trialN,stimuli,trialStartTime,trialStartTime_UNIX,stimulus1,stimulus2,stimulus1Bid,stimulus2Bid,delta,selected,rt,rt_UNIX,rt_perfnow,receivedResponse,rsp,trialEndTime,trialDuration,trialEndTime_UNIX,trialDuration_UNIX,exp,subjectId,date
0,"[{'imgObject': {}, 'id': 'bagel and cc', 'src': '/static/foodstim60/bagel and cc.jpg', 'key': 'u', 'origWidth': 410, 'origHeight': 410, 'width': 410, 'height': 410, 'widthPercent': 0.45, 'rescaleHeight': False, 'trialN': 0, 'loaded': True, 'loadedTime': 7701.89999999851, 'positionName': 'LEFT', 'positionCoords': [511.6, 335], 'bid': 5}, {'imgObject': {}, 'id': 'strawberries', 'src': '/static/foodstim60/strawberries.jpg', 'key': 'i', 'origWidth': 410, 'origHeight': 410, 'width': 410, 'height': 410, 'widthPercent': 0.45, 'rescaleHeight': False, 'trialN': 0, 'loaded': True, 'loadedTime': 7778.5, 'positionName': 'RIGHT', 'positionCoords': [998.4, 335], 'bid': 5.05}]",9104.70000000298,1669834724184,bagel and cc,strawberries,5.0,5.05,0.04999999999999982,bagel and cc,1163.3999999985099,1164,1164.8999999985099,True,u,10782.80000000447,1678.1000000014901,1669834725862,1678,HRV,HRV_0240,2022-11-30 19:03:41
1,"[{'imgObject': {}, 'id': 'blueberries', 'src': '/static/foodstim60/blueberries.jpg', 'key': 'u', 'origWidth': 411, 'origHeight': 411, 'width': 411, 'height': 411, 'widthPercent': 0.45, 'rescaleHeight': False, 'trialN': 1, 'loaded': True, 'loadedTime': 7782.5, 'positionName': 'LEFT', 'positionCoords': [510.6, 334.5], 'bid': 5.2700000000000005}, {'imgObject': {}, 'id': 'mac & cheese', 'src': '/static/foodstim60/mac & cheese.jpg', 'key': 'i', 'origWidth': 410, 'origHeight': 410, 'width': 410, 'height': 410, 'widthPercent': 0.45, 'rescaleHeight': False, 'trialN': 1, 'loaded': True, 'loadedTime': 7784.89999999851, 'positionName': 'RIGHT', 'positionCoords': [998.4, 335], 'bid': 5.04}]",10783.30000000447,1669834725862,blueberries,mac & cheese,5.2700000000000005,5.04,-0.23000000000000043,mac & cheese,823.1999999955297,824,824.0999999940395,True,i,12122.0,1338.6999999955297,1669834727201,1339,HRV,HRV_0240,2022-11-30 19:03:41
2,"[{'imgObject': {}, 'id': 'hotdog w must', 'src': '/static/foodstim60/hotdog w must.jpg', 'key': 'u', 'origWidth': 409, 'origHeight': 409, 'width': 409, 'height': 409, 'widthPercent': 0.45, 'rescaleHeight': False, 'trialN': 2, 'loaded': True, 'loadedTime': 7787, 'positionName': 'LEFT', 'positionCoords': [512.6, 335.5], 'bid': 3.5700000000000003}, {'imgObject': {}, 'id': 'bagel and cc', 'src': '/static/foodstim60/bagel and cc.jpg', 'key': 'i', 'origWidth': 410, 'origHeight': 410, 'width': 410, 'height': 410, 'widthPercent': 0.45, 'rescaleHeight': False, 'trialN': 2, 'loaded': True, 'loadedTime': 7754.70000000298, 'positionName': 'RIGHT', 'positionCoords': [998.4, 335], 'bid': 5}]",12122.30000000447,1669834727201,hotdog w must,bagel and cc,3.5700000000000003,5.0,1.4299999999999997,hotdog w must,841.0,842,842.0,True,u,13478.5,1356.1999999955297,1669834728557,1356,HRV,HRV_0240,2022-11-30 19:03:41
3,"[{'imgObject': {}, 'id': 'mashed potato', 'src': '/static/foodstim60/mashed potato.jpg', 'key': 'u', 'origWidth': 409, 'origHeight': 409, 'width': 409, 'height': 409, 'widthPercent': 0.45, 'rescaleHeight': False, 'trialN': 3, 'loaded': True, 'loadedTime': 7789.39999999851, 'positionName': 'LEFT', 'positionCoords': [512.6, 335.5], 'bid': 8.13}, {'imgObject': {}, 'id': 'strawberries', 'src': '/static/foodstim60/strawberries.jpg', 'key': 'i', 'origWidth': 410, 'origHeight': 410, 'width': 410, 'height': 410, 'widthPercent': 0.45, 'rescaleHeight': False, 'trialN': 3, 'loaded': True, 'loadedTime': 7779.5, 'positionName': 'RIGHT', 'positionCoords': [998.4, 335], 'bid': 5.05}]",13479.0,1669834728558,mashed potato,strawberries,8.13,5.05,-3.080000000000001,mashed potato,1230.2000000029802,1231,1231.5,True,u,15218.80000000447,1739.8000000044703,1669834730298,1740,HRV,HRV_0240,2022-11-30 19:03:41
4,"[{'imgObject': {}, 'id': 'tacos', 'src': '/static/foodstim60/tacos.jpg', 'key': 'u', 'origWidth': 411, 'origHeight': 411, 'width': 411, 'height': 411, 'widthPercent': 0.45, 'rescaleHeight': False, 'trialN': 4, 'loaded': True, 'loadedTime': 7792.10000000149, 'positionName': 'LEFT', 'positionCoords': [510.6, 334.5], 'bid': 9.83}, {'imgObject': {}, 'id': 'salmon', 'src': '/static/foodstim60/salmon.jpg', 'key': 'i', 'origWidth': 410, 'origHeight': 409, 'width': 410, 'height': 409, 'widthPercent': 0.45, 'rescaleHeight': False, 'trialN': 4, 'loaded': True, 'loadedTime': 7792.70000000298, 'positionName': 'RIGHT', 'positionCoords': [998.4, 335.5], 'bid': 9.88}]",15219.70000000298,1669834730298,tacos,salmon,9.83,9.88,0.05000000000000071,tacos,694.1999999955297,695,694.7999999970198,True,u,16424.30000000447,1204.6000000014901,1669834731503,1205,HRV,HRV_0240,2022-11-30 19:03:41
5,"[{'imgObject': {}, 'id': 'steak', 'src': '/static/foodstim60/steak.jpg', 'key': 'u', 'origWidth': 410, 'origHeight': 410, 'width': 410, 'height': 410, 'widthPercent': 0.45, 'rescaleHeight': False, 'trialN': 5, 'loaded': True, 'loadedTime': 7794.39999999851, 'positionName': 'LEFT', 'positionCoords': [511.6, 335], 'bid': 9.87}, {'imgObject': {}, 'id': 'mashed potato', 'src': '/static/foodstim60/mashed potato.jpg', 'key': 'i', 'origWidth': 409, 'origHeight': 409, 'width': 409, 'height': 409, 'widthPercent': 0.45, 'rescaleHeight': False, 'trialN': 5, 'loaded': True, 'loadedTime': 7790.30000000447, 'positionName': 'RIGHT', 'positionCoords': [998.4, 335.5], 'bid': 8.13}]",16424.60000000149,1669834731503,steak,mashed potato,9.87,8.13,-1.7399999999999984,steak,633.6000000014901,634,633.7999999970198,True,u,17571.60000000149,1147.0,1669834732650,1147,HRV,HRV_0240,2022-11-30 19:03:41
6,"[{'imgObject': {}, 'id': 'raisin bran w milk', 'src': '/static/foodstim60/raisin bran w milk.jpg', 'key': 'u', 'origWidth': 411, 'origHeight': 411, 'width': 411, 'height': 411, 'widthPercent': 0.45, 'rescaleHeight': False, 'trialN': 6, 'loaded': True, 'loadedTime': 7798.39999999851, 'positionName': 'LEFT', 'positionCoords': [510.6, 334.5], 'bid': 3.18}, {'imgObject': {}, 'id': 'strawberries', 'src': '/static/foodstim60/strawberries.jpg', 'key': 'i', 'origWidth': 410, 'origHeight': 410, 'width': 410, 'height': 410, 'widthPercent': 0.45, 'rescaleHeight': False, 'trialN': 6, 'loaded': True, 'loadedTime': 7777.5, 'positionName': 'RIGHT', 'positionCoords': [998.4, 335], 'bid': 5.05}]",17572.60000000149,1669834732651,raisin bran w milk,strawberries,3.18,5.05,1.8699999999999997,strawberries,1098.7999999970198,1100,1099.8999999985099,True,i,19188.60000000149,1616.0,1669834734267,1616,HRV,HRV_0240,2022-11-30 19:03:41
7,"[{'imgObject': {}, 'id': 'steak', 'src': '/static/foodstim60/steak.jpg', 'key': 'u', 'origWidth': 410, 'origHeight': 410, 'width': 410, 'height': 410, 'widthPercent': 0.45, 'rescaleHeight': False, 'trialN': 7, 'loaded': True, 'loadedTime': 7796.39999999851, 'positionName': 'LEFT', 'positionCoords': [511.6, 335], 'bid': 9.87}, {'imgObject': {}, 'id': 'sweetpotato', 'src': '/static/foodstim60/sweetpotato.jpg', 'key': 'i', 'origWidth': 410, 'origHeight': 410, 'width': 410, 'height': 410, 'widthPercent': 0.45, 'rescaleHeight': False, 'trialN': 7, 'loaded': True, 'loadedTime': 7801.30000000447, 'positionName': 'RIGHT', 'positionCoords': [998.4, 335], 'bid': 5.2700000000000005}]",19189.10000000149,1669834734268,steak,sweetpotato,9.87,5.2700000000000005,-4.599999999999999,steak,662.2999999970198,663,663.2000000029802,True,u,20362.30000000447,1173.2000000029802,1669834735441,1173,HRV,HRV_0240,2022-11-30 19:03:41
8,"[{'imgObject': {}, 'id': 'salad w chicken', 'src': '/static/foodstim60/salad w chicken.jpg', 'key': 'u', 'origWidth': 411, 'origHeight': 411, 'width': 411, 'height': 411, 'widthPercent': 0.45, 'rescaleHeight': False, 'trialN': 8, 'loaded': True, 'loadedTime': 7805, 'positionName': 'LEFT', 'positionCoords': [510.6, 334.5], 'bid': 9.83}, {'imgObject': {}, 'id': 'burger', 'src': '/static/foodstim60/burger.jpg', 'key': 'i', 'origWidth': 409, 'origHeight': 409, 'width': 409, 'height': 409, 'widthPercent': 0.45, 'rescaleHeight': False, 'trialN': 8, 'loaded': True, 'loadedTime': 7805.70000000298, 'positionName': 'RIGHT', 'positionCoords': [998.4, 335.5], 'bid': 9.61}]",20362.70000000298,1669834735441,salad w chicken,burger,9.83,9.61,-0.22000000000000064,salad w chicken,846.6000000014901,848,847.6999999955297,True,u,21717.39999999851,1354.6999999955297,1669834736796,1355,HRV,HRV_0240,2022-11-30 19:03:41
9,"[{'imgObject': {}, 'id': 'turkey sandwich', 'src': '/static/foodstim60/turkey sandwich.jpg', 'key': 'u', 'origWidth': 409, 'origHeight': 409, 'width': 409, 'height': 409, 'widthPercent': 0.45, 'rescaleHeight': False, 'trialN': 9, 'loaded': True, 'loadedTime': 7807.80000000447, 'positionName': 'LEFT', 'positionCoords': [512.6, 335.5], 'bid': 9.9}, {'imgObject': {}, 'id': 'chicken nuggets2', 'src': '/static/foodstim60/chicken nuggets2.jpg', 'key': 'i', 'origWidth': 410, 'origHeight': 409, 'width': 410, 'height': 409, 'widthPercent': 0.45, 'rescaleHeight': False, 'trialN': 9, 'loaded': True, 'loadedTime': 7812.70000000298, 'positionName': 'RIGHT', 'positionCoords': [998.4, 335.5], 'bid': 9.89}]",21718.30000000447,1669834736797,turkey sandwich,chicken nuggets2,9.9,9.89,-0.009999999999999787,turkey sandwich,1063.7999999970198,1064,1064.1999999955297,True,u,23294.0,1575.6999999955297,1669834738373,1576,HRV,HRV_0240,2022-11-30 19:03:41
10,"[{'imgObject': {}, 'id': 'yogurt no spoon', 'src': '/static/foodstim60/yogurt no spoon.jpg', 'key': 'u', 'origWidth': 411, 'origHeight': 410, 'width': 411, 'height': 410, 'widthPercent': 0.45, 'rescaleHeight': False, 'trialN': 10, 'loaded': True, 'loadedTime': 7813.89999999851, 'positionName': 'LEFT', 'positionCoords': [510.6, 335], 'bid': 5.05}, {'imgObject': {}, 'id': 'corn cob', 'src': '/static/foodstim60/corn cob.jpg', 'key': 'i', 'origWidth': 411, 'origHeight': 411, 'width': 411, 'height': 411, 'widthPercent': 0.45, 'rescaleHeight': False, 'trialN': 10, 'loaded': True, 'loadedTime': 7816.10000000149, 'positionName': 'RIGHT', 'positionCoords': [998.4, 334.5], 'bid': 5.15}]",23294.70000000298,1669834738373,yogurt no spoon,corn cob,5.05,5.15,0.10000000000000053,corn cob,1591.6000000014901,1592,1591.8999999985099,True,i,25403.39999999851,2108.6999999955297,1669834740482,2109,HRV,HRV_0240,2022-11-30 19:03:41
11,"[{'imgObject': {}, 'id': 'Tribe humus pita', 'src': '/static/foodstim60/Tribe humus pita.jpg', 'key': 'u', 'origWidth': 411, 'origHeight': 411, 'width': 411, 'height': 411, 'widthPercent': 0.45, 'rescaleHeight': False, 'trialN': 11, 'loaded': True, 'loadedTime': 7817.20000000298, 'positionName': 'LEFT', 'positionCoords': [510.6, 334.5], 'bid': 5.08}, {'imgObject': {}, 'id': 'orange slices', 'src': '/static/foodstim60/orange slices.jpg', 'key': 'i', 'origWidth': 409, 'origHeight': 410, 'width': 409, 'height': 410, 'widthPercent': 0.45, 'rescaleHeight': False, 'trialN': 11, 'loaded': True, 'loadedTime': 7823.39999999851, 'positionName': 'RIGHT', 'positionCoords': [998.4, 335], 'bid': 5.33}]",25403.70000000298,1669834740483,Tribe humus pita,orange slices,5.08,5.33,0.25,orange slices,1368.6000000014901,1370,1370.6000000014901,True,i,27293.89999999851,1890.1999999955297,1669834742373,1890,HRV,HRV_0240,2022-11-30 19:03:41
12,"[{'imgObject': {}, 'id': 'salmon', 'src': '/static/foodstim60/salmon.jpg', 'key': 'u', 'origWidth': 410, 'origHeight': 409, 'width': 410, 'height': 409, 'widthPercent': 0.45, 'rescaleHeight': False, 'trialN': 12, 'loaded': True, 'loadedTime': 7793.80000000447, 'positionName': 'LEFT', 'positionCoords': [511.6, 335.5], 'bid': 9.88}, {'imgObject': {}, 'id': 'burger', 'src': '/static/foodstim60/burger.jpg', 'key': 'i', 'origWidth': 409, 'origHeight': 409, 'width': 409, 'height': 409, 'widthPercent': 0.45, 'rescaleHeight': False, 'trialN': 12, 'loaded': True, 'loadedTime': 7807.5, 'positionName': 'RIGHT', 'positionCoords': [998.4, 335.5], 'bid': 9.61}]",27294.30000000447,1669834742373,salmon,burger,9.88,9.61,-0.27000000000000135,burger,721.2999999970198,722,722.2999999970198,True,i,28532.39999999851,1238.0999999940395,1669834743611,1238,HRV,HRV_0240,2022-11-30 19:03:41
13,"[{'imgObject': {}, 'id': 'burrito', 'src': '/static/foodstim60/burrito.jpg', 'key': 'u', 'origWidth': 410, 'origHeight': 410, 'width': 410, 'height': 410, 'widthPercent': 0.45, 'rescaleHeight': False, 'trialN': 13, 'loaded': True, 'loadedTime': 7853.20000000298, 'positionName': 'LEFT', 'positionCoords': [511.6, 335], 'bid': 9.78}, {'imgObject': {}, 'id': 'rigatoni', 'src': '/static/foodstim60/rigatoni.jpg', 'key': 'i', 'origWidth': 411, 'origHeight': 411, 'width': 411, 'height': 411, 'widthPercent': 0.45, 'rescaleHeight': False, 'trialN': 13, 'loaded': True, 'loadedTime': 7867.39999999851, 'positionName': 'RIGHT', 'positionCoords': [998.4, 334.5], 'bid': 5.14}]",28533.20000000298,1669834743612,burrito,rigatoni,9.78,5.14,-4.64,burrito,1097.0,1098,1098.1000000014901,True,u,30136.0,1602.7999999970198,1669834745215,1603,HRV,HRV_0240,2022-11-30 19:03:41
14,"[{'imgObject': {}, 'id': 'fruitsalad', 'src': '/static/foodstim60/fruitsalad.jpg', 'key': 'u', 'origWidth': 410, 'origHeight': 410, 'width': 410, 'height': 410, 'widthPercent': 0.45, 'rescaleHeight': False, 'trialN': 14, 'loaded': True, 'loadedTime': 7879.39999999851, 'positionName': 'LEFT', 'positionCoords': [511.6, 335], 'bid': 5.38}, {'imgObject': {}, 'id': 'shreddedwheatwithmilk', 'src': '/static/foodstim60/shreddedwheatwithmilk.jpg', 'key': 'i', 'origWidth': 410, 'origHeight': 410, 'width': 410, 'height': 410, 'widthPercent': 0.45, 'rescaleHeight': False, 'trialN': 14, 'loaded': True, 'loadedTime': 7883.70000000298, 'positionName': 'RIGHT', 'positionCoords': [998.4, 335], 'bid': 2.82}]",30136.80000000447,1669834745216,fruitsalad,shreddedwheatwithmilk,5.38,2.82,-2.56,fruitsalad,1117.2999999970198,1117,1117.5999999940395,True,u,31766.39999999851,1629.5999999940395,1669834746845,1629,HRV,HRV_0240,2022-11-30 19:03:41
15,"[{'imgObject': {}, 'id': 'fried eggs', 'src': '/static/foodstim60/fried eggs.jpg', 'key': 'u', 'origWidth': 410, 'origHeight': 410, 'width': 410, 'height': 410, 'widthPercent': 0.45, 'rescaleHeight': False, 'trialN': 15, 'loaded': True, 'loadedTime': 7885.39999999851, 'positionName': 'LEFT', 'positionCoords': [511.6, 335], 'bid': 9.86}, {'imgObject': {}, 'id': 'veggieswithdip', 'src': '/static/foodstim60/veggieswithdip.jpg', 'key': 'i', 'origWidth': 409, 'origHeight': 409, 'width': 409, 'height': 409, 'widthPercent': 0.45, 'rescaleHeight': False, 'trialN': 15, 'loaded': True, 'loadedTime': 7911.5, 'positionName': 'RIGHT', 'positionCoords': [998.4, 335.5], 'bid': 7.82}]",31767.10000000149,1669834746846,fried eggs,veggieswithdip,9.86,7.82,-2.039999999999999,fried eggs,1529.1000000014901,1529,1529.5,True,u,33797.60000000149,2030.5,1669834748876,2030,HRV,HRV_0240,2022-11-30 19:03:41
16,"[{'imgObject': {}, 'id': 'olives', 'src': '/static/foodstim60/olives.jpg', 'key': 'u', 'origWidth': 410, 'origHeight': 410, 'width': 410, 'height': 410, 'widthPercent': 0.45, 'rescaleHeight': False, 'trialN': 16, 'loaded': True, 'loadedTime': 7914.30000000447, 'positionName': 'LEFT', 'positionCoords': [511.6, 335], 'bid': 5.32}, {'imgObject': {}, 'id': 'sweetpotato', 'src': '/static/foodstim60/sweetpotato.jpg', 'key': 'i', 'origWidth': 410, 'origHeight': 410, 'width': 410, 'height': 410, 'widthPercent': 0.45, 'rescaleHeight': False, 'trialN': 16, 'loaded': True, 'loadedTime': 7799.39999999851, 'positionName': 'RIGHT', 'positionCoords': [998.4, 335], 'bid': 5.2700000000000005}]",33797.70000000298,1669834748876,olives,sweetpotato,5.32,5.2700000000000005,-0.04999999999999982,sweetpotato,978.6999999955297,979,978.8999999985099,True,i,35279.39999999851,1481.6999999955297,1669834750358,1482,HRV,HRV_0240,2022-11-30 19:03:41
17,"[{'imgObject': {}, 'id': 'orange slices', 'src': '/static/foodstim60/orange slices.jpg', 'key': 'u', 'origWidth': 409, 'origHeight': 410, 'width': 409, 'height': 410, 'widthPercent': 0.45, 'rescaleHeight': False, 'trialN': 17, 'loaded': True, 'loadedTime': 7824.70000000298, 'positionName': 'LEFT', 'positionCoords': [512.6, 335], 'bid': 5.33}, {'imgObject': {}, 'id': 'blackbeanswithrice', 'src': '/static/foodstim60/blackbeanswithrice.jpg', 'key': 'i', 'origWidth': 410, 'origHeight': 410, 'width': 410, 'height': 410, 'widthPercent': 0.45, 'rescaleHeight': False, 'trialN': 17, 'loaded': True, 'loadedTime': 7925.10000000149, 'positionName': 'RIGHT', 'positionCoords': [998.4, 335], 'bid': 5.3500000000000005}]",35279.89999999851,1669834750358,orange slices,blackbeanswithrice,5.33,5.3500000000000005,0.020000000000000462,blackbeanswithrice,1006.7000000029802,1008,1007.4000000059605,True,i,36791.30000000447,1511.4000000059605,1669834751870,1512,HRV,HRV_0240,2022-11-30 19:03:41
18,"[{'imgObject': {}, 'id': 'seaweed', 'src': '/static/foodstim60/seaweed.jpg', 'key': 'u', 'origWidth': 410, 'origHeight': 410, 'width': 410, 'height': 410, 'widthPercent': 0.45, 'rescaleHeight': False, 'trialN': 18, 'loaded': True, 'loadedTime': 7954.30000000447, 'positionName': 'LEFT', 'positionCoords': [511.6, 335], 'bid': 5.37}, {'imgObject': {}, 'id': 'eggsalad', 'src': '/static/foodstim60/eggsalad.jpg', 'key': 'i', 'origWidth': 410, 'origHeight': 409, 'width': 410, 'height': 409, 'widthPercent': 0.45, 'rescaleHeight': False, 'trialN': 18, 'loaded': True, 'loadedTime': 7959.30000000447, 'positionName': 'RIGHT', 'positionCoords': [998.4, 335.5], 'bid': 6.97}]",36792.39999999851,1669834751871,seaweed,eggsalad,5.37,6.97,1.5999999999999996,eggsalad,1242.4000000059605,1243,1243.4000000059605,True,i,38548.80000000447,1756.4000000059605,1669834753627,1756,HRV,HRV_0240,2022-11-30 19:03:41
19,"[{'imgObject': {}, 'id': 'hashbrowns', 'src': '/static/foodstim60/hashbrowns.jpg', 'key': 'u', 'origWidth': 411, 'origHeight': 410, 'width': 411, 'height': 410, 'widthPercent': 0.45, 'rescaleHeight': False, 'trialN': 19, 'loaded': True, 'loadedTime': 7964.70000000298, 'positionName': 'LEFT', 'positionCoords': [510.6, 335], 'bid': 2.54}, {'imgObject': {}, 'id': 'granola w milk', 'src': '/static/foodstim60/granola w milk.jpg', 'key': 'i', 'origWidth': 410, 'origHeight': 410, 'width': 410, 'height': 410, 'widthPercent': 0.45, 'rescaleHeight': False, 'trialN': 19, 'loaded': True, 'loadedTime': 7975.89999999851, 'positionName': 'RIGHT', 'positionCoords': [998.4, 335], 'bid': 3.5500000000000003}]",38549.70000000298,1669834753628,hashbrowns,granola w milk,2.54,3.5500000000000003,1.0100000000000002,granola w milk,1708.1999999955297,1709,1709.1000000014901,True,i,40774.80000000447,2225.10000000149,1669834755853,2225,HRV,HRV_0240,2022-11-30 19:03:41
20,"[{'imgObject': {}, 'id': 'grilled chicken strips', 'src': '/static/foodstim60/grilled chicken strips.jpg', 'key': 'u', 'origWidth': 410, 'origHeight': 411, 'width': 410, 'height': 411, 'widthPercent': 0.45, 'rescaleHeight': False, 'trialN': 20, 'loaded': True, 'loadedTime': 7979.5, 'positionName': 'LEFT', 'positionCoords': [511.6, 334.5], 'bid': 9.84}, {'imgObject': {}, 'id': 'omelette', 'src': '/static/foodstim60/omelette.jpg', 'key': 'i', 'origWidth': 410, 'origHeight': 409, 'width': 410, 'height': 409, 'widthPercent': 0.45, 'rescaleHeight': False, 'trialN': 20, 'loaded': True, 'loadedTime': 7994.10000000149, 'positionName': 'RIGHT', 'positionCoords': [998.4, 335.5], 'bid': 9.8}]",40775.10000000149,1669834755854,grilled chicken strips,omelette,9.84,9.8,-0.03999999999999915,grilled chicken strips,879.0,880,880.2999999970198,True,u,42170.60000000149,1395.5,1669834757249,1395,HRV,HRV_0240,2022-11-30 19:03:41
21,"[{'imgObject': {}, 'id': 'blackbeanswithrice', 'src': '/static/foodstim60/blackbeanswithrice.jpg', 'key': 'u', 'origWidth': 410, 'origHeight': 410, 'width': 410, 'height': 410, 'widthPercent': 0.45, 'rescaleHeight': False, 'trialN': 21, 'loaded': True, 'loadedTime': 7924.39999999851, 'positionName': 'LEFT', 'positionCoords': [511.6, 335], 'bid': 5.3500000000000005}, {'imgObject': {}, 'id': 'chickenfingers', 'src': '/static/foodstim60/chickenfingers.jpg', 'key': 'i', 'origWidth': 410, 'origHeight': 410, 'width': 410, 'height': 410, 'widthPercent': 0.45, 'rescaleHeight': False, 'trialN': 21, 'loaded': True, 'loadedTime': 7997, 'positionName': 'RIGHT', 'positionCoords': [998.4, 335], 'bid': 9.79}]",42171.39999999851,1669834757250,blackbeanswithrice,chickenfingers,5.3500000000000005,9.79,4.439999999999999,blackbeanswithrice,804.5,805,805.5,True,u,43492.60000000149,1321.2000000029802,1669834758571,1321,HRV,HRV_0240,2022-11-30 19:03:41
22,"[{'imgObject': {}, 'id': 'Tribe humus pita', 'src': '/static/foodstim60/Tribe humus pita.jpg', 'key': 'u', 'origWidth': 411, 'origHeight': 411, 'width': 411, 'height': 411, 'widthPercent': 0.45, 'rescaleHeight': False, 'trialN': 22, 'loaded': True, 'loadedTime': 7817.30000000447, 'positionName': 'LEFT', 'positionCoords': [510.6, 334.5], 'bid': 5.08}, {'imgObject': {}, 'id': 'roastedpotatoes', 'src': '/static/foodstim60/roastedpotatoes.jpg', 'key': 'i', 'origWidth': 409, 'origHeight': 410, 'width': 409, 'height': 410, 'widthPercent': 0.45, 'rescaleHeight': False, 'trialN': 22, 'loaded': True, 'loadedTime': 7998, 'positionName': 'RIGHT', 'positionCoords': [998.4, 335], 'bid': 9.77}]",43493.60000000149,1669834758572,Tribe humus pita,roastedpotatoes,5.08,9.77,4.6899999999999995,roastedpotatoes,1035.6000000014901,1037,1036.6000000014901,True,i,45045.89999999851,1552.2999999970198,1669834760124,1552,HRV,HRV_0240,2022-11-30 19:03:41
23,"[{'imgObject': {}, 'id': 'hotdog w must', 'src': '/static/foodstim60/hotdog w must.jpg', 'key': 'u', 'origWidth': 409, 'origHeight': 409, 'width': 409, 'height': 409, 'widthPercent': 0.45, 'rescaleHeight': False, 'trialN': 23, 'loaded': True, 'loadedTime': 7785.20000000298, 'positionName': 'LEFT', 'positionCoords': [512.6, 335.5], 'bid': 3.5700000000000003}, {'imgObject': {}, 'id': 'cheerios', 'src': '/static/foodstim60/cheerios.jpg', 'key': 'i', 'origWidth': 409, 'origHeight': 410, 'width': 409, 'height': 410, 'widthPercent': 0.45, 'rescaleHeight': False, 'trialN': 23, 'loaded': True, 'loadedTime': 8009, 'positionName': 'RIGHT', 'positionCoords': [998.4, 335], 'bid': 2.63}]",45046.10000000149,1669834760125,hotdog w must,cheerios,3.5700000000000003,2.63,-0.9400000000000004,hotdog w must,1251.2000000029802,1251,1251.5,True,u,46799.70000000298,1753.6000000014901,1669834761878,1753,HRV,HRV_0240,2022-11-30 19:03:41
24,"[{'imgObject': {}, 'id': 'turkey sandwich', 'src': '/static/foodstim60/turkey sandwich.jpg', 'key': 'u', 'origWidth': 409, 'origHeight': 409, 'width': 409, 'height': 409, 'widthPercent': 0.45, 'rescaleHeight': False, 'trialN': 24, 'loaded': True, 'loadedTime': 7809.30000000447, 'positionName': 'LEFT', 'positionCoords': [512.6, 335.5], 'bid': 9.9}, {'imgObject': {}, 'id': 'eggs', 'src': '/static/foodstim60/eggs.jpg', 'key': 'i', 'origWidth': 409, 'origHeight': 409, 'width': 409, 'height': 409, 'widthPercent': 0.45, 'rescaleHeight': False, 'trialN': 24, 'loaded': True, 'loadedTime': 8021, 'positionName': 'RIGHT', 'positionCoords': [998.4, 335.5], 'bid': 9.83}]",46800.60000000149,1669834761879,turkey sandwich,eggs,9.9,9.83,-0.07000000000000028,turkey sandwich,609.3999999985099,610,610.2999999970198,True,u,47926.80000000447,1126.2000000029802,1669834763005,1126,HRV,HRV_0240,2022-11-30 19:03:41
25,"[{'imgObject': {}, 'id': 'Grapes', 'src': '/static/foodstim60/Grapes.jpg', 'key': 'u', 'origWidth': 411, 'origHeight': 411, 'width': 411, 'height': 411, 'widthPercent': 0.45, 'rescaleHeight': False, 'trialN': 25, 'loaded': True, 'loadedTime': 8023.80000000447, 'positionName': 'LEFT', 'positionCoords': [510.6, 334.5], 'bid': 5.16}, {'imgObject': {}, 'id': 'raisin bran w milk', 'src': '/static/foodstim60/raisin bran w milk.jpg', 'key': 'i', 'origWidth': 411, 'origHeight': 411, 'width': 411, 'height': 411, 'widthPercent': 0.45, 'rescaleHeight': False, 'trialN': 25, 'loaded': True, 'loadedTime': 7798.80000000447, 'positionName': 'RIGHT', 'positionCoords': [998.4, 334.5], 'bid': 3.18}]",47927.70000000298,1669834763006,Grapes,raisin bran w milk,5.16,3.18,-1.98,raisin bran w milk,1098.0,1099,1099.0,True,i,49538.20000000298,1610.5,1669834764617,1611,HRV,HRV_0240,2022-11-30 19:03:41
26,"[{'imgObject': {}, 'id': 'bagel and cc', 'src': '/static/foodstim60/bagel and cc.jpg', 'key': 'u', 'origWidth': 410, 'origHeight': 410, 'width': 410, 'height': 410, 'widthPercent': 0.45, 'rescaleHeight': False, 'trialN': 26, 'loaded': True, 'loadedTime': 7755.20000000298, 'positionName': 'LEFT', 'positionCoords': [511.6, 335], 'bid': 5}, {'imgObject': {}, 'id': 'mango', 'src': '/static/foodstim60/mango.jpg', 'key': 'i', 'origWidth': 411, 'origHeight': 411, 'width': 411, 'height': 411, 'widthPercent': 0.45, 'rescaleHeight': False, 'trialN': 26, 'loaded': True, 'loadedTime': 8033.80000000447, 'positionName': 'RIGHT', 'positionCoords': [998.4, 334.5], 'bid': 5.22}]",49539.0,1669834764617,bagel and cc,mango,5.0,5.22,0.21999999999999975,bagel and cc,1646.1000000014901,1647,1646.3000000044703,True,u,51702.20000000298,2163.2000000029802,1669834766781,2164,HRV,HRV_0240,2022-11-30 19:03:41
27,"[{'imgObject': {}, 'id': 'Tribe humus pita', 'src': '/static/foodstim60/Tribe humus pita.jpg', 'key': 'u', 'origWidth': 411, 'origHeight': 411, 'width': 411, 'height': 411, 'widthPercent': 0.45, 'rescaleHeight': False, 'trialN': 27, 'loaded': True, 'loadedTime': 7816.10000000149, 'positionName': 'LEFT', 'positionCoords': [510.6, 334.5], 'bid': 5.08}, {'imgObject': {}, 'id': 'shreddedwheatwithmilk', 'src': '/static/foodstim60/shreddedwheatwithmilk.jpg', 'key': 'i', 'origWidth': 410, 'origHeight': 410, 'width': 410, 'height': 410, 'widthPercent': 0.45, 'rescaleHeight': False, 'trialN': 27, 'loaded': True, 'loadedTime': 7885.10000000149, 'positionName': 'RIGHT', 'positionCoords': [998.4, 335], 'bid': 2.82}]",51703.10000000149,1669834766782,Tribe humus pita,shreddedwheatwithmilk,5.08,2.82,-2.2600000000000002,Tribe humus pita,1183.0,1184,1184.1000000014901,True,u,53400.30000000447,1697.2000000029802,1669834768479,1697,HRV,HRV_0240,2022-11-30 19:03:41
28,"[{'imgObject': {}, 'id': 'fried eggs', 'src': '/static/foodstim60/fried eggs.jpg', 'key': 'u', 'origWidth': 410, 'origHeight': 410, 'width': 410, 'height': 410, 'widthPercent': 0.45, 'rescaleHeight': False, 'trialN': 28, 'loaded': True, 'loadedTime': 7892.70000000298, 'positionName': 'LEFT', 'positionCoords': [511.6, 335], 'bid': 9.86}, {'imgObject': {}, 'id': 'grilled chicken strips', 'src': '/static/foodstim60/grilled chicken strips.jpg', 'key': 'i', 'origWidth': 410, 'origHeight': 411, 'width': 410, 'height': 411, 'widthPercent': 0.45, 'rescaleHeight': False, 'trialN': 28, 'loaded': True, 'loadedTime': 7988.39999999851, 'positionName': 'RIGHT', 'positionCoords': [998.4, 334.5], 'bid': 9.84}]",53400.5,1669834768479,fried eggs,grilled chicken strips,9.86,9.84,-0.019999999999999574,grilled chicken strips,832.3000000044703,833,832.5,True,i,54740.10000000149,1339.6000000014901,1669834769819,1340,HRV,HRV_0240,2022-11-30 19:03:41
29,"[{'imgObject': {}, 'id': 'chicken nuggets2', 'src': '/static/foodstim60/chicken nuggets2.jpg', 'key': 'u', 'origWidth': 410, 'origHeight': 409, 'width': 410, 'height': 409, 'widthPercent': 0.45, 'rescaleHeight': False, 'trialN': 29, 'loaded': True, 'loadedTime': 7812, 'positionName': 'LEFT', 'positionCoords': [511.6, 335.5], 'bid': 9.89}, {'imgObject': {}, 'id': 'steak', 'src': '/static/foodstim60/steak.jpg', 'key': 'i', 'origWidth': 410, 'origHeight': 410, 'width': 410, 'height': 410, 'widthPercent': 0.45, 'rescaleHeight': False, 'trialN': 29, 'loaded': True, 'loadedTime': 7795.5, 'positionName': 'RIGHT', 'positionCoords': [998.4, 335], 'bid': 9.87}]",54741.30000000447,1669834769820,chicken nuggets2,steak,9.89,9.87,-0.02000000000000135,steak,704.3999999985099,705,705.5,True,i,55953.60000000149,1212.2999999970198,1669834771032,1212,HRV,HRV_0240,2022-11-30 19:03:41
30,"[{'imgObject': {}, 'id': 'cherry tomato', 'src': '/static/foodstim60/cherry tomato.jpg', 'key': 'u', 'origWidth': 410, 'origHeight': 410, 'width': 410, 'height': 410, 'widthPercent': 0.45, 'rescaleHeight': False, 'trialN': 30, 'loaded': True, 'loadedTime': 8038.5, 'positionName': 'LEFT', 'positionCoords': [511.6, 335], 'bid': 7.7}, {'imgObject': {}, 'id': 'burrito', 'src': '/static/foodstim60/burrito.jpg', 'key': 'i', 'origWidth': 410, 'origHeight': 410, 'width': 410, 'height': 410, 'widthPercent': 0.45, 'rescaleHeight': False, 'trialN': 30, 'loaded': True, 'loadedTime': 7861.89999999851, 'positionName': 'RIGHT', 'positionCoords': [998.4, 335], 'bid': 9.78}]",55954.39999999851,1669834771033,cherry tomato,burrito,7.7,9.78,2.079999999999999,burrito,1040.5,1041,1041.6000000014901,True,i,57511.5,1557.1000000014901,1669834772590,1557,HRV,HRV_0240,2022-11-30 19:03:41
31,"[{'imgObject': {}, 'id': 'fried eggs', 'src': '/static/foodstim60/fried eggs.jpg', 'key': 'u', 'origWidth': 410, 'origHeight': 410, 'width': 410, 'height': 410, 'widthPercent': 0.45, 'rescaleHeight': False, 'trialN': 31, 'loaded': True, 'loadedTime': 7889.30000000447, 'positionName': 'LEFT', 'positionCoords': [511.6, 335], 'bid': 9.86}, {'imgObject': {}, 'id': 'turkeysandwich', 'src': '/static/foodstim60/turkeysandwich.jpg', 'key': 'i', 'origWidth': 409, 'origHeight': 409, 'width': 409, 'height': 409, 'widthPercent': 0.45, 'rescaleHeight': False, 'trialN': 31, 'loaded': True, 'loadedTime': 8044.30000000447, 'positionName': 'RIGHT', 'positionCoords': [998.4, 335.5], 'bid': 9.8}]",57512.5,1669834772591,fried eggs,turkeysandwich,9.86,9.8,-0.05999999999999872,turkeysandwich,947.1000000014901,948,948.2000000029802,True,i,58975.89999999851,1463.3999999985099,1669834774054,1463,HRV,HRV_0240,2022-11-30 19:03:41
32,"[{'imgObject': {}, 'id': 'blueberries', 'src': '/static/foodstim60/blueberries.jpg', 'key': 'u', 'origWidth': 411, 'origHeight': 411, 'width': 411, 'height': 411, 'widthPercent': 0.45, 'rescaleHeight': False, 'trialN': 32, 'loaded': True, 'loadedTime': 7782.39999999851, 'positionName': 'LEFT', 'positionCoords': [510.6, 334.5], 'bid': 5.2700000000000005}, {'imgObject': {}, 'id': 'olives', 'src': '/static/foodstim60/olives.jpg', 'key': 'i', 'origWidth': 410, 'origHeight': 410, 'width': 410, 'height': 410, 'widthPercent': 0.45, 'rescaleHeight': False, 'trialN': 32, 'loaded': True, 'loadedTime': 7914.5, 'positionName': 'RIGHT', 'positionCoords': [998.4, 335], 'bid': 5.32}]",58976.10000000149,1669834774055,blueberries,olives,5.2700000000000005,5.32,0.04999999999999982,blueberries,1488.7000000029802,1490,1490.0,True,u,60981.89999999851,2005.7999999970198,1669834776060,2005,HRV,HRV_0240,2022-11-30 19:03:41
33,"[{'imgObject': {}, 'id': 'blueberries', 'src': '/static/foodstim60/blueberries.jpg', 'key': 'u', 'origWidth': 411, 'origHeight': 411, 'width': 411, 'height': 411, 'widthPercent': 0.45, 'rescaleHeight': False, 'trialN': 33, 'loaded': True, 'loadedTime': 7782.80000000447, 'positionName': 'LEFT', 'positionCoords': [510.6, 334.5], 'bid': 5.2700000000000005}, {'imgObject': {}, 'id': 'fried eggs', 'src': '/static/foodstim60/fried eggs.jpg', 'key': 'i', 'origWidth': 410, 'origHeight': 410, 'width': 410, 'height': 410, 'widthPercent': 0.45, 'rescaleHeight': False, 'trialN': 33, 'loaded': True, 'loadedTime': 7894.30000000447, 'positionName': 'RIGHT', 'positionCoords': [998.4, 335], 'bid': 9.86}]",60982.10000000149,1669834776061,blueberries,fried eggs,5.2700000000000005,9.86,4.589999999999999,fried eggs,2012.0,2013,2013.0,True,i,63503.70000000298,2521.60000000149,1669834778582,2521,HRV,HRV_0240,2022-11-30 19:03:41
34,"[{'imgObject': {}, 'id': 'ice cream sundae 002', 'src': '/static/foodstim60/ice cream sundae 002.jpg', 'key': 'u', 'origWidth': 409, 'origHeight': 409, 'width': 409, 'height': 409, 'widthPercent': 0.45, 'rescaleHeight': False, 'trialN': 34, 'loaded': True, 'loadedTime': 8049.10000000149, 'positionName': 'LEFT', 'positionCoords': [512.6, 335.5], 'bid': 5.14}, {'imgObject': {}, 'id': 'cherries', 'src': '/static/foodstim60/cherries.jpg', 'key': 'i', 'origWidth': 410, 'origHeight': 411, 'width': 410, 'height': 411, 'widthPercent': 0.45, 'rescaleHeight': False, 'trialN': 34, 'loaded': True, 'loadedTime': 8052.39999999851, 'positionName': 'RIGHT', 'positionCoords': [998.4, 334.5], 'bid': 5.22}]",63504.10000000149,1669834778583,ice cream sundae 002,cherries,5.14,5.22,0.08000000000000007,cherries,1466.2999999970198,1467,1467.5,True,i,65494.20000000298,1990.1000000014901,1669834780573,1990,HRV,HRV_0240,2022-11-30 19:03:41
35,"[{'imgObject': {}, 'id': 'pear', 'src': '/static/foodstim60/pear.jpg', 'key': 'u', 'origWidth': 411, 'origHeight': 410, 'width': 411, 'height': 410, 'widthPercent': 0.45, 'rescaleHeight': False, 'trialN': 35, 'loaded': True, 'loadedTime': 8057, 'positionName': 'LEFT', 'positionCoords': [510.6, 335], 'bid': 5.34}, {'imgObject': {}, 'id': 'burrito', 'src': '/static/foodstim60/burrito.jpg', 'key': 'i', 'origWidth': 410, 'origHeight': 410, 'width': 410, 'height': 410, 'widthPercent': 0.45, 'rescaleHeight': False, 'trialN': 35, 'loaded': True, 'loadedTime': 7856.10000000149, 'positionName': 'RIGHT', 'positionCoords': [998.4, 335], 'bid': 9.78}]",65495.20000000298,1669834780574,pear,burrito,5.34,9.78,4.4399999999999995,burrito,744.3999999985099,744,744.6000000014901,True,i,66750.20000000298,1255.0,1669834781829,1255,HRV,HRV_0240,2022-11-30 19:03:41
36,"[{'imgObject': {}, 'id': 'turkey sandwich', 'src': '/static/foodstim60/turkey sandwich.jpg', 'key': 'u', 'origWidth': 409, 'origHeight': 409, 'width': 409, 'height': 409, 'widthPercent': 0.45, 'rescaleHeight': False, 'trialN': 36, 'loaded': True, 'loadedTime': 7809, 'positionName': 'LEFT', 'positionCoords': [512.6, 335.5], 'bid': 9.9}, {'imgObject': {}, 'id': 'salmon', 'src': '/static/foodstim60/salmon.jpg', 'key': 'i', 'origWidth': 410, 'origHeight': 409, 'width': 410, 'height': 409, 'widthPercent': 0.45, 'rescaleHeight': False, 'trialN': 36, 'loaded': True, 'loadedTime': 7794.10000000149, 'positionName': 'RIGHT', 'positionCoords': [998.4, 335.5], 'bid': 9.88}]",66751.60000000149,1669834781830,turkey sandwich,salmon,9.9,9.88,-0.019999999999999574,turkey sandwich,781.8999999985099,783,782.7999999970198,True,u,68052.5,1300.8999999985099,1669834783131,1301,HRV,HRV_0240,2022-11-30 19:03:41
37,"[{'imgObject': {}, 'id': 'granola w milk', 'src': '/static/foodstim60/granola w milk.jpg', 'key': 'u', 'origWidth': 410, 'origHeight': 410, 'width': 410, 'height': 410, 'widthPercent': 0.45, 'rescaleHeight': False, 'trialN': 37, 'loaded': True, 'loadedTime': 7965.70000000298, 'positionName': 'LEFT', 'positionCoords': [511.6, 335], 'bid': 3.5500000000000003}, {'imgObject': {}, 'id': 'raisin bran w milk', 'src': '/static/foodstim60/raisin bran w milk.jpg', 'key': 'i', 'origWidth': 411, 'origHeight': 411, 'width': 411, 'height': 411, 'widthPercent': 0.45, 'rescaleHeight': False, 'trialN': 37, 'loaded': True, 'loadedTime': 7796.5, 'positionName': 'RIGHT', 'positionCoords': [998.4, 334.5], 'bid': 3.18}]",68054.10000000149,1669834783133,granola w milk,raisin bran w milk,3.5500000000000003,3.18,-0.3700000000000001,raisin bran w milk,1063.7999999970198,1064,1064.2000000029802,True,i,69630.80000000447,1576.7000000029802,1669834784709,1576,HRV,HRV_0240,2022-11-30 19:03:41
38,"[{'imgObject': {}, 'id': 'cocktailshrimp', 'src': '/static/foodstim60/cocktailshrimp.jpg', 'key': 'u', 'origWidth': 410, 'origHeight': 410, 'width': 410, 'height': 410, 'widthPercent': 0.45, 'rescaleHeight': False, 'trialN': 38, 'loaded': True, 'loadedTime': 8059.80000000447, 'positionName': 'LEFT', 'positionCoords': [511.6, 335], 'bid': 9.83}, {'imgObject': {}, 'id': 'eggsalad', 'src': '/static/foodstim60/eggsalad.jpg', 'key': 'i', 'origWidth': 410, 'origHeight': 409, 'width': 410, 'height': 409, 'widthPercent': 0.45, 'rescaleHeight': False, 'trialN': 38, 'loaded': True, 'loadedTime': 7957.89999999851, 'positionName': 'RIGHT', 'positionCoords': [998.4, 335.5], 'bid': 6.97}]",69631.70000000298,1669834784710,cocktailshrimp,eggsalad,9.83,6.97,-2.8600000000000003,eggsalad,852.8999999985099,854,854.0,True,i,71001.20000000298,1369.5,1669834786080,1370,HRV,HRV_0240,2022-11-30 19:03:41
39,"[{'imgObject': {}, 'id': 'yogurt no spoon', 'src': '/static/foodstim60/yogurt no spoon.jpg', 'key': 'u', 'origWidth': 411, 'origHeight': 410, 'width': 411, 'height': 410, 'widthPercent': 0.45, 'rescaleHeight': False, 'trialN': 39, 'loaded': True, 'loadedTime': 7814.20000000298, 'positionName': 'LEFT', 'positionCoords': [510.6, 335], 'bid': 5.05}, {'imgObject': {}, 'id': 'cheerios', 'src': '/static/foodstim60/cheerios.jpg', 'key': 'i', 'origWidth': 409, 'origHeight': 410, 'width': 409, 'height': 410, 'widthPercent': 0.45, 'rescaleHeight': False, 'trialN': 39, 'loaded': True, 'loadedTime': 8010.30000000447, 'positionName': 'RIGHT', 'positionCoords': [998.4, 335], 'bid': 2.63}]",71002.10000000149,1669834786081,yogurt no spoon,cheerios,5.05,2.63,-2.42,yogurt no spoon,1248.6000000014901,1248,1248.8999999985099,True,u,72768.89999999851,1766.7999999970198,1669834787847,1766,HRV,HRV_0240,2022-11-30 19:03:41
40,"[{'imgObject': {}, 'id': 'grilled chicken strips', 'src': '/static/foodstim60/grilled chicken strips.jpg', 'key': 'u', 'origWidth': 410, 'origHeight': 411, 'width': 410, 'height': 411, 'widthPercent': 0.45, 'rescaleHeight': False, 'trialN': 40, 'loaded': True, 'loadedTime': 7987.20000000298, 'positionName': 'LEFT', 'positionCoords': [511.6, 334.5], 'bid': 9.84}, {'imgObject': {}, 'id': 'mango', 'src': '/static/foodstim60/mango.jpg', 'key': 'i', 'origWidth': 411, 'origHeight': 411, 'width': 411, 'height': 411, 'widthPercent': 0.45, 'rescaleHeight': False, 'trialN': 40, 'loaded': True, 'loadedTime': 8037, 'positionName': 'RIGHT', 'positionCoords': [998.4, 334.5], 'bid': 5.22}]",72769.70000000298,1669834787848,grilled chicken strips,mango,9.84,5.22,-4.62,grilled chicken strips,644.5,645,645.2999999970198,True,u,73919.89999999851,1150.1999999955297,1669834788998,1150,HRV,HRV_0240,2022-11-30 19:03:41
41,"[{'imgObject': {}, 'id': 'salad w chicken', 'src': '/static/foodstim60/salad w chicken.jpg', 'key': 'u', 'origWidth': 411, 'origHeight': 411, 'width': 411, 'height': 411, 'widthPercent': 0.45, 'rescaleHeight': False, 'trialN': 41, 'loaded': True, 'loadedTime': 7802.30000000447, 'positionName': 'LEFT', 'positionCoords': [510.6, 334.5], 'bid': 9.83}, {'imgObject': {}, 'id': 'grilled chicken strips', 'src': '/static/foodstim60/grilled chicken strips.jpg', 'key': 'i', 'origWidth': 410, 'origHeight': 411, 'width': 410, 'height': 411, 'widthPercent': 0.45, 'rescaleHeight': False, 'trialN': 41, 'loaded': True, 'loadedTime': 7985.10000000149, 'positionName': 'RIGHT', 'positionCoords': [998.4, 334.5], 'bid': 9.84}]",73920.10000000149,1669834788999,salad w chicken,grilled chicken strips,9.83,9.84,0.009999999999999787,salad w chicken,936.2000000029802,936,936.7999999970198,True,u,75371.5,1451.3999999985099,1669834790450,1451,HRV,HRV_0240,2022-11-30 19:03:41
42,"[{'imgObject': {}, 'id': 'granola w milk', 'src': '/static/foodstim60/granola w milk.jpg', 'key': 'u', 'origWidth': 410, 'origHeight': 410, 'width': 410, 'height': 410, 'widthPercent': 0.45, 'rescaleHeight': False, 'trialN': 42, 'loaded': True, 'loadedTime': 7967.20000000298, 'positionName': 'LEFT', 'positionCoords': [511.6, 335], 'bid': 3.5500000000000003}, {'imgObject': {}, 'id': 'popsicles', 'src': '/static/foodstim60/popsicles.jpg', 'key': 'i', 'origWidth': 410, 'origHeight': 410, 'width': 410, 'height': 410, 'widthPercent': 0.45, 'rescaleHeight': False, 'trialN': 42, 'loaded': True, 'loadedTime': 9099, 'positionName': 'RIGHT', 'positionCoords': [998.4, 335], 'bid': 3.27}]",75372.39999999851,1669834790451,granola w milk,popsicles,3.5500000000000003,3.27,-0.28000000000000025,granola w milk,697.4000000059605,698,697.7000000029802,True,u,76577.39999999851,1205.0,1669834791656,1205,HRV,HRV_0240,2022-11-30 19:03:41
43,"[{'imgObject': {}, 'id': 'mashed potato', 'src': '/static/foodstim60/mashed potato.jpg', 'key': 'u', 'origWidth': 409, 'origHeight': 409, 'width': 409, 'height': 409, 'widthPercent': 0.45, 'rescaleHeight': False, 'trialN': 43, 'loaded': True, 'loadedTime': 7789.89999999851, 'positionName': 'LEFT', 'positionCoords': [512.6, 335.5], 'bid': 8.13}, {'imgObject': {}, 'id': 'tacos', 'src': '/static/foodstim60/tacos.jpg', 'key': 'i', 'origWidth': 411, 'origHeight': 411, 'width': 411, 'height': 411, 'widthPercent': 0.45, 'rescaleHeight': False, 'trialN': 43, 'loaded': True, 'loadedTime': 7791.89999999851, 'positionName': 'RIGHT', 'positionCoords': [998.4, 334.5], 'bid': 9.83}]",76578.20000000298,1669834791657,mashed potato,tacos,8.13,9.83,1.6999999999999993,tacos,1369.2999999970198,1369,1369.5,True,i,78456.39999999851,1878.1999999955297,1669834793535,1878,HRV,HRV_0240,2022-11-30 19:03:41
44,"[{'imgObject': {}, 'id': 'apple slices', 'src': '/static/foodstim60/apple slices.jpg', 'key': 'u', 'origWidth': 409, 'origHeight': 410, 'width': 409, 'height': 410, 'widthPercent': 0.45, 'rescaleHeight': False, 'trialN': 44, 'loaded': True, 'loadedTime': 8063.60000000149, 'positionName': 'LEFT', 'positionCoords': [512.6, 335], 'bid': 5.22}, {'imgObject': {}, 'id': 'seaweed', 'src': '/static/foodstim60/seaweed.jpg', 'key': 'i', 'origWidth': 410, 'origHeight': 410, 'width': 410, 'height': 410, 'widthPercent': 0.45, 'rescaleHeight': False, 'trialN': 44, 'loaded': True, 'loadedTime': 7951.5, 'positionName': 'RIGHT', 'positionCoords': [998.4, 335], 'bid': 5.37}]",78458.0,1669834793536,apple slices,seaweed,5.22,5.37,0.15000000000000036,apple slices,870.3000000044703,871,870.7000000029802,True,u,79836.80000000447,1378.8000000044703,1669834794915,1379,HRV,HRV_0240,2022-11-30 19:03:41
45,"[{'imgObject': {}, 'id': 'veggieswithdip', 'src': '/static/foodstim60/veggieswithdip.jpg', 'key': 'u', 'origWidth': 409, 'origHeight': 409, 'width': 409, 'height': 409, 'widthPercent': 0.45, 'rescaleHeight': False, 'trialN': 45, 'loaded': True, 'loadedTime': 7909.39999999851, 'positionName': 'LEFT', 'positionCoords': [512.6, 335.5], 'bid': 7.82}, {'imgObject': {}, 'id': 'chickenfingers', 'src': '/static/foodstim60/chickenfingers.jpg', 'key': 'i', 'origWidth': 410, 'origHeight': 410, 'width': 410, 'height': 410, 'widthPercent': 0.45, 'rescaleHeight': False, 'trialN': 45, 'loaded': True, 'loadedTime': 7997.20000000298, 'positionName': 'RIGHT', 'positionCoords': [998.4, 335], 'bid': 9.79}]",79837.10000000149,1669834794916,veggieswithdip,chickenfingers,7.82,9.79,1.9699999999999989,chickenfingers,746.8999999985099,748,747.8999999985099,True,i,81099.10000000149,1262.0,1669834796178,1262,HRV,HRV_0240,2022-11-30 19:03:41
46,"[{'imgObject': {}, 'id': 'baked potato', 'src': '/static/foodstim60/baked potato.jpg', 'key': 'u', 'origWidth': 409, 'origHeight': 410, 'width': 409, 'height': 410, 'widthPercent': 0.45, 'rescaleHeight': False, 'trialN': 46, 'loaded': True, 'loadedTime': 8063.70000000298, 'positionName': 'LEFT', 'positionCoords': [512.6, 335], 'bid': 7.3}, {'imgObject': {}, 'id': 'salad w chicken', 'src': '/static/foodstim60/salad w chicken.jpg', 'key': 'i', 'origWidth': 411, 'origHeight': 411, 'width': 411, 'height': 411, 'widthPercent': 0.45, 'rescaleHeight': False, 'trialN': 46, 'loaded': True, 'loadedTime': 7804.60000000149, 'positionName': 'RIGHT', 'positionCoords': [998.4, 334.5], 'bid': 9.83}]",81100.10000000149,1669834796179,baked potato,salad w chicken,7.3,9.83,2.5300000000000002,salad w chicken,931.2999999970198,932,932.2999999970198,True,i,82545.70000000298,1445.6000000014901,1669834797624,1445,HRV,HRV_0240,2022-11-30 19:03:41
47,"[{'imgObject': {}, 'id': 'pear', 'src': '/static/foodstim60/pear.jpg', 'key': 'u', 'origWidth': 411, 'origHeight': 410, 'width': 411, 'height': 410, 'widthPercent': 0.45, 'rescaleHeight': False, 'trialN': 47, 'loaded': True, 'loadedTime': 8053.80000000447, 'positionName': 'LEFT', 'positionCoords': [510.6, 335], 'bid': 5.34}, {'imgObject': {}, 'id': 'blackbeanswithrice', 'src': '/static/foodstim60/blackbeanswithrice.jpg', 'key': 'i', 'origWidth': 410, 'origHeight': 410, 'width': 410, 'height': 410, 'widthPercent': 0.45, 'rescaleHeight': False, 'trialN': 47, 'loaded': True, 'loadedTime': 7925.39999999851, 'positionName': 'RIGHT', 'positionCoords': [998.4, 335], 'bid': 5.3500000000000005}]",82546.0,1669834797625,pear,blackbeanswithrice,5.34,5.3500000000000005,0.010000000000000675,blackbeanswithrice,1407.3000000044703,1408,1408.3000000044703,True,i,84469.10000000149,1923.1000000014901,1669834799548,1923,HRV,HRV_0240,2022-11-30 19:03:41
48,"[{'imgObject': {}, 'id': 'banana', 'src': '/static/foodstim60/banana.jpg', 'key': 'u', 'origWidth': 410, 'origHeight': 410, 'width': 410, 'height': 410, 'widthPercent': 0.45, 'rescaleHeight': False, 'trialN': 48, 'loaded': True, 'loadedTime': 8067.60000000149, 'positionName': 'LEFT', 'positionCoords': [511.6, 335], 'bid': 5.16}, {'imgObject': {}, 'id': 'kiwi', 'src': '/static/foodstim60/kiwi.jpg', 'key': 'i', 'origWidth': 410, 'origHeight': 410, 'width': 410, 'height': 410, 'widthPercent': 0.45, 'rescaleHeight': False, 'trialN': 48, 'loaded': True, 'loadedTime': 8071.20000000298, 'positionName': 'RIGHT', 'positionCoords': [998.4, 335], 'bid': 5.14}]",84469.80000000447,1669834799548,banana,kiwi,5.16,5.14,-0.020000000000000462,kiwi,1110.5999999940395,1112,1112.0999999940395,True,i,86095.30000000447,1625.5,1669834801174,1626,HRV,HRV_0240,2022-11-30 19:03:41
49,"[{'imgObject': {}, 'id': 'ice cream sundae 002', 'src': '/static/foodstim60/ice cream sundae 002.jpg', 'key': 'u', 'origWidth': 409, 'origHeight': 409, 'width': 409, 'height': 409, 'widthPercent': 0.45, 'rescaleHeight': False, 'trialN': 49, 'loaded': True, 'loadedTime': 8045.70000000298, 'positionName': 'LEFT', 'positionCoords': [512.6, 335.5], 'bid': 5.14}, {'imgObject': {}, 'id': 'chickenfingers', 'src': '/static/foodstim60/chickenfingers.jpg', 'key': 'i', 'origWidth': 410, 'origHeight': 410, 'width': 410, 'height': 410, 'widthPercent': 0.45, 'rescaleHeight': False, 'trialN': 49, 'loaded': True, 'loadedTime': 7996.10000000149, 'positionName': 'RIGHT', 'positionCoords': [998.4, 335], 'bid': 9.79}]",86095.80000000447,1669834801174,ice cream sundae 002,chickenfingers,5.14,9.79,4.6499999999999995,chickenfingers,904.7999999970198,906,906.0,True,i,87508.30000000447,1412.5,1669834802587,1413,HRV,HRV_0240,2022-11-30 19:03:41
50,"[{'imgObject': {}, 'id': 'salad w chicken', 'src': '/static/foodstim60/salad w chicken.jpg', 'key': 'u', 'origWidth': 411, 'origHeight': 411, 'width': 411, 'height': 411, 'widthPercent': 0.45, 'rescaleHeight': False, 'trialN': 50, 'loaded': True, 'loadedTime': 7805.5, 'positionName': 'LEFT', 'positionCoords': [510.6, 334.5], 'bid': 9.83}, {'imgObject': {}, 'id': 'eggs', 'src': '/static/foodstim60/eggs.jpg', 'key': 'i', 'origWidth': 409, 'origHeight': 409, 'width': 409, 'height': 409, 'widthPercent': 0.45, 'rescaleHeight': False, 'trialN': 50, 'loaded': True, 'loadedTime': 8012, 'positionName': 'RIGHT', 'positionCoords': [998.4, 335.5], 'bid': 9.83}]",87509.10000000149,1669834802588,salad w chicken,eggs,9.83,9.83,0.0,salad w chicken,990.7999999970198,991,991.2000000029802,True,u,89018.39999999851,1509.2999999970198,1669834804097,1509,HRV,HRV_0240,2022-11-30 19:03:41
51,"[{'imgObject': {}, 'id': 'pear', 'src': '/static/foodstim60/pear.jpg', 'key': 'u', 'origWidth': 411, 'origHeight': 410, 'width': 411, 'height': 410, 'widthPercent': 0.45, 'rescaleHeight': False, 'trialN': 51, 'loaded': True, 'loadedTime': 8057, 'positionName': 'LEFT', 'positionCoords': [510.6, 335], 'bid': 5.34}, {'imgObject': {}, 'id': 'froot loops w milk', 'src': '/static/foodstim60/froot loops w milk.jpg', 'key': 'i', 'origWidth': 410, 'origHeight': 410, 'width': 410, 'height': 410, 'widthPercent': 0.45, 'rescaleHeight': False, 'trialN': 51, 'loaded': True, 'loadedTime': 8073.60000000149, 'positionName': 'RIGHT', 'positionCoords': [998.4, 335], 'bid': 2.36}]",89019.60000000149,1669834804098,pear,froot loops w milk,5.34,2.36,-2.98,pear,1302.2999999970198,1303,1302.7000000029802,True,u,90823.89999999851,1804.2999999970198,1669834805902,1804,HRV,HRV_0240,2022-11-30 19:03:41
52,"[{'imgObject': {}, 'id': 'orange slices', 'src': '/static/foodstim60/orange slices.jpg', 'key': 'u', 'origWidth': 409, 'origHeight': 410, 'width': 409, 'height': 410, 'widthPercent': 0.45, 'rescaleHeight': False, 'trialN': 52, 'loaded': True, 'loadedTime': 7823.60000000149, 'positionName': 'LEFT', 'positionCoords': [512.6, 335], 'bid': 5.33}, {'imgObject': {}, 'id': 'edamame', 'src': '/static/foodstim60/edamame.jpg', 'key': 'i', 'origWidth': 409, 'origHeight': 410, 'width': 409, 'height': 410, 'widthPercent': 0.45, 'rescaleHeight': False, 'trialN': 52, 'loaded': True, 'loadedTime': 8078.5, 'positionName': 'RIGHT', 'positionCoords': [998.4, 335], 'bid': 5.32}]",90824.20000000298,1669834805903,orange slices,edamame,5.33,5.32,-0.009999999999999787,edamame,1120.1000000014901,1121,1121.1000000014901,True,i,92457.5,1633.2999999970198,1669834807536,1633,HRV,HRV_0240,2022-11-30 19:03:41
53,"[{'imgObject': {}, 'id': 'avocado', 'src': '/static/foodstim60/avocado.jpg', 'key': 'u', 'origWidth': 409, 'origHeight': 409, 'width': 409, 'height': 409, 'widthPercent': 0.45, 'rescaleHeight': False, 'trialN': 53, 'loaded': True, 'loadedTime': 8086.39999999851, 'positionName': 'LEFT', 'positionCoords': [512.6, 335.5], 'bid': 7.58}, {'imgObject': {}, 'id': 'hotdog w must', 'src': '/static/foodstim60/hotdog w must.jpg', 'key': 'i', 'origWidth': 409, 'origHeight': 409, 'width': 409, 'height': 409, 'widthPercent': 0.45, 'rescaleHeight': False, 'trialN': 53, 'loaded': True, 'loadedTime': 7786.5, 'positionName': 'RIGHT', 'positionCoords': [998.4, 335.5], 'bid': 3.5700000000000003}]",92458.39999999851,1669834807537,avocado,hotdog w must,7.58,3.5700000000000003,-4.01,avocado,1133.0,1134,1134.0,True,u,94100.60000000149,1642.2000000029802,1669834809179,1642,HRV,HRV_0240,2022-11-30 19:03:41
54,"[{'imgObject': {}, 'id': 'turkeysandwich', 'src': '/static/foodstim60/turkeysandwich.jpg', 'key': 'u', 'origWidth': 409, 'origHeight': 409, 'width': 409, 'height': 409, 'widthPercent': 0.45, 'rescaleHeight': False, 'trialN': 54, 'loaded': True, 'loadedTime': 8042.70000000298, 'positionName': 'LEFT', 'positionCoords': [512.6, 335.5], 'bid': 9.8}, {'imgObject': {}, 'id': 'omelette', 'src': '/static/foodstim60/omelette.jpg', 'key': 'i', 'origWidth': 410, 'origHeight': 409, 'width': 410, 'height': 409, 'widthPercent': 0.45, 'rescaleHeight': False, 'trialN': 54, 'loaded': True, 'loadedTime': 7990.39999999851, 'positionName': 'RIGHT', 'positionCoords': [998.4, 335.5], 'bid': 9.8}]",94101.30000000447,1669834809180,turkeysandwich,omelette,9.8,9.8,0.0,turkeysandwich,677.0999999940395,678,678.1999999955297,True,u,95289.30000000447,1188.0,1669834810368,1188,HRV,HRV_0240,2022-11-30 19:03:41
55,"[{'imgObject': {}, 'id': 'bagel plain', 'src': '/static/foodstim60/bagel plain.jpg', 'key': 'u', 'origWidth': 410, 'origHeight': 410, 'width': 410, 'height': 410, 'widthPercent': 0.45, 'rescaleHeight': False, 'trialN': 55, 'loaded': True, 'loadedTime': 8090.5, 'positionName': 'LEFT', 'positionCoords': [511.6, 335], 'bid': 5.3500000000000005}, {'imgObject': {}, 'id': 'cherries', 'src': '/static/foodstim60/cherries.jpg', 'key': 'i', 'origWidth': 410, 'origHeight': 411, 'width': 410, 'height': 411, 'widthPercent': 0.45, 'rescaleHeight': False, 'trialN': 55, 'loaded': True, 'loadedTime': 8051.10000000149, 'positionName': 'RIGHT', 'positionCoords': [998.4, 334.5], 'bid': 5.22}]",95290.20000000298,1669834810369,bagel plain,cherries,5.3500000000000005,5.22,-0.13000000000000078,bagel plain,1133.0,1134,1134.1000000014901,True,u,96942.60000000149,1652.3999999985099,1669834812021,1652,HRV,HRV_0240,2022-11-30 19:03:41
56,"[{'imgObject': {}, 'id': 'eggs', 'src': '/static/foodstim60/eggs.jpg', 'key': 'u', 'origWidth': 409, 'origHeight': 409, 'width': 409, 'height': 409, 'widthPercent': 0.45, 'rescaleHeight': False, 'trialN': 56, 'loaded': True, 'loadedTime': 8012.20000000298, 'positionName': 'LEFT', 'positionCoords': [512.6, 335.5], 'bid': 9.83}, {'imgObject': {}, 'id': 'sushi w_condiments', 'src': '/static/foodstim60/sushi w_condiments.jpg', 'key': 'i', 'origWidth': 410, 'origHeight': 410, 'width': 410, 'height': 410, 'widthPercent': 0.45, 'rescaleHeight': False, 'trialN': 56, 'loaded': True, 'loadedTime': 8091.5, 'positionName': 'RIGHT', 'positionCoords': [998.4, 335], 'bid': 9.77}]",96943.60000000149,1669834812022,eggs,sushi w_condiments,9.83,9.77,-0.0600000000000005,sushi w_condiments,1582.6000000014901,1584,1584.0,True,i,99045.30000000447,2101.7000000029802,1669834814124,2102,HRV,HRV_0240,2022-11-30 19:03:41
57,"[{'imgObject': {}, 'id': 'sushi w_condiments', 'src': '/static/foodstim60/sushi w_condiments.jpg', 'key': 'u', 'origWidth': 410, 'origHeight': 410, 'width': 410, 'height': 410, 'widthPercent': 0.45, 'rescaleHeight': False, 'trialN': 57, 'loaded': True, 'loadedTime': 8091.70000000298, 'positionName': 'LEFT', 'positionCoords': [511.6, 335], 'bid': 9.77}, {'imgObject': {}, 'id': 'burger', 'src': '/static/foodstim60/burger.jpg', 'key': 'i', 'origWidth': 409, 'origHeight': 409, 'width': 409, 'height': 409, 'widthPercent': 0.45, 'rescaleHeight': False, 'trialN': 57, 'loaded': True, 'loadedTime': 7806.80000000447, 'positionName': 'RIGHT', 'positionCoords': [998.4, 335.5], 'bid': 9.61}]",99045.70000000298,1669834814124,sushi w_condiments,burger,9.77,9.61,-0.16000000000000014,sushi w_condiments,1453.1000000014901,1454,1454.1000000014901,True,u,101016.60000000149,1970.8999999985099,1669834816095,1971,HRV,HRV_0240,2022-11-30 19:03:41
58,"[{'imgObject': {}, 'id': 'chickenfingers', 'src': '/static/foodstim60/chickenfingers.jpg', 'key': 'u', 'origWidth': 410, 'origHeight': 410, 'width': 410, 'height': 410, 'widthPercent': 0.45, 'rescaleHeight': False, 'trialN': 58, 'loaded': True, 'loadedTime': 7997.30000000447, 'positionName': 'LEFT', 'positionCoords': [511.6, 335], 'bid': 9.79}, {'imgObject': {}, 'id': 'lox', 'src': '/static/foodstim60/lox.jpg', 'key': 'i', 'origWidth': 410, 'origHeight': 411, 'width': 410, 'height': 411, 'widthPercent': 0.45, 'rescaleHeight': False, 'trialN': 58, 'loaded': True, 'loadedTime': 8094.39999999851, 'positionName': 'RIGHT', 'positionCoords': [998.4, 334.5], 'bid': 9.79}]",101017.80000000447,1669834816096,chickenfingers,lox,9.79,9.79,0.0,chickenfingers,1110.0999999940395,1111,1111.0,True,u,102640.39999999851,1622.5999999940395,1669834817719,1623,HRV,HRV_0240,2022-11-30 19:03:41
59,"[{'imgObject': {}, 'id': 'mac & cheese', 'src': '/static/foodstim60/mac & cheese.jpg', 'key': 'u', 'origWidth': 410, 'origHeight': 410, 'width': 410, 'height': 410, 'widthPercent': 0.45, 'rescaleHeight': False, 'trialN': 59, 'loaded': True, 'loadedTime': 7784.30000000447, 'positionName': 'LEFT', 'positionCoords': [511.6, 335], 'bid': 5.04}, {'imgObject': {}, 'id': 'froot loops w milk', 'src': '/static/foodstim60/froot loops w milk.jpg', 'key': 'i', 'origWidth': 410, 'origHeight': 410, 'width': 410, 'height': 410, 'widthPercent': 0.45, 'rescaleHeight': False, 'trialN': 59, 'loaded': True, 'loadedTime': 8072.89999999851, 'positionName': 'RIGHT', 'positionCoords': [998.4, 335], 'bid': 2.36}]",102641.60000000149,1669834817720,mac & cheese,froot loops w milk,5.04,2.36,-2.68,mac & cheese,996.6000000014901,998,997.5,True,u,104151.70000000298,1510.1000000014901,1669834819230,1510,HRV,HRV_0240,2022-11-30 19:03:41
60,"[{'imgObject': {}, 'id': 'burger', 'src': '/static/foodstim60/burger.jpg', 'key': 'u', 'origWidth': 409, 'origHeight': 409, 'width': 409, 'height': 409, 'widthPercent': 0.45, 'rescaleHeight': False, 'trialN': 60, 'loaded': True, 'loadedTime': 7807.5, 'positionName': 'LEFT', 'positionCoords': [512.6, 335.5], 'bid': 9.61}, {'imgObject': {}, 'id': 'rigatoni and sauce', 'src': '/static/foodstim60/rigatoni and sauce.jpg', 'key': 'i', 'origWidth': 410, 'origHeight': 411, 'width': 410, 'height': 411, 'widthPercent': 0.45, 'rescaleHeight': False, 'trialN': 60, 'loaded': True, 'loadedTime': 8096.20000000298, 'positionName': 'RIGHT', 'positionCoords': [998.4, 334.5], 'bid': 7.27}]",104152.60000000149,1669834819231,burger,rigatoni and sauce,9.61,7.27,-2.34,burger,1026.7000000029802,1028,1027.8999999985099,True,u,105693.39999999851,1540.7999999970198,1669834820772,1541,HRV,HRV_0240,2022-11-30 19:03:41
61,"[{'imgObject': {}, 'id': 'edamame', 'src': '/static/foodstim60/edamame.jpg', 'key': 'u', 'origWidth': 409, 'origHeight': 410, 'width': 409, 'height': 410, 'widthPercent': 0.45, 'rescaleHeight': False, 'trialN': 61, 'loaded': True, 'loadedTime': 8082.70000000298, 'positionName': 'LEFT', 'positionCoords': [512.6, 335], 'bid': 5.32}, {'imgObject': {}, 'id': 'chicken nuggets2', 'src': '/static/foodstim60/chicken nuggets2.jpg', 'key': 'i', 'origWidth': 410, 'origHeight': 409, 'width': 410, 'height': 409, 'widthPercent': 0.45, 'rescaleHeight': False, 'trialN': 61, 'loaded': True, 'loadedTime': 7812.39999999851, 'positionName': 'RIGHT', 'positionCoords': [998.4, 335.5], 'bid': 9.89}]",105694.20000000298,1669834820773,edamame,chicken nuggets2,5.32,9.89,4.57,chicken nuggets2,925.1000000014901,926,926.7999999970198,True,i,107134.5,1440.2999999970198,1669834822213,1440,HRV,HRV_0240,2022-11-30 19:03:41
62,"[{'imgObject': {}, 'id': 'chicken nuggets2', 'src': '/static/foodstim60/chicken nuggets2.jpg', 'key': 'u', 'origWidth': 410, 'origHeight': 409, 'width': 410, 'height': 409, 'widthPercent': 0.45, 'rescaleHeight': False, 'trialN': 62, 'loaded': True, 'loadedTime': 7812.20000000298, 'positionName': 'LEFT', 'positionCoords': [511.6, 335.5], 'bid': 9.89}, {'imgObject': {}, 'id': 'sushi w_condiments', 'src': '/static/foodstim60/sushi w_condiments.jpg', 'key': 'i', 'origWidth': 410, 'origHeight': 410, 'width': 410, 'height': 410, 'widthPercent': 0.45, 'rescaleHeight': False, 'trialN': 62, 'loaded': True, 'loadedTime': 8090.70000000298, 'positionName': 'RIGHT', 'positionCoords': [998.4, 335], 'bid': 9.77}]",107134.70000000298,1669834822213,chicken nuggets2,sushi w_condiments,9.89,9.77,-0.120000000000001,sushi w_condiments,1294.6999999955297,1296,1295.6000000014901,True,i,108943.5,1808.7999999970198,1669834824022,1809,HRV,HRV_0240,2022-11-30 19:03:41
63,"[{'imgObject': {}, 'id': 'bagel and cc', 'src': '/static/foodstim60/bagel and cc.jpg', 'key': 'u', 'origWidth': 410, 'origHeight': 410, 'width': 410, 'height': 410, 'widthPercent': 0.45, 'rescaleHeight': False, 'trialN': 63, 'loaded': True, 'loadedTime': 7754.10000000149, 'positionName': 'LEFT', 'positionCoords': [511.6, 335], 'bid': 5}, {'imgObject': {}, 'id': 'cherry tomato', 'src': '/static/foodstim60/cherry tomato.jpg', 'key': 'i', 'origWidth': 410, 'origHeight': 410, 'width': 410, 'height': 410, 'widthPercent': 0.45, 'rescaleHeight': False, 'trialN': 63, 'loaded': True, 'loadedTime': 8037.20000000298, 'positionName': 'RIGHT', 'positionCoords': [998.4, 335], 'bid': 7.7}]",108944.80000000447,1669834824023,bagel and cc,cherry tomato,5.0,7.7,2.7,cherry tomato,1797.8999999985099,1799,1799.0999999940395,True,i,111253.20000000298,2308.39999999851,1669834826332,2309,HRV,HRV_0240,2022-11-30 19:03:41
64,"[{'imgObject': {}, 'id': 'seaweed', 'src': '/static/foodstim60/seaweed.jpg', 'key': 'u', 'origWidth': 410, 'origHeight': 410, 'width': 410, 'height': 410, 'widthPercent': 0.45, 'rescaleHeight': False, 'trialN': 64, 'loaded': True, 'loadedTime': 7952.80000000447, 'positionName': 'LEFT', 'positionCoords': [511.6, 335], 'bid': 5.37}, {'imgObject': {}, 'id': 'luckycharms', 'src': '/static/foodstim60/luckycharms.jpg', 'key': 'i', 'origWidth': 410, 'origHeight': 409, 'width': 410, 'height': 409, 'widthPercent': 0.45, 'rescaleHeight': False, 'trialN': 64, 'loaded': True, 'loadedTime': 8097.10000000149, 'positionName': 'RIGHT', 'positionCoords': [998.4, 335.5], 'bid': 2.78}]",111253.80000000447,1669834826332,seaweed,luckycharms,5.37,2.78,-2.5900000000000003,seaweed,1225.5,1227,1226.6999999955297,True,u,112987.10000000149,1733.2999999970198,1669834828066,1734,HRV,HRV_0240,2022-11-30 19:03:41
65,"[{'imgObject': {}, 'id': 'kiwi', 'src': '/static/foodstim60/kiwi.jpg', 'key': 'u', 'origWidth': 410, 'origHeight': 410, 'width': 410, 'height': 410, 'widthPercent': 0.45, 'rescaleHeight': False, 'trialN': 65, 'loaded': True, 'loadedTime': 8071.60000000149, 'positionName': 'LEFT', 'positionCoords': [511.6, 335], 'bid': 5.14}, {'imgObject': {}, 'id': 'apple slices', 'src': '/static/foodstim60/apple slices.jpg', 'key': 'i', 'origWidth': 409, 'origHeight': 410, 'width': 409, 'height': 410, 'widthPercent': 0.45, 'rescaleHeight': False, 'trialN': 65, 'loaded': True, 'loadedTime': 8061.5, 'positionName': 'RIGHT', 'positionCoords': [998.4, 335], 'bid': 5.22}]",112987.80000000447,1669834828066,kiwi,apple slices,5.14,5.22,0.08000000000000007,kiwi,1195.7999999970198,1197,1197.0,True,u,114701.0,1713.1999999955297,1669834829779,1713,HRV,HRV_0240,2022-11-30 19:03:41
66,"[{'imgObject': {}, 'id': 'salad w chicken', 'src': '/static/foodstim60/salad w chicken.jpg', 'key': 'u', 'origWidth': 411, 'origHeight': 411, 'width': 411, 'height': 411, 'widthPercent': 0.45, 'rescaleHeight': False, 'trialN': 66, 'loaded': True, 'loadedTime': 7803.80000000447, 'positionName': 'LEFT', 'positionCoords': [510.6, 334.5], 'bid': 9.83}, {'imgObject': {}, 'id': 'chicken nuggets2', 'src': '/static/foodstim60/chicken nuggets2.jpg', 'key': 'i', 'origWidth': 410, 'origHeight': 409, 'width': 410, 'height': 409, 'widthPercent': 0.45, 'rescaleHeight': False, 'trialN': 66, 'loaded': True, 'loadedTime': 7810.80000000447, 'positionName': 'RIGHT', 'positionCoords': [998.4, 335.5], 'bid': 9.89}]",114701.60000000149,1669834829780,salad w chicken,chicken nuggets2,9.83,9.89,0.0600000000000005,salad w chicken,743.8999999985099,745,744.6000000014901,True,u,115958.30000000447,1256.7000000029802,1669834831037,1257,HRV,HRV_0240,2022-11-30 19:03:41
67,"[{'imgObject': {}, 'id': 'roastedpotatoes', 'src': '/static/foodstim60/roastedpotatoes.jpg', 'key': 'u', 'origWidth': 409, 'origHeight': 410, 'width': 409, 'height': 410, 'widthPercent': 0.45, 'rescaleHeight': False, 'trialN': 67, 'loaded': True, 'loadedTime': 7999.39999999851, 'positionName': 'LEFT', 'positionCoords': [512.6, 335], 'bid': 9.77}, {'imgObject': {}, 'id': 'burrito', 'src': '/static/foodstim60/burrito.jpg', 'key': 'i', 'origWidth': 410, 'origHeight': 410, 'width': 410, 'height': 410, 'widthPercent': 0.45, 'rescaleHeight': False, 'trialN': 67, 'loaded': True, 'loadedTime': 7859.60000000149, 'positionName': 'RIGHT', 'positionCoords': [998.4, 335], 'bid': 9.78}]",115958.70000000298,1669834831037,roastedpotatoes,burrito,9.77,9.78,0.009999999999999787,roastedpotatoes,817.7999999970198,819,819.0,True,u,117280.89999999851,1322.1999999955297,1669834832359,1322,HRV,HRV_0240,2022-11-30 19:03:41
68,"[{'imgObject': {}, 'id': 'popsicles', 'src': '/static/foodstim60/popsicles.jpg', 'key': 'u', 'origWidth': 410, 'origHeight': 410, 'width': 410, 'height': 410, 'widthPercent': 0.45, 'rescaleHeight': False, 'trialN': 68, 'loaded': True, 'loadedTime': 9101.70000000298, 'positionName': 'LEFT', 'positionCoords': [511.6, 335], 'bid': 3.27}, {'imgObject': {}, 'id': 'ice cream sundae 002', 'src': '/static/foodstim60/ice cream sundae 002.jpg', 'key': 'i', 'origWidth': 409, 'origHeight': 409, 'width': 409, 'height': 409, 'widthPercent': 0.45, 'rescaleHeight': False, 'trialN': 68, 'loaded': True, 'loadedTime': 8046, 'positionName': 'RIGHT', 'positionCoords': [998.4, 335.5], 'bid': 5.14}]",117281.70000000298,1669834832360,popsicles,ice cream sundae 002,3.27,5.14,1.8699999999999997,ice cream sundae 002,809.0,810,810.0,True,i,118613.10000000149,1331.3999999985099,1669834833692,1332,HRV,HRV_0240,2022-11-30 19:03:41
69,"[{'imgObject': {}, 'id': 'corn cob', 'src': '/static/foodstim60/corn cob.jpg', 'key': 'u', 'origWidth': 411, 'origHeight': 411, 'width': 411, 'height': 411, 'widthPercent': 0.45, 'rescaleHeight': False, 'trialN': 69, 'loaded': True, 'loadedTime': 7815.89999999851, 'positionName': 'LEFT', 'positionCoords': [510.6, 334.5], 'bid': 5.15}, {'imgObject': {}, 'id': 'omelette', 'src': '/static/foodstim60/omelette.jpg', 'key': 'i', 'origWidth': 410, 'origHeight': 409, 'width': 410, 'height': 409, 'widthPercent': 0.45, 'rescaleHeight': False, 'trialN': 69, 'loaded': True, 'loadedTime': 7993, 'positionName': 'RIGHT', 'positionCoords': [998.4, 335.5], 'bid': 9.8}]",118614.0,1669834833692,corn cob,omelette,5.15,9.8,4.65,omelette,1001.2000000029802,1004,1003.7000000029802,True,i,120127.5,1513.5,1669834835206,1514,HRV,HRV_0240,2022-11-30 19:03:41
70,"[{'imgObject': {}, 'id': 'edamame', 'src': '/static/foodstim60/edamame.jpg', 'key': 'u', 'origWidth': 409, 'origHeight': 410, 'width': 409, 'height': 410, 'widthPercent': 0.45, 'rescaleHeight': False, 'trialN': 70, 'loaded': True, 'loadedTime': 8082.30000000447, 'positionName': 'LEFT', 'positionCoords': [512.6, 335], 'bid': 5.32}, {'imgObject': {}, 'id': 'pear', 'src': '/static/foodstim60/pear.jpg', 'key': 'i', 'origWidth': 411, 'origHeight': 410, 'width': 411, 'height': 410, 'widthPercent': 0.45, 'rescaleHeight': False, 'trialN': 70, 'loaded': True, 'loadedTime': 8055.30000000447, 'positionName': 'RIGHT', 'positionCoords': [998.4, 335], 'bid': 5.34}]",120128.30000000447,1669834835207,edamame,pear,5.32,5.34,0.019999999999999574,edamame,1235.3999999985099,1235,1235.6999999955297,True,u,121885.89999999851,1757.5999999940395,1669834836964,1757,HRV,HRV_0240,2022-11-30 19:03:41
71,"[{'imgObject': {}, 'id': 'granola w milk', 'src': '/static/foodstim60/granola w milk.jpg', 'key': 'u', 'origWidth': 410, 'origHeight': 410, 'width': 410, 'height': 410, 'widthPercent': 0.45, 'rescaleHeight': False, 'trialN': 71, 'loaded': True, 'loadedTime': 7976.10000000149, 'positionName': 'LEFT', 'positionCoords': [511.6, 335], 'bid': 3.5500000000000003}, {'imgObject': {}, 'id': 'cherries', 'src': '/static/foodstim60/cherries.jpg', 'key': 'i', 'origWidth': 410, 'origHeight': 411, 'width': 410, 'height': 411, 'widthPercent': 0.45, 'rescaleHeight': False, 'trialN': 71, 'loaded': True, 'loadedTime': 8051, 'positionName': 'RIGHT', 'positionCoords': [998.4, 334.5], 'bid': 5.22}]",121886.80000000447,1669834836965,granola w milk,cherries,3.5500000000000003,5.22,1.6699999999999995,cherries,2095.5999999940395,2096,2096.0,True,i,124487.10000000149,2600.2999999970198,1669834839566,2601,HRV,HRV_0240,2022-11-30 19:03:41
72,"[{'imgObject': {}, 'id': 'orange slices', 'src': '/static/foodstim60/orange slices.jpg', 'key': 'u', 'origWidth': 409, 'origHeight': 410, 'width': 409, 'height': 410, 'widthPercent': 0.45, 'rescaleHeight': False, 'trialN': 72, 'loaded': True, 'loadedTime': 7817.39999999851, 'positionName': 'LEFT', 'positionCoords': [512.6, 335], 'bid': 5.33}, {'imgObject': {}, 'id': 'cherry tomato', 'src': '/static/foodstim60/cherry tomato.jpg', 'key': 'i', 'origWidth': 410, 'origHeight': 410, 'width': 410, 'height': 410, 'widthPercent': 0.45, 'rescaleHeight': False, 'trialN': 72, 'loaded': True, 'loadedTime': 8039.10000000149, 'positionName': 'RIGHT', 'positionCoords': [998.4, 335], 'bid': 7.7}]",124488.0,1669834839566,orange slices,cherry tomato,5.33,7.7,2.37,cherry tomato,1365.5,1366,1365.8999999985099,True,i,126368.20000000298,1880.2000000029802,1669834841447,1881,HRV,HRV_0240,2022-11-30 19:03:41
73,"[{'imgObject': {}, 'id': 'popsicles', 'src': '/static/foodstim60/popsicles.jpg', 'key': 'u', 'origWidth': 410, 'origHeight': 410, 'width': 410, 'height': 410, 'widthPercent': 0.45, 'rescaleHeight': False, 'trialN': 73, 'loaded': True, 'loadedTime': 9102, 'positionName': 'LEFT', 'positionCoords': [511.6, 335], 'bid': 3.27}, {'imgObject': {}, 'id': 'shreddedwheatwithmilk', 'src': '/static/foodstim60/shreddedwheatwithmilk.jpg', 'key': 'i', 'origWidth': 410, 'origHeight': 410, 'width': 410, 'height': 410, 'widthPercent': 0.45, 'rescaleHeight': False, 'trialN': 73, 'loaded': True, 'loadedTime': 7883.89999999851, 'positionName': 'RIGHT', 'positionCoords': [998.4, 335], 'bid': 2.82}]",126368.5,1669834841447,popsicles,shreddedwheatwithmilk,3.27,2.82,-0.4500000000000002,shreddedwheatwithmilk,1006.8999999985099,1007,1007.1000000014901,True,i,127881.30000000447,1512.8000000044703,1669834842960,1513,HRV,HRV_0240,2022-11-30 19:03:41
74,"[{'imgObject': {}, 'id': 'popsicles', 'src': '/static/foodstim60/popsicles.jpg', 'key': 'u', 'origWidth': 410, 'origHeight': 410, 'width': 410, 'height': 410, 'widthPercent': 0.45, 'rescaleHeight': False, 'trialN': 74, 'loaded': True, 'loadedTime': 9102.39999999851, 'positionName': 'LEFT', 'positionCoords': [511.6, 335], 'bid': 3.27}, {'imgObject': {}, 'id': 'cantaloupe', 'src': '/static/foodstim60/cantaloupe.jpg', 'key': 'i', 'origWidth': 409, 'origHeight': 409, 'width': 409, 'height': 409, 'widthPercent': 0.45, 'rescaleHeight': False, 'trialN': 74, 'loaded': True, 'loadedTime': 8103.30000000447, 'positionName': 'RIGHT', 'positionCoords': [998.4, 335.5], 'bid': 5.18}]",127881.80000000447,1669834842960,popsicles,cantaloupe,3.27,5.18,1.9099999999999997,cantaloupe,1026.5999999940395,1027,1027.0999999940395,True,i,129429.5,1547.6999999955297,1669834844508,1548,HRV,HRV_0240,2022-11-30 19:03:41
75,"[{'imgObject': {}, 'id': 'yogurt no spoon', 'src': '/static/foodstim60/yogurt no spoon.jpg', 'key': 'u', 'origWidth': 411, 'origHeight': 410, 'width': 411, 'height': 410, 'widthPercent': 0.45, 'rescaleHeight': False, 'trialN': 75, 'loaded': True, 'loadedTime': 7814.60000000149, 'positionName': 'LEFT', 'positionCoords': [510.6, 335], 'bid': 5.05}, {'imgObject': {}, 'id': 'burger', 'src': '/static/foodstim60/burger.jpg', 'key': 'i', 'origWidth': 409, 'origHeight': 409, 'width': 409, 'height': 409, 'widthPercent': 0.45, 'rescaleHeight': False, 'trialN': 75, 'loaded': True, 'loadedTime': 7807.20000000298, 'positionName': 'RIGHT', 'positionCoords': [998.4, 335.5], 'bid': 9.61}]",129429.89999999851,1669834844508,yogurt no spoon,burger,5.05,9.61,4.56,burger,937.3000000044703,938,937.6000000014901,True,i,130878.39999999851,1448.5,1669834845957,1449,HRV,HRV_0240,2022-11-30 19:03:41
76,"[{'imgObject': {}, 'id': 'banana', 'src': '/static/foodstim60/banana.jpg', 'key': 'u', 'origWidth': 410, 'origHeight': 410, 'width': 410, 'height': 410, 'widthPercent': 0.45, 'rescaleHeight': False, 'trialN': 76, 'loaded': True, 'loadedTime': 8067.20000000298, 'positionName': 'LEFT', 'positionCoords': [511.6, 335], 'bid': 5.16}, {'imgObject': {}, 'id': 'bagel and cc', 'src': '/static/foodstim60/bagel and cc.jpg', 'key': 'i', 'origWidth': 410, 'origHeight': 410, 'width': 410, 'height': 410, 'widthPercent': 0.45, 'rescaleHeight': False, 'trialN': 76, 'loaded': True, 'loadedTime': 7760.39999999851, 'positionName': 'RIGHT', 'positionCoords': [998.4, 335], 'bid': 5}]",130878.80000000447,1669834845957,banana,bagel and cc,5.16,5.0,-0.16000000000000014,banana,1223.8999999985099,1224,1224.1999999955297,True,u,132610.5,1731.6999999955297,1669834847689,1732,HRV,HRV_0240,2022-11-30 19:03:41
77,"[{'imgObject': {}, 'id': 'avocado', 'src': '/static/foodstim60/avocado.jpg', 'key': 'u', 'origWidth': 409, 'origHeight': 409, 'width': 409, 'height': 409, 'widthPercent': 0.45, 'rescaleHeight': False, 'trialN': 77, 'loaded': True, 'loadedTime': 8084.89999999851, 'positionName': 'LEFT', 'positionCoords': [512.6, 335.5], 'bid': 7.58}, {'imgObject': {}, 'id': 'cherry tomato', 'src': '/static/foodstim60/cherry tomato.jpg', 'key': 'i', 'origWidth': 410, 'origHeight': 410, 'width': 410, 'height': 410, 'widthPercent': 0.45, 'rescaleHeight': False, 'trialN': 77, 'loaded': True, 'loadedTime': 8038.60000000149, 'positionName': 'RIGHT', 'positionCoords': [998.4, 335], 'bid': 7.7}]",132611.3999999985,1669834847690,avocado,cherry tomato,7.58,7.7,0.1200000000000001,avocado,1124.2000000029802,1125,1125.3000000044703,True,u,134251.20000000298,1639.8000000044703,1669834849330,1640,HRV,HRV_0240,2022-11-30 19:03:41
78,"[{'imgObject': {}, 'id': 'sweetpotato', 'src': '/static/foodstim60/sweetpotato.jpg', 'key': 'u', 'origWidth': 410, 'origHeight': 410, 'width': 410, 'height': 410, 'widthPercent': 0.45, 'rescaleHeight': False, 'trialN': 78, 'loaded': True, 'loadedTime': 7800.5, 'positionName': 'LEFT', 'positionCoords': [511.6, 335], 'bid': 5.2700000000000005}, {'imgObject': {}, 'id': 'bagel plain', 'src': '/static/foodstim60/bagel plain.jpg', 'key': 'i', 'origWidth': 410, 'origHeight': 410, 'width': 410, 'height': 410, 'widthPercent': 0.45, 'rescaleHeight': False, 'trialN': 78, 'loaded': True, 'loadedTime': 8089.60000000149, 'positionName': 'RIGHT', 'positionCoords': [998.4, 335], 'bid': 5.3500000000000005}]",134252.30000000447,1669834849331,sweetpotato,bagel plain,5.2700000000000005,5.3500000000000005,0.08000000000000007,sweetpotato,1126.1999999955297,1126,1126.5,True,u,135894.20000000298,1641.8999999985099,1669834850973,1642,HRV,HRV_0240,2022-11-30 19:03:41
79,"[{'imgObject': {}, 'id': 'cocktailshrimp', 'src': '/static/foodstim60/cocktailshrimp.jpg', 'key': 'u', 'origWidth': 410, 'origHeight': 410, 'width': 410, 'height': 410, 'widthPercent': 0.45, 'rescaleHeight': False, 'trialN': 79, 'loaded': True, 'loadedTime': 8057.60000000149, 'positionName': 'LEFT', 'positionCoords': [511.6, 335], 'bid': 9.83}, {'imgObject': {}, 'id': 'tacos', 'src': '/static/foodstim60/tacos.jpg', 'key': 'i', 'origWidth': 411, 'origHeight': 411, 'width': 411, 'height': 411, 'widthPercent': 0.45, 'rescaleHeight': False, 'trialN': 79, 'loaded': True, 'loadedTime': 7790.5, 'positionName': 'RIGHT', 'positionCoords': [998.4, 334.5], 'bid': 9.83}]",135894.3999999985,1669834850973,cocktailshrimp,tacos,9.83,9.83,0.0,cocktailshrimp,1089.7000000029802,1091,1090.8000000044703,True,u,137488.8999999985,1594.5,1669834852567,1594,HRV,HRV_0240,2022-11-30 19:03:41
80,"[{'imgObject': {}, 'id': 'cheerios', 'src': '/static/foodstim60/cheerios.jpg', 'key': 'u', 'origWidth': 409, 'origHeight': 410, 'width': 409, 'height': 410, 'widthPercent': 0.45, 'rescaleHeight': False, 'trialN': 80, 'loaded': True, 'loadedTime': 8001, 'positionName': 'LEFT', 'positionCoords': [512.6, 335], 'bid': 2.63}, {'imgObject': {}, 'id': 'froot loops w milk', 'src': '/static/foodstim60/froot loops w milk.jpg', 'key': 'i', 'origWidth': 410, 'origHeight': 410, 'width': 410, 'height': 410, 'widthPercent': 0.45, 'rescaleHeight': False, 'trialN': 80, 'loaded': True, 'loadedTime': 8073.70000000298, 'positionName': 'RIGHT', 'positionCoords': [998.4, 335], 'bid': 2.36}]",137489.1000000015,1669834852568,cheerios,froot loops w milk,2.63,2.36,-0.27,cheerios,1052.5,1053,1053.3999999985099,True,u,139053.1000000015,1564.0,1669834854132,1564,HRV,HRV_0240,2022-11-30 19:03:41
81,"[{'imgObject': {}, 'id': 'steak', 'src': '/static/foodstim60/steak.jpg', 'key': 'u', 'origWidth': 410, 'origHeight': 410, 'width': 410, 'height': 410, 'widthPercent': 0.45, 'rescaleHeight': False, 'trialN': 81, 'loaded': True, 'loadedTime': 7796.10000000149, 'positionName': 'LEFT', 'positionCoords': [511.6, 335], 'bid': 9.87}, {'imgObject': {}, 'id': 'cocktailshrimp', 'src': '/static/foodstim60/cocktailshrimp.jpg', 'key': 'i', 'origWidth': 410, 'origHeight': 410, 'width': 410, 'height': 410, 'widthPercent': 0.45, 'rescaleHeight': False, 'trialN': 81, 'loaded': True, 'loadedTime': 8060.30000000447, 'positionName': 'RIGHT', 'positionCoords': [998.4, 335], 'bid': 9.83}]",139053.80000000447,1669834854132,steak,cocktailshrimp,9.87,9.83,-0.03999999999999915,steak,695.6999999955297,697,697.0999999940395,True,u,140261.30000000447,1207.5,1669834855340,1208,HRV,HRV_0240,2022-11-30 19:03:41
82,"[{'imgObject': {}, 'id': 'banana', 'src': '/static/foodstim60/banana.jpg', 'key': 'u', 'origWidth': 410, 'origHeight': 410, 'width': 410, 'height': 410, 'widthPercent': 0.45, 'rescaleHeight': False, 'trialN': 82, 'loaded': True, 'loadedTime': 8067.39999999851, 'positionName': 'LEFT', 'positionCoords': [511.6, 335], 'bid': 5.16}, {'imgObject': {}, 'id': 'shreddedwheatwithmilk', 'src': '/static/foodstim60/shreddedwheatwithmilk.jpg', 'key': 'i', 'origWidth': 410, 'origHeight': 410, 'width': 410, 'height': 410, 'widthPercent': 0.45, 'rescaleHeight': False, 'trialN': 82, 'loaded': True, 'loadedTime': 7881.70000000298, 'positionName': 'RIGHT', 'positionCoords': [998.4, 335], 'bid': 2.82}]",140262.0,1669834855341,banana,shreddedwheatwithmilk,5.16,2.82,-2.3400000000000003,shreddedwheatwithmilk,1175.1000000014901,1175,1176.0,True,i,141958.20000000298,1696.2000000029802,1669834857037,1696,HRV,HRV_0240,2022-11-30 19:03:41
83,"[{'imgObject': {}, 'id': 'raspberries', 'src': '/static/foodstim60/raspberries.jpg', 'key': 'u', 'origWidth': 411, 'origHeight': 411, 'width': 411, 'height': 411, 'widthPercent': 0.45, 'rescaleHeight': False, 'trialN': 83, 'loaded': True, 'loadedTime': 8106.80000000447, 'positionName': 'LEFT', 'positionCoords': [510.6, 334.5], 'bid': 5.07}, {'imgObject': {}, 'id': 'banana', 'src': '/static/foodstim60/banana.jpg', 'key': 'i', 'origWidth': 410, 'origHeight': 410, 'width': 410, 'height': 410, 'widthPercent': 0.45, 'rescaleHeight': False, 'trialN': 83, 'loaded': True, 'loadedTime': 8066.70000000298, 'positionName': 'RIGHT', 'positionCoords': [998.4, 335], 'bid': 5.16}]",141958.5,1669834857037,raspberries,banana,5.07,5.16,0.08999999999999986,banana,882.5,883,883.0,True,i,143352.70000000298,1394.2000000029802,1669834858431,1394,HRV,HRV_0240,2022-11-30 19:03:41
84,"[{'imgObject': {}, 'id': 'kiwi', 'src': '/static/foodstim60/kiwi.jpg', 'key': 'u', 'origWidth': 410, 'origHeight': 410, 'width': 410, 'height': 410, 'widthPercent': 0.45, 'rescaleHeight': False, 'trialN': 84, 'loaded': True, 'loadedTime': 8071.80000000447, 'positionName': 'LEFT', 'positionCoords': [511.6, 335], 'bid': 5.14}, {'imgObject': {}, 'id': 'granola w milk', 'src': '/static/foodstim60/granola w milk.jpg', 'key': 'i', 'origWidth': 410, 'origHeight': 410, 'width': 410, 'height': 410, 'widthPercent': 0.45, 'rescaleHeight': False, 'trialN': 84, 'loaded': True, 'loadedTime': 7975.20000000298, 'positionName': 'RIGHT', 'positionCoords': [998.4, 335], 'bid': 3.5500000000000003}]",143352.80000000447,1669834858431,kiwi,granola w milk,5.14,3.5500000000000003,-1.5899999999999994,kiwi,923.6999999955297,925,924.5999999940395,True,u,144791.5,1438.6999999955297,1669834859870,1439,HRV,HRV_0240,2022-11-30 19:03:41
85,"[{'imgObject': {}, 'id': 'turkey sandwich', 'src': '/static/foodstim60/turkey sandwich.jpg', 'key': 'u', 'origWidth': 409, 'origHeight': 409, 'width': 409, 'height': 409, 'widthPercent': 0.45, 'rescaleHeight': False, 'trialN': 85, 'loaded': True, 'loadedTime': 7810.10000000149, 'positionName': 'LEFT', 'positionCoords': [512.6, 335.5], 'bid': 9.9}, {'imgObject': {}, 'id': 'orange slices', 'src': '/static/foodstim60/orange slices.jpg', 'key': 'i', 'origWidth': 409, 'origHeight': 410, 'width': 409, 'height': 410, 'widthPercent': 0.45, 'rescaleHeight': False, 'trialN': 85, 'loaded': True, 'loadedTime': 7823, 'positionName': 'RIGHT', 'positionCoords': [998.4, 335], 'bid': 5.33}]",144791.80000000447,1669834859870,turkey sandwich,orange slices,9.9,5.33,-4.57,turkey sandwich,671.5999999940395,672,671.8999999985099,True,u,145981.30000000447,1189.5,1669834861060,1190,HRV,HRV_0240,2022-11-30 19:03:41
86,"[{'imgObject': {}, 'id': 'lox', 'src': '/static/foodstim60/lox.jpg', 'key': 'u', 'origWidth': 410, 'origHeight': 411, 'width': 410, 'height': 411, 'widthPercent': 0.45, 'rescaleHeight': False, 'trialN': 86, 'loaded': True, 'loadedTime': 8094.30000000447, 'positionName': 'LEFT', 'positionCoords': [511.6, 334.5], 'bid': 9.79}, {'imgObject': {}, 'id': 'kiwi', 'src': '/static/foodstim60/kiwi.jpg', 'key': 'i', 'origWidth': 410, 'origHeight': 410, 'width': 410, 'height': 410, 'widthPercent': 0.45, 'rescaleHeight': False, 'trialN': 86, 'loaded': True, 'loadedTime': 8068.89999999851, 'positionName': 'RIGHT', 'positionCoords': [998.4, 335], 'bid': 5.14}]",145982.30000000447,1669834861061,lox,kiwi,9.79,5.14,-4.6499999999999995,lox,1048.3999999985099,1049,1048.8999999985099,True,u,147540.6000000015,1558.2999999970198,1669834862619,1558,HRV,HRV_0240,2022-11-30 19:03:41
87,"[{'imgObject': {}, 'id': 'hashbrowns', 'src': '/static/foodstim60/hashbrowns.jpg', 'key': 'u', 'origWidth': 411, 'origHeight': 410, 'width': 411, 'height': 410, 'widthPercent': 0.45, 'rescaleHeight': False, 'trialN': 87, 'loaded': True, 'loadedTime': 7965.39999999851, 'positionName': 'LEFT', 'positionCoords': [510.6, 335], 'bid': 2.54}, {'imgObject': {}, 'id': 'strawberries', 'src': '/static/foodstim60/strawberries.jpg', 'key': 'i', 'origWidth': 410, 'origHeight': 410, 'width': 410, 'height': 410, 'widthPercent': 0.45, 'rescaleHeight': False, 'trialN': 87, 'loaded': True, 'loadedTime': 7778.70000000298, 'positionName': 'RIGHT', 'positionCoords': [998.4, 335], 'bid': 5.05}]",147541.3999999985,1669834862620,hashbrowns,strawberries,2.54,5.05,2.51,strawberries,1094.0,1095,1095.2000000029802,True,i,149156.1000000015,1614.7000000029802,1669834864235,1615,HRV,HRV_0240,2022-11-30 19:03:41
88,"[{'imgObject': {}, 'id': 'salmon', 'src': '/static/foodstim60/salmon.jpg', 'key': 'u', 'origWidth': 410, 'origHeight': 409, 'width': 410, 'height': 409, 'widthPercent': 0.45, 'rescaleHeight': False, 'trialN': 88, 'loaded': True, 'loadedTime': 7793.60000000149, 'positionName': 'LEFT', 'positionCoords': [511.6, 335.5], 'bid': 9.88}, {'imgObject': {}, 'id': 'steak', 'src': '/static/foodstim60/steak.jpg', 'key': 'i', 'origWidth': 410, 'origHeight': 410, 'width': 410, 'height': 410, 'widthPercent': 0.45, 'rescaleHeight': False, 'trialN': 88, 'loaded': True, 'loadedTime': 7796, 'positionName': 'RIGHT', 'positionCoords': [998.4, 335], 'bid': 9.87}]",149157.1000000015,1669834864236,salmon,steak,9.88,9.87,-0.010000000000001563,steak,1055.2000000029802,1056,1056.0,True,i,150731.70000000298,1574.6000000014901,1669834865810,1574,HRV,HRV_0240,2022-11-30 19:03:41
89,"[{'imgObject': {}, 'id': 'rigatoni', 'src': '/static/foodstim60/rigatoni.jpg', 'key': 'u', 'origWidth': 411, 'origHeight': 411, 'width': 411, 'height': 411, 'widthPercent': 0.45, 'rescaleHeight': False, 'trialN': 89, 'loaded': True, 'loadedTime': 7866.5, 'positionName': 'LEFT', 'positionCoords': [510.6, 334.5], 'bid': 5.14}, {'imgObject': {}, 'id': 'froot loops w milk', 'src': '/static/foodstim60/froot loops w milk.jpg', 'key': 'i', 'origWidth': 410, 'origHeight': 410, 'width': 410, 'height': 410, 'widthPercent': 0.45, 'rescaleHeight': False, 'trialN': 89, 'loaded': True, 'loadedTime': 8072, 'positionName': 'RIGHT', 'positionCoords': [998.4, 335], 'bid': 2.36}]",150731.8999999985,1669834865810,rigatoni,froot loops w milk,5.14,2.36,-2.78,rigatoni,1028.6000000014901,1030,1029.4000000059605,True,u,152263.30000000447,1531.4000000059605,1669834867342,1532,HRV,HRV_0240,2022-11-30 19:03:41
90,"[{'imgObject': {}, 'id': 'mango', 'src': '/static/foodstim60/mango.jpg', 'key': 'u', 'origWidth': 411, 'origHeight': 411, 'width': 411, 'height': 411, 'widthPercent': 0.45, 'rescaleHeight': False, 'trialN': 90, 'loaded': True, 'loadedTime': 8034.89999999851, 'positionName': 'LEFT', 'positionCoords': [510.6, 334.5], 'bid': 5.22}, {'imgObject': {}, 'id': 'fruitsalad', 'src': '/static/foodstim60/fruitsalad.jpg', 'key': 'i', 'origWidth': 410, 'origHeight': 410, 'width': 410, 'height': 410, 'widthPercent': 0.45, 'rescaleHeight': False, 'trialN': 90, 'loaded': True, 'loadedTime': 7880.89999999851, 'positionName': 'RIGHT', 'positionCoords': [998.4, 335], 'bid': 5.38}]",164455.20000000298,1669834879534,mango,fruitsalad,5.22,5.38,0.16000000000000014,mango,2218.5,2220,2219.89999999851,True,u,167188.30000000447,2733.10000000149,1669834882267,2733,HRV,HRV_0240,2022-11-30 19:03:41
91,"[{'imgObject': {}, 'id': 'luckycharms', 'src': '/static/foodstim60/luckycharms.jpg', 'key': 'u', 'origWidth': 410, 'origHeight': 409, 'width': 410, 'height': 409, 'widthPercent': 0.45, 'rescaleHeight': False, 'trialN': 91, 'loaded': True, 'loadedTime': 8098, 'positionName': 'LEFT', 'positionCoords': [511.6, 335.5], 'bid': 2.78}, {'imgObject': {}, 'id': 'raspberries', 'src': '/static/foodstim60/raspberries.jpg', 'key': 'i', 'origWidth': 411, 'origHeight': 411, 'width': 411, 'height': 411, 'widthPercent': 0.45, 'rescaleHeight': False, 'trialN': 91, 'loaded': True, 'loadedTime': 8106.5, 'positionName': 'RIGHT', 'positionCoords': [998.4, 334.5], 'bid': 5.07}]",167188.70000000298,1669834882267,luckycharms,raspberries,2.78,5.07,2.2900000000000005,raspberries,950.2999999970198,952,951.3999999985099,True,i,168649.0,1460.2999999970198,1669834883728,1461,HRV,HRV_0240,2022-11-30 19:03:41
92,"[{'imgObject': {}, 'id': 'shreddedwheatwithmilk', 'src': '/static/foodstim60/shreddedwheatwithmilk.jpg', 'key': 'u', 'origWidth': 410, 'origHeight': 410, 'width': 410, 'height': 410, 'widthPercent': 0.45, 'rescaleHeight': False, 'trialN': 92, 'loaded': True, 'loadedTime': 7883.39999999851, 'positionName': 'LEFT', 'positionCoords': [511.6, 335], 'bid': 2.82}, {'imgObject': {}, 'id': 'raisin bran w milk', 'src': '/static/foodstim60/raisin bran w milk.jpg', 'key': 'i', 'origWidth': 411, 'origHeight': 411, 'width': 411, 'height': 411, 'widthPercent': 0.45, 'rescaleHeight': False, 'trialN': 92, 'loaded': True, 'loadedTime': 7798.5, 'positionName': 'RIGHT', 'positionCoords': [998.4, 334.5], 'bid': 3.18}]",168650.3999999985,1669834883729,shreddedwheatwithmilk,raisin bran w milk,2.82,3.18,0.3600000000000003,raisin bran w milk,846.2000000029802,847,846.5,True,i,169999.6000000015,1349.2000000029802,1669834885078,1349,HRV,HRV_0240,2022-11-30 19:03:41
93,"[{'imgObject': {}, 'id': 'edamame', 'src': '/static/foodstim60/edamame.jpg', 'key': 'u', 'origWidth': 409, 'origHeight': 410, 'width': 409, 'height': 410, 'widthPercent': 0.45, 'rescaleHeight': False, 'trialN': 93, 'loaded': True, 'loadedTime': 8084.60000000149, 'positionName': 'LEFT', 'positionCoords': [512.6, 335], 'bid': 5.32}, {'imgObject': {}, 'id': 'fruitsalad', 'src': '/static/foodstim60/fruitsalad.jpg', 'key': 'i', 'origWidth': 410, 'origHeight': 410, 'width': 410, 'height': 410, 'widthPercent': 0.45, 'rescaleHeight': False, 'trialN': 93, 'loaded': True, 'loadedTime': 7867.60000000149, 'positionName': 'RIGHT', 'positionCoords': [998.4, 335], 'bid': 5.38}]",169999.80000000447,1669834885079,edamame,fruitsalad,5.32,5.38,0.05999999999999961,fruitsalad,872.5999999940395,873,873.5999999940395,True,i,171376.30000000447,1376.5,1669834886455,1376,HRV,HRV_0240,2022-11-30 19:03:41
94,"[{'imgObject': {}, 'id': 'pear', 'src': '/static/foodstim60/pear.jpg', 'key': 'u', 'origWidth': 411, 'origHeight': 410, 'width': 411, 'height': 410, 'widthPercent': 0.45, 'rescaleHeight': False, 'trialN': 94, 'loaded': True, 'loadedTime': 8055.10000000149, 'positionName': 'LEFT', 'positionCoords': [510.6, 335], 'bid': 5.34}, {'imgObject': {}, 'id': 'Grapes', 'src': '/static/foodstim60/Grapes.jpg', 'key': 'i', 'origWidth': 411, 'origHeight': 411, 'width': 411, 'height': 411, 'widthPercent': 0.45, 'rescaleHeight': False, 'trialN': 94, 'loaded': True, 'loadedTime': 8030.5, 'positionName': 'RIGHT', 'positionCoords': [998.4, 334.5], 'bid': 5.16}]",171376.70000000298,1669834886455,pear,Grapes,5.34,5.16,-0.17999999999999972,Grapes,1226.0,1228,1227.1999999955297,True,i,173124.0,1747.2999999970198,1669834888203,1748,HRV,HRV_0240,2022-11-30 19:03:41
95,"[{'imgObject': {}, 'id': 'cheerios', 'src': '/static/foodstim60/cheerios.jpg', 'key': 'u', 'origWidth': 409, 'origHeight': 410, 'width': 409, 'height': 410, 'widthPercent': 0.45, 'rescaleHeight': False, 'trialN': 95, 'loaded': True, 'loadedTime': 8008, 'positionName': 'LEFT', 'positionCoords': [512.6, 335], 'bid': 2.63}, {'imgObject': {}, 'id': 'kiwi', 'src': '/static/foodstim60/kiwi.jpg', 'key': 'i', 'origWidth': 410, 'origHeight': 410, 'width': 410, 'height': 410, 'widthPercent': 0.45, 'rescaleHeight': False, 'trialN': 95, 'loaded': True, 'loadedTime': 8070.80000000447, 'positionName': 'RIGHT', 'positionCoords': [998.4, 335], 'bid': 5.14}]",173124.30000000447,1669834888203,cheerios,kiwi,2.63,5.14,2.51,kiwi,1081.0999999940395,1082,1082.1999999955297,True,i,174717.70000000298,1593.3999999985099,1669834889796,1593,HRV,HRV_0240,2022-11-30 19:03:41
96,"[{'imgObject': {}, 'id': 'ice cream sundae 002', 'src': '/static/foodstim60/ice cream sundae 002.jpg', 'key': 'u', 'origWidth': 409, 'origHeight': 409, 'width': 409, 'height': 409, 'widthPercent': 0.45, 'rescaleHeight': False, 'trialN': 96, 'loaded': True, 'loadedTime': 8045.39999999851, 'positionName': 'LEFT', 'positionCoords': [512.6, 335.5], 'bid': 5.14}, {'imgObject': {}, 'id': 'kiwi', 'src': '/static/foodstim60/kiwi.jpg', 'key': 'i', 'origWidth': 410, 'origHeight': 410, 'width': 410, 'height': 410, 'widthPercent': 0.45, 'rescaleHeight': False, 'trialN': 96, 'loaded': True, 'loadedTime': 8071.10000000149, 'positionName': 'RIGHT', 'positionCoords': [998.4, 335], 'bid': 5.14}]",174718.20000000298,1669834889797,ice cream sundae 002,kiwi,5.14,5.14,0.0,ice cream sundae 002,1157.0,1158,1157.8999999985099,True,u,176386.8999999985,1668.6999999955297,1669834891466,1669,HRV,HRV_0240,2022-11-30 19:03:41
97,"[{'imgObject': {}, 'id': 'burrito', 'src': '/static/foodstim60/burrito.jpg', 'key': 'u', 'origWidth': 410, 'origHeight': 410, 'width': 410, 'height': 410, 'widthPercent': 0.45, 'rescaleHeight': False, 'trialN': 97, 'loaded': True, 'loadedTime': 7862.5, 'positionName': 'LEFT', 'positionCoords': [511.6, 335], 'bid': 9.78}, {'imgObject': {}, 'id': 'fried eggs', 'src': '/static/foodstim60/fried eggs.jpg', 'key': 'i', 'origWidth': 410, 'origHeight': 410, 'width': 410, 'height': 410, 'widthPercent': 0.45, 'rescaleHeight': False, 'trialN': 97, 'loaded': True, 'loadedTime': 7893.80000000447, 'positionName': 'RIGHT', 'positionCoords': [998.4, 335], 'bid': 9.86}]",176387.8999999985,1669834891467,burrito,fried eggs,9.78,9.86,0.08000000000000007,burrito,687.6000000014901,688,688.5,True,u,177594.3999999985,1206.5,1669834892673,1206,HRV,HRV_0240,2022-11-30 19:03:41
98,"[{'imgObject': {}, 'id': 'froot loops w milk', 'src': '/static/foodstim60/froot loops w milk.jpg', 'key': 'u', 'origWidth': 410, 'origHeight': 410, 'width': 410, 'height': 410, 'widthPercent': 0.45, 'rescaleHeight': False, 'trialN': 98, 'loaded': True, 'loadedTime': 8073, 'positionName': 'LEFT', 'positionCoords': [511.6, 335], 'bid': 2.36}, {'imgObject': {}, 'id': 'hashbrowns', 'src': '/static/foodstim60/hashbrowns.jpg', 'key': 'i', 'origWidth': 411, 'origHeight': 410, 'width': 411, 'height': 410, 'widthPercent': 0.45, 'rescaleHeight': False, 'trialN': 98, 'loaded': True, 'loadedTime': 7959.89999999851, 'positionName': 'RIGHT', 'positionCoords': [998.4, 335], 'bid': 2.54}]",177595.30000000447,1669834892674,froot loops w milk,hashbrowns,2.36,2.54,0.18000000000000016,hashbrowns,2143.0,2144,2144.0,True,i,180249.6000000015,2654.2999999970198,1669834895328,2654,HRV,HRV_0240,2022-11-30 19:03:41
99,"[{'imgObject': {}, 'id': 'rigatoni and sauce', 'src': '/static/foodstim60/rigatoni and sauce.jpg', 'key': 'u', 'origWidth': 410, 'origHeight': 411, 'width': 410, 'height': 411, 'widthPercent': 0.45, 'rescaleHeight': False, 'trialN': 99, 'loaded': True, 'loadedTime': 8096.89999999851, 'positionName': 'LEFT', 'positionCoords': [511.6, 334.5], 'bid': 7.27}, {'imgObject': {}, 'id': 'sweetpotato', 'src': '/static/foodstim60/sweetpotato.jpg', 'key': 'i', 'origWidth': 410, 'origHeight': 410, 'width': 410, 'height': 410, 'widthPercent': 0.45, 'rescaleHeight': False, 'trialN': 99, 'loaded': True, 'loadedTime': 7801.89999999851, 'positionName': 'RIGHT', 'positionCoords': [998.4, 335], 'bid': 5.2700000000000005}]",180250.3999999985,1669834895329,rigatoni and sauce,sweetpotato,7.27,5.2700000000000005,-1.9999999999999991,rigatoni and sauce,1339.6000000014901,1341,1341.0,True,u,182102.70000000298,1852.3000000044703,1669834897181,1852,HRV,HRV_0240,2022-11-30 19:03:41
100,"[{'imgObject': {}, 'id': 'hotdog w must', 'src': '/static/foodstim60/hotdog w must.jpg', 'key': 'u', 'origWidth': 409, 'origHeight': 409, 'width': 409, 'height': 409, 'widthPercent': 0.45, 'rescaleHeight': False, 'trialN': 100, 'loaded': True, 'loadedTime': 7786.80000000447, 'positionName': 'LEFT', 'positionCoords': [512.6, 335.5], 'bid': 3.5700000000000003}, {'imgObject': {}, 'id': 'mac & cheese', 'src': '/static/foodstim60/mac & cheese.jpg', 'key': 'i', 'origWidth': 410, 'origHeight': 410, 'width': 410, 'height': 410, 'widthPercent': 0.45, 'rescaleHeight': False, 'trialN': 100, 'loaded': True, 'loadedTime': 7785, 'positionName': 'RIGHT', 'positionCoords': [998.4, 335], 'bid': 5.04}]",182103.1000000015,1669834897182,hotdog w must,mac & cheese,3.5700000000000003,5.04,1.4699999999999998,hotdog w must,785.3999999985099,786,786.2000000029802,True,u,183398.3999999985,1295.2999999970198,1669834898477,1295,HRV,HRV_0240,2022-11-30 19:03:41
101,"[{'imgObject': {}, 'id': 'cherries', 'src': '/static/foodstim60/cherries.jpg', 'key': 'u', 'origWidth': 410, 'origHeight': 411, 'width': 410, 'height': 411, 'widthPercent': 0.45, 'rescaleHeight': False, 'trialN': 101, 'loaded': True, 'loadedTime': 8049.89999999851, 'positionName': 'LEFT', 'positionCoords': [511.6, 334.5], 'bid': 5.22}, {'imgObject': {}, 'id': 'salad w chicken', 'src': '/static/foodstim60/salad w chicken.jpg', 'key': 'i', 'origWidth': 411, 'origHeight': 411, 'width': 411, 'height': 411, 'widthPercent': 0.45, 'rescaleHeight': False, 'trialN': 101, 'loaded': True, 'loadedTime': 7805.30000000447, 'positionName': 'RIGHT', 'positionCoords': [998.4, 334.5], 'bid': 9.83}]",183398.6000000015,1669834898477,cherries,salad w chicken,5.22,9.83,4.61,salad w chicken,881.3999999985099,883,882.5,True,i,184790.0,1391.3999999985099,1669834899869,1392,HRV,HRV_0240,2022-11-30 19:03:41
102,"[{'imgObject': {}, 'id': 'eggs', 'src': '/static/foodstim60/eggs.jpg', 'key': 'u', 'origWidth': 409, 'origHeight': 409, 'width': 409, 'height': 409, 'widthPercent': 0.45, 'rescaleHeight': False, 'trialN': 102, 'loaded': True, 'loadedTime': 8021.20000000298, 'positionName': 'LEFT', 'positionCoords': [512.6, 335.5], 'bid': 9.83}, {'imgObject': {}, 'id': 'avocado', 'src': '/static/foodstim60/avocado.jpg', 'key': 'i', 'origWidth': 409, 'origHeight': 409, 'width': 409, 'height': 409, 'widthPercent': 0.45, 'rescaleHeight': False, 'trialN': 102, 'loaded': True, 'loadedTime': 8087.39999999851, 'positionName': 'RIGHT', 'positionCoords': [998.4, 335.5], 'bid': 7.58}]",184790.30000000447,1669834899869,eggs,avocado,9.83,7.58,-2.25,eggs,1147.1999999955297,1148,1148.3999999985099,True,u,186448.30000000447,1658.0,1669834901527,1658,HRV,HRV_0240,2022-11-30 19:03:41
103,"[{'imgObject': {}, 'id': 'pear', 'src': '/static/foodstim60/pear.jpg', 'key': 'u', 'origWidth': 411, 'origHeight': 410, 'width': 411, 'height': 410, 'widthPercent': 0.45, 'rescaleHeight': False, 'trialN': 103, 'loaded': True, 'loadedTime': 8057.5, 'positionName': 'LEFT', 'positionCoords': [510.6, 335], 'bid': 5.34}, {'imgObject': {}, 'id': 'mango', 'src': '/static/foodstim60/mango.jpg', 'key': 'i', 'origWidth': 411, 'origHeight': 411, 'width': 411, 'height': 411, 'widthPercent': 0.45, 'rescaleHeight': False, 'trialN': 103, 'loaded': True, 'loadedTime': 8035.60000000149, 'positionName': 'RIGHT', 'positionCoords': [998.4, 334.5], 'bid': 5.22}]",186450.30000000447,1669834901529,pear,mango,5.34,5.22,-0.1200000000000001,pear,1003.0,1003,1003.2999999970198,True,u,187957.0,1506.6999999955297,1669834903036,1507,HRV,HRV_0240,2022-11-30 19:03:41
104,"[{'imgObject': {}, 'id': 'veggieswithdip', 'src': '/static/foodstim60/veggieswithdip.jpg', 'key': 'u', 'origWidth': 409, 'origHeight': 409, 'width': 409, 'height': 409, 'widthPercent': 0.45, 'rescaleHeight': False, 'trialN': 104, 'loaded': True, 'loadedTime': 7911.80000000447, 'positionName': 'LEFT', 'positionCoords': [512.6, 335.5], 'bid': 7.82}, {'imgObject': {}, 'id': 'cocktailshrimp', 'src': '/static/foodstim60/cocktailshrimp.jpg', 'key': 'i', 'origWidth': 410, 'origHeight': 410, 'width': 410, 'height': 410, 'widthPercent': 0.45, 'rescaleHeight': False, 'trialN': 104, 'loaded': True, 'loadedTime': 8060, 'positionName': 'RIGHT', 'positionCoords': [998.4, 335], 'bid': 9.83}]",187958.0,1669834903037,veggieswithdip,cocktailshrimp,7.82,9.83,2.01,veggieswithdip,1260.8999999985099,1261,1261.7000000029802,True,u,189734.1000000015,1776.1000000014901,1669834904813,1776,HRV,HRV_0240,2022-11-30 19:03:41
105,"[{'imgObject': {}, 'id': 'orange slices', 'src': '/static/foodstim60/orange slices.jpg', 'key': 'u', 'origWidth': 409, 'origHeight': 410, 'width': 409, 'height': 410, 'widthPercent': 0.45, 'rescaleHeight': False, 'trialN': 105, 'loaded': True, 'loadedTime': 7824.39999999851, 'positionName': 'LEFT', 'positionCoords': [512.6, 335], 'bid': 5.33}, {'imgObject': {}, 'id': 'eggsalad', 'src': '/static/foodstim60/eggsalad.jpg', 'key': 'i', 'origWidth': 410, 'origHeight': 409, 'width': 410, 'height': 409, 'widthPercent': 0.45, 'rescaleHeight': False, 'trialN': 105, 'loaded': True, 'loadedTime': 7959.70000000298, 'positionName': 'RIGHT', 'positionCoords': [998.4, 335.5], 'bid': 6.97}]",189735.0,1669834904814,orange slices,eggsalad,5.33,6.97,1.6399999999999997,eggsalad,856.8000000044703,857,857.0,True,i,191105.30000000447,1370.3000000044703,1669834906184,1370,HRV,HRV_0240,2022-11-30 19:03:41
106,"[{'imgObject': {}, 'id': 'popsicles', 'src': '/static/foodstim60/popsicles.jpg', 'key': 'u', 'origWidth': 410, 'origHeight': 410, 'width': 410, 'height': 410, 'widthPercent': 0.45, 'rescaleHeight': False, 'trialN': 106, 'loaded': True, 'loadedTime': 9101.20000000298, 'positionName': 'LEFT', 'positionCoords': [511.6, 335], 'bid': 3.27}, {'imgObject': {}, 'id': 'rigatoni and sauce', 'src': '/static/foodstim60/rigatoni and sauce.jpg', 'key': 'i', 'origWidth': 410, 'origHeight': 411, 'width': 410, 'height': 411, 'widthPercent': 0.45, 'rescaleHeight': False, 'trialN': 106, 'loaded': True, 'loadedTime': 8094.60000000149, 'positionName': 'RIGHT', 'positionCoords': [998.4, 334.5], 'bid': 7.27}]",191106.70000000298,1669834906185,popsicles,rigatoni and sauce,3.27,7.27,3.9999999999999996,rigatoni and sauce,717.3999999985099,718,717.5,True,i,192339.30000000447,1232.6000000014901,1669834907418,1233,HRV,HRV_0240,2022-11-30 19:03:41
107,"[{'imgObject': {}, 'id': 'sweetpotato', 'src': '/static/foodstim60/sweetpotato.jpg', 'key': 'u', 'origWidth': 410, 'origHeight': 410, 'width': 410, 'height': 410, 'widthPercent': 0.45, 'rescaleHeight': False, 'trialN': 107, 'loaded': True, 'loadedTime': 7801, 'positionName': 'LEFT', 'positionCoords': [511.6, 335], 'bid': 5.2700000000000005}, {'imgObject': {}, 'id': 'mango', 'src': '/static/foodstim60/mango.jpg', 'key': 'i', 'origWidth': 411, 'origHeight': 411, 'width': 411, 'height': 411, 'widthPercent': 0.45, 'rescaleHeight': False, 'trialN': 107, 'loaded': True, 'loadedTime': 8036.70000000298, 'positionName': 'RIGHT', 'positionCoords': [998.4, 334.5], 'bid': 5.22}]",192339.6000000015,1669834907418,sweetpotato,mango,5.2700000000000005,5.22,-0.05000000000000071,sweetpotato,1042.7000000029802,1044,1043.7999999970198,True,u,193890.0,1550.3999999985099,1669834908969,1551,HRV,HRV_0240,2022-11-30 19:03:41
108,"[{'imgObject': {}, 'id': 'seaweed', 'src': '/static/foodstim60/seaweed.jpg', 'key': 'u', 'origWidth': 410, 'origHeight': 410, 'width': 410, 'height': 410, 'widthPercent': 0.45, 'rescaleHeight': False, 'trialN': 108, 'loaded': True, 'loadedTime': 7948.89999999851, 'positionName': 'LEFT', 'positionCoords': [511.6, 335], 'bid': 5.37}, {'imgObject': {}, 'id': 'olives', 'src': '/static/foodstim60/olives.jpg', 'key': 'i', 'origWidth': 410, 'origHeight': 410, 'width': 410, 'height': 410, 'widthPercent': 0.45, 'rescaleHeight': False, 'trialN': 108, 'loaded': True, 'loadedTime': 7914.60000000149, 'positionName': 'RIGHT', 'positionCoords': [998.4, 335], 'bid': 5.32}]",193890.3999999985,1669834908969,seaweed,olives,5.37,5.32,-0.04999999999999982,olives,930.2000000029802,931,931.1000000014901,True,i,195338.6000000015,1448.2000000029802,1669834910417,1448,HRV,HRV_0240,2022-11-30 19:03:41
