trialN,stimuli,trialStartTime,trialStartTime_UNIX,stimulus1,stimulus2,stimulus1Bid,stimulus2Bid,delta,selected,rt,rt_UNIX,rt_perfnow,receivedResponse,rsp,trialEndTime,trialDuration,trialEndTime_UNIX,trialDuration_UNIX,exp,subjectId,date
0,"[{'imgObject': {}, 'id': 'raspberries', 'src': '/static/foodstim60/raspberries.jpg', 'key': 'u', 'origWidth': 411, 'origHeight': 411, 'width': 411, 'height': 411, 'widthPercent': 0.45, 'rescaleHeight': False, 'trialN': 0, 'loaded': True, 'loadedTime': 8294.900000035763, 'positionName': 'LEFT', 'positionCoords': [280.2, 244.5], 'bid': 2.94}, {'imgObject': {}, 'id': 'chicken nuggets2', 'src': '/static/foodstim60/chicken nuggets2.jpg', 'key': 'i', 'origWidth': 410, 'origHeight': 409, 'width': 410, 'height': 409, 'widthPercent': 0.45, 'rescaleHeight': False, 'trialN': 0, 'loaded': True, 'loadedTime': 8329.100000023842, 'positionName': 'RIGHT', 'positionCoords': [748.8, 245.5], 'bid': 9.22}]",8656.700000047684,1669830526536,raspberries,chicken nuggets2,2.94,9.22,6.280000000000001,chicken nuggets2,1135.0999999642372,1137,1137.2999999523163,True,i,10295.5,1638.7999999523163,1669830528175,1639,HRV,HRV_0095,2022-11-30 17:53:14
1,"[{'imgObject': {}, 'id': 'sushi w_condiments', 'src': '/static/foodstim60/sushi w_condiments.jpg', 'key': 'u', 'origWidth': 410, 'origHeight': 410, 'width': 410, 'height': 410, 'widthPercent': 0.45, 'rescaleHeight': False, 'trialN': 1, 'loaded': True, 'loadedTime': 8330.200000047684, 'positionName': 'LEFT', 'positionCoords': [281.2, 245], 'bid': 0.27}, {'imgObject': {}, 'id': 'avocado', 'src': '/static/foodstim60/avocado.jpg', 'key': 'i', 'origWidth': 409, 'origHeight': 409, 'width': 409, 'height': 409, 'widthPercent': 0.45, 'rescaleHeight': False, 'trialN': 1, 'loaded': True, 'loadedTime': 8340, 'positionName': 'RIGHT', 'positionCoords': [748.8, 245.5], 'bid': 0.75}]",10295.900000035763,1669830528175,sushi w_condiments,avocado,0.27,0.75,0.48,avocado,1019.5,1022,1022.0,True,i,11821.5,1525.5999999642372,1669830529701,1526,HRV,HRV_0095,2022-11-30 17:53:14
2,"[{'imgObject': {}, 'id': 'lox', 'src': '/static/foodstim60/lox.jpg', 'key': 'u', 'origWidth': 410, 'origHeight': 411, 'width': 410, 'height': 411, 'widthPercent': 0.45, 'rescaleHeight': False, 'trialN': 2, 'loaded': True, 'loadedTime': 8343.5, 'positionName': 'LEFT', 'positionCoords': [281.2, 244.5], 'bid': 0.59}, {'imgObject': {}, 'id': 'avocado', 'src': '/static/foodstim60/avocado.jpg', 'key': 'i', 'origWidth': 409, 'origHeight': 409, 'width': 409, 'height': 409, 'widthPercent': 0.45, 'rescaleHeight': False, 'trialN': 2, 'loaded': True, 'loadedTime': 8338.300000011921, 'positionName': 'RIGHT', 'positionCoords': [748.8, 245.5], 'bid': 0.75}]",11821.800000011921,1669830529701,lox,avocado,0.59,0.75,0.16000000000000003,avocado,691.9000000357628,694,694.4000000357628,True,i,13019.800000011921,1198.0,1669830530899,1198,HRV,HRV_0095,2022-11-30 17:53:14
3,"[{'imgObject': {}, 'id': 'lox', 'src': '/static/foodstim60/lox.jpg', 'key': 'u', 'origWidth': 410, 'origHeight': 411, 'width': 410, 'height': 411, 'widthPercent': 0.45, 'rescaleHeight': False, 'trialN': 3, 'loaded': True, 'loadedTime': 8343.5, 'positionName': 'LEFT', 'positionCoords': [281.2, 244.5], 'bid': 0.59}, {'imgObject': {}, 'id': 'luckycharms', 'src': '/static/foodstim60/luckycharms.jpg', 'key': 'i', 'origWidth': 410, 'origHeight': 409, 'width': 410, 'height': 409, 'widthPercent': 0.45, 'rescaleHeight': False, 'trialN': 3, 'loaded': True, 'loadedTime': 8344.700000047684, 'positionName': 'RIGHT', 'positionCoords': [748.8, 245.5], 'bid': 0.13}]",13020.0,1669830530899,lox,luckycharms,0.59,0.13,-0.45999999999999996,lox,621.5,624,624.0,True,u,14147.800000011921,1127.800000011921,1669830532027,1128,HRV,HRV_0095,2022-11-30 17:53:14
4,"[{'imgObject': {}, 'id': 'blueberries', 'src': '/static/foodstim60/blueberries.jpg', 'key': 'u', 'origWidth': 411, 'origHeight': 411, 'width': 411, 'height': 411, 'widthPercent': 0.45, 'rescaleHeight': False, 'trialN': 4, 'loaded': True, 'loadedTime': 8345.800000011921, 'positionName': 'LEFT', 'positionCoords': [280.2, 244.5], 'bid': 6.16}, {'imgObject': {}, 'id': 'burrito', 'src': '/static/foodstim60/burrito.jpg', 'key': 'i', 'origWidth': 410, 'origHeight': 410, 'width': 410, 'height': 410, 'widthPercent': 0.45, 'rescaleHeight': False, 'trialN': 4, 'loaded': True, 'loadedTime': 8347.400000035763, 'positionName': 'RIGHT', 'positionCoords': [748.8, 245], 'bid': 8.66}]",14148.0,1669830532027,blueberries,burrito,6.16,8.66,2.5,burrito,603.7000000476837,606,605.9000000357628,True,i,15255.700000047684,1107.7000000476837,1669830533135,1108,HRV,HRV_0095,2022-11-30 17:53:14
5,"[{'imgObject': {}, 'id': 'cocktailshrimp', 'src': '/static/foodstim60/cocktailshrimp.jpg', 'key': 'u', 'origWidth': 410, 'origHeight': 410, 'width': 410, 'height': 410, 'widthPercent': 0.45, 'rescaleHeight': False, 'trialN': 5, 'loaded': True, 'loadedTime': 8348.300000011921, 'positionName': 'LEFT', 'positionCoords': [281.2, 245], 'bid': 0.26}, {'imgObject': {}, 'id': 'olives', 'src': '/static/foodstim60/olives.jpg', 'key': 'i', 'origWidth': 410, 'origHeight': 410, 'width': 410, 'height': 410, 'widthPercent': 0.45, 'rescaleHeight': False, 'trialN': 5, 'loaded': True, 'loadedTime': 8354.300000011921, 'positionName': 'RIGHT', 'positionCoords': [748.8, 245], 'bid': 0.18}]",15255.900000035763,1669830533135,cocktailshrimp,olives,0.26,0.18,-0.08000000000000002,cocktailshrimp,1678.3999999761581,1681,1681.3999999761581,True,u,17439.600000023842,2183.699999988079,1669830535319,2184,HRV,HRV_0095,2022-11-30 17:53:14
6,"[{'imgObject': {}, 'id': 'mac & cheese', 'src': '/static/foodstim60/mac & cheese.jpg', 'key': 'u', 'origWidth': 410, 'origHeight': 410, 'width': 410, 'height': 410, 'widthPercent': 0.45, 'rescaleHeight': False, 'trialN': 6, 'loaded': True, 'loadedTime': 8354.800000011921, 'positionName': 'LEFT', 'positionCoords': [281.2, 245], 'bid': 5.37}, {'imgObject': {}, 'id': 'omelette', 'src': '/static/foodstim60/omelette.jpg', 'key': 'i', 'origWidth': 410, 'origHeight': 409, 'width': 410, 'height': 409, 'widthPercent': 0.45, 'rescaleHeight': False, 'trialN': 6, 'loaded': True, 'loadedTime': 8356.300000011921, 'positionName': 'RIGHT', 'positionCoords': [748.8, 245.5], 'bid': 5.41}]",17439.80000001192,1669830535319,mac & cheese,omelette,5.37,5.41,0.040000000000000036,omelette,937.0,939,939.4000000357628,True,i,18880.0,1440.199999988079,1669830536759,1440,HRV,HRV_0095,2022-11-30 17:53:14
7,"[{'imgObject': {}, 'id': 'veggieswithdip', 'src': '/static/foodstim60/veggieswithdip.jpg', 'key': 'u', 'origWidth': 409, 'origHeight': 409, 'width': 409, 'height': 409, 'widthPercent': 0.45, 'rescaleHeight': False, 'trialN': 7, 'loaded': True, 'loadedTime': 8357, 'positionName': 'LEFT', 'positionCoords': [282.2, 245.5], 'bid': 3.08}, {'imgObject': {}, 'id': 'cantaloupe', 'src': '/static/foodstim60/cantaloupe.jpg', 'key': 'i', 'origWidth': 409, 'origHeight': 409, 'width': 409, 'height': 409, 'widthPercent': 0.45, 'rescaleHeight': False, 'trialN': 7, 'loaded': True, 'loadedTime': 8358.600000023842, 'positionName': 'RIGHT', 'positionCoords': [748.8, 245.5], 'bid': 1.16}]",18880.400000035763,1669830536759,veggieswithdip,cantaloupe,3.08,1.16,-1.9200000000000002,veggieswithdip,920.0999999642372,923,922.6999999880791,True,u,20303.700000047684,1423.300000011921,1669830538183,1424,HRV,HRV_0095,2022-11-30 17:53:14
8,"[{'imgObject': {}, 'id': 'sweetpotato', 'src': '/static/foodstim60/sweetpotato.jpg', 'key': 'u', 'origWidth': 410, 'origHeight': 410, 'width': 410, 'height': 410, 'widthPercent': 0.45, 'rescaleHeight': False, 'trialN': 8, 'loaded': True, 'loadedTime': 8372.400000035763, 'positionName': 'LEFT', 'positionCoords': [281.2, 245], 'bid': 5.72}, {'imgObject': {}, 'id': 'strawberries', 'src': '/static/foodstim60/strawberries.jpg', 'key': 'i', 'origWidth': 410, 'origHeight': 410, 'width': 410, 'height': 410, 'widthPercent': 0.45, 'rescaleHeight': False, 'trialN': 8, 'loaded': True, 'loadedTime': 8374.100000023842, 'positionName': 'RIGHT', 'positionCoords': [748.8, 245], 'bid': 5.91}]",20303.900000035763,1669830538183,sweetpotato,strawberries,5.72,5.91,0.1900000000000004,sweetpotato,811.6999999880791,814,814.3000000119209,True,u,21619.80000001192,1315.8999999761581,1669830539499,1316,HRV,HRV_0095,2022-11-30 17:53:14
9,"[{'imgObject': {}, 'id': 'seaweed', 'src': '/static/foodstim60/seaweed.jpg', 'key': 'u', 'origWidth': 410, 'origHeight': 410, 'width': 410, 'height': 410, 'widthPercent': 0.45, 'rescaleHeight': False, 'trialN': 9, 'loaded': True, 'loadedTime': 8393.400000035763, 'positionName': 'LEFT', 'positionCoords': [281.2, 245], 'bid': 0.15}, {'imgObject': {}, 'id': 'avocado', 'src': '/static/foodstim60/avocado.jpg', 'key': 'i', 'origWidth': 409, 'origHeight': 409, 'width': 409, 'height': 409, 'widthPercent': 0.45, 'rescaleHeight': False, 'trialN': 9, 'loaded': True, 'loadedTime': 8340, 'positionName': 'RIGHT', 'positionCoords': [748.8, 245.5], 'bid': 0.75}]",21620.200000047684,1669830539499,seaweed,avocado,0.15,0.75,0.6,avocado,846.2999999523163,848,848.1999999880791,True,i,22971.80000001192,1351.5999999642372,1669830540851,1352,HRV,HRV_0095,2022-11-30 17:53:14
10,"[{'imgObject': {}, 'id': 'bagel and cc', 'src': '/static/foodstim60/bagel and cc.jpg', 'key': 'u', 'origWidth': 410, 'origHeight': 410, 'width': 410, 'height': 410, 'widthPercent': 0.45, 'rescaleHeight': False, 'trialN': 10, 'loaded': True, 'loadedTime': 8410, 'positionName': 'LEFT', 'positionCoords': [281.2, 245], 'bid': 6.08}, {'imgObject': {}, 'id': 'rigatoni and sauce', 'src': '/static/foodstim60/rigatoni and sauce.jpg', 'key': 'i', 'origWidth': 410, 'origHeight': 411, 'width': 410, 'height': 411, 'widthPercent': 0.45, 'rescaleHeight': False, 'trialN': 10, 'loaded': True, 'loadedTime': 8431.800000011921, 'positionName': 'RIGHT', 'positionCoords': [748.8, 244.5], 'bid': 6.09}]",22972.200000047684,1669830540851,bagel and cc,rigatoni and sauce,6.08,6.09,0.009999999999999787,rigatoni and sauce,987.5999999642372,990,990.1999999880791,True,i,24463.600000023842,1491.3999999761581,1669830542342,1491,HRV,HRV_0095,2022-11-30 17:53:14
11,"[{'imgObject': {}, 'id': 'eggs', 'src': '/static/foodstim60/eggs.jpg', 'key': 'u', 'origWidth': 409, 'origHeight': 409, 'width': 409, 'height': 409, 'widthPercent': 0.45, 'rescaleHeight': False, 'trialN': 11, 'loaded': True, 'loadedTime': 8433.400000035763, 'positionName': 'LEFT', 'positionCoords': [282.2, 245.5], 'bid': 8.38}, {'imgObject': {}, 'id': 'salad w chicken', 'src': '/static/foodstim60/salad w chicken.jpg', 'key': 'i', 'origWidth': 411, 'origHeight': 411, 'width': 411, 'height': 411, 'widthPercent': 0.45, 'rescaleHeight': False, 'trialN': 11, 'loaded': True, 'loadedTime': 8463.400000035763, 'positionName': 'RIGHT', 'positionCoords': [748.8, 244.5], 'bid': 7.58}]",24463.700000047684,1669830542343,eggs,salad w chicken,8.38,7.58,-0.8000000000000007,salad w chicken,879.0999999642372,881,881.5,True,i,25847.80000001192,1384.0999999642372,1669830543727,1384,HRV,HRV_0095,2022-11-30 17:53:14
12,"[{'imgObject': {}, 'id': 'burrito', 'src': '/static/foodstim60/burrito.jpg', 'key': 'u', 'origWidth': 410, 'origHeight': 410, 'width': 410, 'height': 410, 'widthPercent': 0.45, 'rescaleHeight': False, 'trialN': 12, 'loaded': True, 'loadedTime': 8347.300000011921, 'positionName': 'LEFT', 'positionCoords': [281.2, 245], 'bid': 8.66}, {'imgObject': {}, 'id': 'chickenfingers', 'src': '/static/foodstim60/chickenfingers.jpg', 'key': 'i', 'origWidth': 410, 'origHeight': 410, 'width': 410, 'height': 410, 'widthPercent': 0.45, 'rescaleHeight': False, 'trialN': 12, 'loaded': True, 'loadedTime': 8463.400000035763, 'positionName': 'RIGHT', 'positionCoords': [748.8, 245], 'bid': 9.2}]",25848.200000047684,1669830543727,burrito,chickenfingers,8.66,9.2,0.5399999999999991,burrito,955.5,958,958.0,True,u,27307.700000047684,1459.5,1669830545186,1459,HRV,HRV_0095,2022-11-30 17:53:14
13,"[{'imgObject': {}, 'id': 'kiwi', 'src': '/static/foodstim60/kiwi.jpg', 'key': 'u', 'origWidth': 410, 'origHeight': 410, 'width': 410, 'height': 410, 'widthPercent': 0.45, 'rescaleHeight': False, 'trialN': 13, 'loaded': True, 'loadedTime': 8476.900000035763, 'positionName': 'LEFT', 'positionCoords': [281.2, 245], 'bid': 0.37}, {'imgObject': {}, 'id': 'steak', 'src': '/static/foodstim60/steak.jpg', 'key': 'i', 'origWidth': 410, 'origHeight': 410, 'width': 410, 'height': 410, 'widthPercent': 0.45, 'rescaleHeight': False, 'trialN': 13, 'loaded': True, 'loadedTime': 8490.600000023842, 'positionName': 'RIGHT', 'positionCoords': [748.8, 245], 'bid': 0.84}]",27308.0,1669830545187,kiwi,steak,0.37,0.84,0.47,steak,1551.800000011921,1555,1554.9000000357628,True,i,29363.5,2055.5,1669830547242,2055,HRV,HRV_0095,2022-11-30 17:53:14
14,"[{'imgObject': {}, 'id': 'yogurt no spoon', 'src': '/static/foodstim60/yogurt no spoon.jpg', 'key': 'u', 'origWidth': 411, 'origHeight': 410, 'width': 411, 'height': 410, 'widthPercent': 0.45, 'rescaleHeight': False, 'trialN': 14, 'loaded': True, 'loadedTime': 8490.800000011921, 'positionName': 'LEFT', 'positionCoords': [280.2, 245], 'bid': 5.62}, {'imgObject': {}, 'id': 'sweetpotato', 'src': '/static/foodstim60/sweetpotato.jpg', 'key': 'i', 'origWidth': 410, 'origHeight': 410, 'width': 410, 'height': 410, 'widthPercent': 0.45, 'rescaleHeight': False, 'trialN': 14, 'loaded': True, 'loadedTime': 8360, 'positionName': 'RIGHT', 'positionCoords': [748.8, 245], 'bid': 5.72}]",29363.80000001192,1669830547242,yogurt no spoon,sweetpotato,5.62,5.72,0.09999999999999964,yogurt no spoon,907.6999999880791,909,908.8000000119209,True,u,30775.80000001192,1412.0,1669830548654,1412,HRV,HRV_0095,2022-11-30 17:53:14
15,"[{'imgObject': {}, 'id': 'olives', 'src': '/static/foodstim60/olives.jpg', 'key': 'u', 'origWidth': 410, 'origHeight': 410, 'width': 410, 'height': 410, 'widthPercent': 0.45, 'rescaleHeight': False, 'trialN': 15, 'loaded': True, 'loadedTime': 8354.600000023842, 'positionName': 'LEFT', 'positionCoords': [281.2, 245], 'bid': 0.18}, {'imgObject': {}, 'id': 'blackbeanswithrice', 'src': '/static/foodstim60/blackbeanswithrice.jpg', 'key': 'i', 'origWidth': 410, 'origHeight': 410, 'width': 410, 'height': 410, 'widthPercent': 0.45, 'rescaleHeight': False, 'trialN': 15, 'loaded': True, 'loadedTime': 8503.700000047684, 'positionName': 'RIGHT', 'positionCoords': [748.8, 245], 'bid': 0.2}]",30776.200000047684,1669830548655,olives,blackbeanswithrice,0.18,0.2,0.020000000000000018,blackbeanswithrice,1450.5999999642372,1453,1452.8999999761581,True,i,32731.900000035763,1955.699999988079,1669830550610,1955,HRV,HRV_0095,2022-11-30 17:53:14
16,"[{'imgObject': {}, 'id': 'fried eggs', 'src': '/static/foodstim60/fried eggs.jpg', 'key': 'u', 'origWidth': 410, 'origHeight': 410, 'width': 410, 'height': 410, 'widthPercent': 0.45, 'rescaleHeight': False, 'trialN': 16, 'loaded': True, 'loadedTime': 8518.300000011921, 'positionName': 'LEFT', 'positionCoords': [281.2, 245], 'bid': 7.68}, {'imgObject': {}, 'id': 'cantaloupe', 'src': '/static/foodstim60/cantaloupe.jpg', 'key': 'i', 'origWidth': 409, 'origHeight': 409, 'width': 409, 'height': 409, 'widthPercent': 0.45, 'rescaleHeight': False, 'trialN': 16, 'loaded': True, 'loadedTime': 8358.800000011921, 'positionName': 'RIGHT', 'positionCoords': [748.8, 245.5], 'bid': 1.16}]",32732.200000047684,1669830550611,fried eggs,cantaloupe,7.68,1.16,-6.52,fried eggs,824.3999999761581,827,827.0999999642372,True,u,34063.80000001192,1331.5999999642372,1669830551942,1331,HRV,HRV_0095,2022-11-30 17:53:14
17,"[{'imgObject': {}, 'id': 'mango', 'src': '/static/foodstim60/mango.jpg', 'key': 'u', 'origWidth': 411, 'origHeight': 411, 'width': 411, 'height': 411, 'widthPercent': 0.45, 'rescaleHeight': False, 'trialN': 17, 'loaded': True, 'loadedTime': 8523.200000047684, 'positionName': 'LEFT', 'positionCoords': [280.2, 244.5], 'bid': 4.45}, {'imgObject': {}, 'id': 'salmon', 'src': '/static/foodstim60/salmon.jpg', 'key': 'i', 'origWidth': 410, 'origHeight': 409, 'width': 410, 'height': 409, 'widthPercent': 0.45, 'rescaleHeight': False, 'trialN': 17, 'loaded': True, 'loadedTime': 8524.700000047684, 'positionName': 'RIGHT', 'positionCoords': [748.8, 245.5], 'bid': 4.2}]",34064.10000002384,1669830551942,mango,salmon,4.45,4.2,-0.25,mango,1746.699999988079,1750,1749.199999988079,True,u,36315.80000001192,2251.699999988079,1669830554194,2252,HRV,HRV_0095,2022-11-30 17:53:14
18,"[{'imgObject': {}, 'id': 'omelette', 'src': '/static/foodstim60/omelette.jpg', 'key': 'u', 'origWidth': 410, 'origHeight': 409, 'width': 410, 'height': 409, 'widthPercent': 0.45, 'rescaleHeight': False, 'trialN': 18, 'loaded': True, 'loadedTime': 8356.800000011921, 'positionName': 'LEFT', 'positionCoords': [281.2, 245.5], 'bid': 5.41}, {'imgObject': {}, 'id': 'strawberries', 'src': '/static/foodstim60/strawberries.jpg', 'key': 'i', 'origWidth': 410, 'origHeight': 410, 'width': 410, 'height': 410, 'widthPercent': 0.45, 'rescaleHeight': False, 'trialN': 18, 'loaded': True, 'loadedTime': 8374.100000023842, 'positionName': 'RIGHT', 'positionCoords': [748.8, 245], 'bid': 5.91}]",36316.0,1669830554194,omelette,strawberries,5.41,5.91,0.5,omelette,884.7000000476837,887,887.1000000238419,True,u,37703.80000001192,1387.800000011921,1669830555582,1388,HRV,HRV_0095,2022-11-30 17:53:14
19,"[{'imgObject': {}, 'id': 'bagel and cc', 'src': '/static/foodstim60/bagel and cc.jpg', 'key': 'u', 'origWidth': 410, 'origHeight': 410, 'width': 410, 'height': 410, 'widthPercent': 0.45, 'rescaleHeight': False, 'trialN': 19, 'loaded': True, 'loadedTime': 8410.900000035763, 'positionName': 'LEFT', 'positionCoords': [281.2, 245], 'bid': 6.08}, {'imgObject': {}, 'id': 'blueberries', 'src': '/static/foodstim60/blueberries.jpg', 'key': 'i', 'origWidth': 411, 'origHeight': 411, 'width': 411, 'height': 411, 'widthPercent': 0.45, 'rescaleHeight': False, 'trialN': 19, 'loaded': True, 'loadedTime': 8345, 'positionName': 'RIGHT', 'positionCoords': [748.8, 244.5], 'bid': 6.16}]",37704.10000002384,1669830555582,bagel and cc,blueberries,6.08,6.16,0.08000000000000007,bagel and cc,1107.699999988079,1110,1110.1000000238419,True,u,39315.90000003576,1611.800000011921,1669830557194,1612,HRV,HRV_0095,2022-11-30 17:53:14
20,"[{'imgObject': {}, 'id': 'raisin bran w milk', 'src': '/static/foodstim60/raisin bran w milk.jpg', 'key': 'u', 'origWidth': 411, 'origHeight': 411, 'width': 411, 'height': 411, 'widthPercent': 0.45, 'rescaleHeight': False, 'trialN': 20, 'loaded': True, 'loadedTime': 8525, 'positionName': 'LEFT', 'positionCoords': [280.2, 244.5], 'bid': 0.2}, {'imgObject': {}, 'id': 'hashbrowns', 'src': '/static/foodstim60/hashbrowns.jpg', 'key': 'i', 'origWidth': 411, 'origHeight': 410, 'width': 411, 'height': 410, 'widthPercent': 0.45, 'rescaleHeight': False, 'trialN': 20, 'loaded': True, 'loadedTime': 8531.400000035763, 'positionName': 'RIGHT', 'positionCoords': [748.8, 245], 'bid': 0.25}]",39316.200000047684,1669830557194,raisin bran w milk,hashbrowns,0.2,0.25,0.04999999999999999,hashbrowns,1883.5999999642372,1887,1886.699999988079,True,i,41703.80000001192,2387.599999964237,1669830559582,2388,HRV,HRV_0095,2022-11-30 17:53:14
21,"[{'imgObject': {}, 'id': 'mango', 'src': '/static/foodstim60/mango.jpg', 'key': 'u', 'origWidth': 411, 'origHeight': 411, 'width': 411, 'height': 411, 'widthPercent': 0.45, 'rescaleHeight': False, 'trialN': 21, 'loaded': True, 'loadedTime': 8523.100000023842, 'positionName': 'LEFT', 'positionCoords': [280.2, 244.5], 'bid': 4.45}, {'imgObject': {}, 'id': 'Grapes', 'src': '/static/foodstim60/Grapes.jpg', 'key': 'i', 'origWidth': 411, 'origHeight': 411, 'width': 411, 'height': 411, 'widthPercent': 0.45, 'rescaleHeight': False, 'trialN': 21, 'loaded': True, 'loadedTime': 8532.300000011921, 'positionName': 'RIGHT', 'positionCoords': [748.8, 244.5], 'bid': 3.93}]",41704.0,1669830559582,mango,Grapes,4.45,3.93,-0.52,Grapes,983.1000000238419,985,984.7000000476837,True,i,43191.80000001192,1487.800000011921,1669830561070,1488,HRV,HRV_0095,2022-11-30 17:53:14
22,"[{'imgObject': {}, 'id': 'veggieswithdip', 'src': '/static/foodstim60/veggieswithdip.jpg', 'key': 'u', 'origWidth': 409, 'origHeight': 409, 'width': 409, 'height': 409, 'widthPercent': 0.45, 'rescaleHeight': False, 'trialN': 22, 'loaded': True, 'loadedTime': 8357.800000011921, 'positionName': 'LEFT', 'positionCoords': [282.2, 245.5], 'bid': 3.08}, {'imgObject': {}, 'id': 'rigatoni', 'src': '/static/foodstim60/rigatoni.jpg', 'key': 'i', 'origWidth': 411, 'origHeight': 411, 'width': 411, 'height': 411, 'widthPercent': 0.45, 'rescaleHeight': False, 'trialN': 22, 'loaded': True, 'loadedTime': 8539.400000035763, 'positionName': 'RIGHT', 'positionCoords': [748.8, 244.5], 'bid': 3.69}]",43192.10000002384,1669830561070,veggieswithdip,rigatoni,3.08,3.69,0.6099999999999999,veggieswithdip,776.6999999880791,779,779.1999999880791,True,u,44471.80000001192,1279.699999988079,1669830562350,1280,HRV,HRV_0095,2022-11-30 17:53:14
23,"[{'imgObject': {}, 'id': 'salad w chicken', 'src': '/static/foodstim60/salad w chicken.jpg', 'key': 'u', 'origWidth': 411, 'origHeight': 411, 'width': 411, 'height': 411, 'widthPercent': 0.45, 'rescaleHeight': False, 'trialN': 23, 'loaded': True, 'loadedTime': 8450.300000011921, 'positionName': 'LEFT', 'positionCoords': [280.2, 244.5], 'bid': 7.58}, {'imgObject': {}, 'id': 'mashed potato', 'src': '/static/foodstim60/mashed potato.jpg', 'key': 'i', 'origWidth': 409, 'origHeight': 409, 'width': 409, 'height': 409, 'widthPercent': 0.45, 'rescaleHeight': False, 'trialN': 23, 'loaded': True, 'loadedTime': 8554.100000023842, 'positionName': 'RIGHT', 'positionCoords': [748.8, 245.5], 'bid': 6.75}]",44472.0,1669830562350,salad w chicken,mashed potato,7.58,6.75,-0.8300000000000001,salad w chicken,756.0,758,758.4000000357628,True,u,45731.80000001192,1259.800000011921,1669830563610,1260,HRV,HRV_0095,2022-11-30 17:53:14
24,"[{'imgObject': {}, 'id': 'omelette', 'src': '/static/foodstim60/omelette.jpg', 'key': 'u', 'origWidth': 410, 'origHeight': 409, 'width': 410, 'height': 409, 'widthPercent': 0.45, 'rescaleHeight': False, 'trialN': 24, 'loaded': True, 'loadedTime': 8356.800000011921, 'positionName': 'LEFT', 'positionCoords': [281.2, 245.5], 'bid': 5.41}, {'imgObject': {}, 'id': 'grilled chicken strips', 'src': '/static/foodstim60/grilled chicken strips.jpg', 'key': 'i', 'origWidth': 410, 'origHeight': 411, 'width': 410, 'height': 411, 'widthPercent': 0.45, 'rescaleHeight': False, 'trialN': 24, 'loaded': True, 'loadedTime': 8554.800000011921, 'positionName': 'RIGHT', 'positionCoords': [748.8, 244.5], 'bid': 5.62}]",45732.10000002384,1669830563610,omelette,grilled chicken strips,5.41,5.62,0.20999999999999996,omelette,770.0,772,772.3999999761581,True,u,47007.90000003576,1275.800000011921,1669830564886,1276,HRV,HRV_0095,2022-11-30 17:53:14
25,"[{'imgObject': {}, 'id': 'pear', 'src': '/static/foodstim60/pear.jpg', 'key': 'u', 'origWidth': 411, 'origHeight': 410, 'width': 411, 'height': 410, 'widthPercent': 0.45, 'rescaleHeight': False, 'trialN': 25, 'loaded': True, 'loadedTime': 8555.5, 'positionName': 'LEFT', 'positionCoords': [280.2, 245], 'bid': 0.15}, {'imgObject': {}, 'id': 'olives', 'src': '/static/foodstim60/olives.jpg', 'key': 'i', 'origWidth': 410, 'origHeight': 410, 'width': 410, 'height': 410, 'widthPercent': 0.45, 'rescaleHeight': False, 'trialN': 25, 'loaded': True, 'loadedTime': 8353, 'positionName': 'RIGHT', 'positionCoords': [748.8, 245], 'bid': 0.18}]",47008.10000002384,1669830564886,pear,olives,0.15,0.18,0.03,olives,780.6000000238419,783,783.1000000238419,True,i,48291.700000047684,1283.6000000238419,1669830566170,1284,HRV,HRV_0095,2022-11-30 17:53:14
26,"[{'imgObject': {}, 'id': 'cheerios', 'src': '/static/foodstim60/cheerios.jpg', 'key': 'u', 'origWidth': 409, 'origHeight': 410, 'width': 409, 'height': 410, 'widthPercent': 0.45, 'rescaleHeight': False, 'trialN': 26, 'loaded': True, 'loadedTime': 8569.5, 'positionName': 'LEFT', 'positionCoords': [282.2, 245], 'bid': 0.25}, {'imgObject': {}, 'id': 'hotdog w must', 'src': '/static/foodstim60/hotdog w must.jpg', 'key': 'i', 'origWidth': 409, 'origHeight': 409, 'width': 409, 'height': 409, 'widthPercent': 0.45, 'rescaleHeight': False, 'trialN': 26, 'loaded': True, 'loadedTime': 8568.100000023842, 'positionName': 'RIGHT', 'positionCoords': [748.8, 245.5], 'bid': 1.86}]",48292.0,1669830566170,cheerios,hotdog w must,0.25,1.86,1.61,hotdog w must,1112.1000000238419,1115,1114.800000011921,True,i,49907.80000001192,1615.800000011921,1669830567786,1616,HRV,HRV_0095,2022-11-30 17:53:14
27,"[{'imgObject': {}, 'id': 'Grapes', 'src': '/static/foodstim60/Grapes.jpg', 'key': 'u', 'origWidth': 411, 'origHeight': 411, 'width': 411, 'height': 411, 'widthPercent': 0.45, 'rescaleHeight': False, 'trialN': 27, 'loaded': True, 'loadedTime': 8538.400000035763, 'positionName': 'LEFT', 'positionCoords': [280.2, 244.5], 'bid': 3.93}, {'imgObject': {}, 'id': 'mashed potato', 'src': '/static/foodstim60/mashed potato.jpg', 'key': 'i', 'origWidth': 409, 'origHeight': 409, 'width': 409, 'height': 409, 'widthPercent': 0.45, 'rescaleHeight': False, 'trialN': 27, 'loaded': True, 'loadedTime': 8553.900000035763, 'positionName': 'RIGHT', 'positionCoords': [748.8, 245.5], 'bid': 6.75}]",49908.200000047684,1669830567786,Grapes,mashed potato,3.93,6.75,2.82,mashed potato,732.6999999880791,735,735.0999999642372,True,i,51147.5,1239.2999999523163,1669830569025,1239,HRV,HRV_0095,2022-11-30 17:53:14
28,"[{'imgObject': {}, 'id': 'Tribe humus pita', 'src': '/static/foodstim60/Tribe humus pita.jpg', 'key': 'u', 'origWidth': 411, 'origHeight': 411, 'width': 411, 'height': 411, 'widthPercent': 0.45, 'rescaleHeight': False, 'trialN': 28, 'loaded': True, 'loadedTime': 8581.700000047684, 'positionName': 'LEFT', 'positionCoords': [280.2, 244.5], 'bid': 2.37}, {'imgObject': {}, 'id': 'Grapes', 'src': '/static/foodstim60/Grapes.jpg', 'key': 'i', 'origWidth': 411, 'origHeight': 411, 'width': 411, 'height': 411, 'widthPercent': 0.45, 'rescaleHeight': False, 'trialN': 28, 'loaded': True, 'loadedTime': 8532.300000011921, 'positionName': 'RIGHT', 'positionCoords': [748.8, 244.5], 'bid': 3.93}]",51147.90000003576,1669830569026,Tribe humus pita,Grapes,2.37,3.93,1.56,Grapes,1880.8999999761581,1884,1884.0999999642372,True,i,53535.80000001192,2387.899999976158,1669830571413,2387,HRV,HRV_0095,2022-11-30 17:53:14
29,"[{'imgObject': {}, 'id': 'ice cream sundae 002', 'src': '/static/foodstim60/ice cream sundae 002.jpg', 'key': 'u', 'origWidth': 409, 'origHeight': 409, 'width': 409, 'height': 409, 'widthPercent': 0.45, 'rescaleHeight': False, 'trialN': 29, 'loaded': True, 'loadedTime': 8594.700000047684, 'positionName': 'LEFT', 'positionCoords': [282.2, 245.5], 'bid': 7.9}, {'imgObject': {}, 'id': 'chickenfingers', 'src': '/static/foodstim60/chickenfingers.jpg', 'key': 'i', 'origWidth': 410, 'origHeight': 410, 'width': 410, 'height': 410, 'widthPercent': 0.45, 'rescaleHeight': False, 'trialN': 29, 'loaded': True, 'loadedTime': 8464.100000023842, 'positionName': 'RIGHT', 'positionCoords': [748.8, 245], 'bid': 9.2}]",53536.10000002384,1669830571414,ice cream sundae 002,chickenfingers,7.9,9.2,1.299999999999999,chickenfingers,654.3999999761581,657,656.8000000119209,True,i,54697.700000047684,1161.6000000238419,1669830572575,1161,HRV,HRV_0095,2022-11-30 17:53:14
30,"[{'imgObject': {}, 'id': 'apple slices', 'src': '/static/foodstim60/apple slices.jpg', 'key': 'u', 'origWidth': 409, 'origHeight': 410, 'width': 409, 'height': 410, 'widthPercent': 0.45, 'rescaleHeight': False, 'trialN': 30, 'loaded': True, 'loadedTime': 8608.800000011921, 'positionName': 'LEFT', 'positionCoords': [282.2, 245], 'bid': 1.81}, {'imgObject': {}, 'id': 'turkey sandwich', 'src': '/static/foodstim60/turkey sandwich.jpg', 'key': 'i', 'origWidth': 409, 'origHeight': 409, 'width': 409, 'height': 409, 'widthPercent': 0.45, 'rescaleHeight': False, 'trialN': 30, 'loaded': True, 'loadedTime': 8609.400000035763, 'positionName': 'RIGHT', 'positionCoords': [748.8, 245.5], 'bid': 8.16}]",54697.90000003576,1669830572576,apple slices,turkey sandwich,1.81,8.16,6.35,turkey sandwich,833.3000000119209,834,834.5,True,i,56035.80000001192,1337.8999999761581,1669830573913,1337,HRV,HRV_0095,2022-11-30 17:53:14
31,"[{'imgObject': {}, 'id': 'kiwi', 'src': '/static/foodstim60/kiwi.jpg', 'key': 'u', 'origWidth': 410, 'origHeight': 410, 'width': 410, 'height': 410, 'widthPercent': 0.45, 'rescaleHeight': False, 'trialN': 31, 'loaded': True, 'loadedTime': 8476.800000011921, 'positionName': 'LEFT', 'positionCoords': [281.2, 245], 'bid': 0.37}, {'imgObject': {}, 'id': 'sushi w_condiments', 'src': '/static/foodstim60/sushi w_condiments.jpg', 'key': 'i', 'origWidth': 410, 'origHeight': 410, 'width': 410, 'height': 410, 'widthPercent': 0.45, 'rescaleHeight': False, 'trialN': 31, 'loaded': True, 'loadedTime': 8332.900000035763, 'positionName': 'RIGHT', 'positionCoords': [748.8, 245], 'bid': 0.27}]",56036.10000002384,1669830573914,kiwi,sushi w_condiments,0.37,0.27,-0.09999999999999998,kiwi,786.8000000119209,789,789.0,True,u,57327.90000003576,1291.800000011921,1669830575205,1291,HRV,HRV_0095,2022-11-30 17:53:14
32,"[{'imgObject': {}, 'id': 'baked potato', 'src': '/static/foodstim60/baked potato.jpg', 'key': 'u', 'origWidth': 409, 'origHeight': 410, 'width': 409, 'height': 410, 'widthPercent': 0.45, 'rescaleHeight': False, 'trialN': 32, 'loaded': True, 'loadedTime': 8623.200000047684, 'positionName': 'LEFT', 'positionCoords': [282.2, 245], 'bid': 7.88}, {'imgObject': {}, 'id': 'orange slices', 'src': '/static/foodstim60/orange slices.jpg', 'key': 'i', 'origWidth': 409, 'origHeight': 410, 'width': 409, 'height': 410, 'widthPercent': 0.45, 'rescaleHeight': False, 'trialN': 32, 'loaded': True, 'loadedTime': 8595.600000023842, 'positionName': 'RIGHT', 'positionCoords': [748.8, 245], 'bid': 1.18}]",57328.10000002384,1669830575206,baked potato,orange slices,7.88,1.18,-6.7,baked potato,849.6999999880791,852,852.1999999880791,True,u,58683.80000001192,1355.699999988079,1669830576561,1355,HRV,HRV_0095,2022-11-30 17:53:14
33,"[{'imgObject': {}, 'id': 'banana', 'src': '/static/foodstim60/banana.jpg', 'key': 'u', 'origWidth': 410, 'origHeight': 410, 'width': 410, 'height': 410, 'widthPercent': 0.45, 'rescaleHeight': False, 'trialN': 33, 'loaded': True, 'loadedTime': 8609.300000011921, 'positionName': 'LEFT', 'positionCoords': [281.2, 245], 'bid': 1.87}, {'imgObject': {}, 'id': 'burrito', 'src': '/static/foodstim60/burrito.jpg', 'key': 'i', 'origWidth': 410, 'origHeight': 410, 'width': 410, 'height': 410, 'widthPercent': 0.45, 'rescaleHeight': False, 'trialN': 33, 'loaded': True, 'loadedTime': 8347.300000011921, 'positionName': 'RIGHT', 'positionCoords': [748.8, 245], 'bid': 8.66}]",58684.0,1669830576562,banana,burrito,1.87,8.66,6.79,burrito,779.4000000357628,781,781.5,True,i,59967.80000001192,1283.800000011921,1669830577845,1283,HRV,HRV_0095,2022-11-30 17:53:14
34,"[{'imgObject': {}, 'id': 'burger', 'src': '/static/foodstim60/burger.jpg', 'key': 'u', 'origWidth': 409, 'origHeight': 409, 'width': 409, 'height': 409, 'widthPercent': 0.45, 'rescaleHeight': False, 'trialN': 34, 'loaded': True, 'loadedTime': 8623.700000047684, 'positionName': 'LEFT', 'positionCoords': [282.2, 245.5], 'bid': 6.69}, {'imgObject': {}, 'id': 'rigatoni and sauce', 'src': '/static/foodstim60/rigatoni and sauce.jpg', 'key': 'i', 'origWidth': 410, 'origHeight': 411, 'width': 410, 'height': 411, 'widthPercent': 0.45, 'rescaleHeight': False, 'trialN': 34, 'loaded': True, 'loadedTime': 8431.300000011921, 'positionName': 'RIGHT', 'positionCoords': [748.8, 244.5], 'bid': 6.09}]",59968.10000002384,1669830577846,burger,rigatoni and sauce,6.69,6.09,-0.6000000000000005,rigatoni and sauce,962.8000000119209,965,965.1999999880791,True,i,61436.0,1467.8999999761581,1669830579313,1467,HRV,HRV_0095,2022-11-30 17:53:14
35,"[{'imgObject': {}, 'id': 'eggs', 'src': '/static/foodstim60/eggs.jpg', 'key': 'u', 'origWidth': 409, 'origHeight': 409, 'width': 409, 'height': 409, 'widthPercent': 0.45, 'rescaleHeight': False, 'trialN': 35, 'loaded': True, 'loadedTime': 8432.100000023842, 'positionName': 'LEFT', 'positionCoords': [282.2, 245.5], 'bid': 8.38}, {'imgObject': {}, 'id': 'roastedpotatoes', 'src': '/static/foodstim60/roastedpotatoes.jpg', 'key': 'i', 'origWidth': 409, 'origHeight': 410, 'width': 409, 'height': 410, 'widthPercent': 0.45, 'rescaleHeight': False, 'trialN': 35, 'loaded': True, 'loadedTime': 8636.5, 'positionName': 'RIGHT', 'positionCoords': [748.8, 245], 'bid': 1.86}]",61436.200000047684,1669830579314,eggs,roastedpotatoes,8.38,1.86,-6.5200000000000005,roastedpotatoes,1323.2999999523163,1324,1324.5999999642372,True,i,63264.700000047684,1828.5,1669830581142,1828,HRV,HRV_0095,2022-11-30 17:53:14
36,"[{'imgObject': {}, 'id': 'turkey sandwich', 'src': '/static/foodstim60/turkey sandwich.jpg', 'key': 'u', 'origWidth': 409, 'origHeight': 409, 'width': 409, 'height': 409, 'widthPercent': 0.45, 'rescaleHeight': False, 'trialN': 36, 'loaded': True, 'loadedTime': 8609.800000011921, 'positionName': 'LEFT', 'positionCoords': [282.2, 245.5], 'bid': 8.16}, {'imgObject': {}, 'id': 'strawberries', 'src': '/static/foodstim60/strawberries.jpg', 'key': 'i', 'origWidth': 410, 'origHeight': 410, 'width': 410, 'height': 410, 'widthPercent': 0.45, 'rescaleHeight': False, 'trialN': 36, 'loaded': True, 'loadedTime': 8372.700000047684, 'positionName': 'RIGHT', 'positionCoords': [748.8, 245], 'bid': 5.91}]",63265.0,1669830581142,turkey sandwich,strawberries,8.16,5.91,-2.25,turkey sandwich,867.0,871,870.3000000119209,True,u,64635.90000003576,1370.9000000357628,1669830582513,1371,HRV,HRV_0095,2022-11-30 17:53:14
37,"[{'imgObject': {}, 'id': 'salad w chicken', 'src': '/static/foodstim60/salad w chicken.jpg', 'key': 'u', 'origWidth': 411, 'origHeight': 411, 'width': 411, 'height': 411, 'widthPercent': 0.45, 'rescaleHeight': False, 'trialN': 37, 'loaded': True, 'loadedTime': 8463.300000011921, 'positionName': 'LEFT', 'positionCoords': [280.2, 244.5], 'bid': 7.58}, {'imgObject': {}, 'id': 'baked potato', 'src': '/static/foodstim60/baked potato.jpg', 'key': 'i', 'origWidth': 409, 'origHeight': 410, 'width': 409, 'height': 410, 'widthPercent': 0.45, 'rescaleHeight': False, 'trialN': 37, 'loaded': True, 'loadedTime': 8623, 'positionName': 'RIGHT', 'positionCoords': [748.8, 245], 'bid': 7.88}]",64636.10000002384,1669830582513,salad w chicken,baked potato,7.58,7.88,0.2999999999999998,salad w chicken,651.8000000119209,655,654.1999999880791,True,u,65791.80000001192,1155.699999988079,1669830583669,1156,HRV,HRV_0095,2022-11-30 17:53:14
38,"[{'imgObject': {}, 'id': 'kiwi', 'src': '/static/foodstim60/kiwi.jpg', 'key': 'u', 'origWidth': 410, 'origHeight': 410, 'width': 410, 'height': 410, 'widthPercent': 0.45, 'rescaleHeight': False, 'trialN': 38, 'loaded': True, 'loadedTime': 8477, 'positionName': 'LEFT', 'positionCoords': [281.2, 245], 'bid': 0.37}, {'imgObject': {}, 'id': 'froot loops w milk', 'src': '/static/foodstim60/froot loops w milk.jpg', 'key': 'i', 'origWidth': 410, 'origHeight': 410, 'width': 410, 'height': 410, 'widthPercent': 0.45, 'rescaleHeight': False, 'trialN': 38, 'loaded': True, 'loadedTime': 8637.100000023842, 'positionName': 'RIGHT', 'positionCoords': [748.8, 245], 'bid': 0.41}]",65792.0,1669830583669,kiwi,froot loops w milk,0.37,0.41,0.03999999999999998,froot loops w milk,588.3000000119209,590,590.2000000476837,True,i,66883.80000001192,1091.800000011921,1669830584761,1092,HRV,HRV_0095,2022-11-30 17:53:14
39,"[{'imgObject': {}, 'id': 'grilled chicken strips', 'src': '/static/foodstim60/grilled chicken strips.jpg', 'key': 'u', 'origWidth': 410, 'origHeight': 411, 'width': 410, 'height': 411, 'widthPercent': 0.45, 'rescaleHeight': False, 'trialN': 39, 'loaded': True, 'loadedTime': 8554.800000011921, 'positionName': 'LEFT', 'positionCoords': [281.2, 244.5], 'bid': 5.62}, {'imgObject': {}, 'id': 'raspberries', 'src': '/static/foodstim60/raspberries.jpg', 'key': 'i', 'origWidth': 411, 'origHeight': 411, 'width': 411, 'height': 411, 'widthPercent': 0.45, 'rescaleHeight': False, 'trialN': 39, 'loaded': True, 'loadedTime': 8295.100000023842, 'positionName': 'RIGHT', 'positionCoords': [748.8, 244.5], 'bid': 2.94}]",66884.0,1669830584761,grilled chicken strips,raspberries,5.62,2.94,-2.68,grilled chicken strips,647.0,648,648.2000000476837,True,u,68035.90000003576,1151.9000000357628,1669830585913,1152,HRV,HRV_0095,2022-11-30 17:53:14
40,"[{'imgObject': {}, 'id': 'strawberries', 'src': '/static/foodstim60/strawberries.jpg', 'key': 'u', 'origWidth': 410, 'origHeight': 410, 'width': 410, 'height': 410, 'widthPercent': 0.45, 'rescaleHeight': False, 'trialN': 40, 'loaded': True, 'loadedTime': 8374.100000023842, 'positionName': 'LEFT', 'positionCoords': [281.2, 245], 'bid': 5.91}, {'imgObject': {}, 'id': 'kiwi', 'src': '/static/foodstim60/kiwi.jpg', 'key': 'i', 'origWidth': 410, 'origHeight': 410, 'width': 410, 'height': 410, 'widthPercent': 0.45, 'rescaleHeight': False, 'trialN': 40, 'loaded': True, 'loadedTime': 8477, 'positionName': 'RIGHT', 'positionCoords': [748.8, 245], 'bid': 0.37}]",68036.20000004768,1669830585913,strawberries,kiwi,5.91,0.37,-5.54,strawberries,677.8999999761581,681,680.5999999642372,True,u,69219.80000001192,1183.5999999642372,1669830587097,1184,HRV,HRV_0095,2022-11-30 17:53:14
41,"[{'imgObject': {}, 'id': 'blueberries', 'src': '/static/foodstim60/blueberries.jpg', 'key': 'u', 'origWidth': 411, 'origHeight': 411, 'width': 411, 'height': 411, 'widthPercent': 0.45, 'rescaleHeight': False, 'trialN': 41, 'loaded': True, 'loadedTime': 8345.600000023842, 'positionName': 'LEFT', 'positionCoords': [280.2, 244.5], 'bid': 6.16}, {'imgObject': {}, 'id': 'burger', 'src': '/static/foodstim60/burger.jpg', 'key': 'i', 'origWidth': 409, 'origHeight': 409, 'width': 409, 'height': 409, 'widthPercent': 0.45, 'rescaleHeight': False, 'trialN': 41, 'loaded': True, 'loadedTime': 8623.700000047684, 'positionName': 'RIGHT', 'positionCoords': [748.8, 245.5], 'bid': 6.69}]",69220.10000002384,1669830587097,blueberries,burger,6.16,6.69,0.5300000000000002,burger,820.6000000238419,823,823.0,True,i,70543.40000003576,1323.300000011921,1669830588421,1324,HRV,HRV_0095,2022-11-30 17:53:14
42,"[{'imgObject': {}, 'id': 'baked potato', 'src': '/static/foodstim60/baked potato.jpg', 'key': 'u', 'origWidth': 409, 'origHeight': 410, 'width': 409, 'height': 410, 'widthPercent': 0.45, 'rescaleHeight': False, 'trialN': 42, 'loaded': True, 'loadedTime': 8610.5, 'positionName': 'LEFT', 'positionCoords': [282.2, 245], 'bid': 7.88}, {'imgObject': {}, 'id': 'eggsalad', 'src': '/static/foodstim60/eggsalad.jpg', 'key': 'i', 'origWidth': 410, 'origHeight': 409, 'width': 410, 'height': 409, 'widthPercent': 0.45, 'rescaleHeight': False, 'trialN': 42, 'loaded': True, 'loadedTime': 8637.200000047684, 'positionName': 'RIGHT', 'positionCoords': [748.8, 245.5], 'bid': 5.63}]",70543.60000002384,1669830588421,baked potato,eggsalad,7.88,5.63,-2.25,baked potato,768.1000000238419,770,770.3999999761581,True,u,71815.80000001192,1272.199999988079,1669830589693,1272,HRV,HRV_0095,2022-11-30 17:53:14
43,"[{'imgObject': {}, 'id': 'bagel plain', 'src': '/static/foodstim60/bagel plain.jpg', 'key': 'u', 'origWidth': 410, 'origHeight': 410, 'width': 410, 'height': 410, 'widthPercent': 0.45, 'rescaleHeight': False, 'trialN': 43, 'loaded': True, 'loadedTime': 8638.200000047684, 'positionName': 'LEFT', 'positionCoords': [281.2, 245], 'bid': 5.61}, {'imgObject': {}, 'id': 'raisin bran w milk', 'src': '/static/foodstim60/raisin bran w milk.jpg', 'key': 'i', 'origWidth': 411, 'origHeight': 411, 'width': 411, 'height': 411, 'widthPercent': 0.45, 'rescaleHeight': False, 'trialN': 43, 'loaded': True, 'loadedTime': 8527.100000023842, 'positionName': 'RIGHT', 'positionCoords': [748.8, 244.5], 'bid': 0.2}]",71816.0,1669830589693,bagel plain,raisin bran w milk,5.61,0.2,-5.41,bagel plain,794.9000000357628,797,797.5,True,u,73114.80000001192,1298.800000011921,1669830590992,1299,HRV,HRV_0095,2022-11-30 17:53:14
44,"[{'imgObject': {}, 'id': 'blueberries', 'src': '/static/foodstim60/blueberries.jpg', 'key': 'u', 'origWidth': 411, 'origHeight': 411, 'width': 411, 'height': 411, 'widthPercent': 0.45, 'rescaleHeight': False, 'trialN': 44, 'loaded': True, 'loadedTime': 8345.900000035763, 'positionName': 'LEFT', 'positionCoords': [280.2, 244.5], 'bid': 6.16}, {'imgObject': {}, 'id': 'yogurt no spoon', 'src': '/static/foodstim60/yogurt no spoon.jpg', 'key': 'i', 'origWidth': 411, 'origHeight': 410, 'width': 411, 'height': 410, 'widthPercent': 0.45, 'rescaleHeight': False, 'trialN': 44, 'loaded': True, 'loadedTime': 8491.300000011921, 'positionName': 'RIGHT', 'positionCoords': [748.8, 245], 'bid': 5.62}]",73115.0,1669830590992,blueberries,yogurt no spoon,6.16,5.62,-0.54,yogurt no spoon,925.9000000357628,928,928.3000000119209,True,i,74548.40000003576,1433.4000000357628,1669830592425,1433,HRV,HRV_0095,2022-11-30 17:53:14
45,"[{'imgObject': {}, 'id': 'shreddedwheatwithmilk', 'src': '/static/foodstim60/shreddedwheatwithmilk.jpg', 'key': 'u', 'origWidth': 410, 'origHeight': 410, 'width': 410, 'height': 410, 'widthPercent': 0.45, 'rescaleHeight': False, 'trialN': 45, 'loaded': True, 'loadedTime': 8651.200000047684, 'positionName': 'LEFT', 'positionCoords': [281.2, 245], 'bid': 0.13}, {'imgObject': {}, 'id': 'corn cob', 'src': '/static/foodstim60/corn cob.jpg', 'key': 'i', 'origWidth': 411, 'origHeight': 411, 'width': 411, 'height': 411, 'widthPercent': 0.45, 'rescaleHeight': False, 'trialN': 45, 'loaded': True, 'loadedTime': 8651.800000011921, 'positionName': 'RIGHT', 'positionCoords': [748.8, 244.5], 'bid': 0.7000000000000001}]",74548.70000004768,1669830592426,shreddedwheatwithmilk,corn cob,0.13,0.7000000000000001,0.5700000000000001,shreddedwheatwithmilk,838.5,841,841.6999999880791,True,u,75891.80000001192,1343.0999999642372,1669830593769,1343,HRV,HRV_0095,2022-11-30 17:53:14
46,"[{'imgObject': {}, 'id': 'chicken nuggets2', 'src': '/static/foodstim60/chicken nuggets2.jpg', 'key': 'u', 'origWidth': 410, 'origHeight': 409, 'width': 410, 'height': 409, 'widthPercent': 0.45, 'rescaleHeight': False, 'trialN': 46, 'loaded': True, 'loadedTime': 8329.100000023842, 'positionName': 'LEFT', 'positionCoords': [281.2, 245.5], 'bid': 9.22}, {'imgObject': {}, 'id': 'salad w chicken', 'src': '/static/foodstim60/salad w chicken.jpg', 'key': 'i', 'origWidth': 411, 'origHeight': 411, 'width': 411, 'height': 411, 'widthPercent': 0.45, 'rescaleHeight': False, 'trialN': 46, 'loaded': True, 'loadedTime': 8463.400000035763, 'positionName': 'RIGHT', 'positionCoords': [748.8, 244.5], 'bid': 7.58}]",75892.0,1669830593769,chicken nuggets2,salad w chicken,9.22,7.58,-1.6400000000000006,salad w chicken,1230.0,1233,1232.7000000476837,True,i,77627.70000004768,1735.7000000476837,1669830595505,1736,HRV,HRV_0095,2022-11-30 17:53:14
47,"[{'imgObject': {}, 'id': 'yogurt no spoon', 'src': '/static/foodstim60/yogurt no spoon.jpg', 'key': 'u', 'origWidth': 411, 'origHeight': 410, 'width': 411, 'height': 410, 'widthPercent': 0.45, 'rescaleHeight': False, 'trialN': 47, 'loaded': True, 'loadedTime': 8491.300000011921, 'positionName': 'LEFT', 'positionCoords': [280.2, 245], 'bid': 5.62}, {'imgObject': {}, 'id': 'hashbrowns', 'src': '/static/foodstim60/hashbrowns.jpg', 'key': 'i', 'origWidth': 411, 'origHeight': 410, 'width': 411, 'height': 410, 'widthPercent': 0.45, 'rescaleHeight': False, 'trialN': 47, 'loaded': True, 'loadedTime': 8531.600000023842, 'positionName': 'RIGHT', 'positionCoords': [748.8, 245], 'bid': 0.25}]",77628.0,1669830595505,yogurt no spoon,hashbrowns,5.62,0.25,-5.37,yogurt no spoon,854.0,856,856.5,True,u,78988.5,1360.5,1669830596865,1360,HRV,HRV_0095,2022-11-30 17:53:14
48,"[{'imgObject': {}, 'id': 'veggieswithdip', 'src': '/static/foodstim60/veggieswithdip.jpg', 'key': 'u', 'origWidth': 409, 'origHeight': 409, 'width': 409, 'height': 409, 'widthPercent': 0.45, 'rescaleHeight': False, 'trialN': 48, 'loaded': True, 'loadedTime': 8357.800000011921, 'positionName': 'LEFT', 'positionCoords': [282.2, 245.5], 'bid': 3.08}, {'imgObject': {}, 'id': 'cherries', 'src': '/static/foodstim60/cherries.jpg', 'key': 'i', 'origWidth': 410, 'origHeight': 411, 'width': 410, 'height': 411, 'widthPercent': 0.45, 'rescaleHeight': False, 'trialN': 48, 'loaded': True, 'loadedTime': 8651.900000035763, 'positionName': 'RIGHT', 'positionCoords': [748.8, 244.5], 'bid': 2.93}]",78988.80000001192,1669830596866,veggieswithdip,cherries,3.08,2.93,-0.1499999999999999,veggieswithdip,1004.3000000119209,1006,1007.0,True,u,80499.80000001192,1511.0,1669830598377,1511,HRV,HRV_0095,2022-11-30 17:53:14
49,"[{'imgObject': {}, 'id': 'omelette', 'src': '/static/foodstim60/omelette.jpg', 'key': 'u', 'origWidth': 410, 'origHeight': 409, 'width': 410, 'height': 409, 'widthPercent': 0.45, 'rescaleHeight': False, 'trialN': 49, 'loaded': True, 'loadedTime': 8356.700000047684, 'positionName': 'LEFT', 'positionCoords': [281.2, 245.5], 'bid': 5.41}, {'imgObject': {}, 'id': 'ice cream sundae 002', 'src': '/static/foodstim60/ice cream sundae 002.jpg', 'key': 'i', 'origWidth': 409, 'origHeight': 409, 'width': 409, 'height': 409, 'widthPercent': 0.45, 'rescaleHeight': False, 'trialN': 49, 'loaded': True, 'loadedTime': 8594.600000023842, 'positionName': 'RIGHT', 'positionCoords': [748.8, 245.5], 'bid': 7.9}]",80500.20000004768,1669830598377,omelette,ice cream sundae 002,5.41,7.9,2.49,omelette,779.6999999880791,782,782.5,True,u,81783.80000001192,1283.5999999642372,1669830599660,1283,HRV,HRV_0095,2022-11-30 17:53:14
50,"[{'imgObject': {}, 'id': 'cocktailshrimp', 'src': '/static/foodstim60/cocktailshrimp.jpg', 'key': 'u', 'origWidth': 410, 'origHeight': 410, 'width': 410, 'height': 410, 'widthPercent': 0.45, 'rescaleHeight': False, 'trialN': 50, 'loaded': True, 'loadedTime': 8351.300000011921, 'positionName': 'LEFT', 'positionCoords': [281.2, 245], 'bid': 0.26}, {'imgObject': {}, 'id': 'banana', 'src': '/static/foodstim60/banana.jpg', 'key': 'i', 'origWidth': 410, 'origHeight': 410, 'width': 410, 'height': 410, 'widthPercent': 0.45, 'rescaleHeight': False, 'trialN': 50, 'loaded': True, 'loadedTime': 8609.400000035763, 'positionName': 'RIGHT', 'positionCoords': [748.8, 245], 'bid': 1.87}]",81784.10000002384,1669830599661,cocktailshrimp,banana,0.26,1.87,1.61,cocktailshrimp,1302.1000000238419,1304,1304.6000000238419,True,u,83591.80000001192,1807.699999988079,1669830601468,1807,HRV,HRV_0095,2022-11-30 17:53:14
51,"[{'imgObject': {}, 'id': 'chickenfingers', 'src': '/static/foodstim60/chickenfingers.jpg', 'key': 'u', 'origWidth': 410, 'origHeight': 410, 'width': 410, 'height': 410, 'widthPercent': 0.45, 'rescaleHeight': False, 'trialN': 51, 'loaded': True, 'loadedTime': 8464, 'positionName': 'LEFT', 'positionCoords': [281.2, 245], 'bid': 9.2}, {'imgObject': {}, 'id': 'strawberries', 'src': '/static/foodstim60/strawberries.jpg', 'key': 'i', 'origWidth': 410, 'origHeight': 410, 'width': 410, 'height': 410, 'widthPercent': 0.45, 'rescaleHeight': False, 'trialN': 51, 'loaded': True, 'loadedTime': 8391, 'positionName': 'RIGHT', 'positionCoords': [748.8, 245], 'bid': 5.91}]",83592.10000002384,1669830601469,chickenfingers,strawberries,9.2,5.91,-3.289999999999999,chickenfingers,712.0,714,714.3999999761581,True,u,84807.80000001192,1215.699999988079,1669830602684,1215,HRV,HRV_0095,2022-11-30 17:53:14
52,"[{'imgObject': {}, 'id': 'popsicles', 'src': '/static/foodstim60/popsicles.jpg', 'key': 'u', 'origWidth': 410, 'origHeight': 410, 'width': 410, 'height': 410, 'widthPercent': 0.45, 'rescaleHeight': False, 'trialN': 52, 'loaded': True, 'loadedTime': 8652.800000011921, 'positionName': 'LEFT', 'positionCoords': [281.2, 245], 'bid': 3.72}, {'imgObject': {}, 'id': 'shreddedwheatwithmilk', 'src': '/static/foodstim60/shreddedwheatwithmilk.jpg', 'key': 'i', 'origWidth': 410, 'origHeight': 410, 'width': 410, 'height': 410, 'widthPercent': 0.45, 'rescaleHeight': False, 'trialN': 52, 'loaded': True, 'loadedTime': 8638.700000047684, 'positionName': 'RIGHT', 'positionCoords': [748.8, 245], 'bid': 0.13}]",84808.10000002384,1669830602685,popsicles,shreddedwheatwithmilk,3.72,0.13,-3.5900000000000003,popsicles,1284.800000011921,1288,1288.3999999761581,True,u,86599.80000001192,1791.699999988079,1669830604476,1791,HRV,HRV_0095,2022-11-30 17:53:14
53,"[{'imgObject': {}, 'id': 'fruitsalad', 'src': '/static/foodstim60/fruitsalad.jpg', 'key': 'u', 'origWidth': 410, 'origHeight': 410, 'width': 410, 'height': 410, 'widthPercent': 0.45, 'rescaleHeight': False, 'trialN': 53, 'loaded': True, 'loadedTime': 8652.900000035763, 'positionName': 'LEFT', 'positionCoords': [281.2, 245], 'bid': 1.51}, {'imgObject': {}, 'id': 'popsicles', 'src': '/static/foodstim60/popsicles.jpg', 'key': 'i', 'origWidth': 410, 'origHeight': 410, 'width': 410, 'height': 410, 'widthPercent': 0.45, 'rescaleHeight': False, 'trialN': 53, 'loaded': True, 'loadedTime': 8652.800000011921, 'positionName': 'RIGHT', 'positionCoords': [748.8, 245], 'bid': 3.72}]",86600.0,1669830604476,fruitsalad,popsicles,1.51,3.72,2.21,fruitsalad,1214.2000000476837,1217,1216.6000000238419,True,u,88319.80000001192,1719.800000011921,1669830606196,1720,HRV,HRV_0095,2022-11-30 17:53:14
54,"[{'imgObject': {}, 'id': 'blackbeanswithrice', 'src': '/static/foodstim60/blackbeanswithrice.jpg', 'key': 'u', 'origWidth': 410, 'origHeight': 410, 'width': 410, 'height': 410, 'widthPercent': 0.45, 'rescaleHeight': False, 'trialN': 54, 'loaded': True, 'loadedTime': 8504.300000011921, 'positionName': 'LEFT', 'positionCoords': [281.2, 245], 'bid': 0.2}, {'imgObject': {}, 'id': 'omelette', 'src': '/static/foodstim60/omelette.jpg', 'key': 'i', 'origWidth': 410, 'origHeight': 409, 'width': 410, 'height': 409, 'widthPercent': 0.45, 'rescaleHeight': False, 'trialN': 54, 'loaded': True, 'loadedTime': 8357, 'positionName': 'RIGHT', 'positionCoords': [748.8, 245.5], 'bid': 5.41}]",88320.10000002384,1669830606197,blackbeanswithrice,omelette,0.2,5.41,5.21,omelette,874.0,876,876.6000000238419,True,i,89699.80000001192,1379.699999988079,1669830607576,1379,HRV,HRV_0095,2022-11-30 17:53:14
55,"[{'imgObject': {}, 'id': 'cheerios', 'src': '/static/foodstim60/cheerios.jpg', 'key': 'u', 'origWidth': 409, 'origHeight': 410, 'width': 409, 'height': 410, 'widthPercent': 0.45, 'rescaleHeight': False, 'trialN': 55, 'loaded': True, 'loadedTime': 8569.400000035763, 'positionName': 'LEFT', 'positionCoords': [282.2, 245], 'bid': 0.25}, {'imgObject': {}, 'id': 'cocktailshrimp', 'src': '/static/foodstim60/cocktailshrimp.jpg', 'key': 'i', 'origWidth': 410, 'origHeight': 410, 'width': 410, 'height': 410, 'widthPercent': 0.45, 'rescaleHeight': False, 'trialN': 55, 'loaded': True, 'loadedTime': 8350.800000011921, 'positionName': 'RIGHT', 'positionCoords': [748.8, 245], 'bid': 0.26}]",89700.0,1669830607576,cheerios,cocktailshrimp,0.25,0.26,0.010000000000000009,cocktailshrimp,791.9000000357628,795,794.5,True,i,90998.90000003576,1298.9000000357628,1669830608875,1299,HRV,HRV_0095,2022-11-30 17:53:14
56,"[{'imgObject': {}, 'id': 'mango', 'src': '/static/foodstim60/mango.jpg', 'key': 'u', 'origWidth': 411, 'origHeight': 411, 'width': 411, 'height': 411, 'widthPercent': 0.45, 'rescaleHeight': False, 'trialN': 56, 'loaded': True, 'loadedTime': 8523.200000047684, 'positionName': 'LEFT', 'positionCoords': [280.2, 244.5], 'bid': 4.45}, {'imgObject': {}, 'id': 'roastedpotatoes', 'src': '/static/foodstim60/roastedpotatoes.jpg', 'key': 'i', 'origWidth': 409, 'origHeight': 410, 'width': 409, 'height': 410, 'widthPercent': 0.45, 'rescaleHeight': False, 'trialN': 56, 'loaded': True, 'loadedTime': 8635.800000011921, 'positionName': 'RIGHT', 'positionCoords': [748.8, 245], 'bid': 1.86}]",90999.10000002384,1669830608875,mango,roastedpotatoes,4.45,1.86,-2.59,roastedpotatoes,1065.300000011921,1068,1067.6000000238419,True,i,92567.70000004768,1568.6000000238419,1669830610444,1569,HRV,HRV_0095,2022-11-30 17:53:14
57,"[{'imgObject': {}, 'id': 'granola w milk', 'src': '/static/foodstim60/granola w milk.jpg', 'key': 'u', 'origWidth': 410, 'origHeight': 410, 'width': 410, 'height': 410, 'widthPercent': 0.45, 'rescaleHeight': False, 'trialN': 57, 'loaded': True, 'loadedTime': 8654, 'positionName': 'LEFT', 'positionCoords': [281.2, 245], 'bid': 0.19}, {'imgObject': {}, 'id': 'orange slices', 'src': '/static/foodstim60/orange slices.jpg', 'key': 'i', 'origWidth': 409, 'origHeight': 410, 'width': 409, 'height': 410, 'widthPercent': 0.45, 'rescaleHeight': False, 'trialN': 57, 'loaded': True, 'loadedTime': 8595.5, 'positionName': 'RIGHT', 'positionCoords': [748.8, 245], 'bid': 1.18}]",92568.10000002384,1669830610444,granola w milk,orange slices,0.19,1.18,0.99,orange slices,1323.199999988079,1326,1325.5,True,i,94395.80000001192,1827.699999988079,1669830612272,1828,HRV,HRV_0095,2022-11-30 17:53:14
58,"[{'imgObject': {}, 'id': 'cherries', 'src': '/static/foodstim60/cherries.jpg', 'key': 'u', 'origWidth': 410, 'origHeight': 411, 'width': 410, 'height': 411, 'widthPercent': 0.45, 'rescaleHeight': False, 'trialN': 58, 'loaded': True, 'loadedTime': 8652.300000011921, 'positionName': 'LEFT', 'positionCoords': [281.2, 244.5], 'bid': 2.93}, {'imgObject': {}, 'id': 'salmon', 'src': '/static/foodstim60/salmon.jpg', 'key': 'i', 'origWidth': 410, 'origHeight': 409, 'width': 410, 'height': 409, 'widthPercent': 0.45, 'rescaleHeight': False, 'trialN': 58, 'loaded': True, 'loadedTime': 8524.200000047684, 'positionName': 'RIGHT', 'positionCoords': [748.8, 245.5], 'bid': 4.2}]",94396.0,1669830612272,cherries,salmon,2.93,4.2,1.27,salmon,812.5,815,814.3000000119209,True,i,95711.70000004768,1315.7000000476837,1669830613588,1316,HRV,HRV_0095,2022-11-30 17:53:14
59,"[{'imgObject': {}, 'id': 'Grapes', 'src': '/static/foodstim60/Grapes.jpg', 'key': 'u', 'origWidth': 411, 'origHeight': 411, 'width': 411, 'height': 411, 'widthPercent': 0.45, 'rescaleHeight': False, 'trialN': 59, 'loaded': True, 'loadedTime': 8532.100000023842, 'positionName': 'LEFT', 'positionCoords': [280.2, 244.5], 'bid': 3.93}, {'imgObject': {}, 'id': 'apple slices', 'src': '/static/foodstim60/apple slices.jpg', 'key': 'i', 'origWidth': 409, 'origHeight': 410, 'width': 409, 'height': 410, 'widthPercent': 0.45, 'rescaleHeight': False, 'trialN': 59, 'loaded': True, 'loadedTime': 8608.800000011921, 'positionName': 'RIGHT', 'positionCoords': [748.8, 245], 'bid': 1.81}]",95711.90000003576,1669830613588,Grapes,apple slices,3.93,1.81,-2.12,Grapes,1734.199999988079,1737,1737.199999988079,True,u,97951.80000001192,2239.899999976158,1669830615827,2239,HRV,HRV_0095,2022-11-30 17:53:14
60,"[{'imgObject': {}, 'id': 'eggs', 'src': '/static/foodstim60/eggs.jpg', 'key': 'u', 'origWidth': 409, 'origHeight': 409, 'width': 409, 'height': 409, 'widthPercent': 0.45, 'rescaleHeight': False, 'trialN': 60, 'loaded': True, 'loadedTime': 8449.700000047684, 'positionName': 'LEFT', 'positionCoords': [282.2, 245.5], 'bid': 8.38}, {'imgObject': {}, 'id': 'yogurt no spoon', 'src': '/static/foodstim60/yogurt no spoon.jpg', 'key': 'i', 'origWidth': 411, 'origHeight': 410, 'width': 411, 'height': 410, 'widthPercent': 0.45, 'rescaleHeight': False, 'trialN': 60, 'loaded': True, 'loadedTime': 8491.400000035763, 'positionName': 'RIGHT', 'positionCoords': [748.8, 245], 'bid': 5.62}]",97952.0,1669830615827,eggs,yogurt no spoon,8.38,5.62,-2.7600000000000007,eggs,688.1000000238419,691,690.8000000119209,True,u,99143.90000003576,1191.9000000357628,1669830617019,1192,HRV,HRV_0095,2022-11-30 17:53:14
61,"[{'imgObject': {}, 'id': 'raisin bran w milk', 'src': '/static/foodstim60/raisin bran w milk.jpg', 'key': 'u', 'origWidth': 411, 'origHeight': 411, 'width': 411, 'height': 411, 'widthPercent': 0.45, 'rescaleHeight': False, 'trialN': 61, 'loaded': True, 'loadedTime': 8526.200000047684, 'positionName': 'LEFT', 'positionCoords': [280.2, 244.5], 'bid': 0.2}, {'imgObject': {}, 'id': 'shreddedwheatwithmilk', 'src': '/static/foodstim60/shreddedwheatwithmilk.jpg', 'key': 'i', 'origWidth': 410, 'origHeight': 410, 'width': 410, 'height': 410, 'widthPercent': 0.45, 'rescaleHeight': False, 'trialN': 61, 'loaded': True, 'loadedTime': 8638.700000047684, 'positionName': 'RIGHT', 'positionCoords': [748.8, 245], 'bid': 0.13}]",99144.10000002384,1669830617019,raisin bran w milk,shreddedwheatwithmilk,0.2,0.13,-0.07,shreddedwheatwithmilk,1037.699999988079,1038,1038.699999988079,True,i,100683.80000001192,1539.699999988079,1669830618558,1539,HRV,HRV_0095,2022-11-30 17:53:14
62,"[{'imgObject': {}, 'id': 'turkeysandwich', 'src': '/static/foodstim60/turkeysandwich.jpg', 'key': 'u', 'origWidth': 409, 'origHeight': 409, 'width': 409, 'height': 409, 'widthPercent': 0.45, 'rescaleHeight': False, 'trialN': 62, 'loaded': True, 'loadedTime': 8654.400000035763, 'positionName': 'LEFT', 'positionCoords': [282.2, 245.5], 'bid': 8.36}, {'imgObject': {}, 'id': 'eggs', 'src': '/static/foodstim60/eggs.jpg', 'key': 'i', 'origWidth': 409, 'origHeight': 409, 'width': 409, 'height': 409, 'widthPercent': 0.45, 'rescaleHeight': False, 'trialN': 62, 'loaded': True, 'loadedTime': 8449.700000047684, 'positionName': 'RIGHT', 'positionCoords': [748.8, 245.5], 'bid': 8.38}]",100684.20000004768,1669830618558,turkeysandwich,eggs,8.36,8.38,0.02000000000000135,eggs,624.7999999523163,628,627.5,True,i,101815.60000002384,1131.3999999761581,1669830619689,1131,HRV,HRV_0095,2022-11-30 17:53:14
63,"[{'imgObject': {}, 'id': 'granola w milk', 'src': '/static/foodstim60/granola w milk.jpg', 'key': 'u', 'origWidth': 410, 'origHeight': 410, 'width': 410, 'height': 410, 'widthPercent': 0.45, 'rescaleHeight': False, 'trialN': 63, 'loaded': True, 'loadedTime': 8654, 'positionName': 'LEFT', 'positionCoords': [281.2, 245], 'bid': 0.19}, {'imgObject': {}, 'id': 'pear', 'src': '/static/foodstim60/pear.jpg', 'key': 'i', 'origWidth': 411, 'origHeight': 410, 'width': 411, 'height': 410, 'widthPercent': 0.45, 'rescaleHeight': False, 'trialN': 63, 'loaded': True, 'loadedTime': 8555.5, 'positionName': 'RIGHT', 'positionCoords': [748.8, 245], 'bid': 0.15}]",101815.80000001192,1669830619690,granola w milk,pear,0.19,0.15,-0.04000000000000001,granola w milk,1380.800000011921,1382,1382.9000000357628,True,u,103699.0,1883.199999988079,1669830621572,1882,HRV,HRV_0095,2022-11-30 17:53:14
64,"[{'imgObject': {}, 'id': 'steak', 'src': '/static/foodstim60/steak.jpg', 'key': 'u', 'origWidth': 410, 'origHeight': 410, 'width': 410, 'height': 410, 'widthPercent': 0.45, 'rescaleHeight': False, 'trialN': 64, 'loaded': True, 'loadedTime': 8477.600000023842, 'positionName': 'LEFT', 'positionCoords': [281.2, 245], 'bid': 0.84}, {'imgObject': {}, 'id': 'salad w chicken', 'src': '/static/foodstim60/salad w chicken.jpg', 'key': 'i', 'origWidth': 411, 'origHeight': 411, 'width': 411, 'height': 411, 'widthPercent': 0.45, 'rescaleHeight': False, 'trialN': 64, 'loaded': True, 'loadedTime': 8463.100000023842, 'positionName': 'RIGHT', 'positionCoords': [748.8, 244.5], 'bid': 7.58}]",103699.20000004768,1669830621572,steak,salad w chicken,0.84,7.58,6.74,salad w chicken,777.0999999642372,780,779.6999999880791,True,i,104983.80000001192,1284.5999999642372,1669830622857,1285,HRV,HRV_0095,2022-11-30 17:53:14
65,"[{'imgObject': {}, 'id': 'popsicles', 'src': '/static/foodstim60/popsicles.jpg', 'key': 'u', 'origWidth': 410, 'origHeight': 410, 'width': 410, 'height': 410, 'widthPercent': 0.45, 'rescaleHeight': False, 'trialN': 65, 'loaded': True, 'loadedTime': 8652.400000035763, 'positionName': 'LEFT', 'positionCoords': [281.2, 245], 'bid': 3.72}, {'imgObject': {}, 'id': 'Grapes', 'src': '/static/foodstim60/Grapes.jpg', 'key': 'i', 'origWidth': 411, 'origHeight': 411, 'width': 411, 'height': 411, 'widthPercent': 0.45, 'rescaleHeight': False, 'trialN': 65, 'loaded': True, 'loadedTime': 8538.300000011921, 'positionName': 'RIGHT', 'positionCoords': [748.8, 244.5], 'bid': 3.93}]",104984.10000002384,1669830622857,popsicles,Grapes,3.72,3.93,0.20999999999999996,Grapes,925.3999999761581,928,928.1999999880791,True,i,106415.90000003576,1431.800000011921,1669830624288,1431,HRV,HRV_0095,2022-11-30 17:53:14
66,"[{'imgObject': {}, 'id': 'Tribe humus pita', 'src': '/static/foodstim60/Tribe humus pita.jpg', 'key': 'u', 'origWidth': 411, 'origHeight': 411, 'width': 411, 'height': 411, 'widthPercent': 0.45, 'rescaleHeight': False, 'trialN': 66, 'loaded': True, 'loadedTime': 8581.700000047684, 'positionName': 'LEFT', 'positionCoords': [280.2, 244.5], 'bid': 2.37}, {'imgObject': {}, 'id': 'omelette', 'src': '/static/foodstim60/omelette.jpg', 'key': 'i', 'origWidth': 410, 'origHeight': 409, 'width': 410, 'height': 409, 'widthPercent': 0.45, 'rescaleHeight': False, 'trialN': 66, 'loaded': True, 'loadedTime': 8356.900000035763, 'positionName': 'RIGHT', 'positionCoords': [748.8, 245.5], 'bid': 5.41}]",106416.20000004768,1669830624288,Tribe humus pita,omelette,2.37,5.41,3.04,omelette,983.0,985,985.1999999880791,True,i,107903.80000001192,1487.5999999642372,1669830625776,1488,HRV,HRV_0095,2022-11-30 17:53:14
67,"[{'imgObject': {}, 'id': 'burger', 'src': '/static/foodstim60/burger.jpg', 'key': 'u', 'origWidth': 409, 'origHeight': 409, 'width': 409, 'height': 409, 'widthPercent': 0.45, 'rescaleHeight': False, 'trialN': 67, 'loaded': True, 'loadedTime': 8623.800000011921, 'positionName': 'LEFT', 'positionCoords': [282.2, 245.5], 'bid': 6.69}, {'imgObject': {}, 'id': 'corn cob', 'src': '/static/foodstim60/corn cob.jpg', 'key': 'i', 'origWidth': 411, 'origHeight': 411, 'width': 411, 'height': 411, 'widthPercent': 0.45, 'rescaleHeight': False, 'trialN': 67, 'loaded': True, 'loadedTime': 8651.800000011921, 'positionName': 'RIGHT', 'positionCoords': [748.8, 244.5], 'bid': 0.7000000000000001}]",107904.0,1669830625776,burger,corn cob,6.69,0.7000000000000001,-5.99,burger,923.0,925,925.6000000238419,True,u,109332.60000002384,1428.6000000238419,1669830627204,1428,HRV,HRV_0095,2022-11-30 17:53:14
68,"[{'imgObject': {}, 'id': 'chicken nuggets2', 'src': '/static/foodstim60/chicken nuggets2.jpg', 'key': 'u', 'origWidth': 410, 'origHeight': 409, 'width': 410, 'height': 409, 'widthPercent': 0.45, 'rescaleHeight': False, 'trialN': 68, 'loaded': True, 'loadedTime': 8328.900000035763, 'positionName': 'LEFT', 'positionCoords': [281.2, 245.5], 'bid': 9.22}, {'imgObject': {}, 'id': 'turkey sandwich', 'src': '/static/foodstim60/turkey sandwich.jpg', 'key': 'i', 'origWidth': 409, 'origHeight': 409, 'width': 409, 'height': 409, 'widthPercent': 0.45, 'rescaleHeight': False, 'trialN': 68, 'loaded': True, 'loadedTime': 8609.900000035763, 'positionName': 'RIGHT', 'positionCoords': [748.8, 245.5], 'bid': 8.16}]",109332.90000003576,1669830627204,chicken nuggets2,turkey sandwich,9.22,8.16,-1.0600000000000005,turkey sandwich,1270.199999988079,1273,1272.5999999642372,True,i,111107.80000001192,1774.8999999761581,1669830628979,1775,HRV,HRV_0095,2022-11-30 17:53:14
69,"[{'imgObject': {}, 'id': 'ice cream sundae 002', 'src': '/static/foodstim60/ice cream sundae 002.jpg', 'key': 'u', 'origWidth': 409, 'origHeight': 409, 'width': 409, 'height': 409, 'widthPercent': 0.45, 'rescaleHeight': False, 'trialN': 69, 'loaded': True, 'loadedTime': 8582.400000035763, 'positionName': 'LEFT', 'positionCoords': [282.2, 245.5], 'bid': 7.9}, {'imgObject': {}, 'id': 'turkeysandwich', 'src': '/static/foodstim60/turkeysandwich.jpg', 'key': 'i', 'origWidth': 409, 'origHeight': 409, 'width': 409, 'height': 409, 'widthPercent': 0.45, 'rescaleHeight': False, 'trialN': 69, 'loaded': True, 'loadedTime': 8654.5, 'positionName': 'RIGHT', 'positionCoords': [748.8, 245.5], 'bid': 8.36}]",111108.10000002384,1669830628979,ice cream sundae 002,turkeysandwich,7.9,8.36,0.4599999999999991,turkeysandwich,942.1999999880791,945,944.6999999880791,True,i,112555.80000001192,1447.699999988079,1669830630427,1448,HRV,HRV_0095,2022-11-30 17:53:14
70,"[{'imgObject': {}, 'id': 'Grapes', 'src': '/static/foodstim60/Grapes.jpg', 'key': 'u', 'origWidth': 411, 'origHeight': 411, 'width': 411, 'height': 411, 'widthPercent': 0.45, 'rescaleHeight': False, 'trialN': 70, 'loaded': True, 'loadedTime': 8531.600000023842, 'positionName': 'LEFT', 'positionCoords': [280.2, 244.5], 'bid': 3.93}, {'imgObject': {}, 'id': 'seaweed', 'src': '/static/foodstim60/seaweed.jpg', 'key': 'i', 'origWidth': 410, 'origHeight': 410, 'width': 410, 'height': 410, 'widthPercent': 0.45, 'rescaleHeight': False, 'trialN': 70, 'loaded': True, 'loadedTime': 8393.400000035763, 'positionName': 'RIGHT', 'positionCoords': [748.8, 245], 'bid': 0.15}]",112556.0,1669830630427,Grapes,seaweed,3.93,0.15,-3.7800000000000002,Grapes,912.3000000119209,915,915.1000000238419,True,u,113971.60000002384,1415.6000000238419,1669830631842,1415,HRV,HRV_0095,2022-11-30 17:53:14
71,"[{'imgObject': {}, 'id': 'sweetpotato', 'src': '/static/foodstim60/sweetpotato.jpg', 'key': 'u', 'origWidth': 410, 'origHeight': 410, 'width': 410, 'height': 410, 'widthPercent': 0.45, 'rescaleHeight': False, 'trialN': 71, 'loaded': True, 'loadedTime': 8371.800000011921, 'positionName': 'LEFT', 'positionCoords': [281.2, 245], 'bid': 5.72}, {'imgObject': {}, 'id': 'tacos', 'src': '/static/foodstim60/tacos.jpg', 'key': 'i', 'origWidth': 411, 'origHeight': 411, 'width': 411, 'height': 411, 'widthPercent': 0.45, 'rescaleHeight': False, 'trialN': 71, 'loaded': True, 'loadedTime': 8654.5, 'positionName': 'RIGHT', 'positionCoords': [748.8, 244.5], 'bid': 8.81}]",113971.80000001192,1669830631842,sweetpotato,tacos,5.72,8.81,3.0900000000000007,tacos,1016.6000000238419,1018,1018.1999999880791,True,i,115493.90000003576,1522.1000000238419,1669830633364,1522,HRV,HRV_0095,2022-11-30 17:53:14
72,"[{'imgObject': {}, 'id': 'cherry tomato', 'src': '/static/foodstim60/cherry tomato.jpg', 'key': 'u', 'origWidth': 410, 'origHeight': 410, 'width': 410, 'height': 410, 'widthPercent': 0.45, 'rescaleHeight': False, 'trialN': 72, 'loaded': True, 'loadedTime': 8655.5, 'positionName': 'LEFT', 'positionCoords': [281.2, 245], 'bid': 0.4}, {'imgObject': {}, 'id': 'sushi w_condiments', 'src': '/static/foodstim60/sushi w_condiments.jpg', 'key': 'i', 'origWidth': 410, 'origHeight': 410, 'width': 410, 'height': 410, 'widthPercent': 0.45, 'rescaleHeight': False, 'trialN': 72, 'loaded': True, 'loadedTime': 8333.5, 'positionName': 'RIGHT', 'positionCoords': [748.8, 245], 'bid': 0.27}]",115494.20000004768,1669830633365,cherry tomato,sushi w_condiments,0.4,0.27,-0.13,sushi w_condiments,2501.7999999523163,2503,2503.7999999523163,True,i,118499.5,3005.2999999523163,1669830636369,3004,HRV,HRV_0095,2022-11-30 17:53:14
73,"[{'imgObject': {}, 'id': 'steak', 'src': '/static/foodstim60/steak.jpg', 'key': 'u', 'origWidth': 410, 'origHeight': 410, 'width': 410, 'height': 410, 'widthPercent': 0.45, 'rescaleHeight': False, 'trialN': 73, 'loaded': True, 'loadedTime': 8490.800000011921, 'positionName': 'LEFT', 'positionCoords': [281.2, 245], 'bid': 0.84}, {'imgObject': {}, 'id': 'pear', 'src': '/static/foodstim60/pear.jpg', 'key': 'i', 'origWidth': 411, 'origHeight': 410, 'width': 411, 'height': 410, 'widthPercent': 0.45, 'rescaleHeight': False, 'trialN': 73, 'loaded': True, 'loadedTime': 8555.400000035763, 'positionName': 'RIGHT', 'positionCoords': [748.8, 245], 'bid': 0.15}]",118499.90000003576,1669830636370,steak,pear,0.84,0.15,-0.69,pear,990.3000000119209,993,993.1999999880791,True,i,119995.80000001192,1495.8999999761581,1669830637865,1495,HRV,HRV_0095,2022-11-30 17:53:14
74,"[{'imgObject': {}, 'id': 'blackbeanswithrice', 'src': '/static/foodstim60/blackbeanswithrice.jpg', 'key': 'u', 'origWidth': 410, 'origHeight': 410, 'width': 410, 'height': 410, 'widthPercent': 0.45, 'rescaleHeight': False, 'trialN': 74, 'loaded': True, 'loadedTime': 8504.300000011921, 'positionName': 'LEFT', 'positionCoords': [281.2, 245], 'bid': 0.2}, {'imgObject': {}, 'id': 'luckycharms', 'src': '/static/foodstim60/luckycharms.jpg', 'key': 'i', 'origWidth': 410, 'origHeight': 409, 'width': 410, 'height': 409, 'widthPercent': 0.45, 'rescaleHeight': False, 'trialN': 74, 'loaded': True, 'loadedTime': 8344.600000023842, 'positionName': 'RIGHT', 'positionCoords': [748.8, 245.5], 'bid': 0.13}]",119996.0,1669830637866,blackbeanswithrice,luckycharms,0.2,0.13,-0.07,blackbeanswithrice,979.1000000238419,980,980.6000000238419,True,u,121479.80000001192,1483.800000011921,1669830639349,1483,HRV,HRV_0095,2022-11-30 17:53:14
75,"[{'imgObject': {}, 'id': 'raisin bran w milk', 'src': '/static/foodstim60/raisin bran w milk.jpg', 'key': 'u', 'origWidth': 411, 'origHeight': 411, 'width': 411, 'height': 411, 'widthPercent': 0.45, 'rescaleHeight': False, 'trialN': 75, 'loaded': True, 'loadedTime': 8527.100000023842, 'positionName': 'LEFT', 'positionCoords': [280.2, 244.5], 'bid': 0.2}, {'imgObject': {}, 'id': 'avocado', 'src': '/static/foodstim60/avocado.jpg', 'key': 'i', 'origWidth': 409, 'origHeight': 409, 'width': 409, 'height': 409, 'widthPercent': 0.45, 'rescaleHeight': False, 'trialN': 75, 'loaded': True, 'loadedTime': 8339.300000011921, 'positionName': 'RIGHT', 'positionCoords': [748.8, 245.5], 'bid': 0.75}]",121480.10000002384,1669830639350,raisin bran w milk,avocado,0.2,0.75,0.55,avocado,980.6000000238419,983,983.3000000119209,True,i,122967.0,1486.8999999761581,1669830640836,1486,HRV,HRV_0095,2022-11-30 17:53:14
76,"[{'imgObject': {}, 'id': 'olives', 'src': '/static/foodstim60/olives.jpg', 'key': 'u', 'origWidth': 410, 'origHeight': 410, 'width': 410, 'height': 410, 'widthPercent': 0.45, 'rescaleHeight': False, 'trialN': 76, 'loaded': True, 'loadedTime': 8354.800000011921, 'positionName': 'LEFT', 'positionCoords': [281.2, 245], 'bid': 0.18}, {'imgObject': {}, 'id': 'froot loops w milk', 'src': '/static/foodstim60/froot loops w milk.jpg', 'key': 'i', 'origWidth': 410, 'origHeight': 410, 'width': 410, 'height': 410, 'widthPercent': 0.45, 'rescaleHeight': False, 'trialN': 76, 'loaded': True, 'loadedTime': 8637.200000047684, 'positionName': 'RIGHT', 'positionCoords': [748.8, 245], 'bid': 0.41}]",122967.20000004768,1669830640836,olives,froot loops w milk,0.18,0.41,0.22999999999999998,froot loops w milk,698.5,701,700.2999999523163,True,i,124171.70000004768,1204.5,1669830642041,1205,HRV,HRV_0095,2022-11-30 17:53:14
77,"[{'imgObject': {}, 'id': 'froot loops w milk', 'src': '/static/foodstim60/froot loops w milk.jpg', 'key': 'u', 'origWidth': 410, 'origHeight': 410, 'width': 410, 'height': 410, 'widthPercent': 0.45, 'rescaleHeight': False, 'trialN': 77, 'loaded': True, 'loadedTime': 8637.200000047684, 'positionName': 'LEFT', 'positionCoords': [281.2, 245], 'bid': 0.41}, {'imgObject': {}, 'id': 'orange slices', 'src': '/static/foodstim60/orange slices.jpg', 'key': 'i', 'origWidth': 409, 'origHeight': 410, 'width': 409, 'height': 410, 'widthPercent': 0.45, 'rescaleHeight': False, 'trialN': 77, 'loaded': True, 'loadedTime': 8595.400000035763, 'positionName': 'RIGHT', 'positionCoords': [748.8, 245], 'bid': 1.18}]",124171.80000001192,1669830642041,froot loops w milk,orange slices,0.41,1.18,0.77,froot loops w milk,914.1000000238419,916,916.0,True,u,125591.80000001192,1420.0,1669830643461,1420,HRV,HRV_0095,2022-11-30 17:53:14
78,"[{'imgObject': {}, 'id': 'olives', 'src': '/static/foodstim60/olives.jpg', 'key': 'u', 'origWidth': 410, 'origHeight': 410, 'width': 410, 'height': 410, 'widthPercent': 0.45, 'rescaleHeight': False, 'trialN': 78, 'loaded': True, 'loadedTime': 8354.5, 'positionName': 'LEFT', 'positionCoords': [281.2, 245], 'bid': 0.18}, {'imgObject': {}, 'id': 'mango', 'src': '/static/foodstim60/mango.jpg', 'key': 'i', 'origWidth': 411, 'origHeight': 411, 'width': 411, 'height': 411, 'widthPercent': 0.45, 'rescaleHeight': False, 'trialN': 78, 'loaded': True, 'loadedTime': 8523, 'positionName': 'RIGHT', 'positionCoords': [748.8, 244.5], 'bid': 4.45}]",125592.0,1669830643461,olives,mango,0.18,4.45,4.2700000000000005,mango,881.2000000476837,884,883.8000000119209,True,i,126976.30000001192,1384.300000011921,1669830644845,1384,HRV,HRV_0095,2022-11-30 17:53:14
79,"[{'imgObject': {}, 'id': 'apple slices', 'src': '/static/foodstim60/apple slices.jpg', 'key': 'u', 'origWidth': 409, 'origHeight': 410, 'width': 409, 'height': 410, 'widthPercent': 0.45, 'rescaleHeight': False, 'trialN': 79, 'loaded': True, 'loadedTime': 8608.700000047684, 'positionName': 'LEFT', 'positionCoords': [282.2, 245], 'bid': 1.81}, {'imgObject': {}, 'id': 'fruitsalad', 'src': '/static/foodstim60/fruitsalad.jpg', 'key': 'i', 'origWidth': 410, 'origHeight': 410, 'width': 410, 'height': 410, 'widthPercent': 0.45, 'rescaleHeight': False, 'trialN': 79, 'loaded': True, 'loadedTime': 8653.300000011921, 'positionName': 'RIGHT', 'positionCoords': [748.8, 245], 'bid': 1.51}]",126976.5,1669830644845,apple slices,fruitsalad,1.81,1.51,-0.30000000000000004,fruitsalad,928.6000000238419,931,931.1000000238419,True,i,128408.0,1431.5,1669830646277,1432,HRV,HRV_0095,2022-11-30 17:53:14
80,"[{'imgObject': {}, 'id': 'mac & cheese', 'src': '/static/foodstim60/mac & cheese.jpg', 'key': 'u', 'origWidth': 410, 'origHeight': 410, 'width': 410, 'height': 410, 'widthPercent': 0.45, 'rescaleHeight': False, 'trialN': 80, 'loaded': True, 'loadedTime': 8356.200000047684, 'positionName': 'LEFT', 'positionCoords': [281.2, 245], 'bid': 5.37}, {'imgObject': {}, 'id': 'banana', 'src': '/static/foodstim60/banana.jpg', 'key': 'i', 'origWidth': 410, 'origHeight': 410, 'width': 410, 'height': 410, 'widthPercent': 0.45, 'rescaleHeight': False, 'trialN': 80, 'loaded': True, 'loadedTime': 8609.400000035763, 'positionName': 'RIGHT', 'positionCoords': [748.8, 245], 'bid': 1.87}]",128408.20000004768,1669830646277,mac & cheese,banana,5.37,1.87,-3.5,mac & cheese,850.3999999761581,852,852.0999999642372,True,u,129763.90000003576,1355.699999988079,1669830647632,1355,HRV,HRV_0095,2022-11-30 17:53:14
81,"[{'imgObject': {}, 'id': 'veggieswithdip', 'src': '/static/foodstim60/veggieswithdip.jpg', 'key': 'u', 'origWidth': 409, 'origHeight': 409, 'width': 409, 'height': 409, 'widthPercent': 0.45, 'rescaleHeight': False, 'trialN': 81, 'loaded': True, 'loadedTime': 8357.800000011921, 'positionName': 'LEFT', 'positionCoords': [282.2, 245.5], 'bid': 3.08}, {'imgObject': {}, 'id': 'hotdog w must', 'src': '/static/foodstim60/hotdog w must.jpg', 'key': 'i', 'origWidth': 409, 'origHeight': 409, 'width': 409, 'height': 409, 'widthPercent': 0.45, 'rescaleHeight': False, 'trialN': 81, 'loaded': True, 'loadedTime': 8568.200000047684, 'positionName': 'RIGHT', 'positionCoords': [748.8, 245.5], 'bid': 1.86}]",129764.10000002384,1669830647633,veggieswithdip,hotdog w must,3.08,1.86,-1.22,veggieswithdip,821.1000000238419,824,824.8000000119209,True,u,131091.60000002384,1327.5,1669830648960,1327,HRV,HRV_0095,2022-11-30 17:53:14
82,"[{'imgObject': {}, 'id': 'bagel plain', 'src': '/static/foodstim60/bagel plain.jpg', 'key': 'u', 'origWidth': 410, 'origHeight': 410, 'width': 410, 'height': 410, 'widthPercent': 0.45, 'rescaleHeight': False, 'trialN': 82, 'loaded': True, 'loadedTime': 8638.200000047684, 'positionName': 'LEFT', 'positionCoords': [281.2, 245], 'bid': 5.61}, {'imgObject': {}, 'id': 'grilled chicken strips', 'src': '/static/foodstim60/grilled chicken strips.jpg', 'key': 'i', 'origWidth': 410, 'origHeight': 411, 'width': 410, 'height': 411, 'widthPercent': 0.45, 'rescaleHeight': False, 'trialN': 82, 'loaded': True, 'loadedTime': 8554.700000047684, 'positionName': 'RIGHT', 'positionCoords': [748.8, 244.5], 'bid': 5.62}]",131091.80000001192,1669830648960,bagel plain,grilled chicken strips,5.61,5.62,0.009999999999999787,bagel plain,905.6000000238419,907,907.1000000238419,True,u,132499.90000003576,1408.1000000238419,1669830650368,1408,HRV,HRV_0095,2022-11-30 17:53:14
83,"[{'imgObject': {}, 'id': 'rigatoni', 'src': '/static/foodstim60/rigatoni.jpg', 'key': 'u', 'origWidth': 411, 'origHeight': 411, 'width': 411, 'height': 411, 'widthPercent': 0.45, 'rescaleHeight': False, 'trialN': 83, 'loaded': True, 'loadedTime': 8539.400000035763, 'positionName': 'LEFT', 'positionCoords': [280.2, 244.5], 'bid': 3.69}, {'imgObject': {}, 'id': 'orange slices', 'src': '/static/foodstim60/orange slices.jpg', 'key': 'i', 'origWidth': 409, 'origHeight': 410, 'width': 409, 'height': 410, 'widthPercent': 0.45, 'rescaleHeight': False, 'trialN': 83, 'loaded': True, 'loadedTime': 8595.400000035763, 'positionName': 'RIGHT', 'positionCoords': [748.8, 245], 'bid': 1.18}]",132500.20000004768,1669830650368,rigatoni,orange slices,3.69,1.18,-2.51,rigatoni,813.0,816,815.2999999523163,True,u,133819.80000001192,1319.5999999642372,1669830651688,1320,HRV,HRV_0095,2022-11-30 17:53:14
84,"[{'imgObject': {}, 'id': 'mashed potato', 'src': '/static/foodstim60/mashed potato.jpg', 'key': 'u', 'origWidth': 409, 'origHeight': 409, 'width': 409, 'height': 409, 'widthPercent': 0.45, 'rescaleHeight': False, 'trialN': 84, 'loaded': True, 'loadedTime': 8554.100000023842, 'positionName': 'LEFT', 'positionCoords': [282.2, 245.5], 'bid': 6.75}, {'imgObject': {}, 'id': 'fried eggs', 'src': '/static/foodstim60/fried eggs.jpg', 'key': 'i', 'origWidth': 410, 'origHeight': 410, 'width': 410, 'height': 410, 'widthPercent': 0.45, 'rescaleHeight': False, 'trialN': 84, 'loaded': True, 'loadedTime': 8504.5, 'positionName': 'RIGHT', 'positionCoords': [748.8, 245], 'bid': 7.68}]",133820.20000004768,1669830651688,mashed potato,fried eggs,6.75,7.68,0.9299999999999997,fried eggs,661.0999999642372,664,663.6999999880791,True,i,134988.5,1168.2999999523163,1669830652857,1169,HRV,HRV_0095,2022-11-30 17:53:14
85,"[{'imgObject': {}, 'id': 'Tribe humus pita', 'src': '/static/foodstim60/Tribe humus pita.jpg', 'key': 'u', 'origWidth': 411, 'origHeight': 411, 'width': 411, 'height': 411, 'widthPercent': 0.45, 'rescaleHeight': False, 'trialN': 85, 'loaded': True, 'loadedTime': 8581.700000047684, 'positionName': 'LEFT', 'positionCoords': [280.2, 244.5], 'bid': 2.37}, {'imgObject': {}, 'id': 'banana', 'src': '/static/foodstim60/banana.jpg', 'key': 'i', 'origWidth': 410, 'origHeight': 410, 'width': 410, 'height': 410, 'widthPercent': 0.45, 'rescaleHeight': False, 'trialN': 85, 'loaded': True, 'loadedTime': 8609.400000035763, 'positionName': 'RIGHT', 'positionCoords': [748.8, 245], 'bid': 1.87}]",134988.80000001192,1669830652857,Tribe humus pita,banana,2.37,1.87,-0.5,Tribe humus pita,568.5,571,570.9000000357628,True,u,136059.90000003576,1071.1000000238419,1669830653928,1071,HRV,HRV_0095,2022-11-30 17:53:14
86,"[{'imgObject': {}, 'id': 'sushi w_condiments', 'src': '/static/foodstim60/sushi w_condiments.jpg', 'key': 'u', 'origWidth': 410, 'origHeight': 410, 'width': 410, 'height': 410, 'widthPercent': 0.45, 'rescaleHeight': False, 'trialN': 86, 'loaded': True, 'loadedTime': 8333.200000047684, 'positionName': 'LEFT', 'positionCoords': [281.2, 245], 'bid': 0.27}, {'imgObject': {}, 'id': 'sweetpotato', 'src': '/static/foodstim60/sweetpotato.jpg', 'key': 'i', 'origWidth': 410, 'origHeight': 410, 'width': 410, 'height': 410, 'widthPercent': 0.45, 'rescaleHeight': False, 'trialN': 86, 'loaded': True, 'loadedTime': 8359.900000035763, 'positionName': 'RIGHT', 'positionCoords': [748.8, 245], 'bid': 5.72}]",136060.10000002384,1669830653928,sushi w_condiments,sweetpotato,0.27,5.72,5.449999999999999,sweetpotato,667.3999999761581,670,669.6999999880791,True,i,137233.40000003576,1173.300000011921,1669830655101,1173,HRV,HRV_0095,2022-11-30 17:53:14
87,"[{'imgObject': {}, 'id': 'steak', 'src': '/static/foodstim60/steak.jpg', 'key': 'u', 'origWidth': 410, 'origHeight': 410, 'width': 410, 'height': 410, 'widthPercent': 0.45, 'rescaleHeight': False, 'trialN': 87, 'loaded': True, 'loadedTime': 8490.600000023842, 'positionName': 'LEFT', 'positionCoords': [281.2, 245], 'bid': 0.84}, {'imgObject': {}, 'id': 'avocado', 'src': '/static/foodstim60/avocado.jpg', 'key': 'i', 'origWidth': 409, 'origHeight': 409, 'width': 409, 'height': 409, 'widthPercent': 0.45, 'rescaleHeight': False, 'trialN': 87, 'loaded': True, 'loadedTime': 8340.900000035763, 'positionName': 'RIGHT', 'positionCoords': [748.8, 245.5], 'bid': 0.75}]",137233.70000004768,1669830655102,steak,avocado,0.84,0.75,-0.08999999999999997,avocado,715.5,718,718.1999999880791,True,i,138455.80000001192,1222.0999999642372,1669830656324,1222,HRV,HRV_0095,2022-11-30 17:53:14
88,"[{'imgObject': {}, 'id': 'mac & cheese', 'src': '/static/foodstim60/mac & cheese.jpg', 'key': 'u', 'origWidth': 410, 'origHeight': 410, 'width': 410, 'height': 410, 'widthPercent': 0.45, 'rescaleHeight': False, 'trialN': 88, 'loaded': True, 'loadedTime': 8356.100000023842, 'positionName': 'LEFT', 'positionCoords': [281.2, 245], 'bid': 5.37}, {'imgObject': {}, 'id': 'bagel plain', 'src': '/static/foodstim60/bagel plain.jpg', 'key': 'i', 'origWidth': 410, 'origHeight': 410, 'width': 410, 'height': 410, 'widthPercent': 0.45, 'rescaleHeight': False, 'trialN': 88, 'loaded': True, 'loadedTime': 8637.800000011921, 'positionName': 'RIGHT', 'positionCoords': [748.8, 245], 'bid': 5.61}]",138456.0,1669830656324,mac & cheese,bagel plain,5.37,5.61,0.2400000000000002,bagel plain,761.3000000119209,764,763.8000000119209,True,i,139723.90000003576,1267.9000000357628,1669830657592,1268,HRV,HRV_0095,2022-11-30 17:53:14
89,"[{'imgObject': {}, 'id': 'chickenfingers', 'src': '/static/foodstim60/chickenfingers.jpg', 'key': 'u', 'origWidth': 410, 'origHeight': 410, 'width': 410, 'height': 410, 'widthPercent': 0.45, 'rescaleHeight': False, 'trialN': 89, 'loaded': True, 'loadedTime': 8464, 'positionName': 'LEFT', 'positionCoords': [281.2, 245], 'bid': 9.2}, {'imgObject': {}, 'id': 'mashed potato', 'src': '/static/foodstim60/mashed potato.jpg', 'key': 'i', 'origWidth': 409, 'origHeight': 409, 'width': 409, 'height': 409, 'widthPercent': 0.45, 'rescaleHeight': False, 'trialN': 89, 'loaded': True, 'loadedTime': 8554.200000047684, 'positionName': 'RIGHT', 'positionCoords': [748.8, 245.5], 'bid': 6.75}]",139724.20000004768,1669830657592,chickenfingers,mashed potato,9.2,6.75,-2.4499999999999993,chickenfingers,956.0,959,959.1999999880791,True,u,141187.70000004768,1463.5,1669830659055,1463,HRV,HRV_0095,2022-11-30 17:53:14
90,"[{'imgObject': {}, 'id': 'orange slices', 'src': '/static/foodstim60/orange slices.jpg', 'key': 'u', 'origWidth': 409, 'origHeight': 410, 'width': 409, 'height': 410, 'widthPercent': 0.45, 'rescaleHeight': False, 'trialN': 90, 'loaded': True, 'loadedTime': 8595.600000023842, 'positionName': 'LEFT', 'positionCoords': [282.2, 245], 'bid': 1.18}, {'imgObject': {}, 'id': 'cantaloupe', 'src': '/static/foodstim60/cantaloupe.jpg', 'key': 'i', 'origWidth': 409, 'origHeight': 409, 'width': 409, 'height': 409, 'widthPercent': 0.45, 'rescaleHeight': False, 'trialN': 90, 'loaded': True, 'loadedTime': 8357.900000035763, 'positionName': 'RIGHT', 'positionCoords': [748.8, 245.5], 'bid': 1.16}]",144615.20000004768,1669830662483,orange slices,cantaloupe,1.18,1.16,-0.020000000000000018,orange slices,1433.2999999523163,1435,1435.8999999761581,True,u,146551.80000001192,1936.5999999642372,1669830664419,1936,HRV,HRV_0095,2022-11-30 17:53:14
91,"[{'imgObject': {}, 'id': 'tacos', 'src': '/static/foodstim60/tacos.jpg', 'key': 'u', 'origWidth': 411, 'origHeight': 411, 'width': 411, 'height': 411, 'widthPercent': 0.45, 'rescaleHeight': False, 'trialN': 91, 'loaded': True, 'loadedTime': 8655, 'positionName': 'LEFT', 'positionCoords': [280.2, 244.5], 'bid': 8.81}, {'imgObject': {}, 'id': 'Tribe humus pita', 'src': '/static/foodstim60/Tribe humus pita.jpg', 'key': 'i', 'origWidth': 411, 'origHeight': 411, 'width': 411, 'height': 411, 'widthPercent': 0.45, 'rescaleHeight': False, 'trialN': 91, 'loaded': True, 'loadedTime': 8581.600000023842, 'positionName': 'RIGHT', 'positionCoords': [748.8, 244.5], 'bid': 2.37}]",146552.20000004768,1669830664419,tacos,Tribe humus pita,8.81,2.37,-6.44,tacos,860.2999999523163,863,862.6999999880791,True,u,147919.70000004768,1367.5,1669830665787,1368,HRV,HRV_0095,2022-11-30 17:53:14
92,"[{'imgObject': {}, 'id': 'luckycharms', 'src': '/static/foodstim60/luckycharms.jpg', 'key': 'u', 'origWidth': 410, 'origHeight': 409, 'width': 410, 'height': 409, 'widthPercent': 0.45, 'rescaleHeight': False, 'trialN': 92, 'loaded': True, 'loadedTime': 8345, 'positionName': 'LEFT', 'positionCoords': [281.2, 245.5], 'bid': 0.13}, {'imgObject': {}, 'id': 'seaweed', 'src': '/static/foodstim60/seaweed.jpg', 'key': 'i', 'origWidth': 410, 'origHeight': 410, 'width': 410, 'height': 410, 'widthPercent': 0.45, 'rescaleHeight': False, 'trialN': 92, 'loaded': True, 'loadedTime': 8393.400000035763, 'positionName': 'RIGHT', 'positionCoords': [748.8, 245], 'bid': 0.15}]",147920.0,1669830665787,luckycharms,seaweed,0.13,0.15,0.01999999999999999,luckycharms,737.6000000238419,740,740.2000000476837,True,u,149163.70000004768,1243.7000000476837,1669830667031,1244,HRV,HRV_0095,2022-11-30 17:53:14
93,"[{'imgObject': {}, 'id': 'popsicles', 'src': '/static/foodstim60/popsicles.jpg', 'key': 'u', 'origWidth': 410, 'origHeight': 410, 'width': 410, 'height': 410, 'widthPercent': 0.45, 'rescaleHeight': False, 'trialN': 93, 'loaded': True, 'loadedTime': 8652.800000011921, 'positionName': 'LEFT', 'positionCoords': [281.2, 245], 'bid': 3.72}, {'imgObject': {}, 'id': 'salmon', 'src': '/static/foodstim60/salmon.jpg', 'key': 'i', 'origWidth': 410, 'origHeight': 409, 'width': 410, 'height': 409, 'widthPercent': 0.45, 'rescaleHeight': False, 'trialN': 93, 'loaded': True, 'loadedTime': 8523.300000011921, 'positionName': 'RIGHT', 'positionCoords': [748.8, 245.5], 'bid': 4.2}]",149163.80000001192,1669830667031,popsicles,salmon,3.72,4.2,0.48,salmon,1148.1000000238419,1151,1150.6000000238419,True,i,150817.10000002384,1653.300000011921,1669830668684,1653,HRV,HRV_0095,2022-11-30 17:53:14
94,"[{'imgObject': {}, 'id': 'tacos', 'src': '/static/foodstim60/tacos.jpg', 'key': 'u', 'origWidth': 411, 'origHeight': 411, 'width': 411, 'height': 411, 'widthPercent': 0.45, 'rescaleHeight': False, 'trialN': 94, 'loaded': True, 'loadedTime': 8655, 'positionName': 'LEFT', 'positionCoords': [280.2, 244.5], 'bid': 8.81}, {'imgObject': {}, 'id': 'baked potato', 'src': '/static/foodstim60/baked potato.jpg', 'key': 'i', 'origWidth': 409, 'origHeight': 410, 'width': 409, 'height': 410, 'widthPercent': 0.45, 'rescaleHeight': False, 'trialN': 94, 'loaded': True, 'loadedTime': 8623.100000023842, 'positionName': 'RIGHT', 'positionCoords': [748.8, 245], 'bid': 7.88}]",150817.30000001192,1669830668684,tacos,baked potato,8.81,7.88,-0.9300000000000006,tacos,985.6000000238419,989,988.8000000119209,True,u,152307.80000001192,1490.5,1669830670175,1491,HRV,HRV_0095,2022-11-30 17:53:14
95,"[{'imgObject': {}, 'id': 'apple slices', 'src': '/static/foodstim60/apple slices.jpg', 'key': 'u', 'origWidth': 409, 'origHeight': 410, 'width': 409, 'height': 410, 'widthPercent': 0.45, 'rescaleHeight': False, 'trialN': 95, 'loaded': True, 'loadedTime': 8596, 'positionName': 'LEFT', 'positionCoords': [282.2, 245], 'bid': 1.81}, {'imgObject': {}, 'id': 'corn cob', 'src': '/static/foodstim60/corn cob.jpg', 'key': 'i', 'origWidth': 411, 'origHeight': 411, 'width': 411, 'height': 411, 'widthPercent': 0.45, 'rescaleHeight': False, 'trialN': 95, 'loaded': True, 'loadedTime': 8651.800000011921, 'positionName': 'RIGHT', 'positionCoords': [748.8, 244.5], 'bid': 0.7000000000000001}]",152308.0,1669830670175,apple slices,corn cob,1.81,0.7000000000000001,-1.1099999999999999,apple slices,876.4000000357628,877,877.5,True,u,153687.80000001192,1379.800000011921,1669830671555,1380,HRV,HRV_0095,2022-11-30 17:53:14
96,"[{'imgObject': {}, 'id': 'rigatoni', 'src': '/static/foodstim60/rigatoni.jpg', 'key': 'u', 'origWidth': 411, 'origHeight': 411, 'width': 411, 'height': 411, 'widthPercent': 0.45, 'rescaleHeight': False, 'trialN': 96, 'loaded': True, 'loadedTime': 8539.400000035763, 'positionName': 'LEFT', 'positionCoords': [280.2, 244.5], 'bid': 3.69}, {'imgObject': {}, 'id': 'luckycharms', 'src': '/static/foodstim60/luckycharms.jpg', 'key': 'i', 'origWidth': 410, 'origHeight': 409, 'width': 410, 'height': 409, 'widthPercent': 0.45, 'rescaleHeight': False, 'trialN': 96, 'loaded': True, 'loadedTime': 8344.900000035763, 'positionName': 'RIGHT', 'positionCoords': [748.8, 245.5], 'bid': 0.13}]",153688.10000002384,1669830671555,rigatoni,luckycharms,3.69,0.13,-3.56,rigatoni,711.6999999880791,714,714.0,True,u,154903.90000003576,1215.800000011921,1669830672771,1216,HRV,HRV_0095,2022-11-30 17:53:14
97,"[{'imgObject': {}, 'id': 'chicken nuggets2', 'src': '/static/foodstim60/chicken nuggets2.jpg', 'key': 'u', 'origWidth': 410, 'origHeight': 409, 'width': 410, 'height': 409, 'widthPercent': 0.45, 'rescaleHeight': False, 'trialN': 97, 'loaded': True, 'loadedTime': 8327.100000023842, 'positionName': 'LEFT', 'positionCoords': [281.2, 245.5], 'bid': 9.22}, {'imgObject': {}, 'id': 'chickenfingers', 'src': '/static/foodstim60/chickenfingers.jpg', 'key': 'i', 'origWidth': 410, 'origHeight': 410, 'width': 410, 'height': 410, 'widthPercent': 0.45, 'rescaleHeight': False, 'trialN': 97, 'loaded': True, 'loadedTime': 8464, 'positionName': 'RIGHT', 'positionCoords': [748.8, 245], 'bid': 9.2}]",154904.20000004768,1669830672771,chicken nuggets2,chickenfingers,9.22,9.2,-0.02000000000000135,chickenfingers,770.7999999523163,773,772.7999999523163,True,i,156179.70000004768,1275.5,1669830674047,1276,HRV,HRV_0095,2022-11-30 17:53:14
98,"[{'imgObject': {}, 'id': 'cherry tomato', 'src': '/static/foodstim60/cherry tomato.jpg', 'key': 'u', 'origWidth': 410, 'origHeight': 410, 'width': 410, 'height': 410, 'widthPercent': 0.45, 'rescaleHeight': False, 'trialN': 98, 'loaded': True, 'loadedTime': 8655.400000035763, 'positionName': 'LEFT', 'positionCoords': [281.2, 245], 'bid': 0.4}, {'imgObject': {}, 'id': 'cantaloupe', 'src': '/static/foodstim60/cantaloupe.jpg', 'key': 'i', 'origWidth': 409, 'origHeight': 409, 'width': 409, 'height': 409, 'widthPercent': 0.45, 'rescaleHeight': False, 'trialN': 98, 'loaded': True, 'loadedTime': 8358.600000023842, 'positionName': 'RIGHT', 'positionCoords': [748.8, 245.5], 'bid': 1.16}]",156180.0,1669830674047,cherry tomato,cantaloupe,0.4,1.16,0.7599999999999999,cantaloupe,1912.800000011921,1915,1915.5,True,i,158595.80000001192,2415.800000011921,1669830676462,2415,HRV,HRV_0095,2022-11-30 17:53:14
99,"[{'imgObject': {}, 'id': 'bagel plain', 'src': '/static/foodstim60/bagel plain.jpg', 'key': 'u', 'origWidth': 410, 'origHeight': 410, 'width': 410, 'height': 410, 'widthPercent': 0.45, 'rescaleHeight': False, 'trialN': 99, 'loaded': True, 'loadedTime': 8638.200000047684, 'positionName': 'LEFT', 'positionCoords': [281.2, 245], 'bid': 5.61}, {'imgObject': {}, 'id': 'cherries', 'src': '/static/foodstim60/cherries.jpg', 'key': 'i', 'origWidth': 410, 'origHeight': 411, 'width': 410, 'height': 411, 'widthPercent': 0.45, 'rescaleHeight': False, 'trialN': 99, 'loaded': True, 'loadedTime': 8652.400000035763, 'positionName': 'RIGHT', 'positionCoords': [748.8, 244.5], 'bid': 2.93}]",158596.10000002384,1669830676463,bagel plain,cherries,5.61,2.93,-2.68,bagel plain,801.6999999880791,804,804.1000000238419,True,u,159903.70000004768,1307.6000000238419,1669830677770,1307,HRV,HRV_0095,2022-11-30 17:53:14
100,"[{'imgObject': {}, 'id': 'blackbeanswithrice', 'src': '/static/foodstim60/blackbeanswithrice.jpg', 'key': 'u', 'origWidth': 410, 'origHeight': 410, 'width': 410, 'height': 410, 'widthPercent': 0.45, 'rescaleHeight': False, 'trialN': 100, 'loaded': True, 'loadedTime': 8504.5, 'positionName': 'LEFT', 'positionCoords': [281.2, 245], 'bid': 0.2}, {'imgObject': {}, 'id': 'granola w milk', 'src': '/static/foodstim60/granola w milk.jpg', 'key': 'i', 'origWidth': 410, 'origHeight': 410, 'width': 410, 'height': 410, 'widthPercent': 0.45, 'rescaleHeight': False, 'trialN': 100, 'loaded': True, 'loadedTime': 8654, 'positionName': 'RIGHT', 'positionCoords': [748.8, 245], 'bid': 0.19}]",159903.90000003576,1669830677770,blackbeanswithrice,granola w milk,0.2,0.19,-0.010000000000000009,blackbeanswithrice,1318.800000011921,1322,1321.0999999642372,True,u,161727.80000001192,1823.8999999761581,1669830679594,1824,HRV,HRV_0095,2022-11-30 17:53:14
101,"[{'imgObject': {}, 'id': 'shreddedwheatwithmilk', 'src': '/static/foodstim60/shreddedwheatwithmilk.jpg', 'key': 'u', 'origWidth': 410, 'origHeight': 410, 'width': 410, 'height': 410, 'widthPercent': 0.45, 'rescaleHeight': False, 'trialN': 101, 'loaded': True, 'loadedTime': 8638.200000047684, 'positionName': 'LEFT', 'positionCoords': [281.2, 245], 'bid': 0.13}, {'imgObject': {}, 'id': 'edamame', 'src': '/static/foodstim60/edamame.jpg', 'key': 'i', 'origWidth': 409, 'origHeight': 410, 'width': 409, 'height': 410, 'widthPercent': 0.45, 'rescaleHeight': False, 'trialN': 101, 'loaded': True, 'loadedTime': 8656.100000023842, 'positionName': 'RIGHT', 'positionCoords': [748.8, 245], 'bid': 0.09}]",161728.10000002384,1669830679595,shreddedwheatwithmilk,edamame,0.13,0.09,-0.04000000000000001,shreddedwheatwithmilk,786.8000000119209,789,789.8000000119209,True,u,163019.80000001192,1291.699999988079,1669830680886,1291,HRV,HRV_0095,2022-11-30 17:53:14
102,"[{'imgObject': {}, 'id': 'salmon', 'src': '/static/foodstim60/salmon.jpg', 'key': 'u', 'origWidth': 410, 'origHeight': 409, 'width': 410, 'height': 409, 'widthPercent': 0.45, 'rescaleHeight': False, 'trialN': 102, 'loaded': True, 'loadedTime': 8524.700000047684, 'positionName': 'LEFT', 'positionCoords': [281.2, 245.5], 'bid': 4.2}, {'imgObject': {}, 'id': 'salad w chicken', 'src': '/static/foodstim60/salad w chicken.jpg', 'key': 'i', 'origWidth': 411, 'origHeight': 411, 'width': 411, 'height': 411, 'widthPercent': 0.45, 'rescaleHeight': False, 'trialN': 102, 'loaded': True, 'loadedTime': 8449.700000047684, 'positionName': 'RIGHT', 'positionCoords': [748.8, 244.5], 'bid': 7.58}]",163020.10000002384,1669830680887,salmon,salad w chicken,4.2,7.58,3.38,salmon,750.6999999880791,753,753.1000000238419,True,u,164275.70000004768,1255.6000000238419,1669830682142,1255,HRV,HRV_0095,2022-11-30 17:53:14
103,"[{'imgObject': {}, 'id': 'rigatoni', 'src': '/static/foodstim60/rigatoni.jpg', 'key': 'u', 'origWidth': 411, 'origHeight': 411, 'width': 411, 'height': 411, 'widthPercent': 0.45, 'rescaleHeight': False, 'trialN': 103, 'loaded': True, 'loadedTime': 8538.600000023842, 'positionName': 'LEFT', 'positionCoords': [280.2, 244.5], 'bid': 3.69}, {'imgObject': {}, 'id': 'blueberries', 'src': '/static/foodstim60/blueberries.jpg', 'key': 'i', 'origWidth': 411, 'origHeight': 411, 'width': 411, 'height': 411, 'widthPercent': 0.45, 'rescaleHeight': False, 'trialN': 103, 'loaded': True, 'loadedTime': 8345.700000047684, 'positionName': 'RIGHT', 'positionCoords': [748.8, 244.5], 'bid': 6.16}]",164275.90000003576,1669830682142,rigatoni,blueberries,3.69,6.16,2.47,rigatoni,765.0999999642372,768,767.6999999880791,True,u,165547.5,1271.5999999642372,1669830683414,1272,HRV,HRV_0095,2022-11-30 17:53:14
104,"[{'imgObject': {}, 'id': 'edamame', 'src': '/static/foodstim60/edamame.jpg', 'key': 'u', 'origWidth': 409, 'origHeight': 410, 'width': 409, 'height': 410, 'widthPercent': 0.45, 'rescaleHeight': False, 'trialN': 104, 'loaded': True, 'loadedTime': 8656.100000023842, 'positionName': 'LEFT', 'positionCoords': [282.2, 245], 'bid': 0.09}, {'imgObject': {}, 'id': 'granola w milk', 'src': '/static/foodstim60/granola w milk.jpg', 'key': 'i', 'origWidth': 410, 'origHeight': 410, 'width': 410, 'height': 410, 'widthPercent': 0.45, 'rescaleHeight': False, 'trialN': 104, 'loaded': True, 'loadedTime': 8653.900000035763, 'positionName': 'RIGHT', 'positionCoords': [748.8, 245], 'bid': 0.19}]",165547.70000004768,1669830683414,edamame,granola w milk,0.09,0.19,0.1,granola w milk,645.0,648,647.3999999761581,True,i,166695.80000001192,1148.0999999642372,1669830684562,1148,HRV,HRV_0095,2022-11-30 17:53:14
105,"[{'imgObject': {}, 'id': 'raisin bran w milk', 'src': '/static/foodstim60/raisin bran w milk.jpg', 'key': 'u', 'origWidth': 411, 'origHeight': 411, 'width': 411, 'height': 411, 'widthPercent': 0.45, 'rescaleHeight': False, 'trialN': 105, 'loaded': True, 'loadedTime': 8528.400000035763, 'positionName': 'LEFT', 'positionCoords': [280.2, 244.5], 'bid': 0.2}, {'imgObject': {}, 'id': 'apple slices', 'src': '/static/foodstim60/apple slices.jpg', 'key': 'i', 'origWidth': 409, 'origHeight': 410, 'width': 409, 'height': 410, 'widthPercent': 0.45, 'rescaleHeight': False, 'trialN': 105, 'loaded': True, 'loadedTime': 8595.600000023842, 'positionName': 'RIGHT', 'positionCoords': [748.8, 245], 'bid': 1.81}]",166696.0,1669830684562,raisin bran w milk,apple slices,0.2,1.81,1.61,apple slices,823.9000000357628,827,826.4000000357628,True,i,168023.80000001192,1327.800000011921,1669830685890,1328,HRV,HRV_0095,2022-11-30 17:53:14
106,"[{'imgObject': {}, 'id': 'hotdog w must', 'src': '/static/foodstim60/hotdog w must.jpg', 'key': 'u', 'origWidth': 409, 'origHeight': 409, 'width': 409, 'height': 409, 'widthPercent': 0.45, 'rescaleHeight': False, 'trialN': 106, 'loaded': True, 'loadedTime': 8568.200000047684, 'positionName': 'LEFT', 'positionCoords': [282.2, 245.5], 'bid': 1.86}, {'imgObject': {}, 'id': 'salmon', 'src': '/static/foodstim60/salmon.jpg', 'key': 'i', 'origWidth': 410, 'origHeight': 409, 'width': 410, 'height': 409, 'widthPercent': 0.45, 'rescaleHeight': False, 'trialN': 106, 'loaded': True, 'loadedTime': 8524.700000047684, 'positionName': 'RIGHT', 'positionCoords': [748.8, 245.5], 'bid': 4.2}]",168024.10000002384,1669830685890,hotdog w must,salmon,1.86,4.2,2.34,salmon,808.8000000119209,812,811.1999999880791,True,i,169335.80000001192,1311.699999988079,1669830687202,1312,HRV,HRV_0095,2022-11-30 17:53:14
107,"[{'imgObject': {}, 'id': 'steak', 'src': '/static/foodstim60/steak.jpg', 'key': 'u', 'origWidth': 410, 'origHeight': 410, 'width': 410, 'height': 410, 'widthPercent': 0.45, 'rescaleHeight': False, 'trialN': 107, 'loaded': True, 'loadedTime': 8477, 'positionName': 'LEFT', 'positionCoords': [281.2, 245], 'bid': 0.84}, {'imgObject': {}, 'id': 'cheerios', 'src': '/static/foodstim60/cheerios.jpg', 'key': 'i', 'origWidth': 409, 'origHeight': 410, 'width': 409, 'height': 410, 'widthPercent': 0.45, 'rescaleHeight': False, 'trialN': 107, 'loaded': True, 'loadedTime': 8568.300000011921, 'positionName': 'RIGHT', 'positionCoords': [748.8, 245], 'bid': 0.25}]",169336.20000004768,1669830687202,steak,cheerios,0.84,0.25,-0.59,steak,2035.5,2038,2038.0,True,u,171875.80000001192,2539.599999964237,1669830689742,2540,HRV,HRV_0095,2022-11-30 17:53:14
108,"[{'imgObject': {}, 'id': 'strawberries', 'src': '/static/foodstim60/strawberries.jpg', 'key': 'u', 'origWidth': 410, 'origHeight': 410, 'width': 410, 'height': 410, 'widthPercent': 0.45, 'rescaleHeight': False, 'trialN': 108, 'loaded': True, 'loadedTime': 8373.900000035763, 'positionName': 'LEFT', 'positionCoords': [281.2, 245], 'bid': 5.91}, {'imgObject': {}, 'id': 'eggsalad', 'src': '/static/foodstim60/eggsalad.jpg', 'key': 'i', 'origWidth': 410, 'origHeight': 409, 'width': 410, 'height': 409, 'widthPercent': 0.45, 'rescaleHeight': False, 'trialN': 108, 'loaded': True, 'loadedTime': 8637.700000047684, 'positionName': 'RIGHT', 'positionCoords': [748.8, 245.5], 'bid': 5.63}]",171876.10000002384,1669830689742,strawberries,eggsalad,5.91,5.63,-0.28000000000000025,eggsalad,991.6999999880791,995,994.6999999880791,True,i,173371.20000004768,1495.1000000238419,1669830691237,1495,HRV,HRV_0095,2022-11-30 17:53:14
109,"[{'imgObject': {}, 'id': 'yogurt no spoon', 'src': '/static/foodstim60/yogurt no spoon.jpg', 'key': 'u', 'origWidth': 411, 'origHeight': 410, 'width': 411, 'height': 410, 'widthPercent': 0.45, 'rescaleHeight': False, 'trialN': 109, 'loaded': True, 'loadedTime': 8491.300000011921, 'positionName': 'LEFT', 'positionCoords': [280.2, 245], 'bid': 5.62}, {'imgObject': {}, 'id': 'eggsalad', 'src': '/static/foodstim60/eggsalad.jpg', 'key': 'i', 'origWidth': 410, 'origHeight': 409, 'width': 410, 'height': 409, 'widthPercent': 0.45, 'rescaleHeight': False, 'trialN': 109, 'loaded': True, 'loadedTime': 8637.700000047684, 'positionName': 'RIGHT', 'positionCoords': [748.8, 245.5], 'bid': 5.63}]",173371.40000003576,1669830691237,yogurt no spoon,eggsalad,5.62,5.63,0.009999999999999787,yogurt no spoon,681.5,684,684.0999999642372,True,u,174556.0,1184.5999999642372,1669830692422,1185,HRV,HRV_0095,2022-11-30 17:53:14
