success,trial_type,trial_index,time_elapsed,internal_node_id,Block,TrialNumber,TrialTime,trialTimeDiff,FPS_avg,FPS_med,FPS_mode,TrialDur,winResizeTime,rt,block,button_pressed,MotCoh,MotDir,ColCoh,Color,ChoiceKey,Choice,Accuracy,RT,nFrames,FPS,PPD,missTrial,missTrialMsg,onsetDelay,fullScreenExitTime,canvCenter,TrialType,Score,BlockTrial,stimulus,button_labels,exp,subjectId,date
True,fullscreen,0,2555,0.0-0.0,0.0,1.0,,,,,,,,,,,,,,,,,,,,,,,,,,,,,,,,HRV,HRV_0095,2022-11-30 18:02:41
,wl-check-fps,1,7549,0.0-1.0,0.0,2.0,"[3727.1, 3734, 3750.9, 3766.5, 3784.6, 3800.1, 3817.6, 3834.7, 3851.9, 3868.1, 3885.1, 3900.9, 3918, 3935, 3950.5, 3968.5, 3985.4, 4001.1, 4017.3, 4035.1, 4051.1, 4067.9, 4083.6, 4101.1, 4117.5, 4133.8, 4151.8, 4167.7, 4184.8, 4201.2, 4218.2, 4235, 4250.9, 4267.8, 4284.9, 4300.6, 4318.2, 4335.2, 4351.2, 4368.2, 4385, 4401.5, 4418.5, 4434.1, 4451.6, 4467.2, 4484.9, 4501.5, 4517.6, 4534.1, 4551.3, 4568, 4585.2, 4601.4, 4617.2, 4633.8, 4652, 4667.8, 4684.9, 4700.6, 4718.7, 4735.1, 4751.8, 4768.1, 4783.9, 4800.5, 4818.1, 4834, 4851.4, 4868.3, 4884.1, 4901.2, 4918, 4935.1, 4951.8, 4967.2, 4984.4, 5000.6, 5018, 5035, 5052.1, 5067.8, 5084.6, 5102, 5118.1, 5135.3, 5152, 5168.2, 5184.8, 5201.1, 5217.3, 5234.5, 5251.9, 5267.8, 5285.4, 5301.4, 5317.7, 5334.1, 5350.6, 5367.4, 5384.4, 5401.6, 5417.8, 5435.1, 5451.2, 5468.6, 5484.4, 5501.6, 5518.3, 5535.2, 5552.1, 5567.8, 5584.8, 5601, 5617.4, 5633.6, 5651.3, 5668.7, 5685.2, 5701.8, 5717.7, 5734.9, 5751.3, 5767.8, 5783.1, 5799.9, 5818.1, 5833.4, 5851.3, 5868.6, 5885.8, 5901.6, 5918, 5935.3, 5950.7, 5967.4, 5984.6, 6001.9, 6017.9, 6035.1, 6051.3, 6068.2, 6084.7, 6101.9, 6118.2, 6135.4, 6152.2, 6168.6, 6185.5, 6201.7, 6218.3, 6234.4, 6251.9, 6268, 6284.9, 6300.7, 6318.3, 6334.8, 6350.8, 6367.9, 6384.1, 6401, 6418.4, 6434.3, 6451.2, 6468.8, 6484.9, 6502, 6517.4, 6534.3, 6551.4, 6568.3, 6584, 6601.9, 6617.5, 6634.4, 6651, 6668.7, 6684.6, 6700.8, 6718.1, 6734.5, 6751.1, 6768.1, 6783.4, 6800.7, 6817.7, 6833.9, 6851.6, 6867.6, 6884.6, 6900.5, 6917.9, 6934.3, 6950.3, 6967.7, 6983.8, 7000.6, 7018.7, 7034.1, 7051.7, 7067.6, 7084.4, 7100.9, 7117.3, 7135.3, 7151.2, 7168.6, 7185.2, 7200.6, 7217.9, 7235.4, 7251.9, 7268.3, 7284.9, 7301.8, 7317.5, 7335.3, 7351.6, 7367.4, 7384.4, 7401.7, 7418.4, 7434.5, 7451.5, 7467.5, 7484.9, 7501.1, 7517.4, 7534.7, 7552, 7568.1, 7585, 7600.8, 7617.8, 7634.7, 7650.4, 7668.8, 7684.3, 7702, 7718.1, 7735.1, 7751.3, 7767.3, 7784.5, 7800.3, 7817.6, 7834.5, 7851.4, 7867.3, 7884.4, 7901, 7918.1, 7934.1, 7950.8, 7968.5, 7984.9, 8000.8, 8017.9, 8034.4, 8050.7, 8067.6, 8085.1, 8101.3, 8117.6, 8135.1, 8151.1, 8168.7, 8185.1, 8200.8, 8217.7, 8234.1, 8250.9, 8267.9, 8283.8, 8300.4, 8318.7, 8334.4, 8351.3, 8368.1, 8384.7, 8401.6, 8417.7, 8434.2, 8451.1, 8467.7, 8485.2, 8501.6, 8517.2, 8534.1, 8551.8, 8568.2, 8584.1, 8600.9, 8617.9, 8634.2, 8651.9, 8668.6, 8684.6, 8701.1]","[1.6, 6.9, 16.9, 15.6, 18.1, 15.5, 17.5, 17.1, 17.2, 16.2, 17, 15.8, 17.1, 17, 15.5, 18, 16.9, 15.7, 16.2, 17.8, 16, 16.8, 15.7, 17.5, 16.4, 16.3, 18, 15.9, 17.1, 16.4, 17, 16.8, 15.9, 16.9, 17.1, 15.7, 17.6, 17, 16, 17, 16.8, 16.5, 17, 15.6, 17.5, 15.6, 17.7, 16.6, 16.1, 16.5, 17.2, 16.7, 17.2, 16.2, 15.8, 16.6, 18.2, 15.8, 17.1, 15.7, 18.1, 16.4, 16.7, 16.3, 15.8, 16.6, 17.6, 15.9, 17.4, 16.9, 15.8, 17.1, 16.8, 17.1, 16.7, 15.4, 17.2, 16.2, 17.4, 17, 17.1, 15.7, 16.8, 17.4, 16.1, 17.2, 16.7, 16.2, 16.6, 16.3, 16.2, 17.2, 17.4, 15.9, 17.6, 16, 16.3, 16.4, 16.5, 16.8, 17, 17.2, 16.2, 17.3, 16.1, 17.4, 15.8, 17.2, 16.7, 16.9, 16.9, 15.7, 17, 16.2, 16.4, 16.2, 17.7, 17.4, 16.5, 16.6, 15.9, 17.2, 16.4, 16.5, 15.3, 16.8, 18.2, 15.3, 17.9, 17.3, 17.2, 15.8, 16.4, 17.3, 15.4, 16.7, 17.2, 17.3, 16, 17.2, 16.2, 16.9, 16.5, 17.2, 16.3, 17.2, 16.8, 16.4, 16.9, 16.2, 16.6, 16.1, 17.5, 16.1, 16.9, 15.8, 17.6, 16.5, 16, 17.1, 16.2, 16.9, 17.4, 15.9, 16.9, 17.6, 16.1, 17.1, 15.4, 16.9, 17.1, 16.9, 15.7, 17.9, 15.6, 16.9, 16.6, 17.7, 15.9, 16.2, 17.3, 16.4, 16.6, 17, 15.3, 17.3, 17, 16.2, 17.7, 16, 17, 15.9, 17.4, 16.4, 16, 17.4, 16.1, 16.8, 18.1, 15.4, 17.6, 15.9, 16.8, 16.5, 16.4, 18, 15.9, 17.4, 16.6, 15.4, 17.3, 17.5, 16.5, 16.4, 16.6, 16.9, 15.7, 17.8, 16.3, 15.8, 17, 17.3, 16.7, 16.1, 17, 16, 17.4, 16.2, 16.3, 17.3, 17.3, 16.1, 16.9, 15.8, 17, 16.9, 15.7, 18.4, 15.5, 17.7, 16.1, 17, 16.2, 16, 17.2, 15.8, 17.3, 16.9, 16.9, 15.9, 17.1, 16.6, 17.1, 16, 16.7, 17.7, 16.4, 15.9, 17.1, 16.5, 16.3, 16.9, 17.5, 16.2, 16.3, 17.5, 16, 17.6, 16.4, 15.7, 16.9, 16.4, 16.8, 17, 15.9, 16.6, 18.3, 15.7, 16.9, 16.8, 16.6, 16.9, 16.1, 16.5, 16.9, 16.6, 17.5, 16.4, 15.6, 16.9, 17.7, 16.4, 15.9, 16.8, 17, 16.3, 17.7, 16.7, 16, 16.5]",60.0,61.0,59.0,4992.5,[],,,,,,,,,,,,,,,,,,,,,,,,,HRV,HRV_0095,2022-11-30 18:02:41
,wl-html-keyboard-response,2,23334,0.0-2.0-0.0,0.0,3.0,,,,,,,,13777.899999976158,0.0,0,,,,,,,,,,,,,,,,,,,,,,HRV,HRV_0095,2022-11-30 18:02:41
,wl-rdm,3,30746,0.0-3.0-0.0,0.0,4.0,,,,,,,[],,,,0.0,0.0,87.9,0.0,u,0.0,True,1835.1000000238419,111.0,59.0,40.0,False,,3000.0,[],"[720, 450]",ColorTask_Demo,,,,,HRV,HRV_0095,2022-11-30 18:02:41
,wl-rdm,4,36330,0.0-3.0-1.0,0.0,5.0,,,,,,,[],,,,0.0,0.0,87.9,1.0,i,1.0,True,1505.9999999403954,91.0,59.0,40.0,False,,2000.0,[],"[720, 450]",ColorTask_Demo,,,,,HRV,HRV_0095,2022-11-30 18:02:41
,wl-html-keyboard-response,5,39953,0.0-3.0-2.0,0.0,6.0,,,,,,,,1615.3999999761581,0.0,1,,,,,,,,,,,,,,,,,,,,,,HRV,HRV_0095,2022-11-30 18:02:41
,wl-html-keyboard-response,6,54862,0.0-4.0-0.0,0.0,7.0,,,,,,,,12902.300000011921,0.0,0,,,,,,,,,,,,,,,,,,,,,,HRV,HRV_0095,2022-11-30 18:02:41
,wl-html-keyboard-response,7,72136,0.0-5.0-0.0,0.0,8.0,,,,,,,,15268.0,0.0,0,,,,,,,,,,,,,,,,,,,,,,HRV,HRV_0095,2022-11-30 18:02:41
,wl-rdm,8,74397,0.0-6.0-0.0,0.0,9.0,,,,,,,[],,,,,,62.5,0.0,u,0.0,True,855.2999999523163,52.0,59.0,40.0,False,,324.84324248630014,[],"[720, 450]",ColorTask,1.0,1.0,,,HRV,HRV_0095,2022-11-30 18:02:41
,wl-rdm,9,76630,0.0-6.1-0.1,0.0,10.0,,,,,,,[],,,,,,62.5,0.0,u,0.0,True,938.1000000238419,57.0,59.0,40.0,False,,208.76859701168576,[],"[720, 450]",ColorTask,2.0,2.0,,,HRV,HRV_0095,2022-11-30 18:02:41
,wl-rdm,10,78630,0.0-6.2-0.2,0.0,11.0,,,,,,,[],,,,,,87.9,0.0,u,0.0,True,722.6999999284744,44.0,59.0,40.0,False,,203.89084115528826,[],"[720, 450]",ColorTask,3.0,3.0,,,HRV,HRV_0095,2022-11-30 18:02:41
,wl-rdm,11,80696,0.0-6.3-0.3,0.0,12.0,,,,,,,[],,,,,,73.6,0.0,u,0.0,True,720.1000000238419,44.0,59.0,40.0,False,,270.63225512224324,[],"[720, 450]",ColorTask,4.0,4.0,,,HRV,HRV_0095,2022-11-30 18:02:41
,wl-rdm,12,82647,0.0-6.4-0.4,0.0,13.0,,,,,,,[],,,,,,87.9,1.0,i,1.0,True,680.5,41.0,59.0,40.0,False,,201.86579272261454,[],"[720, 450]",ColorTask,5.0,5.0,,,HRV,HRV_0095,2022-11-30 18:02:41
,wl-rdm,13,84513,0.0-6.5-0.5,0.0,14.0,,,,,,,[],,,,,,62.5,0.0,u,0.0,True,581.1000000238419,35.0,59.0,40.0,False,,218.7226882899648,[],"[720, 450]",ColorTask,6.0,6.0,,,HRV,HRV_0095,2022-11-30 18:02:41
,wl-rdm,14,86514,0.0-6.6-0.6,0.0,15.0,,,,,,,[],,,,,,56.4,1.0,i,1.0,True,655.0,40.0,59.0,40.0,False,,250.70474914164453,[],"[720, 450]",ColorTask,7.0,7.0,,,HRV,HRV_0095,2022-11-30 18:02:41
,wl-rdm,15,88581,0.0-6.7-0.7,0.0,16.0,,,,,,,[],,,,,,53.2,1.0,i,1.0,True,756.2999999523163,46.0,59.0,40.0,False,,220.8674849449549,[],"[720, 450]",ColorTask,8.0,8.0,,,HRV,HRV_0095,2022-11-30 18:02:41
,wl-rdm,16,91264,0.0-6.8-0.8,0.0,17.0,,,,,,,[],,,,,,53.2,0.0,u,0.0,True,1262.6000000238419,76.0,59.0,40.0,False,,353.98619058498866,[],"[720, 450]",ColorTask,9.0,9.0,,,HRV,HRV_0095,2022-11-30 18:02:41
,wl-rdm,17,93280,0.0-6.9-0.9,0.0,18.0,,,,,,,[],,,,,,62.5,1.0,i,1.0,True,627.6999999880791,38.0,59.0,40.0,False,,331.0100514854712,[],"[720, 450]",ColorTask,10.0,10.0,,,HRV,HRV_0095,2022-11-30 18:02:41
,wl-rdm,18,95329,0.0-6.10-0.10,0.0,19.0,,,,,,,[],,,,,,73.6,0.0,u,0.0,True,674.6000000238419,41.0,59.0,40.0,False,,307.30926482710095,[],"[720, 450]",ColorTask,11.0,11.0,,,HRV,HRV_0095,2022-11-30 18:02:41
,wl-rdm,19,97330,0.0-6.11-0.11,0.0,20.0,,,,,,,[],,,,,,50.0,1.0,i,1.0,True,670.4000000357628,41.0,59.0,40.0,False,,249.78878379854308,[],"[720, 450]",ColorTask,12.0,12.0,,,HRV,HRV_0095,2022-11-30 18:02:41
,wl-rdm,20,99596,0.0-6.12-0.12,0.0,21.0,,,,,,,[],,,,,,50.0,0.0,u,0.0,True,952.5999999642372,58.0,59.0,40.0,False,,232.7869253582182,[],"[720, 450]",ColorTask,13.0,13.0,,,HRV,HRV_0095,2022-11-30 18:02:41
,wl-rdm,21,101763,0.0-6.13-0.13,0.0,22.0,,,,,,,[],,,,,,56.4,1.0,i,1.0,True,824.5,50.0,59.0,40.0,False,,280.85821381337405,[],"[720, 450]",ColorTask,14.0,14.0,,,HRV,HRV_0095,2022-11-30 18:02:41
,wl-rdm,22,103796,0.0-6.14-0.14,0.0,23.0,,,,,,,[],,,,,,87.9,1.0,i,1.0,True,731.1999999284744,44.0,59.0,40.0,False,,227.47317024285007,[],"[720, 450]",ColorTask,15.0,15.0,,,HRV,HRV_0095,2022-11-30 18:02:41
,wl-rdm,23,105981,0.0-6.15-0.15,0.0,24.0,,,,,,,[],,,,,,62.5,1.0,i,1.0,True,803.5999999642372,49.0,59.0,40.0,False,,302.87396375716764,[],"[720, 450]",ColorTask,16.0,16.0,,,HRV,HRV_0095,2022-11-30 18:02:41
,wl-rdm,24,108313,0.0-6.16-0.16,0.0,25.0,,,,,,,[],,,,,,50.0,1.0,i,1.0,True,897.6000000238419,54.0,59.0,40.0,False,,380.18356528291145,[],"[720, 450]",ColorTask,17.0,17.0,,,HRV,HRV_0095,2022-11-30 18:02:41
,wl-rdm,25,111263,0.0-6.17-0.17,0.0,26.0,,,,,,,[],,,,,,50.0,1.0,u,0.0,False,1545.0999999642372,93.0,59.0,40.0,False,,338.277806111587,[],"[720, 450]",ColorTask,16.0,18.0,,,HRV,HRV_0095,2022-11-30 18:02:41
,wl-rdm,26,113263,0.0-6.18-0.18,0.0,27.0,,,,,,,[],,,,,,87.9,0.0,u,0.0,True,536.5999999642372,33.0,59.0,40.0,False,,393.7183949880504,[],"[720, 450]",ColorTask,17.0,19.0,,,HRV,HRV_0095,2022-11-30 18:02:41
,wl-rdm,27,115247,0.0-6.19-0.19,0.0,28.0,,,,,,,[],,,,,,53.2,0.0,u,0.0,True,645.3999999761581,39.0,59.0,40.0,False,,265.4915278871835,[],"[720, 450]",ColorTask,18.0,20.0,,,HRV,HRV_0095,2022-11-30 18:02:41
,wl-rdm,28,117146,0.0-6.20-0.20,0.0,29.0,,,,,,,[],,,,,,53.2,1.0,i,1.0,True,584.0999999642372,36.0,59.0,40.0,False,,229.10859416549778,[],"[720, 450]",ColorTask,19.0,21.0,,,HRV,HRV_0095,2022-11-30 18:02:41
,wl-rdm,29,119113,0.0-6.21-0.21,0.0,30.0,,,,,,,[],,,,,,73.6,0.0,u,0.0,True,553.1999999880791,34.0,59.0,40.0,False,,317.57385812304096,[],"[720, 450]",ColorTask,20.0,22.0,,,HRV,HRV_0095,2022-11-30 18:02:41
,wl-rdm,30,120929,0.0-6.22-0.22,0.0,31.0,,,,,,,[],,,,,,87.9,1.0,i,1.0,True,480.69999998807907,29.0,59.0,40.0,False,,259.67793364567365,[],"[720, 450]",ColorTask,21.0,23.0,,,HRV,HRV_0095,2022-11-30 18:02:41
,wl-rdm,31,122812,0.0-6.23-0.23,0.0,32.0,,,,,,,[],,,,,,62.5,0.0,u,0.0,True,577.1999999284744,35.0,59.0,40.0,False,,227.23116229761837,[],"[720, 450]",ColorTask,22.0,24.0,,,HRV,HRV_0095,2022-11-30 18:02:41
,wl-rdm,32,124762,0.0-6.24-0.24,0.0,33.0,,,,,,,[],,,,,,53.2,0.0,u,0.0,True,656.0,40.0,59.0,40.0,False,,206.08785978133398,[],"[720, 450]",ColorTask,23.0,25.0,,,HRV,HRV_0095,2022-11-30 18:02:41
,wl-rdm,33,126897,0.0-6.25-0.25,0.0,34.0,,,,,,,[],,,,,,62.5,0.0,u,0.0,True,729.0999999642372,44.0,59.0,40.0,False,,328.46113261443793,[],"[720, 450]",ColorTask,24.0,26.0,,,HRV,HRV_0095,2022-11-30 18:02:41
,wl-rdm,34,128896,0.0-6.26-0.26,0.0,35.0,,,,,,,[],,,,,,56.4,0.0,u,0.0,True,643.6000000238419,39.0,59.0,40.0,False,,277.6245645978011,[],"[720, 450]",ColorTask,25.0,27.0,,,HRV,HRV_0095,2022-11-30 18:02:41
,wl-rdm,35,130813,0.0-6.27-0.27,0.0,36.0,,,,,,,[],,,,,,56.4,1.0,u,0.0,False,627.0000000596046,38.0,59.0,40.0,False,,222.89925661072033,[],"[720, 450]",ColorTask,24.0,28.0,,,HRV,HRV_0095,2022-11-30 18:02:41
,wl-rdm,36,132563,0.0-6.28-0.28,0.0,37.0,,,,,,,[],,,,,,50.0,0.0,i,1.0,False,456.30000001192093,28.0,59.0,40.0,False,,202.52820293068984,[],"[720, 450]",ColorTask,23.0,29.0,,,HRV,HRV_0095,2022-11-30 18:02:41
,wl-rdm,37,134480,0.0-6.29-0.29,0.0,38.0,,,,,,,[],,,,,,62.5,1.0,i,1.0,True,504.60000002384186,31.0,59.0,40.0,False,,329.832220634339,[],"[720, 450]",ColorTask,24.0,30.0,,,HRV,HRV_0095,2022-11-30 18:02:41
,wl-rdm,38,136462,0.0-6.30-0.30,0.0,39.0,,,,,,,[],,,,,,62.5,1.0,i,1.0,True,702.3000000119209,43.0,59.0,40.0,False,,211.77801565507937,[],"[720, 450]",ColorTask,25.0,31.0,,,HRV,HRV_0095,2022-11-30 18:02:41
,wl-rdm,39,138395,0.0-6.31-0.31,0.0,40.0,,,,,,,[],,,,,,50.0,1.0,i,1.0,True,577.3999999761581,35.0,59.0,40.0,False,,267.6781552260511,[],"[720, 450]",ColorTask,26.0,32.0,,,HRV,HRV_0095,2022-11-30 18:02:41
,wl-rdm,40,140645,0.0-6.32-0.32,0.0,41.0,,,,,,,[],,,,,,50.0,0.0,u,0.0,True,873.6000000238419,53.0,59.0,40.0,False,,298.5249859752011,[],"[720, 450]",ColorTask,27.0,33.0,,,HRV,HRV_0095,2022-11-30 18:02:41
,wl-rdm,41,142612,0.0-6.33-0.33,0.0,42.0,,,,,,,[],,,,,,73.6,1.0,i,1.0,True,528.0,32.0,59.0,40.0,False,,376.45686777314165,[],"[720, 450]",ColorTask,28.0,34.0,,,HRV,HRV_0095,2022-11-30 18:02:41
,wl-rdm,42,144779,0.0-6.34-0.34,0.0,43.0,,,,,,,[],,,,,,50.0,0.0,i,1.0,False,728.5,44.0,59.0,40.0,False,,349.8058248240199,[],"[720, 450]",ColorTask,27.0,35.0,,,HRV,HRV_0095,2022-11-30 18:02:41
,wl-rdm,43,146863,0.0-6.35-0.35,0.0,44.0,,,,,,,[],,,,,,50.0,1.0,i,1.0,True,671.8000000119209,41.0,59.0,40.0,False,,318.88151145678836,[],"[720, 450]",ColorTask,28.0,36.0,,,HRV,HRV_0095,2022-11-30 18:02:41
,wl-rdm,44,148763,0.0-6.36-0.36,0.0,45.0,,,,,,,[],,,,,,62.5,0.0,i,1.0,False,603.0,37.0,59.0,40.0,False,,224.47257619290167,[],"[720, 450]",ColorTask,27.0,37.0,,,HRV,HRV_0095,2022-11-30 18:02:41
,wl-rdm,45,150879,0.0-6.37-0.37,0.0,46.0,,,,,,,[],,,,,,50.0,0.0,i,1.0,False,691.4000000357628,42.0,59.0,40.0,False,,356.9097014966165,[],"[720, 450]",ColorTask,26.0,38.0,,,HRV,HRV_0095,2022-11-30 18:02:41
,wl-rdm,46,152896,0.0-6.38-0.38,0.0,47.0,,,,,,,[],,,,,,62.5,1.0,i,1.0,True,635.4999999403954,39.0,59.0,40.0,False,,308.42579512543887,[],"[720, 450]",ColorTask,27.0,39.0,,,HRV,HRV_0095,2022-11-30 18:02:41
,wl-rdm,47,154746,0.0-6.39-0.39,0.0,48.0,,,,,,,[],,,,,,87.9,0.0,u,0.0,True,549.2000000476837,33.0,59.0,40.0,False,,228.25966861561136,[],"[720, 450]",ColorTask,28.0,40.0,,,HRV,HRV_0095,2022-11-30 18:02:41
,wl-rdm,48,156579,0.0-6.40-0.40,0.0,49.0,,,,,,,[],,,,,,73.6,1.0,i,1.0,True,537.3999999761581,33.0,59.0,40.0,False,,206.68503733536423,[],"[720, 450]",ColorTask,29.0,41.0,,,HRV,HRV_0095,2022-11-30 18:02:41
,wl-rdm,49,158645,0.0-6.41-0.41,0.0,50.0,,,,,,,[],,,,,,56.4,0.0,u,0.0,True,754.0,46.0,59.0,40.0,False,,217.19906804646337,[],"[720, 450]",ColorTask,30.0,42.0,,,HRV,HRV_0095,2022-11-30 18:02:41
,wl-rdm,50,160562,0.0-6.42-0.42,0.0,51.0,,,,,,,[],,,,,,73.6,0.0,u,0.0,True,620.1000000238419,38.0,59.0,40.0,False,,208.14727099515525,[],"[720, 450]",ColorTask,31.0,43.0,,,HRV,HRV_0095,2022-11-30 18:02:41
,wl-rdm,51,162862,0.0-6.43-0.43,0.0,52.0,,,,,,,[],,,,,,62.5,0.0,i,1.0,False,888.1000000238419,54.0,59.0,40.0,False,,329.78627410163693,[],"[720, 450]",ColorTask,30.0,44.0,,,HRV,HRV_0095,2022-11-30 18:02:41
,wl-rdm,52,164795,0.0-6.44-0.44,0.0,53.0,,,,,,,[],,,,,,53.2,1.0,i,1.0,True,547.1999999880791,33.0,59.0,40.0,False,,314.5650779214441,[],"[720, 450]",ColorTask,31.0,45.0,,,HRV,HRV_0095,2022-11-30 18:02:41
,wl-rdm,53,166830,0.0-6.45-0.45,0.0,54.0,,,,,,,[],,,,,,73.6,1.0,i,1.0,True,591.7999999523163,36.0,59.0,40.0,False,,350.5369976999894,[],"[720, 450]",ColorTask,32.0,46.0,,,HRV,HRV_0095,2022-11-30 18:02:41
,wl-rdm,54,168846,0.0-6.46-0.46,0.0,55.0,,,,,,,[],,,,,,87.9,1.0,i,1.0,True,602.9000000357628,37.0,59.0,40.0,False,,344.7050837605809,[],"[720, 450]",ColorTask,33.0,47.0,,,HRV,HRV_0095,2022-11-30 18:02:41
,wl-rdm,55,170979,0.0-6.47-0.47,0.0,56.0,,,,,,,[],,,,,,53.2,1.0,i,1.0,True,855.1999999880791,52.0,59.0,40.0,False,,210.45030434626068,[],"[720, 450]",ColorTask,34.0,48.0,,,HRV,HRV_0095,2022-11-30 18:02:41
,wl-rdm,56,172780,0.0-6.48-0.48,0.0,57.0,,,,,,,[],,,,,,73.6,1.0,i,1.0,True,480.5,29.0,59.0,40.0,False,,239.86157948682836,[],"[720, 450]",ColorTask,35.0,49.0,,,HRV,HRV_0095,2022-11-30 18:02:41
,wl-rdm,57,174696,0.0-6.49-0.49,0.0,58.0,,,,,,,[],,,,,,73.6,0.0,u,0.0,True,558.6000000238419,34.0,59.0,40.0,False,,278.82489085177906,[],"[720, 450]",ColorTask,36.0,50.0,,,HRV,HRV_0095,2022-11-30 18:02:41
,wl-rdm,58,176662,0.0-6.50-0.50,0.0,59.0,,,,,,,[],,,,,,87.9,0.0,u,0.0,True,640.1000000238419,39.0,59.0,40.0,False,,238.14057659817445,[],"[720, 450]",ColorTask,37.0,51.0,,,HRV,HRV_0095,2022-11-30 18:02:41
,wl-rdm,59,178445,0.0-6.51-0.51,0.0,60.0,,,,,,,[],,,,,,73.6,1.0,i,1.0,True,493.10000002384186,30.0,59.0,40.0,False,,200.26746631332614,[],"[720, 450]",ColorTask,38.0,52.0,,,HRV,HRV_0095,2022-11-30 18:02:41
,wl-rdm,60,180412,0.0-6.52-0.52,0.0,61.0,,,,,,,[],,,,,,56.4,0.0,u,0.0,True,678.0,41.0,59.0,40.0,False,,211.058248796544,[],"[720, 450]",ColorTask,39.0,53.0,,,HRV,HRV_0095,2022-11-30 18:02:41
,wl-rdm,61,182244,0.0-6.53-0.53,0.0,62.0,,,,,,,[],,,,,,73.6,1.0,i,1.0,True,494.30000001192093,30.0,59.0,40.0,False,,264.4209592231572,[],"[720, 450]",ColorTask,40.0,54.0,,,HRV,HRV_0095,2022-11-30 18:02:41
,wl-rdm,62,185129,0.0-6.54-0.54,0.0,63.0,,,,,,,[],,,,,,53.2,0.0,u,0.0,True,1595.9000000357628,96.0,59.0,40.0,False,,216.17732156753416,[],"[720, 450]",ColorTask,41.0,55.0,,,HRV,HRV_0095,2022-11-30 18:02:41
,wl-rdm,63,187512,0.0-6.55-0.55,0.0,64.0,,,,,,,[],,,,,,73.6,0.0,u,0.0,True,1080.0,65.0,59.0,40.0,False,,245.84386108212715,[],"[720, 450]",ColorTask,42.0,56.0,,,HRV,HRV_0095,2022-11-30 18:02:41
,wl-rdm,64,189696,0.0-6.56-0.56,0.0,65.0,,,,,,,[],,,,,,56.4,1.0,i,1.0,True,829.8999999761581,50.0,59.0,40.0,False,,269.890058632121,[],"[720, 450]",ColorTask,43.0,57.0,,,HRV,HRV_0095,2022-11-30 18:02:41
,wl-rdm,65,191629,0.0-6.57-0.57,0.0,66.0,,,,,,,[],,,,,,87.9,1.0,i,1.0,True,631.6999999880791,38.0,59.0,40.0,False,,231.81055817488766,[],"[720, 450]",ColorTask,44.0,58.0,,,HRV,HRV_0095,2022-11-30 18:02:41
,wl-rdm,66,193828,0.0-6.58-0.58,0.0,67.0,,,,,,,[],,,,,,53.2,0.0,i,1.0,False,784.5999999642372,48.0,59.0,40.0,False,,347.964354882797,[],"[720, 450]",ColorTask,43.0,59.0,,,HRV,HRV_0095,2022-11-30 18:02:41
,wl-rdm,67,195962,0.0-6.59-0.59,0.0,68.0,,,,,,,[],,,,,,50.0,0.0,i,1.0,False,681.6000000238419,41.0,59.0,40.0,False,,383.680445982879,[],"[720, 450]",ColorTask,42.0,60.0,,,HRV,HRV_0095,2022-11-30 18:02:41
,wl-rdm,68,198028,0.0-6.60-0.60,0.0,69.0,,,,,,,[],,,,,,53.2,0.0,i,1.0,False,696.0,42.0,59.0,40.0,False,,304.61538858905215,[],"[720, 450]",ColorTask,41.0,61.0,,,HRV,HRV_0095,2022-11-30 18:02:41
,wl-rdm,69,200162,0.0-6.61-0.61,0.0,70.0,,,,,,,[],,,,,,56.4,1.0,i,1.0,True,844.6000000238419,51.0,59.0,40.0,False,,230.8340217573084,[],"[720, 450]",ColorTask,42.0,62.0,,,HRV,HRV_0095,2022-11-30 18:02:41
,wl-rdm,70,202045,0.0-6.62-0.62,0.0,71.0,,,,,,,[],,,,,,53.2,1.0,i,1.0,True,565.9000000357628,34.0,59.0,40.0,False,,257.75647741071174,[],"[720, 450]",ColorTask,43.0,63.0,,,HRV,HRV_0095,2022-11-30 18:02:41
,wl-rdm,71,204362,0.0-6.63-0.63,0.0,72.0,,,,,,,[],,,,,,73.6,1.0,i,1.0,True,862.0000000596046,52.0,59.0,40.0,False,,389.5402056552465,[],"[720, 450]",ColorTask,44.0,64.0,,,HRV,HRV_0095,2022-11-30 18:02:41
,wl-rdm,72,207012,0.0-6.64-0.64,0.0,73.0,,,,,,,[],,,,,,56.4,0.0,i,1.0,False,1236.9000000357628,75.0,59.0,40.0,False,,351.6032216356569,[],"[720, 450]",ColorTask,43.0,65.0,,,HRV,HRV_0095,2022-11-30 18:02:41
,wl-rdm,73,209045,0.0-6.65-0.65,0.0,74.0,,,,,,,[],,,,,,56.4,0.0,u,0.0,True,627.5999999642372,38.0,59.0,40.0,False,,340.16645811359547,[],"[720, 450]",ColorTask,44.0,66.0,,,HRV,HRV_0095,2022-11-30 18:02:41
,wl-rdm,74,210812,0.0-6.66-0.66,0.0,75.0,,,,,,,[],,,,,,62.5,1.0,i,1.0,True,478.10000002384186,29.0,59.0,40.0,False,,223.0885098273464,[],"[720, 450]",ColorTask,45.0,67.0,,,HRV,HRV_0095,2022-11-30 18:02:41
,wl-rdm,75,213296,0.0-6.67-0.67,0.0,76.0,,,,,,,[],,,,,,53.2,1.0,u,0.0,False,1052.6000000238419,64.0,59.0,40.0,False,,363.5926707169368,[],"[720, 450]",ColorTask,44.0,68.0,,,HRV,HRV_0095,2022-11-30 18:02:41
,wl-rdm,76,215496,0.0-6.68-0.68,0.0,77.0,,,,,,,[],,,,,,87.9,0.0,u,0.0,True,841.1000000238419,51.0,59.0,40.0,False,,287.7580255278076,[],"[720, 450]",ColorTask,45.0,69.0,,,HRV,HRV_0095,2022-11-30 18:02:41
,wl-rdm,77,217511,0.0-6.69-0.69,0.0,78.0,,,,,,,[],,,,,,87.9,0.0,u,0.0,True,555.8999999761581,34.0,59.0,40.0,False,,383.9579183907575,[],"[720, 450]",ColorTask,46.0,70.0,,,HRV,HRV_0095,2022-11-30 18:02:41
,wl-rdm,78,220362,0.0-6.70-0.70,0.0,79.0,,,,,,,[],,,,,,73.6,0.0,u,0.0,True,1557.5999999642372,94.0,59.0,40.0,False,,200.4412638711892,[],"[720, 450]",ColorTask,47.0,71.0,,,HRV,HRV_0095,2022-11-30 18:02:41
,wl-rdm,79,222928,0.0-6.71-0.71,0.0,80.0,,,,,,,[],,,,,,87.9,1.0,i,1.0,True,1252.199999988079,76.0,59.0,40.0,False,,233.58287711864673,[],"[720, 450]",ColorTask,48.0,72.0,,,HRV,HRV_0095,2022-11-30 18:02:41
,wl-rdm,80,224995,0.0-6.72-0.72,0.0,81.0,,,,,,,[],,,,,,87.9,0.0,u,0.0,True,752.5,46.0,59.0,40.0,False,,227.13770657970733,[],"[720, 450]",ColorTask,49.0,73.0,,,HRV,HRV_0095,2022-11-30 18:02:41
,wl-rdm,81,227345,0.0-6.73-0.73,0.0,82.0,,,,,,,[],,,,,,56.4,0.0,u,0.0,True,944.4000000357628,57.0,59.0,40.0,False,,341.5016836034641,[],"[720, 450]",ColorTask,50.0,74.0,,,HRV,HRV_0095,2022-11-30 18:02:41
,wl-rdm,82,229379,0.0-6.74-0.74,0.0,83.0,,,,,,,[],,,,,,87.9,1.0,i,1.0,True,619.8999999761581,38.0,59.0,40.0,False,,319.19085255028256,[],"[720, 450]",ColorTask,51.0,75.0,,,HRV,HRV_0095,2022-11-30 18:02:41
,wl-rdm,83,231895,0.0-6.75-0.75,0.0,84.0,,,,,,,[],,,,,,53.2,0.0,u,0.0,True,1203.2999999523163,73.0,59.0,40.0,False,,232.61663674898818,[],"[720, 450]",ColorTask,52.0,76.0,,,HRV,HRV_0095,2022-11-30 18:02:41
,wl-rdm,84,235095,0.0-6.76-0.76,0.0,85.0,,,,,,,[],,,,,,50.0,1.0,u,0.0,False,1802.699999988079,109.0,59.0,40.0,False,,317.91713821530413,[],"[720, 450]",ColorTask,51.0,77.0,,,HRV,HRV_0095,2022-11-30 18:02:41
,wl-rdm,85,237228,0.0-6.77-0.77,0.0,86.0,,,,,,,[],,,,,,50.0,1.0,i,1.0,True,680.1000000238419,41.0,59.0,40.0,False,,395.49205367494466,[],"[720, 450]",ColorTask,52.0,78.0,,,HRV,HRV_0095,2022-11-30 18:02:41
,wl-rdm,86,239611,0.0-6.78-0.78,0.0,87.0,,,,,,,[],,,,,,87.9,1.0,i,1.0,True,950.3999999761581,57.0,59.0,40.0,False,,355.10228296433456,[],"[720, 450]",ColorTask,53.0,79.0,,,HRV,HRV_0095,2022-11-30 18:02:41
,wl-rdm,87,241495,0.0-6.79-0.79,0.0,88.0,,,,,,,[],,,,,,62.5,0.0,u,0.0,True,562.1000000238419,34.0,59.0,40.0,False,,235.36556401192172,[],"[720, 450]",ColorTask,54.0,80.0,,,HRV,HRV_0095,2022-11-30 18:02:41
,wl-rdm,88,243777,0.0-6.80-0.80,0.0,89.0,,,,,,,[],,,,,,73.6,1.0,i,1.0,True,910.5999999642372,55.0,59.0,40.0,False,,315.1723630538883,[],"[720, 450]",ColorTask,55.0,81.0,,,HRV,HRV_0095,2022-11-30 18:02:41
,wl-rdm,89,246012,0.0-6.81-0.81,0.0,90.0,,,,,,,[],,,,,,53.2,1.0,u,0.0,False,823.3000000119209,50.0,59.0,40.0,False,,318.9628452083184,[],"[720, 450]",ColorTask,54.0,82.0,,,HRV,HRV_0095,2022-11-30 18:02:41
,wl-rdm,90,248096,0.0-6.82-0.82,0.0,91.0,,,,,,,[],,,,,,50.0,0.0,u,0.0,True,705.3999999761581,43.0,59.0,40.0,False,,298.6645342915849,[],"[720, 450]",ColorTask,55.0,83.0,,,HRV,HRV_0095,2022-11-30 18:02:41
,wl-rdm,91,250112,0.0-6.83-0.83,0.0,92.0,,,,,,,[],,,,,,53.2,0.0,u,0.0,True,705.4000000357628,43.0,59.0,40.0,False,,225.8030296886293,[],"[720, 450]",ColorTask,56.0,84.0,,,HRV,HRV_0095,2022-11-30 18:02:41
,wl-rdm,92,252212,0.0-6.84-0.84,0.0,93.0,,,,,,,[],,,,,,50.0,0.0,u,0.0,True,623.6999999284744,38.0,59.0,40.0,False,,398.9002895894672,[],"[720, 450]",ColorTask,57.0,85.0,,,HRV,HRV_0095,2022-11-30 18:02:41
,wl-rdm,93,254045,0.0-6.85-0.85,0.0,94.0,,,,,,,[],,,,,,56.4,0.0,i,1.0,False,502.30000001192093,31.0,59.0,40.0,False,,246.70749770691467,[],"[720, 450]",ColorTask,56.0,86.0,,,HRV,HRV_0095,2022-11-30 18:02:41
,wl-rdm,94,256628,0.0-6.86-0.86,0.0,95.0,,,,,,,[],,,,,,56.4,0.0,u,0.0,True,1196.5,72.0,59.0,40.0,False,,318.9905668941921,[],"[720, 450]",ColorTask,57.0,87.0,,,HRV,HRV_0095,2022-11-30 18:02:41
,wl-rdm,95,258561,0.0-6.87-0.87,0.0,96.0,,,,,,,[],,,,,,62.5,1.0,i,1.0,True,603.0,37.0,59.0,40.0,False,,266.11552483070056,[],"[720, 450]",ColorTask,58.0,88.0,,,HRV,HRV_0095,2022-11-30 18:02:41
,wl-rdm,96,260494,0.0-6.88-0.88,0.0,97.0,,,,,,,[],,,,,,87.9,0.0,u,0.0,True,518.9999999403954,32.0,59.0,40.0,False,,343.9016461912347,[],"[720, 450]",ColorTask,59.0,89.0,,,HRV,HRV_0095,2022-11-30 18:02:41
,wl-rdm,97,262277,0.0-6.89-0.89,0.0,98.0,,,,,,,[],,,,,,53.2,1.0,i,1.0,True,502.60000002384186,31.0,59.0,40.0,False,,210.46573208147126,[],"[720, 450]",ColorTask,60.0,90.0,,,HRV,HRV_0095,2022-11-30 18:02:41
,wl-rdm,98,264560,0.0-6.90-0.90,0.0,99.0,,,,,,,[],,,,,,73.6,1.0,i,1.0,True,944.2999999523163,57.0,59.0,40.0,False,,282.38725464124224,[],"[720, 450]",ColorTask,61.0,91.0,,,HRV,HRV_0095,2022-11-30 18:02:41
,wl-rdm,99,266328,0.0-6.91-0.91,0.0,100.0,,,,,,,[],,,,,,50.0,0.0,i,1.0,False,442.5,27.0,59.0,40.0,False,,240.9925737173905,[],"[720, 450]",ColorTask,60.0,92.0,,,HRV,HRV_0095,2022-11-30 18:02:41
,wl-rdm,100,268411,0.0-6.92-0.92,0.0,101.0,,,,,,,[],,,,,,62.5,1.0,i,1.0,True,708.1999999880791,43.0,59.0,40.0,False,,295.52247962033823,[],"[720, 450]",ColorTask,61.0,93.0,,,HRV,HRV_0095,2022-11-30 18:02:41
,wl-rdm,101,270562,0.0-6.93-0.93,0.0,102.0,,,,,,,[],,,,,,62.5,0.0,u,0.0,True,783.0,47.0,59.0,40.0,False,,284.03532123784066,[],"[720, 450]",ColorTask,62.0,94.0,,,HRV,HRV_0095,2022-11-30 18:02:41
,wl-rdm,102,272745,0.0-6.94-0.94,0.0,103.0,,,,,,,[],,,,,,62.5,1.0,i,1.0,True,784.6000000238419,48.0,59.0,40.0,False,,333.0843694915099,[],"[720, 450]",ColorTask,63.0,95.0,,,HRV,HRV_0095,2022-11-30 18:02:41
,wl-rdm,103,274828,0.0-6.95-0.95,0.0,104.0,,,,,,,[],,,,,,56.4,1.0,i,1.0,True,761.6999999880791,46.0,59.0,40.0,False,,240.46568112426797,[],"[720, 450]",ColorTask,64.0,96.0,,,HRV,HRV_0095,2022-11-30 18:02:41
,wl-rdm,104,277061,0.0-6.96-0.96,0.0,105.0,,,,,,,[],,,,,,56.4,0.0,i,1.0,False,910.6999999880791,55.0,59.0,40.0,False,,245.5398227656179,[],"[720, 450]",ColorTask,63.0,97.0,,,HRV,HRV_0095,2022-11-30 18:02:41
,wl-rdm,105,279060,0.0-6.97-0.97,0.0,106.0,,,,,,,[],,,,,,56.4,1.0,i,1.0,True,665.4000000357628,40.0,59.0,40.0,False,,252.86832520289758,[],"[720, 450]",ColorTask,64.0,98.0,,,HRV,HRV_0095,2022-11-30 18:02:41
,wl-rdm,106,281511,0.0-6.98-0.98,0.0,107.0,,,,,,,[],,,,,,53.2,1.0,u,0.0,False,1052.800000011921,64.0,59.0,40.0,False,,313.9743803159308,[],"[720, 450]",ColorTask,63.0,99.0,,,HRV,HRV_0095,2022-11-30 18:02:41
,wl-rdm,107,284477,0.0-6.99-0.99,0.0,108.0,,,,,,,[],,,,,,87.9,0.0,u,0.0,True,1671.8000000715256,101.0,59.0,40.0,False,,202.20848010295515,[],"[720, 450]",ColorTask,64.0,100.0,,,HRV,HRV_0095,2022-11-30 18:02:41
,wl-rdm,108,286461,0.0-6.100-0.100,0.0,109.0,,,,,,,[],,,,,,73.6,0.0,u,0.0,True,651.1999999880791,40.0,59.0,40.0,False,,258.1525190336429,[],"[720, 450]",ColorTask,65.0,101.0,,,HRV,HRV_0095,2022-11-30 18:02:41
,wl-rdm,109,288662,0.0-6.101-0.101,0.0,110.0,,,,,,,[],,,,,,87.9,1.0,i,1.0,True,831.6000000238419,50.0,59.0,40.0,False,,313.0750010118332,[],"[720, 450]",ColorTask,66.0,102.0,,,HRV,HRV_0095,2022-11-30 18:02:41
,wl-rdm,110,291544,0.0-6.102-0.102,0.0,111.0,,,,,,,[],,,,,,56.4,1.0,i,1.0,True,1557.8999999761581,94.0,59.0,40.0,False,,257.37678081894194,[],"[720, 450]",ColorTask,67.0,103.0,,,HRV,HRV_0095,2022-11-30 18:02:41
,wl-rdm,111,293862,0.0-6.103-0.103,0.0,112.0,,,,,,,[],,,,,,50.0,1.0,i,1.0,True,926.1000000238419,56.0,59.0,40.0,False,,302.62978300754287,[],"[720, 450]",ColorTask,68.0,104.0,,,HRV,HRV_0095,2022-11-30 18:02:41
,wl-rdm,112,296228,0.0-6.104-0.104,0.0,113.0,,,,,,,[],,,,,,50.0,1.0,i,1.0,True,1043.199999988079,63.0,59.0,40.0,False,,259.1323645885543,[],"[720, 450]",ColorTask,69.0,105.0,,,HRV,HRV_0095,2022-11-30 18:02:41
,wl-rdm,113,298244,0.0-6.105-0.105,0.0,114.0,,,,,,,[],,,,,,73.6,0.0,u,0.0,True,726.3000000119209,44.0,59.0,40.0,False,,206.97248876889736,[],"[720, 450]",ColorTask,70.0,106.0,,,HRV,HRV_0095,2022-11-30 18:02:41
,wl-rdm,114,300261,0.0-6.106-0.106,0.0,115.0,,,,,,,[],,,,,,56.4,1.0,i,1.0,True,636.4000000357628,39.0,59.0,40.0,False,,297.3245068743994,[],"[720, 450]",ColorTask,71.0,107.0,,,HRV,HRV_0095,2022-11-30 18:02:41
,wl-rdm,115,302711,0.0-6.107-0.107,0.0,116.0,,,,,,,[],,,,,,53.2,0.0,i,1.0,False,1023.9000000357628,62.0,59.0,40.0,False,,337.4205017001524,[],"[720, 450]",ColorTask,70.0,108.0,,,HRV,HRV_0095,2022-11-30 18:02:41
,wl-html-keyboard-response,116,325978,0.0-7.0-0.0,1.0,117.0,,,,,,,,21262.19999998808,1.0,0,,,,,,,,,,,,,,,,,,,,,,HRV,HRV_0095,2022-11-30 18:02:41
,wl-rdm,117,327944,0.0-8.0-0.0,1.0,118.0,,,,,,,[],,,,,,56.4,0.0,i,1.0,False,665.1999999880791,40.0,59.0,40.0,False,,223.91597238843042,[],"[720, 450]",ColorTask,69.0,1.0,,,HRV,HRV_0095,2022-11-30 18:02:41
,wl-rdm,118,330261,0.0-8.1-0.1,1.0,119.0,,,,,,,[],,,,,,62.5,1.0,i,1.0,True,982.8999999761581,59.0,59.0,40.0,False,,250.94861066466635,[],"[720, 450]",ColorTask,70.0,2.0,,,HRV,HRV_0095,2022-11-30 18:02:41
,wl-rdm,119,332360,0.0-8.2-0.2,1.0,120.0,,,,,,,[],,,,,,73.6,1.0,i,1.0,True,668.4000000357628,41.0,59.0,40.0,False,,361.908833406278,[],"[720, 450]",ColorTask,71.0,3.0,,,HRV,HRV_0095,2022-11-30 18:02:41
,wl-rdm,120,334844,0.0-8.3-0.3,1.0,121.0,,,,,,,[],,,,,,50.0,1.0,i,1.0,True,1158.300000011921,70.0,59.0,40.0,False,,234.72985031830655,[],"[720, 450]",ColorTask,72.0,4.0,,,HRV,HRV_0095,2022-11-30 18:02:41
,wl-rdm,121,336894,0.0-8.4-0.4,1.0,122.0,,,,,,,[],,,,,,73.6,0.0,u,0.0,True,584.4000000357628,36.0,59.0,40.0,False,,386.55725583039293,[],"[720, 450]",ColorTask,73.0,5.0,,,HRV,HRV_0095,2022-11-30 18:02:41
,wl-rdm,122,339493,0.0-8.5-0.5,1.0,123.0,,,,,,,[],,,,,,87.9,0.0,u,0.0,True,1170.800000011921,71.0,59.0,40.0,False,,345.83637273720717,[],"[720, 450]",ColorTask,74.0,6.0,,,HRV,HRV_0095,2022-11-30 18:02:41
,wl-rdm,123,341727,0.0-8.6-0.6,1.0,124.0,,,,,,,[],,,,,,62.5,0.0,i,1.0,False,805.9000000357628,49.0,59.0,40.0,False,,358.0989883902072,[],"[720, 450]",ColorTask,73.0,7.0,,,HRV,HRV_0095,2022-11-30 18:02:41
,wl-rdm,124,343993,0.0-8.7-0.7,1.0,125.0,,,,,,,[],,,,,,53.2,1.0,u,0.0,False,816.9000000357628,50.0,59.0,40.0,False,,369.13136615473957,[],"[720, 450]",ColorTask,72.0,8.0,,,HRV,HRV_0095,2022-11-30 18:02:41
,wl-rdm,125,346128,0.0-8.8-0.8,1.0,126.0,,,,,,,[],,,,,,56.4,0.0,i,1.0,False,862.7999999523163,52.0,59.0,40.0,False,,214.93077496101253,[],"[720, 450]",ColorTask,71.0,9.0,,,HRV,HRV_0095,2022-11-30 18:02:41
,wl-rdm,126,348328,0.0-8.9-0.9,1.0,127.0,,,,,,,[],,,,,,53.2,0.0,u,0.0,True,877.6000000238419,53.0,59.0,40.0,False,,251.54566073539837,[],"[720, 450]",ColorTask,72.0,10.0,,,HRV,HRV_0095,2022-11-30 18:02:41
,wl-rdm,127,350328,0.0-8.10-0.10,1.0,128.0,,,,,,,[],,,,,,73.6,1.0,i,1.0,True,679.0,41.0,59.0,40.0,False,,253.70981784767642,[],"[720, 450]",ColorTask,73.0,11.0,,,HRV,HRV_0095,2022-11-30 18:02:41
,wl-rdm,128,352260,0.0-8.11-0.11,1.0,129.0,,,,,,,[],,,,,,73.6,1.0,i,1.0,True,489.80000001192093,30.0,59.0,40.0,False,,378.4761600424587,[],"[720, 450]",ColorTask,74.0,12.0,,,HRV,HRV_0095,2022-11-30 18:02:41
,wl-rdm,129,354343,0.0-8.12-0.12,1.0,130.0,,,,,,,[],,,,,,73.6,0.0,u,0.0,True,706.4000000357628,43.0,59.0,40.0,False,,313.9202356341172,[],"[720, 450]",ColorTask,75.0,13.0,,,HRV,HRV_0095,2022-11-30 18:02:41
,wl-rdm,130,356494,0.0-8.13-0.13,1.0,131.0,,,,,,,[],,,,,,50.0,1.0,i,1.0,True,810.6000000238419,49.0,59.0,40.0,False,,268.22376316359293,[],"[720, 450]",ColorTask,76.0,14.0,,,HRV,HRV_0095,2022-11-30 18:02:41
,wl-rdm,131,359160,0.0-8.14-0.14,1.0,132.0,,,,,,,[],,,,,,62.5,0.0,u,0.0,True,1259.9000000357628,76.0,59.0,40.0,False,,335.29555887572496,[],"[720, 450]",ColorTask,77.0,15.0,,,HRV,HRV_0095,2022-11-30 18:02:41
,wl-rdm,132,361326,0.0-8.15-0.15,1.0,133.0,,,,,,,[],,,,,,73.6,0.0,u,0.0,True,748.6999999880791,45.0,59.0,40.0,False,,348.53617247627824,[],"[720, 450]",ColorTask,78.0,16.0,,,HRV,HRV_0095,2022-11-30 18:02:41
,wl-rdm,133,363143,0.0-8.16-0.16,1.0,134.0,,,,,,,[],,,,,,87.9,0.0,u,0.0,True,510.10000002384186,31.0,59.0,40.0,False,,239.50615824122107,[],"[720, 450]",ColorTask,79.0,17.0,,,HRV,HRV_0095,2022-11-30 18:02:41
,wl-rdm,134,365009,0.0-8.17-0.17,1.0,135.0,,,,,,,[],,,,,,87.9,1.0,i,1.0,True,495.3999999165535,30.0,59.0,40.0,False,,310.14337723370465,[],"[720, 450]",ColorTask,80.0,18.0,,,HRV,HRV_0095,2022-11-30 18:02:41
,wl-rdm,135,367028,0.0-8.18-0.18,1.0,136.0,,,,,,,[],,,,,,50.0,1.0,i,1.0,True,634.0999999642372,38.0,59.0,40.0,False,,314.5291437725961,[],"[720, 450]",ColorTask,81.0,19.0,,,HRV,HRV_0095,2022-11-30 18:02:41
,wl-rdm,136,369327,0.0-8.19-0.19,1.0,137.0,,,,,,,[],,,,,,56.4,1.0,i,1.0,True,892.2000000476837,54.0,59.0,40.0,False,,334.4101112294222,[],"[720, 450]",ColorTask,82.0,20.0,,,HRV,HRV_0095,2022-11-30 18:02:41
,wl-rdm,137,371261,0.0-8.20-0.20,1.0,138.0,,,,,,,[],,,,,,73.6,0.0,u,0.0,True,628.1999999880791,38.0,59.0,40.0,False,,239.3976401168901,[],"[720, 450]",ColorTask,83.0,21.0,,,HRV,HRV_0095,2022-11-30 18:02:41
,wl-rdm,138,373644,0.0-8.21-0.21,1.0,139.0,,,,,,,[],,,,,,62.5,0.0,u,0.0,True,931.8999999761581,56.0,59.0,40.0,False,,394.96435543302084,[],"[720, 450]",ColorTask,84.0,22.0,,,HRV,HRV_0095,2022-11-30 18:02:41
,wl-rdm,139,375677,0.0-8.22-0.22,1.0,140.0,,,,,,,[],,,,,,53.2,1.0,u,0.0,False,625.9999999403954,38.0,59.0,40.0,False,,330.3062622930105,[],"[720, 450]",ColorTask,83.0,23.0,,,HRV,HRV_0095,2022-11-30 18:02:41
,wl-rdm,140,377760,0.0-8.23-0.23,1.0,141.0,,,,,,,[],,,,,,50.0,1.0,i,1.0,True,715.1000000238419,43.0,59.0,40.0,False,,300.67225946537576,[],"[720, 450]",ColorTask,84.0,24.0,,,HRV,HRV_0095,2022-11-30 18:02:41
,wl-rdm,141,379893,0.0-8.24-0.24,1.0,142.0,,,,,,,[],,,,,,50.0,1.0,u,0.0,False,682.2000000476837,41.0,59.0,40.0,False,,370.21377832429516,[],"[720, 450]",ColorTask,83.0,25.0,,,HRV,HRV_0095,2022-11-30 18:02:41
,wl-rdm,142,382077,0.0-8.25-0.25,1.0,143.0,,,,,,,[],,,,,,56.4,1.0,i,1.0,True,720.3000000119209,44.0,59.0,40.0,False,,367.4108291617712,[],"[720, 450]",ColorTask,84.0,26.0,,,HRV,HRV_0095,2022-11-30 18:02:41
,wl-rdm,143,383960,0.0-8.26-0.26,1.0,144.0,,,,,,,[],,,,,,50.0,1.0,i,1.0,True,566.9000000357628,34.0,59.0,40.0,False,,235.9675084126237,[],"[720, 450]",ColorTask,85.0,27.0,,,HRV,HRV_0095,2022-11-30 18:02:41
,wl-rdm,144,386194,0.0-8.27-0.27,1.0,145.0,,,,,,,[],,,,,,73.6,1.0,i,1.0,True,885.7999999523163,54.0,59.0,40.0,False,,277.03341911966885,[],"[720, 450]",ColorTask,86.0,28.0,,,HRV,HRV_0095,2022-11-30 18:02:41
,wl-rdm,145,388210,0.0-8.28-0.28,1.0,146.0,,,,,,,[],,,,,,87.9,0.0,u,0.0,True,631.0,38.0,59.0,40.0,False,,304.2109810927516,[],"[720, 450]",ColorTask,87.0,29.0,,,HRV,HRV_0095,2022-11-30 18:02:41
,wl-rdm,146,390177,0.0-8.29-0.29,1.0,147.0,,,,,,,[],,,,,,53.2,1.0,i,1.0,True,667.1000000238419,41.0,59.0,40.0,False,,206.9316461433673,[],"[720, 450]",ColorTask,88.0,30.0,,,HRV,HRV_0095,2022-11-30 18:02:41
,wl-rdm,147,392409,0.0-8.30-0.30,1.0,148.0,,,,,,,[],,,,,,53.2,1.0,i,1.0,True,888.4000000357628,54.0,59.0,40.0,False,,274.58492757237593,[],"[720, 450]",ColorTask,89.0,31.0,,,HRV,HRV_0095,2022-11-30 18:02:41
,wl-rdm,148,394377,0.0-8.31-0.31,1.0,149.0,,,,,,,[],,,,,,50.0,0.0,i,1.0,False,636.4000000357628,39.0,59.0,40.0,False,,242.7223081571581,[],"[720, 450]",ColorTask,88.0,32.0,,,HRV,HRV_0095,2022-11-30 18:02:41
,wl-rdm,149,396410,0.0-8.32-0.32,1.0,150.0,,,,,,,[],,,,,,87.9,1.0,i,1.0,True,695.0999999642372,42.0,59.0,40.0,False,,263.8473494039306,[],"[720, 450]",ColorTask,89.0,33.0,,,HRV,HRV_0095,2022-11-30 18:02:41
,wl-rdm,150,398643,0.0-8.33-0.33,1.0,151.0,,,,,,,[],,,,,,62.5,1.0,i,1.0,True,822.8000000119209,50.0,59.0,40.0,False,,346.09484298093594,[],"[720, 450]",ColorTask,90.0,34.0,,,HRV,HRV_0095,2022-11-30 18:02:41
,wl-rdm,151,400709,0.0-8.34-0.34,1.0,152.0,,,,,,,[],,,,,,87.9,0.0,u,0.0,True,615.8000000119209,37.0,59.0,40.0,False,,375.66269839572306,[],"[720, 450]",ColorTask,91.0,35.0,,,HRV,HRV_0095,2022-11-30 18:02:41
,wl-rdm,152,402692,0.0-8.35-0.35,1.0,153.0,,,,,,,[],,,,,,87.9,1.0,i,1.0,True,523.6999999880791,32.0,59.0,40.0,False,,398.7797329243366,[],"[720, 450]",ColorTask,92.0,36.0,,,HRV,HRV_0095,2022-11-30 18:02:41
,wl-rdm,153,404742,0.0-8.36-0.36,1.0,154.0,,,,,,,[],,,,,,62.5,1.0,i,1.0,True,719.3000000119209,44.0,59.0,40.0,False,,249.63805295409168,[],"[720, 450]",ColorTask,93.0,37.0,,,HRV,HRV_0095,2022-11-30 18:02:41
,wl-rdm,154,406994,0.0-8.37-0.37,1.0,155.0,,,,,,,[],,,,,,62.5,0.0,i,1.0,False,871.3999999761581,53.0,59.0,40.0,False,,306.8923575914308,[],"[720, 450]",ColorTask,92.0,38.0,,,HRV,HRV_0095,2022-11-30 18:02:41
,wl-rdm,155,408944,0.0-8.38-0.38,1.0,156.0,,,,,,,[],,,,,,87.9,0.0,u,0.0,True,532.0,32.0,59.0,40.0,False,,354.13880900696836,[],"[720, 450]",ColorTask,93.0,39.0,,,HRV,HRV_0095,2022-11-30 18:02:41
,wl-rdm,156,411143,0.0-8.39-0.39,1.0,157.0,,,,,,,[],,,,,,53.2,0.0,i,1.0,False,836.5,51.0,59.0,40.0,False,,273.8643246767574,[],"[720, 450]",ColorTask,92.0,40.0,,,HRV,HRV_0095,2022-11-30 18:02:41
,wl-rdm,157,413143,0.0-8.40-0.40,1.0,158.0,,,,,,,[],,,,,,56.4,1.0,i,1.0,True,567.8999999761581,35.0,59.0,40.0,False,,353.06078545127474,[],"[720, 450]",ColorTask,93.0,41.0,,,HRV,HRV_0095,2022-11-30 18:02:41
,wl-rdm,158,415043,0.0-8.41-0.41,1.0,159.0,,,,,,,[],,,,,,62.5,1.0,i,1.0,True,583.0000000596046,35.0,59.0,40.0,False,,238.52477781640948,[],"[720, 450]",ColorTask,94.0,42.0,,,HRV,HRV_0095,2022-11-30 18:02:41
,wl-rdm,159,416927,0.0-8.42-0.42,1.0,160.0,,,,,,,[],,,,,,56.4,0.0,u,0.0,True,598.3999999761581,36.0,59.0,40.0,False,,228.03399883483166,[],"[720, 450]",ColorTask,95.0,43.0,,,HRV,HRV_0095,2022-11-30 18:02:41
,wl-rdm,160,418959,0.0-8.43-0.43,1.0,161.0,,,,,,,[],,,,,,62.5,0.0,u,0.0,True,674.5999999642372,41.0,59.0,40.0,False,,272.07022037049313,[],"[720, 450]",ColorTask,96.0,44.0,,,HRV,HRV_0095,2022-11-30 18:02:41
,wl-rdm,161,420876,0.0-8.44-0.44,1.0,162.0,,,,,,,[],,,,,,62.5,0.0,u,0.0,True,573.3999999761581,35.0,59.0,40.0,False,,251.77230281732378,[],"[720, 450]",ColorTask,97.0,45.0,,,HRV,HRV_0095,2022-11-30 18:02:41
,wl-rdm,162,423376,0.0-8.45-0.45,1.0,163.0,,,,,,,[],,,,,,50.0,0.0,i,1.0,False,1020.2000000476837,62.0,59.0,40.0,False,,399.82767275546735,[],"[720, 450]",ColorTask,96.0,46.0,,,HRV,HRV_0095,2022-11-30 18:02:41
,wl-rdm,163,425292,0.0-8.46-0.46,1.0,164.0,,,,,,,[],,,,,,87.9,1.0,i,1.0,True,588.0999999642372,36.0,59.0,40.0,False,,259.9321243976041,[],"[720, 450]",ColorTask,97.0,47.0,,,HRV,HRV_0095,2022-11-30 18:02:41
,wl-rdm,164,427493,0.0-8.47-0.47,1.0,165.0,,,,,,,[],,,,,,50.0,0.0,u,0.0,True,880.4000000357628,53.0,59.0,40.0,False,,238.41624330993767,[],"[720, 450]",ColorTask,98.0,48.0,,,HRV,HRV_0095,2022-11-30 18:02:41
,wl-rdm,165,429343,0.0-8.48-0.48,1.0,166.0,,,,,,,[],,,,,,53.2,0.0,i,1.0,False,547.2999999523163,33.0,59.0,40.0,False,,238.29069505968923,[],"[720, 450]",ColorTask,97.0,49.0,,,HRV,HRV_0095,2022-11-30 18:02:41
,wl-rdm,166,431410,0.0-8.49-0.49,1.0,167.0,,,,,,,[],,,,,,87.9,0.0,u,0.0,True,642.5,39.0,59.0,40.0,False,,335.4100314585159,[],"[720, 450]",ColorTask,98.0,50.0,,,HRV,HRV_0095,2022-11-30 18:02:41
,wl-rdm,167,433626,0.0-8.50-0.50,1.0,168.0,,,,,,,[],,,,,,56.4,0.0,i,1.0,False,750.6999999880791,46.0,59.0,40.0,False,,381.6488994215288,[],"[720, 450]",ColorTask,97.0,51.0,,,HRV,HRV_0095,2022-11-30 18:02:41
,wl-rdm,168,435793,0.0-8.51-0.51,1.0,169.0,,,,,,,[],,,,,,62.5,0.0,u,0.0,True,779.9999999403954,47.0,59.0,40.0,False,,313.51326171887945,[],"[720, 450]",ColorTask,98.0,52.0,,,HRV,HRV_0095,2022-11-30 18:02:41
,wl-rdm,169,438092,0.0-8.52-0.52,1.0,170.0,,,,,,,[],,,,,,56.4,0.0,u,0.0,True,1011.1000000238419,61.0,59.0,40.0,False,,221.50806981334907,[],"[720, 450]",ColorTask,99.0,53.0,,,HRV,HRV_0095,2022-11-30 18:02:41
,wl-rdm,170,440226,0.0-8.53-0.53,1.0,171.0,,,,,,,[],,,,,,53.2,1.0,i,1.0,True,690.3000000119209,42.0,59.0,40.0,False,,360.52200271789707,[],"[720, 450]",ColorTask,100.0,54.0,,,HRV,HRV_0095,2022-11-30 18:02:41
,wl-rdm,171,442476,0.0-8.54-0.54,1.0,172.0,,,,,,,[],,,,,,87.9,1.0,i,1.0,True,769.3999999761581,47.0,59.0,40.0,False,,397.7961049863026,[],"[720, 450]",ColorTask,101.0,55.0,,,HRV,HRV_0095,2022-11-30 18:02:41
,wl-rdm,172,444259,0.0-8.55-0.55,1.0,173.0,,,,,,,[],,,,,,87.9,1.0,i,1.0,True,484.10000002384186,30.0,59.0,40.0,False,,225.92524665832744,[],"[720, 450]",ColorTask,102.0,56.0,,,HRV,HRV_0095,2022-11-30 18:02:41
,wl-rdm,173,446193,0.0-8.56-0.56,1.0,174.0,,,,,,,[],,,,,,73.6,1.0,i,1.0,True,526.3000000715256,32.0,59.0,40.0,False,,340.2578171060479,[],"[720, 450]",ColorTask,103.0,57.0,,,HRV,HRV_0095,2022-11-30 18:02:41
,wl-rdm,174,448193,0.0-8.57-0.57,1.0,175.0,,,,,,,[],,,,,,50.0,0.0,u,0.0,True,602.0,37.0,59.0,40.0,False,,330.65887394518865,[],"[720, 450]",ColorTask,104.0,58.0,,,HRV,HRV_0095,2022-11-30 18:02:41
,wl-rdm,175,450110,0.0-8.58-0.58,1.0,176.0,,,,,,,[],,,,,,53.2,0.0,i,1.0,False,582.1999999880791,35.0,59.0,40.0,False,,257.1328302713807,[],"[720, 450]",ColorTask,103.0,59.0,,,HRV,HRV_0095,2022-11-30 18:02:41
,wl-rdm,176,452593,0.0-8.59-0.59,1.0,177.0,,,,,,,[],,,,,,73.6,1.0,i,1.0,True,1199.800000011921,73.0,59.0,40.0,False,,215.84014609203402,[],"[720, 450]",ColorTask,104.0,60.0,,,HRV,HRV_0095,2022-11-30 18:02:41
,wl-rdm,177,454660,0.0-8.60-0.60,1.0,178.0,,,,,,,[],,,,,,73.6,1.0,i,1.0,True,617.1999999880791,38.0,59.0,40.0,False,,381.54874132437106,[],"[720, 450]",ColorTask,105.0,61.0,,,HRV,HRV_0095,2022-11-30 18:02:41
,wl-rdm,178,456526,0.0-8.61-0.61,1.0,179.0,,,,,,,[],,,,,,56.4,0.0,i,1.0,False,494.30000001192093,30.0,59.0,40.0,False,,300.20244869549623,[],"[720, 450]",ColorTask,104.0,62.0,,,HRV,HRV_0095,2022-11-30 18:02:41
,wl-rdm,179,458443,0.0-8.62-0.62,1.0,180.0,,,,,,,[],,,,,,73.6,0.0,u,0.0,True,502.39999997615814,31.0,59.0,40.0,False,,339.83927738253914,[],"[720, 450]",ColorTask,105.0,63.0,,,HRV,HRV_0095,2022-11-30 18:02:41
,wl-rdm,180,460476,0.0-8.63-0.63,1.0,181.0,,,,,,,[],,,,,,87.9,0.0,u,0.0,True,712.5,43.0,59.0,40.0,False,,249.0159531310792,[],"[720, 450]",ColorTask,106.0,64.0,,,HRV,HRV_0095,2022-11-30 18:02:41
,wl-rdm,181,462441,0.0-8.64-0.64,1.0,182.0,,,,,,,[],,,,,,87.9,1.0,i,1.0,True,570.7999999523163,35.0,59.0,40.0,False,,302.94228526209304,[],"[720, 450]",ColorTask,107.0,65.0,,,HRV,HRV_0095,2022-11-30 18:02:41
,wl-rdm,182,464909,0.0-8.65-0.65,1.0,183.0,,,,,,,[],,,,,,62.5,1.0,i,1.0,True,1172.0999999642372,71.0,59.0,40.0,False,,215.51037629811765,[],"[720, 450]",ColorTask,108.0,66.0,,,HRV,HRV_0095,2022-11-30 18:02:41
,wl-rdm,183,466743,0.0-8.66-0.66,1.0,184.0,,,,,,,[],,,,,,53.2,0.0,i,1.0,False,514.1999999880791,31.0,59.0,40.0,False,,247.27535199162475,[],"[720, 450]",ColorTask,107.0,67.0,,,HRV,HRV_0095,2022-11-30 18:02:41
,wl-rdm,184,468926,0.0-8.67-0.67,1.0,185.0,,,,,,,[],,,,,,56.4,1.0,i,1.0,True,852.0,52.0,59.0,40.0,False,,250.23582100221844,[],"[720, 450]",ColorTask,108.0,68.0,,,HRV,HRV_0095,2022-11-30 18:02:41
,wl-rdm,185,471010,0.0-8.68-0.68,1.0,186.0,,,,,,,[],,,,,,50.0,1.0,u,0.0,False,718.9999999403954,44.0,59.0,40.0,False,,279.27358219596056,[],"[720, 450]",ColorTask,107.0,69.0,,,HRV,HRV_0095,2022-11-30 18:02:41
,wl-rdm,186,472993,0.0-8.69-0.69,1.0,187.0,,,,,,,[],,,,,,62.5,1.0,i,1.0,True,632.5000000596046,38.0,59.0,40.0,False,,296.1847529225704,[],"[720, 450]",ColorTask,108.0,70.0,,,HRV,HRV_0095,2022-11-30 18:02:41
,wl-rdm,187,475242,0.0-8.70-0.70,1.0,188.0,,,,,,,[],,,,,,87.9,0.0,u,0.0,True,769.2999999523163,47.0,59.0,40.0,False,,397.4545764917938,[],"[720, 450]",ColorTask,109.0,71.0,,,HRV,HRV_0095,2022-11-30 18:02:41
,wl-rdm,188,477209,0.0-8.71-0.71,1.0,189.0,,,,,,,[],,,,,,53.2,0.0,i,1.0,False,590.7999999523163,36.0,59.0,40.0,False,,300.95841567753126,[],"[720, 450]",ColorTask,108.0,72.0,,,HRV,HRV_0095,2022-11-30 18:02:41
,wl-rdm,189,479309,0.0-8.72-0.72,1.0,190.0,,,,,,,[],,,,,,73.6,0.0,u,0.0,True,784.5999999642372,48.0,59.0,40.0,False,,229.78547645308208,[],"[720, 450]",ColorTask,109.0,73.0,,,HRV,HRV_0095,2022-11-30 18:02:41
,wl-rdm,190,481242,0.0-8.73-0.73,1.0,191.0,,,,,,,[],,,,,,56.4,1.0,i,1.0,True,569.2999999523163,35.0,59.0,40.0,False,,274.0397209389502,[],"[720, 450]",ColorTask,110.0,74.0,,,HRV,HRV_0095,2022-11-30 18:02:41
,wl-rdm,191,483891,0.0-8.74-0.74,1.0,192.0,,,,,,,[],,,,,,50.0,1.0,i,1.0,True,1312.800000011921,79.0,59.0,40.0,False,,260.46401454538477,[],"[720, 450]",ColorTask,111.0,75.0,,,HRV,HRV_0095,2022-11-30 18:02:41
,wl-rdm,192,486343,0.0-8.75-0.75,1.0,193.0,,,,,,,[],,,,,,56.4,0.0,u,0.0,True,1153.6999999284744,70.0,59.0,40.0,False,,230.28848840134438,[],"[720, 450]",ColorTask,112.0,76.0,,,HRV,HRV_0095,2022-11-30 18:02:41
,wl-rdm,193,488377,0.0-8.76-0.76,1.0,194.0,,,,,,,[],,,,,,73.6,0.0,u,0.0,True,624.4999999403954,38.0,59.0,40.0,False,,343.80873256735504,[],"[720, 450]",ColorTask,113.0,77.0,,,HRV,HRV_0095,2022-11-30 18:02:41
,wl-rdm,194,490409,0.0-8.77-0.77,1.0,195.0,,,,,,,[],,,,,,73.6,1.0,i,1.0,True,653.0,40.0,59.0,40.0,False,,286.6023365405396,[],"[720, 450]",ColorTask,114.0,78.0,,,HRV,HRV_0095,2022-11-30 18:02:41
,wl-rdm,195,492408,0.0-8.78-0.78,1.0,196.0,,,,,,,[],,,,,,62.5,1.0,i,1.0,True,679.5999999642372,41.0,59.0,40.0,False,,249.56301344059173,[],"[720, 450]",ColorTask,115.0,79.0,,,HRV,HRV_0095,2022-11-30 18:02:41
,wl-rdm,196,494592,0.0-8.79-0.79,1.0,197.0,,,,,,,[],,,,,,53.2,0.0,u,0.0,True,718.1000000238419,44.0,59.0,40.0,False,,381.25101162476994,[],"[720, 450]",ColorTask,116.0,80.0,,,HRV,HRV_0095,2022-11-30 18:02:41
,wl-rdm,197,497826,0.0-8.80-0.80,1.0,198.0,,,,,,,[],,,,,,50.0,0.0,u,0.0,True,1813.0,109.0,59.0,40.0,False,,365.51681317591635,[],"[720, 450]",ColorTask,117.0,81.0,,,HRV,HRV_0095,2022-11-30 18:02:41
,wl-rdm,198,500542,0.0-8.81-0.81,1.0,199.0,,,,,,,[],,,,,,56.4,0.0,u,0.0,True,1285.199999988079,78.0,59.0,40.0,False,,363.28343257100835,[],"[720, 450]",ColorTask,118.0,82.0,,,HRV,HRV_0095,2022-11-30 18:02:41
,wl-rdm,199,502558,0.0-8.82-0.82,1.0,200.0,,,,,,,[],,,,,,87.9,1.0,i,1.0,True,749.6999999880791,45.0,59.0,40.0,False,,202.62181786272873,[],"[720, 450]",ColorTask,119.0,83.0,,,HRV,HRV_0095,2022-11-30 18:02:41
,wl-rdm,200,504725,0.0-8.83-0.83,1.0,201.0,,,,,,,[],,,,,,62.5,1.0,u,0.0,False,781.3000000119209,47.0,59.0,40.0,False,,321.23525647845946,[],"[720, 450]",ColorTask,118.0,84.0,,,HRV,HRV_0095,2022-11-30 18:02:41
,wl-rdm,201,506760,0.0-8.84-0.84,1.0,202.0,,,,,,,[],,,,,,50.0,1.0,i,1.0,True,743.0999999642372,45.0,59.0,40.0,False,,218.10193786257793,[],"[720, 450]",ColorTask,119.0,85.0,,,HRV,HRV_0095,2022-11-30 18:02:41
,wl-rdm,202,508926,0.0-8.85-0.85,1.0,203.0,,,,,,,[],,,,,,53.2,1.0,i,1.0,True,794.0,48.0,59.0,40.0,False,,311.73034276761734,[],"[720, 450]",ColorTask,120.0,86.0,,,HRV,HRV_0095,2022-11-30 18:02:41
,wl-rdm,203,511242,0.0-8.86-0.86,1.0,204.0,,,,,,,[],,,,,,73.6,1.0,i,1.0,True,1034.0,62.0,59.0,40.0,False,,207.0620426460876,[],"[720, 450]",ColorTask,121.0,87.0,,,HRV,HRV_0095,2022-11-30 18:02:41
,wl-rdm,204,513508,0.0-8.87-0.87,1.0,205.0,,,,,,,[],,,,,,53.2,0.0,u,0.0,True,818.9000000357628,50.0,59.0,40.0,False,,372.9914637002089,[],"[720, 450]",ColorTask,122.0,88.0,,,HRV,HRV_0095,2022-11-30 18:02:41
,wl-rdm,205,517224,0.0-8.88-0.88,1.0,206.0,,,,,,,[],,,,,,56.4,1.0,u,0.0,False,2351.600000023842,142.0,59.0,40.0,False,,298.47029488919253,[],"[720, 450]",ColorTask,121.0,89.0,,,HRV,HRV_0095,2022-11-30 18:02:41
,wl-rdm,206,519758,0.0-8.89-0.89,1.0,207.0,,,,,,,[],,,,,,56.4,1.0,i,1.0,True,1214.699999988079,73.0,59.0,40.0,False,,233.1552816519407,[],"[720, 450]",ColorTask,122.0,90.0,,,HRV,HRV_0095,2022-11-30 18:02:41
,wl-rdm,207,522308,0.0-8.90-0.90,1.0,208.0,,,,,,,[],,,,,,50.0,0.0,u,0.0,True,1136.6000000238419,69.0,59.0,40.0,False,,323.9896265368873,[],"[720, 450]",ColorTask,123.0,91.0,,,HRV,HRV_0095,2022-11-30 18:02:41
,wl-rdm,208,524341,0.0-8.91-0.91,1.0,209.0,,,,,,,[],,,,,,56.4,0.0,u,0.0,True,640.0,39.0,59.0,40.0,False,,331.22824402909725,[],"[720, 450]",ColorTask,124.0,92.0,,,HRV,HRV_0095,2022-11-30 18:02:41
,wl-rdm,209,526359,0.0-8.92-0.92,1.0,210.0,,,,,,,[],,,,,,73.6,0.0,u,0.0,True,583.0,35.0,59.0,40.0,False,,372.0371629461975,[],"[720, 450]",ColorTask,125.0,93.0,,,HRV,HRV_0095,2022-11-30 18:02:41
,wl-rdm,210,528826,0.0-8.93-0.93,1.0,211.0,,,,,,,[],,,,,,50.0,0.0,u,0.0,True,1016.8000000715256,61.0,59.0,40.0,False,,380.36585044172426,[],"[720, 450]",ColorTask,126.0,94.0,,,HRV,HRV_0095,2022-11-30 18:02:41
,wl-rdm,211,531142,0.0-8.94-0.94,1.0,212.0,,,,,,,[],,,,,,62.5,0.0,u,0.0,True,1029.8999999761581,62.0,59.0,40.0,False,,202.4198814491707,[],"[720, 450]",ColorTask,127.0,95.0,,,HRV,HRV_0095,2022-11-30 18:02:41
,wl-rdm,212,533758,0.0-8.95-0.95,1.0,213.0,,,,,,,[],,,,,,62.5,0.0,u,0.0,True,1338.3999999761581,81.0,59.0,40.0,False,,213.060714645088,[],"[720, 450]",ColorTask,128.0,96.0,,,HRV,HRV_0095,2022-11-30 18:02:41
,wl-rdm,213,535975,0.0-8.96-0.96,1.0,214.0,,,,,,,[],,,,,,73.6,0.0,u,0.0,True,906.6000000238419,55.0,59.0,40.0,False,,231.8376654889735,[],"[720, 450]",ColorTask,129.0,97.0,,,HRV,HRV_0095,2022-11-30 18:02:41
,wl-rdm,214,537858,0.0-8.97-0.97,1.0,215.0,,,,,,,[],,,,,,62.5,1.0,i,1.0,True,555.6999999880791,34.0,59.0,40.0,False,,256.27150119278895,[],"[720, 450]",ColorTask,130.0,98.0,,,HRV,HRV_0095,2022-11-30 18:02:41
,wl-rdm,215,539758,0.0-8.98-0.98,1.0,216.0,,,,,,,[],,,,,,50.0,0.0,u,0.0,True,614.1000000238419,37.0,59.0,40.0,False,,205.89654737833757,[],"[720, 450]",ColorTask,131.0,99.0,,,HRV,HRV_0095,2022-11-30 18:02:41
,wl-rdm,216,542525,0.0-8.99-0.99,1.0,217.0,,,,,,,[],,,,,,53.2,1.0,i,1.0,True,1320.0999999642372,80.0,59.0,40.0,False,,381.9352061041301,[],"[720, 450]",ColorTask,132.0,100.0,,,HRV,HRV_0095,2022-11-30 18:02:41
,wl-rdm,217,544841,0.0-8.100-0.100,1.0,218.0,,,,,,,[],,,,,,53.2,0.0,i,1.0,False,938.0,57.0,59.0,40.0,False,,313.2359221067061,[],"[720, 450]",ColorTask,131.0,101.0,,,HRV,HRV_0095,2022-11-30 18:02:41
,wl-rdm,218,546776,0.0-8.101-0.101,1.0,219.0,,,,,,,[],,,,,,53.2,1.0,i,1.0,True,567.2000000476837,34.0,59.0,40.0,False,,292.73325428012015,[],"[720, 450]",ColorTask,132.0,102.0,,,HRV,HRV_0095,2022-11-30 18:02:41
,wl-rdm,219,548709,0.0-8.102-0.102,1.0,220.0,,,,,,,[],,,,,,56.4,1.0,i,1.0,True,604.9999999403954,37.0,59.0,40.0,False,,259.4777081975554,[],"[720, 450]",ColorTask,133.0,103.0,,,HRV,HRV_0095,2022-11-30 18:02:41
,wl-rdm,220,550859,0.0-8.103-0.103,1.0,221.0,,,,,,,[],,,,,,50.0,0.0,u,0.0,True,854.5999999642372,52.0,59.0,40.0,False,,228.05525180444522,[],"[720, 450]",ColorTask,134.0,104.0,,,HRV,HRV_0095,2022-11-30 18:02:41
,wl-rdm,221,552826,0.0-8.104-0.104,1.0,222.0,,,,,,,[],,,,,,87.9,1.0,i,1.0,True,617.0999999642372,38.0,59.0,40.0,False,,250.93379202496286,[],"[720, 450]",ColorTask,135.0,105.0,,,HRV,HRV_0095,2022-11-30 18:02:41
,wl-rdm,222,554875,0.0-8.105-0.105,1.0,223.0,,,,,,,[],,,,,,56.4,1.0,i,1.0,True,583.6000000238419,35.0,59.0,40.0,False,,384.00227318120903,[],"[720, 450]",ColorTask,136.0,106.0,,,HRV,HRV_0095,2022-11-30 18:02:41
,wl-rdm,223,557108,0.0-8.106-0.106,1.0,224.0,,,,,,,[],,,,,,53.2,1.0,i,1.0,True,844.3999999761581,51.0,59.0,40.0,False,,328.58835519956233,[],"[720, 450]",ColorTask,137.0,107.0,,,HRV,HRV_0095,2022-11-30 18:02:41
,wl-rdm,224,559008,0.0-8.107-0.107,1.0,225.0,,,,,,,[],,,,,,87.9,0.0,u,0.0,True,605.0,37.0,59.0,40.0,False,,230.25860841607792,[],"[720, 450]",ColorTask,138.0,108.0,,,HRV,HRV_0095,2022-11-30 18:02:41
,wl-html-button-response,225,561603,0.0-9.0-0.0,,,,,,,,,,2590.2000000476837,,0,,,,,,,,,,,,,,,,,,,,<h3>End of this session. Thank you!</h3><br>,['Close window'],HRV,HRV_0095,2022-11-30 18:02:41
