trialN,stimuli,question,trialStartTime,trialStartTime_UNIX,stimulus1,rt,receivedResponse,rating,trialEndTime,trialDuration,stimulus1Loaded,exp,subjectId,date
0,"[{'imgObject': {}, 'id': 'orange slices', 'src': '/static/foodstim60/orange slices.jpg', 'key': 'NaN', 'origWidth': 409, 'origHeight': 410, 'width': 409, 'height': 410, 'widthPercent': 0.8, 'rescaleHeight': True, 'trialN': 0, 'loaded': True, 'loadedTime': 2506.0999999940395, 'positionName': 'CENTER', 'positionCoords': [563.5, 227]}]",Rate how much you want to eat this food from 0 (least) to 10 (most).,2653.9000000059605,1669830851149,orange slices,2652.5,True,7.73,5306.4000000059605,2652.5,True,HRV,HRV_0156,2022-11-30 17:56:06
1,"[{'imgObject': {}, 'id': 'grilled chicken strips', 'src': '/static/foodstim60/grilled chicken strips.jpg', 'key': 'NaN', 'origWidth': 410, 'origHeight': 411, 'width': 410, 'height': 411, 'widthPercent': 0.8, 'rescaleHeight': True, 'trialN': 1, 'loaded': True, 'loadedTime': 2509.300000011921, 'positionName': 'CENTER', 'positionCoords': [563, 226.5]}]",Rate how much you want to eat this food from 0 (least) to 10 (most).,5311.5,1669830853806,grilled chicken strips,1783.199999988079,True,8.82,7094.699999988079,1783.199999988079,True,HRV,HRV_0156,2022-11-30 17:56:06
2,"[{'imgObject': {}, 'id': 'eggs', 'src': '/static/foodstim60/eggs.jpg', 'key': 'NaN', 'origWidth': 409, 'origHeight': 409, 'width': 409, 'height': 409, 'widthPercent': 0.8, 'rescaleHeight': True, 'trialN': 2, 'loaded': True, 'loadedTime': 2510.4000000059605, 'positionName': 'CENTER', 'positionCoords': [563.5, 227.5]}]",Rate how much you want to eat this food from 0 (least) to 10 (most).,7095.800000011921,1669830855591,eggs,1661.2999999821186,True,7.86,8757.09999999404,1661.2999999821186,True,HRV,HRV_0156,2022-11-30 17:56:06
3,"[{'imgObject': {}, 'id': 'fruitsalad', 'src': '/static/foodstim60/fruitsalad.jpg', 'key': 'NaN', 'origWidth': 410, 'origHeight': 410, 'width': 410, 'height': 410, 'widthPercent': 0.8, 'rescaleHeight': True, 'trialN': 3, 'loaded': True, 'loadedTime': 2511.5999999940395, 'positionName': 'CENTER', 'positionCoords': [563, 227]}]",Rate how much you want to eat this food from 0 (least) to 10 (most).,8758.09999999404,1669830857253,fruitsalad,1871.5,True,5.92,10629.59999999404,1871.5,True,HRV,HRV_0156,2022-11-30 17:56:06
4,"[{'imgObject': {}, 'id': 'sushi w_condiments', 'src': '/static/foodstim60/sushi w_condiments.jpg', 'key': 'NaN', 'origWidth': 410, 'origHeight': 410, 'width': 410, 'height': 410, 'widthPercent': 0.8, 'rescaleHeight': True, 'trialN': 4, 'loaded': True, 'loadedTime': 2513, 'positionName': 'CENTER', 'positionCoords': [563, 227]}]",Rate how much you want to eat this food from 0 (least) to 10 (most).,10630.699999988079,1669830859126,sushi w_condiments,2334.7000000178814,True,9.790000000000001,12965.40000000596,2334.7000000178814,True,HRV,HRV_0156,2022-11-30 17:56:06
5,"[{'imgObject': {}, 'id': 'tacos', 'src': '/static/foodstim60/tacos.jpg', 'key': 'NaN', 'origWidth': 411, 'origHeight': 411, 'width': 411, 'height': 411, 'widthPercent': 0.8, 'rescaleHeight': True, 'trialN': 5, 'loaded': True, 'loadedTime': 2522.0999999940395, 'positionName': 'CENTER', 'positionCoords': [562.5, 226.5]}]",Rate how much you want to eat this food from 0 (least) to 10 (most).,12966.300000011921,1669830861461,tacos,1653.7999999821186,True,9.94,14620.09999999404,1653.7999999821186,True,HRV,HRV_0156,2022-11-30 17:56:06
6,"[{'imgObject': {}, 'id': 'chickenfingers', 'src': '/static/foodstim60/chickenfingers.jpg', 'key': 'NaN', 'origWidth': 410, 'origHeight': 410, 'width': 410, 'height': 410, 'widthPercent': 0.8, 'rescaleHeight': True, 'trialN': 6, 'loaded': True, 'loadedTime': 2523.5999999940395, 'positionName': 'CENTER', 'positionCoords': [563, 227]}]",Rate how much you want to eat this food from 0 (least) to 10 (most).,14621.5,1669830863116,chickenfingers,1491.0,True,9.53,16112.5,1491.0,True,HRV,HRV_0156,2022-11-30 17:56:06
7,"[{'imgObject': {}, 'id': 'mashed potato', 'src': '/static/foodstim60/mashed potato.jpg', 'key': 'NaN', 'origWidth': 409, 'origHeight': 409, 'width': 409, 'height': 409, 'widthPercent': 0.8, 'rescaleHeight': True, 'trialN': 7, 'loaded': True, 'loadedTime': 2528.800000011921, 'positionName': 'CENTER', 'positionCoords': [563.5, 227.5]}]",Rate how much you want to eat this food from 0 (least) to 10 (most).,16113.800000011921,1669830864609,mashed potato,1831.0999999940395,True,7.33,17944.90000000596,1831.0999999940395,True,HRV,HRV_0156,2022-11-30 17:56:06
8,"[{'imgObject': {}, 'id': 'raspberries', 'src': '/static/foodstim60/raspberries.jpg', 'key': 'NaN', 'origWidth': 411, 'origHeight': 411, 'width': 411, 'height': 411, 'widthPercent': 0.8, 'rescaleHeight': True, 'trialN': 8, 'loaded': True, 'loadedTime': 2531.300000011921, 'positionName': 'CENTER', 'positionCoords': [562.5, 226.5]}]",Rate how much you want to eat this food from 0 (least) to 10 (most).,17946.30000001192,1669830866441,raspberries,1820.2999999821186,True,9.53,19766.59999999404,1820.2999999821186,True,HRV,HRV_0156,2022-11-30 17:56:06
9,"[{'imgObject': {}, 'id': 'cherry tomato', 'src': '/static/foodstim60/cherry tomato.jpg', 'key': 'NaN', 'origWidth': 410, 'origHeight': 410, 'width': 410, 'height': 410, 'widthPercent': 0.8, 'rescaleHeight': True, 'trialN': 9, 'loaded': True, 'loadedTime': 2533, 'positionName': 'CENTER', 'positionCoords': [563, 227]}]",Rate how much you want to eat this food from 0 (least) to 10 (most).,19768.0,1669830868263,cherry tomato,2032.0,True,2.2,21800.0,2032.0,True,HRV,HRV_0156,2022-11-30 17:56:06
10,"[{'imgObject': {}, 'id': 'bagel and cc', 'src': '/static/foodstim60/bagel and cc.jpg', 'key': 'NaN', 'origWidth': 410, 'origHeight': 410, 'width': 410, 'height': 410, 'widthPercent': 0.8, 'rescaleHeight': True, 'trialN': 10, 'loaded': True, 'loadedTime': 2541.199999988079, 'positionName': 'CENTER', 'positionCoords': [563, 227]}]",Rate how much you want to eat this food from 0 (least) to 10 (most).,21801.19999998808,1669830870296,bagel and cc,2310.9000000059605,True,9.15,24112.09999999404,2310.9000000059605,True,HRV,HRV_0156,2022-11-30 17:56:06
11,"[{'imgObject': {}, 'id': 'baked potato', 'src': '/static/foodstim60/baked potato.jpg', 'key': 'NaN', 'origWidth': 409, 'origHeight': 410, 'width': 409, 'height': 410, 'widthPercent': 0.8, 'rescaleHeight': True, 'trialN': 11, 'loaded': True, 'loadedTime': 2543.0999999940395, 'positionName': 'CENTER', 'positionCoords': [563.5, 227]}]",Rate how much you want to eat this food from 0 (least) to 10 (most).,24114.30000001192,1669830872609,baked potato,1780.8999999761581,True,5.63,25895.19999998808,1780.8999999761581,True,HRV,HRV_0156,2022-11-30 17:56:06
12,"[{'imgObject': {}, 'id': 'rigatoni and sauce', 'src': '/static/foodstim60/rigatoni and sauce.jpg', 'key': 'NaN', 'origWidth': 410, 'origHeight': 411, 'width': 410, 'height': 411, 'widthPercent': 0.8, 'rescaleHeight': True, 'trialN': 12, 'loaded': True, 'loadedTime': 2546.5, 'positionName': 'CENTER', 'positionCoords': [563, 226.5]}]",Rate how much you want to eat this food from 0 (least) to 10 (most).,25896.59999999404,1669830874391,rigatoni and sauce,1829.0999999940395,True,5.8,27725.69999998808,1829.0999999940395,True,HRV,HRV_0156,2022-11-30 17:56:06
13,"[{'imgObject': {}, 'id': 'edamame', 'src': '/static/foodstim60/edamame.jpg', 'key': 'NaN', 'origWidth': 409, 'origHeight': 410, 'width': 409, 'height': 410, 'widthPercent': 0.8, 'rescaleHeight': True, 'trialN': 13, 'loaded': True, 'loadedTime': 2551.300000011921, 'positionName': 'CENTER', 'positionCoords': [563.5, 227]}]",Rate how much you want to eat this food from 0 (least) to 10 (most).,27726.90000000596,1669830876222,edamame,1468.0999999940395,True,1.48,29195.0,1468.0999999940395,True,HRV,HRV_0156,2022-11-30 17:56:06
14,"[{'imgObject': {}, 'id': 'fried eggs', 'src': '/static/foodstim60/fried eggs.jpg', 'key': 'NaN', 'origWidth': 410, 'origHeight': 410, 'width': 410, 'height': 410, 'widthPercent': 0.8, 'rescaleHeight': True, 'trialN': 14, 'loaded': True, 'loadedTime': 2554.5, 'positionName': 'CENTER', 'positionCoords': [563, 227]}]",Rate how much you want to eat this food from 0 (least) to 10 (most).,29196.69999998808,1669830877692,fried eggs,1893.1000000238419,True,7.55,31089.80000001192,1893.1000000238419,True,HRV,HRV_0156,2022-11-30 17:56:06
15,"[{'imgObject': {}, 'id': 'seaweed', 'src': '/static/foodstim60/seaweed.jpg', 'key': 'NaN', 'origWidth': 410, 'origHeight': 410, 'width': 410, 'height': 410, 'widthPercent': 0.8, 'rescaleHeight': True, 'trialN': 15, 'loaded': True, 'loadedTime': 2562.5, 'positionName': 'CENTER', 'positionCoords': [563, 227]}]",Rate how much you want to eat this food from 0 (least) to 10 (most).,31090.80000001192,1669830879586,seaweed,1856.5999999940395,True,8.94,32947.40000000596,1856.5999999940395,True,HRV,HRV_0156,2022-11-30 17:56:06
16,"[{'imgObject': {}, 'id': 'turkeysandwich', 'src': '/static/foodstim60/turkeysandwich.jpg', 'key': 'NaN', 'origWidth': 409, 'origHeight': 409, 'width': 409, 'height': 409, 'widthPercent': 0.8, 'rescaleHeight': True, 'trialN': 16, 'loaded': True, 'loadedTime': 2564.300000011921, 'positionName': 'CENTER', 'positionCoords': [563.5, 227.5]}]",Rate how much you want to eat this food from 0 (least) to 10 (most).,32948.59999999404,1669830881444,turkeysandwich,2182.300000011921,True,9.03,35130.90000000596,2182.300000011921,True,HRV,HRV_0156,2022-11-30 17:56:06
17,"[{'imgObject': {}, 'id': 'popsicles', 'src': '/static/foodstim60/popsicles.jpg', 'key': 'NaN', 'origWidth': 410, 'origHeight': 410, 'width': 410, 'height': 410, 'widthPercent': 0.8, 'rescaleHeight': True, 'trialN': 17, 'loaded': True, 'loadedTime': 2565.300000011921, 'positionName': 'CENTER', 'positionCoords': [563, 227]}]",Rate how much you want to eat this food from 0 (least) to 10 (most).,35132.0,1669830883627,popsicles,1760.800000011921,True,0.65,36892.80000001192,1760.800000011921,True,HRV,HRV_0156,2022-11-30 17:56:06
18,"[{'imgObject': {}, 'id': 'olives', 'src': '/static/foodstim60/olives.jpg', 'key': 'NaN', 'origWidth': 410, 'origHeight': 410, 'width': 410, 'height': 410, 'widthPercent': 0.8, 'rescaleHeight': True, 'trialN': 18, 'loaded': True, 'loadedTime': 2567.300000011921, 'positionName': 'CENTER', 'positionCoords': [563, 227]}]",Rate how much you want to eat this food from 0 (least) to 10 (most).,36894.09999999404,1669830885388,olives,2789.4000000059605,True,9.23,39683.5,2789.4000000059605,True,HRV,HRV_0156,2022-11-30 17:56:06
19,"[{'imgObject': {}, 'id': 'mac & cheese', 'src': '/static/foodstim60/mac & cheese.jpg', 'key': 'NaN', 'origWidth': 410, 'origHeight': 410, 'width': 410, 'height': 410, 'widthPercent': 0.8, 'rescaleHeight': True, 'trialN': 19, 'loaded': True, 'loadedTime': 2568.300000011921, 'positionName': 'CENTER', 'positionCoords': [563, 227]}]",Rate how much you want to eat this food from 0 (least) to 10 (most).,39685.09999999404,1669830888179,mac & cheese,1949.5999999940395,True,4.47,41634.69999998808,1949.5999999940395,True,HRV,HRV_0156,2022-11-30 17:56:06
20,"[{'imgObject': {}, 'id': 'ice cream sundae 002', 'src': '/static/foodstim60/ice cream sundae 002.jpg', 'key': 'NaN', 'origWidth': 409, 'origHeight': 409, 'width': 409, 'height': 409, 'widthPercent': 0.8, 'rescaleHeight': True, 'trialN': 20, 'loaded': True, 'loadedTime': 2574.5, 'positionName': 'CENTER', 'positionCoords': [563.5, 227.5]}]",Rate how much you want to eat this food from 0 (least) to 10 (most).,41635.90000000596,1669830890130,ice cream sundae 002,1729.0,True,2.69,43364.90000000596,1729.0,True,HRV,HRV_0156,2022-11-30 17:56:06
21,"[{'imgObject': {}, 'id': 'avocado', 'src': '/static/foodstim60/avocado.jpg', 'key': 'NaN', 'origWidth': 409, 'origHeight': 409, 'width': 409, 'height': 409, 'widthPercent': 0.8, 'rescaleHeight': True, 'trialN': 21, 'loaded': True, 'loadedTime': 2576.699999988079, 'positionName': 'CENTER', 'positionCoords': [563.5, 227.5]}]",Rate how much you want to eat this food from 0 (least) to 10 (most).,43367.30000001192,1669830891862,avocado,3257.7999999821186,True,8.51,46625.09999999404,3257.7999999821186,True,HRV,HRV_0156,2022-11-30 17:56:06
22,"[{'imgObject': {}, 'id': 'corn cob', 'src': '/static/foodstim60/corn cob.jpg', 'key': 'NaN', 'origWidth': 411, 'origHeight': 411, 'width': 411, 'height': 411, 'widthPercent': 0.8, 'rescaleHeight': True, 'trialN': 22, 'loaded': True, 'loadedTime': 2578, 'positionName': 'CENTER', 'positionCoords': [562.5, 226.5]}]",Rate how much you want to eat this food from 0 (least) to 10 (most).,46626.30000001192,1669830895121,corn cob,1798.8999999761581,True,2.35,48425.19999998808,1798.8999999761581,True,HRV,HRV_0156,2022-11-30 17:56:06
23,"[{'imgObject': {}, 'id': 'turkey sandwich', 'src': '/static/foodstim60/turkey sandwich.jpg', 'key': 'NaN', 'origWidth': 409, 'origHeight': 409, 'width': 409, 'height': 409, 'widthPercent': 0.8, 'rescaleHeight': True, 'trialN': 23, 'loaded': True, 'loadedTime': 2579.5999999940395, 'positionName': 'CENTER', 'positionCoords': [563.5, 227.5]}]",Rate how much you want to eat this food from 0 (least) to 10 (most).,48426.59999999404,1669830896921,turkey sandwich,2475.300000011921,True,8.89,50901.90000000596,2475.300000011921,True,HRV,HRV_0156,2022-11-30 17:56:06
24,"[{'imgObject': {}, 'id': 'steak', 'src': '/static/foodstim60/steak.jpg', 'key': 'NaN', 'origWidth': 410, 'origHeight': 410, 'width': 410, 'height': 410, 'widthPercent': 0.8, 'rescaleHeight': True, 'trialN': 24, 'loaded': True, 'loadedTime': 2580.5999999940395, 'positionName': 'CENTER', 'positionCoords': [563, 227]}]",Rate how much you want to eat this food from 0 (least) to 10 (most).,50903.0,1669830899397,steak,1776.199999988079,True,6.04,52679.19999998808,1776.199999988079,True,HRV,HRV_0156,2022-11-30 17:56:06
25,"[{'imgObject': {}, 'id': 'luckycharms', 'src': '/static/foodstim60/luckycharms.jpg', 'key': 'NaN', 'origWidth': 410, 'origHeight': 409, 'width': 410, 'height': 409, 'widthPercent': 0.8, 'rescaleHeight': True, 'trialN': 25, 'loaded': True, 'loadedTime': 2586.5, 'positionName': 'CENTER', 'positionCoords': [563, 227.5]}]",Rate how much you want to eat this food from 0 (least) to 10 (most).,52680.40000000596,1669830901175,luckycharms,1792.5999999940395,True,0.0,54473.0,1792.5999999940395,True,HRV,HRV_0156,2022-11-30 17:56:06
26,"[{'imgObject': {}, 'id': 'Grapes', 'src': '/static/foodstim60/Grapes.jpg', 'key': 'NaN', 'origWidth': 411, 'origHeight': 411, 'width': 411, 'height': 411, 'widthPercent': 0.8, 'rescaleHeight': True, 'trialN': 26, 'loaded': True, 'loadedTime': 2588, 'positionName': 'CENTER', 'positionCoords': [562.5, 226.5]}]",Rate how much you want to eat this food from 0 (least) to 10 (most).,54474.59999999404,1669830902969,Grapes,1968.7000000178814,True,5.93,56443.30000001192,1968.7000000178814,True,HRV,HRV_0156,2022-11-30 17:56:06
27,"[{'imgObject': {}, 'id': 'roastedpotatoes', 'src': '/static/foodstim60/roastedpotatoes.jpg', 'key': 'NaN', 'origWidth': 409, 'origHeight': 410, 'width': 409, 'height': 410, 'widthPercent': 0.8, 'rescaleHeight': True, 'trialN': 27, 'loaded': True, 'loadedTime': 2589.300000011921, 'positionName': 'CENTER', 'positionCoords': [563.5, 227]}]",Rate how much you want to eat this food from 0 (least) to 10 (most).,56444.80000001192,1669830904939,roastedpotatoes,1744.8999999761581,True,8.47,58189.69999998808,1744.8999999761581,True,HRV,HRV_0156,2022-11-30 17:56:06
28,"[{'imgObject': {}, 'id': 'salad w chicken', 'src': '/static/foodstim60/salad w chicken.jpg', 'key': 'NaN', 'origWidth': 411, 'origHeight': 411, 'width': 411, 'height': 411, 'widthPercent': 0.8, 'rescaleHeight': True, 'trialN': 28, 'loaded': True, 'loadedTime': 2590.5, 'positionName': 'CENTER', 'positionCoords': [562.5, 226.5]}]",Rate how much you want to eat this food from 0 (least) to 10 (most).,58191.69999998808,1669830906686,salad w chicken,1577.7000000178814,True,9.68,59769.40000000596,1577.7000000178814,True,HRV,HRV_0156,2022-11-30 17:56:06
29,"[{'imgObject': {}, 'id': 'cherries', 'src': '/static/foodstim60/cherries.jpg', 'key': 'NaN', 'origWidth': 410, 'origHeight': 411, 'width': 410, 'height': 411, 'widthPercent': 0.8, 'rescaleHeight': True, 'trialN': 29, 'loaded': True, 'loadedTime': 2591.9000000059605, 'positionName': 'CENTER', 'positionCoords': [563, 226.5]}]",Rate how much you want to eat this food from 0 (least) to 10 (most).,59770.69999998808,1669830908265,cherries,1624.5,True,9.83,61395.19999998808,1624.5,True,HRV,HRV_0156,2022-11-30 17:56:06
30,"[{'imgObject': {}, 'id': 'burrito', 'src': '/static/foodstim60/burrito.jpg', 'key': 'NaN', 'origWidth': 410, 'origHeight': 410, 'width': 410, 'height': 410, 'widthPercent': 0.8, 'rescaleHeight': True, 'trialN': 30, 'loaded': True, 'loadedTime': 2596.300000011921, 'positionName': 'CENTER', 'positionCoords': [563, 227]}]",Rate how much you want to eat this food from 0 (least) to 10 (most).,61396.59999999404,1669830909891,burrito,3151.2000000178814,True,5.2700000000000005,64547.80000001192,3151.2000000178814,True,HRV,HRV_0156,2022-11-30 17:56:06
31,"[{'imgObject': {}, 'id': 'raisin bran w milk', 'src': '/static/foodstim60/raisin bran w milk.jpg', 'key': 'NaN', 'origWidth': 411, 'origHeight': 411, 'width': 411, 'height': 411, 'widthPercent': 0.8, 'rescaleHeight': True, 'trialN': 31, 'loaded': True, 'loadedTime': 2600.9000000059605, 'positionName': 'CENTER', 'positionCoords': [562.5, 226.5]}]",Rate how much you want to eat this food from 0 (least) to 10 (most).,64549.0,1669830913043,raisin bran w milk,1660.300000011921,True,8.02,66209.30000001192,1660.300000011921,True,HRV,HRV_0156,2022-11-30 17:56:06
32,"[{'imgObject': {}, 'id': 'kiwi', 'src': '/static/foodstim60/kiwi.jpg', 'key': 'NaN', 'origWidth': 410, 'origHeight': 410, 'width': 410, 'height': 410, 'widthPercent': 0.8, 'rescaleHeight': True, 'trialN': 32, 'loaded': True, 'loadedTime': 2602.0999999940395, 'positionName': 'CENTER', 'positionCoords': [563, 227]}]",Rate how much you want to eat this food from 0 (least) to 10 (most).,66211.69999998808,1669830914706,kiwi,1692.300000011921,True,5.89,67904.0,1692.300000011921,True,HRV,HRV_0156,2022-11-30 17:56:06
33,"[{'imgObject': {}, 'id': 'cheerios', 'src': '/static/foodstim60/cheerios.jpg', 'key': 'NaN', 'origWidth': 409, 'origHeight': 410, 'width': 409, 'height': 410, 'widthPercent': 0.8, 'rescaleHeight': True, 'trialN': 33, 'loaded': True, 'loadedTime': 2603, 'positionName': 'CENTER', 'positionCoords': [563.5, 227]}]",Rate how much you want to eat this food from 0 (least) to 10 (most).,67905.5,1669830916400,cheerios,1735.9000000059605,True,5.8500000000000005,69641.40000000596,1735.9000000059605,True,HRV,HRV_0156,2022-11-30 17:56:06
34,"[{'imgObject': {}, 'id': 'cantaloupe', 'src': '/static/foodstim60/cantaloupe.jpg', 'key': 'NaN', 'origWidth': 409, 'origHeight': 409, 'width': 409, 'height': 409, 'widthPercent': 0.8, 'rescaleHeight': True, 'trialN': 34, 'loaded': True, 'loadedTime': 2603.9000000059605, 'positionName': 'CENTER', 'positionCoords': [563.5, 227.5]}]",Rate how much you want to eat this food from 0 (least) to 10 (most).,69642.19999998808,1669830918136,cantaloupe,1475.800000011921,True,5.69,71118.0,1475.800000011921,True,HRV,HRV_0156,2022-11-30 17:56:06
35,"[{'imgObject': {}, 'id': 'banana', 'src': '/static/foodstim60/banana.jpg', 'key': 'NaN', 'origWidth': 410, 'origHeight': 410, 'width': 410, 'height': 410, 'widthPercent': 0.8, 'rescaleHeight': True, 'trialN': 35, 'loaded': True, 'loadedTime': 2609, 'positionName': 'CENTER', 'positionCoords': [563, 227]}]",Rate how much you want to eat this food from 0 (least) to 10 (most).,71118.80000001192,1669830919613,banana,1628.2999999821186,True,5.69,72747.09999999404,1628.2999999821186,True,HRV,HRV_0156,2022-11-30 17:56:06
36,"[{'imgObject': {}, 'id': 'rigatoni', 'src': '/static/foodstim60/rigatoni.jpg', 'key': 'NaN', 'origWidth': 411, 'origHeight': 411, 'width': 411, 'height': 411, 'widthPercent': 0.8, 'rescaleHeight': True, 'trialN': 36, 'loaded': True, 'loadedTime': 2610.199999988079, 'positionName': 'CENTER', 'positionCoords': [562.5, 226.5]}]",Rate how much you want to eat this food from 0 (least) to 10 (most).,72748.30000001192,1669830921243,rigatoni,1547.699999988079,True,1.1500000000000001,74296.0,1547.699999988079,True,HRV,HRV_0156,2022-11-30 17:56:06
37,"[{'imgObject': {}, 'id': 'omelette', 'src': '/static/foodstim60/omelette.jpg', 'key': 'NaN', 'origWidth': 410, 'origHeight': 409, 'width': 410, 'height': 409, 'widthPercent': 0.8, 'rescaleHeight': True, 'trialN': 37, 'loaded': True, 'loadedTime': 2611.300000011921, 'positionName': 'CENTER', 'positionCoords': [563, 227.5]}]",Rate how much you want to eat this food from 0 (least) to 10 (most).,74297.59999999404,1669830922792,omelette,1667.2000000178814,True,4.32,75964.80000001192,1667.2000000178814,True,HRV,HRV_0156,2022-11-30 17:56:06
38,"[{'imgObject': {}, 'id': 'chicken nuggets2', 'src': '/static/foodstim60/chicken nuggets2.jpg', 'key': 'NaN', 'origWidth': 410, 'origHeight': 409, 'width': 410, 'height': 409, 'widthPercent': 0.8, 'rescaleHeight': True, 'trialN': 38, 'loaded': True, 'loadedTime': 2612.0999999940395, 'positionName': 'CENTER', 'positionCoords': [563, 227.5]}]",Rate how much you want to eat this food from 0 (least) to 10 (most).,75965.69999998808,1669830924460,chicken nuggets2,1625.300000011921,True,5.75,77591.0,1625.300000011921,True,HRV,HRV_0156,2022-11-30 17:56:06
39,"[{'imgObject': {}, 'id': 'yogurt no spoon', 'src': '/static/foodstim60/yogurt no spoon.jpg', 'key': 'NaN', 'origWidth': 411, 'origHeight': 410, 'width': 411, 'height': 410, 'widthPercent': 0.8, 'rescaleHeight': True, 'trialN': 39, 'loaded': True, 'loadedTime': 2612.9000000059605, 'positionName': 'CENTER', 'positionCoords': [562.5, 227]}]",Rate how much you want to eat this food from 0 (least) to 10 (most).,77592.69999998808,1669830926087,yogurt no spoon,1708.6000000238419,True,6.51,79301.30000001192,1708.6000000238419,True,HRV,HRV_0156,2022-11-30 17:56:06
40,"[{'imgObject': {}, 'id': 'hotdog w must', 'src': '/static/foodstim60/hotdog w must.jpg', 'key': 'NaN', 'origWidth': 409, 'origHeight': 409, 'width': 409, 'height': 409, 'widthPercent': 0.8, 'rescaleHeight': True, 'trialN': 40, 'loaded': True, 'loadedTime': 2618.0999999940395, 'positionName': 'CENTER', 'positionCoords': [563.5, 227.5]}]",Rate how much you want to eat this food from 0 (least) to 10 (most).,79302.40000000596,1669830927797,hotdog w must,1655.2999999821186,True,7.53,80957.69999998808,1655.2999999821186,True,HRV,HRV_0156,2022-11-30 17:56:06
41,"[{'imgObject': {}, 'id': 'Tribe humus pita', 'src': '/static/foodstim60/Tribe humus pita.jpg', 'key': 'NaN', 'origWidth': 411, 'origHeight': 411, 'width': 411, 'height': 411, 'widthPercent': 0.8, 'rescaleHeight': True, 'trialN': 41, 'loaded': True, 'loadedTime': 2619.300000011921, 'positionName': 'CENTER', 'positionCoords': [562.5, 226.5]}]",Rate how much you want to eat this food from 0 (least) to 10 (most).,80959.40000000596,1669830929454,Tribe humus pita,1452.4000000059605,True,8.09,82411.80000001192,1452.4000000059605,True,HRV,HRV_0156,2022-11-30 17:56:06
42,"[{'imgObject': {}, 'id': 'pear', 'src': '/static/foodstim60/pear.jpg', 'key': 'NaN', 'origWidth': 411, 'origHeight': 410, 'width': 411, 'height': 410, 'widthPercent': 0.8, 'rescaleHeight': True, 'trialN': 42, 'loaded': True, 'loadedTime': 2620.4000000059605, 'positionName': 'CENTER', 'positionCoords': [562.5, 227]}]",Rate how much you want to eat this food from 0 (least) to 10 (most).,82413.30000001192,1669830930908,pear,1497.5,True,6.0200000000000005,83910.80000001192,1497.5,True,HRV,HRV_0156,2022-11-30 17:56:06
43,"[{'imgObject': {}, 'id': 'lox', 'src': '/static/foodstim60/lox.jpg', 'key': 'NaN', 'origWidth': 410, 'origHeight': 411, 'width': 410, 'height': 411, 'widthPercent': 0.8, 'rescaleHeight': True, 'trialN': 43, 'loaded': True, 'loadedTime': 2621.199999988079, 'positionName': 'CENTER', 'positionCoords': [563, 226.5]}]",Rate how much you want to eat this food from 0 (least) to 10 (most).,83912.40000000596,1669830932407,lox,1594.4000000059605,True,5.83,85506.80000001192,1594.4000000059605,True,HRV,HRV_0156,2022-11-30 17:56:06
44,"[{'imgObject': {}, 'id': 'blackbeanswithrice', 'src': '/static/foodstim60/blackbeanswithrice.jpg', 'key': 'NaN', 'origWidth': 410, 'origHeight': 410, 'width': 410, 'height': 410, 'widthPercent': 0.8, 'rescaleHeight': True, 'trialN': 44, 'loaded': True, 'loadedTime': 2622, 'positionName': 'CENTER', 'positionCoords': [563, 227]}]",Rate how much you want to eat this food from 0 (least) to 10 (most).,85507.90000000596,1669830934002,blackbeanswithrice,1593.5,True,5.0,87101.40000000596,1593.5,True,HRV,HRV_0156,2022-11-30 17:56:06
45,"[{'imgObject': {}, 'id': 'burger', 'src': '/static/foodstim60/burger.jpg', 'key': 'NaN', 'origWidth': 409, 'origHeight': 409, 'width': 409, 'height': 409, 'widthPercent': 0.8, 'rescaleHeight': True, 'trialN': 45, 'loaded': True, 'loadedTime': 2627.5, 'positionName': 'CENTER', 'positionCoords': [563.5, 227.5]}]",Rate how much you want to eat this food from 0 (least) to 10 (most).,87102.40000000596,1669830935597,burger,1889.5999999940395,True,9.02,88992.0,1889.5999999940395,True,HRV,HRV_0156,2022-11-30 17:56:06
46,"[{'imgObject': {}, 'id': 'veggieswithdip', 'src': '/static/foodstim60/veggieswithdip.jpg', 'key': 'NaN', 'origWidth': 409, 'origHeight': 409, 'width': 409, 'height': 409, 'widthPercent': 0.8, 'rescaleHeight': True, 'trialN': 46, 'loaded': True, 'loadedTime': 2628.5999999940395, 'positionName': 'CENTER', 'positionCoords': [563.5, 227.5]}]",Rate how much you want to eat this food from 0 (least) to 10 (most).,88994.09999999404,1669830937488,veggieswithdip,1892.0999999940395,True,9.21,90886.19999998808,1892.0999999940395,True,HRV,HRV_0156,2022-11-30 17:56:06
47,"[{'imgObject': {}, 'id': 'mango', 'src': '/static/foodstim60/mango.jpg', 'key': 'NaN', 'origWidth': 411, 'origHeight': 411, 'width': 411, 'height': 411, 'widthPercent': 0.8, 'rescaleHeight': True, 'trialN': 47, 'loaded': True, 'loadedTime': 2629.5999999940395, 'positionName': 'CENTER', 'positionCoords': [562.5, 226.5]}]",Rate how much you want to eat this food from 0 (least) to 10 (most).,90887.80000001192,1669830939382,mango,1445.3999999761581,True,6.66,92333.19999998808,1445.3999999761581,True,HRV,HRV_0156,2022-11-30 17:56:06
48,"[{'imgObject': {}, 'id': 'apple slices', 'src': '/static/foodstim60/apple slices.jpg', 'key': 'NaN', 'origWidth': 409, 'origHeight': 410, 'width': 409, 'height': 410, 'widthPercent': 0.8, 'rescaleHeight': True, 'trialN': 48, 'loaded': True, 'loadedTime': 2630.300000011921, 'positionName': 'CENTER', 'positionCoords': [563.5, 227]}]",Rate how much you want to eat this food from 0 (least) to 10 (most).,92334.19999998808,1669830940829,apple slices,2162.7000000178814,True,6.18,94496.90000000596,2162.7000000178814,True,HRV,HRV_0156,2022-11-30 17:56:06
49,"[{'imgObject': {}, 'id': 'shreddedwheatwithmilk', 'src': '/static/foodstim60/shreddedwheatwithmilk.jpg', 'key': 'NaN', 'origWidth': 410, 'origHeight': 410, 'width': 410, 'height': 410, 'widthPercent': 0.8, 'rescaleHeight': True, 'trialN': 49, 'loaded': True, 'loadedTime': 2631, 'positionName': 'CENTER', 'positionCoords': [563, 227]}]",Rate how much you want to eat this food from 0 (least) to 10 (most).,94498.09999999404,1669830942992,shreddedwheatwithmilk,2121.300000011921,True,5.2,96619.40000000596,2121.300000011921,True,HRV,HRV_0156,2022-11-30 17:56:06
50,"[{'imgObject': {}, 'id': 'eggsalad', 'src': '/static/foodstim60/eggsalad.jpg', 'key': 'NaN', 'origWidth': 410, 'origHeight': 409, 'width': 410, 'height': 409, 'widthPercent': 0.8, 'rescaleHeight': True, 'trialN': 50, 'loaded': True, 'loadedTime': 2636.300000011921, 'positionName': 'CENTER', 'positionCoords': [563, 227.5]}]",Rate how much you want to eat this food from 0 (least) to 10 (most).,96621.40000000596,1669830945117,eggsalad,2099.7999999821186,True,7.18,98721.19999998808,2099.7999999821186,True,HRV,HRV_0156,2022-11-30 17:56:06
51,"[{'imgObject': {}, 'id': 'froot loops w milk', 'src': '/static/foodstim60/froot loops w milk.jpg', 'key': 'NaN', 'origWidth': 410, 'origHeight': 410, 'width': 410, 'height': 410, 'widthPercent': 0.8, 'rescaleHeight': True, 'trialN': 51, 'loaded': True, 'loadedTime': 2637.4000000059605, 'positionName': 'CENTER', 'positionCoords': [563, 227]}]",Rate how much you want to eat this food from 0 (least) to 10 (most).,98722.69999998808,1669830947218,froot loops w milk,3178.5,True,0.1,101901.19999998808,3178.5,True,HRV,HRV_0156,2022-11-30 17:56:06
52,"[{'imgObject': {}, 'id': 'salmon', 'src': '/static/foodstim60/salmon.jpg', 'key': 'NaN', 'origWidth': 410, 'origHeight': 409, 'width': 410, 'height': 409, 'widthPercent': 0.8, 'rescaleHeight': True, 'trialN': 52, 'loaded': True, 'loadedTime': 2638.199999988079, 'positionName': 'CENTER', 'positionCoords': [563, 227.5]}]",Rate how much you want to eat this food from 0 (least) to 10 (most).,101902.5,1669830950398,salmon,2209.0,True,7.86,104111.5,2209.0,True,HRV,HRV_0156,2022-11-30 17:56:06
53,"[{'imgObject': {}, 'id': 'blueberries', 'src': '/static/foodstim60/blueberries.jpg', 'key': 'NaN', 'origWidth': 411, 'origHeight': 411, 'width': 411, 'height': 411, 'widthPercent': 0.8, 'rescaleHeight': True, 'trialN': 53, 'loaded': True, 'loadedTime': 2639, 'positionName': 'CENTER', 'positionCoords': [562.5, 226.5]}]",Rate how much you want to eat this food from 0 (least) to 10 (most).,104112.90000000596,1669830952608,blueberries,2304.699999988079,True,9.06,106417.59999999404,2304.699999988079,True,HRV,HRV_0156,2022-11-30 17:56:06
54,"[{'imgObject': {}, 'id': 'strawberries', 'src': '/static/foodstim60/strawberries.jpg', 'key': 'NaN', 'origWidth': 410, 'origHeight': 410, 'width': 410, 'height': 410, 'widthPercent': 0.8, 'rescaleHeight': True, 'trialN': 54, 'loaded': True, 'loadedTime': 2639.699999988079, 'positionName': 'CENTER', 'positionCoords': [563, 227]}]",Rate how much you want to eat this food from 0 (least) to 10 (most).,106418.59999999404,1669830954914,strawberries,1575.300000011921,True,9.06,107993.90000000596,1575.300000011921,True,HRV,HRV_0156,2022-11-30 17:56:06
55,"[{'imgObject': {}, 'id': 'sweetpotato', 'src': '/static/foodstim60/sweetpotato.jpg', 'key': 'NaN', 'origWidth': 410, 'origHeight': 410, 'width': 410, 'height': 410, 'widthPercent': 0.8, 'rescaleHeight': True, 'trialN': 55, 'loaded': True, 'loadedTime': 2644.9000000059605, 'positionName': 'CENTER', 'positionCoords': [563, 227]}]",Rate how much you want to eat this food from 0 (least) to 10 (most).,107995.30000001192,1669830956491,sweetpotato,1734.5,True,7.16,109729.80000001192,1734.5,True,HRV,HRV_0156,2022-11-30 17:56:06
56,"[{'imgObject': {}, 'id': 'bagel plain', 'src': '/static/foodstim60/bagel plain.jpg', 'key': 'NaN', 'origWidth': 410, 'origHeight': 410, 'width': 410, 'height': 410, 'widthPercent': 0.8, 'rescaleHeight': True, 'trialN': 56, 'loaded': True, 'loadedTime': 2646, 'positionName': 'CENTER', 'positionCoords': [563, 227]}]",Rate how much you want to eat this food from 0 (least) to 10 (most).,109731.5,1669830958227,bagel plain,1906.5,True,5.0,111638.0,1906.5,True,HRV,HRV_0156,2022-11-30 17:56:06
57,"[{'imgObject': {}, 'id': 'granola w milk', 'src': '/static/foodstim60/granola w milk.jpg', 'key': 'NaN', 'origWidth': 410, 'origHeight': 410, 'width': 410, 'height': 410, 'widthPercent': 0.8, 'rescaleHeight': True, 'trialN': 57, 'loaded': True, 'loadedTime': 2646.699999988079, 'positionName': 'CENTER', 'positionCoords': [563, 227]}]",Rate how much you want to eat this food from 0 (least) to 10 (most).,111639.5,1669830960135,granola w milk,1745.800000011921,True,5.78,113385.30000001192,1745.800000011921,True,HRV,HRV_0156,2022-11-30 17:56:06
58,"[{'imgObject': {}, 'id': 'cocktailshrimp', 'src': '/static/foodstim60/cocktailshrimp.jpg', 'key': 'NaN', 'origWidth': 410, 'origHeight': 410, 'width': 410, 'height': 410, 'widthPercent': 0.8, 'rescaleHeight': True, 'trialN': 58, 'loaded': True, 'loadedTime': 2647.5999999940395, 'positionName': 'CENTER', 'positionCoords': [563, 227]}]",Rate how much you want to eat this food from 0 (least) to 10 (most).,113386.19999998808,1669830961881,cocktailshrimp,1976.2000000178814,True,9.370000000000001,115362.40000000596,1976.2000000178814,True,HRV,HRV_0156,2022-11-30 17:56:06
59,"[{'imgObject': {}, 'id': 'hashbrowns', 'src': '/static/foodstim60/hashbrowns.jpg', 'key': 'NaN', 'origWidth': 411, 'origHeight': 410, 'width': 411, 'height': 410, 'widthPercent': 0.8, 'rescaleHeight': True, 'trialN': 59, 'loaded': True, 'loadedTime': 2648.4000000059605, 'positionName': 'CENTER', 'positionCoords': [562.5, 227]}]",Rate how much you want to eat this food from 0 (least) to 10 (most).,115363.59999999404,1669830963859,hashbrowns,1846.2000000178814,True,7.23,117209.80000001192,1846.2000000178814,True,HRV,HRV_0156,2022-11-30 17:56:06
