success,trial_type,trial_index,time_elapsed,internal_node_id,Block,TrialNumber,TrialTime,trialTimeDiff,FPS_avg,FPS_med,FPS_mode,TrialDur,winResizeTime,rt,block,button_pressed,MotCoh,MotDir,ColCoh,Color,ChoiceKey,Choice,Accuracy,RT,nFrames,FPS,PPD,missTrial,missTrialMsg,onsetDelay,fullScreenExitTime,canvCenter,TrialType,Score,BlockTrial,stimulus,button_labels,exp,subjectId,date
True,fullscreen,0,1996,0.0-0.0,0.0,1.0,,,,,,,,,,,,,,,,,,,,,,,,,,,,,,,,HRV,HRV_0156,2022-11-30 18:46:10
,wl-check-fps,1,6990,0.0-1.0,0.0,2.0,"[2546.6, 2547.4, 2563.1, 2579.6, 2596.4, 2613.2, 2629.8, 2646.6, 2663.2, 2679.8, 2696.8, 2713.2, 2730.1, 2746.9, 2763.8, 2780.3, 2796.8, 2813.4, 2830.1, 2846.8, 2863.4, 2880.7, 2897.4, 2913.9, 2931, 2947.1, 2964.1, 2980.8, 2997, 3014.1, 3030.6, 3047.2, 3064.6, 3080.3, 3097.2, 3114.1, 3130.7, 3146.9, 3164, 3180.6, 3197.1, 3214.1, 3230.8, 3247.5, 3264.2, 3280.5, 3297.4, 3314.2, 3330.8, 3347.2, 3363.9, 3380.4, 3414.4, 3415, 3430.5, 3447.1, 3464, 3480.6, 3497.1, 3514, 3530.6, 3547.4, 3564.3, 3580.9, 3597.5, 3614.2, 3631.2, 3647.6, 3664.4, 3681.1, 3697.7, 3714.3, 3730.9, 3747.8, 3764.5, 3781.2, 3797.5, 3814.2, 3831.4, 3848.1, 3864.4, 3881.4, 3897.8, 3914.6, 3931.2, 3948, 3964.7, 3981.2, 3998.1, 4015, 4031.8, 4048.3, 4065.2, 4081.7, 4098.1, 4115.3, 4131.9, 4148.4, 4165.3, 4181.9, 4198.4, 4214.9, 4231.7, 4248.4, 4265.1, 4282.1, 4298.4, 4315.4, 4332.2, 4348.9, 4365.4, 4382.1, 4398.8, 4415.6, 4432, 4448.4, 4465.2, 4482.3, 4498.8, 4515.6, 4532.4, 4549.1, 4565.7, 4582.4, 4598.7, 4615.8, 4632.4, 4649, 4665.9, 4682.5, 4699, 4715.9, 4732.6, 4749.1, 4765.9, 4782.7, 4799.3, 4815.6, 4832.3, 4849.5, 4865.6, 4882.7, 4899.1, 4916.1, 4932.5, 4949.2, 4965.7, 4982.8, 4999.5, 5016.1, 5032.9, 5049.4, 5066.2, 5082.9, 5099.6, 5116.1, 5133, 5149.6, 5166.4, 5182.6, 5199, 5215.8, 5232.5, 5249.3, 5266.1, 5282.6, 5299.2, 5316, 5332.9, 5349.4, 5366.1, 5382.7, 5399.4, 5416.3, 5433.5, 5449.7, 5466.4, 5483.3, 5499.9, 5516.5, 5533, 5549.7, 5566.5, 5583.4, 5600.2, 5616.4, 5633.3, 5650.1, 5666.9, 5683.7, 5700, 5716.7, 5733.1, 5749.9, 5766.5, 5783.3, 5799.8, 5816.7, 5833.3, 5849.8, 5866.7, 5883.3, 5899.9, 5916.8, 5933.4, 5950, 5966.6, 5983.5, 6000.1, 6016.7, 6033.6, 6050.6, 6067.4, 6084.1, 6100.7, 6117.6, 6134.2, 6150.8, 6167.6, 6183.9, 6200.8, 6217.2, 6233.9, 6250.5, 6267.3, 6284.2, 6301.1, 6317.7, 6334.3, 6351.1, 6367.6, 6384.2, 6400.7, 6417.5, 6434.2, 6450.9, 6467.3, 6484.1, 6500.8, 6517.6, 6534.3, 6551.5, 6567.7, 6584.8, 6601.3, 6617.8, 6634.6, 6651, 6667.5, 6684.8, 6701.1, 6717.3, 6734.4, 6751.3, 6767.8, 6784.4, 6800.8, 6817.6, 6834.4, 6851.4, 6867.8, 6884.6, 6901.3, 6917.9, 6934.6, 6951.4, 6968.1, 6984.9, 7001.3, 7017.9, 7035.1, 7051.4, 7068.4, 7085.2, 7101.7, 7118.3, 7134.9, 7151.8, 7168.2, 7184.9, 7201.4, 7226.1, 7234.6, 7251.3, 7268, 7285, 7301.4, 7318.1, 7334.8, 7351.7, 7368.4, 7385, 7401.8, 7418.5, 7435.3, 7451.8, 7468.4, 7485.1, 7501.7, 7518.5]","[1.8, 0.8, 15.7, 16.5, 16.8, 16.8, 16.6, 16.8, 16.6, 16.6, 17, 16.4, 16.9, 16.8, 16.9, 16.5, 16.5, 16.6, 16.7, 16.7, 16.6, 17.3, 16.7, 16.5, 17.1, 16.1, 17, 16.7, 16.2, 17.1, 16.5, 16.6, 17.4, 15.7, 16.9, 16.9, 16.6, 16.2, 17.1, 16.6, 16.5, 17, 16.7, 16.7, 16.7, 16.3, 16.9, 16.8, 16.6, 16.4, 16.7, 16.5, 34, 0.6, 15.5, 16.6, 16.9, 16.6, 16.5, 16.9, 16.6, 16.8, 16.9, 16.6, 16.6, 16.7, 17, 16.4, 16.8, 16.7, 16.6, 16.6, 16.6, 16.9, 16.7, 16.7, 16.3, 16.7, 17.2, 16.7, 16.3, 17, 16.4, 16.8, 16.6, 16.8, 16.7, 16.5, 16.9, 16.9, 16.8, 16.5, 16.9, 16.5, 16.4, 17.2, 16.6, 16.5, 16.9, 16.6, 16.5, 16.5, 16.8, 16.7, 16.7, 17, 16.3, 17, 16.8, 16.7, 16.5, 16.7, 16.7, 16.8, 16.4, 16.4, 16.8, 17.1, 16.5, 16.8, 16.8, 16.7, 16.6, 16.7, 16.3, 17.1, 16.6, 16.6, 16.9, 16.6, 16.5, 16.9, 16.7, 16.5, 16.8, 16.8, 16.6, 16.3, 16.7, 17.2, 16.1, 17.1, 16.4, 17, 16.4, 16.7, 16.5, 17.1, 16.7, 16.6, 16.8, 16.5, 16.8, 16.7, 16.7, 16.5, 16.9, 16.6, 16.8, 16.2, 16.4, 16.8, 16.7, 16.8, 16.8, 16.5, 16.6, 16.8, 16.9, 16.5, 16.7, 16.6, 16.7, 16.9, 17.2, 16.2, 16.7, 16.9, 16.6, 16.6, 16.5, 16.7, 16.8, 16.9, 16.8, 16.2, 16.9, 16.8, 16.8, 16.8, 16.3, 16.7, 16.4, 16.8, 16.6, 16.8, 16.5, 16.9, 16.6, 16.5, 16.9, 16.6, 16.6, 16.9, 16.6, 16.6, 16.6, 16.9, 16.6, 16.6, 16.9, 17, 16.8, 16.7, 16.6, 16.9, 16.6, 16.6, 16.8, 16.3, 16.9, 16.4, 16.7, 16.6, 16.8, 16.9, 16.9, 16.6, 16.6, 16.8, 16.5, 16.6, 16.5, 16.8, 16.7, 16.7, 16.4, 16.8, 16.7, 16.8, 16.7, 17.2, 16.2, 17.1, 16.5, 16.5, 16.8, 16.4, 16.5, 17.3, 16.3, 16.2, 17.1, 16.9, 16.5, 16.6, 16.4, 16.8, 16.8, 17, 16.4, 16.8, 16.7, 16.6, 16.7, 16.8, 16.7, 16.8, 16.4, 16.6, 17.2, 16.3, 17, 16.8, 16.5, 16.6, 16.6, 16.9, 16.4, 16.7, 16.5, 24.7, 8.5, 16.7, 16.7, 17, 16.4, 16.7, 16.7, 16.9, 16.7, 16.6, 16.8, 16.7, 16.8, 16.5, 16.6, 16.7, 16.6, 16.8]",60.0,60.0,60.0,4990.3,[],,,,,,,,,,,,,,,,,,,,,,,,,HRV,HRV_0156,2022-11-30 18:46:10
,wl-html-keyboard-response,2,73247,0.0-2.0-0.0,0.0,3.0,,,,,,,,64249.59999999404,0.0,0,,,,,,,,,,,,,,,,,,,,,,HRV,HRV_0156,2022-11-30 18:46:10
,wl-rdm,3,80305,0.0-3.0-0.0,0.0,4.0,,,,,,,[],,,,0.0,0.0,87.9,0.0,u,0.0,True,1487.800000011921,90.0,60.0,40.0,False,,3000.0,[],"[768, 432]",ColorTask_Demo,,,,,HRV,HRV_0156,2022-11-30 18:46:10
,wl-rdm,4,85461,0.0-3.0-1.0,0.0,5.0,,,,,,,[],,,,0.0,0.0,87.9,1.0,i,1.0,True,1088.7999999821186,66.0,60.0,40.0,False,,2000.0,[],"[768, 432]",ColorTask_Demo,,,,,HRV,HRV_0156,2022-11-30 18:46:10
,wl-html-keyboard-response,5,102191,0.0-3.0-2.0,0.0,6.0,,,,,,,,14718.90000000596,0.0,1,,,,,,,,,,,,,,,,,,,,,,HRV,HRV_0156,2022-11-30 18:46:10
,wl-html-keyboard-response,6,110703,0.0-4.0-0.0,0.0,7.0,,,,,,,,6506.0,0.0,0,,,,,,,,,,,,,,,,,,,,,,HRV,HRV_0156,2022-11-30 18:46:10
,wl-html-keyboard-response,7,120920,0.0-5.0-0.0,0.0,8.0,,,,,,,,8209.699999988079,0.0,0,,,,,,,,,,,,,,,,,,,,,,HRV,HRV_0156,2022-11-30 18:46:10
,wl-rdm,8,122919,0.0-6.0-0.0,0.0,9.0,,,,,,,[],,,,,,53.2,1.0,i,1.0,True,728.7999999821186,44.0,60.0,40.0,False,,207.17332993699893,[],"[768, 432]",ColorTask,1.0,1.0,,,HRV,HRV_0156,2022-11-30 18:46:10
,wl-rdm,9,124838,0.0-6.1-0.1,0.0,10.0,,,,,,,[],,,,,,87.9,0.0,u,0.0,True,602.4000000059605,37.0,60.0,40.0,False,,243.18739418979803,[],"[768, 432]",ColorTask,2.0,2.0,,,HRV,HRV_0156,2022-11-30 18:46:10
,wl-rdm,10,126857,0.0-6.2-0.2,0.0,11.0,,,,,,,[],,,,,,56.4,1.0,u,0.0,False,675.6000000238419,41.0,60.0,40.0,False,,276.49513747741787,[],"[768, 432]",ColorTask,1.0,3.0,,,HRV,HRV_0156,2022-11-30 18:46:10
,wl-rdm,11,128893,0.0-6.3-0.3,0.0,12.0,,,,,,,[],,,,,,73.6,1.0,i,1.0,True,735.7999999821186,45.0,60.0,40.0,False,,224.94185324700496,[],"[768, 432]",ColorTask,2.0,4.0,,,HRV,HRV_0156,2022-11-30 18:46:10
,wl-rdm,12,130795,0.0-6.4-0.4,0.0,13.0,,,,,,,[],,,,,,87.9,1.0,i,1.0,True,551.8000000119209,34.0,60.0,40.0,False,,271.5169355209451,[],"[768, 432]",ColorTask,3.0,5.0,,,HRV,HRV_0156,2022-11-30 18:46:10
,wl-rdm,13,132964,0.0-6.5-0.5,0.0,14.0,,,,,,,[],,,,,,53.2,1.0,i,1.0,True,885.8000000119209,54.0,60.0,40.0,False,,213.65090958880887,[],"[768, 432]",ColorTask,4.0,6.0,,,HRV,HRV_0156,2022-11-30 18:46:10
,wl-rdm,14,135116,0.0-6.6-0.6,0.0,15.0,,,,,,,[],,,,,,53.2,0.0,u,0.0,True,806.2999999821186,49.0,60.0,40.0,False,,256.8751620225754,[],"[768, 432]",ColorTask,5.0,7.0,,,HRV,HRV_0156,2022-11-30 18:46:10
,wl-rdm,15,137219,0.0-6.7-0.7,0.0,16.0,,,,,,,[],,,,,,62.5,0.0,u,0.0,True,696.3000000119209,42.0,60.0,40.0,False,,340.97913722708495,[],"[768, 432]",ColorTask,6.0,8.0,,,HRV,HRV_0156,2022-11-30 18:46:10
,wl-rdm,16,139354,0.0-6.8-0.8,0.0,17.0,,,,,,,[],,,,,,56.4,1.0,i,1.0,True,711.8999999761581,43.0,60.0,40.0,False,,369.6580913066506,[],"[768, 432]",ColorTask,7.0,9.0,,,HRV,HRV_0156,2022-11-30 18:46:10
,wl-rdm,17,141290,0.0-6.9-0.9,0.0,18.0,,,,,,,[],,,,,,87.9,0.0,u,0.0,True,621.8000000119209,38.0,60.0,40.0,False,,248.89302142774596,[],"[768, 432]",ColorTask,8.0,10.0,,,HRV,HRV_0156,2022-11-30 18:46:10
,wl-rdm,18,143458,0.0-6.10-0.10,0.0,19.0,,,,,,,[],,,,,,50.0,1.0,u,0.0,False,864.3000000119209,52.0,60.0,40.0,False,,239.19669847331903,[],"[768, 432]",ColorTask,7.0,11.0,,,HRV,HRV_0156,2022-11-30 18:46:10
,wl-rdm,19,145394,0.0-6.11-0.11,0.0,20.0,,,,,,,[],,,,,,50.0,0.0,i,1.0,False,620.5000000298023,38.0,60.0,40.0,False,,247.4750603867452,[],"[768, 432]",ColorTask,6.0,12.0,,,HRV,HRV_0156,2022-11-30 18:46:10
,wl-rdm,20,147563,0.0-6.12-0.12,0.0,21.0,,,,,,,[],,,,,,53.2,0.0,i,1.0,False,764.0,46.0,60.0,40.0,False,,337.77325859399417,[],"[768, 432]",ColorTask,5.0,13.0,,,HRV,HRV_0156,2022-11-30 18:46:10
,wl-rdm,21,149448,0.0-6.13-0.13,0.0,22.0,,,,,,,[],,,,,,87.9,1.0,i,1.0,True,541.3999999761581,33.0,60.0,40.0,False,,277.34353635834896,[],"[768, 432]",ColorTask,6.0,14.0,,,HRV,HRV_0156,2022-11-30 18:46:10
,wl-rdm,22,151267,0.0-6.14-0.14,0.0,23.0,,,,,,,[],,,,,,87.9,1.0,i,1.0,True,518.0,32.0,60.0,40.0,False,,226.40404560911654,[],"[768, 432]",ColorTask,7.0,15.0,,,HRV,HRV_0156,2022-11-30 18:46:10
,wl-rdm,23,153252,0.0-6.15-0.15,0.0,24.0,,,,,,,[],,,,,,73.6,0.0,u,0.0,True,633.0999999940395,38.0,60.0,40.0,False,,294.38956563463535,[],"[768, 432]",ColorTask,8.0,16.0,,,HRV,HRV_0156,2022-11-30 18:46:10
,wl-rdm,24,155188,0.0-6.16-0.16,0.0,25.0,,,,,,,[],,,,,,53.2,1.0,u,0.0,False,587.9000000059605,36.0,60.0,40.0,False,,272.85989333529193,[],"[768, 432]",ColorTask,7.0,17.0,,,HRV,HRV_0156,2022-11-30 18:46:10
,wl-rdm,25,157491,0.0-6.17-0.17,0.0,26.0,,,,,,,[],,,,,,50.0,0.0,u,0.0,True,937.0,57.0,60.0,40.0,False,,289.5566926525612,[],"[768, 432]",ColorTask,8.0,18.0,,,HRV,HRV_0156,2022-11-30 18:46:10
,wl-rdm,26,159660,0.0-6.18-0.18,0.0,27.0,,,,,,,[],,,,,,56.4,0.0,u,0.0,True,827.4000000357628,50.0,60.0,40.0,False,,270.215275421229,[],"[768, 432]",ColorTask,9.0,19.0,,,HRV,HRV_0156,2022-11-30 18:46:10
,wl-rdm,27,162179,0.0-6.19-0.19,0.0,28.0,,,,,,,[],,,,,,53.2,0.0,u,0.0,True,1091.800000011921,66.0,60.0,40.0,False,,357.54536617691815,[],"[768, 432]",ColorTask,10.0,20.0,,,HRV,HRV_0156,2022-11-30 18:46:10
,wl-rdm,28,164214,0.0-6.20-0.20,0.0,29.0,,,,,,,[],,,,,,56.4,0.0,i,1.0,False,741.9000000059605,45.0,60.0,40.0,False,,233.053956453106,[],"[768, 432]",ColorTask,9.0,21.0,,,HRV,HRV_0156,2022-11-30 18:46:10
,wl-rdm,29,166351,0.0-6.21-0.21,0.0,30.0,,,,,,,[],,,,,,62.5,1.0,u,0.0,False,846.1999999880791,51.0,60.0,40.0,False,,218.69843254212364,[],"[768, 432]",ColorTask,8.0,22.0,,,HRV,HRV_0156,2022-11-30 18:46:10
,wl-rdm,30,168770,0.0-6.22-0.22,0.0,31.0,,,,,,,[],,,,,,73.6,0.0,i,1.0,False,989.7000000178814,60.0,60.0,40.0,False,,351.80768475400555,[],"[768, 432]",ColorTask,7.0,23.0,,,HRV,HRV_0156,2022-11-30 18:46:10
,wl-rdm,31,170939,0.0-6.23-0.23,0.0,32.0,,,,,,,[],,,,,,53.2,0.0,i,1.0,False,837.3999999761581,51.0,60.0,40.0,False,,261.0211725634995,[],"[768, 432]",ColorTask,6.0,24.0,,,HRV,HRV_0156,2022-11-30 18:46:10
,wl-rdm,32,173375,0.0-6.24-0.24,0.0,33.0,,,,,,,[],,,,,,73.6,0.0,u,0.0,True,993.4000000059605,60.0,60.0,40.0,False,,382.73923389367735,[],"[768, 432]",ColorTask,7.0,25.0,,,HRV,HRV_0156,2022-11-30 18:46:10
,wl-rdm,33,175461,0.0-6.25-0.25,0.0,34.0,,,,,,,[],,,,,,56.4,0.0,u,0.0,True,763.9000000059605,46.0,60.0,40.0,False,,256.560912346462,[],"[768, 432]",ColorTask,8.0,26.0,,,HRV,HRV_0156,2022-11-30 18:46:10
,wl-rdm,34,177646,0.0-6.26-0.26,0.0,35.0,,,,,,,[],,,,,,50.0,0.0,u,0.0,True,772.0999999940395,47.0,60.0,40.0,False,,334.7024861557876,[],"[768, 432]",ColorTask,9.0,27.0,,,HRV,HRV_0156,2022-11-30 18:46:10
,wl-rdm,35,179883,0.0-6.27-0.27,0.0,36.0,,,,,,,[],,,,,,73.6,1.0,u,0.0,False,944.0,57.0,60.0,40.0,False,,227.72370183401236,[],"[768, 432]",ColorTask,8.0,28.0,,,HRV,HRV_0156,2022-11-30 18:46:10
,wl-rdm,36,182151,0.0-6.28-0.28,0.0,37.0,,,,,,,[],,,,,,73.6,1.0,i,1.0,True,996.6000000238419,60.0,60.0,40.0,False,,206.75439657242202,[],"[768, 432]",ColorTask,9.0,29.0,,,HRV,HRV_0156,2022-11-30 18:46:10
,wl-rdm,37,184354,0.0-6.29-0.29,0.0,38.0,,,,,,,[],,,,,,73.6,0.0,u,0.0,True,816.4000000059605,49.0,60.0,40.0,False,,319.5305240545381,[],"[768, 432]",ColorTask,10.0,30.0,,,HRV,HRV_0156,2022-11-30 18:46:10
,wl-rdm,38,186290,0.0-6.30-0.30,0.0,39.0,,,,,,,[],,,,,,62.5,1.0,i,1.0,True,626.1999999880791,38.0,60.0,40.0,False,,244.58930699994372,[],"[768, 432]",ColorTask,11.0,31.0,,,HRV,HRV_0156,2022-11-30 18:46:10
,wl-rdm,39,189527,0.0-6.31-0.31,0.0,40.0,,,,,,,[],,,,,,50.0,0.0,i,1.0,False,1878.0,113.0,60.0,40.0,False,,299.2220608435963,[],"[768, 432]",ColorTask,10.0,32.0,,,HRV,HRV_0156,2022-11-30 18:46:10
,wl-rdm,40,191863,0.0-6.32-0.32,0.0,41.0,,,,,,,[],,,,,,62.5,0.0,u,0.0,True,919.0999999940395,56.0,60.0,40.0,False,,336.97558600899004,[],"[768, 432]",ColorTask,11.0,33.0,,,HRV,HRV_0156,2022-11-30 18:46:10
,wl-rdm,41,194098,0.0-6.33-0.33,0.0,42.0,,,,,,,[],,,,,,53.2,1.0,i,1.0,True,791.0999999940395,48.0,60.0,40.0,False,,382.2919450178581,[],"[768, 432]",ColorTask,12.0,34.0,,,HRV,HRV_0156,2022-11-30 18:46:10
,wl-rdm,42,196201,0.0-6.34-0.34,0.0,43.0,,,,,,,[],,,,,,62.5,0.0,u,0.0,True,799.7999999821186,48.0,60.0,40.0,False,,238.1928099614599,[],"[768, 432]",ColorTask,13.0,35.0,,,HRV,HRV_0156,2022-11-30 18:46:10
,wl-rdm,43,198302,0.0-6.35-0.35,0.0,44.0,,,,,,,[],,,,,,62.5,0.0,u,0.0,True,720.0999999940395,44.0,60.0,40.0,False,,316.7048714742887,[],"[768, 432]",ColorTask,14.0,36.0,,,HRV,HRV_0156,2022-11-30 18:46:10
,wl-rdm,44,200823,0.0-6.36-0.36,0.0,45.0,,,,,,,[],,,,,,56.4,1.0,u,0.0,False,1073.9000000059605,65.0,60.0,40.0,False,,378.95569878594335,[],"[768, 432]",ColorTask,13.0,37.0,,,HRV,HRV_0156,2022-11-30 18:46:10
,wl-rdm,45,203642,0.0-6.37-0.37,0.0,46.0,,,,,,,[],,,,,,50.0,0.0,i,1.0,False,1438.0,87.0,60.0,40.0,False,,307.4616763968262,[],"[768, 432]",ColorTask,12.0,38.0,,,HRV,HRV_0156,2022-11-30 18:46:10
,wl-rdm,46,206529,0.0-6.38-0.38,0.0,47.0,,,,,,,[],,,,,,50.0,1.0,u,0.0,False,1441.800000011921,87.0,60.0,40.0,False,,380.3817835630622,[],"[768, 432]",ColorTask,11.0,39.0,,,HRV,HRV_0156,2022-11-30 18:46:10
,wl-rdm,47,208715,0.0-6.39-0.39,0.0,48.0,,,,,,,[],,,,,,73.6,1.0,i,1.0,True,862.4000000059605,52.0,60.0,40.0,False,,261.856933600016,[],"[768, 432]",ColorTask,12.0,40.0,,,HRV,HRV_0156,2022-11-30 18:46:10
,wl-rdm,48,210901,0.0-6.40-0.40,0.0,49.0,,,,,,,[],,,,,,73.6,1.0,i,1.0,True,724.6999999880791,44.0,60.0,40.0,False,,389.37441946282536,[],"[768, 432]",ColorTask,13.0,41.0,,,HRV,HRV_0156,2022-11-30 18:46:10
,wl-rdm,49,212885,0.0-6.41-0.41,0.0,50.0,,,,,,,[],,,,,,62.5,1.0,i,1.0,True,700.3999999761581,42.0,60.0,40.0,False,,233.13460156800107,[],"[768, 432]",ColorTask,14.0,42.0,,,HRV,HRV_0156,2022-11-30 18:46:10
,wl-rdm,50,214704,0.0-6.42-0.42,0.0,51.0,,,,,,,[],,,,,,87.9,0.0,u,0.0,True,489.0,30.0,60.0,40.0,False,,251.70836298102145,[],"[768, 432]",ColorTask,15.0,43.0,,,HRV,HRV_0156,2022-11-30 18:46:10
,wl-rdm,51,216572,0.0-6.43-0.43,0.0,52.0,,,,,,,[],,,,,,73.6,1.0,i,1.0,True,585.2000000178814,36.0,60.0,40.0,False,,202.8093009096903,[],"[768, 432]",ColorTask,16.0,44.0,,,HRV,HRV_0156,2022-11-30 18:46:10
,wl-rdm,52,218358,0.0-6.44-0.44,0.0,53.0,,,,,,,[],,,,,,87.9,1.0,i,1.0,True,497.7999999821186,30.0,60.0,40.0,False,,226.79737722609434,[],"[768, 432]",ColorTask,17.0,45.0,,,HRV,HRV_0156,2022-11-30 18:46:10
,wl-rdm,53,220527,0.0-6.45-0.45,0.0,54.0,,,,,,,[],,,,,,87.9,1.0,i,1.0,True,822.3999999761581,50.0,60.0,40.0,False,,269.0701544497882,[],"[768, 432]",ColorTask,18.0,46.0,,,HRV,HRV_0156,2022-11-30 18:46:10
,wl-rdm,54,223797,0.0-6.46-0.46,0.0,55.0,,,,,,,[],,,,,,53.2,1.0,u,0.0,False,1872.9000000059605,113.0,60.0,40.0,False,,322.24091015046304,[],"[768, 432]",ColorTask,17.0,47.0,,,HRV,HRV_0156,2022-11-30 18:46:10
,wl-rdm,55,225733,0.0-6.47-0.47,0.0,56.0,,,,,,,[],,,,,,87.9,0.0,u,0.0,True,509.30000004172325,31.0,60.0,40.0,False,,357.05505868609544,[],"[768, 432]",ColorTask,18.0,48.0,,,HRV,HRV_0156,2022-11-30 18:46:10
,wl-rdm,56,227718,0.0-6.48-0.48,0.0,57.0,,,,,,,[],,,,,,87.9,1.0,i,1.0,True,568.7999999821186,35.0,60.0,40.0,False,,337.5994267868393,[],"[768, 432]",ColorTask,19.0,49.0,,,HRV,HRV_0156,2022-11-30 18:46:10
,wl-rdm,57,229970,0.0-6.49-0.49,0.0,58.0,,,,,,,[],,,,,,62.5,1.0,i,1.0,True,785.9000000059605,48.0,60.0,40.0,False,,392.62108188276596,[],"[768, 432]",ColorTask,20.0,50.0,,,HRV,HRV_0156,2022-11-30 18:46:10
,wl-rdm,58,231973,0.0-6.50-0.50,0.0,59.0,,,,,,,[],,,,,,73.6,1.0,i,1.0,True,614.9000000059605,37.0,60.0,40.0,False,,317.68521432218256,[],"[768, 432]",ColorTask,21.0,51.0,,,HRV,HRV_0156,2022-11-30 18:46:10
,wl-rdm,59,233908,0.0-6.51-0.51,0.0,60.0,,,,,,,[],,,,,,87.9,0.0,u,0.0,True,619.0999999940395,38.0,60.0,40.0,False,,242.4576616896606,[],"[768, 432]",ColorTask,22.0,52.0,,,HRV,HRV_0156,2022-11-30 18:46:10
,wl-rdm,60,235860,0.0-6.52-0.52,0.0,61.0,,,,,,,[],,,,,,73.6,1.0,i,1.0,True,622.6999999880791,38.0,60.0,40.0,False,,261.4935602581307,[],"[768, 432]",ColorTask,23.0,53.0,,,HRV,HRV_0156,2022-11-30 18:46:10
,wl-rdm,61,237829,0.0-6.53-0.53,0.0,62.0,,,,,,,[],,,,,,73.6,0.0,u,0.0,True,559.0999999940395,34.0,60.0,40.0,False,,320.2541117035113,[],"[768, 432]",ColorTask,24.0,54.0,,,HRV,HRV_0156,2022-11-30 18:46:10
,wl-rdm,62,239865,0.0-6.54-0.54,0.0,63.0,,,,,,,[],,,,,,50.0,1.0,i,1.0,True,710.0,43.0,60.0,40.0,False,,264.2761317777196,[],"[768, 432]",ColorTask,25.0,55.0,,,HRV,HRV_0156,2022-11-30 18:46:10
,wl-rdm,63,241834,0.0-6.55-0.55,0.0,64.0,,,,,,,[],,,,,,87.9,1.0,i,1.0,True,631.7000000178814,38.0,60.0,40.0,False,,272.3600773799827,[],"[768, 432]",ColorTask,26.0,56.0,,,HRV,HRV_0156,2022-11-30 18:46:10
,wl-rdm,64,243703,0.0-6.56-0.56,0.0,65.0,,,,,,,[],,,,,,73.6,1.0,i,1.0,True,572.9000000059605,35.0,60.0,40.0,False,,227.35331583552153,[],"[768, 432]",ColorTask,27.0,57.0,,,HRV,HRV_0156,2022-11-30 18:46:10
,wl-rdm,65,245855,0.0-6.57-0.57,0.0,66.0,,,,,,,[],,,,,,62.5,0.0,u,0.0,True,802.0999999940395,49.0,60.0,40.0,False,,252.80716776657627,[],"[768, 432]",ColorTask,28.0,58.0,,,HRV,HRV_0156,2022-11-30 18:46:10
,wl-rdm,66,248241,0.0-6.58-0.58,0.0,67.0,,,,,,,[],,,,,,56.4,1.0,i,1.0,True,1116.5999999940395,67.0,60.0,40.0,False,,205.61076323888267,[],"[768, 432]",ColorTask,29.0,59.0,,,HRV,HRV_0156,2022-11-30 18:46:10
,wl-rdm,67,250360,0.0-6.59-0.59,0.0,68.0,,,,,,,[],,,,,,53.2,0.0,u,0.0,True,772.8000000119209,47.0,60.0,40.0,False,,268.3200710223048,[],"[768, 432]",ColorTask,30.0,60.0,,,HRV,HRV_0156,2022-11-30 18:46:10
,wl-rdm,68,252245,0.0-6.60-0.60,0.0,69.0,,,,,,,[],,,,,,87.9,1.0,i,1.0,True,531.2000000178814,32.0,60.0,40.0,False,,286.0541577385148,[],"[768, 432]",ColorTask,31.0,61.0,,,HRV,HRV_0156,2022-11-30 18:46:10
,wl-rdm,69,254164,0.0-6.61-0.61,0.0,70.0,,,,,,,[],,,,,,62.5,0.0,u,0.0,True,602.5999999940395,37.0,60.0,40.0,False,,243.89978870635198,[],"[768, 432]",ColorTask,32.0,62.0,,,HRV,HRV_0156,2022-11-30 18:46:10
,wl-rdm,70,257284,0.0-6.62-0.62,0.0,71.0,,,,,,,[],,,,,,53.2,1.0,u,0.0,False,1820.7999999821186,110.0,60.0,40.0,False,,220.18196812055965,[],"[768, 432]",ColorTask,31.0,63.0,,,HRV,HRV_0156,2022-11-30 18:46:10
,wl-rdm,71,259453,0.0-6.63-0.63,0.0,72.0,,,,,,,[],,,,,,56.4,1.0,u,0.0,False,835.4000000059605,51.0,60.0,40.0,False,,241.5492582810751,[],"[768, 432]",ColorTask,30.0,64.0,,,HRV,HRV_0156,2022-11-30 18:46:10
,wl-rdm,72,261489,0.0-6.64-0.64,0.0,73.0,,,,,,,[],,,,,,62.5,1.0,i,1.0,True,678.9000000059605,41.0,60.0,40.0,False,,275.03552052525487,[],"[768, 432]",ColorTask,31.0,65.0,,,HRV,HRV_0156,2022-11-30 18:46:10
,wl-rdm,73,263658,0.0-6.65-0.65,0.0,74.0,,,,,,,[],,,,,,53.2,0.0,u,0.0,True,883.1000000238419,53.0,60.0,40.0,False,,226.4255743373736,[],"[768, 432]",ColorTask,32.0,66.0,,,HRV,HRV_0156,2022-11-30 18:46:10
,wl-rdm,74,265561,0.0-6.66-0.66,0.0,75.0,,,,,,,[],,,,,,50.0,1.0,u,0.0,False,507.9000000357628,31.0,60.0,40.0,False,,318.2053599110187,[],"[768, 432]",ColorTask,31.0,67.0,,,HRV,HRV_0156,2022-11-30 18:46:10
,wl-rdm,75,267746,0.0-6.67-0.67,0.0,76.0,,,,,,,[],,,,,,56.4,1.0,u,0.0,False,780.0999999940395,47.0,60.0,40.0,False,,348.1796840248944,[],"[768, 432]",ColorTask,30.0,68.0,,,HRV,HRV_0156,2022-11-30 18:46:10
,wl-rdm,76,270349,0.0-6.68-0.68,0.0,77.0,,,,,,,[],,,,,,50.0,1.0,u,0.0,False,1243.2000000178814,75.0,60.0,40.0,False,,287.8710072428755,[],"[768, 432]",ColorTask,29.0,69.0,,,HRV,HRV_0156,2022-11-30 18:46:10
,wl-rdm,77,272519,0.0-6.69-0.69,0.0,78.0,,,,,,,[],,,,,,62.5,1.0,i,1.0,True,755.8000000119209,46.0,60.0,40.0,False,,348.1598072418209,[],"[768, 432]",ColorTask,30.0,70.0,,,HRV,HRV_0156,2022-11-30 18:46:10
,wl-rdm,78,274387,0.0-6.70-0.70,0.0,79.0,,,,,,,[],,,,,,53.2,0.0,i,1.0,False,510.2000000178814,31.0,60.0,40.0,False,,285.72179797625586,[],"[768, 432]",ColorTask,29.0,71.0,,,HRV,HRV_0156,2022-11-30 18:46:10
,wl-rdm,79,277374,0.0-6.71-0.71,0.0,80.0,,,,,,,[],,,,,,62.5,1.0,i,1.0,True,1708.5,103.0,60.0,40.0,False,,212.4606433875513,[],"[768, 432]",ColorTask,30.0,72.0,,,HRV,HRV_0156,2022-11-30 18:46:10
,wl-rdm,80,279660,0.0-6.72-0.72,0.0,81.0,,,,,,,[],,,,,,56.4,0.0,u,0.0,True,914.7999999821186,55.0,60.0,40.0,False,,312.2696370529563,[],"[768, 432]",ColorTask,31.0,73.0,,,HRV,HRV_0156,2022-11-30 18:46:10
,wl-rdm,81,282063,0.0-6.73-0.73,0.0,82.0,,,,,,,[],,,,,,56.4,1.0,i,1.0,True,980.0,59.0,60.0,40.0,False,,358.92601651642076,[],"[768, 432]",ColorTask,32.0,74.0,,,HRV,HRV_0156,2022-11-30 18:46:10
,wl-rdm,82,284649,0.0-6.74-0.74,0.0,83.0,,,,,,,[],,,,,,56.4,0.0,u,0.0,True,1287.9000000059605,78.0,60.0,40.0,False,,217.32205697157195,[],"[768, 432]",ColorTask,33.0,75.0,,,HRV,HRV_0156,2022-11-30 18:46:10
,wl-rdm,83,287052,0.0-6.75-0.75,0.0,84.0,,,,,,,[],,,,,,50.0,0.0,u,0.0,True,938.3000000417233,57.0,60.0,40.0,False,,398.3625225185035,[],"[768, 432]",ColorTask,34.0,76.0,,,HRV,HRV_0156,2022-11-30 18:46:10
,wl-rdm,84,289137,0.0-6.76-0.76,0.0,85.0,,,,,,,[],,,,,,62.5,1.0,u,0.0,False,622.1000000238419,38.0,60.0,40.0,False,,392.7483547138862,[],"[768, 432]",ColorTask,33.0,77.0,,,HRV,HRV_0156,2022-11-30 18:46:10
,wl-rdm,85,291156,0.0-6.77-0.77,0.0,86.0,,,,,,,[],,,,,,56.4,0.0,u,0.0,True,698.1999999880791,42.0,60.0,40.0,False,,253.09742142691755,[],"[768, 432]",ColorTask,34.0,78.0,,,HRV,HRV_0156,2022-11-30 18:46:10
,wl-rdm,86,293242,0.0-6.78-0.78,0.0,87.0,,,,,,,[],,,,,,87.9,0.0,u,0.0,True,695.5999999940395,42.0,60.0,40.0,False,,311.86096447839026,[],"[768, 432]",ColorTask,35.0,79.0,,,HRV,HRV_0156,2022-11-30 18:46:10
,wl-rdm,87,295377,0.0-6.79-0.79,0.0,88.0,,,,,,,[],,,,,,62.5,1.0,i,1.0,True,796.7999999821186,48.0,60.0,40.0,False,,263.4442270812111,[],"[768, 432]",ColorTask,36.0,80.0,,,HRV,HRV_0156,2022-11-30 18:46:10
,wl-rdm,88,297330,0.0-6.80-0.80,0.0,89.0,,,,,,,[],,,,,,73.6,0.0,u,0.0,True,673.0999999940395,41.0,60.0,40.0,False,,203.788167210678,[],"[768, 432]",ColorTask,37.0,81.0,,,HRV,HRV_0156,2022-11-30 18:46:10
,wl-rdm,89,300533,0.0-6.81-0.81,0.0,90.0,,,,,,,[],,,,,,50.0,1.0,u,0.0,False,1864.5,112.0,60.0,40.0,False,,277.48969488369016,[],"[768, 432]",ColorTask,36.0,82.0,,,HRV,HRV_0156,2022-11-30 18:46:10
,wl-rdm,90,302586,0.0-6.82-0.82,0.0,91.0,,,,,,,[],,,,,,73.6,0.0,u,0.0,True,654.7999999821186,40.0,60.0,40.0,False,,331.6560580606765,[],"[768, 432]",ColorTask,37.0,83.0,,,HRV,HRV_0156,2022-11-30 18:46:10
,wl-rdm,91,304638,0.0-6.83-0.83,0.0,92.0,,,,,,,[],,,,,,53.2,0.0,u,0.0,True,707.5999999940395,43.0,60.0,40.0,False,,280.43742135758777,[],"[768, 432]",ColorTask,38.0,84.0,,,HRV,HRV_0156,2022-11-30 18:46:10
,wl-rdm,92,306836,0.0-6.84-0.84,0.0,93.0,,,,,,,[],,,,,,56.4,0.0,u,0.0,True,934.1999999880791,56.0,60.0,40.0,False,,203.20926161666668,[],"[768, 432]",ColorTask,39.0,85.0,,,HRV,HRV_0156,2022-11-30 18:46:10
,wl-rdm,93,308709,0.0-6.85-0.85,0.0,94.0,,,,,,,[],,,,,,87.9,0.0,u,0.0,True,577.1999999880791,35.0,60.0,40.0,False,,245.98251903715447,[],"[768, 432]",ColorTask,40.0,86.0,,,HRV,HRV_0156,2022-11-30 18:46:10
,wl-rdm,94,310444,0.0-6.86-0.86,0.0,95.0,,,,,,,[],,,,,,56.4,1.0,u,0.0,False,457.7999999821186,28.0,60.0,40.0,False,,212.87302627562997,[],"[768, 432]",ColorTask,39.0,87.0,,,HRV,HRV_0156,2022-11-30 18:46:10
,wl-rdm,95,312697,0.0-6.87-0.87,0.0,96.0,,,,,,,[],,,,,,50.0,1.0,u,0.0,False,862.6999999880791,51.0,60.0,40.0,False,,320.7215788871173,[],"[768, 432]",ColorTask,38.0,88.0,,,HRV,HRV_0156,2022-11-30 18:46:10
,wl-rdm,96,314799,0.0-6.88-0.88,0.0,97.0,,,,,,,[],,,,,,56.4,0.0,i,1.0,False,685.7999999821186,42.0,60.0,40.0,False,,337.59314604685835,[],"[768, 432]",ColorTask,37.0,89.0,,,HRV,HRV_0156,2022-11-30 18:46:10
,wl-rdm,97,315917,0.0-6.89-0.89,0.0,97.0,,,,,,,[],,,,,,50.0,1.0,i,,,582.7000000178814,0.0,60.0,40.0,True,too_early ,389.36926496642207,[],"[768, 432]",ColorTask,36.0,90.0,,,HRV,HRV_0156,2022-11-30 18:46:10
,wl-rdm,98,318002,0.0-6.90-0.90,0.0,98.0,,,,,,,[],,,,,,87.9,0.0,u,0.0,True,792.0,48.0,60.0,40.0,False,,206.36286788987098,[],"[768, 432]",ColorTask,37.0,91.0,,,HRV,HRV_0156,2022-11-30 18:46:10
,wl-rdm,99,320455,0.0-6.91-0.91,0.0,99.0,,,,,,,[],,,,,,53.2,0.0,u,0.0,True,1169.0999999940395,71.0,60.0,40.0,False,,204.96649486274418,[],"[768, 432]",ColorTask,38.0,92.0,,,HRV,HRV_0156,2022-11-30 18:46:10
,wl-rdm,100,322808,0.0-6.92-0.92,0.0,100.0,,,,,,,[],,,,,,73.6,0.0,u,0.0,True,965.6999999880791,58.0,60.0,40.0,False,,317.49657212416105,[],"[768, 432]",ColorTask,39.0,93.0,,,HRV,HRV_0156,2022-11-30 18:46:10
,wl-rdm,101,325228,0.0-6.93-0.93,0.0,101.0,,,,,,,[],,,,,,53.2,1.0,i,1.0,True,981.2999999821186,59.0,60.0,40.0,False,,368.6815873254584,[],"[768, 432]",ColorTask,40.0,94.0,,,HRV,HRV_0156,2022-11-30 18:46:10
,wl-rdm,102,327213,0.0-6.94-0.94,0.0,102.0,,,,,,,[],,,,,,73.6,0.0,u,0.0,True,680.9000000059605,41.0,60.0,40.0,False,,235.72212271568532,[],"[768, 432]",ColorTask,41.0,95.0,,,HRV,HRV_0156,2022-11-30 18:46:10
,wl-rdm,103,329316,0.0-6.95-0.95,0.0,103.0,,,,,,,[],,,,,,53.2,1.0,u,0.0,False,686.0999999940395,42.0,60.0,40.0,False,,344.5360611362888,[],"[768, 432]",ColorTask,40.0,96.0,,,HRV,HRV_0156,2022-11-30 18:46:10
,wl-rdm,104,331385,0.0-6.96-0.96,0.0,104.0,,,,,,,[],,,,,,53.2,1.0,i,1.0,True,686.3000000119209,42.0,60.0,40.0,False,,313.7438464226657,[],"[768, 432]",ColorTask,41.0,97.0,,,HRV,HRV_0156,2022-11-30 18:46:10
,wl-rdm,105,333602,0.0-6.97-0.97,0.0,105.0,,,,,,,[],,,,,,56.4,1.0,u,0.0,False,832.5,50.0,60.0,40.0,False,,333.10240755557373,[],"[768, 432]",ColorTask,40.0,98.0,,,HRV,HRV_0156,2022-11-30 18:46:10
,wl-rdm,106,335955,0.0-6.98-0.98,0.0,106.0,,,,,,,[],,,,,,62.5,0.0,u,0.0,True,928.2000000178814,56.0,60.0,40.0,False,,361.37449935705615,[],"[768, 432]",ColorTask,41.0,99.0,,,HRV,HRV_0156,2022-11-30 18:46:10
,wl-rdm,107,338308,0.0-6.99-0.99,0.0,107.0,,,,,,,[],,,,,,56.4,0.0,u,0.0,True,1034.4999999701977,62.0,60.0,40.0,False,,239.11696132274264,[],"[768, 432]",ColorTask,42.0,100.0,,,HRV,HRV_0156,2022-11-30 18:46:10
,wl-rdm,108,340261,0.0-6.100-0.100,0.0,108.0,,,,,,,[],,,,,,87.9,0.0,u,0.0,True,551.6000000238419,34.0,60.0,40.0,False,,320.2497289180971,[],"[768, 432]",ColorTask,43.0,101.0,,,HRV,HRV_0156,2022-11-30 18:46:10
,wl-rdm,109,342262,0.0-6.101-0.101,0.0,109.0,,,,,,,[],,,,,,50.0,1.0,i,1.0,True,704.8999999761581,43.0,60.0,40.0,False,,232.06083865659508,[],"[768, 432]",ColorTask,44.0,102.0,,,HRV,HRV_0156,2022-11-30 18:46:10
,wl-rdm,110,344999,0.0-6.102-0.102,0.0,110.0,,,,,,,[],,,,,,62.5,0.0,u,0.0,True,1321.3999999761581,80.0,60.0,40.0,False,,339.6236169264394,[],"[768, 432]",ColorTask,45.0,103.0,,,HRV,HRV_0156,2022-11-30 18:46:10
,wl-rdm,111,347535,0.0-6.103-0.103,0.0,111.0,,,,,,,[],,,,,,50.0,0.0,i,1.0,False,1211.300000011921,73.0,60.0,40.0,False,,263.9590346144181,[],"[768, 432]",ColorTask,44.0,104.0,,,HRV,HRV_0156,2022-11-30 18:46:10
,wl-rdm,112,350305,0.0-6.104-0.104,0.0,112.0,,,,,,,[],,,,,,50.0,1.0,i,1.0,True,1442.4000000059605,87.0,60.0,40.0,False,,257.18765844973365,[],"[768, 432]",ColorTask,45.0,105.0,,,HRV,HRV_0156,2022-11-30 18:46:10
,wl-rdm,113,352374,0.0-6.105-0.105,0.0,113.0,,,,,,,[],,,,,,50.0,0.0,u,0.0,True,787.8000000119209,48.0,60.0,40.0,False,,205.88796681541945,[],"[768, 432]",ColorTask,46.0,106.0,,,HRV,HRV_0156,2022-11-30 18:46:10
,wl-rdm,114,354962,0.0-6.106-0.106,0.0,114.0,,,,,,,[],,,,,,50.0,0.0,u,0.0,True,1188.5,72.0,60.0,40.0,False,,311.1918931402359,[],"[768, 432]",ColorTask,47.0,107.0,,,HRV,HRV_0156,2022-11-30 18:46:10
,wl-rdm,115,357045,0.0-6.107-0.107,0.0,115.0,,,,,,,[],,,,,,62.5,0.0,u,0.0,True,649.9000000059605,39.0,60.0,40.0,False,,371.92591351171666,[],"[768, 432]",ColorTask,48.0,108.0,,,HRV,HRV_0156,2022-11-30 18:46:10
,wl-rdm,116,358897,0.0-6.108-0.108,0.0,116.0,,,,,,,[],,,,,,87.9,1.0,i,1.0,True,560.7999999821186,34.0,60.0,40.0,False,,207.8796370185163,[],"[768, 432]",ColorTask,49.0,109.0,,,HRV,HRV_0156,2022-11-30 18:46:10
,wl-html-keyboard-response,117,381407,0.0-7.0-0.0,1.0,117.0,,,,,,,,20490.40000000596,1.0,0,,,,,,,,,,,,,,,,,,,,,,HRV,HRV_0156,2022-11-30 18:46:10
,wl-rdm,118,383425,0.0-8.0-0.0,1.0,118.0,,,,,,,[],,,,,,87.9,1.0,i,1.0,True,599.0,36.0,60.0,40.0,False,,351.11179384272214,[],"[768, 432]",ColorTask,50.0,1.0,,,HRV,HRV_0156,2022-11-30 18:46:10
,wl-rdm,119,385394,0.0-8.1-0.1,1.0,119.0,,,,,,,[],,,,,,56.4,0.0,i,1.0,False,568.4000000059605,35.0,60.0,40.0,False,,321.23409653518075,[],"[768, 432]",ColorTask,49.0,2.0,,,HRV,HRV_0156,2022-11-30 18:46:10
,wl-rdm,120,387546,0.0-8.2-0.2,1.0,120.0,,,,,,,[],,,,,,50.0,1.0,u,0.0,False,757.0,46.0,60.0,40.0,False,,323.8052103512331,[],"[768, 432]",ColorTask,48.0,3.0,,,HRV,HRV_0156,2022-11-30 18:46:10
,wl-rdm,121,389632,0.0-8.3-0.3,1.0,121.0,,,,,,,[],,,,,,62.5,0.0,u,0.0,True,826.5999999940395,50.0,60.0,40.0,False,,200.07663511751326,[],"[768, 432]",ColorTask,49.0,4.0,,,HRV,HRV_0156,2022-11-30 18:46:10
,wl-rdm,122,391551,0.0-8.4-0.4,1.0,122.0,,,,,,,[],,,,,,87.9,1.0,i,1.0,True,522.0999999940395,32.0,60.0,40.0,False,,322.2010366883254,[],"[768, 432]",ColorTask,50.0,5.0,,,HRV,HRV_0156,2022-11-30 18:46:10
,wl-rdm,123,393269,0.0-8.5-0.5,1.0,123.0,,,,,,,[],,,,,,73.6,1.0,i,1.0,True,408.7000000178814,25.0,60.0,40.0,False,,239.20169116158814,[],"[768, 432]",ColorTask,51.0,6.0,,,HRV,HRV_0156,2022-11-30 18:46:10
,wl-rdm,124,395038,0.0-8.6-0.6,1.0,124.0,,,,,,,[],,,,,,62.5,1.0,i,1.0,True,475.5,29.0,60.0,40.0,False,,232.00228825825107,[],"[768, 432]",ColorTask,52.0,7.0,,,HRV,HRV_0156,2022-11-30 18:46:10
,wl-rdm,125,396873,0.0-8.7-0.7,1.0,125.0,,,,,,,[],,,,,,53.2,1.0,i,1.0,True,551.0999999940395,34.0,60.0,40.0,False,,207.8818507669657,[],"[768, 432]",ColorTask,53.0,8.0,,,HRV,HRV_0156,2022-11-30 18:46:10
,wl-rdm,126,399326,0.0-8.8-0.8,1.0,126.0,,,,,,,[],,,,,,56.4,1.0,i,1.0,True,1162.3999999761581,70.0,60.0,40.0,False,,219.39091665039157,[],"[768, 432]",ColorTask,54.0,9.0,,,HRV,HRV_0156,2022-11-30 18:46:10
,wl-rdm,127,401228,0.0-8.9-0.9,1.0,127.0,,,,,,,[],,,,,,50.0,1.0,i,1.0,True,547.7999999821186,33.0,60.0,40.0,False,,300.1757812012555,[],"[768, 432]",ColorTask,55.0,10.0,,,HRV,HRV_0156,2022-11-30 18:46:10
,wl-rdm,128,403364,0.0-8.10-0.10,1.0,128.0,,,,,,,[],,,,,,53.2,1.0,i,1.0,True,787.4000000059605,48.0,60.0,40.0,False,,279.3651407220011,[],"[768, 432]",ColorTask,56.0,11.0,,,HRV,HRV_0156,2022-11-30 18:46:10
,wl-rdm,129,405317,0.0-8.11-0.11,1.0,129.0,,,,,,,[],,,,,,87.9,0.0,u,0.0,True,522.4000000059605,32.0,60.0,40.0,False,,361.00642611257774,[],"[768, 432]",ColorTask,57.0,12.0,,,HRV,HRV_0156,2022-11-30 18:46:10
,wl-rdm,130,407202,0.0-8.12-0.12,1.0,130.0,,,,,,,[],,,,,,50.0,1.0,u,0.0,False,543.8999999761581,33.0,60.0,40.0,False,,267.49559797175215,[],"[768, 432]",ColorTask,56.0,13.0,,,HRV,HRV_0156,2022-11-30 18:46:10
,wl-rdm,131,409354,0.0-8.13-0.13,1.0,131.0,,,,,,,[],,,,,,56.4,0.0,u,0.0,True,809.3000000119209,49.0,60.0,40.0,False,,275.9027743964895,[],"[768, 432]",ColorTask,57.0,14.0,,,HRV,HRV_0156,2022-11-30 18:46:10
,wl-rdm,132,411723,0.0-8.14-0.14,1.0,132.0,,,,,,,[],,,,,,62.5,0.0,u,0.0,True,928.2000000178814,56.0,60.0,40.0,False,,368.7965715980612,[],"[768, 432]",ColorTask,58.0,15.0,,,HRV,HRV_0156,2022-11-30 18:46:10
,wl-rdm,133,413775,0.0-8.15-0.15,1.0,133.0,,,,,,,[],,,,,,62.5,1.0,i,1.0,True,600.5999999940395,36.0,60.0,40.0,False,,369.3622577933865,[],"[768, 432]",ColorTask,59.0,16.0,,,HRV,HRV_0156,2022-11-30 18:46:10
,wl-rdm,134,415995,0.0-8.16-0.16,1.0,134.0,,,,,,,[],,,,,,50.0,0.0,i,1.0,False,824.4999999701977,50.0,60.0,40.0,False,,319.7913933162022,[],"[768, 432]",ColorTask,58.0,17.0,,,HRV,HRV_0156,2022-11-30 18:46:10
,wl-rdm,135,417997,0.0-8.17-0.17,1.0,135.0,,,,,,,[],,,,,,87.9,0.0,u,0.0,True,581.5,35.0,60.0,40.0,False,,357.0544318988806,[],"[768, 432]",ColorTask,59.0,18.0,,,HRV,HRV_0156,2022-11-30 18:46:10
,wl-rdm,136,420583,0.0-8.18-0.18,1.0,136.0,,,,,,,[],,,,,,62.5,0.0,i,1.0,False,1157.0,70.0,60.0,40.0,False,,351.8334393186316,[],"[768, 432]",ColorTask,58.0,19.0,,,HRV,HRV_0156,2022-11-30 18:46:10
,wl-rdm,137,422819,0.0-8.19-0.19,1.0,137.0,,,,,,,[],,,,,,50.0,1.0,u,0.0,False,846.5,51.0,60.0,40.0,False,,329.9299777440972,[],"[768, 432]",ColorTask,57.0,20.0,,,HRV,HRV_0156,2022-11-30 18:46:10
,wl-rdm,138,426039,0.0-8.20-0.20,1.0,138.0,,,,,,,[],,,,,,56.4,0.0,u,0.0,True,1872.7000000178814,113.0,60.0,40.0,False,,265.11733616041425,[],"[768, 432]",ColorTask,58.0,21.0,,,HRV,HRV_0156,2022-11-30 18:46:10
,wl-rdm,139,429076,0.0-8.21-0.21,1.0,139.0,,,,,,,[],,,,,,53.2,0.0,i,1.0,False,1670.0,101.0,60.0,40.0,False,,293.2762512277724,[],"[768, 432]",ColorTask,57.0,22.0,,,HRV,HRV_0156,2022-11-30 18:46:10
,wl-rdm,140,430895,0.0-8.22-0.22,1.0,140.0,,,,,,,[],,,,,,50.0,0.0,u,0.0,True,523.5,32.0,60.0,40.0,False,,230.74200779159025,[],"[768, 432]",ColorTask,58.0,23.0,,,HRV,HRV_0156,2022-11-30 18:46:10
,wl-rdm,141,432814,0.0-8.23-0.23,1.0,141.0,,,,,,,[],,,,,,87.9,1.0,i,1.0,True,583.5,35.0,60.0,40.0,False,,274.59416234866904,[],"[768, 432]",ColorTask,59.0,24.0,,,HRV,HRV_0156,2022-11-30 18:46:10
,wl-rdm,142,434866,0.0-8.24-0.24,1.0,142.0,,,,,,,[],,,,,,53.2,1.0,i,1.0,True,610.6999999880791,37.0,60.0,40.0,False,,369.8466441426798,[],"[768, 432]",ColorTask,60.0,25.0,,,HRV,HRV_0156,2022-11-30 18:46:10
,wl-rdm,143,437152,0.0-8.25-0.25,1.0,143.0,,,,,,,[],,,,,,53.2,0.0,u,0.0,True,953.0999999940395,58.0,60.0,40.0,False,,260.3656275990551,[],"[768, 432]",ColorTask,61.0,26.0,,,HRV,HRV_0156,2022-11-30 18:46:10
,wl-rdm,144,439287,0.0-8.26-0.26,1.0,144.0,,,,,,,[],,,,,,73.6,1.0,i,1.0,True,779.4999999701977,47.0,60.0,40.0,False,,286.9508400657131,[],"[768, 432]",ColorTask,62.0,27.0,,,HRV,HRV_0156,2022-11-30 18:46:10
,wl-rdm,145,441407,0.0-8.27-0.27,1.0,145.0,,,,,,,[],,,,,,50.0,0.0,u,0.0,True,741.5999999940395,45.0,60.0,40.0,False,,314.76881403638333,[],"[768, 432]",ColorTask,63.0,28.0,,,HRV,HRV_0156,2022-11-30 18:46:10
,wl-rdm,146,443525,0.0-8.28-0.28,1.0,146.0,,,,,,,[],,,,,,56.4,0.0,i,1.0,False,794.8000000119209,48.0,60.0,40.0,False,,264.6281807031113,[],"[768, 432]",ColorTask,62.0,29.0,,,HRV,HRV_0156,2022-11-30 18:46:10
,wl-rdm,147,445645,0.0-8.29-0.29,1.0,147.0,,,,,,,[],,,,,,53.2,0.0,u,0.0,True,811.1000000238419,49.0,60.0,40.0,False,,246.22479026397312,[],"[768, 432]",ColorTask,63.0,30.0,,,HRV,HRV_0156,2022-11-30 18:46:10
,wl-rdm,148,447530,0.0-8.30-0.30,1.0,148.0,,,,,,,[],,,,,,73.6,0.0,u,0.0,True,601.5999999940395,37.0,60.0,40.0,False,,203.48413918150854,[],"[768, 432]",ColorTask,64.0,31.0,,,HRV,HRV_0156,2022-11-30 18:46:10
,wl-rdm,149,449449,0.0-8.31-0.31,1.0,149.0,,,,,,,[],,,,,,56.4,0.0,u,0.0,True,640.2999999821186,39.0,60.0,40.0,False,,209.33752936680867,[],"[768, 432]",ColorTask,65.0,32.0,,,HRV,HRV_0156,2022-11-30 18:46:10
,wl-rdm,150,451284,0.0-8.32-0.32,1.0,150.0,,,,,,,[],,,,,,50.0,0.0,u,0.0,True,526.1999999880791,32.0,60.0,40.0,False,,244.1252483734038,[],"[768, 432]",ColorTask,66.0,33.0,,,HRV,HRV_0156,2022-11-30 18:46:10
,wl-rdm,151,453404,0.0-8.33-0.33,1.0,151.0,,,,,,,[],,,,,,50.0,1.0,u,0.0,False,778.4000000059605,47.0,60.0,40.0,False,,272.57614391709586,[],"[768, 432]",ColorTask,65.0,34.0,,,HRV,HRV_0156,2022-11-30 18:46:10
,wl-rdm,152,455439,0.0-8.34-0.34,1.0,152.0,,,,,,,[],,,,,,53.2,0.0,i,1.0,False,588.5,36.0,60.0,40.0,False,,380.54899053416284,[],"[768, 432]",ColorTask,64.0,35.0,,,HRV,HRV_0156,2022-11-30 18:46:10
,wl-rdm,153,457441,0.0-8.35-0.35,1.0,153.0,,,,,,,[],,,,,,56.4,1.0,i,1.0,True,663.6999999880791,40.0,60.0,40.0,False,,271.76723989371294,[],"[768, 432]",ColorTask,65.0,36.0,,,HRV,HRV_0156,2022-11-30 18:46:10
,wl-rdm,154,459260,0.0-8.36-0.36,1.0,154.0,,,,,,,[],,,,,,73.6,1.0,i,1.0,True,452.9999999701977,28.0,60.0,40.0,False,,289.9448943478868,[],"[768, 432]",ColorTask,66.0,37.0,,,HRV,HRV_0156,2022-11-30 18:46:10
,wl-rdm,155,461463,0.0-8.37-0.37,1.0,155.0,,,,,,,[],,,,,,62.5,0.0,u,0.0,True,749.5,45.0,60.0,40.0,False,,393.0785645942572,[],"[768, 432]",ColorTask,67.0,38.0,,,HRV,HRV_0156,2022-11-30 18:46:10
,wl-rdm,156,463681,0.0-8.38-0.38,1.0,156.0,,,,,,,[],,,,,,50.0,0.0,i,1.0,False,887.4000000059605,54.0,60.0,40.0,False,,250.2153552821668,[],"[768, 432]",ColorTask,66.0,39.0,,,HRV,HRV_0156,2022-11-30 18:46:10
,wl-rdm,157,466602,0.0-8.39-0.39,1.0,157.0,,,,,,,[],,,,,,56.4,1.0,u,0.0,False,1573.199999988079,95.0,60.0,40.0,False,,271.37201400634865,[],"[768, 432]",ColorTask,65.0,40.0,,,HRV,HRV_0156,2022-11-30 18:46:10
,wl-rdm,158,468554,0.0-8.40-0.40,1.0,158.0,,,,,,,[],,,,,,87.9,0.0,u,0.0,True,679.3999999761581,41.0,60.0,40.0,False,,209.44909160529926,[],"[768, 432]",ColorTask,66.0,41.0,,,HRV,HRV_0156,2022-11-30 18:46:10
,wl-rdm,159,470656,0.0-8.41-0.41,1.0,159.0,,,,,,,[],,,,,,87.9,1.0,i,1.0,True,644.7000000178814,39.0,60.0,40.0,False,,396.47653614144076,[],"[768, 432]",ColorTask,67.0,42.0,,,HRV,HRV_0156,2022-11-30 18:46:10
,wl-rdm,160,472558,0.0-8.42-0.42,1.0,160.0,,,,,,,[],,,,,,62.5,0.0,u,0.0,True,445.59999999403954,27.0,60.0,40.0,False,,397.22921578349076,[],"[768, 432]",ColorTask,68.0,43.0,,,HRV,HRV_0156,2022-11-30 18:46:10
,wl-rdm,161,474360,0.0-8.43-0.43,1.0,161.0,,,,,,,[],,,,,,87.9,1.0,i,1.0,True,488.30000001192093,30.0,60.0,40.0,False,,249.36452744006488,[],"[768, 432]",ColorTask,69.0,44.0,,,HRV,HRV_0156,2022-11-30 18:46:10
,wl-rdm,162,476313,0.0-8.44-0.44,1.0,162.0,,,,,,,[],,,,,,53.2,0.0,u,0.0,True,611.8999999761581,37.0,60.0,40.0,False,,279.9370165585235,[],"[768, 432]",ColorTask,70.0,45.0,,,HRV,HRV_0156,2022-11-30 18:46:10
,wl-rdm,163,478415,0.0-8.45-0.45,1.0,163.0,,,,,,,[],,,,,,73.6,0.0,u,0.0,True,777.4000000059605,47.0,60.0,40.0,False,,262.98618675629166,[],"[768, 432]",ColorTask,71.0,46.0,,,HRV,HRV_0156,2022-11-30 18:46:10
,wl-rdm,164,480434,0.0-8.46-0.46,1.0,164.0,,,,,,,[],,,,,,73.6,1.0,i,1.0,True,668.5,41.0,60.0,40.0,False,,274.255370304902,[],"[768, 432]",ColorTask,72.0,47.0,,,HRV,HRV_0156,2022-11-30 18:46:10
,wl-rdm,165,482453,0.0-8.47-0.47,1.0,165.0,,,,,,,[],,,,,,62.5,1.0,i,1.0,True,653.5,40.0,60.0,40.0,False,,288.42506165919207,[],"[768, 432]",ColorTask,73.0,48.0,,,HRV,HRV_0156,2022-11-30 18:46:10
,wl-rdm,166,484238,0.0-8.48-0.48,1.0,166.0,,,,,,,[],,,,,,62.5,0.0,i,1.0,False,505.4000000357628,31.0,60.0,40.0,False,,212.4805542363883,[],"[768, 432]",ColorTask,72.0,49.0,,,HRV,HRV_0156,2022-11-30 18:46:10
,wl-rdm,167,487141,0.0-8.49-0.49,1.0,167.0,,,,,,,[],,,,,,50.0,1.0,i,1.0,True,1555.0,94.0,60.0,40.0,False,,274.3716758992356,[],"[768, 432]",ColorTask,73.0,50.0,,,HRV,HRV_0156,2022-11-30 18:46:10
,wl-rdm,168,489577,0.0-8.50-0.50,1.0,168.0,,,,,,,[],,,,,,53.2,0.0,i,1.0,False,1106.699999988079,67.0,60.0,40.0,False,,259.8840728535113,[],"[768, 432]",ColorTask,72.0,51.0,,,HRV,HRV_0156,2022-11-30 18:46:10
,wl-rdm,169,491714,0.0-8.51-0.51,1.0,169.0,,,,,,,[],,,,,,87.9,0.0,u,0.0,True,706.1999999880791,43.0,60.0,40.0,False,,359.2231679802119,[],"[768, 432]",ColorTask,73.0,52.0,,,HRV,HRV_0156,2022-11-30 18:46:10
,wl-rdm,170,494333,0.0-8.52-0.52,1.0,170.0,,,,,,,[],,,,,,62.5,1.0,i,1.0,True,1178.0,71.0,60.0,40.0,False,,369.96470451886177,[],"[768, 432]",ColorTask,74.0,53.0,,,HRV,HRV_0156,2022-11-30 18:46:10
,wl-rdm,171,496234,0.0-8.53-0.53,1.0,171.0,,,,,,,[],,,,,,56.4,1.0,i,1.0,True,586.9999999701977,36.0,60.0,40.0,False,,220.49145033328924,[],"[768, 432]",ColorTask,75.0,54.0,,,HRV,HRV_0156,2022-11-30 18:46:10
,wl-rdm,172,498153,0.0-8.54-0.54,1.0,172.0,,,,,,,[],,,,,,73.6,0.0,u,0.0,True,519.5,32.0,60.0,40.0,False,,322.8782485037168,[],"[768, 432]",ColorTask,76.0,55.0,,,HRV,HRV_0156,2022-11-30 18:46:10
,wl-rdm,173,500205,0.0-8.55-0.55,1.0,173.0,,,,,,,[],,,,,,62.5,1.0,i,1.0,True,599.5999999940395,36.0,60.0,40.0,False,,389.2957677790961,[],"[768, 432]",ColorTask,77.0,56.0,,,HRV,HRV_0156,2022-11-30 18:46:10
,wl-rdm,174,502325,0.0-8.56-0.56,1.0,174.0,,,,,,,[],,,,,,56.4,1.0,i,1.0,True,703.1000000238419,43.0,60.0,40.0,False,,340.9691731987874,[],"[768, 432]",ColorTask,78.0,57.0,,,HRV,HRV_0156,2022-11-30 18:46:10
,wl-rdm,175,504160,0.0-8.57-0.57,1.0,175.0,,,,,,,[],,,,,,87.9,0.0,u,0.0,True,515.3999999761581,31.0,60.0,40.0,False,,258.79380974241343,[],"[768, 432]",ColorTask,79.0,58.0,,,HRV,HRV_0156,2022-11-30 18:46:10
,wl-rdm,176,506028,0.0-8.58-0.58,1.0,176.0,,,,,,,[],,,,,,73.6,1.0,i,1.0,True,533.6999999880791,32.0,60.0,40.0,False,,274.43084701713127,[],"[768, 432]",ColorTask,80.0,59.0,,,HRV,HRV_0156,2022-11-30 18:46:10
,wl-rdm,177,508014,0.0-8.59-0.59,1.0,177.0,,,,,,,[],,,,,,62.5,1.0,i,1.0,True,717.0,43.0,60.0,40.0,False,,215.9361965457833,[],"[768, 432]",ColorTask,81.0,60.0,,,HRV,HRV_0156,2022-11-30 18:46:10
,wl-rdm,178,510083,0.0-8.60-0.60,1.0,178.0,,,,,,,[],,,,,,87.9,1.0,i,1.0,True,779.5999999940395,47.0,60.0,40.0,False,,217.94042697759326,[],"[768, 432]",ColorTask,82.0,61.0,,,HRV,HRV_0156,2022-11-30 18:46:10
,wl-rdm,179,513036,0.0-8.61-0.61,1.0,179.0,,,,,,,[],,,,,,56.4,1.0,u,0.0,False,1506.2999999821186,91.0,60.0,40.0,False,,376.8591534653907,[],"[768, 432]",ColorTask,81.0,62.0,,,HRV,HRV_0156,2022-11-30 18:46:10
,wl-rdm,180,514988,0.0-8.62-0.62,1.0,180.0,,,,,,,[],,,,,,73.6,0.0,u,0.0,True,513.3000000119209,31.0,60.0,40.0,False,,376.5461942303167,[],"[768, 432]",ColorTask,82.0,63.0,,,HRV,HRV_0156,2022-11-30 18:46:10
,wl-rdm,181,516907,0.0-8.63-0.63,1.0,181.0,,,,,,,[],,,,,,87.9,0.0,u,0.0,True,603.5,37.0,60.0,40.0,False,,241.55383881558916,[],"[768, 432]",ColorTask,83.0,64.0,,,HRV,HRV_0156,2022-11-30 18:46:10
,wl-rdm,182,518793,0.0-8.64-0.64,1.0,182.0,,,,,,,[],,,,,,87.9,1.0,i,1.0,True,479.59999999403954,29.0,60.0,40.0,False,,337.5938464899,[],"[768, 432]",ColorTask,84.0,65.0,,,HRV,HRV_0156,2022-11-30 18:46:10
,wl-rdm,183,520695,0.0-8.65-0.65,1.0,183.0,,,,,,,[],,,,,,62.5,1.0,i,1.0,True,558.6999999880791,34.0,60.0,40.0,False,,273.9474476078976,[],"[768, 432]",ColorTask,85.0,66.0,,,HRV,HRV_0156,2022-11-30 18:46:10
,wl-rdm,184,522730,0.0-8.66-0.66,1.0,184.0,,,,,,,[],,,,,,53.2,0.0,u,0.0,True,625.5,38.0,60.0,40.0,False,,339.2556650678101,[],"[768, 432]",ColorTask,86.0,67.0,,,HRV,HRV_0156,2022-11-30 18:46:10
,wl-rdm,185,524833,0.0-8.67-0.67,1.0,185.0,,,,,,,[],,,,,,73.6,1.0,i,1.0,True,662.8000000417233,40.0,60.0,40.0,False,,377.8843091706956,[],"[768, 432]",ColorTask,87.0,68.0,,,HRV,HRV_0156,2022-11-30 18:46:10
,wl-rdm,186,526935,0.0-8.68-0.68,1.0,186.0,,,,,,,[],,,,,,62.5,0.0,u,0.0,True,665.5,40.0,60.0,40.0,False,,375.8055759740246,[],"[768, 432]",ColorTask,88.0,69.0,,,HRV,HRV_0156,2022-11-30 18:46:10
,wl-rdm,187,528804,0.0-8.69-0.69,1.0,187.0,,,,,,,[],,,,,,53.2,1.0,i,1.0,True,555.4000000059605,34.0,60.0,40.0,False,,249.3407934784491,[],"[768, 432]",ColorTask,89.0,70.0,,,HRV,HRV_0156,2022-11-30 18:46:10
,wl-rdm,188,531106,0.0-8.70-0.70,1.0,188.0,,,,,,,[],,,,,,56.4,1.0,u,0.0,False,871.0999999940395,53.0,60.0,40.0,False,,360.656004119705,[],"[768, 432]",ColorTask,88.0,71.0,,,HRV,HRV_0156,2022-11-30 18:46:10
,wl-rdm,189,533092,0.0-8.71-0.71,1.0,189.0,,,,,,,[],,,,,,87.9,1.0,u,0.0,False,553.5,34.0,60.0,40.0,False,,359.69469689204993,[],"[768, 432]",ColorTask,87.0,72.0,,,HRV,HRV_0156,2022-11-30 18:46:10
,wl-rdm,190,535461,0.0-8.72-0.72,1.0,190.0,,,,,,,[],,,,,,56.4,0.0,i,1.0,False,1019.8999999761581,62.0,60.0,40.0,False,,282.26059235919627,[],"[768, 432]",ColorTask,86.0,73.0,,,HRV,HRV_0156,2022-11-30 18:46:10
,wl-rdm,191,538331,0.0-8.73-0.73,1.0,191.0,,,,,,,[],,,,,,50.0,0.0,i,1.0,False,1537.4000000059605,93.0,60.0,40.0,False,,261.7716417026046,[],"[768, 432]",ColorTask,85.0,74.0,,,HRV,HRV_0156,2022-11-30 18:46:10
,wl-rdm,192,540416,0.0-8.74-0.74,1.0,192.0,,,,,,,[],,,,,,62.5,0.0,i,1.0,False,679.0,41.0,60.0,40.0,False,,338.33584477280374,[],"[768, 432]",ColorTask,84.0,75.0,,,HRV,HRV_0156,2022-11-30 18:46:10
,wl-rdm,193,543019,0.0-8.75-0.75,1.0,193.0,,,,,,,[],,,,,,73.6,1.0,i,1.0,True,1176.0,71.0,60.0,40.0,False,,358.8211884037237,[],"[768, 432]",ColorTask,85.0,76.0,,,HRV,HRV_0156,2022-11-30 18:46:10
,wl-rdm,194,545505,0.0-8.76-0.76,1.0,194.0,,,,,,,[],,,,,,50.0,0.0,u,0.0,True,1217.4000000059605,73.0,60.0,40.0,False,,206.50678071175673,[],"[768, 432]",ColorTask,86.0,77.0,,,HRV,HRV_0156,2022-11-30 18:46:10
,wl-rdm,195,547525,0.0-8.77-0.77,1.0,195.0,,,,,,,[],,,,,,50.0,0.0,u,0.0,True,719.5999999940395,44.0,60.0,40.0,False,,231.92445940535205,[],"[768, 432]",ColorTask,87.0,78.0,,,HRV,HRV_0156,2022-11-30 18:46:10
,wl-rdm,196,549710,0.0-8.78-0.78,1.0,196.0,,,,,,,[],,,,,,56.4,1.0,u,0.0,False,759.3000000119209,46.0,60.0,40.0,False,,355.2855658564663,[],"[768, 432]",ColorTask,86.0,79.0,,,HRV,HRV_0156,2022-11-30 18:46:10
,wl-rdm,197,552631,0.0-8.79-0.79,1.0,197.0,,,,,,,[],,,,,,50.0,1.0,i,1.0,True,1560.9999999701977,94.0,60.0,40.0,False,,295.29134087763805,[],"[768, 432]",ColorTask,87.0,80.0,,,HRV,HRV_0156,2022-11-30 18:46:10
,wl-rdm,198,556101,0.0-8.80-0.80,1.0,198.0,,,,,,,[],,,,,,53.2,0.0,u,0.0,True,2037.4000000059605,123.0,60.0,40.0,False,,353.9492982489173,[],"[768, 432]",ColorTask,88.0,81.0,,,HRV,HRV_0156,2022-11-30 18:46:10
,wl-rdm,199,558236,0.0-8.81-0.81,1.0,199.0,,,,,,,[],,,,,,56.4,0.0,i,1.0,False,827.5999999940395,50.0,60.0,40.0,False,,240.53956843954526,[],"[768, 432]",ColorTask,87.0,82.0,,,HRV,HRV_0156,2022-11-30 18:46:10
,wl-rdm,200,559604,0.0-8.82-0.82,1.0,199.0,,,,,,,[],,,,,,50.0,1.0,i,1.0,True,42.70000001788139,3.0,60.0,40.0,True,too_early ,234.9221793942087,[],"[768, 432]",ColorTask,88.0,83.0,,,HRV,HRV_0156,2022-11-30 18:46:10
,wl-rdm,201,562624,0.0-8.83-0.83,1.0,200.0,,,,,,,[],,,,,,56.4,0.0,u,0.0,True,1732.7999999821186,104.0,60.0,40.0,False,,226.9697520761098,[],"[768, 432]",ColorTask,89.0,84.0,,,HRV,HRV_0156,2022-11-30 18:46:10
,wl-rdm,202,565194,0.0-8.84-0.84,1.0,201.0,,,,,,,[],,,,,,56.4,1.0,i,1.0,True,1221.0999999940395,74.0,60.0,40.0,False,,272.418521431099,[],"[768, 432]",ColorTask,90.0,85.0,,,HRV,HRV_0156,2022-11-30 18:46:10
,wl-rdm,203,567664,0.0-8.85-0.85,1.0,202.0,,,,,,,[],,,,,,53.2,1.0,i,1.0,True,1069.4000000059605,65.0,60.0,40.0,False,,324.39484922392575,[],"[768, 432]",ColorTask,91.0,86.0,,,HRV,HRV_0156,2022-11-30 18:46:10
,wl-rdm,204,569916,0.0-8.86-0.86,1.0,203.0,,,,,,,[],,,,,,50.0,1.0,i,1.0,True,878.8999999761581,53.0,60.0,40.0,False,,315.0457923288693,[],"[768, 432]",ColorTask,92.0,87.0,,,HRV,HRV_0156,2022-11-30 18:46:10
,wl-rdm,205,572052,0.0-8.87-0.87,1.0,204.0,,,,,,,[],,,,,,50.0,1.0,u,0.0,False,801.7000000178814,49.0,60.0,40.0,False,,251.83812529984186,[],"[768, 432]",ColorTask,91.0,88.0,,,HRV,HRV_0156,2022-11-30 18:46:10
,wl-rdm,206,574221,0.0-8.88-0.88,1.0,205.0,,,,,,,[],,,,,,87.9,0.0,u,0.0,True,837.6999999880791,51.0,60.0,40.0,False,,262.3205033836958,[],"[768, 432]",ColorTask,92.0,89.0,,,HRV,HRV_0156,2022-11-30 18:46:10
,wl-rdm,207,576257,0.0-8.89-0.89,1.0,206.0,,,,,,,[],,,,,,73.6,1.0,i,1.0,True,669.5999999940395,41.0,60.0,40.0,False,,297.8255221775332,[],"[768, 432]",ColorTask,93.0,90.0,,,HRV,HRV_0156,2022-11-30 18:46:10
,wl-rdm,208,578309,0.0-8.90-0.90,1.0,207.0,,,,,,,[],,,,,,87.9,0.0,u,0.0,True,593.5999999940395,36.0,60.0,40.0,False,,389.9369077219571,[],"[768, 432]",ColorTask,94.0,91.0,,,HRV,HRV_0156,2022-11-30 18:46:10
,wl-rdm,209,580277,0.0-8.91-0.91,1.0,208.0,,,,,,,[],,,,,,73.6,0.0,u,0.0,True,601.5,37.0,60.0,40.0,False,,288.00590329826576,[],"[768, 432]",ColorTask,95.0,92.0,,,HRV,HRV_0156,2022-11-30 18:46:10
,wl-rdm,210,582814,0.0-8.92-0.92,1.0,209.0,,,,,,,[],,,,,,53.2,1.0,u,0.0,False,1225.5,74.0,60.0,40.0,False,,248.19246144544888,[],"[768, 432]",ColorTask,94.0,93.0,,,HRV,HRV_0156,2022-11-30 18:46:10
,wl-rdm,211,584849,0.0-8.93-0.93,1.0,210.0,,,,,,,[],,,,,,73.6,0.0,u,0.0,True,737.1999999880791,45.0,60.0,40.0,False,,222.69222853501063,[],"[768, 432]",ColorTask,95.0,94.0,,,HRV,HRV_0156,2022-11-30 18:46:10
,wl-rdm,212,586835,0.0-8.94-0.94,1.0,211.0,,,,,,,[],,,,,,73.6,1.0,i,1.0,True,567.2999999821186,34.0,60.0,40.0,False,,355.8938597034272,[],"[768, 432]",ColorTask,96.0,95.0,,,HRV,HRV_0156,2022-11-30 18:46:10
,wl-rdm,213,588871,0.0-8.95-0.95,1.0,212.0,,,,,,,[],,,,,,73.6,0.0,u,0.0,True,710.8000000119209,43.0,60.0,40.0,False,,252.36156061058566,[],"[768, 432]",ColorTask,97.0,96.0,,,HRV,HRV_0156,2022-11-30 18:46:10
,wl-rdm,214,590806,0.0-8.96-0.96,1.0,213.0,,,,,,,[],,,,,,62.5,1.0,i,1.0,True,659.9000000059605,40.0,60.0,40.0,False,,209.36152172659285,[],"[768, 432]",ColorTask,98.0,97.0,,,HRV,HRV_0156,2022-11-30 18:46:10
,wl-rdm,215,592908,0.0-8.97-0.97,1.0,214.0,,,,,,,[],,,,,,50.0,0.0,i,1.0,False,644.0999999940395,39.0,60.0,40.0,False,,394.42530427657755,[],"[768, 432]",ColorTask,97.0,98.0,,,HRV,HRV_0156,2022-11-30 18:46:10
,wl-rdm,216,594828,0.0-8.98-0.98,1.0,215.0,,,,,,,[],,,,,,53.2,1.0,u,0.0,False,641.9000000059605,39.0,60.0,40.0,False,,215.27191873995224,[],"[768, 432]",ColorTask,96.0,99.0,,,HRV,HRV_0156,2022-11-30 18:46:10
,wl-rdm,217,597147,0.0-8.99-0.99,1.0,216.0,,,,,,,[],,,,,,73.6,0.0,u,0.0,True,867.5,52.0,60.0,40.0,False,,387.2807645843154,[],"[768, 432]",ColorTask,97.0,100.0,,,HRV,HRV_0156,2022-11-30 18:46:10
,wl-rdm,218,599515,0.0-8.100-0.100,1.0,217.0,,,,,,,[],,,,,,53.2,1.0,u,0.0,False,961.8000000119209,58.0,60.0,40.0,False,,330.2966471145369,[],"[768, 432]",ColorTask,96.0,101.0,,,HRV,HRV_0156,2022-11-30 18:46:10
,wl-rdm,219,602152,0.0-8.101-0.101,1.0,218.0,,,,,,,[],,,,,,53.2,1.0,i,1.0,True,1287.0,78.0,60.0,40.0,False,,282.6952632355335,[],"[768, 432]",ColorTask,97.0,102.0,,,HRV,HRV_0156,2022-11-30 18:46:10
,wl-rdm,220,604304,0.0-8.102-0.102,1.0,219.0,,,,,,,[],,,,,,53.2,0.0,i,1.0,False,844.4000000059605,51.0,60.0,40.0,False,,245.32274952417043,[],"[768, 432]",ColorTask,96.0,103.0,,,HRV,HRV_0156,2022-11-30 18:46:10
,wl-rdm,221,606307,0.0-8.103-0.103,1.0,220.0,,,,,,,[],,,,,,87.9,0.0,u,0.0,True,541.5999999940395,33.0,60.0,40.0,False,,388.03257961641793,[],"[768, 432]",ColorTask,97.0,104.0,,,HRV,HRV_0156,2022-11-30 18:46:10
,wl-rdm,222,608309,0.0-8.104-0.104,1.0,221.0,,,,,,,[],,,,,,73.6,0.0,u,0.0,True,700.0,42.0,60.0,40.0,False,,249.93937031458302,[],"[768, 432]",ColorTask,98.0,105.0,,,HRV,HRV_0156,2022-11-30 18:46:10
,wl-rdm,223,610244,0.0-8.105-0.105,1.0,222.0,,,,,,,[],,,,,,87.9,1.0,i,1.0,True,638.7999999821186,39.0,60.0,40.0,False,,223.8708410219362,[],"[768, 432]",ColorTask,99.0,106.0,,,HRV,HRV_0156,2022-11-30 18:46:10
,wl-rdm,224,613165,0.0-8.106-0.106,1.0,223.0,,,,,,,[],,,,,,56.4,0.0,u,0.0,True,1464.4000000357628,88.0,60.0,40.0,False,,391.26513703837395,[],"[768, 432]",ColorTask,100.0,107.0,,,HRV,HRV_0156,2022-11-30 18:46:10
,wl-rdm,225,615300,0.0-8.107-0.107,1.0,224.0,,,,,,,[],,,,,,62.5,0.0,u,0.0,True,747.9000000059605,45.0,60.0,40.0,False,,323.5830550017931,[],"[768, 432]",ColorTask,101.0,108.0,,,HRV,HRV_0156,2022-11-30 18:46:10
,wl-rdm,226,618521,0.0-8.108-0.108,1.0,225.0,,,,,,,[],,,,,,62.5,1.0,i,1.0,True,1951.0,117.0,60.0,40.0,False,,209.33554584953683,[],"[768, 432]",ColorTask,102.0,109.0,,,HRV,HRV_0156,2022-11-30 18:46:10
,wl-html-button-response,227,620531,0.0-9.0-0.0,,,,,,,,,,2005.0,,0,,,,,,,,,,,,,,,,,,,,<h3>End of this session. Thank you!</h3><br>,['Close window'],HRV,HRV_0156,2022-11-30 18:46:10
