trialN,stimuli,trialStartTime,trialStartTime_UNIX,stimulus1,stimulus2,stimulus1Bid,stimulus2Bid,delta,selected,rt,rt_UNIX,rt_perfnow,receivedResponse,rsp,trialEndTime,trialDuration,trialEndTime_UNIX,trialDuration_UNIX,exp,subjectId,date
0,"[{'imgObject': {}, 'id': 'banana', 'src': '/static/foodstim60/banana.jpg', 'key': 'u', 'origWidth': 410, 'origHeight': 410, 'width': 410, 'height': 410, 'widthPercent': 0.45, 'rescaleHeight': False, 'trialN': 0, 'loaded': True, 'loadedTime': 3822.300000011921, 'positionName': 'LEFT', 'positionCoords': [327.28, 227], 'bid': 5.69}, {'imgObject': {}, 'id': 'kiwi', 'src': '/static/foodstim60/kiwi.jpg', 'key': 'i', 'origWidth': 410, 'origHeight': 410, 'width': 410, 'height': 410, 'widthPercent': 0.45, 'rescaleHeight': False, 'trialN': 0, 'loaded': True, 'loadedTime': 3849, 'positionName': 'RIGHT', 'positionCoords': [798.72, 227], 'bid': 5.89}]",4682.0,1669831367557,banana,kiwi,5.69,5.89,0.1999999999999993,kiwi,1152.0,1156,1156.5999999940395,True,i,6347.300000011921,1665.300000011921,1669831369222,1665,HRV,HRV_0156,2022-11-30 18:08:01
1,"[{'imgObject': {}, 'id': 'pear', 'src': '/static/foodstim60/pear.jpg', 'key': 'u', 'origWidth': 411, 'origHeight': 410, 'width': 411, 'height': 410, 'widthPercent': 0.45, 'rescaleHeight': False, 'trialN': 1, 'loaded': True, 'loadedTime': 3853.0999999940395, 'positionName': 'LEFT', 'positionCoords': [326.28, 227], 'bid': 6.0200000000000005}, {'imgObject': {}, 'id': 'apple slices', 'src': '/static/foodstim60/apple slices.jpg', 'key': 'i', 'origWidth': 409, 'origHeight': 410, 'width': 409, 'height': 410, 'widthPercent': 0.45, 'rescaleHeight': False, 'trialN': 1, 'loaded': True, 'loadedTime': 3855.9000000059605, 'positionName': 'RIGHT', 'positionCoords': [798.72, 227], 'bid': 6.18}]",6347.700000017881,1669831369223,pear,apple slices,6.0200000000000005,6.18,0.15999999999999925,apple slices,879.2999999821186,879,880.0,True,i,7729.200000017881,1381.5,1669831370604,1381,HRV,HRV_0156,2022-11-30 18:08:01
2,"[{'imgObject': {}, 'id': 'blackbeanswithrice', 'src': '/static/foodstim60/blackbeanswithrice.jpg', 'key': 'u', 'origWidth': 410, 'origHeight': 410, 'width': 410, 'height': 410, 'widthPercent': 0.45, 'rescaleHeight': False, 'trialN': 2, 'loaded': True, 'loadedTime': 3857.5, 'positionName': 'LEFT', 'positionCoords': [327.28, 227], 'bid': 5}, {'imgObject': {}, 'id': 'mac & cheese', 'src': '/static/foodstim60/mac & cheese.jpg', 'key': 'i', 'origWidth': 410, 'origHeight': 410, 'width': 410, 'height': 410, 'widthPercent': 0.45, 'rescaleHeight': False, 'trialN': 2, 'loaded': True, 'loadedTime': 3858.0999999940395, 'positionName': 'RIGHT', 'positionCoords': [798.72, 227], 'bid': 4.47}]",7729.5999999940395,1669831370604,blackbeanswithrice,mac & cheese,5.0,4.47,-0.5300000000000002,mac & cheese,1220.300000011921,1221,1221.0,True,i,9468.59999999404,1739.0,1669831372343,1739,HRV,HRV_0156,2022-11-30 18:08:01
3,"[{'imgObject': {}, 'id': 'salmon', 'src': '/static/foodstim60/salmon.jpg', 'key': 'u', 'origWidth': 410, 'origHeight': 409, 'width': 410, 'height': 409, 'widthPercent': 0.45, 'rescaleHeight': False, 'trialN': 3, 'loaded': True, 'loadedTime': 3861.0999999940395, 'positionName': 'LEFT', 'positionCoords': [327.28, 227.5], 'bid': 7.86}, {'imgObject': {}, 'id': 'cocktailshrimp', 'src': '/static/foodstim60/cocktailshrimp.jpg', 'key': 'i', 'origWidth': 410, 'origHeight': 410, 'width': 410, 'height': 410, 'widthPercent': 0.45, 'rescaleHeight': False, 'trialN': 3, 'loaded': True, 'loadedTime': 3863.7000000178814, 'positionName': 'RIGHT', 'positionCoords': [798.72, 227], 'bid': 9.37}]",9468.800000011921,1669831372344,salmon,cocktailshrimp,7.86,9.37,1.509999999999999,cocktailshrimp,1178.0999999940395,1179,1179.0999999940395,True,i,11169.300000011921,1700.5,1669831374044,1700,HRV,HRV_0156,2022-11-30 18:08:01
4,"[{'imgObject': {}, 'id': 'veggieswithdip', 'src': '/static/foodstim60/veggieswithdip.jpg', 'key': 'u', 'origWidth': 409, 'origHeight': 409, 'width': 409, 'height': 409, 'widthPercent': 0.45, 'rescaleHeight': False, 'trialN': 4, 'loaded': True, 'loadedTime': 3867.5999999940395, 'positionName': 'LEFT', 'positionCoords': [328.28, 227.5], 'bid': 9.21}, {'imgObject': {}, 'id': 'blueberries', 'src': '/static/foodstim60/blueberries.jpg', 'key': 'i', 'origWidth': 411, 'origHeight': 411, 'width': 411, 'height': 411, 'widthPercent': 0.45, 'rescaleHeight': False, 'trialN': 4, 'loaded': True, 'loadedTime': 3869.4000000059605, 'positionName': 'RIGHT', 'positionCoords': [798.72, 226.5], 'bid': 9.06}]",11169.59999999404,1669831374044,veggieswithdip,blueberries,9.21,9.06,-0.15000000000000036,veggieswithdip,932.6000000238419,934,933.2000000178814,True,u,12621.40000000596,1451.800000011921,1669831375496,1452,HRV,HRV_0156,2022-11-30 18:08:01
5,"[{'imgObject': {}, 'id': 'cheerios', 'src': '/static/foodstim60/cheerios.jpg', 'key': 'u', 'origWidth': 409, 'origHeight': 410, 'width': 409, 'height': 410, 'widthPercent': 0.45, 'rescaleHeight': False, 'trialN': 5, 'loaded': True, 'loadedTime': 3873.5999999940395, 'positionName': 'LEFT', 'positionCoords': [328.28, 227], 'bid': 5.8500000000000005}, {'imgObject': {}, 'id': 'lox', 'src': '/static/foodstim60/lox.jpg', 'key': 'i', 'origWidth': 410, 'origHeight': 411, 'width': 410, 'height': 411, 'widthPercent': 0.45, 'rescaleHeight': False, 'trialN': 5, 'loaded': True, 'loadedTime': 3875.5999999940395, 'positionName': 'RIGHT', 'positionCoords': [798.72, 226.5], 'bid': 5.83}]",12621.800000011921,1669831375497,cheerios,lox,5.8500000000000005,5.83,-0.020000000000000462,lox,999.9000000059605,1000,1000.4000000059605,True,i,14135.700000017881,1513.9000000059605,1669831377011,1514,HRV,HRV_0156,2022-11-30 18:08:01
6,"[{'imgObject': {}, 'id': 'burger', 'src': '/static/foodstim60/burger.jpg', 'key': 'u', 'origWidth': 409, 'origHeight': 409, 'width': 409, 'height': 409, 'widthPercent': 0.45, 'rescaleHeight': False, 'trialN': 6, 'loaded': True, 'loadedTime': 3877, 'positionName': 'LEFT', 'positionCoords': [328.28, 227.5], 'bid': 9.02}, {'imgObject': {}, 'id': 'Tribe humus pita', 'src': '/static/foodstim60/Tribe humus pita.jpg', 'key': 'i', 'origWidth': 411, 'origHeight': 411, 'width': 411, 'height': 411, 'widthPercent': 0.45, 'rescaleHeight': False, 'trialN': 6, 'loaded': True, 'loadedTime': 3880.9000000059605, 'positionName': 'RIGHT', 'positionCoords': [798.72, 226.5], 'bid': 8.09}]",14136.09999999404,1669831377011,burger,Tribe humus pita,9.02,8.09,-0.9299999999999997,Tribe humus pita,1379.300000011921,1380,1379.7000000178814,True,i,16025.0,1888.9000000059605,1669831378900,1889,HRV,HRV_0156,2022-11-30 18:08:01
7,"[{'imgObject': {}, 'id': 'cherries', 'src': '/static/foodstim60/cherries.jpg', 'key': 'u', 'origWidth': 410, 'origHeight': 411, 'width': 410, 'height': 411, 'widthPercent': 0.45, 'rescaleHeight': False, 'trialN': 7, 'loaded': True, 'loadedTime': 3883.4000000059605, 'positionName': 'LEFT', 'positionCoords': [327.28, 226.5], 'bid': 9.83}, {'imgObject': {}, 'id': 'yogurt no spoon', 'src': '/static/foodstim60/yogurt no spoon.jpg', 'key': 'i', 'origWidth': 411, 'origHeight': 410, 'width': 411, 'height': 410, 'widthPercent': 0.45, 'rescaleHeight': False, 'trialN': 7, 'loaded': True, 'loadedTime': 3885.2000000178814, 'positionName': 'RIGHT', 'positionCoords': [798.72, 227], 'bid': 6.51}]",16025.200000017881,1669831378900,cherries,yogurt no spoon,9.83,6.51,-3.3200000000000003,cherries,879.5,880,879.7999999821186,True,u,17413.59999999404,1388.3999999761581,1669831380288,1388,HRV,HRV_0156,2022-11-30 18:08:01
8,"[{'imgObject': {}, 'id': 'cherry tomato', 'src': '/static/foodstim60/cherry tomato.jpg', 'key': 'u', 'origWidth': 410, 'origHeight': 410, 'width': 410, 'height': 410, 'widthPercent': 0.45, 'rescaleHeight': False, 'trialN': 8, 'loaded': True, 'loadedTime': 3889.800000011921, 'positionName': 'LEFT', 'positionCoords': [327.28, 227], 'bid': 2.2}, {'imgObject': {}, 'id': 'cantaloupe', 'src': '/static/foodstim60/cantaloupe.jpg', 'key': 'i', 'origWidth': 409, 'origHeight': 409, 'width': 409, 'height': 409, 'widthPercent': 0.45, 'rescaleHeight': False, 'trialN': 8, 'loaded': True, 'loadedTime': 3891.800000011921, 'positionName': 'RIGHT', 'positionCoords': [798.72, 227.5], 'bid': 5.69}]",17413.90000000596,1669831380289,cherry tomato,cantaloupe,2.2,5.69,3.49,cantaloupe,1354.5,1355,1355.199999988079,True,i,19285.90000000596,1872.0,1669831382161,1872,HRV,HRV_0156,2022-11-30 18:08:01
9,"[{'imgObject': {}, 'id': 'fruitsalad', 'src': '/static/foodstim60/fruitsalad.jpg', 'key': 'u', 'origWidth': 410, 'origHeight': 410, 'width': 410, 'height': 410, 'widthPercent': 0.45, 'rescaleHeight': False, 'trialN': 9, 'loaded': True, 'loadedTime': 3865.9000000059605, 'positionName': 'LEFT', 'positionCoords': [327.28, 227], 'bid': 5.92}, {'imgObject': {}, 'id': 'kiwi', 'src': '/static/foodstim60/kiwi.jpg', 'key': 'i', 'origWidth': 410, 'origHeight': 410, 'width': 410, 'height': 410, 'widthPercent': 0.45, 'rescaleHeight': False, 'trialN': 9, 'loaded': True, 'loadedTime': 3847.9000000059605, 'positionName': 'RIGHT', 'positionCoords': [798.72, 227], 'bid': 5.89}]",19286.09999999404,1669831382161,fruitsalad,kiwi,5.92,5.89,-0.03000000000000025,fruitsalad,846.4000000059605,847,847.1000000238419,True,u,20640.80000001192,1354.7000000178814,1669831383516,1355,HRV,HRV_0156,2022-11-30 18:08:01
10,"[{'imgObject': {}, 'id': 'olives', 'src': '/static/foodstim60/olives.jpg', 'key': 'u', 'origWidth': 410, 'origHeight': 410, 'width': 410, 'height': 410, 'widthPercent': 0.45, 'rescaleHeight': False, 'trialN': 10, 'loaded': True, 'loadedTime': 3871.0999999940395, 'positionName': 'LEFT', 'positionCoords': [327.28, 227], 'bid': 9.23}, {'imgObject': {}, 'id': 'cocktailshrimp', 'src': '/static/foodstim60/cocktailshrimp.jpg', 'key': 'i', 'origWidth': 410, 'origHeight': 410, 'width': 410, 'height': 410, 'widthPercent': 0.45, 'rescaleHeight': False, 'trialN': 10, 'loaded': True, 'loadedTime': 3862.0999999940395, 'positionName': 'RIGHT', 'positionCoords': [798.72, 227], 'bid': 9.37}]",20641.0,1669831383516,olives,cocktailshrimp,9.23,9.37,0.1399999999999988,olives,1134.9000000059605,1135,1135.5999999940395,True,u,22295.80000001192,1654.800000011921,1669831385171,1655,HRV,HRV_0156,2022-11-30 18:08:01
11,"[{'imgObject': {}, 'id': 'chicken nuggets2', 'src': '/static/foodstim60/chicken nuggets2.jpg', 'key': 'u', 'origWidth': 410, 'origHeight': 409, 'width': 410, 'height': 409, 'widthPercent': 0.45, 'rescaleHeight': False, 'trialN': 11, 'loaded': True, 'loadedTime': 3879.0999999940395, 'positionName': 'LEFT', 'positionCoords': [327.28, 227.5], 'bid': 5.75}, {'imgObject': {}, 'id': 'fruitsalad', 'src': '/static/foodstim60/fruitsalad.jpg', 'key': 'i', 'origWidth': 410, 'origHeight': 410, 'width': 410, 'height': 410, 'widthPercent': 0.45, 'rescaleHeight': False, 'trialN': 11, 'loaded': True, 'loadedTime': 3865.7000000178814, 'positionName': 'RIGHT', 'positionCoords': [798.72, 227], 'bid': 5.92}]",22296.0,1669831385171,chicken nuggets2,fruitsalad,5.75,5.92,0.16999999999999993,fruitsalad,1489.300000011921,1490,1490.0999999940395,True,i,24292.90000000596,1996.9000000059605,1669831387168,1997,HRV,HRV_0156,2022-11-30 18:08:01
12,"[{'imgObject': {}, 'id': 'eggs', 'src': '/static/foodstim60/eggs.jpg', 'key': 'u', 'origWidth': 409, 'origHeight': 409, 'width': 409, 'height': 409, 'widthPercent': 0.45, 'rescaleHeight': False, 'trialN': 12, 'loaded': True, 'loadedTime': 3886.0999999940395, 'positionName': 'LEFT', 'positionCoords': [328.28, 227.5], 'bid': 7.86}, {'imgObject': {}, 'id': 'apple slices', 'src': '/static/foodstim60/apple slices.jpg', 'key': 'i', 'origWidth': 409, 'origHeight': 410, 'width': 409, 'height': 410, 'widthPercent': 0.45, 'rescaleHeight': False, 'trialN': 12, 'loaded': True, 'loadedTime': 3853.5999999940395, 'positionName': 'RIGHT', 'positionCoords': [798.72, 227], 'bid': 6.18}]",24293.20000001788,1669831387168,eggs,apple slices,7.86,6.18,-1.6800000000000006,eggs,1615.5,1616,1616.0999999940395,True,u,26425.40000000596,2132.199999988079,1669831389300,2132,HRV,HRV_0156,2022-11-30 18:08:01
13,"[{'imgObject': {}, 'id': 'salmon', 'src': '/static/foodstim60/salmon.jpg', 'key': 'u', 'origWidth': 410, 'origHeight': 409, 'width': 410, 'height': 409, 'widthPercent': 0.45, 'rescaleHeight': False, 'trialN': 13, 'loaded': True, 'loadedTime': 3860.0999999940395, 'positionName': 'LEFT', 'positionCoords': [327.28, 227.5], 'bid': 7.86}, {'imgObject': {}, 'id': 'yogurt no spoon', 'src': '/static/foodstim60/yogurt no spoon.jpg', 'key': 'i', 'origWidth': 411, 'origHeight': 410, 'width': 411, 'height': 410, 'widthPercent': 0.45, 'rescaleHeight': False, 'trialN': 13, 'loaded': True, 'loadedTime': 3884.2000000178814, 'positionName': 'RIGHT', 'positionCoords': [798.72, 227], 'bid': 6.51}]",26425.70000001788,1669831389301,salmon,yogurt no spoon,7.86,6.51,-1.3500000000000005,salmon,1013.1999999880791,1013,1013.6999999880791,True,u,27958.09999999404,1532.3999999761581,1669831390833,1532,HRV,HRV_0156,2022-11-30 18:08:01
14,"[{'imgObject': {}, 'id': 'bagel and cc', 'src': '/static/foodstim60/bagel and cc.jpg', 'key': 'u', 'origWidth': 410, 'origHeight': 410, 'width': 410, 'height': 410, 'widthPercent': 0.45, 'rescaleHeight': False, 'trialN': 14, 'loaded': True, 'loadedTime': 3893.7000000178814, 'positionName': 'LEFT', 'positionCoords': [327.28, 227], 'bid': 9.15}, {'imgObject': {}, 'id': 'veggieswithdip', 'src': '/static/foodstim60/veggieswithdip.jpg', 'key': 'i', 'origWidth': 409, 'origHeight': 409, 'width': 409, 'height': 409, 'widthPercent': 0.45, 'rescaleHeight': False, 'trialN': 14, 'loaded': True, 'loadedTime': 3867, 'positionName': 'RIGHT', 'positionCoords': [798.72, 227.5], 'bid': 9.21}]",27958.40000000596,1669831390833,bagel and cc,veggieswithdip,9.15,9.21,0.0600000000000005,veggieswithdip,835.5999999940395,836,836.0999999940395,True,i,29306.0,1347.5999999940395,1669831392181,1348,HRV,HRV_0156,2022-11-30 18:08:01
15,"[{'imgObject': {}, 'id': 'cantaloupe', 'src': '/static/foodstim60/cantaloupe.jpg', 'key': 'u', 'origWidth': 409, 'origHeight': 409, 'width': 409, 'height': 409, 'widthPercent': 0.45, 'rescaleHeight': False, 'trialN': 15, 'loaded': True, 'loadedTime': 3891.300000011921, 'positionName': 'LEFT', 'positionCoords': [328.28, 227.5], 'bid': 5.69}, {'imgObject': {}, 'id': 'cheerios', 'src': '/static/foodstim60/cheerios.jpg', 'key': 'i', 'origWidth': 409, 'origHeight': 410, 'width': 409, 'height': 410, 'widthPercent': 0.45, 'rescaleHeight': False, 'trialN': 15, 'loaded': True, 'loadedTime': 3872.0999999940395, 'positionName': 'RIGHT', 'positionCoords': [798.72, 227], 'bid': 5.8500000000000005}]",29306.09999999404,1669831392181,cantaloupe,cheerios,5.69,5.8500000000000005,0.16000000000000014,cheerios,1643.9000000059605,1644,1644.6000000238419,True,i,31463.20000001788,2157.100000023842,1669831394338,2157,HRV,HRV_0156,2022-11-30 18:08:01
16,"[{'imgObject': {}, 'id': 'corn cob', 'src': '/static/foodstim60/corn cob.jpg', 'key': 'u', 'origWidth': 411, 'origHeight': 411, 'width': 411, 'height': 411, 'widthPercent': 0.45, 'rescaleHeight': False, 'trialN': 16, 'loaded': True, 'loadedTime': 3895.7000000178814, 'positionName': 'LEFT', 'positionCoords': [326.28, 226.5], 'bid': 2.35}, {'imgObject': {}, 'id': 'cheerios', 'src': '/static/foodstim60/cheerios.jpg', 'key': 'i', 'origWidth': 409, 'origHeight': 410, 'width': 409, 'height': 410, 'widthPercent': 0.45, 'rescaleHeight': False, 'trialN': 16, 'loaded': True, 'loadedTime': 3873.300000011921, 'positionName': 'RIGHT', 'positionCoords': [798.72, 227], 'bid': 5.8500000000000005}]",31463.40000000596,1669831394338,corn cob,cheerios,2.35,5.8500000000000005,3.5000000000000004,cheerios,927.5,928,928.0,True,i,32902.09999999404,1438.699999988079,1669831395777,1439,HRV,HRV_0156,2022-11-30 18:08:01
17,"[{'imgObject': {}, 'id': 'cantaloupe', 'src': '/static/foodstim60/cantaloupe.jpg', 'key': 'u', 'origWidth': 409, 'origHeight': 409, 'width': 409, 'height': 409, 'widthPercent': 0.45, 'rescaleHeight': False, 'trialN': 17, 'loaded': True, 'loadedTime': 3891.800000011921, 'positionName': 'LEFT', 'positionCoords': [328.28, 227.5], 'bid': 5.69}, {'imgObject': {}, 'id': 'baked potato', 'src': '/static/foodstim60/baked potato.jpg', 'key': 'i', 'origWidth': 409, 'origHeight': 410, 'width': 409, 'height': 410, 'widthPercent': 0.45, 'rescaleHeight': False, 'trialN': 17, 'loaded': True, 'loadedTime': 3897.7000000178814, 'positionName': 'RIGHT', 'positionCoords': [798.72, 227], 'bid': 5.63}]",32902.20000001788,1669831395777,cantaloupe,baked potato,5.69,5.63,-0.0600000000000005,baked potato,1794.3999999761581,1795,1795.0,True,i,35198.80000001192,2296.5999999940395,1669831398074,2297,HRV,HRV_0156,2022-11-30 18:08:01
18,"[{'imgObject': {}, 'id': 'chicken nuggets2', 'src': '/static/foodstim60/chicken nuggets2.jpg', 'key': 'u', 'origWidth': 410, 'origHeight': 409, 'width': 410, 'height': 409, 'widthPercent': 0.45, 'rescaleHeight': False, 'trialN': 18, 'loaded': True, 'loadedTime': 3878.800000011921, 'positionName': 'LEFT', 'positionCoords': [327.28, 227.5], 'bid': 5.75}, {'imgObject': {}, 'id': 'popsicles', 'src': '/static/foodstim60/popsicles.jpg', 'key': 'i', 'origWidth': 410, 'origHeight': 410, 'width': 410, 'height': 410, 'widthPercent': 0.45, 'rescaleHeight': False, 'trialN': 18, 'loaded': True, 'loadedTime': 4681.200000017881, 'positionName': 'RIGHT', 'positionCoords': [798.72, 227], 'bid': 0.65}]",35198.90000000596,1669831398074,chicken nuggets2,popsicles,5.75,0.65,-5.1,chicken nuggets2,1258.9000000059605,1259,1259.4000000059605,True,u,36968.20000001788,1769.300000011921,1669831399843,1769,HRV,HRV_0156,2022-11-30 18:08:01
19,"[{'imgObject': {}, 'id': 'baked potato', 'src': '/static/foodstim60/baked potato.jpg', 'key': 'u', 'origWidth': 409, 'origHeight': 410, 'width': 409, 'height': 410, 'widthPercent': 0.45, 'rescaleHeight': False, 'trialN': 19, 'loaded': True, 'loadedTime': 3897.300000011921, 'positionName': 'LEFT', 'positionCoords': [328.28, 227], 'bid': 5.63}, {'imgObject': {}, 'id': 'shreddedwheatwithmilk', 'src': '/static/foodstim60/shreddedwheatwithmilk.jpg', 'key': 'i', 'origWidth': 410, 'origHeight': 410, 'width': 410, 'height': 410, 'widthPercent': 0.45, 'rescaleHeight': False, 'trialN': 19, 'loaded': True, 'loadedTime': 3899, 'positionName': 'RIGHT', 'positionCoords': [798.72, 227], 'bid': 5.2}]",36968.40000000596,1669831399844,baked potato,shreddedwheatwithmilk,5.63,5.2,-0.4299999999999997,baked potato,1080.800000011921,1081,1080.9000000059605,True,u,38562.5,1594.0999999940395,1669831401438,1594,HRV,HRV_0156,2022-11-30 18:08:01
20,"[{'imgObject': {}, 'id': 'salad w chicken', 'src': '/static/foodstim60/salad w chicken.jpg', 'key': 'u', 'origWidth': 411, 'origHeight': 411, 'width': 411, 'height': 411, 'widthPercent': 0.45, 'rescaleHeight': False, 'trialN': 20, 'loaded': True, 'loadedTime': 3901.2000000178814, 'positionName': 'LEFT', 'positionCoords': [326.28, 226.5], 'bid': 9.68}, {'imgObject': {}, 'id': 'sushi w_condiments', 'src': '/static/foodstim60/sushi w_condiments.jpg', 'key': 'i', 'origWidth': 410, 'origHeight': 410, 'width': 410, 'height': 410, 'widthPercent': 0.45, 'rescaleHeight': False, 'trialN': 20, 'loaded': True, 'loadedTime': 3902.7000000178814, 'positionName': 'RIGHT', 'positionCoords': [798.72, 227], 'bid': 9.79}]",38562.70000001788,1669831401438,salad w chicken,sushi w_condiments,9.68,9.79,0.10999999999999943,salad w chicken,715.2999999821186,716,715.8999999761581,True,u,39780.40000000596,1217.699999988079,1669831402656,1218,HRV,HRV_0156,2022-11-30 18:08:01
21,"[{'imgObject': {}, 'id': 'popsicles', 'src': '/static/foodstim60/popsicles.jpg', 'key': 'u', 'origWidth': 410, 'origHeight': 410, 'width': 410, 'height': 410, 'widthPercent': 0.45, 'rescaleHeight': False, 'trialN': 21, 'loaded': True, 'loadedTime': 4680.9000000059605, 'positionName': 'LEFT', 'positionCoords': [327.28, 227], 'bid': 0.65}, {'imgObject': {}, 'id': 'rigatoni', 'src': '/static/foodstim60/rigatoni.jpg', 'key': 'i', 'origWidth': 411, 'origHeight': 411, 'width': 411, 'height': 411, 'widthPercent': 0.45, 'rescaleHeight': False, 'trialN': 21, 'loaded': True, 'loadedTime': 3910.2000000178814, 'positionName': 'RIGHT', 'positionCoords': [798.72, 226.5], 'bid': 1.15}]",39780.59999999404,1669831402656,popsicles,rigatoni,0.65,1.15,0.4999999999999999,popsicles,2427.4000000059605,2428,2427.9000000059605,True,u,42729.09999999404,2948.5,1669831405604,2948,HRV,HRV_0156,2022-11-30 18:08:01
22,"[{'imgObject': {}, 'id': 'baked potato', 'src': '/static/foodstim60/baked potato.jpg', 'key': 'u', 'origWidth': 409, 'origHeight': 410, 'width': 409, 'height': 410, 'widthPercent': 0.45, 'rescaleHeight': False, 'trialN': 22, 'loaded': True, 'loadedTime': 3897.5, 'positionName': 'LEFT', 'positionCoords': [328.28, 227], 'bid': 5.63}, {'imgObject': {}, 'id': 'edamame', 'src': '/static/foodstim60/edamame.jpg', 'key': 'i', 'origWidth': 409, 'origHeight': 410, 'width': 409, 'height': 410, 'widthPercent': 0.45, 'rescaleHeight': False, 'trialN': 22, 'loaded': True, 'loadedTime': 3925.9000000059605, 'positionName': 'RIGHT', 'positionCoords': [798.72, 227], 'bid': 1.48}]",42729.40000000596,1669831405605,baked potato,edamame,5.63,1.48,-4.15,baked potato,1513.4000000059605,1513,1513.699999988079,True,u,44750.90000000596,2021.5,1669831407626,2021,HRV,HRV_0156,2022-11-30 18:08:01
23,"[{'imgObject': {}, 'id': 'blackbeanswithrice', 'src': '/static/foodstim60/blackbeanswithrice.jpg', 'key': 'u', 'origWidth': 410, 'origHeight': 410, 'width': 410, 'height': 410, 'widthPercent': 0.45, 'rescaleHeight': False, 'trialN': 23, 'loaded': True, 'loadedTime': 3857.9000000059605, 'positionName': 'LEFT', 'positionCoords': [327.28, 227], 'bid': 5}, {'imgObject': {}, 'id': 'steak', 'src': '/static/foodstim60/steak.jpg', 'key': 'i', 'origWidth': 410, 'origHeight': 410, 'width': 410, 'height': 410, 'widthPercent': 0.45, 'rescaleHeight': False, 'trialN': 23, 'loaded': True, 'loadedTime': 3930.2000000178814, 'positionName': 'RIGHT', 'positionCoords': [798.72, 227], 'bid': 6.04}]",44751.09999999404,1669831407626,blackbeanswithrice,steak,5.0,6.04,1.04,blackbeanswithrice,1198.800000011921,1200,1199.300000011921,True,u,46465.20000001788,1714.1000000238419,1669831409340,1714,HRV,HRV_0156,2022-11-30 18:08:01
24,"[{'imgObject': {}, 'id': 'eggsalad', 'src': '/static/foodstim60/eggsalad.jpg', 'key': 'u', 'origWidth': 410, 'origHeight': 409, 'width': 410, 'height': 409, 'widthPercent': 0.45, 'rescaleHeight': False, 'trialN': 24, 'loaded': True, 'loadedTime': 3953.5, 'positionName': 'LEFT', 'positionCoords': [327.28, 227.5], 'bid': 7.18}, {'imgObject': {}, 'id': 'froot loops w milk', 'src': '/static/foodstim60/froot loops w milk.jpg', 'key': 'i', 'origWidth': 410, 'origHeight': 410, 'width': 410, 'height': 410, 'widthPercent': 0.45, 'rescaleHeight': False, 'trialN': 24, 'loaded': True, 'loadedTime': 3965.300000011921, 'positionName': 'RIGHT', 'positionCoords': [798.72, 227], 'bid': 0.1}]",46465.5,1669831409341,eggsalad,froot loops w milk,7.18,0.1,-7.08,eggsalad,1499.800000011921,1500,1500.4000000059605,True,u,48484.5,2019.0,1669831411360,2019,HRV,HRV_0156,2022-11-30 18:08:01
25,"[{'imgObject': {}, 'id': 'froot loops w milk', 'src': '/static/foodstim60/froot loops w milk.jpg', 'key': 'u', 'origWidth': 410, 'origHeight': 410, 'width': 410, 'height': 410, 'widthPercent': 0.45, 'rescaleHeight': False, 'trialN': 25, 'loaded': True, 'loadedTime': 3966.9000000059605, 'positionName': 'LEFT', 'positionCoords': [327.28, 227], 'bid': 0.1}, {'imgObject': {}, 'id': 'banana', 'src': '/static/foodstim60/banana.jpg', 'key': 'i', 'origWidth': 410, 'origHeight': 410, 'width': 410, 'height': 410, 'widthPercent': 0.45, 'rescaleHeight': False, 'trialN': 25, 'loaded': True, 'loadedTime': 3822, 'positionName': 'RIGHT', 'positionCoords': [798.72, 227], 'bid': 5.69}]",48484.70000001788,1669831411360,froot loops w milk,banana,0.1,5.69,5.590000000000001,banana,758.6999999880791,759,759.0,True,i,49753.09999999404,1268.3999999761581,1669831412628,1268,HRV,HRV_0156,2022-11-30 18:08:01
26,"[{'imgObject': {}, 'id': 'sweetpotato', 'src': '/static/foodstim60/sweetpotato.jpg', 'key': 'u', 'origWidth': 410, 'origHeight': 410, 'width': 410, 'height': 410, 'widthPercent': 0.45, 'rescaleHeight': False, 'trialN': 26, 'loaded': True, 'loadedTime': 3969.0999999940395, 'positionName': 'LEFT', 'positionCoords': [327.28, 227], 'bid': 7.16}, {'imgObject': {}, 'id': 'lox', 'src': '/static/foodstim60/lox.jpg', 'key': 'i', 'origWidth': 410, 'origHeight': 411, 'width': 410, 'height': 411, 'widthPercent': 0.45, 'rescaleHeight': False, 'trialN': 26, 'loaded': True, 'loadedTime': 3875.5999999940395, 'positionName': 'RIGHT', 'positionCoords': [798.72, 226.5], 'bid': 5.83}]",49753.20000001788,1669831412628,sweetpotato,lox,7.16,5.83,-1.33,sweetpotato,1348.0999999940395,1349,1348.699999988079,True,u,51612.40000000596,1859.199999988079,1669831414488,1860,HRV,HRV_0156,2022-11-30 18:08:01
27,"[{'imgObject': {}, 'id': 'ice cream sundae 002', 'src': '/static/foodstim60/ice cream sundae 002.jpg', 'key': 'u', 'origWidth': 409, 'origHeight': 409, 'width': 409, 'height': 409, 'widthPercent': 0.45, 'rescaleHeight': False, 'trialN': 27, 'loaded': True, 'loadedTime': 3987.0999999940395, 'positionName': 'LEFT', 'positionCoords': [328.28, 227.5], 'bid': 2.69}, {'imgObject': {}, 'id': 'chicken nuggets2', 'src': '/static/foodstim60/chicken nuggets2.jpg', 'key': 'i', 'origWidth': 410, 'origHeight': 409, 'width': 410, 'height': 409, 'widthPercent': 0.45, 'rescaleHeight': False, 'trialN': 27, 'loaded': True, 'loadedTime': 3879.5999999940395, 'positionName': 'RIGHT', 'positionCoords': [798.72, 227.5], 'bid': 5.75}]",51612.59999999404,1669831414488,ice cream sundae 002,chicken nuggets2,2.69,5.75,3.06,chicken nuggets2,1034.4000000059605,1035,1034.7000000178814,True,i,53156.20000001788,1543.6000000238419,1669831416031,1543,HRV,HRV_0156,2022-11-30 18:08:01
28,"[{'imgObject': {}, 'id': 'turkey sandwich', 'src': '/static/foodstim60/turkey sandwich.jpg', 'key': 'u', 'origWidth': 409, 'origHeight': 409, 'width': 409, 'height': 409, 'widthPercent': 0.45, 'rescaleHeight': False, 'trialN': 28, 'loaded': True, 'loadedTime': 3988.5, 'positionName': 'LEFT', 'positionCoords': [328.28, 227.5], 'bid': 8.89}, {'imgObject': {}, 'id': 'baked potato', 'src': '/static/foodstim60/baked potato.jpg', 'key': 'i', 'origWidth': 409, 'origHeight': 410, 'width': 409, 'height': 410, 'widthPercent': 0.45, 'rescaleHeight': False, 'trialN': 28, 'loaded': True, 'loadedTime': 3897, 'positionName': 'RIGHT', 'positionCoords': [798.72, 227], 'bid': 5.63}]",53156.5,1669831416032,turkey sandwich,baked potato,8.89,5.63,-3.2600000000000007,turkey sandwich,1078.0999999940395,1079,1078.800000011921,True,u,54752.80000001192,1596.300000011921,1669831417628,1596,HRV,HRV_0156,2022-11-30 18:08:01
29,"[{'imgObject': {}, 'id': 'fried eggs', 'src': '/static/foodstim60/fried eggs.jpg', 'key': 'u', 'origWidth': 410, 'origHeight': 410, 'width': 410, 'height': 410, 'widthPercent': 0.45, 'rescaleHeight': False, 'trialN': 29, 'loaded': True, 'loadedTime': 3999.300000011921, 'positionName': 'LEFT', 'positionCoords': [327.28, 227], 'bid': 7.55}, {'imgObject': {}, 'id': 'hotdog w must', 'src': '/static/foodstim60/hotdog w must.jpg', 'key': 'i', 'origWidth': 409, 'origHeight': 409, 'width': 409, 'height': 409, 'widthPercent': 0.45, 'rescaleHeight': False, 'trialN': 29, 'loaded': True, 'loadedTime': 4000.5999999940395, 'positionName': 'RIGHT', 'positionCoords': [798.72, 227.5], 'bid': 7.53}]",54752.90000000596,1669831417628,fried eggs,hotdog w must,7.55,7.53,-0.019999999999999574,hotdog w must,1137.699999988079,1138,1138.199999988079,True,i,56400.59999999404,1647.699999988079,1669831419276,1648,HRV,HRV_0156,2022-11-30 18:08:01
30,"[{'imgObject': {}, 'id': 'cherries', 'src': '/static/foodstim60/cherries.jpg', 'key': 'u', 'origWidth': 410, 'origHeight': 411, 'width': 410, 'height': 411, 'widthPercent': 0.45, 'rescaleHeight': False, 'trialN': 30, 'loaded': True, 'loadedTime': 3883.800000011921, 'positionName': 'LEFT', 'positionCoords': [327.28, 226.5], 'bid': 9.83}, {'imgObject': {}, 'id': 'olives', 'src': '/static/foodstim60/olives.jpg', 'key': 'i', 'origWidth': 410, 'origHeight': 410, 'width': 410, 'height': 410, 'widthPercent': 0.45, 'rescaleHeight': False, 'trialN': 30, 'loaded': True, 'loadedTime': 3870.800000011921, 'positionName': 'RIGHT', 'positionCoords': [798.72, 227], 'bid': 9.23}]",56400.80000001192,1669831419276,cherries,olives,9.83,9.23,-0.5999999999999996,cherries,975.6999999880791,976,976.4000000059605,True,u,57888.09999999404,1487.2999999821186,1669831420763,1487,HRV,HRV_0156,2022-11-30 18:08:01
31,"[{'imgObject': {}, 'id': 'avocado', 'src': '/static/foodstim60/avocado.jpg', 'key': 'u', 'origWidth': 409, 'origHeight': 409, 'width': 409, 'height': 409, 'widthPercent': 0.45, 'rescaleHeight': False, 'trialN': 31, 'loaded': True, 'loadedTime': 4000.9000000059605, 'positionName': 'LEFT', 'positionCoords': [328.28, 227.5], 'bid': 8.51}, {'imgObject': {}, 'id': 'shreddedwheatwithmilk', 'src': '/static/foodstim60/shreddedwheatwithmilk.jpg', 'key': 'i', 'origWidth': 410, 'origHeight': 410, 'width': 410, 'height': 410, 'widthPercent': 0.45, 'rescaleHeight': False, 'trialN': 31, 'loaded': True, 'loadedTime': 3898.800000011921, 'positionName': 'RIGHT', 'positionCoords': [798.72, 227], 'bid': 5.2}]",57888.40000000596,1669831420764,avocado,shreddedwheatwithmilk,8.51,5.2,-3.3099999999999996,avocado,923.9000000059605,924,924.5,True,u,59324.40000000596,1436.0,1669831422200,1436,HRV,HRV_0156,2022-11-30 18:08:01
32,"[{'imgObject': {}, 'id': 'mango', 'src': '/static/foodstim60/mango.jpg', 'key': 'u', 'origWidth': 411, 'origHeight': 411, 'width': 411, 'height': 411, 'widthPercent': 0.45, 'rescaleHeight': False, 'trialN': 32, 'loaded': True, 'loadedTime': 4012.7000000178814, 'positionName': 'LEFT', 'positionCoords': [326.28, 226.5], 'bid': 6.66}, {'imgObject': {}, 'id': 'yogurt no spoon', 'src': '/static/foodstim60/yogurt no spoon.jpg', 'key': 'i', 'origWidth': 411, 'origHeight': 410, 'width': 411, 'height': 410, 'widthPercent': 0.45, 'rescaleHeight': False, 'trialN': 32, 'loaded': True, 'loadedTime': 3885.300000011921, 'positionName': 'RIGHT', 'positionCoords': [798.72, 227], 'bid': 6.51}]",59324.5,1669831422200,mango,yogurt no spoon,6.66,6.51,-0.15000000000000036,yogurt no spoon,1067.5,1068,1067.9000000059605,True,i,60902.09999999404,1577.5999999940395,1669831423777,1577,HRV,HRV_0156,2022-11-30 18:08:01
33,"[{'imgObject': {}, 'id': 'Grapes', 'src': '/static/foodstim60/Grapes.jpg', 'key': 'u', 'origWidth': 411, 'origHeight': 411, 'width': 411, 'height': 411, 'widthPercent': 0.45, 'rescaleHeight': False, 'trialN': 33, 'loaded': True, 'loadedTime': 4012.9000000059605, 'positionName': 'LEFT', 'positionCoords': [326.28, 226.5], 'bid': 5.93}, {'imgObject': {}, 'id': 'sweetpotato', 'src': '/static/foodstim60/sweetpotato.jpg', 'key': 'i', 'origWidth': 410, 'origHeight': 410, 'width': 410, 'height': 410, 'widthPercent': 0.45, 'rescaleHeight': False, 'trialN': 33, 'loaded': True, 'loadedTime': 3969.2000000178814, 'positionName': 'RIGHT', 'positionCoords': [798.72, 227], 'bid': 7.16}]",60902.20000001788,1669831423777,Grapes,sweetpotato,5.93,7.16,1.2300000000000004,Grapes,1267.8999999761581,1269,1268.5,True,u,62688.40000000596,1786.199999988079,1669831425564,1787,HRV,HRV_0156,2022-11-30 18:08:01
34,"[{'imgObject': {}, 'id': 'salad w chicken', 'src': '/static/foodstim60/salad w chicken.jpg', 'key': 'u', 'origWidth': 411, 'origHeight': 411, 'width': 411, 'height': 411, 'widthPercent': 0.45, 'rescaleHeight': False, 'trialN': 34, 'loaded': True, 'loadedTime': 3901.4000000059605, 'positionName': 'LEFT', 'positionCoords': [326.28, 226.5], 'bid': 9.68}, {'imgObject': {}, 'id': 'steak', 'src': '/static/foodstim60/steak.jpg', 'key': 'i', 'origWidth': 410, 'origHeight': 410, 'width': 410, 'height': 410, 'widthPercent': 0.45, 'rescaleHeight': False, 'trialN': 34, 'loaded': True, 'loadedTime': 3929.9000000059605, 'positionName': 'RIGHT', 'positionCoords': [798.72, 227], 'bid': 6.04}]",62688.59999999404,1669831425564,salad w chicken,steak,9.68,6.04,-3.6399999999999997,salad w chicken,936.3000000119209,937,937.0,True,u,64137.70000001788,1449.1000000238419,1669831427013,1449,HRV,HRV_0156,2022-11-30 18:08:01
35,"[{'imgObject': {}, 'id': 'blueberries', 'src': '/static/foodstim60/blueberries.jpg', 'key': 'u', 'origWidth': 411, 'origHeight': 411, 'width': 411, 'height': 411, 'widthPercent': 0.45, 'rescaleHeight': False, 'trialN': 35, 'loaded': True, 'loadedTime': 3869.800000011921, 'positionName': 'LEFT', 'positionCoords': [326.28, 226.5], 'bid': 9.06}, {'imgObject': {}, 'id': 'tacos', 'src': '/static/foodstim60/tacos.jpg', 'key': 'i', 'origWidth': 411, 'origHeight': 411, 'width': 411, 'height': 411, 'widthPercent': 0.45, 'rescaleHeight': False, 'trialN': 35, 'loaded': True, 'loadedTime': 4016.2000000178814, 'positionName': 'RIGHT', 'positionCoords': [798.72, 226.5], 'bid': 9.94}]",64137.90000000596,1669831427013,blueberries,tacos,9.06,9.94,0.879999999999999,tacos,933.3000000119209,934,933.8000000119209,True,i,65588.30000001192,1450.4000000059605,1669831428464,1451,HRV,HRV_0156,2022-11-30 18:08:01
36,"[{'imgObject': {}, 'id': 'raisin bran w milk', 'src': '/static/foodstim60/raisin bran w milk.jpg', 'key': 'u', 'origWidth': 411, 'origHeight': 411, 'width': 411, 'height': 411, 'widthPercent': 0.45, 'rescaleHeight': False, 'trialN': 36, 'loaded': True, 'loadedTime': 4017.4000000059605, 'positionName': 'LEFT', 'positionCoords': [326.28, 226.5], 'bid': 8.02}, {'imgObject': {}, 'id': 'mango', 'src': '/static/foodstim60/mango.jpg', 'key': 'i', 'origWidth': 411, 'origHeight': 411, 'width': 411, 'height': 411, 'widthPercent': 0.45, 'rescaleHeight': False, 'trialN': 36, 'loaded': True, 'loadedTime': 4012.300000011921, 'positionName': 'RIGHT', 'positionCoords': [798.72, 226.5], 'bid': 6.66}]",65588.59999999404,1669831428464,raisin bran w milk,mango,8.02,6.66,-1.3599999999999994,raisin bran w milk,1502.0,1502,1502.6000000238419,True,u,67594.70000001788,2006.1000000238419,1669831430470,2006,HRV,HRV_0156,2022-11-30 18:08:01
37,"[{'imgObject': {}, 'id': 'corn cob', 'src': '/static/foodstim60/corn cob.jpg', 'key': 'u', 'origWidth': 411, 'origHeight': 411, 'width': 411, 'height': 411, 'widthPercent': 0.45, 'rescaleHeight': False, 'trialN': 37, 'loaded': True, 'loadedTime': 3895.300000011921, 'positionName': 'LEFT', 'positionCoords': [326.28, 226.5], 'bid': 2.35}, {'imgObject': {}, 'id': 'edamame', 'src': '/static/foodstim60/edamame.jpg', 'key': 'i', 'origWidth': 409, 'origHeight': 410, 'width': 409, 'height': 410, 'widthPercent': 0.45, 'rescaleHeight': False, 'trialN': 37, 'loaded': True, 'loadedTime': 3927.2000000178814, 'positionName': 'RIGHT', 'positionCoords': [798.72, 227], 'bid': 1.48}]",67594.90000000596,1669831430470,corn cob,edamame,2.35,1.48,-0.8700000000000001,corn cob,1036.300000011921,1037,1036.9000000059605,True,u,69141.09999999404,1546.199999988079,1669831432016,1546,HRV,HRV_0156,2022-11-30 18:08:01
38,"[{'imgObject': {}, 'id': 'cherry tomato', 'src': '/static/foodstim60/cherry tomato.jpg', 'key': 'u', 'origWidth': 410, 'origHeight': 410, 'width': 410, 'height': 410, 'widthPercent': 0.45, 'rescaleHeight': False, 'trialN': 38, 'loaded': True, 'loadedTime': 3890, 'positionName': 'LEFT', 'positionCoords': [327.28, 227], 'bid': 2.2}, {'imgObject': {}, 'id': 'ice cream sundae 002', 'src': '/static/foodstim60/ice cream sundae 002.jpg', 'key': 'i', 'origWidth': 409, 'origHeight': 409, 'width': 409, 'height': 409, 'widthPercent': 0.45, 'rescaleHeight': False, 'trialN': 38, 'loaded': True, 'loadedTime': 3985.4000000059605, 'positionName': 'RIGHT', 'positionCoords': [798.72, 227.5], 'bid': 2.69}]",69141.30000001192,1669831432017,cherry tomato,ice cream sundae 002,2.2,2.69,0.48999999999999977,ice cream sundae 002,1427.699999988079,1428,1428.0999999940395,True,i,71073.20000001788,1931.9000000059605,1669831433948,1931,HRV,HRV_0156,2022-11-30 18:08:01
39,"[{'imgObject': {}, 'id': 'eggsalad', 'src': '/static/foodstim60/eggsalad.jpg', 'key': 'u', 'origWidth': 410, 'origHeight': 409, 'width': 410, 'height': 409, 'widthPercent': 0.45, 'rescaleHeight': False, 'trialN': 39, 'loaded': True, 'loadedTime': 3953, 'positionName': 'LEFT', 'positionCoords': [327.28, 227.5], 'bid': 7.18}, {'imgObject': {}, 'id': 'cheerios', 'src': '/static/foodstim60/cheerios.jpg', 'key': 'i', 'origWidth': 409, 'origHeight': 410, 'width': 409, 'height': 410, 'widthPercent': 0.45, 'rescaleHeight': False, 'trialN': 39, 'loaded': True, 'loadedTime': 3873.4000000059605, 'positionName': 'RIGHT', 'positionCoords': [798.72, 227], 'bid': 5.8500000000000005}]",71073.30000001192,1669831433949,eggsalad,cheerios,7.18,5.8500000000000005,-1.3299999999999992,eggsalad,2108.0999999940395,2110,2110.5,True,u,73693.59999999404,2620.2999999821186,1669831436569,2620,HRV,HRV_0156,2022-11-30 18:08:01
40,"[{'imgObject': {}, 'id': 'blackbeanswithrice', 'src': '/static/foodstim60/blackbeanswithrice.jpg', 'key': 'u', 'origWidth': 410, 'origHeight': 410, 'width': 410, 'height': 410, 'widthPercent': 0.45, 'rescaleHeight': False, 'trialN': 40, 'loaded': True, 'loadedTime': 3856.0999999940395, 'positionName': 'LEFT', 'positionCoords': [327.28, 227], 'bid': 5}, {'imgObject': {}, 'id': 'bagel plain', 'src': '/static/foodstim60/bagel plain.jpg', 'key': 'i', 'origWidth': 410, 'origHeight': 410, 'width': 410, 'height': 410, 'widthPercent': 0.45, 'rescaleHeight': False, 'trialN': 40, 'loaded': True, 'loadedTime': 4029.7000000178814, 'positionName': 'RIGHT', 'positionCoords': [798.72, 227], 'bid': 5}]",73693.80000001192,1669831436569,blackbeanswithrice,bagel plain,5.0,5.0,0.0,bagel plain,2000.5999999940395,2001,2001.199999988079,True,i,76202.5,2508.699999988079,1669831439078,2509,HRV,HRV_0156,2022-11-30 18:08:01
41,"[{'imgObject': {}, 'id': 'luckycharms', 'src': '/static/foodstim60/luckycharms.jpg', 'key': 'u', 'origWidth': 410, 'origHeight': 409, 'width': 410, 'height': 409, 'widthPercent': 0.45, 'rescaleHeight': False, 'trialN': 41, 'loaded': True, 'loadedTime': 4030.9000000059605, 'positionName': 'LEFT', 'positionCoords': [327.28, 227.5], 'bid': 0}, {'imgObject': {}, 'id': 'froot loops w milk', 'src': '/static/foodstim60/froot loops w milk.jpg', 'key': 'i', 'origWidth': 410, 'origHeight': 410, 'width': 410, 'height': 410, 'widthPercent': 0.45, 'rescaleHeight': False, 'trialN': 41, 'loaded': True, 'loadedTime': 3967.7000000178814, 'positionName': 'RIGHT', 'positionCoords': [798.72, 227], 'bid': 0.1}]",76202.80000001192,1669831439078,luckycharms,froot loops w milk,0.0,0.1,0.1,froot loops w milk,1445.0999999940395,1446,1445.5,True,i,78167.30000001192,1964.5,1669831441042,1964,HRV,HRV_0156,2022-11-30 18:08:01
42,"[{'imgObject': {}, 'id': 'cherries', 'src': '/static/foodstim60/cherries.jpg', 'key': 'u', 'origWidth': 410, 'origHeight': 411, 'width': 410, 'height': 411, 'widthPercent': 0.45, 'rescaleHeight': False, 'trialN': 42, 'loaded': True, 'loadedTime': 3883.5999999940395, 'positionName': 'LEFT', 'positionCoords': [327.28, 226.5], 'bid': 9.83}, {'imgObject': {}, 'id': 'strawberries', 'src': '/static/foodstim60/strawberries.jpg', 'key': 'i', 'origWidth': 410, 'origHeight': 410, 'width': 410, 'height': 410, 'widthPercent': 0.45, 'rescaleHeight': False, 'trialN': 42, 'loaded': True, 'loadedTime': 4031.2000000178814, 'positionName': 'RIGHT', 'positionCoords': [798.72, 227], 'bid': 9.06}]",78167.80000001192,1669831441043,cherries,strawberries,9.83,9.06,-0.7699999999999996,cherries,1584.5,1585,1584.7999999821186,True,u,80266.20000001788,2098.4000000059605,1669831443141,2098,HRV,HRV_0156,2022-11-30 18:08:01
43,"[{'imgObject': {}, 'id': 'cherry tomato', 'src': '/static/foodstim60/cherry tomato.jpg', 'key': 'u', 'origWidth': 410, 'origHeight': 410, 'width': 410, 'height': 410, 'widthPercent': 0.45, 'rescaleHeight': False, 'trialN': 43, 'loaded': True, 'loadedTime': 3889.4000000059605, 'positionName': 'LEFT', 'positionCoords': [327.28, 227], 'bid': 2.2}, {'imgObject': {}, 'id': 'fried eggs', 'src': '/static/foodstim60/fried eggs.jpg', 'key': 'i', 'origWidth': 410, 'origHeight': 410, 'width': 410, 'height': 410, 'widthPercent': 0.45, 'rescaleHeight': False, 'trialN': 43, 'loaded': True, 'loadedTime': 3999.5, 'positionName': 'RIGHT', 'positionCoords': [798.72, 227], 'bid': 7.55}]",80266.40000000596,1669831443142,cherry tomato,fried eggs,2.2,7.55,5.35,fried eggs,1048.0999999940395,1048,1048.699999988079,True,i,81820.80000001192,1554.4000000059605,1669831444696,1554,HRV,HRV_0156,2022-11-30 18:08:01
44,"[{'imgObject': {}, 'id': 'omelette', 'src': '/static/foodstim60/omelette.jpg', 'key': 'u', 'origWidth': 410, 'origHeight': 409, 'width': 410, 'height': 409, 'widthPercent': 0.45, 'rescaleHeight': False, 'trialN': 44, 'loaded': True, 'loadedTime': 4043.0999999940395, 'positionName': 'LEFT', 'positionCoords': [327.28, 227.5], 'bid': 4.32}, {'imgObject': {}, 'id': 'fruitsalad', 'src': '/static/foodstim60/fruitsalad.jpg', 'key': 'i', 'origWidth': 410, 'origHeight': 410, 'width': 410, 'height': 410, 'widthPercent': 0.45, 'rescaleHeight': False, 'trialN': 44, 'loaded': True, 'loadedTime': 3863.800000011921, 'positionName': 'RIGHT', 'positionCoords': [798.72, 227], 'bid': 5.92}]",81821.0,1669831444696,omelette,fruitsalad,4.32,5.92,1.5999999999999996,fruitsalad,937.5999999940395,938,938.0999999940395,True,i,83270.80000001192,1449.800000011921,1669831446146,1450,HRV,HRV_0156,2022-11-30 18:08:01
45,"[{'imgObject': {}, 'id': 'raspberries', 'src': '/static/foodstim60/raspberries.jpg', 'key': 'u', 'origWidth': 411, 'origHeight': 411, 'width': 411, 'height': 411, 'widthPercent': 0.45, 'rescaleHeight': False, 'trialN': 45, 'loaded': True, 'loadedTime': 4043.300000011921, 'positionName': 'LEFT', 'positionCoords': [326.28, 226.5], 'bid': 9.53}, {'imgObject': {}, 'id': 'cocktailshrimp', 'src': '/static/foodstim60/cocktailshrimp.jpg', 'key': 'i', 'origWidth': 410, 'origHeight': 410, 'width': 410, 'height': 410, 'widthPercent': 0.45, 'rescaleHeight': False, 'trialN': 45, 'loaded': True, 'loadedTime': 3863.2000000178814, 'positionName': 'RIGHT', 'positionCoords': [798.72, 227], 'bid': 9.37}]",83271.09999999404,1669831446146,raspberries,cocktailshrimp,9.53,9.37,-0.16000000000000014,raspberries,1426.5,1427,1427.1000000238419,True,u,85204.90000000596,1933.800000011921,1669831448080,1934,HRV,HRV_0156,2022-11-30 18:08:01
46,"[{'imgObject': {}, 'id': 'orange slices', 'src': '/static/foodstim60/orange slices.jpg', 'key': 'u', 'origWidth': 409, 'origHeight': 410, 'width': 409, 'height': 410, 'widthPercent': 0.45, 'rescaleHeight': False, 'trialN': 46, 'loaded': True, 'loadedTime': 4054.7000000178814, 'positionName': 'LEFT', 'positionCoords': [328.28, 227], 'bid': 7.73}, {'imgObject': {}, 'id': 'avocado', 'src': '/static/foodstim60/avocado.jpg', 'key': 'i', 'origWidth': 409, 'origHeight': 409, 'width': 409, 'height': 409, 'widthPercent': 0.45, 'rescaleHeight': False, 'trialN': 46, 'loaded': True, 'loadedTime': 4002.5, 'positionName': 'RIGHT', 'positionCoords': [798.72, 227.5], 'bid': 8.51}]",85205.30000001192,1669831448081,orange slices,avocado,7.73,8.51,0.7799999999999994,avocado,887.6999999880791,888,888.1999999880791,True,i,86610.70000001788,1405.4000000059605,1669831449486,1405,HRV,HRV_0156,2022-11-30 18:08:01
47,"[{'imgObject': {}, 'id': 'bagel and cc', 'src': '/static/foodstim60/bagel and cc.jpg', 'key': 'u', 'origWidth': 410, 'origHeight': 410, 'width': 410, 'height': 410, 'widthPercent': 0.45, 'rescaleHeight': False, 'trialN': 47, 'loaded': True, 'loadedTime': 3893.9000000059605, 'positionName': 'LEFT', 'positionCoords': [327.28, 227], 'bid': 9.15}, {'imgObject': {}, 'id': 'Tribe humus pita', 'src': '/static/foodstim60/Tribe humus pita.jpg', 'key': 'i', 'origWidth': 411, 'origHeight': 411, 'width': 411, 'height': 411, 'widthPercent': 0.45, 'rescaleHeight': False, 'trialN': 47, 'loaded': True, 'loadedTime': 3879.800000011921, 'positionName': 'RIGHT', 'positionCoords': [798.72, 226.5], 'bid': 8.09}]",86610.80000001192,1669831449486,bagel and cc,Tribe humus pita,9.15,8.09,-1.0600000000000005,bagel and cc,1850.0,1851,1850.5,True,u,88971.80000001192,2361.0,1669831451847,2361,HRV,HRV_0156,2022-11-30 18:08:01
48,"[{'imgObject': {}, 'id': 'cheerios', 'src': '/static/foodstim60/cheerios.jpg', 'key': 'u', 'origWidth': 409, 'origHeight': 410, 'width': 409, 'height': 410, 'widthPercent': 0.45, 'rescaleHeight': False, 'trialN': 48, 'loaded': True, 'loadedTime': 3873.300000011921, 'positionName': 'LEFT', 'positionCoords': [328.28, 227], 'bid': 5.8500000000000005}, {'imgObject': {}, 'id': 'fruitsalad', 'src': '/static/foodstim60/fruitsalad.jpg', 'key': 'i', 'origWidth': 410, 'origHeight': 410, 'width': 410, 'height': 410, 'widthPercent': 0.45, 'rescaleHeight': False, 'trialN': 48, 'loaded': True, 'loadedTime': 3864.9000000059605, 'positionName': 'RIGHT', 'positionCoords': [798.72, 227], 'bid': 5.92}]",88972.0,1669831451847,cheerios,fruitsalad,5.8500000000000005,5.92,0.0699999999999994,fruitsalad,1078.2000000178814,1079,1078.7000000178814,True,i,90565.09999999404,1593.0999999940395,1669831453440,1593,HRV,HRV_0156,2022-11-30 18:08:01
49,"[{'imgObject': {}, 'id': 'seaweed', 'src': '/static/foodstim60/seaweed.jpg', 'key': 'u', 'origWidth': 410, 'origHeight': 410, 'width': 410, 'height': 410, 'widthPercent': 0.45, 'rescaleHeight': False, 'trialN': 49, 'loaded': True, 'loadedTime': 4056.5, 'positionName': 'LEFT', 'positionCoords': [327.28, 227], 'bid': 8.94}, {'imgObject': {}, 'id': 'sweetpotato', 'src': '/static/foodstim60/sweetpotato.jpg', 'key': 'i', 'origWidth': 410, 'origHeight': 410, 'width': 410, 'height': 410, 'widthPercent': 0.45, 'rescaleHeight': False, 'trialN': 49, 'loaded': True, 'loadedTime': 3969.2000000178814, 'positionName': 'RIGHT', 'positionCoords': [798.72, 227], 'bid': 7.16}]",90565.20000001788,1669831453440,seaweed,sweetpotato,8.94,7.16,-1.7799999999999994,seaweed,855.6999999880791,857,856.3999999761581,True,u,91935.5,1370.2999999821186,1669831454811,1371,HRV,HRV_0156,2022-11-30 18:08:01
50,"[{'imgObject': {}, 'id': 'omelette', 'src': '/static/foodstim60/omelette.jpg', 'key': 'u', 'origWidth': 410, 'origHeight': 409, 'width': 410, 'height': 409, 'widthPercent': 0.45, 'rescaleHeight': False, 'trialN': 50, 'loaded': True, 'loadedTime': 4041.7000000178814, 'positionName': 'LEFT', 'positionCoords': [327.28, 227.5], 'bid': 4.32}, {'imgObject': {}, 'id': 'mac & cheese', 'src': '/static/foodstim60/mac & cheese.jpg', 'key': 'i', 'origWidth': 410, 'origHeight': 410, 'width': 410, 'height': 410, 'widthPercent': 0.45, 'rescaleHeight': False, 'trialN': 50, 'loaded': True, 'loadedTime': 3859.2000000178814, 'positionName': 'RIGHT', 'positionCoords': [798.72, 227], 'bid': 4.47}]",91935.70000001788,1669831454811,omelette,mac & cheese,4.32,4.47,0.14999999999999947,mac & cheese,1498.699999988079,1499,1499.199999988079,True,i,93940.30000001192,2004.5999999940395,1669831456816,2005,HRV,HRV_0156,2022-11-30 18:08:01
51,"[{'imgObject': {}, 'id': 'steak', 'src': '/static/foodstim60/steak.jpg', 'key': 'u', 'origWidth': 410, 'origHeight': 410, 'width': 410, 'height': 410, 'widthPercent': 0.45, 'rescaleHeight': False, 'trialN': 51, 'loaded': True, 'loadedTime': 3930.4000000059605, 'positionName': 'LEFT', 'positionCoords': [327.28, 227], 'bid': 6.04}, {'imgObject': {}, 'id': 'orange slices', 'src': '/static/foodstim60/orange slices.jpg', 'key': 'i', 'origWidth': 409, 'origHeight': 410, 'width': 409, 'height': 410, 'widthPercent': 0.45, 'rescaleHeight': False, 'trialN': 51, 'loaded': True, 'loadedTime': 4054.800000011921, 'positionName': 'RIGHT', 'positionCoords': [798.72, 227], 'bid': 7.73}]",93940.5,1669831456816,steak,orange slices,6.04,7.73,1.6900000000000004,orange slices,863.4000000059605,864,863.9000000059605,True,i,95318.5,1378.0,1669831458194,1378,HRV,HRV_0156,2022-11-30 18:08:01
52,"[{'imgObject': {}, 'id': 'fruitsalad', 'src': '/static/foodstim60/fruitsalad.jpg', 'key': 'u', 'origWidth': 410, 'origHeight': 410, 'width': 410, 'height': 410, 'widthPercent': 0.45, 'rescaleHeight': False, 'trialN': 52, 'loaded': True, 'loadedTime': 3865.300000011921, 'positionName': 'LEFT', 'positionCoords': [327.28, 227], 'bid': 5.92}, {'imgObject': {}, 'id': 'mashed potato', 'src': '/static/foodstim60/mashed potato.jpg', 'key': 'i', 'origWidth': 409, 'origHeight': 409, 'width': 409, 'height': 409, 'widthPercent': 0.45, 'rescaleHeight': False, 'trialN': 52, 'loaded': True, 'loadedTime': 4057.5999999940395, 'positionName': 'RIGHT', 'positionCoords': [798.72, 227.5], 'bid': 7.33}]",95318.59999999404,1669831458194,fruitsalad,mashed potato,5.92,7.33,1.4100000000000001,mashed potato,1303.4000000059605,1303,1303.7000000178814,True,i,97137.80000001192,1819.2000000178814,1669831460013,1819,HRV,HRV_0156,2022-11-30 18:08:01
53,"[{'imgObject': {}, 'id': 'raspberries', 'src': '/static/foodstim60/raspberries.jpg', 'key': 'u', 'origWidth': 411, 'origHeight': 411, 'width': 411, 'height': 411, 'widthPercent': 0.45, 'rescaleHeight': False, 'trialN': 53, 'loaded': True, 'loadedTime': 4044.5, 'positionName': 'LEFT', 'positionCoords': [326.28, 226.5], 'bid': 9.53}, {'imgObject': {}, 'id': 'blueberries', 'src': '/static/foodstim60/blueberries.jpg', 'key': 'i', 'origWidth': 411, 'origHeight': 411, 'width': 411, 'height': 411, 'widthPercent': 0.45, 'rescaleHeight': False, 'trialN': 53, 'loaded': True, 'loadedTime': 3869.5, 'positionName': 'RIGHT', 'positionCoords': [798.72, 226.5], 'bid': 9.06}]",97138.0,1669831460013,raspberries,blueberries,9.53,9.06,-0.46999999999999886,raspberries,879.4000000059605,880,880.0,True,u,98528.90000000596,1390.9000000059605,1669831461404,1391,HRV,HRV_0156,2022-11-30 18:08:01
54,"[{'imgObject': {}, 'id': 'burrito', 'src': '/static/foodstim60/burrito.jpg', 'key': 'u', 'origWidth': 410, 'origHeight': 410, 'width': 410, 'height': 410, 'widthPercent': 0.45, 'rescaleHeight': False, 'trialN': 54, 'loaded': True, 'loadedTime': 4057.800000011921, 'positionName': 'LEFT', 'positionCoords': [327.28, 227], 'bid': 5.2700000000000005}, {'imgObject': {}, 'id': 'shreddedwheatwithmilk', 'src': '/static/foodstim60/shreddedwheatwithmilk.jpg', 'key': 'i', 'origWidth': 410, 'origHeight': 410, 'width': 410, 'height': 410, 'widthPercent': 0.45, 'rescaleHeight': False, 'trialN': 54, 'loaded': True, 'loadedTime': 3899, 'positionName': 'RIGHT', 'positionCoords': [798.72, 227], 'bid': 5.2}]",98529.0,1669831461404,burrito,shreddedwheatwithmilk,5.2700000000000005,5.2,-0.07000000000000028,shreddedwheatwithmilk,1557.2000000178814,1557,1557.5999999940395,True,i,100608.5,2079.5,1669831463483,2079,HRV,HRV_0156,2022-11-30 18:08:01
55,"[{'imgObject': {}, 'id': 'orange slices', 'src': '/static/foodstim60/orange slices.jpg', 'key': 'u', 'origWidth': 409, 'origHeight': 410, 'width': 409, 'height': 410, 'widthPercent': 0.45, 'rescaleHeight': False, 'trialN': 55, 'loaded': True, 'loadedTime': 4053.5, 'positionName': 'LEFT', 'positionCoords': [328.28, 227], 'bid': 7.73}, {'imgObject': {}, 'id': 'corn cob', 'src': '/static/foodstim60/corn cob.jpg', 'key': 'i', 'origWidth': 411, 'origHeight': 411, 'width': 411, 'height': 411, 'widthPercent': 0.45, 'rescaleHeight': False, 'trialN': 55, 'loaded': True, 'loadedTime': 3895.4000000059605, 'positionName': 'RIGHT', 'positionCoords': [798.72, 226.5], 'bid': 2.35}]",100608.70000001788,1669831463483,orange slices,corn cob,7.73,2.35,-5.380000000000001,orange slices,923.5,924,924.0,True,u,102042.09999999404,1433.3999999761581,1669831464917,1434,HRV,HRV_0156,2022-11-30 18:08:01
56,"[{'imgObject': {}, 'id': 'corn cob', 'src': '/static/foodstim60/corn cob.jpg', 'key': 'u', 'origWidth': 411, 'origHeight': 411, 'width': 411, 'height': 411, 'widthPercent': 0.45, 'rescaleHeight': False, 'trialN': 56, 'loaded': True, 'loadedTime': 3895.5999999940395, 'positionName': 'LEFT', 'positionCoords': [326.28, 226.5], 'bid': 2.35}, {'imgObject': {}, 'id': 'ice cream sundae 002', 'src': '/static/foodstim60/ice cream sundae 002.jpg', 'key': 'i', 'origWidth': 409, 'origHeight': 409, 'width': 409, 'height': 409, 'widthPercent': 0.45, 'rescaleHeight': False, 'trialN': 56, 'loaded': True, 'loadedTime': 3987, 'positionName': 'RIGHT', 'positionCoords': [798.72, 227.5], 'bid': 2.69}]",102042.30000001192,1669831464917,corn cob,ice cream sundae 002,2.35,2.69,0.33999999999999986,corn cob,902.9000000059605,904,903.5,True,u,103464.59999999404,1422.2999999821186,1669831466339,1422,HRV,HRV_0156,2022-11-30 18:08:01
57,"[{'imgObject': {}, 'id': 'turkey sandwich', 'src': '/static/foodstim60/turkey sandwich.jpg', 'key': 'u', 'origWidth': 409, 'origHeight': 409, 'width': 409, 'height': 409, 'widthPercent': 0.45, 'rescaleHeight': False, 'trialN': 57, 'loaded': True, 'loadedTime': 3988.9000000059605, 'positionName': 'LEFT', 'positionCoords': [328.28, 227.5], 'bid': 8.89}, {'imgObject': {}, 'id': 'tacos', 'src': '/static/foodstim60/tacos.jpg', 'key': 'i', 'origWidth': 411, 'origHeight': 411, 'width': 411, 'height': 411, 'widthPercent': 0.45, 'rescaleHeight': False, 'trialN': 57, 'loaded': True, 'loadedTime': 4014.5999999940395, 'positionName': 'RIGHT', 'positionCoords': [798.72, 226.5], 'bid': 9.94}]",103464.70000001788,1669831466339,turkey sandwich,tacos,8.89,9.94,1.049999999999999,tacos,680.5,681,681.0,True,i,104652.0,1187.2999999821186,1669831467527,1188,HRV,HRV_0156,2022-11-30 18:08:01
58,"[{'imgObject': {}, 'id': 'cherry tomato', 'src': '/static/foodstim60/cherry tomato.jpg', 'key': 'u', 'origWidth': 410, 'origHeight': 410, 'width': 410, 'height': 410, 'widthPercent': 0.45, 'rescaleHeight': False, 'trialN': 58, 'loaded': True, 'loadedTime': 3889.5999999940395, 'positionName': 'LEFT', 'positionCoords': [327.28, 227], 'bid': 2.2}, {'imgObject': {}, 'id': 'lox', 'src': '/static/foodstim60/lox.jpg', 'key': 'i', 'origWidth': 410, 'origHeight': 411, 'width': 410, 'height': 411, 'widthPercent': 0.45, 'rescaleHeight': False, 'trialN': 58, 'loaded': True, 'loadedTime': 3873.9000000059605, 'positionName': 'RIGHT', 'positionCoords': [798.72, 226.5], 'bid': 5.83}]",104652.30000001192,1669831467527,cherry tomato,lox,2.2,5.83,3.63,lox,1400.0,1401,1400.5999999940395,True,i,106560.30000001192,1908.0,1669831469435,1908,HRV,HRV_0156,2022-11-30 18:08:01
59,"[{'imgObject': {}, 'id': 'corn cob', 'src': '/static/foodstim60/corn cob.jpg', 'key': 'u', 'origWidth': 411, 'origHeight': 411, 'width': 411, 'height': 411, 'widthPercent': 0.45, 'rescaleHeight': False, 'trialN': 59, 'loaded': True, 'loadedTime': 3894, 'positionName': 'LEFT', 'positionCoords': [326.28, 226.5], 'bid': 2.35}, {'imgObject': {}, 'id': 'banana', 'src': '/static/foodstim60/banana.jpg', 'key': 'i', 'origWidth': 410, 'origHeight': 410, 'width': 410, 'height': 410, 'widthPercent': 0.45, 'rescaleHeight': False, 'trialN': 59, 'loaded': True, 'loadedTime': 3822.5, 'positionName': 'RIGHT', 'positionCoords': [798.72, 227], 'bid': 5.69}]",106560.40000000596,1669831469435,corn cob,banana,2.35,5.69,3.3400000000000003,corn cob,1030.5,1031,1031.0,True,u,108105.09999999404,1544.699999988079,1669831470980,1545,HRV,HRV_0156,2022-11-30 18:08:01
60,"[{'imgObject': {}, 'id': 'popsicles', 'src': '/static/foodstim60/popsicles.jpg', 'key': 'u', 'origWidth': 410, 'origHeight': 410, 'width': 410, 'height': 410, 'widthPercent': 0.45, 'rescaleHeight': False, 'trialN': 60, 'loaded': True, 'loadedTime': 4681.300000011921, 'positionName': 'LEFT', 'positionCoords': [327.28, 227], 'bid': 0.65}, {'imgObject': {}, 'id': 'omelette', 'src': '/static/foodstim60/omelette.jpg', 'key': 'i', 'origWidth': 410, 'origHeight': 409, 'width': 410, 'height': 409, 'widthPercent': 0.45, 'rescaleHeight': False, 'trialN': 60, 'loaded': True, 'loadedTime': 4042.800000011921, 'positionName': 'RIGHT', 'positionCoords': [798.72, 227.5], 'bid': 4.32}]",108105.30000001192,1669831470980,popsicles,omelette,0.65,4.32,3.6700000000000004,omelette,968.9000000059605,969,969.4000000059605,True,i,109578.0,1472.699999988079,1669831472453,1473,HRV,HRV_0156,2022-11-30 18:08:01
61,"[{'imgObject': {}, 'id': 'mashed potato', 'src': '/static/foodstim60/mashed potato.jpg', 'key': 'u', 'origWidth': 409, 'origHeight': 409, 'width': 409, 'height': 409, 'widthPercent': 0.45, 'rescaleHeight': False, 'trialN': 61, 'loaded': True, 'loadedTime': 4057.300000011921, 'positionName': 'LEFT', 'positionCoords': [328.28, 227.5], 'bid': 7.33}, {'imgObject': {}, 'id': 'hashbrowns', 'src': '/static/foodstim60/hashbrowns.jpg', 'key': 'i', 'origWidth': 411, 'origHeight': 410, 'width': 411, 'height': 410, 'widthPercent': 0.45, 'rescaleHeight': False, 'trialN': 61, 'loaded': True, 'loadedTime': 4060.5, 'positionName': 'RIGHT', 'positionCoords': [798.72, 227], 'bid': 7.23}]",109578.20000001788,1669831472453,mashed potato,hashbrowns,7.33,7.23,-0.09999999999999964,mashed potato,869.5999999940395,870,870.0999999940395,True,u,110968.30000001192,1390.0999999940395,1669831473843,1390,HRV,HRV_0156,2022-11-30 18:08:01
62,"[{'imgObject': {}, 'id': 'blueberries', 'src': '/static/foodstim60/blueberries.jpg', 'key': 'u', 'origWidth': 411, 'origHeight': 411, 'width': 411, 'height': 411, 'widthPercent': 0.45, 'rescaleHeight': False, 'trialN': 62, 'loaded': True, 'loadedTime': 3868.0999999940395, 'positionName': 'LEFT', 'positionCoords': [326.28, 226.5], 'bid': 9.06}, {'imgObject': {}, 'id': 'rigatoni and sauce', 'src': '/static/foodstim60/rigatoni and sauce.jpg', 'key': 'i', 'origWidth': 410, 'origHeight': 411, 'width': 410, 'height': 411, 'widthPercent': 0.45, 'rescaleHeight': False, 'trialN': 62, 'loaded': True, 'loadedTime': 4071.7000000178814, 'positionName': 'RIGHT', 'positionCoords': [798.72, 226.5], 'bid': 5.8}]",110968.5,1669831473843,blueberries,rigatoni and sauce,9.06,5.8,-3.2600000000000007,blueberries,919.4000000059605,920,919.8000000119209,True,u,112408.20000001788,1439.7000000178814,1669831475283,1440,HRV,HRV_0156,2022-11-30 18:08:01
63,"[{'imgObject': {}, 'id': 'mango', 'src': '/static/foodstim60/mango.jpg', 'key': 'u', 'origWidth': 411, 'origHeight': 411, 'width': 411, 'height': 411, 'widthPercent': 0.45, 'rescaleHeight': False, 'trialN': 63, 'loaded': True, 'loadedTime': 4012.7000000178814, 'positionName': 'LEFT', 'positionCoords': [326.28, 226.5], 'bid': 6.66}, {'imgObject': {}, 'id': 'baked potato', 'src': '/static/foodstim60/baked potato.jpg', 'key': 'i', 'origWidth': 409, 'origHeight': 410, 'width': 409, 'height': 410, 'widthPercent': 0.45, 'rescaleHeight': False, 'trialN': 63, 'loaded': True, 'loadedTime': 3895.800000011921, 'positionName': 'RIGHT', 'positionCoords': [798.72, 227], 'bid': 5.63}]",112408.30000001192,1669831475283,mango,baked potato,6.66,5.63,-1.0300000000000002,baked potato,965.5999999940395,966,966.1999999880791,True,i,113889.59999999404,1481.2999999821186,1669831476764,1481,HRV,HRV_0156,2022-11-30 18:08:01
64,"[{'imgObject': {}, 'id': 'seaweed', 'src': '/static/foodstim60/seaweed.jpg', 'key': 'u', 'origWidth': 410, 'origHeight': 410, 'width': 410, 'height': 410, 'widthPercent': 0.45, 'rescaleHeight': False, 'trialN': 64, 'loaded': True, 'loadedTime': 4056.5999999940395, 'positionName': 'LEFT', 'positionCoords': [327.28, 227], 'bid': 8.94}, {'imgObject': {}, 'id': 'raisin bran w milk', 'src': '/static/foodstim60/raisin bran w milk.jpg', 'key': 'i', 'origWidth': 411, 'origHeight': 411, 'width': 411, 'height': 411, 'widthPercent': 0.45, 'rescaleHeight': False, 'trialN': 64, 'loaded': True, 'loadedTime': 4017.5999999940395, 'positionName': 'RIGHT', 'positionCoords': [798.72, 226.5], 'bid': 8.02}]",113889.90000000596,1669831476765,seaweed,raisin bran w milk,8.94,8.02,-0.9199999999999999,seaweed,666.8000000119209,667,667.3000000119209,True,u,115080.30000001192,1190.4000000059605,1669831477955,1190,HRV,HRV_0156,2022-11-30 18:08:01
65,"[{'imgObject': {}, 'id': 'bagel and cc', 'src': '/static/foodstim60/bagel and cc.jpg', 'key': 'u', 'origWidth': 410, 'origHeight': 410, 'width': 410, 'height': 410, 'widthPercent': 0.45, 'rescaleHeight': False, 'trialN': 65, 'loaded': True, 'loadedTime': 3892.0999999940395, 'positionName': 'LEFT', 'positionCoords': [327.28, 227], 'bid': 9.15}, {'imgObject': {}, 'id': 'salad w chicken', 'src': '/static/foodstim60/salad w chicken.jpg', 'key': 'i', 'origWidth': 411, 'origHeight': 411, 'width': 411, 'height': 411, 'widthPercent': 0.45, 'rescaleHeight': False, 'trialN': 65, 'loaded': True, 'loadedTime': 3900.800000011921, 'positionName': 'RIGHT', 'positionCoords': [798.72, 226.5], 'bid': 9.68}]",115080.5,1669831477955,bagel and cc,salad w chicken,9.15,9.68,0.5299999999999994,salad w chicken,732.2000000178814,733,732.5999999940395,True,i,116315.20000001788,1234.7000000178814,1669831479190,1235,HRV,HRV_0156,2022-11-30 18:08:01
66,"[{'imgObject': {}, 'id': 'salmon', 'src': '/static/foodstim60/salmon.jpg', 'key': 'u', 'origWidth': 410, 'origHeight': 409, 'width': 410, 'height': 409, 'widthPercent': 0.45, 'rescaleHeight': False, 'trialN': 66, 'loaded': True, 'loadedTime': 3861.9000000059605, 'positionName': 'LEFT', 'positionCoords': [327.28, 227.5], 'bid': 7.86}, {'imgObject': {}, 'id': 'turkey sandwich', 'src': '/static/foodstim60/turkey sandwich.jpg', 'key': 'i', 'origWidth': 409, 'origHeight': 409, 'width': 409, 'height': 409, 'widthPercent': 0.45, 'rescaleHeight': False, 'trialN': 66, 'loaded': True, 'loadedTime': 3987.5, 'positionName': 'RIGHT', 'positionCoords': [798.72, 227.5], 'bid': 8.89}]",116315.40000000596,1669831479190,salmon,turkey sandwich,7.86,8.89,1.0300000000000002,turkey sandwich,1077.300000011921,1078,1077.9000000059605,True,i,117913.09999999404,1597.699999988079,1669831480788,1598,HRV,HRV_0156,2022-11-30 18:08:01
67,"[{'imgObject': {}, 'id': 'tacos', 'src': '/static/foodstim60/tacos.jpg', 'key': 'u', 'origWidth': 411, 'origHeight': 411, 'width': 411, 'height': 411, 'widthPercent': 0.45, 'rescaleHeight': False, 'trialN': 67, 'loaded': True, 'loadedTime': 4015.9000000059605, 'positionName': 'LEFT', 'positionCoords': [326.28, 226.5], 'bid': 9.94}, {'imgObject': {}, 'id': 'cocktailshrimp', 'src': '/static/foodstim60/cocktailshrimp.jpg', 'key': 'i', 'origWidth': 410, 'origHeight': 410, 'width': 410, 'height': 410, 'widthPercent': 0.45, 'rescaleHeight': False, 'trialN': 67, 'loaded': True, 'loadedTime': 3863.0999999940395, 'positionName': 'RIGHT', 'positionCoords': [798.72, 227], 'bid': 9.37}]",117913.30000001192,1669831480788,tacos,cocktailshrimp,9.94,9.37,-0.5700000000000003,tacos,782.5999999940395,783,783.0,True,u,119212.80000001192,1299.5,1669831482087,1299,HRV,HRV_0156,2022-11-30 18:08:01
68,"[{'imgObject': {}, 'id': 'popsicles', 'src': '/static/foodstim60/popsicles.jpg', 'key': 'u', 'origWidth': 410, 'origHeight': 410, 'width': 410, 'height': 410, 'widthPercent': 0.45, 'rescaleHeight': False, 'trialN': 68, 'loaded': True, 'loadedTime': 4679.5999999940395, 'positionName': 'LEFT', 'positionCoords': [327.28, 227], 'bid': 0.65}, {'imgObject': {}, 'id': 'luckycharms', 'src': '/static/foodstim60/luckycharms.jpg', 'key': 'i', 'origWidth': 410, 'origHeight': 409, 'width': 410, 'height': 409, 'widthPercent': 0.45, 'rescaleHeight': False, 'trialN': 68, 'loaded': True, 'loadedTime': 4030.9000000059605, 'positionName': 'RIGHT', 'positionCoords': [798.72, 227.5], 'bid': 0}]",119213.0,1669831482088,popsicles,luckycharms,0.65,0.0,-0.65,popsicles,1023.9000000059605,1024,1024.300000011921,True,u,120760.20000001788,1547.2000000178814,1669831483635,1547,HRV,HRV_0156,2022-11-30 18:08:01
69,"[{'imgObject': {}, 'id': 'burrito', 'src': '/static/foodstim60/burrito.jpg', 'key': 'u', 'origWidth': 410, 'origHeight': 410, 'width': 410, 'height': 410, 'widthPercent': 0.45, 'rescaleHeight': False, 'trialN': 69, 'loaded': True, 'loadedTime': 4059.5999999940395, 'positionName': 'LEFT', 'positionCoords': [327.28, 227], 'bid': 5.2700000000000005}, {'imgObject': {}, 'id': 'rigatoni and sauce', 'src': '/static/foodstim60/rigatoni and sauce.jpg', 'key': 'i', 'origWidth': 410, 'origHeight': 411, 'width': 410, 'height': 411, 'widthPercent': 0.45, 'rescaleHeight': False, 'trialN': 69, 'loaded': True, 'loadedTime': 4071.800000011921, 'positionName': 'RIGHT', 'positionCoords': [798.72, 226.5], 'bid': 5.8}]",120760.40000000596,1669831483635,burrito,rigatoni and sauce,5.2700000000000005,5.8,0.5299999999999994,rigatoni and sauce,1083.0999999940395,1084,1083.800000011921,True,i,122357.0,1596.5999999940395,1669831485232,1597,HRV,HRV_0156,2022-11-30 18:08:01
70,"[{'imgObject': {}, 'id': 'seaweed', 'src': '/static/foodstim60/seaweed.jpg', 'key': 'u', 'origWidth': 410, 'origHeight': 410, 'width': 410, 'height': 410, 'widthPercent': 0.45, 'rescaleHeight': False, 'trialN': 70, 'loaded': True, 'loadedTime': 4055.0999999940395, 'positionName': 'LEFT', 'positionCoords': [327.28, 227], 'bid': 8.94}, {'imgObject': {}, 'id': 'turkeysandwich', 'src': '/static/foodstim60/turkeysandwich.jpg', 'key': 'i', 'origWidth': 409, 'origHeight': 409, 'width': 409, 'height': 409, 'widthPercent': 0.45, 'rescaleHeight': False, 'trialN': 70, 'loaded': True, 'loadedTime': 4073.2000000178814, 'positionName': 'RIGHT', 'positionCoords': [798.72, 227.5], 'bid': 9.03}]",122357.20000001788,1669831485232,seaweed,turkeysandwich,8.94,9.03,0.08999999999999986,turkeysandwich,2335.5,2336,2336.0999999940395,True,i,125215.09999999404,2857.899999976158,1669831488090,2858,HRV,HRV_0156,2022-11-30 18:08:01
71,"[{'imgObject': {}, 'id': 'cheerios', 'src': '/static/foodstim60/cheerios.jpg', 'key': 'u', 'origWidth': 409, 'origHeight': 410, 'width': 409, 'height': 410, 'widthPercent': 0.45, 'rescaleHeight': False, 'trialN': 71, 'loaded': True, 'loadedTime': 3873.0999999940395, 'positionName': 'LEFT', 'positionCoords': [328.28, 227], 'bid': 5.8500000000000005}, {'imgObject': {}, 'id': 'veggieswithdip', 'src': '/static/foodstim60/veggieswithdip.jpg', 'key': 'i', 'origWidth': 409, 'origHeight': 409, 'width': 409, 'height': 409, 'widthPercent': 0.45, 'rescaleHeight': False, 'trialN': 71, 'loaded': True, 'loadedTime': 3867.9000000059605, 'positionName': 'RIGHT', 'positionCoords': [798.72, 227.5], 'bid': 9.21}]",125215.40000000596,1669831488090,cheerios,veggieswithdip,5.8500000000000005,9.21,3.3600000000000003,veggieswithdip,866.9000000059605,870,869.6999999880791,True,i,126595.40000000596,1380.0,1669831489470,1380,HRV,HRV_0156,2022-11-30 18:08:01
72,"[{'imgObject': {}, 'id': 'turkeysandwich', 'src': '/static/foodstim60/turkeysandwich.jpg', 'key': 'u', 'origWidth': 409, 'origHeight': 409, 'width': 409, 'height': 409, 'widthPercent': 0.45, 'rescaleHeight': False, 'trialN': 72, 'loaded': True, 'loadedTime': 4073.0999999940395, 'positionName': 'LEFT', 'positionCoords': [328.28, 227.5], 'bid': 9.03}, {'imgObject': {}, 'id': 'burger', 'src': '/static/foodstim60/burger.jpg', 'key': 'i', 'origWidth': 409, 'origHeight': 409, 'width': 409, 'height': 409, 'widthPercent': 0.45, 'rescaleHeight': False, 'trialN': 72, 'loaded': True, 'loadedTime': 3877.2000000178814, 'positionName': 'RIGHT', 'positionCoords': [798.72, 227.5], 'bid': 9.02}]",126595.59999999404,1669831489470,turkeysandwich,burger,9.03,9.02,-0.009999999999999787,turkeysandwich,917.6000000238419,918,918.1000000238419,True,u,128018.0,1422.4000000059605,1669831490893,1423,HRV,HRV_0156,2022-11-30 18:08:01
73,"[{'imgObject': {}, 'id': 'ice cream sundae 002', 'src': '/static/foodstim60/ice cream sundae 002.jpg', 'key': 'u', 'origWidth': 409, 'origHeight': 409, 'width': 409, 'height': 409, 'widthPercent': 0.45, 'rescaleHeight': False, 'trialN': 73, 'loaded': True, 'loadedTime': 3987.300000011921, 'positionName': 'LEFT', 'positionCoords': [328.28, 227.5], 'bid': 2.69}, {'imgObject': {}, 'id': 'eggs', 'src': '/static/foodstim60/eggs.jpg', 'key': 'i', 'origWidth': 409, 'origHeight': 409, 'width': 409, 'height': 409, 'widthPercent': 0.45, 'rescaleHeight': False, 'trialN': 73, 'loaded': True, 'loadedTime': 3887, 'positionName': 'RIGHT', 'positionCoords': [798.72, 227.5], 'bid': 7.86}]",128018.30000001192,1669831490893,ice cream sundae 002,eggs,2.69,7.86,5.17,eggs,936.1999999880791,937,936.7999999821186,True,i,129467.70000001788,1449.4000000059605,1669831492342,1449,HRV,HRV_0156,2022-11-30 18:08:01
74,"[{'imgObject': {}, 'id': 'olives', 'src': '/static/foodstim60/olives.jpg', 'key': 'u', 'origWidth': 410, 'origHeight': 410, 'width': 410, 'height': 410, 'widthPercent': 0.45, 'rescaleHeight': False, 'trialN': 74, 'loaded': True, 'loadedTime': 3871.5, 'positionName': 'LEFT', 'positionCoords': [327.28, 227], 'bid': 9.23}, {'imgObject': {}, 'id': 'avocado', 'src': '/static/foodstim60/avocado.jpg', 'key': 'i', 'origWidth': 409, 'origHeight': 409, 'width': 409, 'height': 409, 'widthPercent': 0.45, 'rescaleHeight': False, 'trialN': 74, 'loaded': True, 'loadedTime': 4002.9000000059605, 'positionName': 'RIGHT', 'positionCoords': [798.72, 227.5], 'bid': 8.51}]",129468.0,1669831492343,olives,avocado,9.23,8.51,-0.7200000000000006,olives,1025.5999999940395,1026,1026.300000011921,True,u,131015.59999999404,1547.5999999940395,1669831493890,1547,HRV,HRV_0156,2022-11-30 18:08:01
75,"[{'imgObject': {}, 'id': 'bagel plain', 'src': '/static/foodstim60/bagel plain.jpg', 'key': 'u', 'origWidth': 410, 'origHeight': 410, 'width': 410, 'height': 410, 'widthPercent': 0.45, 'rescaleHeight': False, 'trialN': 75, 'loaded': True, 'loadedTime': 4029.0999999940395, 'positionName': 'LEFT', 'positionCoords': [327.28, 227], 'bid': 5}, {'imgObject': {}, 'id': 'pear', 'src': '/static/foodstim60/pear.jpg', 'key': 'i', 'origWidth': 411, 'origHeight': 410, 'width': 411, 'height': 410, 'widthPercent': 0.45, 'rescaleHeight': False, 'trialN': 75, 'loaded': True, 'loadedTime': 3851, 'positionName': 'RIGHT', 'positionCoords': [798.72, 227], 'bid': 6.0200000000000005}]",131015.90000000596,1669831493891,bagel plain,pear,5.0,6.0200000000000005,1.0200000000000005,bagel plain,1351.4000000059605,1353,1353.800000011921,True,u,132887.09999999404,1871.199999988079,1669831495762,1871,HRV,HRV_0156,2022-11-30 18:08:01
76,"[{'imgObject': {}, 'id': 'blackbeanswithrice', 'src': '/static/foodstim60/blackbeanswithrice.jpg', 'key': 'u', 'origWidth': 410, 'origHeight': 410, 'width': 410, 'height': 410, 'widthPercent': 0.45, 'rescaleHeight': False, 'trialN': 76, 'loaded': True, 'loadedTime': 3857.5999999940395, 'positionName': 'LEFT', 'positionCoords': [327.28, 227], 'bid': 5}, {'imgObject': {}, 'id': 'roastedpotatoes', 'src': '/static/foodstim60/roastedpotatoes.jpg', 'key': 'i', 'origWidth': 409, 'origHeight': 410, 'width': 409, 'height': 410, 'widthPercent': 0.45, 'rescaleHeight': False, 'trialN': 76, 'loaded': True, 'loadedTime': 4074, 'positionName': 'RIGHT', 'positionCoords': [798.72, 227], 'bid': 8.47}]",132887.30000001192,1669831495762,blackbeanswithrice,roastedpotatoes,5.0,8.47,3.4700000000000006,roastedpotatoes,1392.0999999940395,1393,1392.9000000059605,True,i,134791.0,1903.699999988079,1669831497666,1904,HRV,HRV_0156,2022-11-30 18:08:01
77,"[{'imgObject': {}, 'id': 'grilled chicken strips', 'src': '/static/foodstim60/grilled chicken strips.jpg', 'key': 'u', 'origWidth': 410, 'origHeight': 411, 'width': 410, 'height': 411, 'widthPercent': 0.45, 'rescaleHeight': False, 'trialN': 77, 'loaded': True, 'loadedTime': 4075.0999999940395, 'positionName': 'LEFT', 'positionCoords': [327.28, 226.5], 'bid': 8.82}, {'imgObject': {}, 'id': 'eggs', 'src': '/static/foodstim60/eggs.jpg', 'key': 'i', 'origWidth': 409, 'origHeight': 409, 'width': 409, 'height': 409, 'widthPercent': 0.45, 'rescaleHeight': False, 'trialN': 77, 'loaded': True, 'loadedTime': 3887.7000000178814, 'positionName': 'RIGHT', 'positionCoords': [798.72, 227.5], 'bid': 7.86}]",134791.20000001788,1669831497666,grilled chicken strips,eggs,8.82,7.86,-0.96,grilled chicken strips,894.5,895,895.0999999940395,True,u,136207.70000001788,1416.5,1669831499082,1416,HRV,HRV_0156,2022-11-30 18:08:01
78,"[{'imgObject': {}, 'id': 'chicken nuggets2', 'src': '/static/foodstim60/chicken nuggets2.jpg', 'key': 'u', 'origWidth': 410, 'origHeight': 409, 'width': 410, 'height': 409, 'widthPercent': 0.45, 'rescaleHeight': False, 'trialN': 78, 'loaded': True, 'loadedTime': 3879.2000000178814, 'positionName': 'LEFT', 'positionCoords': [327.28, 227.5], 'bid': 5.75}, {'imgObject': {}, 'id': 'turkeysandwich', 'src': '/static/foodstim60/turkeysandwich.jpg', 'key': 'i', 'origWidth': 409, 'origHeight': 409, 'width': 409, 'height': 409, 'widthPercent': 0.45, 'rescaleHeight': False, 'trialN': 78, 'loaded': True, 'loadedTime': 4072.0999999940395, 'positionName': 'RIGHT', 'positionCoords': [798.72, 227.5], 'bid': 9.03}]",136207.90000000596,1669831499083,chicken nuggets2,turkeysandwich,5.75,9.03,3.2799999999999994,turkeysandwich,921.9000000059605,922,922.5,True,i,137636.09999999404,1428.199999988079,1669831500511,1428,HRV,HRV_0156,2022-11-30 18:08:01
79,"[{'imgObject': {}, 'id': 'bagel plain', 'src': '/static/foodstim60/bagel plain.jpg', 'key': 'u', 'origWidth': 410, 'origHeight': 410, 'width': 410, 'height': 410, 'widthPercent': 0.45, 'rescaleHeight': False, 'trialN': 79, 'loaded': True, 'loadedTime': 4028.0999999940395, 'positionName': 'LEFT', 'positionCoords': [327.28, 227], 'bid': 5}, {'imgObject': {}, 'id': 'Tribe humus pita', 'src': '/static/foodstim60/Tribe humus pita.jpg', 'key': 'i', 'origWidth': 411, 'origHeight': 411, 'width': 411, 'height': 411, 'widthPercent': 0.45, 'rescaleHeight': False, 'trialN': 79, 'loaded': True, 'loadedTime': 3881.9000000059605, 'positionName': 'RIGHT', 'positionCoords': [798.72, 226.5], 'bid': 8.09}]",137636.20000001788,1669831500511,bagel plain,Tribe humus pita,5.0,8.09,3.09,Tribe humus pita,988.1999999880791,989,988.5999999940395,True,i,139132.80000001192,1496.5999999940395,1669831502007,1496,HRV,HRV_0156,2022-11-30 18:08:01
80,"[{'imgObject': {}, 'id': 'steak', 'src': '/static/foodstim60/steak.jpg', 'key': 'u', 'origWidth': 410, 'origHeight': 410, 'width': 410, 'height': 410, 'widthPercent': 0.45, 'rescaleHeight': False, 'trialN': 80, 'loaded': True, 'loadedTime': 3951, 'positionName': 'LEFT', 'positionCoords': [327.28, 227], 'bid': 6.04}, {'imgObject': {}, 'id': 'Grapes', 'src': '/static/foodstim60/Grapes.jpg', 'key': 'i', 'origWidth': 411, 'origHeight': 411, 'width': 411, 'height': 411, 'widthPercent': 0.45, 'rescaleHeight': False, 'trialN': 80, 'loaded': True, 'loadedTime': 4014, 'positionName': 'RIGHT', 'positionCoords': [798.72, 226.5], 'bid': 5.93}]",139132.90000000596,1669831502008,steak,Grapes,6.04,5.93,-0.11000000000000032,Grapes,1128.5999999940395,1129,1129.0,True,i,140778.80000001192,1645.9000000059605,1669831503654,1646,HRV,HRV_0156,2022-11-30 18:08:01
81,"[{'imgObject': {}, 'id': 'hotdog w must', 'src': '/static/foodstim60/hotdog w must.jpg', 'key': 'u', 'origWidth': 409, 'origHeight': 409, 'width': 409, 'height': 409, 'widthPercent': 0.45, 'rescaleHeight': False, 'trialN': 81, 'loaded': True, 'loadedTime': 4000.4000000059605, 'positionName': 'LEFT', 'positionCoords': [328.28, 227.5], 'bid': 7.53}, {'imgObject': {}, 'id': 'Grapes', 'src': '/static/foodstim60/Grapes.jpg', 'key': 'i', 'origWidth': 411, 'origHeight': 411, 'width': 411, 'height': 411, 'widthPercent': 0.45, 'rescaleHeight': False, 'trialN': 81, 'loaded': True, 'loadedTime': 4014.2000000178814, 'positionName': 'RIGHT', 'positionCoords': [798.72, 226.5], 'bid': 5.93}]",140779.0,1669831503654,hotdog w must,Grapes,7.53,5.93,-1.6000000000000005,hotdog w must,767.3000000119209,768,768.0,True,u,142055.30000001192,1276.300000011921,1669831504930,1276,HRV,HRV_0156,2022-11-30 18:08:01
82,"[{'imgObject': {}, 'id': 'sweetpotato', 'src': '/static/foodstim60/sweetpotato.jpg', 'key': 'u', 'origWidth': 410, 'origHeight': 410, 'width': 410, 'height': 410, 'widthPercent': 0.45, 'rescaleHeight': False, 'trialN': 82, 'loaded': True, 'loadedTime': 3968.9000000059605, 'positionName': 'LEFT', 'positionCoords': [327.28, 227], 'bid': 7.16}, {'imgObject': {}, 'id': 'eggsalad', 'src': '/static/foodstim60/eggsalad.jpg', 'key': 'i', 'origWidth': 410, 'origHeight': 409, 'width': 410, 'height': 409, 'widthPercent': 0.45, 'rescaleHeight': False, 'trialN': 82, 'loaded': True, 'loadedTime': 3953.0999999940395, 'positionName': 'RIGHT', 'positionCoords': [798.72, 227.5], 'bid': 7.18}]",142055.40000000596,1669831504930,sweetpotato,eggsalad,7.16,7.18,0.019999999999999574,eggsalad,1046.0,1047,1046.4000000059605,True,i,143619.0,1563.5999999940395,1669831506494,1564,HRV,HRV_0156,2022-11-30 18:08:01
83,"[{'imgObject': {}, 'id': 'sweetpotato', 'src': '/static/foodstim60/sweetpotato.jpg', 'key': 'u', 'origWidth': 410, 'origHeight': 410, 'width': 410, 'height': 410, 'widthPercent': 0.45, 'rescaleHeight': False, 'trialN': 83, 'loaded': True, 'loadedTime': 3968, 'positionName': 'LEFT', 'positionCoords': [327.28, 227], 'bid': 7.16}, {'imgObject': {}, 'id': 'yogurt no spoon', 'src': '/static/foodstim60/yogurt no spoon.jpg', 'key': 'i', 'origWidth': 411, 'origHeight': 410, 'width': 411, 'height': 410, 'widthPercent': 0.45, 'rescaleHeight': False, 'trialN': 83, 'loaded': True, 'loadedTime': 3885.800000011921, 'positionName': 'RIGHT', 'positionCoords': [798.72, 227], 'bid': 6.51}]",143619.30000001192,1669831506494,sweetpotato,yogurt no spoon,7.16,6.51,-0.6500000000000004,yogurt no spoon,892.0,892,892.4000000059605,True,i,145025.5,1406.199999988079,1669831507900,1406,HRV,HRV_0156,2022-11-30 18:08:01
84,"[{'imgObject': {}, 'id': 'cherries', 'src': '/static/foodstim60/cherries.jpg', 'key': 'u', 'origWidth': 410, 'origHeight': 411, 'width': 410, 'height': 411, 'widthPercent': 0.45, 'rescaleHeight': False, 'trialN': 84, 'loaded': True, 'loadedTime': 3884.0999999940395, 'positionName': 'LEFT', 'positionCoords': [327.28, 226.5], 'bid': 9.83}, {'imgObject': {}, 'id': 'tacos', 'src': '/static/foodstim60/tacos.jpg', 'key': 'i', 'origWidth': 411, 'origHeight': 411, 'width': 411, 'height': 411, 'widthPercent': 0.45, 'rescaleHeight': False, 'trialN': 84, 'loaded': True, 'loadedTime': 4016.0999999940395, 'positionName': 'RIGHT', 'positionCoords': [798.72, 226.5], 'bid': 9.94}]",145025.80000001192,1669831507900,cherries,tacos,9.83,9.94,0.10999999999999943,tacos,1751.199999988079,1752,1751.699999988079,True,i,147295.70000001788,2269.9000000059605,1669831510170,2270,HRV,HRV_0156,2022-11-30 18:08:01
85,"[{'imgObject': {}, 'id': 'hashbrowns', 'src': '/static/foodstim60/hashbrowns.jpg', 'key': 'u', 'origWidth': 411, 'origHeight': 410, 'width': 411, 'height': 410, 'widthPercent': 0.45, 'rescaleHeight': False, 'trialN': 85, 'loaded': True, 'loadedTime': 4061.7000000178814, 'positionName': 'LEFT', 'positionCoords': [326.28, 227], 'bid': 7.23}, {'imgObject': {}, 'id': 'hotdog w must', 'src': '/static/foodstim60/hotdog w must.jpg', 'key': 'i', 'origWidth': 409, 'origHeight': 409, 'width': 409, 'height': 409, 'widthPercent': 0.45, 'rescaleHeight': False, 'trialN': 85, 'loaded': True, 'loadedTime': 4000.5999999940395, 'positionName': 'RIGHT', 'positionCoords': [798.72, 227.5], 'bid': 7.53}]",147295.90000000596,1669831510171,hashbrowns,hotdog w must,7.23,7.53,0.2999999999999998,hotdog w must,897.1999999880791,897,897.8000000119209,True,i,148700.70000001788,1404.800000011921,1669831511575,1404,HRV,HRV_0156,2022-11-30 18:08:01
86,"[{'imgObject': {}, 'id': 'strawberries', 'src': '/static/foodstim60/strawberries.jpg', 'key': 'u', 'origWidth': 410, 'origHeight': 410, 'width': 410, 'height': 410, 'widthPercent': 0.45, 'rescaleHeight': False, 'trialN': 86, 'loaded': True, 'loadedTime': 4041.2000000178814, 'positionName': 'LEFT', 'positionCoords': [327.28, 227], 'bid': 9.06}, {'imgObject': {}, 'id': 'chickenfingers', 'src': '/static/foodstim60/chickenfingers.jpg', 'key': 'i', 'origWidth': 410, 'origHeight': 410, 'width': 410, 'height': 410, 'widthPercent': 0.45, 'rescaleHeight': False, 'trialN': 86, 'loaded': True, 'loadedTime': 4076.800000011921, 'positionName': 'RIGHT', 'positionCoords': [798.72, 227], 'bid': 9.53}]",148700.90000000596,1669831511576,strawberries,chickenfingers,9.06,9.53,0.46999999999999886,strawberries,920.9000000059605,921,921.5,True,u,150132.30000001192,1431.4000000059605,1669831513007,1431,HRV,HRV_0156,2022-11-30 18:08:01
87,"[{'imgObject': {}, 'id': 'hashbrowns', 'src': '/static/foodstim60/hashbrowns.jpg', 'key': 'u', 'origWidth': 411, 'origHeight': 410, 'width': 411, 'height': 410, 'widthPercent': 0.45, 'rescaleHeight': False, 'trialN': 87, 'loaded': True, 'loadedTime': 4070.2000000178814, 'positionName': 'LEFT', 'positionCoords': [326.28, 227], 'bid': 7.23}, {'imgObject': {}, 'id': 'turkeysandwich', 'src': '/static/foodstim60/turkeysandwich.jpg', 'key': 'i', 'origWidth': 409, 'origHeight': 409, 'width': 409, 'height': 409, 'widthPercent': 0.45, 'rescaleHeight': False, 'trialN': 87, 'loaded': True, 'loadedTime': 4073.2000000178814, 'positionName': 'RIGHT', 'positionCoords': [798.72, 227.5], 'bid': 9.03}]",150132.59999999404,1669831513007,hashbrowns,turkeysandwich,7.23,9.03,1.799999999999999,turkeysandwich,819.5,820,820.1000000238419,True,i,151458.30000001192,1325.7000000178814,1669831514333,1326,HRV,HRV_0156,2022-11-30 18:08:01
88,"[{'imgObject': {}, 'id': 'strawberries', 'src': '/static/foodstim60/strawberries.jpg', 'key': 'u', 'origWidth': 410, 'origHeight': 410, 'width': 410, 'height': 410, 'widthPercent': 0.45, 'rescaleHeight': False, 'trialN': 88, 'loaded': True, 'loadedTime': 4032.5, 'positionName': 'LEFT', 'positionCoords': [327.28, 227], 'bid': 9.06}, {'imgObject': {}, 'id': 'granola w milk', 'src': '/static/foodstim60/granola w milk.jpg', 'key': 'i', 'origWidth': 410, 'origHeight': 410, 'width': 410, 'height': 410, 'widthPercent': 0.45, 'rescaleHeight': False, 'trialN': 88, 'loaded': True, 'loadedTime': 4077.7000000178814, 'positionName': 'RIGHT', 'positionCoords': [798.72, 227], 'bid': 5.78}]",151458.59999999404,1669831514333,strawberries,granola w milk,9.06,5.78,-3.2800000000000002,strawberries,811.9000000059605,813,812.2000000178814,True,u,152788.70000001788,1330.1000000238419,1669831515663,1330,HRV,HRV_0156,2022-11-30 18:08:01
89,"[{'imgObject': {}, 'id': 'rigatoni', 'src': '/static/foodstim60/rigatoni.jpg', 'key': 'u', 'origWidth': 411, 'origHeight': 411, 'width': 411, 'height': 411, 'widthPercent': 0.45, 'rescaleHeight': False, 'trialN': 89, 'loaded': True, 'loadedTime': 3922.4000000059605, 'positionName': 'LEFT', 'positionCoords': [326.28, 226.5], 'bid': 1.15}, {'imgObject': {}, 'id': 'mashed potato', 'src': '/static/foodstim60/mashed potato.jpg', 'key': 'i', 'origWidth': 409, 'origHeight': 409, 'width': 409, 'height': 409, 'widthPercent': 0.45, 'rescaleHeight': False, 'trialN': 89, 'loaded': True, 'loadedTime': 4056.7000000178814, 'positionName': 'RIGHT', 'positionCoords': [798.72, 227.5], 'bid': 7.33}]",152789.0,1669831515664,rigatoni,mashed potato,1.15,7.33,6.18,mashed potato,952.9000000059605,953,953.4000000059605,True,i,154255.0,1466.0,1669831517130,1466,HRV,HRV_0156,2022-11-30 18:08:01
90,"[{'imgObject': {}, 'id': 'salad w chicken', 'src': '/static/foodstim60/salad w chicken.jpg', 'key': 'u', 'origWidth': 411, 'origHeight': 411, 'width': 411, 'height': 411, 'widthPercent': 0.45, 'rescaleHeight': False, 'trialN': 90, 'loaded': True, 'loadedTime': 3901.0999999940395, 'positionName': 'LEFT', 'positionCoords': [326.28, 226.5], 'bid': 9.68}, {'imgObject': {}, 'id': 'cherries', 'src': '/static/foodstim60/cherries.jpg', 'key': 'i', 'origWidth': 410, 'origHeight': 411, 'width': 410, 'height': 411, 'widthPercent': 0.45, 'rescaleHeight': False, 'trialN': 90, 'loaded': True, 'loadedTime': 3883.9000000059605, 'positionName': 'RIGHT', 'positionCoords': [798.72, 226.5], 'bid': 9.83}]",163303.09999999404,1669831526178,salad w chicken,cherries,9.68,9.83,0.15000000000000036,salad w chicken,1072.5,1073,1072.9000000059605,True,u,164886.0,1582.9000000059605,1669831527761,1583,HRV,HRV_0156,2022-11-30 18:08:01
91,"[{'imgObject': {}, 'id': 'roastedpotatoes', 'src': '/static/foodstim60/roastedpotatoes.jpg', 'key': 'u', 'origWidth': 409, 'origHeight': 410, 'width': 409, 'height': 410, 'widthPercent': 0.45, 'rescaleHeight': False, 'trialN': 91, 'loaded': True, 'loadedTime': 4073.2000000178814, 'positionName': 'LEFT', 'positionCoords': [328.28, 227], 'bid': 8.47}, {'imgObject': {}, 'id': 'grilled chicken strips', 'src': '/static/foodstim60/grilled chicken strips.jpg', 'key': 'i', 'origWidth': 410, 'origHeight': 411, 'width': 410, 'height': 411, 'widthPercent': 0.45, 'rescaleHeight': False, 'trialN': 91, 'loaded': True, 'loadedTime': 4075.2000000178814, 'positionName': 'RIGHT', 'positionCoords': [798.72, 226.5], 'bid': 8.82}]",164886.09999999404,1669831527761,roastedpotatoes,grilled chicken strips,8.47,8.82,0.34999999999999964,grilled chicken strips,1807.1000000238419,1808,1807.7000000178814,True,i,167213.59999999404,2327.5,1669831530088,2327,HRV,HRV_0156,2022-11-30 18:08:01
92,"[{'imgObject': {}, 'id': 'raspberries', 'src': '/static/foodstim60/raspberries.jpg', 'key': 'u', 'origWidth': 411, 'origHeight': 411, 'width': 411, 'height': 411, 'widthPercent': 0.45, 'rescaleHeight': False, 'trialN': 92, 'loaded': True, 'loadedTime': 4044.7000000178814, 'positionName': 'LEFT', 'positionCoords': [326.28, 226.5], 'bid': 9.53}, {'imgObject': {}, 'id': 'pear', 'src': '/static/foodstim60/pear.jpg', 'key': 'i', 'origWidth': 411, 'origHeight': 410, 'width': 411, 'height': 410, 'widthPercent': 0.45, 'rescaleHeight': False, 'trialN': 92, 'loaded': True, 'loadedTime': 3852.5, 'positionName': 'RIGHT', 'positionCoords': [798.72, 227], 'bid': 6.0200000000000005}]",167213.80000001192,1669831530089,raspberries,pear,9.53,6.0200000000000005,-3.509999999999999,raspberries,732.4000000059605,733,733.0,True,u,168459.80000001192,1246.0,1669831531335,1246,HRV,HRV_0156,2022-11-30 18:08:01
93,"[{'imgObject': {}, 'id': 'salad w chicken', 'src': '/static/foodstim60/salad w chicken.jpg', 'key': 'u', 'origWidth': 411, 'origHeight': 411, 'width': 411, 'height': 411, 'widthPercent': 0.45, 'rescaleHeight': False, 'trialN': 93, 'loaded': True, 'loadedTime': 3899.5, 'positionName': 'LEFT', 'positionCoords': [326.28, 226.5], 'bid': 9.68}, {'imgObject': {}, 'id': 'roastedpotatoes', 'src': '/static/foodstim60/roastedpotatoes.jpg', 'key': 'i', 'origWidth': 409, 'origHeight': 410, 'width': 409, 'height': 410, 'widthPercent': 0.45, 'rescaleHeight': False, 'trialN': 93, 'loaded': True, 'loadedTime': 4074.0999999940395, 'positionName': 'RIGHT', 'positionCoords': [798.72, 227], 'bid': 8.47}]",168460.0,1669831531335,salad w chicken,roastedpotatoes,9.68,8.47,-1.209999999999999,salad w chicken,560.3000000119209,561,560.8000000119209,True,u,169521.70000001788,1061.7000000178814,1669831532396,1061,HRV,HRV_0156,2022-11-30 18:08:01
94,"[{'imgObject': {}, 'id': 'cocktailshrimp', 'src': '/static/foodstim60/cocktailshrimp.jpg', 'key': 'u', 'origWidth': 410, 'origHeight': 410, 'width': 410, 'height': 410, 'widthPercent': 0.45, 'rescaleHeight': False, 'trialN': 94, 'loaded': True, 'loadedTime': 3863.5999999940395, 'positionName': 'LEFT', 'positionCoords': [327.28, 227], 'bid': 9.37}, {'imgObject': {}, 'id': 'grilled chicken strips', 'src': '/static/foodstim60/grilled chicken strips.jpg', 'key': 'i', 'origWidth': 410, 'origHeight': 411, 'width': 410, 'height': 411, 'widthPercent': 0.45, 'rescaleHeight': False, 'trialN': 94, 'loaded': True, 'loadedTime': 4075.300000011921, 'positionName': 'RIGHT', 'positionCoords': [798.72, 226.5], 'bid': 8.82}]",169521.80000001192,1669831532397,cocktailshrimp,grilled chicken strips,9.37,8.82,-0.5499999999999989,cocktailshrimp,639.6999999880791,640,640.5,True,u,170679.59999999404,1157.7999999821186,1669831533554,1157,HRV,HRV_0156,2022-11-30 18:08:01
95,"[{'imgObject': {}, 'id': 'eggsalad', 'src': '/static/foodstim60/eggsalad.jpg', 'key': 'u', 'origWidth': 410, 'origHeight': 409, 'width': 410, 'height': 409, 'widthPercent': 0.45, 'rescaleHeight': False, 'trialN': 95, 'loaded': True, 'loadedTime': 3951.800000011921, 'positionName': 'LEFT', 'positionCoords': [327.28, 227.5], 'bid': 7.18}, {'imgObject': {}, 'id': 'pear', 'src': '/static/foodstim60/pear.jpg', 'key': 'i', 'origWidth': 411, 'origHeight': 410, 'width': 411, 'height': 410, 'widthPercent': 0.45, 'rescaleHeight': False, 'trialN': 95, 'loaded': True, 'loadedTime': 3853.4000000059605, 'positionName': 'RIGHT', 'positionCoords': [798.72, 227], 'bid': 6.0200000000000005}]",170679.90000000596,1669831533555,eggsalad,pear,7.18,6.0200000000000005,-1.1599999999999993,eggsalad,860.5999999940395,861,861.0,True,u,172056.80000001192,1376.9000000059605,1669831534932,1377,HRV,HRV_0156,2022-11-30 18:08:01
96,"[{'imgObject': {}, 'id': 'avocado', 'src': '/static/foodstim60/avocado.jpg', 'key': 'u', 'origWidth': 409, 'origHeight': 409, 'width': 409, 'height': 409, 'widthPercent': 0.45, 'rescaleHeight': False, 'trialN': 96, 'loaded': True, 'loadedTime': 4003, 'positionName': 'LEFT', 'positionCoords': [328.28, 227.5], 'bid': 8.51}, {'imgObject': {}, 'id': 'grilled chicken strips', 'src': '/static/foodstim60/grilled chicken strips.jpg', 'key': 'i', 'origWidth': 410, 'origHeight': 411, 'width': 410, 'height': 411, 'widthPercent': 0.45, 'rescaleHeight': False, 'trialN': 96, 'loaded': True, 'loadedTime': 4074.300000011921, 'positionName': 'RIGHT', 'positionCoords': [798.72, 226.5], 'bid': 8.82}]",172056.90000000596,1669831534932,avocado,grilled chicken strips,8.51,8.82,0.3100000000000005,avocado,783.3000000119209,784,783.8000000119209,True,u,173350.5,1293.5999999940395,1669831536225,1293,HRV,HRV_0156,2022-11-30 18:08:01
97,"[{'imgObject': {}, 'id': 'burrito', 'src': '/static/foodstim60/burrito.jpg', 'key': 'u', 'origWidth': 410, 'origHeight': 410, 'width': 410, 'height': 410, 'widthPercent': 0.45, 'rescaleHeight': False, 'trialN': 97, 'loaded': True, 'loadedTime': 4059.0999999940395, 'positionName': 'LEFT', 'positionCoords': [327.28, 227], 'bid': 5.2700000000000005}, {'imgObject': {}, 'id': 'yogurt no spoon', 'src': '/static/foodstim60/yogurt no spoon.jpg', 'key': 'i', 'origWidth': 411, 'origHeight': 410, 'width': 411, 'height': 410, 'widthPercent': 0.45, 'rescaleHeight': False, 'trialN': 97, 'loaded': True, 'loadedTime': 3885.5, 'positionName': 'RIGHT', 'positionCoords': [798.72, 227], 'bid': 6.51}]",173350.70000001788,1669831536226,burrito,yogurt no spoon,5.2700000000000005,6.51,1.2399999999999993,yogurt no spoon,829.5999999940395,830,830.0999999940395,True,i,174682.0,1331.2999999821186,1669831537557,1331,HRV,HRV_0156,2022-11-30 18:08:01
98,"[{'imgObject': {}, 'id': 'grilled chicken strips', 'src': '/static/foodstim60/grilled chicken strips.jpg', 'key': 'u', 'origWidth': 410, 'origHeight': 411, 'width': 410, 'height': 411, 'widthPercent': 0.45, 'rescaleHeight': False, 'trialN': 98, 'loaded': True, 'loadedTime': 4075.4000000059605, 'positionName': 'LEFT', 'positionCoords': [327.28, 226.5], 'bid': 8.82}, {'imgObject': {}, 'id': 'cherries', 'src': '/static/foodstim60/cherries.jpg', 'key': 'i', 'origWidth': 410, 'origHeight': 411, 'width': 410, 'height': 411, 'widthPercent': 0.45, 'rescaleHeight': False, 'trialN': 98, 'loaded': True, 'loadedTime': 3882.0999999940395, 'positionName': 'RIGHT', 'positionCoords': [798.72, 226.5], 'bid': 9.83}]",174682.20000001788,1669831537557,grilled chicken strips,cherries,8.82,9.83,1.0099999999999998,cherries,689.2999999821186,690,689.6999999880791,True,i,175882.70000001788,1200.5,1669831538758,1201,HRV,HRV_0156,2022-11-30 18:08:01
99,"[{'imgObject': {}, 'id': 'salad w chicken', 'src': '/static/foodstim60/salad w chicken.jpg', 'key': 'u', 'origWidth': 411, 'origHeight': 411, 'width': 411, 'height': 411, 'widthPercent': 0.45, 'rescaleHeight': False, 'trialN': 99, 'loaded': True, 'loadedTime': 3901.0999999940395, 'positionName': 'LEFT', 'positionCoords': [326.28, 226.5], 'bid': 9.68}, {'imgObject': {}, 'id': 'burger', 'src': '/static/foodstim60/burger.jpg', 'key': 'i', 'origWidth': 409, 'origHeight': 409, 'width': 409, 'height': 409, 'widthPercent': 0.45, 'rescaleHeight': False, 'trialN': 99, 'loaded': True, 'loadedTime': 3877.4000000059605, 'positionName': 'RIGHT', 'positionCoords': [798.72, 227.5], 'bid': 9.02}]",175882.80000001192,1669831538758,salad w chicken,burger,9.68,9.02,-0.6600000000000001,salad w chicken,563.5,564,564.0999999940395,True,u,176960.20000001788,1077.4000000059605,1669831539835,1077,HRV,HRV_0156,2022-11-30 18:08:01
100,"[{'imgObject': {}, 'id': 'strawberries', 'src': '/static/foodstim60/strawberries.jpg', 'key': 'u', 'origWidth': 410, 'origHeight': 410, 'width': 410, 'height': 410, 'widthPercent': 0.45, 'rescaleHeight': False, 'trialN': 100, 'loaded': True, 'loadedTime': 4041.5999999940395, 'positionName': 'LEFT', 'positionCoords': [327.28, 227], 'bid': 9.06}, {'imgObject': {}, 'id': 'blueberries', 'src': '/static/foodstim60/blueberries.jpg', 'key': 'i', 'origWidth': 411, 'origHeight': 411, 'width': 411, 'height': 411, 'widthPercent': 0.45, 'rescaleHeight': False, 'trialN': 100, 'loaded': True, 'loadedTime': 3869.0999999940395, 'positionName': 'RIGHT', 'positionCoords': [798.72, 226.5], 'bid': 9.06}]",176960.40000000596,1669831539835,strawberries,blueberries,9.06,9.06,0.0,strawberries,1193.5999999940395,1194,1194.199999988079,True,u,178671.90000000596,1711.5,1669831541547,1712,HRV,HRV_0156,2022-11-30 18:08:01
101,"[{'imgObject': {}, 'id': 'fried eggs', 'src': '/static/foodstim60/fried eggs.jpg', 'key': 'u', 'origWidth': 410, 'origHeight': 410, 'width': 410, 'height': 410, 'widthPercent': 0.45, 'rescaleHeight': False, 'trialN': 101, 'loaded': True, 'loadedTime': 3990.300000011921, 'positionName': 'LEFT', 'positionCoords': [327.28, 227], 'bid': 7.55}, {'imgObject': {}, 'id': 'bagel and cc', 'src': '/static/foodstim60/bagel and cc.jpg', 'key': 'i', 'origWidth': 410, 'origHeight': 410, 'width': 410, 'height': 410, 'widthPercent': 0.45, 'rescaleHeight': False, 'trialN': 101, 'loaded': True, 'loadedTime': 3893.5, 'positionName': 'RIGHT', 'positionCoords': [798.72, 227], 'bid': 9.15}]",178672.09999999404,1669831541547,fried eggs,bagel and cc,7.55,9.15,1.6000000000000005,bagel and cc,1319.5,1320,1319.800000011921,True,i,180503.40000000596,1831.300000011921,1669831543378,1831,HRV,HRV_0156,2022-11-30 18:08:01
102,"[{'imgObject': {}, 'id': 'steak', 'src': '/static/foodstim60/steak.jpg', 'key': 'u', 'origWidth': 410, 'origHeight': 410, 'width': 410, 'height': 410, 'widthPercent': 0.45, 'rescaleHeight': False, 'trialN': 102, 'loaded': True, 'loadedTime': 3928.300000011921, 'positionName': 'LEFT', 'positionCoords': [327.28, 227], 'bid': 6.04}, {'imgObject': {}, 'id': 'apple slices', 'src': '/static/foodstim60/apple slices.jpg', 'key': 'i', 'origWidth': 409, 'origHeight': 410, 'width': 409, 'height': 410, 'widthPercent': 0.45, 'rescaleHeight': False, 'trialN': 102, 'loaded': True, 'loadedTime': 3854.5, 'positionName': 'RIGHT', 'positionCoords': [798.72, 227], 'bid': 6.18}]",180503.59999999404,1669831543378,steak,apple slices,6.04,6.18,0.13999999999999968,apple slices,1411.6000000238419,1413,1412.300000011921,True,i,182428.5,1924.9000000059605,1669831545303,1925,HRV,HRV_0156,2022-11-30 18:08:01
103,"[{'imgObject': {}, 'id': 'Grapes', 'src': '/static/foodstim60/Grapes.jpg', 'key': 'u', 'origWidth': 411, 'origHeight': 411, 'width': 411, 'height': 411, 'widthPercent': 0.45, 'rescaleHeight': False, 'trialN': 103, 'loaded': True, 'loadedTime': 4013.9000000059605, 'positionName': 'LEFT', 'positionCoords': [326.28, 226.5], 'bid': 5.93}, {'imgObject': {}, 'id': 'pear', 'src': '/static/foodstim60/pear.jpg', 'key': 'i', 'origWidth': 411, 'origHeight': 410, 'width': 411, 'height': 410, 'widthPercent': 0.45, 'rescaleHeight': False, 'trialN': 103, 'loaded': True, 'loadedTime': 3852.9000000059605, 'positionName': 'RIGHT', 'positionCoords': [798.72, 227], 'bid': 6.0200000000000005}]",182428.80000001192,1669831545304,Grapes,pear,5.93,6.0200000000000005,0.09000000000000075,Grapes,1646.699999988079,1647,1647.4000000059605,True,u,184577.70000001788,2148.9000000059605,1669831547452,2148,HRV,HRV_0156,2022-11-30 18:08:01
104,"[{'imgObject': {}, 'id': 'eggsalad', 'src': '/static/foodstim60/eggsalad.jpg', 'key': 'u', 'origWidth': 410, 'origHeight': 409, 'width': 410, 'height': 409, 'widthPercent': 0.45, 'rescaleHeight': False, 'trialN': 104, 'loaded': True, 'loadedTime': 3953.300000011921, 'positionName': 'LEFT', 'positionCoords': [327.28, 227.5], 'bid': 7.18}, {'imgObject': {}, 'id': 'mango', 'src': '/static/foodstim60/mango.jpg', 'key': 'i', 'origWidth': 411, 'origHeight': 411, 'width': 411, 'height': 411, 'widthPercent': 0.45, 'rescaleHeight': False, 'trialN': 104, 'loaded': True, 'loadedTime': 4012.5, 'positionName': 'RIGHT', 'positionCoords': [798.72, 226.5], 'bid': 6.66}]",184577.80000001192,1669831547453,eggsalad,mango,7.18,6.66,-0.5199999999999996,eggsalad,660.2999999821186,660,660.5999999940395,True,u,185754.59999999404,1176.7999999821186,1669831548629,1176,HRV,HRV_0156,2022-11-30 18:08:01
105,"[{'imgObject': {}, 'id': 'steak', 'src': '/static/foodstim60/steak.jpg', 'key': 'u', 'origWidth': 410, 'origHeight': 410, 'width': 410, 'height': 410, 'widthPercent': 0.45, 'rescaleHeight': False, 'trialN': 105, 'loaded': True, 'loadedTime': 3951.5, 'positionName': 'LEFT', 'positionCoords': [327.28, 227], 'bid': 6.04}, {'imgObject': {}, 'id': 'hashbrowns', 'src': '/static/foodstim60/hashbrowns.jpg', 'key': 'i', 'origWidth': 411, 'origHeight': 410, 'width': 411, 'height': 410, 'widthPercent': 0.45, 'rescaleHeight': False, 'trialN': 105, 'loaded': True, 'loadedTime': 4061.800000011921, 'positionName': 'RIGHT', 'positionCoords': [798.72, 227], 'bid': 7.23}]",185754.80000001192,1669831548630,steak,hashbrowns,6.04,7.23,1.1900000000000004,steak,1463.5999999940395,1464,1464.199999988079,True,u,187722.0,1967.199999988079,1669831550597,1967,HRV,HRV_0156,2022-11-30 18:08:01
106,"[{'imgObject': {}, 'id': 'ice cream sundae 002', 'src': '/static/foodstim60/ice cream sundae 002.jpg', 'key': 'u', 'origWidth': 409, 'origHeight': 409, 'width': 409, 'height': 409, 'widthPercent': 0.45, 'rescaleHeight': False, 'trialN': 106, 'loaded': True, 'loadedTime': 3987.300000011921, 'positionName': 'LEFT', 'positionCoords': [328.28, 227.5], 'bid': 2.69}, {'imgObject': {}, 'id': 'kiwi', 'src': '/static/foodstim60/kiwi.jpg', 'key': 'i', 'origWidth': 410, 'origHeight': 410, 'width': 410, 'height': 410, 'widthPercent': 0.45, 'rescaleHeight': False, 'trialN': 106, 'loaded': True, 'loadedTime': 3849, 'positionName': 'RIGHT', 'positionCoords': [798.72, 227], 'bid': 5.89}]",187722.20000001788,1669831550597,ice cream sundae 002,kiwi,2.69,5.89,3.1999999999999997,kiwi,1509.2999999821186,1510,1509.699999988079,True,i,189737.20000001788,2015.0,1669831552612,2015,HRV,HRV_0156,2022-11-30 18:08:01
107,"[{'imgObject': {}, 'id': 'cherry tomato', 'src': '/static/foodstim60/cherry tomato.jpg', 'key': 'u', 'origWidth': 410, 'origHeight': 410, 'width': 410, 'height': 410, 'widthPercent': 0.45, 'rescaleHeight': False, 'trialN': 107, 'loaded': True, 'loadedTime': 3889.2000000178814, 'positionName': 'LEFT', 'positionCoords': [327.28, 227], 'bid': 2.2}, {'imgObject': {}, 'id': 'blackbeanswithrice', 'src': '/static/foodstim60/blackbeanswithrice.jpg', 'key': 'i', 'origWidth': 410, 'origHeight': 410, 'width': 410, 'height': 410, 'widthPercent': 0.45, 'rescaleHeight': False, 'trialN': 107, 'loaded': True, 'loadedTime': 3857.2000000178814, 'positionName': 'RIGHT', 'positionCoords': [798.72, 227], 'bid': 5}]",189737.5,1669831552612,cherry tomato,blackbeanswithrice,2.2,5.0,2.8,blackbeanswithrice,965.4000000059605,966,965.7000000178814,True,i,191223.90000000596,1486.4000000059605,1669831554099,1487,HRV,HRV_0156,2022-11-30 18:08:01
108,"[{'imgObject': {}, 'id': 'Tribe humus pita', 'src': '/static/foodstim60/Tribe humus pita.jpg', 'key': 'u', 'origWidth': 411, 'origHeight': 411, 'width': 411, 'height': 411, 'widthPercent': 0.45, 'rescaleHeight': False, 'trialN': 108, 'loaded': True, 'loadedTime': 3881.7000000178814, 'positionName': 'LEFT', 'positionCoords': [326.28, 226.5], 'bid': 8.09}, {'imgObject': {}, 'id': 'avocado', 'src': '/static/foodstim60/avocado.jpg', 'key': 'i', 'origWidth': 409, 'origHeight': 409, 'width': 409, 'height': 409, 'widthPercent': 0.45, 'rescaleHeight': False, 'trialN': 108, 'loaded': True, 'loadedTime': 4002.800000011921, 'positionName': 'RIGHT', 'positionCoords': [798.72, 227.5], 'bid': 8.51}]",191224.09999999404,1669831554099,Tribe humus pita,avocado,8.09,8.51,0.41999999999999993,Tribe humus pita,1492.2000000178814,1493,1493.0,True,u,193231.40000000596,2007.300000011921,1669831556106,2007,HRV,HRV_0156,2022-11-30 18:08:01
