trialN,stimuli,trialStartTime,trialStartTime_UNIX,stimulus1,stimulus2,stimulus1Bid,stimulus2Bid,delta,selected,rt,rt_UNIX,rt_perfnow,receivedResponse,rsp,trialEndTime,trialDuration,trialEndTime_UNIX,trialDuration_UNIX,exp,subjectId,date
0,"[{'imgObject': {}, 'id': 'burrito', 'src': '/static/foodstim60/burrito.jpg', 'key': 'u', 'origWidth': 410, 'origHeight': 410, 'width': 410, 'height': 410, 'widthPercent': 0.45, 'rescaleHeight': False, 'trialN': 0, 'loaded': True, 'loadedTime': 2861, 'positionName': 'LEFT', 'positionCoords': [511.6, 335], 'bid': 7}, {'imgObject': {}, 'id': 'eggsalad', 'src': '/static/foodstim60/eggsalad.jpg', 'key': 'i', 'origWidth': 410, 'origHeight': 409, 'width': 410, 'height': 409, 'widthPercent': 0.45, 'rescaleHeight': False, 'trialN': 0, 'loaded': True, 'loadedTime': 2862, 'positionName': 'RIGHT', 'positionCoords': [998.4, 335.5], 'bid': 2.96}]",2912,1669853599064,burrito,eggsalad,7.0,2.96,-4.04,burrito,1665,1677,1678.0,True,u,5103,2191,1669853601255,2191,HRV,HRV_0322,2022-12-01 00:20:09
1,"[{'imgObject': {}, 'id': 'eggs', 'src': '/static/foodstim60/eggs.jpg', 'key': 'u', 'origWidth': 409, 'origHeight': 409, 'width': 409, 'height': 409, 'widthPercent': 0.45, 'rescaleHeight': False, 'trialN': 1, 'loaded': True, 'loadedTime': 2862, 'positionName': 'LEFT', 'positionCoords': [512.6, 335.5], 'bid': 4.01}, {'imgObject': {}, 'id': 'raisin bran w milk', 'src': '/static/foodstim60/raisin bran w milk.jpg', 'key': 'i', 'origWidth': 411, 'origHeight': 411, 'width': 411, 'height': 411, 'widthPercent': 0.45, 'rescaleHeight': False, 'trialN': 1, 'loaded': True, 'loadedTime': 2863, 'positionName': 'RIGHT', 'positionCoords': [998.4, 334.5], 'bid': 2.7}]",5103,1669853601255,eggs,raisin bran w milk,4.01,2.7,-1.3099999999999996,eggs,1786,1799,1800.0,True,u,7410,2307,1669853603561,2306,HRV,HRV_0322,2022-12-01 00:20:09
2,"[{'imgObject': {}, 'id': 'olives', 'src': '/static/foodstim60/olives.jpg', 'key': 'u', 'origWidth': 410, 'origHeight': 410, 'width': 410, 'height': 410, 'widthPercent': 0.45, 'rescaleHeight': False, 'trialN': 2, 'loaded': True, 'loadedTime': 2864, 'positionName': 'LEFT', 'positionCoords': [511.6, 335], 'bid': 4.98}, {'imgObject': {}, 'id': 'fried eggs', 'src': '/static/foodstim60/fried eggs.jpg', 'key': 'i', 'origWidth': 410, 'origHeight': 410, 'width': 410, 'height': 410, 'widthPercent': 0.45, 'rescaleHeight': False, 'trialN': 2, 'loaded': True, 'loadedTime': 2865, 'positionName': 'RIGHT', 'positionCoords': [998.4, 335], 'bid': 6.25}]",7410,1669853603561,olives,fried eggs,4.98,6.25,1.2699999999999996,fried eggs,1026,1034,1033.0,True,i,8948,1538,1669853605098,1537,HRV,HRV_0322,2022-12-01 00:20:09
3,"[{'imgObject': {}, 'id': 'eggsalad', 'src': '/static/foodstim60/eggsalad.jpg', 'key': 'u', 'origWidth': 410, 'origHeight': 409, 'width': 410, 'height': 409, 'widthPercent': 0.45, 'rescaleHeight': False, 'trialN': 3, 'loaded': True, 'loadedTime': 2862, 'positionName': 'LEFT', 'positionCoords': [511.6, 335.5], 'bid': 2.96}, {'imgObject': {}, 'id': 'granola w milk', 'src': '/static/foodstim60/granola w milk.jpg', 'key': 'i', 'origWidth': 410, 'origHeight': 410, 'width': 410, 'height': 410, 'widthPercent': 0.45, 'rescaleHeight': False, 'trialN': 3, 'loaded': True, 'loadedTime': 2866, 'positionName': 'RIGHT', 'positionCoords': [998.4, 335], 'bid': 0.46}]",8948,1669853605098,eggsalad,granola w milk,2.96,0.46,-2.5,eggsalad,1988,2000,2000.0,True,u,11453,2505,1669853607604,2506,HRV,HRV_0322,2022-12-01 00:20:09
4,"[{'imgObject': {}, 'id': 'chicken nuggets2', 'src': '/static/foodstim60/chicken nuggets2.jpg', 'key': 'u', 'origWidth': 410, 'origHeight': 409, 'width': 410, 'height': 409, 'widthPercent': 0.45, 'rescaleHeight': False, 'trialN': 4, 'loaded': True, 'loadedTime': 2867, 'positionName': 'LEFT', 'positionCoords': [511.6, 335.5], 'bid': 8.32}, {'imgObject': {}, 'id': 'corn cob', 'src': '/static/foodstim60/corn cob.jpg', 'key': 'i', 'origWidth': 411, 'origHeight': 411, 'width': 411, 'height': 411, 'widthPercent': 0.45, 'rescaleHeight': False, 'trialN': 4, 'loaded': True, 'loadedTime': 2868, 'positionName': 'RIGHT', 'positionCoords': [998.4, 334.5], 'bid': 5.03}]",11453,1669853607604,chicken nuggets2,corn cob,8.32,5.03,-3.29,chicken nuggets2,1171,1173,1173.0,True,u,13129,1676,1669853609280,1676,HRV,HRV_0322,2022-12-01 00:20:09
5,"[{'imgObject': {}, 'id': 'strawberries', 'src': '/static/foodstim60/strawberries.jpg', 'key': 'u', 'origWidth': 410, 'origHeight': 410, 'width': 410, 'height': 410, 'widthPercent': 0.45, 'rescaleHeight': False, 'trialN': 5, 'loaded': True, 'loadedTime': 2869, 'positionName': 'LEFT', 'positionCoords': [511.6, 335], 'bid': 7.78}, {'imgObject': {}, 'id': 'grilled chicken strips', 'src': '/static/foodstim60/grilled chicken strips.jpg', 'key': 'i', 'origWidth': 410, 'origHeight': 411, 'width': 410, 'height': 411, 'widthPercent': 0.45, 'rescaleHeight': False, 'trialN': 5, 'loaded': True, 'loadedTime': 2870, 'positionName': 'RIGHT', 'positionCoords': [998.4, 334.5], 'bid': 6.57}]",13129,1669853609280,strawberries,grilled chicken strips,7.78,6.57,-1.21,strawberries,1167,1172,1172.0,True,u,14805,1676,1669853610957,1677,HRV,HRV_0322,2022-12-01 00:20:09
6,"[{'imgObject': {}, 'id': 'strawberries', 'src': '/static/foodstim60/strawberries.jpg', 'key': 'u', 'origWidth': 410, 'origHeight': 410, 'width': 410, 'height': 410, 'widthPercent': 0.45, 'rescaleHeight': False, 'trialN': 6, 'loaded': True, 'loadedTime': 2870, 'positionName': 'LEFT', 'positionCoords': [511.6, 335], 'bid': 7.78}, {'imgObject': {}, 'id': 'tacos', 'src': '/static/foodstim60/tacos.jpg', 'key': 'i', 'origWidth': 411, 'origHeight': 411, 'width': 411, 'height': 411, 'widthPercent': 0.45, 'rescaleHeight': False, 'trialN': 6, 'loaded': True, 'loadedTime': 2871, 'positionName': 'RIGHT', 'positionCoords': [998.4, 334.5], 'bid': 7.86}]",14806,1669853610957,strawberries,tacos,7.78,7.86,0.08000000000000007,tacos,1755,1764,1764.0,True,i,17081,2275,1669853613232,2275,HRV,HRV_0322,2022-12-01 00:20:09
7,"[{'imgObject': {}, 'id': 'corn cob', 'src': '/static/foodstim60/corn cob.jpg', 'key': 'u', 'origWidth': 411, 'origHeight': 411, 'width': 411, 'height': 411, 'widthPercent': 0.45, 'rescaleHeight': False, 'trialN': 7, 'loaded': True, 'loadedTime': 2869, 'positionName': 'LEFT', 'positionCoords': [510.6, 334.5], 'bid': 5.03}, {'imgObject': {}, 'id': 'roastedpotatoes', 'src': '/static/foodstim60/roastedpotatoes.jpg', 'key': 'i', 'origWidth': 409, 'origHeight': 410, 'width': 409, 'height': 410, 'widthPercent': 0.45, 'rescaleHeight': False, 'trialN': 7, 'loaded': True, 'loadedTime': 2872, 'positionName': 'RIGHT', 'positionCoords': [998.4, 335], 'bid': 5.43}]",17081,1669853613232,corn cob,roastedpotatoes,5.03,5.43,0.39999999999999947,roastedpotatoes,1668,1675,1675.0,True,i,19265,2184,1669853615416,2184,HRV,HRV_0322,2022-12-01 00:20:09
8,"[{'imgObject': {}, 'id': 'apple slices', 'src': '/static/foodstim60/apple slices.jpg', 'key': 'u', 'origWidth': 409, 'origHeight': 410, 'width': 409, 'height': 410, 'widthPercent': 0.45, 'rescaleHeight': False, 'trialN': 8, 'loaded': True, 'loadedTime': 2873, 'positionName': 'LEFT', 'positionCoords': [512.6, 335], 'bid': 4.23}, {'imgObject': {}, 'id': 'eggs', 'src': '/static/foodstim60/eggs.jpg', 'key': 'i', 'origWidth': 409, 'origHeight': 409, 'width': 409, 'height': 409, 'widthPercent': 0.45, 'rescaleHeight': False, 'trialN': 8, 'loaded': True, 'loadedTime': 2863, 'positionName': 'RIGHT', 'positionCoords': [998.4, 335.5], 'bid': 4.01}]",19265,1669853615416,apple slices,eggs,4.23,4.01,-0.22000000000000064,apple slices,2952,2964,2964.0,True,u,22740,3475,1669853618891,3475,HRV,HRV_0322,2022-12-01 00:20:09
9,"[{'imgObject': {}, 'id': 'banana', 'src': '/static/foodstim60/banana.jpg', 'key': 'u', 'origWidth': 410, 'origHeight': 410, 'width': 410, 'height': 410, 'widthPercent': 0.45, 'rescaleHeight': False, 'trialN': 9, 'loaded': True, 'loadedTime': 2873, 'positionName': 'LEFT', 'positionCoords': [511.6, 335], 'bid': 7.33}, {'imgObject': {}, 'id': 'baked potato', 'src': '/static/foodstim60/baked potato.jpg', 'key': 'i', 'origWidth': 409, 'origHeight': 410, 'width': 409, 'height': 410, 'widthPercent': 0.45, 'rescaleHeight': False, 'trialN': 9, 'loaded': True, 'loadedTime': 2874, 'positionName': 'RIGHT', 'positionCoords': [998.4, 335], 'bid': 3.77}]",22740,1669853618891,banana,baked potato,7.33,3.77,-3.56,banana,1226,1231,1231.0,True,u,24477,1737,1669853620628,1737,HRV,HRV_0322,2022-12-01 00:20:09
10,"[{'imgObject': {}, 'id': 'fruitsalad', 'src': '/static/foodstim60/fruitsalad.jpg', 'key': 'u', 'origWidth': 410, 'origHeight': 410, 'width': 410, 'height': 410, 'widthPercent': 0.45, 'rescaleHeight': False, 'trialN': 10, 'loaded': True, 'loadedTime': 2874, 'positionName': 'LEFT', 'positionCoords': [511.6, 335], 'bid': 6.9}, {'imgObject': {}, 'id': 'burrito', 'src': '/static/foodstim60/burrito.jpg', 'key': 'i', 'origWidth': 410, 'origHeight': 410, 'width': 410, 'height': 410, 'widthPercent': 0.45, 'rescaleHeight': False, 'trialN': 10, 'loaded': True, 'loadedTime': 2862, 'positionName': 'RIGHT', 'positionCoords': [998.4, 335], 'bid': 7}]",24477,1669853620629,fruitsalad,burrito,6.9,7.0,0.09999999999999964,burrito,2569,2568,2569.0,True,i,27552,3075,1669853623703,3074,HRV,HRV_0322,2022-12-01 00:20:09
11,"[{'imgObject': {}, 'id': 'bagel and cc', 'src': '/static/foodstim60/bagel and cc.jpg', 'key': 'u', 'origWidth': 410, 'origHeight': 410, 'width': 410, 'height': 410, 'widthPercent': 0.45, 'rescaleHeight': False, 'trialN': 11, 'loaded': True, 'loadedTime': 2876, 'positionName': 'LEFT', 'positionCoords': [511.6, 335], 'bid': 2.41}, {'imgObject': {}, 'id': 'lox', 'src': '/static/foodstim60/lox.jpg', 'key': 'i', 'origWidth': 410, 'origHeight': 411, 'width': 410, 'height': 411, 'widthPercent': 0.45, 'rescaleHeight': False, 'trialN': 11, 'loaded': True, 'loadedTime': 2877, 'positionName': 'RIGHT', 'positionCoords': [998.4, 334.5], 'bid': 2.53}]",27553,1669853623703,bagel and cc,lox,2.41,2.53,0.11999999999999966,lox,2008,2020,2018.0,True,i,30074,2521,1669853626225,2522,HRV,HRV_0322,2022-12-01 00:20:09
12,"[{'imgObject': {}, 'id': 'sweetpotato', 'src': '/static/foodstim60/sweetpotato.jpg', 'key': 'u', 'origWidth': 410, 'origHeight': 410, 'width': 410, 'height': 410, 'widthPercent': 0.45, 'rescaleHeight': False, 'trialN': 12, 'loaded': True, 'loadedTime': 2878, 'positionName': 'LEFT', 'positionCoords': [511.6, 335], 'bid': 3.77}, {'imgObject': {}, 'id': 'edamame', 'src': '/static/foodstim60/edamame.jpg', 'key': 'i', 'origWidth': 409, 'origHeight': 410, 'width': 409, 'height': 410, 'widthPercent': 0.45, 'rescaleHeight': False, 'trialN': 12, 'loaded': True, 'loadedTime': 2879, 'positionName': 'RIGHT', 'positionCoords': [998.4, 335], 'bid': 0.2}]",30074,1669853626225,sweetpotato,edamame,3.77,0.2,-3.57,sweetpotato,1831,1833,1834.0,True,u,32411,2337,1669853628562,2337,HRV,HRV_0322,2022-12-01 00:20:09
13,"[{'imgObject': {}, 'id': 'grilled chicken strips', 'src': '/static/foodstim60/grilled chicken strips.jpg', 'key': 'u', 'origWidth': 410, 'origHeight': 411, 'width': 410, 'height': 411, 'widthPercent': 0.45, 'rescaleHeight': False, 'trialN': 13, 'loaded': True, 'loadedTime': 2871, 'positionName': 'LEFT', 'positionCoords': [511.6, 334.5], 'bid': 6.57}, {'imgObject': {}, 'id': 'mango', 'src': '/static/foodstim60/mango.jpg', 'key': 'i', 'origWidth': 411, 'origHeight': 411, 'width': 411, 'height': 411, 'widthPercent': 0.45, 'rescaleHeight': False, 'trialN': 13, 'loaded': True, 'loadedTime': 2879, 'positionName': 'RIGHT', 'positionCoords': [998.4, 334.5], 'bid': 6.43}]",32411,1669853628562,grilled chicken strips,mango,6.57,6.43,-0.14000000000000057,mango,2071,2085,2085.0,True,i,35010,2599,1669853631161,2599,HRV,HRV_0322,2022-12-01 00:20:09
14,"[{'imgObject': {}, 'id': 'sushi w_condiments', 'src': '/static/foodstim60/sushi w_condiments.jpg', 'key': 'u', 'origWidth': 410, 'origHeight': 410, 'width': 410, 'height': 410, 'widthPercent': 0.45, 'rescaleHeight': False, 'trialN': 14, 'loaded': True, 'loadedTime': 2880, 'positionName': 'LEFT', 'positionCoords': [511.6, 335], 'bid': 0.76}, {'imgObject': {}, 'id': 'apple slices', 'src': '/static/foodstim60/apple slices.jpg', 'key': 'i', 'origWidth': 409, 'origHeight': 410, 'width': 409, 'height': 410, 'widthPercent': 0.45, 'rescaleHeight': False, 'trialN': 14, 'loaded': True, 'loadedTime': 2873, 'positionName': 'RIGHT', 'positionCoords': [998.4, 335], 'bid': 4.23}]",35010,1669853631161,sushi w_condiments,apple slices,0.76,4.23,3.4700000000000006,sushi w_condiments,3285,3298,3298.0,True,u,38822,3812,1669853634974,3813,HRV,HRV_0322,2022-12-01 00:20:09
15,"[{'imgObject': {}, 'id': 'hotdog w must', 'src': '/static/foodstim60/hotdog w must.jpg', 'key': 'u', 'origWidth': 409, 'origHeight': 409, 'width': 409, 'height': 409, 'widthPercent': 0.45, 'rescaleHeight': False, 'trialN': 15, 'loaded': True, 'loadedTime': 2881, 'positionName': 'LEFT', 'positionCoords': [512.6, 335.5], 'bid': 7.390000000000001}, {'imgObject': {}, 'id': 'mashed potato', 'src': '/static/foodstim60/mashed potato.jpg', 'key': 'i', 'origWidth': 409, 'origHeight': 409, 'width': 409, 'height': 409, 'widthPercent': 0.45, 'rescaleHeight': False, 'trialN': 15, 'loaded': True, 'loadedTime': 2882, 'positionName': 'RIGHT', 'positionCoords': [998.4, 335.5], 'bid': 5.89}]",38822,1669853634974,hotdog w must,mashed potato,7.390000000000001,5.89,-1.5000000000000009,hotdog w must,2005,2006,2006.0,True,u,41329,2507,1669853637480,2506,HRV,HRV_0322,2022-12-01 00:20:09
16,"[{'imgObject': {}, 'id': 'hotdog w must', 'src': '/static/foodstim60/hotdog w must.jpg', 'key': 'u', 'origWidth': 409, 'origHeight': 409, 'width': 409, 'height': 409, 'widthPercent': 0.45, 'rescaleHeight': False, 'trialN': 16, 'loaded': True, 'loadedTime': 2882, 'positionName': 'LEFT', 'positionCoords': [512.6, 335.5], 'bid': 7.390000000000001}, {'imgObject': {}, 'id': 'luckycharms', 'src': '/static/foodstim60/luckycharms.jpg', 'key': 'i', 'origWidth': 410, 'origHeight': 409, 'width': 410, 'height': 409, 'widthPercent': 0.45, 'rescaleHeight': False, 'trialN': 16, 'loaded': True, 'loadedTime': 2883, 'positionName': 'RIGHT', 'positionCoords': [998.4, 335.5], 'bid': 8.56}]",41329,1669853637481,hotdog w must,luckycharms,7.390000000000001,8.56,1.17,luckycharms,1529,1540,1541.0,True,i,43375,2046,1669853639525,2044,HRV,HRV_0322,2022-12-01 00:20:09
17,"[{'imgObject': {}, 'id': 'mac & cheese', 'src': '/static/foodstim60/mac & cheese.jpg', 'key': 'u', 'origWidth': 410, 'origHeight': 410, 'width': 410, 'height': 410, 'widthPercent': 0.45, 'rescaleHeight': False, 'trialN': 17, 'loaded': True, 'loadedTime': 2883, 'positionName': 'LEFT', 'positionCoords': [511.6, 335], 'bid': 8.33}, {'imgObject': {}, 'id': 'luckycharms', 'src': '/static/foodstim60/luckycharms.jpg', 'key': 'i', 'origWidth': 410, 'origHeight': 409, 'width': 410, 'height': 409, 'widthPercent': 0.45, 'rescaleHeight': False, 'trialN': 17, 'loaded': True, 'loadedTime': 2883, 'positionName': 'RIGHT', 'positionCoords': [998.4, 335.5], 'bid': 8.56}]",43375,1669853639525,mac & cheese,luckycharms,8.33,8.56,0.23000000000000043,mac & cheese,1061,1071,1070.0,True,u,44958,1583,1669853641109,1584,HRV,HRV_0322,2022-12-01 00:20:09
18,"[{'imgObject': {}, 'id': 'sushi w_condiments', 'src': '/static/foodstim60/sushi w_condiments.jpg', 'key': 'u', 'origWidth': 410, 'origHeight': 410, 'width': 410, 'height': 410, 'widthPercent': 0.45, 'rescaleHeight': False, 'trialN': 18, 'loaded': True, 'loadedTime': 2881, 'positionName': 'LEFT', 'positionCoords': [511.6, 335], 'bid': 0.76}, {'imgObject': {}, 'id': 'bagel and cc', 'src': '/static/foodstim60/bagel and cc.jpg', 'key': 'i', 'origWidth': 410, 'origHeight': 410, 'width': 410, 'height': 410, 'widthPercent': 0.45, 'rescaleHeight': False, 'trialN': 18, 'loaded': True, 'loadedTime': 2877, 'positionName': 'RIGHT', 'positionCoords': [998.4, 335], 'bid': 2.41}]",44958,1669853641109,sushi w_condiments,bagel and cc,0.76,2.41,1.6500000000000001,bagel and cc,2430,2442,2442.0,True,i,47910,2952,1669853644061,2952,HRV,HRV_0322,2022-12-01 00:20:09
19,"[{'imgObject': {}, 'id': 'olives', 'src': '/static/foodstim60/olives.jpg', 'key': 'u', 'origWidth': 410, 'origHeight': 410, 'width': 410, 'height': 410, 'widthPercent': 0.45, 'rescaleHeight': False, 'trialN': 19, 'loaded': True, 'loadedTime': 2865, 'positionName': 'LEFT', 'positionCoords': [511.6, 335], 'bid': 4.98}, {'imgObject': {}, 'id': 'tacos', 'src': '/static/foodstim60/tacos.jpg', 'key': 'i', 'origWidth': 411, 'origHeight': 411, 'width': 411, 'height': 411, 'widthPercent': 0.45, 'rescaleHeight': False, 'trialN': 19, 'loaded': True, 'loadedTime': 2872, 'positionName': 'RIGHT', 'positionCoords': [998.4, 334.5], 'bid': 7.86}]",47910,1669853644061,olives,tacos,4.98,7.86,2.88,tacos,931,942,942.0,True,i,49355,1445,1669853645507,1446,HRV,HRV_0322,2022-12-01 00:20:09
20,"[{'imgObject': {}, 'id': 'burrito', 'src': '/static/foodstim60/burrito.jpg', 'key': 'u', 'origWidth': 410, 'origHeight': 410, 'width': 410, 'height': 410, 'widthPercent': 0.45, 'rescaleHeight': False, 'trialN': 20, 'loaded': True, 'loadedTime': 2862, 'positionName': 'LEFT', 'positionCoords': [511.6, 335], 'bid': 7}, {'imgObject': {}, 'id': 'cantaloupe', 'src': '/static/foodstim60/cantaloupe.jpg', 'key': 'i', 'origWidth': 409, 'origHeight': 409, 'width': 409, 'height': 409, 'widthPercent': 0.45, 'rescaleHeight': False, 'trialN': 20, 'loaded': True, 'loadedTime': 2884, 'positionName': 'RIGHT', 'positionCoords': [998.4, 335.5], 'bid': 6.88}]",49355,1669853645507,burrito,cantaloupe,7.0,6.88,-0.1200000000000001,burrito,1752,1761,1762.0,True,u,51631,2276,1669853647782,2275,HRV,HRV_0322,2022-12-01 00:20:09
21,"[{'imgObject': {}, 'id': 'hotdog w must', 'src': '/static/foodstim60/hotdog w must.jpg', 'key': 'u', 'origWidth': 409, 'origHeight': 409, 'width': 409, 'height': 409, 'widthPercent': 0.45, 'rescaleHeight': False, 'trialN': 21, 'loaded': True, 'loadedTime': 2882, 'positionName': 'LEFT', 'positionCoords': [512.6, 335.5], 'bid': 7.390000000000001}, {'imgObject': {}, 'id': 'cantaloupe', 'src': '/static/foodstim60/cantaloupe.jpg', 'key': 'i', 'origWidth': 409, 'origHeight': 409, 'width': 409, 'height': 409, 'widthPercent': 0.45, 'rescaleHeight': False, 'trialN': 21, 'loaded': True, 'loadedTime': 2885, 'positionName': 'RIGHT', 'positionCoords': [998.4, 335.5], 'bid': 6.88}]",51631,1669853647782,hotdog w must,cantaloupe,7.390000000000001,6.88,-0.5100000000000007,hotdog w must,1821,1831,1831.0,True,u,53969,2338,1669853650119,2337,HRV,HRV_0322,2022-12-01 00:20:09
22,"[{'imgObject': {}, 'id': 'raspberries', 'src': '/static/foodstim60/raspberries.jpg', 'key': 'u', 'origWidth': 411, 'origHeight': 411, 'width': 411, 'height': 411, 'widthPercent': 0.45, 'rescaleHeight': False, 'trialN': 22, 'loaded': True, 'loadedTime': 2885, 'positionName': 'LEFT', 'positionCoords': [510.6, 334.5], 'bid': 7.61}, {'imgObject': {}, 'id': 'turkeysandwich', 'src': '/static/foodstim60/turkeysandwich.jpg', 'key': 'i', 'origWidth': 409, 'origHeight': 409, 'width': 409, 'height': 409, 'widthPercent': 0.45, 'rescaleHeight': False, 'trialN': 22, 'loaded': True, 'loadedTime': 2886, 'positionName': 'RIGHT', 'positionCoords': [998.4, 335.5], 'bid': 7.62}]",53969,1669853650119,raspberries,turkeysandwich,7.61,7.62,0.009999999999999787,turkeysandwich,1373,1384,1383.0,True,i,55859,1890,1669853652010,1891,HRV,HRV_0322,2022-12-01 00:20:09
23,"[{'imgObject': {}, 'id': 'burrito', 'src': '/static/foodstim60/burrito.jpg', 'key': 'u', 'origWidth': 410, 'origHeight': 410, 'width': 410, 'height': 410, 'widthPercent': 0.45, 'rescaleHeight': False, 'trialN': 23, 'loaded': True, 'loadedTime': 2862, 'positionName': 'LEFT', 'positionCoords': [511.6, 335], 'bid': 7}, {'imgObject': {}, 'id': 'turkey sandwich', 'src': '/static/foodstim60/turkey sandwich.jpg', 'key': 'i', 'origWidth': 409, 'origHeight': 409, 'width': 409, 'height': 409, 'widthPercent': 0.45, 'rescaleHeight': False, 'trialN': 23, 'loaded': True, 'loadedTime': 2887, 'positionName': 'RIGHT', 'positionCoords': [998.4, 335.5], 'bid': 8.83}]",55859,1669853652010,burrito,turkey sandwich,7.0,8.83,1.83,turkey sandwich,1576,1583,1583.0,True,i,57951,2092,1669853654102,2092,HRV,HRV_0322,2022-12-01 00:20:09
24,"[{'imgObject': {}, 'id': 'sweetpotato', 'src': '/static/foodstim60/sweetpotato.jpg', 'key': 'u', 'origWidth': 410, 'origHeight': 410, 'width': 410, 'height': 410, 'widthPercent': 0.45, 'rescaleHeight': False, 'trialN': 24, 'loaded': True, 'loadedTime': 2878, 'positionName': 'LEFT', 'positionCoords': [511.6, 335], 'bid': 3.77}, {'imgObject': {}, 'id': 'baked potato', 'src': '/static/foodstim60/baked potato.jpg', 'key': 'i', 'origWidth': 409, 'origHeight': 410, 'width': 409, 'height': 410, 'widthPercent': 0.45, 'rescaleHeight': False, 'trialN': 24, 'loaded': True, 'loadedTime': 2874, 'positionName': 'RIGHT', 'positionCoords': [998.4, 335], 'bid': 3.77}]",57951,1669853654102,sweetpotato,baked potato,3.77,3.77,0.0,baked potato,2548,2550,2550.0,True,i,61010,3059,1669853657161,3059,HRV,HRV_0322,2022-12-01 00:20:09
25,"[{'imgObject': {}, 'id': 'salad w chicken', 'src': '/static/foodstim60/salad w chicken.jpg', 'key': 'u', 'origWidth': 411, 'origHeight': 411, 'width': 411, 'height': 411, 'widthPercent': 0.45, 'rescaleHeight': False, 'trialN': 25, 'loaded': True, 'loadedTime': 2888, 'positionName': 'LEFT', 'positionCoords': [510.6, 334.5], 'bid': 6.87}, {'imgObject': {}, 'id': 'bagel and cc', 'src': '/static/foodstim60/bagel and cc.jpg', 'key': 'i', 'origWidth': 410, 'origHeight': 410, 'width': 410, 'height': 410, 'widthPercent': 0.45, 'rescaleHeight': False, 'trialN': 25, 'loaded': True, 'loadedTime': 2877, 'positionName': 'RIGHT', 'positionCoords': [998.4, 335], 'bid': 2.41}]",61010,1669853657161,salad w chicken,bagel and cc,6.87,2.41,-4.46,salad w chicken,989,990,990.0,True,u,62502,1492,1669853658653,1492,HRV,HRV_0322,2022-12-01 00:20:09
26,"[{'imgObject': {}, 'id': 'Tribe humus pita', 'src': '/static/foodstim60/Tribe humus pita.jpg', 'key': 'u', 'origWidth': 411, 'origHeight': 411, 'width': 411, 'height': 411, 'widthPercent': 0.45, 'rescaleHeight': False, 'trialN': 26, 'loaded': True, 'loadedTime': 2889, 'positionName': 'LEFT', 'positionCoords': [510.6, 334.5], 'bid': 5.64}, {'imgObject': {}, 'id': 'turkey sandwich', 'src': '/static/foodstim60/turkey sandwich.jpg', 'key': 'i', 'origWidth': 409, 'origHeight': 409, 'width': 409, 'height': 409, 'widthPercent': 0.45, 'rescaleHeight': False, 'trialN': 26, 'loaded': True, 'loadedTime': 2888, 'positionName': 'RIGHT', 'positionCoords': [998.4, 335.5], 'bid': 8.83}]",62502,1669853658653,Tribe humus pita,turkey sandwich,5.64,8.83,3.1900000000000004,turkey sandwich,1715,1727,1728.0,True,i,64732,2230,1669853660883,2230,HRV,HRV_0322,2022-12-01 00:20:09
27,"[{'imgObject': {}, 'id': 'ice cream sundae 002', 'src': '/static/foodstim60/ice cream sundae 002.jpg', 'key': 'u', 'origWidth': 409, 'origHeight': 409, 'width': 409, 'height': 409, 'widthPercent': 0.45, 'rescaleHeight': False, 'trialN': 27, 'loaded': True, 'loadedTime': 2889, 'positionName': 'LEFT', 'positionCoords': [512.6, 335.5], 'bid': 8.17}, {'imgObject': {}, 'id': 'blueberries', 'src': '/static/foodstim60/blueberries.jpg', 'key': 'i', 'origWidth': 411, 'origHeight': 411, 'width': 411, 'height': 411, 'widthPercent': 0.45, 'rescaleHeight': False, 'trialN': 27, 'loaded': True, 'loadedTime': 2890, 'positionName': 'RIGHT', 'positionCoords': [998.4, 334.5], 'bid': 5}]",64732,1669853660883,ice cream sundae 002,blueberries,8.17,5.0,-3.17,ice cream sundae 002,1610,1623,1623.0,True,u,66868,2136,1669853663020,2137,HRV,HRV_0322,2022-12-01 00:20:09
28,"[{'imgObject': {}, 'id': 'ice cream sundae 002', 'src': '/static/foodstim60/ice cream sundae 002.jpg', 'key': 'u', 'origWidth': 409, 'origHeight': 409, 'width': 409, 'height': 409, 'widthPercent': 0.45, 'rescaleHeight': False, 'trialN': 28, 'loaded': True, 'loadedTime': 2890, 'positionName': 'LEFT', 'positionCoords': [512.6, 335.5], 'bid': 8.17}, {'imgObject': {}, 'id': 'burger', 'src': '/static/foodstim60/burger.jpg', 'key': 'i', 'origWidth': 409, 'origHeight': 409, 'width': 409, 'height': 409, 'widthPercent': 0.45, 'rescaleHeight': False, 'trialN': 28, 'loaded': True, 'loadedTime': 2891, 'positionName': 'RIGHT', 'positionCoords': [998.4, 335.5], 'bid': 6.71}]",66868,1669853663020,ice cream sundae 002,burger,8.17,6.71,-1.46,ice cream sundae 002,1740,1755,1756.0,True,u,69129,2261,1669853665280,2260,HRV,HRV_0322,2022-12-01 00:20:09
29,"[{'imgObject': {}, 'id': 'eggsalad', 'src': '/static/foodstim60/eggsalad.jpg', 'key': 'u', 'origWidth': 410, 'origHeight': 409, 'width': 410, 'height': 409, 'widthPercent': 0.45, 'rescaleHeight': False, 'trialN': 29, 'loaded': True, 'loadedTime': 2862, 'positionName': 'LEFT', 'positionCoords': [511.6, 335.5], 'bid': 2.96}, {'imgObject': {}, 'id': 'raisin bran w milk', 'src': '/static/foodstim60/raisin bran w milk.jpg', 'key': 'i', 'origWidth': 411, 'origHeight': 411, 'width': 411, 'height': 411, 'widthPercent': 0.45, 'rescaleHeight': False, 'trialN': 29, 'loaded': True, 'loadedTime': 2864, 'positionName': 'RIGHT', 'positionCoords': [998.4, 334.5], 'bid': 2.7}]",69129,1669853665280,eggsalad,raisin bran w milk,2.96,2.7,-0.2599999999999998,eggsalad,1228,1245,1245.0,True,u,70882,1753,1669853667033,1753,HRV,HRV_0322,2022-12-01 00:20:09
30,"[{'imgObject': {}, 'id': 'chickenfingers', 'src': '/static/foodstim60/chickenfingers.jpg', 'key': 'u', 'origWidth': 410, 'origHeight': 410, 'width': 410, 'height': 410, 'widthPercent': 0.45, 'rescaleHeight': False, 'trialN': 30, 'loaded': True, 'loadedTime': 2892, 'positionName': 'LEFT', 'positionCoords': [511.6, 335], 'bid': 7.61}, {'imgObject': {}, 'id': 'chicken nuggets2', 'src': '/static/foodstim60/chicken nuggets2.jpg', 'key': 'i', 'origWidth': 410, 'origHeight': 409, 'width': 410, 'height': 409, 'widthPercent': 0.45, 'rescaleHeight': False, 'trialN': 30, 'loaded': True, 'loadedTime': 2868, 'positionName': 'RIGHT', 'positionCoords': [998.4, 335.5], 'bid': 8.32}]",70882,1669853667033,chickenfingers,chicken nuggets2,7.61,8.32,0.71,chicken nuggets2,2506,2515,2516.0,True,i,73911,3029,1669853670062,3029,HRV,HRV_0322,2022-12-01 00:20:09
31,"[{'imgObject': {}, 'id': 'corn cob', 'src': '/static/foodstim60/corn cob.jpg', 'key': 'u', 'origWidth': 411, 'origHeight': 411, 'width': 411, 'height': 411, 'widthPercent': 0.45, 'rescaleHeight': False, 'trialN': 31, 'loaded': True, 'loadedTime': 2869, 'positionName': 'LEFT', 'positionCoords': [510.6, 334.5], 'bid': 5.03}, {'imgObject': {}, 'id': 'bagel and cc', 'src': '/static/foodstim60/bagel and cc.jpg', 'key': 'i', 'origWidth': 410, 'origHeight': 410, 'width': 410, 'height': 410, 'widthPercent': 0.45, 'rescaleHeight': False, 'trialN': 31, 'loaded': True, 'loadedTime': 2877, 'positionName': 'RIGHT', 'positionCoords': [998.4, 335], 'bid': 2.41}]",73911,1669853670062,corn cob,bagel and cc,5.03,2.41,-2.62,corn cob,1416,1424,1424.0,True,u,75848,1937,1669853671999,1937,HRV,HRV_0322,2022-12-01 00:20:09
32,"[{'imgObject': {}, 'id': 'eggs', 'src': '/static/foodstim60/eggs.jpg', 'key': 'u', 'origWidth': 409, 'origHeight': 409, 'width': 409, 'height': 409, 'widthPercent': 0.45, 'rescaleHeight': False, 'trialN': 32, 'loaded': True, 'loadedTime': 2863, 'positionName': 'LEFT', 'positionCoords': [512.6, 335.5], 'bid': 4.01}, {'imgObject': {}, 'id': 'raspberries', 'src': '/static/foodstim60/raspberries.jpg', 'key': 'i', 'origWidth': 411, 'origHeight': 411, 'width': 411, 'height': 411, 'widthPercent': 0.45, 'rescaleHeight': False, 'trialN': 32, 'loaded': True, 'loadedTime': 2886, 'positionName': 'RIGHT', 'positionCoords': [998.4, 334.5], 'bid': 7.61}]",75848,1669853671999,eggs,raspberries,4.01,7.61,3.6000000000000005,raspberries,3323,3324,3324.0,True,i,79676,3828,1669853675828,3829,HRV,HRV_0322,2022-12-01 00:20:09
33,"[{'imgObject': {}, 'id': 'raisin bran w milk', 'src': '/static/foodstim60/raisin bran w milk.jpg', 'key': 'u', 'origWidth': 411, 'origHeight': 411, 'width': 411, 'height': 411, 'widthPercent': 0.45, 'rescaleHeight': False, 'trialN': 33, 'loaded': True, 'loadedTime': 2864, 'positionName': 'LEFT', 'positionCoords': [510.6, 334.5], 'bid': 2.7}, {'imgObject': {}, 'id': 'edamame', 'src': '/static/foodstim60/edamame.jpg', 'key': 'i', 'origWidth': 409, 'origHeight': 410, 'width': 409, 'height': 410, 'widthPercent': 0.45, 'rescaleHeight': False, 'trialN': 33, 'loaded': True, 'loadedTime': 2879, 'positionName': 'RIGHT', 'positionCoords': [998.4, 335], 'bid': 0.2}]",79677,1669853675828,raisin bran w milk,edamame,2.7,0.2,-2.5,raisin bran w milk,1009,1022,1022.0,True,u,81199,1522,1669853677350,1522,HRV,HRV_0322,2022-12-01 00:20:09
34,"[{'imgObject': {}, 'id': 'kiwi', 'src': '/static/foodstim60/kiwi.jpg', 'key': 'u', 'origWidth': 410, 'origHeight': 410, 'width': 410, 'height': 410, 'widthPercent': 0.45, 'rescaleHeight': False, 'trialN': 34, 'loaded': True, 'loadedTime': 2893, 'positionName': 'LEFT', 'positionCoords': [511.6, 335], 'bid': 5.37}, {'imgObject': {}, 'id': 'mashed potato', 'src': '/static/foodstim60/mashed potato.jpg', 'key': 'i', 'origWidth': 409, 'origHeight': 409, 'width': 409, 'height': 409, 'widthPercent': 0.45, 'rescaleHeight': False, 'trialN': 34, 'loaded': True, 'loadedTime': 2883, 'positionName': 'RIGHT', 'positionCoords': [998.4, 335.5], 'bid': 5.89}]",81200,1669853677350,kiwi,mashed potato,5.37,5.89,0.5199999999999996,NaN,NaN,NaN,,False,NaN,85212,4012,1669853681363,4013,HRV,HRV_0322,2022-12-01 00:20:09
35,"[{'imgObject': {}, 'id': 'salad w chicken', 'src': '/static/foodstim60/salad w chicken.jpg', 'key': 'u', 'origWidth': 411, 'origHeight': 411, 'width': 411, 'height': 411, 'widthPercent': 0.45, 'rescaleHeight': False, 'trialN': 35, 'loaded': True, 'loadedTime': 2889, 'positionName': 'LEFT', 'positionCoords': [510.6, 334.5], 'bid': 6.87}, {'imgObject': {}, 'id': 'banana', 'src': '/static/foodstim60/banana.jpg', 'key': 'i', 'origWidth': 410, 'origHeight': 410, 'width': 410, 'height': 410, 'widthPercent': 0.45, 'rescaleHeight': False, 'trialN': 35, 'loaded': True, 'loadedTime': 2873, 'positionName': 'RIGHT', 'positionCoords': [998.4, 335], 'bid': 7.33}]",85212,1669853681364,salad w chicken,banana,6.87,7.33,0.45999999999999996,salad w chicken,1412,1424,1426.0,True,u,87149,1937,1669853683300,1936,HRV,HRV_0322,2022-12-01 00:20:09
36,"[{'imgObject': {}, 'id': 'shreddedwheatwithmilk', 'src': '/static/foodstim60/shreddedwheatwithmilk.jpg', 'key': 'u', 'origWidth': 410, 'origHeight': 410, 'width': 410, 'height': 410, 'widthPercent': 0.45, 'rescaleHeight': False, 'trialN': 36, 'loaded': True, 'loadedTime': 2893, 'positionName': 'LEFT', 'positionCoords': [511.6, 335], 'bid': 1.83}, {'imgObject': {}, 'id': 'sweetpotato', 'src': '/static/foodstim60/sweetpotato.jpg', 'key': 'i', 'origWidth': 410, 'origHeight': 410, 'width': 410, 'height': 410, 'widthPercent': 0.45, 'rescaleHeight': False, 'trialN': 36, 'loaded': True, 'loadedTime': 2878, 'positionName': 'RIGHT', 'positionCoords': [998.4, 335], 'bid': 3.77}]",87149,1669853683300,shreddedwheatwithmilk,sweetpotato,1.83,3.77,1.94,sweetpotato,2911,2914,2914.0,True,i,90578,3429,1669853686729,3429,HRV,HRV_0322,2022-12-01 00:20:09
37,"[{'imgObject': {}, 'id': 'salad w chicken', 'src': '/static/foodstim60/salad w chicken.jpg', 'key': 'u', 'origWidth': 411, 'origHeight': 411, 'width': 411, 'height': 411, 'widthPercent': 0.45, 'rescaleHeight': False, 'trialN': 37, 'loaded': True, 'loadedTime': 2889, 'positionName': 'LEFT', 'positionCoords': [510.6, 334.5], 'bid': 6.87}, {'imgObject': {}, 'id': 'cantaloupe', 'src': '/static/foodstim60/cantaloupe.jpg', 'key': 'i', 'origWidth': 409, 'origHeight': 409, 'width': 409, 'height': 409, 'widthPercent': 0.45, 'rescaleHeight': False, 'trialN': 37, 'loaded': True, 'loadedTime': 2885, 'positionName': 'RIGHT', 'positionCoords': [998.4, 335.5], 'bid': 6.88}]",90578,1669853686729,salad w chicken,cantaloupe,6.87,6.88,0.009999999999999787,salad w chicken,2171,2181,2180.0,True,u,93269,2691,1669853689421,2692,HRV,HRV_0322,2022-12-01 00:20:09
38,"[{'imgObject': {}, 'id': 'Grapes', 'src': '/static/foodstim60/Grapes.jpg', 'key': 'u', 'origWidth': 411, 'origHeight': 411, 'width': 411, 'height': 411, 'widthPercent': 0.45, 'rescaleHeight': False, 'trialN': 38, 'loaded': True, 'loadedTime': 2894, 'positionName': 'LEFT', 'positionCoords': [510.6, 334.5], 'bid': 7.29}, {'imgObject': {}, 'id': 'chicken nuggets2', 'src': '/static/foodstim60/chicken nuggets2.jpg', 'key': 'i', 'origWidth': 410, 'origHeight': 409, 'width': 410, 'height': 409, 'widthPercent': 0.45, 'rescaleHeight': False, 'trialN': 38, 'loaded': True, 'loadedTime': 2868, 'positionName': 'RIGHT', 'positionCoords': [998.4, 335.5], 'bid': 8.32}]",93269,1669853689421,Grapes,chicken nuggets2,7.29,8.32,1.0300000000000002,chicken nuggets2,823,838,838.0,True,i,94622,1353,1669853690774,1353,HRV,HRV_0322,2022-12-01 00:20:09
39,"[{'imgObject': {}, 'id': 'bagel and cc', 'src': '/static/foodstim60/bagel and cc.jpg', 'key': 'u', 'origWidth': 410, 'origHeight': 410, 'width': 410, 'height': 410, 'widthPercent': 0.45, 'rescaleHeight': False, 'trialN': 39, 'loaded': True, 'loadedTime': 2877, 'positionName': 'LEFT', 'positionCoords': [511.6, 335], 'bid': 2.41}, {'imgObject': {}, 'id': 'bagel plain', 'src': '/static/foodstim60/bagel plain.jpg', 'key': 'i', 'origWidth': 410, 'origHeight': 410, 'width': 410, 'height': 410, 'widthPercent': 0.45, 'rescaleHeight': False, 'trialN': 39, 'loaded': True, 'loadedTime': 2895, 'positionName': 'RIGHT', 'positionCoords': [998.4, 335], 'bid': 2.22}]",94622,1669853690774,bagel and cc,bagel plain,2.41,2.22,-0.18999999999999995,bagel and cc,1563,1569,1570.0,True,u,96698,2076,1669853692849,2075,HRV,HRV_0322,2022-12-01 00:20:09
40,"[{'imgObject': {}, 'id': 'froot loops w milk', 'src': '/static/foodstim60/froot loops w milk.jpg', 'key': 'u', 'origWidth': 410, 'origHeight': 410, 'width': 410, 'height': 410, 'widthPercent': 0.45, 'rescaleHeight': False, 'trialN': 40, 'loaded': True, 'loadedTime': 2896, 'positionName': 'LEFT', 'positionCoords': [511.6, 335], 'bid': 7.77}, {'imgObject': {}, 'id': 'turkeysandwich', 'src': '/static/foodstim60/turkeysandwich.jpg', 'key': 'i', 'origWidth': 409, 'origHeight': 409, 'width': 409, 'height': 409, 'widthPercent': 0.45, 'rescaleHeight': False, 'trialN': 40, 'loaded': True, 'loadedTime': 2887, 'positionName': 'RIGHT', 'positionCoords': [998.4, 335.5], 'bid': 7.62}]",96698,1669853692849,froot loops w milk,turkeysandwich,7.77,7.62,-0.14999999999999947,froot loops w milk,2348,2357,2358.0,True,u,99558,2860,1669853695709,2860,HRV,HRV_0322,2022-12-01 00:20:09
41,"[{'imgObject': {}, 'id': 'mac & cheese', 'src': '/static/foodstim60/mac & cheese.jpg', 'key': 'u', 'origWidth': 410, 'origHeight': 410, 'width': 410, 'height': 410, 'widthPercent': 0.45, 'rescaleHeight': False, 'trialN': 41, 'loaded': True, 'loadedTime': 2884, 'positionName': 'LEFT', 'positionCoords': [511.6, 335], 'bid': 8.33}, {'imgObject': {}, 'id': 'kiwi', 'src': '/static/foodstim60/kiwi.jpg', 'key': 'i', 'origWidth': 410, 'origHeight': 410, 'width': 410, 'height': 410, 'widthPercent': 0.45, 'rescaleHeight': False, 'trialN': 41, 'loaded': True, 'loadedTime': 2893, 'positionName': 'RIGHT', 'positionCoords': [998.4, 335], 'bid': 5.37}]",99558,1669853695709,mac & cheese,kiwi,8.33,5.37,-2.96,mac & cheese,894,898,898.0,True,u,100957,1399,1669853697108,1399,HRV,HRV_0322,2022-12-01 00:20:09
42,"[{'imgObject': {}, 'id': 'roastedpotatoes', 'src': '/static/foodstim60/roastedpotatoes.jpg', 'key': 'u', 'origWidth': 409, 'origHeight': 410, 'width': 409, 'height': 410, 'widthPercent': 0.45, 'rescaleHeight': False, 'trialN': 42, 'loaded': True, 'loadedTime': 2873, 'positionName': 'LEFT', 'positionCoords': [512.6, 335], 'bid': 5.43}, {'imgObject': {}, 'id': 'kiwi', 'src': '/static/foodstim60/kiwi.jpg', 'key': 'i', 'origWidth': 410, 'origHeight': 410, 'width': 410, 'height': 410, 'widthPercent': 0.45, 'rescaleHeight': False, 'trialN': 42, 'loaded': True, 'loadedTime': 2893, 'positionName': 'RIGHT', 'positionCoords': [998.4, 335], 'bid': 5.37}]",100957,1669853697108,roastedpotatoes,kiwi,5.43,5.37,-0.05999999999999961,roastedpotatoes,1260,1269,1269.0,True,u,102740,1783,1669853698892,1784,HRV,HRV_0322,2022-12-01 00:20:09
43,"[{'imgObject': {}, 'id': 'lox', 'src': '/static/foodstim60/lox.jpg', 'key': 'u', 'origWidth': 410, 'origHeight': 411, 'width': 410, 'height': 411, 'widthPercent': 0.45, 'rescaleHeight': False, 'trialN': 43, 'loaded': True, 'loadedTime': 2878, 'positionName': 'LEFT', 'positionCoords': [511.6, 334.5], 'bid': 2.53}, {'imgObject': {}, 'id': 'hashbrowns', 'src': '/static/foodstim60/hashbrowns.jpg', 'key': 'i', 'origWidth': 411, 'origHeight': 410, 'width': 411, 'height': 410, 'widthPercent': 0.45, 'rescaleHeight': False, 'trialN': 43, 'loaded': True, 'loadedTime': 2897, 'positionName': 'RIGHT', 'positionCoords': [998.4, 335], 'bid': 0.15}]",102740,1669853698892,lox,hashbrowns,2.53,0.15,-2.38,lox,2868,2882,2883.0,True,u,106123,3383,1669853702275,3383,HRV,HRV_0322,2022-12-01 00:20:09
44,"[{'imgObject': {}, 'id': 'cocktailshrimp', 'src': '/static/foodstim60/cocktailshrimp.jpg', 'key': 'u', 'origWidth': 410, 'origHeight': 410, 'width': 410, 'height': 410, 'widthPercent': 0.45, 'rescaleHeight': False, 'trialN': 44, 'loaded': True, 'loadedTime': 2898, 'positionName': 'LEFT', 'positionCoords': [511.6, 335], 'bid': 3.2}, {'imgObject': {}, 'id': 'seaweed', 'src': '/static/foodstim60/seaweed.jpg', 'key': 'i', 'origWidth': 410, 'origHeight': 410, 'width': 410, 'height': 410, 'widthPercent': 0.45, 'rescaleHeight': False, 'trialN': 44, 'loaded': True, 'loadedTime': 2899, 'positionName': 'RIGHT', 'positionCoords': [998.4, 335], 'bid': 0.02}]",106123,1669853702275,cocktailshrimp,seaweed,3.2,0.02,-3.18,cocktailshrimp,1188,1194,1195.0,True,u,107830,1707,1669853703981,1706,HRV,HRV_0322,2022-12-01 00:20:09
45,"[{'imgObject': {}, 'id': 'chicken nuggets2', 'src': '/static/foodstim60/chicken nuggets2.jpg', 'key': 'u', 'origWidth': 410, 'origHeight': 409, 'width': 410, 'height': 409, 'widthPercent': 0.45, 'rescaleHeight': False, 'trialN': 45, 'loaded': True, 'loadedTime': 2868, 'positionName': 'LEFT', 'positionCoords': [511.6, 335.5], 'bid': 8.32}, {'imgObject': {}, 'id': 'tacos', 'src': '/static/foodstim60/tacos.jpg', 'key': 'i', 'origWidth': 411, 'origHeight': 411, 'width': 411, 'height': 411, 'widthPercent': 0.45, 'rescaleHeight': False, 'trialN': 45, 'loaded': True, 'loadedTime': 2872, 'positionName': 'RIGHT', 'positionCoords': [998.4, 334.5], 'bid': 7.86}]",107830,1669853703981,chicken nuggets2,tacos,8.32,7.86,-0.45999999999999996,chicken nuggets2,1294,1299,1299.0,True,u,109629,1799,1669853705780,1799,HRV,HRV_0322,2022-12-01 00:20:09
46,"[{'imgObject': {}, 'id': 'lox', 'src': '/static/foodstim60/lox.jpg', 'key': 'u', 'origWidth': 410, 'origHeight': 411, 'width': 410, 'height': 411, 'widthPercent': 0.45, 'rescaleHeight': False, 'trialN': 46, 'loaded': True, 'loadedTime': 2878, 'positionName': 'LEFT', 'positionCoords': [511.6, 334.5], 'bid': 2.53}, {'imgObject': {}, 'id': 'cantaloupe', 'src': '/static/foodstim60/cantaloupe.jpg', 'key': 'i', 'origWidth': 409, 'origHeight': 409, 'width': 409, 'height': 409, 'widthPercent': 0.45, 'rescaleHeight': False, 'trialN': 46, 'loaded': True, 'loadedTime': 2885, 'positionName': 'RIGHT', 'positionCoords': [998.4, 335.5], 'bid': 6.88}]",109629,1669853705780,lox,cantaloupe,2.53,6.88,4.35,cantaloupe,1370,1378,1378.0,True,i,111521,1892,1669853707672,1892,HRV,HRV_0322,2022-12-01 00:20:09
47,"[{'imgObject': {}, 'id': 'orange slices', 'src': '/static/foodstim60/orange slices.jpg', 'key': 'u', 'origWidth': 409, 'origHeight': 410, 'width': 409, 'height': 410, 'widthPercent': 0.45, 'rescaleHeight': False, 'trialN': 47, 'loaded': True, 'loadedTime': 2899, 'positionName': 'LEFT', 'positionCoords': [512.6, 335], 'bid': 6.26}, {'imgObject': {}, 'id': 'blueberries', 'src': '/static/foodstim60/blueberries.jpg', 'key': 'i', 'origWidth': 411, 'origHeight': 411, 'width': 411, 'height': 411, 'widthPercent': 0.45, 'rescaleHeight': False, 'trialN': 47, 'loaded': True, 'loadedTime': 2891, 'positionName': 'RIGHT', 'positionCoords': [998.4, 334.5], 'bid': 5}]",111521,1669853707672,orange slices,blueberries,6.26,5.0,-1.2599999999999998,orange slices,2446,2457,2457.0,True,u,114488,2967,1669853710639,2967,HRV,HRV_0322,2022-12-01 00:20:09
48,"[{'imgObject': {}, 'id': 'luckycharms', 'src': '/static/foodstim60/luckycharms.jpg', 'key': 'u', 'origWidth': 410, 'origHeight': 409, 'width': 410, 'height': 409, 'widthPercent': 0.45, 'rescaleHeight': False, 'trialN': 48, 'loaded': True, 'loadedTime': 2883, 'positionName': 'LEFT', 'positionCoords': [511.6, 335.5], 'bid': 8.56}, {'imgObject': {}, 'id': 'froot loops w milk', 'src': '/static/foodstim60/froot loops w milk.jpg', 'key': 'i', 'origWidth': 410, 'origHeight': 410, 'width': 410, 'height': 410, 'widthPercent': 0.45, 'rescaleHeight': False, 'trialN': 48, 'loaded': True, 'loadedTime': 2897, 'positionName': 'RIGHT', 'positionCoords': [998.4, 335], 'bid': 7.77}]",114488,1669853710639,luckycharms,froot loops w milk,8.56,7.77,-0.7900000000000009,froot loops w milk,2947,2965,2964.0,True,i,117963,3475,1669853714114,3475,HRV,HRV_0322,2022-12-01 00:20:09
49,"[{'imgObject': {}, 'id': 'rigatoni and sauce', 'src': '/static/foodstim60/rigatoni and sauce.jpg', 'key': 'u', 'origWidth': 410, 'origHeight': 411, 'width': 410, 'height': 411, 'widthPercent': 0.45, 'rescaleHeight': False, 'trialN': 49, 'loaded': True, 'loadedTime': 2900, 'positionName': 'LEFT', 'positionCoords': [511.6, 334.5], 'bid': 6.63}, {'imgObject': {}, 'id': 'yogurt no spoon', 'src': '/static/foodstim60/yogurt no spoon.jpg', 'key': 'i', 'origWidth': 411, 'origHeight': 410, 'width': 411, 'height': 410, 'widthPercent': 0.45, 'rescaleHeight': False, 'trialN': 49, 'loaded': True, 'loadedTime': 2901, 'positionName': 'RIGHT', 'positionCoords': [998.4, 335], 'bid': 7.0200000000000005}]",117963,1669853714115,rigatoni and sauce,yogurt no spoon,6.63,7.0200000000000005,0.39000000000000057,yogurt no spoon,1739,1749,1750.0,True,i,120224,2261,1669853716375,2260,HRV,HRV_0322,2022-12-01 00:20:09
50,"[{'imgObject': {}, 'id': 'luckycharms', 'src': '/static/foodstim60/luckycharms.jpg', 'key': 'u', 'origWidth': 410, 'origHeight': 409, 'width': 410, 'height': 409, 'widthPercent': 0.45, 'rescaleHeight': False, 'trialN': 50, 'loaded': True, 'loadedTime': 2883, 'positionName': 'LEFT', 'positionCoords': [511.6, 335.5], 'bid': 8.56}, {'imgObject': {}, 'id': 'roastedpotatoes', 'src': '/static/foodstim60/roastedpotatoes.jpg', 'key': 'i', 'origWidth': 409, 'origHeight': 410, 'width': 409, 'height': 410, 'widthPercent': 0.45, 'rescaleHeight': False, 'trialN': 50, 'loaded': True, 'loadedTime': 2873, 'positionName': 'RIGHT', 'positionCoords': [998.4, 335], 'bid': 5.43}]",120224,1669853716375,luckycharms,roastedpotatoes,8.56,5.43,-3.130000000000001,luckycharms,1431,1439,1439.0,True,u,122177,1953,1669853718327,1952,HRV,HRV_0322,2022-12-01 00:20:09
51,"[{'imgObject': {}, 'id': 'tacos', 'src': '/static/foodstim60/tacos.jpg', 'key': 'u', 'origWidth': 411, 'origHeight': 411, 'width': 411, 'height': 411, 'widthPercent': 0.45, 'rescaleHeight': False, 'trialN': 51, 'loaded': True, 'loadedTime': 2872, 'positionName': 'LEFT', 'positionCoords': [510.6, 334.5], 'bid': 7.86}, {'imgObject': {}, 'id': 'steak', 'src': '/static/foodstim60/steak.jpg', 'key': 'i', 'origWidth': 410, 'origHeight': 410, 'width': 410, 'height': 410, 'widthPercent': 0.45, 'rescaleHeight': False, 'trialN': 51, 'loaded': True, 'loadedTime': 2902, 'positionName': 'RIGHT', 'positionCoords': [998.4, 335], 'bid': 9.26}]",122177,1669853718328,tacos,steak,7.86,9.26,1.3999999999999995,steak,2509,2513,2513.0,True,i,125205,3028,1669853721356,3028,HRV,HRV_0322,2022-12-01 00:20:09
52,"[{'imgObject': {}, 'id': 'mango', 'src': '/static/foodstim60/mango.jpg', 'key': 'u', 'origWidth': 411, 'origHeight': 411, 'width': 411, 'height': 411, 'widthPercent': 0.45, 'rescaleHeight': False, 'trialN': 52, 'loaded': True, 'loadedTime': 2880, 'positionName': 'LEFT', 'positionCoords': [510.6, 334.5], 'bid': 6.43}, {'imgObject': {}, 'id': 'fruitsalad', 'src': '/static/foodstim60/fruitsalad.jpg', 'key': 'i', 'origWidth': 410, 'origHeight': 410, 'width': 410, 'height': 410, 'widthPercent': 0.45, 'rescaleHeight': False, 'trialN': 52, 'loaded': True, 'loadedTime': 2876, 'positionName': 'RIGHT', 'positionCoords': [998.4, 335], 'bid': 6.9}]",125205,1669853721356,mango,fruitsalad,6.43,6.9,0.47000000000000064,fruitsalad,2637,2639,2639.0,True,i,128357,3152,1669853724509,3153,HRV,HRV_0322,2022-12-01 00:20:09
53,"[{'imgObject': {}, 'id': 'burrito', 'src': '/static/foodstim60/burrito.jpg', 'key': 'u', 'origWidth': 410, 'origHeight': 410, 'width': 410, 'height': 410, 'widthPercent': 0.45, 'rescaleHeight': False, 'trialN': 53, 'loaded': True, 'loadedTime': 2862, 'positionName': 'LEFT', 'positionCoords': [511.6, 335], 'bid': 7}, {'imgObject': {}, 'id': 'grilled chicken strips', 'src': '/static/foodstim60/grilled chicken strips.jpg', 'key': 'i', 'origWidth': 410, 'origHeight': 411, 'width': 410, 'height': 411, 'widthPercent': 0.45, 'rescaleHeight': False, 'trialN': 53, 'loaded': True, 'loadedTime': 2871, 'positionName': 'RIGHT', 'positionCoords': [998.4, 334.5], 'bid': 6.57}]",128357,1669853724509,burrito,grilled chicken strips,7.0,6.57,-0.4299999999999997,burrito,2173,2178,2179.0,True,u,131048,2691,1669853727199,2690,HRV,HRV_0322,2022-12-01 00:20:09
54,"[{'imgObject': {}, 'id': 'steak', 'src': '/static/foodstim60/steak.jpg', 'key': 'u', 'origWidth': 410, 'origHeight': 410, 'width': 410, 'height': 410, 'widthPercent': 0.45, 'rescaleHeight': False, 'trialN': 54, 'loaded': True, 'loadedTime': 2903, 'positionName': 'LEFT', 'positionCoords': [511.6, 335], 'bid': 9.26}, {'imgObject': {}, 'id': 'luckycharms', 'src': '/static/foodstim60/luckycharms.jpg', 'key': 'i', 'origWidth': 410, 'origHeight': 409, 'width': 410, 'height': 409, 'widthPercent': 0.45, 'rescaleHeight': False, 'trialN': 54, 'loaded': True, 'loadedTime': 2883, 'positionName': 'RIGHT', 'positionCoords': [998.4, 335.5], 'bid': 8.56}]",131048,1669853727199,steak,luckycharms,9.26,8.56,-0.6999999999999993,steak,1340,1347,1346.0,True,u,132909,1861,1669853729059,1860,HRV,HRV_0322,2022-12-01 00:20:09
55,"[{'imgObject': {}, 'id': 'sushi w_condiments', 'src': '/static/foodstim60/sushi w_condiments.jpg', 'key': 'u', 'origWidth': 410, 'origHeight': 410, 'width': 410, 'height': 410, 'widthPercent': 0.45, 'rescaleHeight': False, 'trialN': 55, 'loaded': True, 'loadedTime': 2881, 'positionName': 'LEFT', 'positionCoords': [511.6, 335], 'bid': 0.76}, {'imgObject': {}, 'id': 'cherry tomato', 'src': '/static/foodstim60/cherry tomato.jpg', 'key': 'i', 'origWidth': 410, 'origHeight': 410, 'width': 410, 'height': 410, 'widthPercent': 0.45, 'rescaleHeight': False, 'trialN': 55, 'loaded': True, 'loadedTime': 2903, 'positionName': 'RIGHT', 'positionCoords': [998.4, 335], 'bid': 1.08}]",132909,1669853729059,sushi w_condiments,cherry tomato,0.76,1.08,0.32000000000000006,sushi w_condiments,2870,2876,2875.0,True,u,136291,3382,1669853732442,3383,HRV,HRV_0322,2022-12-01 00:20:09
56,"[{'imgObject': {}, 'id': 'olives', 'src': '/static/foodstim60/olives.jpg', 'key': 'u', 'origWidth': 410, 'origHeight': 410, 'width': 410, 'height': 410, 'widthPercent': 0.45, 'rescaleHeight': False, 'trialN': 56, 'loaded': True, 'loadedTime': 2865, 'positionName': 'LEFT', 'positionCoords': [511.6, 335], 'bid': 4.98}, {'imgObject': {}, 'id': 'sweetpotato', 'src': '/static/foodstim60/sweetpotato.jpg', 'key': 'i', 'origWidth': 410, 'origHeight': 410, 'width': 410, 'height': 410, 'widthPercent': 0.45, 'rescaleHeight': False, 'trialN': 56, 'loaded': True, 'loadedTime': 2878, 'positionName': 'RIGHT', 'positionCoords': [998.4, 335], 'bid': 3.77}]",136292,1669853732442,olives,sweetpotato,4.98,3.77,-1.2100000000000004,sweetpotato,2143,2162,2160.0,True,i,138967,2675,1669853735117,2675,HRV,HRV_0322,2022-12-01 00:20:09
57,"[{'imgObject': {}, 'id': 'Grapes', 'src': '/static/foodstim60/Grapes.jpg', 'key': 'u', 'origWidth': 411, 'origHeight': 411, 'width': 411, 'height': 411, 'widthPercent': 0.45, 'rescaleHeight': False, 'trialN': 57, 'loaded': True, 'loadedTime': 2895, 'positionName': 'LEFT', 'positionCoords': [510.6, 334.5], 'bid': 7.29}, {'imgObject': {}, 'id': 'burger', 'src': '/static/foodstim60/burger.jpg', 'key': 'i', 'origWidth': 409, 'origHeight': 409, 'width': 409, 'height': 409, 'widthPercent': 0.45, 'rescaleHeight': False, 'trialN': 57, 'loaded': True, 'loadedTime': 2892, 'positionName': 'RIGHT', 'positionCoords': [998.4, 335.5], 'bid': 6.71}]",138967,1669853735117,Grapes,burger,7.29,6.71,-0.5800000000000001,Grapes,2579,2584,2583.0,True,u,142058,3091,1669853738208,3091,HRV,HRV_0322,2022-12-01 00:20:09
58,"[{'imgObject': {}, 'id': 'edamame', 'src': '/static/foodstim60/edamame.jpg', 'key': 'u', 'origWidth': 409, 'origHeight': 410, 'width': 409, 'height': 410, 'widthPercent': 0.45, 'rescaleHeight': False, 'trialN': 58, 'loaded': True, 'loadedTime': 2879, 'positionName': 'LEFT', 'positionCoords': [512.6, 335], 'bid': 0.2}, {'imgObject': {}, 'id': 'seaweed', 'src': '/static/foodstim60/seaweed.jpg', 'key': 'i', 'origWidth': 410, 'origHeight': 410, 'width': 410, 'height': 410, 'widthPercent': 0.45, 'rescaleHeight': False, 'trialN': 58, 'loaded': True, 'loadedTime': 2899, 'positionName': 'RIGHT', 'positionCoords': [998.4, 335], 'bid': 0.02}]",142058,1669853738208,edamame,seaweed,0.2,0.02,-0.18000000000000002,edamame,2066,2069,2068.0,True,u,144641,2583,1669853740792,2584,HRV,HRV_0322,2022-12-01 00:20:09
59,"[{'imgObject': {}, 'id': 'mac & cheese', 'src': '/static/foodstim60/mac & cheese.jpg', 'key': 'u', 'origWidth': 410, 'origHeight': 410, 'width': 410, 'height': 410, 'widthPercent': 0.45, 'rescaleHeight': False, 'trialN': 59, 'loaded': True, 'loadedTime': 2884, 'positionName': 'LEFT', 'positionCoords': [511.6, 335], 'bid': 8.33}, {'imgObject': {}, 'id': 'turkey sandwich', 'src': '/static/foodstim60/turkey sandwich.jpg', 'key': 'i', 'origWidth': 409, 'origHeight': 409, 'width': 409, 'height': 409, 'widthPercent': 0.45, 'rescaleHeight': False, 'trialN': 59, 'loaded': True, 'loadedTime': 2888, 'positionName': 'RIGHT', 'positionCoords': [998.4, 335.5], 'bid': 8.83}]",144641,1669853740792,mac & cheese,turkey sandwich,8.33,8.83,0.5,mac & cheese,1530,1532,1531.0,True,u,146686,2045,1669853742836,2044,HRV,HRV_0322,2022-12-01 00:20:09
60,"[{'imgObject': {}, 'id': 'apple slices', 'src': '/static/foodstim60/apple slices.jpg', 'key': 'u', 'origWidth': 409, 'origHeight': 410, 'width': 409, 'height': 410, 'widthPercent': 0.45, 'rescaleHeight': False, 'trialN': 60, 'loaded': True, 'loadedTime': 2873, 'positionName': 'LEFT', 'positionCoords': [512.6, 335], 'bid': 4.23}, {'imgObject': {}, 'id': 'chickenfingers', 'src': '/static/foodstim60/chickenfingers.jpg', 'key': 'i', 'origWidth': 410, 'origHeight': 410, 'width': 410, 'height': 410, 'widthPercent': 0.45, 'rescaleHeight': False, 'trialN': 60, 'loaded': True, 'loadedTime': 2892, 'positionName': 'RIGHT', 'positionCoords': [998.4, 335], 'bid': 7.61}]",146686,1669853742836,apple slices,chickenfingers,4.23,7.61,3.38,chickenfingers,1469,1481,1481.0,True,i,148669,1983,1669853744820,1984,HRV,HRV_0322,2022-12-01 00:20:09
61,"[{'imgObject': {}, 'id': 'pear', 'src': '/static/foodstim60/pear.jpg', 'key': 'u', 'origWidth': 411, 'origHeight': 410, 'width': 411, 'height': 410, 'widthPercent': 0.45, 'rescaleHeight': False, 'trialN': 61, 'loaded': True, 'loadedTime': 2904, 'positionName': 'LEFT', 'positionCoords': [510.6, 335], 'bid': 4.94}, {'imgObject': {}, 'id': 'cocktailshrimp', 'src': '/static/foodstim60/cocktailshrimp.jpg', 'key': 'i', 'origWidth': 410, 'origHeight': 410, 'width': 410, 'height': 410, 'widthPercent': 0.45, 'rescaleHeight': False, 'trialN': 61, 'loaded': True, 'loadedTime': 2899, 'positionName': 'RIGHT', 'positionCoords': [998.4, 335], 'bid': 3.2}]",148669,1669853744820,pear,cocktailshrimp,4.94,3.2,-1.7400000000000002,NaN,NaN,NaN,,False,NaN,152682,4013,1669853748833,4013,HRV,HRV_0322,2022-12-01 00:20:09
62,"[{'imgObject': {}, 'id': 'froot loops w milk', 'src': '/static/foodstim60/froot loops w milk.jpg', 'key': 'u', 'origWidth': 410, 'origHeight': 410, 'width': 410, 'height': 410, 'widthPercent': 0.45, 'rescaleHeight': False, 'trialN': 62, 'loaded': True, 'loadedTime': 2897, 'positionName': 'LEFT', 'positionCoords': [511.6, 335], 'bid': 7.77}, {'imgObject': {}, 'id': 'pear', 'src': '/static/foodstim60/pear.jpg', 'key': 'i', 'origWidth': 411, 'origHeight': 410, 'width': 411, 'height': 410, 'widthPercent': 0.45, 'rescaleHeight': False, 'trialN': 62, 'loaded': True, 'loadedTime': 2905, 'positionName': 'RIGHT', 'positionCoords': [998.4, 335], 'bid': 4.94}]",152682,1669853748833,froot loops w milk,pear,7.77,4.94,-2.829999999999999,froot loops w milk,2426,2431,2431.0,True,u,155619,2937,1669853751770,2937,HRV,HRV_0322,2022-12-01 00:20:09
63,"[{'imgObject': {}, 'id': 'strawberries', 'src': '/static/foodstim60/strawberries.jpg', 'key': 'u', 'origWidth': 410, 'origHeight': 410, 'width': 410, 'height': 410, 'widthPercent': 0.45, 'rescaleHeight': False, 'trialN': 63, 'loaded': True, 'loadedTime': 2870, 'positionName': 'LEFT', 'positionCoords': [511.6, 335], 'bid': 7.78}, {'imgObject': {}, 'id': 'cherries', 'src': '/static/foodstim60/cherries.jpg', 'key': 'i', 'origWidth': 410, 'origHeight': 411, 'width': 410, 'height': 411, 'widthPercent': 0.45, 'rescaleHeight': False, 'trialN': 63, 'loaded': True, 'loadedTime': 2905, 'positionName': 'RIGHT', 'positionCoords': [998.4, 334.5], 'bid': 4.95}]",155619,1669853751770,strawberries,cherries,7.78,4.95,-2.83,strawberries,1927,1943,1942.0,True,u,158064,2445,1669853754215,2445,HRV,HRV_0322,2022-12-01 00:20:09
64,"[{'imgObject': {}, 'id': 'fruitsalad', 'src': '/static/foodstim60/fruitsalad.jpg', 'key': 'u', 'origWidth': 410, 'origHeight': 410, 'width': 410, 'height': 410, 'widthPercent': 0.45, 'rescaleHeight': False, 'trialN': 64, 'loaded': True, 'loadedTime': 2876, 'positionName': 'LEFT', 'positionCoords': [511.6, 335], 'bid': 6.9}, {'imgObject': {}, 'id': 'salad w chicken', 'src': '/static/foodstim60/salad w chicken.jpg', 'key': 'i', 'origWidth': 411, 'origHeight': 411, 'width': 411, 'height': 411, 'widthPercent': 0.45, 'rescaleHeight': False, 'trialN': 64, 'loaded': True, 'loadedTime': 2889, 'positionName': 'RIGHT', 'positionCoords': [998.4, 334.5], 'bid': 6.87}]",158064,1669853754215,fruitsalad,salad w chicken,6.9,6.87,-0.03000000000000025,salad w chicken,2527,2537,2537.0,True,i,161108,3044,1669853757259,3044,HRV,HRV_0322,2022-12-01 00:20:09
65,"[{'imgObject': {}, 'id': 'orange slices', 'src': '/static/foodstim60/orange slices.jpg', 'key': 'u', 'origWidth': 409, 'origHeight': 410, 'width': 409, 'height': 410, 'widthPercent': 0.45, 'rescaleHeight': False, 'trialN': 65, 'loaded': True, 'loadedTime': 2900, 'positionName': 'LEFT', 'positionCoords': [512.6, 335], 'bid': 6.26}, {'imgObject': {}, 'id': 'chickenfingers', 'src': '/static/foodstim60/chickenfingers.jpg', 'key': 'i', 'origWidth': 410, 'origHeight': 410, 'width': 410, 'height': 410, 'widthPercent': 0.45, 'rescaleHeight': False, 'trialN': 65, 'loaded': True, 'loadedTime': 2892, 'positionName': 'RIGHT', 'positionCoords': [998.4, 335], 'bid': 7.61}]",161108,1669853757259,orange slices,chickenfingers,6.26,7.61,1.3500000000000005,chickenfingers,1250,1263,1263.0,True,i,162877,1769,1669853759027,1768,HRV,HRV_0322,2022-12-01 00:20:09
66,"[{'imgObject': {}, 'id': 'burger', 'src': '/static/foodstim60/burger.jpg', 'key': 'u', 'origWidth': 409, 'origHeight': 409, 'width': 409, 'height': 409, 'widthPercent': 0.45, 'rescaleHeight': False, 'trialN': 66, 'loaded': True, 'loadedTime': 2892, 'positionName': 'LEFT', 'positionCoords': [512.6, 335.5], 'bid': 6.71}, {'imgObject': {}, 'id': 'cheerios', 'src': '/static/foodstim60/cheerios.jpg', 'key': 'i', 'origWidth': 409, 'origHeight': 410, 'width': 409, 'height': 410, 'widthPercent': 0.45, 'rescaleHeight': False, 'trialN': 66, 'loaded': True, 'loadedTime': 2906, 'positionName': 'RIGHT', 'positionCoords': [998.4, 335], 'bid': 2.35}]",162877,1669853759027,burger,cheerios,6.71,2.35,-4.359999999999999,burger,1214,1230,1229.0,True,u,164613,1736,1669853760765,1738,HRV,HRV_0322,2022-12-01 00:20:09
67,"[{'imgObject': {}, 'id': 'blackbeanswithrice', 'src': '/static/foodstim60/blackbeanswithrice.jpg', 'key': 'u', 'origWidth': 410, 'origHeight': 410, 'width': 410, 'height': 410, 'widthPercent': 0.45, 'rescaleHeight': False, 'trialN': 67, 'loaded': True, 'loadedTime': 2907, 'positionName': 'LEFT', 'positionCoords': [511.6, 335], 'bid': 1.3}, {'imgObject': {}, 'id': 'baked potato', 'src': '/static/foodstim60/baked potato.jpg', 'key': 'i', 'origWidth': 409, 'origHeight': 410, 'width': 409, 'height': 410, 'widthPercent': 0.45, 'rescaleHeight': False, 'trialN': 67, 'loaded': True, 'loadedTime': 2874, 'positionName': 'RIGHT', 'positionCoords': [998.4, 335], 'bid': 3.77}]",164614,1669853760765,blackbeanswithrice,baked potato,1.3,3.77,2.4699999999999998,baked potato,1243,1247,1247.0,True,i,166367,1753,1669853762517,1752,HRV,HRV_0322,2022-12-01 00:20:09
68,"[{'imgObject': {}, 'id': 'chickenfingers', 'src': '/static/foodstim60/chickenfingers.jpg', 'key': 'u', 'origWidth': 410, 'origHeight': 410, 'width': 410, 'height': 410, 'widthPercent': 0.45, 'rescaleHeight': False, 'trialN': 68, 'loaded': True, 'loadedTime': 2892, 'positionName': 'LEFT', 'positionCoords': [511.6, 335], 'bid': 7.61}, {'imgObject': {}, 'id': 'froot loops w milk', 'src': '/static/foodstim60/froot loops w milk.jpg', 'key': 'i', 'origWidth': 410, 'origHeight': 410, 'width': 410, 'height': 410, 'widthPercent': 0.45, 'rescaleHeight': False, 'trialN': 68, 'loaded': True, 'loadedTime': 2897, 'positionName': 'RIGHT', 'positionCoords': [998.4, 335], 'bid': 7.77}]",166367,1669853762517,chickenfingers,froot loops w milk,7.61,7.77,0.15999999999999925,froot loops w milk,1865,1879,1878.0,True,i,168750,2383,1669853764901,2384,HRV,HRV_0322,2022-12-01 00:20:09
69,"[{'imgObject': {}, 'id': 'baked potato', 'src': '/static/foodstim60/baked potato.jpg', 'key': 'u', 'origWidth': 409, 'origHeight': 410, 'width': 409, 'height': 410, 'widthPercent': 0.45, 'rescaleHeight': False, 'trialN': 69, 'loaded': True, 'loadedTime': 2874, 'positionName': 'LEFT', 'positionCoords': [512.6, 335], 'bid': 3.77}, {'imgObject': {}, 'id': 'cherries', 'src': '/static/foodstim60/cherries.jpg', 'key': 'i', 'origWidth': 410, 'origHeight': 411, 'width': 410, 'height': 411, 'widthPercent': 0.45, 'rescaleHeight': False, 'trialN': 69, 'loaded': True, 'loadedTime': 2906, 'positionName': 'RIGHT', 'positionCoords': [998.4, 334.5], 'bid': 4.95}]",168751,1669853764901,baked potato,cherries,3.77,4.95,1.1800000000000002,cherries,1732,1737,1736.0,True,i,170995,2244,1669853767146,2245,HRV,HRV_0322,2022-12-01 00:20:09
70,"[{'imgObject': {}, 'id': 'turkeysandwich', 'src': '/static/foodstim60/turkeysandwich.jpg', 'key': 'u', 'origWidth': 409, 'origHeight': 409, 'width': 409, 'height': 409, 'widthPercent': 0.45, 'rescaleHeight': False, 'trialN': 70, 'loaded': True, 'loadedTime': 2887, 'positionName': 'LEFT', 'positionCoords': [512.6, 335.5], 'bid': 7.62}, {'imgObject': {}, 'id': 'popsicles', 'src': '/static/foodstim60/popsicles.jpg', 'key': 'i', 'origWidth': 410, 'origHeight': 410, 'width': 410, 'height': 410, 'widthPercent': 0.45, 'rescaleHeight': False, 'trialN': 70, 'loaded': True, 'loadedTime': 2908, 'positionName': 'RIGHT', 'positionCoords': [998.4, 335], 'bid': 6.2700000000000005}]",170995,1669853767146,turkeysandwich,popsicles,7.62,6.2700000000000005,-1.3499999999999996,turkeysandwich,2176,2187,2187.0,True,u,173686,2691,1669853769837,2691,HRV,HRV_0322,2022-12-01 00:20:09
71,"[{'imgObject': {}, 'id': 'orange slices', 'src': '/static/foodstim60/orange slices.jpg', 'key': 'u', 'origWidth': 409, 'origHeight': 410, 'width': 409, 'height': 410, 'widthPercent': 0.45, 'rescaleHeight': False, 'trialN': 71, 'loaded': True, 'loadedTime': 2900, 'positionName': 'LEFT', 'positionCoords': [512.6, 335], 'bid': 6.26}, {'imgObject': {}, 'id': 'Tribe humus pita', 'src': '/static/foodstim60/Tribe humus pita.jpg', 'key': 'i', 'origWidth': 411, 'origHeight': 411, 'width': 411, 'height': 411, 'widthPercent': 0.45, 'rescaleHeight': False, 'trialN': 71, 'loaded': True, 'loadedTime': 2889, 'positionName': 'RIGHT', 'positionCoords': [998.4, 334.5], 'bid': 5.64}]",173686,1669853769837,orange slices,Tribe humus pita,6.26,5.64,-0.6200000000000001,orange slices,2469,2483,2483.0,True,u,176684,2998,1669853772835,2998,HRV,HRV_0322,2022-12-01 00:20:09
72,"[{'imgObject': {}, 'id': 'rigatoni', 'src': '/static/foodstim60/rigatoni.jpg', 'key': 'u', 'origWidth': 411, 'origHeight': 411, 'width': 411, 'height': 411, 'widthPercent': 0.45, 'rescaleHeight': False, 'trialN': 72, 'loaded': True, 'loadedTime': 2909, 'positionName': 'LEFT', 'positionCoords': [510.6, 334.5], 'bid': 3.03}, {'imgObject': {}, 'id': 'salmon', 'src': '/static/foodstim60/salmon.jpg', 'key': 'i', 'origWidth': 410, 'origHeight': 409, 'width': 410, 'height': 409, 'widthPercent': 0.45, 'rescaleHeight': False, 'trialN': 72, 'loaded': True, 'loadedTime': 2910, 'positionName': 'RIGHT', 'positionCoords': [998.4, 335.5], 'bid': 5.66}]",176684,1669853772835,rigatoni,salmon,3.03,5.66,2.6300000000000003,salmon,1127,1137,1136.0,True,i,178329,1645,1669853774480,1645,HRV,HRV_0322,2022-12-01 00:20:09
73,"[{'imgObject': {}, 'id': 'eggsalad', 'src': '/static/foodstim60/eggsalad.jpg', 'key': 'u', 'origWidth': 410, 'origHeight': 409, 'width': 410, 'height': 409, 'widthPercent': 0.45, 'rescaleHeight': False, 'trialN': 73, 'loaded': True, 'loadedTime': 2862, 'positionName': 'LEFT', 'positionCoords': [511.6, 335.5], 'bid': 2.96}, {'imgObject': {}, 'id': 'cocktailshrimp', 'src': '/static/foodstim60/cocktailshrimp.jpg', 'key': 'i', 'origWidth': 410, 'origHeight': 410, 'width': 410, 'height': 410, 'widthPercent': 0.45, 'rescaleHeight': False, 'trialN': 73, 'loaded': True, 'loadedTime': 2899, 'positionName': 'RIGHT', 'positionCoords': [998.4, 335], 'bid': 3.2}]",178329,1669853774480,eggsalad,cocktailshrimp,2.96,3.2,0.2400000000000002,eggsalad,904,911,911.0,True,u,179744,1415,1669853775895,1415,HRV,HRV_0322,2022-12-01 00:20:09
74,"[{'imgObject': {}, 'id': 'luckycharms', 'src': '/static/foodstim60/luckycharms.jpg', 'key': 'u', 'origWidth': 410, 'origHeight': 409, 'width': 410, 'height': 409, 'widthPercent': 0.45, 'rescaleHeight': False, 'trialN': 74, 'loaded': True, 'loadedTime': 2883, 'positionName': 'LEFT', 'positionCoords': [511.6, 335.5], 'bid': 8.56}, {'imgObject': {}, 'id': 'fruitsalad', 'src': '/static/foodstim60/fruitsalad.jpg', 'key': 'i', 'origWidth': 410, 'origHeight': 410, 'width': 410, 'height': 410, 'widthPercent': 0.45, 'rescaleHeight': False, 'trialN': 74, 'loaded': True, 'loadedTime': 2876, 'positionName': 'RIGHT', 'positionCoords': [998.4, 335], 'bid': 6.9}]",179744,1669853775895,luckycharms,fruitsalad,8.56,6.9,-1.6600000000000001,luckycharms,1707,1721,1721.0,True,u,181973,2229,1669853778124,2229,HRV,HRV_0322,2022-12-01 00:20:09
75,"[{'imgObject': {}, 'id': 'fried eggs', 'src': '/static/foodstim60/fried eggs.jpg', 'key': 'u', 'origWidth': 410, 'origHeight': 410, 'width': 410, 'height': 410, 'widthPercent': 0.45, 'rescaleHeight': False, 'trialN': 75, 'loaded': True, 'loadedTime': 2866, 'positionName': 'LEFT', 'positionCoords': [511.6, 335], 'bid': 6.25}, {'imgObject': {}, 'id': 'popsicles', 'src': '/static/foodstim60/popsicles.jpg', 'key': 'i', 'origWidth': 410, 'origHeight': 410, 'width': 410, 'height': 410, 'widthPercent': 0.45, 'rescaleHeight': False, 'trialN': 75, 'loaded': True, 'loadedTime': 2909, 'positionName': 'RIGHT', 'positionCoords': [998.4, 335], 'bid': 6.2700000000000005}]",181973,1669853778124,fried eggs,popsicles,6.25,6.2700000000000005,0.020000000000000462,popsicles,2510,2515,2515.0,True,i,185002,3029,1669853781154,3030,HRV,HRV_0322,2022-12-01 00:20:09
76,"[{'imgObject': {}, 'id': 'cherry tomato', 'src': '/static/foodstim60/cherry tomato.jpg', 'key': 'u', 'origWidth': 410, 'origHeight': 410, 'width': 410, 'height': 410, 'widthPercent': 0.45, 'rescaleHeight': False, 'trialN': 76, 'loaded': True, 'loadedTime': 2904, 'positionName': 'LEFT', 'positionCoords': [511.6, 335], 'bid': 1.08}, {'imgObject': {}, 'id': 'cocktailshrimp', 'src': '/static/foodstim60/cocktailshrimp.jpg', 'key': 'i', 'origWidth': 410, 'origHeight': 410, 'width': 410, 'height': 410, 'widthPercent': 0.45, 'rescaleHeight': False, 'trialN': 76, 'loaded': True, 'loadedTime': 2899, 'positionName': 'RIGHT', 'positionCoords': [998.4, 335], 'bid': 3.2}]",185002,1669853781154,cherry tomato,cocktailshrimp,1.08,3.2,2.12,cocktailshrimp,1200,1201,1201.0,True,i,186710,1708,1669853782860,1706,HRV,HRV_0322,2022-12-01 00:20:09
77,"[{'imgObject': {}, 'id': 'omelette', 'src': '/static/foodstim60/omelette.jpg', 'key': 'u', 'origWidth': 410, 'origHeight': 409, 'width': 410, 'height': 409, 'widthPercent': 0.45, 'rescaleHeight': False, 'trialN': 77, 'loaded': True, 'loadedTime': 2910, 'positionName': 'LEFT', 'positionCoords': [511.6, 335.5], 'bid': 5.83}, {'imgObject': {}, 'id': 'corn cob', 'src': '/static/foodstim60/corn cob.jpg', 'key': 'i', 'origWidth': 411, 'origHeight': 411, 'width': 411, 'height': 411, 'widthPercent': 0.45, 'rescaleHeight': False, 'trialN': 77, 'loaded': True, 'loadedTime': 2869, 'positionName': 'RIGHT', 'positionCoords': [998.4, 334.5], 'bid': 5.03}]",186710,1669853782860,omelette,corn cob,5.83,5.03,-0.7999999999999998,corn cob,1742,1760,1758.0,True,i,188970,2260,1669853785120,2260,HRV,HRV_0322,2022-12-01 00:20:09
78,"[{'imgObject': {}, 'id': 'popsicles', 'src': '/static/foodstim60/popsicles.jpg', 'key': 'u', 'origWidth': 410, 'origHeight': 410, 'width': 410, 'height': 410, 'widthPercent': 0.45, 'rescaleHeight': False, 'trialN': 78, 'loaded': True, 'loadedTime': 2909, 'positionName': 'LEFT', 'positionCoords': [511.6, 335], 'bid': 6.2700000000000005}, {'imgObject': {}, 'id': 'corn cob', 'src': '/static/foodstim60/corn cob.jpg', 'key': 'i', 'origWidth': 411, 'origHeight': 411, 'width': 411, 'height': 411, 'widthPercent': 0.45, 'rescaleHeight': False, 'trialN': 78, 'loaded': True, 'loadedTime': 2869, 'positionName': 'RIGHT', 'positionCoords': [998.4, 334.5], 'bid': 5.03}]",188970,1669853785120,popsicles,corn cob,6.2700000000000005,5.03,-1.2400000000000002,popsicles,2638,2641,2640.0,True,u,192121,3151,1669853788273,3153,HRV,HRV_0322,2022-12-01 00:20:09
79,"[{'imgObject': {}, 'id': 'shreddedwheatwithmilk', 'src': '/static/foodstim60/shreddedwheatwithmilk.jpg', 'key': 'u', 'origWidth': 410, 'origHeight': 410, 'width': 410, 'height': 410, 'widthPercent': 0.45, 'rescaleHeight': False, 'trialN': 79, 'loaded': True, 'loadedTime': 2894, 'positionName': 'LEFT', 'positionCoords': [511.6, 335], 'bid': 1.83}, {'imgObject': {}, 'id': 'cherry tomato', 'src': '/static/foodstim60/cherry tomato.jpg', 'key': 'i', 'origWidth': 410, 'origHeight': 410, 'width': 410, 'height': 410, 'widthPercent': 0.45, 'rescaleHeight': False, 'trialN': 79, 'loaded': True, 'loadedTime': 2904, 'positionName': 'RIGHT', 'positionCoords': [998.4, 335], 'bid': 1.08}]",192121,1669853788273,shreddedwheatwithmilk,cherry tomato,1.83,1.08,-0.75,shreddedwheatwithmilk,1440,1454,1455.0,True,u,194090,1969,1669853790240,1967,HRV,HRV_0322,2022-12-01 00:20:09
80,"[{'imgObject': {}, 'id': 'steak', 'src': '/static/foodstim60/steak.jpg', 'key': 'u', 'origWidth': 410, 'origHeight': 410, 'width': 410, 'height': 410, 'widthPercent': 0.45, 'rescaleHeight': False, 'trialN': 80, 'loaded': True, 'loadedTime': 2903, 'positionName': 'LEFT', 'positionCoords': [511.6, 335], 'bid': 9.26}, {'imgObject': {}, 'id': 'turkey sandwich', 'src': '/static/foodstim60/turkey sandwich.jpg', 'key': 'i', 'origWidth': 409, 'origHeight': 409, 'width': 409, 'height': 409, 'widthPercent': 0.45, 'rescaleHeight': False, 'trialN': 80, 'loaded': True, 'loadedTime': 2888, 'positionName': 'RIGHT', 'positionCoords': [998.4, 335.5], 'bid': 8.83}]",194090,1669853790240,steak,turkey sandwich,9.26,8.83,-0.4299999999999997,steak,970,986,985.0,True,u,195581,1491,1669853791732,1492,HRV,HRV_0322,2022-12-01 00:20:09
81,"[{'imgObject': {}, 'id': 'raspberries', 'src': '/static/foodstim60/raspberries.jpg', 'key': 'u', 'origWidth': 411, 'origHeight': 411, 'width': 411, 'height': 411, 'widthPercent': 0.45, 'rescaleHeight': False, 'trialN': 81, 'loaded': True, 'loadedTime': 2886, 'positionName': 'LEFT', 'positionCoords': [510.6, 334.5], 'bid': 7.61}, {'imgObject': {}, 'id': 'turkey sandwich', 'src': '/static/foodstim60/turkey sandwich.jpg', 'key': 'i', 'origWidth': 409, 'origHeight': 409, 'width': 409, 'height': 409, 'widthPercent': 0.45, 'rescaleHeight': False, 'trialN': 81, 'loaded': True, 'loadedTime': 2888, 'positionName': 'RIGHT', 'positionCoords': [998.4, 335.5], 'bid': 8.83}]",195581,1669853791732,raspberries,turkey sandwich,7.61,8.83,1.2199999999999998,turkey sandwich,1308,1321,1321.0,True,i,197411,1830,1669853793562,1830,HRV,HRV_0322,2022-12-01 00:20:09
82,"[{'imgObject': {}, 'id': 'orange slices', 'src': '/static/foodstim60/orange slices.jpg', 'key': 'u', 'origWidth': 409, 'origHeight': 410, 'width': 409, 'height': 410, 'widthPercent': 0.45, 'rescaleHeight': False, 'trialN': 82, 'loaded': True, 'loadedTime': 2900, 'positionName': 'LEFT', 'positionCoords': [512.6, 335], 'bid': 6.26}, {'imgObject': {}, 'id': 'mashed potato', 'src': '/static/foodstim60/mashed potato.jpg', 'key': 'i', 'origWidth': 409, 'origHeight': 409, 'width': 409, 'height': 409, 'widthPercent': 0.45, 'rescaleHeight': False, 'trialN': 82, 'loaded': True, 'loadedTime': 2883, 'positionName': 'RIGHT', 'positionCoords': [998.4, 335.5], 'bid': 5.89}]",197411,1669853793562,orange slices,mashed potato,6.26,5.89,-0.3700000000000001,orange slices,1541,1557,1558.0,True,u,199471,2060,1669853795622,2060,HRV,HRV_0322,2022-12-01 00:20:09
83,"[{'imgObject': {}, 'id': 'grilled chicken strips', 'src': '/static/foodstim60/grilled chicken strips.jpg', 'key': 'u', 'origWidth': 410, 'origHeight': 411, 'width': 410, 'height': 411, 'widthPercent': 0.45, 'rescaleHeight': False, 'trialN': 83, 'loaded': True, 'loadedTime': 2871, 'positionName': 'LEFT', 'positionCoords': [511.6, 334.5], 'bid': 6.57}, {'imgObject': {}, 'id': 'burger', 'src': '/static/foodstim60/burger.jpg', 'key': 'i', 'origWidth': 409, 'origHeight': 409, 'width': 409, 'height': 409, 'widthPercent': 0.45, 'rescaleHeight': False, 'trialN': 83, 'loaded': True, 'loadedTime': 2892, 'positionName': 'RIGHT', 'positionCoords': [998.4, 335.5], 'bid': 6.71}]",199471,1669853795622,grilled chicken strips,burger,6.57,6.71,0.13999999999999968,grilled chicken strips,2480,2488,2488.0,True,u,202470,2999,1669853798621,2999,HRV,HRV_0322,2022-12-01 00:20:09
84,"[{'imgObject': {}, 'id': 'strawberries', 'src': '/static/foodstim60/strawberries.jpg', 'key': 'u', 'origWidth': 410, 'origHeight': 410, 'width': 410, 'height': 410, 'widthPercent': 0.45, 'rescaleHeight': False, 'trialN': 84, 'loaded': True, 'loadedTime': 2870, 'positionName': 'LEFT', 'positionCoords': [511.6, 335], 'bid': 7.78}, {'imgObject': {}, 'id': 'fruitsalad', 'src': '/static/foodstim60/fruitsalad.jpg', 'key': 'i', 'origWidth': 410, 'origHeight': 410, 'width': 410, 'height': 410, 'widthPercent': 0.45, 'rescaleHeight': False, 'trialN': 84, 'loaded': True, 'loadedTime': 2876, 'positionName': 'RIGHT', 'positionCoords': [998.4, 335], 'bid': 6.9}]",202470,1669853798621,strawberries,fruitsalad,7.78,6.9,-0.8799999999999999,fruitsalad,1340,1343,1343.0,True,i,204315,1845,1669853800465,1844,HRV,HRV_0322,2022-12-01 00:20:09
85,"[{'imgObject': {}, 'id': 'yogurt no spoon', 'src': '/static/foodstim60/yogurt no spoon.jpg', 'key': 'u', 'origWidth': 411, 'origHeight': 410, 'width': 411, 'height': 410, 'widthPercent': 0.45, 'rescaleHeight': False, 'trialN': 85, 'loaded': True, 'loadedTime': 2902, 'positionName': 'LEFT', 'positionCoords': [510.6, 335], 'bid': 7.0200000000000005}, {'imgObject': {}, 'id': 'steak', 'src': '/static/foodstim60/steak.jpg', 'key': 'i', 'origWidth': 410, 'origHeight': 410, 'width': 410, 'height': 410, 'widthPercent': 0.45, 'rescaleHeight': False, 'trialN': 85, 'loaded': True, 'loadedTime': 2903, 'positionName': 'RIGHT', 'positionCoords': [998.4, 335], 'bid': 9.26}]",204315,1669853800465,yogurt no spoon,steak,7.0200000000000005,9.26,2.2399999999999993,steak,1496,1513,1512.0,True,i,206329,2014,1669853802480,2015,HRV,HRV_0322,2022-12-01 00:20:09
86,"[{'imgObject': {}, 'id': 'tacos', 'src': '/static/foodstim60/tacos.jpg', 'key': 'u', 'origWidth': 411, 'origHeight': 411, 'width': 411, 'height': 411, 'widthPercent': 0.45, 'rescaleHeight': False, 'trialN': 86, 'loaded': True, 'loadedTime': 2872, 'positionName': 'LEFT', 'positionCoords': [510.6, 334.5], 'bid': 7.86}, {'imgObject': {}, 'id': 'burrito', 'src': '/static/foodstim60/burrito.jpg', 'key': 'i', 'origWidth': 410, 'origHeight': 410, 'width': 410, 'height': 410, 'widthPercent': 0.45, 'rescaleHeight': False, 'trialN': 86, 'loaded': True, 'loadedTime': 2862, 'positionName': 'RIGHT', 'positionCoords': [998.4, 335], 'bid': 7}]",206329,1669853802480,tacos,burrito,7.86,7.0,-0.8600000000000003,burrito,1326,1337,1337.0,True,i,208174,1845,1669853804325,1845,HRV,HRV_0322,2022-12-01 00:20:09
87,"[{'imgObject': {}, 'id': 'orange slices', 'src': '/static/foodstim60/orange slices.jpg', 'key': 'u', 'origWidth': 409, 'origHeight': 410, 'width': 409, 'height': 410, 'widthPercent': 0.45, 'rescaleHeight': False, 'trialN': 87, 'loaded': True, 'loadedTime': 2900, 'positionName': 'LEFT', 'positionCoords': [512.6, 335], 'bid': 6.26}, {'imgObject': {}, 'id': 'sushi w_condiments', 'src': '/static/foodstim60/sushi w_condiments.jpg', 'key': 'i', 'origWidth': 410, 'origHeight': 410, 'width': 410, 'height': 410, 'widthPercent': 0.45, 'rescaleHeight': False, 'trialN': 87, 'loaded': True, 'loadedTime': 2881, 'positionName': 'RIGHT', 'positionCoords': [998.4, 335], 'bid': 0.76}]",208174,1669853804325,orange slices,sushi w_condiments,6.26,0.76,-5.5,orange slices,1153,1159,1158.0,True,u,209835,1661,1669853805986,1661,HRV,HRV_0322,2022-12-01 00:20:09
88,"[{'imgObject': {}, 'id': 'banana', 'src': '/static/foodstim60/banana.jpg', 'key': 'u', 'origWidth': 410, 'origHeight': 410, 'width': 410, 'height': 410, 'widthPercent': 0.45, 'rescaleHeight': False, 'trialN': 88, 'loaded': True, 'loadedTime': 2873, 'positionName': 'LEFT', 'positionCoords': [511.6, 335], 'bid': 7.33}, {'imgObject': {}, 'id': 'hotdog w must', 'src': '/static/foodstim60/hotdog w must.jpg', 'key': 'i', 'origWidth': 409, 'origHeight': 409, 'width': 409, 'height': 409, 'widthPercent': 0.45, 'rescaleHeight': False, 'trialN': 88, 'loaded': True, 'loadedTime': 2882, 'positionName': 'RIGHT', 'positionCoords': [998.4, 335.5], 'bid': 7.390000000000001}]",209835,1669853805986,banana,hotdog w must,7.33,7.390000000000001,0.0600000000000005,hotdog w must,1288,1304,1304.0,True,i,211649,1814,1669853807800,1814,HRV,HRV_0322,2022-12-01 00:20:09
89,"[{'imgObject': {}, 'id': 'omelette', 'src': '/static/foodstim60/omelette.jpg', 'key': 'u', 'origWidth': 410, 'origHeight': 409, 'width': 410, 'height': 409, 'widthPercent': 0.45, 'rescaleHeight': False, 'trialN': 89, 'loaded': True, 'loadedTime': 2910, 'positionName': 'LEFT', 'positionCoords': [511.6, 335.5], 'bid': 5.83}, {'imgObject': {}, 'id': 'avocado', 'src': '/static/foodstim60/avocado.jpg', 'key': 'i', 'origWidth': 409, 'origHeight': 409, 'width': 409, 'height': 409, 'widthPercent': 0.45, 'rescaleHeight': False, 'trialN': 89, 'loaded': True, 'loadedTime': 2910, 'positionName': 'RIGHT', 'positionCoords': [998.4, 335.5], 'bid': 5.69}]",211649,1669853807800,omelette,avocado,5.83,5.69,-0.13999999999999968,omelette,2100,2102,2102.0,True,u,214263,2614,1669853810414,2614,HRV,HRV_0322,2022-12-01 00:20:09
90,"[{'imgObject': {}, 'id': 'raspberries', 'src': '/static/foodstim60/raspberries.jpg', 'key': 'u', 'origWidth': 411, 'origHeight': 411, 'width': 411, 'height': 411, 'widthPercent': 0.45, 'rescaleHeight': False, 'trialN': 90, 'loaded': True, 'loadedTime': 2886, 'positionName': 'LEFT', 'positionCoords': [510.6, 334.5], 'bid': 7.61}, {'imgObject': {}, 'id': 'fried eggs', 'src': '/static/foodstim60/fried eggs.jpg', 'key': 'i', 'origWidth': 410, 'origHeight': 410, 'width': 410, 'height': 410, 'widthPercent': 0.45, 'rescaleHeight': False, 'trialN': 90, 'loaded': True, 'loadedTime': 2866, 'positionName': 'RIGHT', 'positionCoords': [998.4, 335], 'bid': 6.25}]",216816,1669853812968,raspberries,fried eggs,7.61,6.25,-1.3600000000000003,raspberries,1932,1939,1940.0,True,u,219261,2445,1669853815412,2444,HRV,HRV_0322,2022-12-01 00:20:09
91,"[{'imgObject': {}, 'id': 'burger', 'src': '/static/foodstim60/burger.jpg', 'key': 'u', 'origWidth': 409, 'origHeight': 409, 'width': 409, 'height': 409, 'widthPercent': 0.45, 'rescaleHeight': False, 'trialN': 91, 'loaded': True, 'loadedTime': 2892, 'positionName': 'LEFT', 'positionCoords': [512.6, 335.5], 'bid': 6.71}, {'imgObject': {}, 'id': 'rigatoni and sauce', 'src': '/static/foodstim60/rigatoni and sauce.jpg', 'key': 'i', 'origWidth': 410, 'origHeight': 411, 'width': 410, 'height': 411, 'widthPercent': 0.45, 'rescaleHeight': False, 'trialN': 91, 'loaded': True, 'loadedTime': 2901, 'positionName': 'RIGHT', 'positionCoords': [998.4, 334.5], 'bid': 6.63}]",219261,1669853815412,burger,rigatoni and sauce,6.71,6.63,-0.08000000000000007,rigatoni and sauce,2066,2067,2067.0,True,i,221829,2568,1669853817980,2568,HRV,HRV_0322,2022-12-01 00:20:09
92,"[{'imgObject': {}, 'id': 'steak', 'src': '/static/foodstim60/steak.jpg', 'key': 'u', 'origWidth': 410, 'origHeight': 410, 'width': 410, 'height': 410, 'widthPercent': 0.45, 'rescaleHeight': False, 'trialN': 92, 'loaded': True, 'loadedTime': 2903, 'positionName': 'LEFT', 'positionCoords': [511.6, 335], 'bid': 9.26}, {'imgObject': {}, 'id': 'chickenfingers', 'src': '/static/foodstim60/chickenfingers.jpg', 'key': 'i', 'origWidth': 410, 'origHeight': 410, 'width': 410, 'height': 410, 'widthPercent': 0.45, 'rescaleHeight': False, 'trialN': 92, 'loaded': True, 'loadedTime': 2893, 'positionName': 'RIGHT', 'positionCoords': [998.4, 335], 'bid': 7.61}]",221829,1669853817980,steak,chickenfingers,9.26,7.61,-1.6499999999999995,steak,1279,1286,1285.0,True,u,223628,1799,1669853819779,1799,HRV,HRV_0322,2022-12-01 00:20:09
93,"[{'imgObject': {}, 'id': 'granola w milk', 'src': '/static/foodstim60/granola w milk.jpg', 'key': 'u', 'origWidth': 410, 'origHeight': 410, 'width': 410, 'height': 410, 'widthPercent': 0.45, 'rescaleHeight': False, 'trialN': 93, 'loaded': True, 'loadedTime': 2867, 'positionName': 'LEFT', 'positionCoords': [511.6, 335], 'bid': 0.46}, {'imgObject': {}, 'id': 'eggs', 'src': '/static/foodstim60/eggs.jpg', 'key': 'i', 'origWidth': 409, 'origHeight': 409, 'width': 409, 'height': 409, 'widthPercent': 0.45, 'rescaleHeight': False, 'trialN': 93, 'loaded': True, 'loadedTime': 2863, 'positionName': 'RIGHT', 'positionCoords': [998.4, 335.5], 'bid': 4.01}]",223628,1669853819779,granola w milk,eggs,0.46,4.01,3.55,eggs,1996,2003,2003.0,True,i,226134,2506,1669853822285,2506,HRV,HRV_0322,2022-12-01 00:20:09
94,"[{'imgObject': {}, 'id': 'ice cream sundae 002', 'src': '/static/foodstim60/ice cream sundae 002.jpg', 'key': 'u', 'origWidth': 409, 'origHeight': 409, 'width': 409, 'height': 409, 'widthPercent': 0.45, 'rescaleHeight': False, 'trialN': 94, 'loaded': True, 'loadedTime': 2890, 'positionName': 'LEFT', 'positionCoords': [512.6, 335.5], 'bid': 8.17}, {'imgObject': {}, 'id': 'chicken nuggets2', 'src': '/static/foodstim60/chicken nuggets2.jpg', 'key': 'i', 'origWidth': 410, 'origHeight': 409, 'width': 410, 'height': 409, 'widthPercent': 0.45, 'rescaleHeight': False, 'trialN': 94, 'loaded': True, 'loadedTime': 2868, 'positionName': 'RIGHT', 'positionCoords': [998.4, 335.5], 'bid': 8.32}]",226134,1669853822285,ice cream sundae 002,chicken nuggets2,8.17,8.32,0.15000000000000036,chicken nuggets2,1115,1116,1116.0,True,i,227764,1630,1669853823915,1630,HRV,HRV_0322,2022-12-01 00:20:09
95,"[{'imgObject': {}, 'id': 'apple slices', 'src': '/static/foodstim60/apple slices.jpg', 'key': 'u', 'origWidth': 409, 'origHeight': 410, 'width': 409, 'height': 410, 'widthPercent': 0.45, 'rescaleHeight': False, 'trialN': 95, 'loaded': True, 'loadedTime': 2873, 'positionName': 'LEFT', 'positionCoords': [512.6, 335], 'bid': 4.23}, {'imgObject': {}, 'id': 'sweetpotato', 'src': '/static/foodstim60/sweetpotato.jpg', 'key': 'i', 'origWidth': 410, 'origHeight': 410, 'width': 410, 'height': 410, 'widthPercent': 0.45, 'rescaleHeight': False, 'trialN': 95, 'loaded': True, 'loadedTime': 2878, 'positionName': 'RIGHT', 'positionCoords': [998.4, 335], 'bid': 3.77}]",227764,1669853823915,apple slices,sweetpotato,4.23,3.77,-0.4600000000000004,sweetpotato,2875,2880,2880.0,True,i,231146,3382,1669853827298,3383,HRV,HRV_0322,2022-12-01 00:20:09
96,"[{'imgObject': {}, 'id': 'mac & cheese', 'src': '/static/foodstim60/mac & cheese.jpg', 'key': 'u', 'origWidth': 410, 'origHeight': 410, 'width': 410, 'height': 410, 'widthPercent': 0.45, 'rescaleHeight': False, 'trialN': 96, 'loaded': True, 'loadedTime': 2884, 'positionName': 'LEFT', 'positionCoords': [511.6, 335], 'bid': 8.33}, {'imgObject': {}, 'id': 'turkeysandwich', 'src': '/static/foodstim60/turkeysandwich.jpg', 'key': 'i', 'origWidth': 409, 'origHeight': 409, 'width': 409, 'height': 409, 'widthPercent': 0.45, 'rescaleHeight': False, 'trialN': 96, 'loaded': True, 'loadedTime': 2887, 'positionName': 'RIGHT', 'positionCoords': [998.4, 335.5], 'bid': 7.62}]",231147,1669853827298,mac & cheese,turkeysandwich,8.33,7.62,-0.71,mac & cheese,1085,1092,1092.0,True,u,232746,1599,1669853828897,1599,HRV,HRV_0322,2022-12-01 00:20:09
97,"[{'imgObject': {}, 'id': 'cantaloupe', 'src': '/static/foodstim60/cantaloupe.jpg', 'key': 'u', 'origWidth': 409, 'origHeight': 409, 'width': 409, 'height': 409, 'widthPercent': 0.45, 'rescaleHeight': False, 'trialN': 97, 'loaded': True, 'loadedTime': 2885, 'positionName': 'LEFT', 'positionCoords': [512.6, 335.5], 'bid': 6.88}, {'imgObject': {}, 'id': 'froot loops w milk', 'src': '/static/foodstim60/froot loops w milk.jpg', 'key': 'i', 'origWidth': 410, 'origHeight': 410, 'width': 410, 'height': 410, 'widthPercent': 0.45, 'rescaleHeight': False, 'trialN': 97, 'loaded': True, 'loadedTime': 2897, 'positionName': 'RIGHT', 'positionCoords': [998.4, 335], 'bid': 7.77}]",232746,1669853828897,cantaloupe,froot loops w milk,6.88,7.77,0.8899999999999997,froot loops w milk,1096,1104,1104.0,True,i,234360,1614,1669853830512,1615,HRV,HRV_0322,2022-12-01 00:20:09
98,"[{'imgObject': {}, 'id': 'hashbrowns', 'src': '/static/foodstim60/hashbrowns.jpg', 'key': 'u', 'origWidth': 411, 'origHeight': 410, 'width': 411, 'height': 410, 'widthPercent': 0.45, 'rescaleHeight': False, 'trialN': 98, 'loaded': True, 'loadedTime': 2898, 'positionName': 'LEFT', 'positionCoords': [510.6, 335], 'bid': 0.15}, {'imgObject': {}, 'id': 'shreddedwheatwithmilk', 'src': '/static/foodstim60/shreddedwheatwithmilk.jpg', 'key': 'i', 'origWidth': 410, 'origHeight': 410, 'width': 410, 'height': 410, 'widthPercent': 0.45, 'rescaleHeight': False, 'trialN': 98, 'loaded': True, 'loadedTime': 2894, 'positionName': 'RIGHT', 'positionCoords': [998.4, 335], 'bid': 1.83}]",234360,1669853830512,hashbrowns,shreddedwheatwithmilk,0.15,1.83,1.6800000000000002,shreddedwheatwithmilk,1404,1419,1420.0,True,i,236282,1922,1669853832433,1921,HRV,HRV_0322,2022-12-01 00:20:09
99,"[{'imgObject': {}, 'id': 'raisin bran w milk', 'src': '/static/foodstim60/raisin bran w milk.jpg', 'key': 'u', 'origWidth': 411, 'origHeight': 411, 'width': 411, 'height': 411, 'widthPercent': 0.45, 'rescaleHeight': False, 'trialN': 99, 'loaded': True, 'loadedTime': 2864, 'positionName': 'LEFT', 'positionCoords': [510.6, 334.5], 'bid': 2.7}, {'imgObject': {}, 'id': 'rigatoni', 'src': '/static/foodstim60/rigatoni.jpg', 'key': 'i', 'origWidth': 411, 'origHeight': 411, 'width': 411, 'height': 411, 'widthPercent': 0.45, 'rescaleHeight': False, 'trialN': 99, 'loaded': True, 'loadedTime': 2910, 'positionName': 'RIGHT', 'positionCoords': [998.4, 334.5], 'bid': 3.03}]",236282,1669853832433,raisin bran w milk,rigatoni,2.7,3.03,0.3299999999999996,raisin bran w milk,3014,3023,3023.0,True,u,239819,3537,1669853835970,3537,HRV,HRV_0322,2022-12-01 00:20:09
100,"[{'imgObject': {}, 'id': 'avocado', 'src': '/static/foodstim60/avocado.jpg', 'key': 'u', 'origWidth': 409, 'origHeight': 409, 'width': 409, 'height': 409, 'widthPercent': 0.45, 'rescaleHeight': False, 'trialN': 100, 'loaded': True, 'loadedTime': 2911, 'positionName': 'LEFT', 'positionCoords': [512.6, 335.5], 'bid': 5.69}, {'imgObject': {}, 'id': 'blueberries', 'src': '/static/foodstim60/blueberries.jpg', 'key': 'i', 'origWidth': 411, 'origHeight': 411, 'width': 411, 'height': 411, 'widthPercent': 0.45, 'rescaleHeight': False, 'trialN': 100, 'loaded': True, 'loadedTime': 2891, 'positionName': 'RIGHT', 'positionCoords': [998.4, 334.5], 'bid': 5}]",239819,1669853835970,avocado,blueberries,5.69,5.0,-0.6900000000000004,avocado,1507,1512,1512.0,True,u,241833,2014,1669853837984,2014,HRV,HRV_0322,2022-12-01 00:20:09
101,"[{'imgObject': {}, 'id': 'granola w milk', 'src': '/static/foodstim60/granola w milk.jpg', 'key': 'u', 'origWidth': 410, 'origHeight': 410, 'width': 410, 'height': 410, 'widthPercent': 0.45, 'rescaleHeight': False, 'trialN': 101, 'loaded': True, 'loadedTime': 2867, 'positionName': 'LEFT', 'positionCoords': [511.6, 335], 'bid': 0.46}, {'imgObject': {}, 'id': 'hashbrowns', 'src': '/static/foodstim60/hashbrowns.jpg', 'key': 'i', 'origWidth': 411, 'origHeight': 410, 'width': 411, 'height': 410, 'widthPercent': 0.45, 'rescaleHeight': False, 'trialN': 101, 'loaded': True, 'loadedTime': 2898, 'positionName': 'RIGHT', 'positionCoords': [998.4, 335], 'bid': 0.15}]",241833,1669853837984,granola w milk,hashbrowns,0.46,0.15,-0.31000000000000005,granola w milk,1149,1165,1165.0,True,u,243509,1676,1669853839660,1676,HRV,HRV_0322,2022-12-01 00:20:09
102,"[{'imgObject': {}, 'id': 'rigatoni and sauce', 'src': '/static/foodstim60/rigatoni and sauce.jpg', 'key': 'u', 'origWidth': 410, 'origHeight': 411, 'width': 410, 'height': 411, 'widthPercent': 0.45, 'rescaleHeight': False, 'trialN': 102, 'loaded': True, 'loadedTime': 2901, 'positionName': 'LEFT', 'positionCoords': [511.6, 334.5], 'bid': 6.63}, {'imgObject': {}, 'id': 'tacos', 'src': '/static/foodstim60/tacos.jpg', 'key': 'i', 'origWidth': 411, 'origHeight': 411, 'width': 411, 'height': 411, 'widthPercent': 0.45, 'rescaleHeight': False, 'trialN': 102, 'loaded': True, 'loadedTime': 2872, 'positionName': 'RIGHT', 'positionCoords': [998.4, 334.5], 'bid': 7.86}]",243509,1669853839660,rigatoni and sauce,tacos,6.63,7.86,1.2300000000000004,rigatoni and sauce,1161,1176,1176.0,True,u,245186,1677,1669853841336,1676,HRV,HRV_0322,2022-12-01 00:20:09
103,"[{'imgObject': {}, 'id': 'seaweed', 'src': '/static/foodstim60/seaweed.jpg', 'key': 'u', 'origWidth': 410, 'origHeight': 410, 'width': 410, 'height': 410, 'widthPercent': 0.45, 'rescaleHeight': False, 'trialN': 103, 'loaded': True, 'loadedTime': 2899, 'positionName': 'LEFT', 'positionCoords': [511.6, 335], 'bid': 0.02}, {'imgObject': {}, 'id': 'bagel and cc', 'src': '/static/foodstim60/bagel and cc.jpg', 'key': 'i', 'origWidth': 410, 'origHeight': 410, 'width': 410, 'height': 410, 'widthPercent': 0.45, 'rescaleHeight': False, 'trialN': 103, 'loaded': True, 'loadedTime': 2877, 'positionName': 'RIGHT', 'positionCoords': [998.4, 335], 'bid': 2.41}]",245186,1669853841337,seaweed,bagel and cc,0.02,2.41,2.39,bagel and cc,984,991,991.0,True,i,246692,1506,1669853842843,1506,HRV,HRV_0322,2022-12-01 00:20:09
104,"[{'imgObject': {}, 'id': 'yogurt no spoon', 'src': '/static/foodstim60/yogurt no spoon.jpg', 'key': 'u', 'origWidth': 411, 'origHeight': 410, 'width': 411, 'height': 410, 'widthPercent': 0.45, 'rescaleHeight': False, 'trialN': 104, 'loaded': True, 'loadedTime': 2902, 'positionName': 'LEFT', 'positionCoords': [510.6, 335], 'bid': 7.0200000000000005}, {'imgObject': {}, 'id': 'Grapes', 'src': '/static/foodstim60/Grapes.jpg', 'key': 'i', 'origWidth': 411, 'origHeight': 411, 'width': 411, 'height': 411, 'widthPercent': 0.45, 'rescaleHeight': False, 'trialN': 104, 'loaded': True, 'loadedTime': 2895, 'positionName': 'RIGHT', 'positionCoords': [998.4, 334.5], 'bid': 7.29}]",246692,1669853842843,yogurt no spoon,Grapes,7.0200000000000005,7.29,0.2699999999999996,yogurt no spoon,1962,1969,1970.0,True,u,249168,2476,1669853845318,2475,HRV,HRV_0322,2022-12-01 00:20:09
105,"[{'imgObject': {}, 'id': 'cherries', 'src': '/static/foodstim60/cherries.jpg', 'key': 'u', 'origWidth': 410, 'origHeight': 411, 'width': 410, 'height': 411, 'widthPercent': 0.45, 'rescaleHeight': False, 'trialN': 105, 'loaded': True, 'loadedTime': 2906, 'positionName': 'LEFT', 'positionCoords': [511.6, 334.5], 'bid': 4.95}, {'imgObject': {}, 'id': 'shreddedwheatwithmilk', 'src': '/static/foodstim60/shreddedwheatwithmilk.jpg', 'key': 'i', 'origWidth': 410, 'origHeight': 410, 'width': 410, 'height': 410, 'widthPercent': 0.45, 'rescaleHeight': False, 'trialN': 105, 'loaded': True, 'loadedTime': 2894, 'positionName': 'RIGHT', 'positionCoords': [998.4, 335], 'bid': 1.83}]",249168,1669853845318,cherries,shreddedwheatwithmilk,4.95,1.83,-3.12,cherries,3081,3095,3094.0,True,u,252766,3598,1669853848916,3598,HRV,HRV_0322,2022-12-01 00:20:09
106,"[{'imgObject': {}, 'id': 'raspberries', 'src': '/static/foodstim60/raspberries.jpg', 'key': 'u', 'origWidth': 411, 'origHeight': 411, 'width': 411, 'height': 411, 'widthPercent': 0.45, 'rescaleHeight': False, 'trialN': 106, 'loaded': True, 'loadedTime': 2886, 'positionName': 'LEFT', 'positionCoords': [510.6, 334.5], 'bid': 7.61}, {'imgObject': {}, 'id': 'chickenfingers', 'src': '/static/foodstim60/chickenfingers.jpg', 'key': 'i', 'origWidth': 410, 'origHeight': 410, 'width': 410, 'height': 410, 'widthPercent': 0.45, 'rescaleHeight': False, 'trialN': 106, 'loaded': True, 'loadedTime': 2893, 'positionName': 'RIGHT', 'positionCoords': [998.4, 335], 'bid': 7.61}]",252766,1669853848916,raspberries,chickenfingers,7.61,7.61,0.0,chickenfingers,1686,1694,1693.0,True,i,254964,2198,1669853851115,2199,HRV,HRV_0322,2022-12-01 00:20:09
107,"[{'imgObject': {}, 'id': 'raisin bran w milk', 'src': '/static/foodstim60/raisin bran w milk.jpg', 'key': 'u', 'origWidth': 411, 'origHeight': 411, 'width': 411, 'height': 411, 'widthPercent': 0.45, 'rescaleHeight': False, 'trialN': 107, 'loaded': True, 'loadedTime': 2864, 'positionName': 'LEFT', 'positionCoords': [510.6, 334.5], 'bid': 2.7}, {'imgObject': {}, 'id': 'roastedpotatoes', 'src': '/static/foodstim60/roastedpotatoes.jpg', 'key': 'i', 'origWidth': 409, 'origHeight': 410, 'width': 409, 'height': 410, 'widthPercent': 0.45, 'rescaleHeight': False, 'trialN': 107, 'loaded': True, 'loadedTime': 2873, 'positionName': 'RIGHT', 'positionCoords': [998.4, 335], 'bid': 5.43}]",254965,1669853851115,raisin bran w milk,roastedpotatoes,2.7,5.43,2.7299999999999995,roastedpotatoes,2799,2801,2800.0,True,i,258270,3305,1669853854421,3306,HRV,HRV_0322,2022-12-01 00:20:09
108,"[{'imgObject': {}, 'id': 'lox', 'src': '/static/foodstim60/lox.jpg', 'key': 'u', 'origWidth': 410, 'origHeight': 411, 'width': 410, 'height': 411, 'widthPercent': 0.45, 'rescaleHeight': False, 'trialN': 108, 'loaded': True, 'loadedTime': 2878, 'positionName': 'LEFT', 'positionCoords': [511.6, 334.5], 'bid': 2.53}, {'imgObject': {}, 'id': 'kiwi', 'src': '/static/foodstim60/kiwi.jpg', 'key': 'i', 'origWidth': 410, 'origHeight': 410, 'width': 410, 'height': 410, 'widthPercent': 0.45, 'rescaleHeight': False, 'trialN': 108, 'loaded': True, 'loadedTime': 2893, 'positionName': 'RIGHT', 'positionCoords': [998.4, 335], 'bid': 5.37}]",258270,1669853854421,lox,kiwi,2.53,5.37,2.8400000000000003,lox,2494,2510,2510.0,True,u,261283,3013,1669853857435,3014,HRV,HRV_0322,2022-12-01 00:20:09
109,"[{'imgObject': {}, 'id': 'fried eggs', 'src': '/static/foodstim60/fried eggs.jpg', 'key': 'u', 'origWidth': 410, 'origHeight': 410, 'width': 410, 'height': 410, 'widthPercent': 0.45, 'rescaleHeight': False, 'trialN': 109, 'loaded': True, 'loadedTime': 2866, 'positionName': 'LEFT', 'positionCoords': [511.6, 335], 'bid': 6.25}, {'imgObject': {}, 'id': 'mashed potato', 'src': '/static/foodstim60/mashed potato.jpg', 'key': 'i', 'origWidth': 409, 'origHeight': 409, 'width': 409, 'height': 409, 'widthPercent': 0.45, 'rescaleHeight': False, 'trialN': 109, 'loaded': True, 'loadedTime': 2883, 'positionName': 'RIGHT', 'positionCoords': [998.4, 335.5], 'bid': 5.89}]",261283,1669853857435,fried eggs,mashed potato,6.25,5.89,-0.3600000000000003,mashed potato,1700,1713,1715.0,True,i,263498,2215,1669853859649,2214,HRV,HRV_0322,2022-12-01 00:20:09
110,"[{'imgObject': {}, 'id': 'salmon', 'src': '/static/foodstim60/salmon.jpg', 'key': 'u', 'origWidth': 410, 'origHeight': 409, 'width': 410, 'height': 409, 'widthPercent': 0.45, 'rescaleHeight': False, 'trialN': 110, 'loaded': True, 'loadedTime': 2910, 'positionName': 'LEFT', 'positionCoords': [511.6, 335.5], 'bid': 5.66}, {'imgObject': {}, 'id': 'Tribe humus pita', 'src': '/static/foodstim60/Tribe humus pita.jpg', 'key': 'i', 'origWidth': 411, 'origHeight': 411, 'width': 411, 'height': 411, 'widthPercent': 0.45, 'rescaleHeight': False, 'trialN': 110, 'loaded': True, 'loadedTime': 2889, 'positionName': 'RIGHT', 'positionCoords': [998.4, 334.5], 'bid': 5.64}]",263498,1669853859649,salmon,Tribe humus pita,5.66,5.64,-0.020000000000000462,Tribe humus pita,2109,2111,2111.0,True,i,266112,2614,1669853862262,2613,HRV,HRV_0322,2022-12-01 00:20:09
111,"[{'imgObject': {}, 'id': 'avocado', 'src': '/static/foodstim60/avocado.jpg', 'key': 'u', 'origWidth': 409, 'origHeight': 409, 'width': 409, 'height': 409, 'widthPercent': 0.45, 'rescaleHeight': False, 'trialN': 111, 'loaded': True, 'loadedTime': 2911, 'positionName': 'LEFT', 'positionCoords': [512.6, 335.5], 'bid': 5.69}, {'imgObject': {}, 'id': 'Tribe humus pita', 'src': '/static/foodstim60/Tribe humus pita.jpg', 'key': 'i', 'origWidth': 411, 'origHeight': 411, 'width': 411, 'height': 411, 'widthPercent': 0.45, 'rescaleHeight': False, 'trialN': 111, 'loaded': True, 'loadedTime': 2889, 'positionName': 'RIGHT', 'positionCoords': [998.4, 334.5], 'bid': 5.64}]",266112,1669853862262,avocado,Tribe humus pita,5.69,5.64,-0.05000000000000071,avocado,2777,2780,2779.0,True,u,269402,3290,1669853865553,3291,HRV,HRV_0322,2022-12-01 00:20:09
112,"[{'imgObject': {}, 'id': 'banana', 'src': '/static/foodstim60/banana.jpg', 'key': 'u', 'origWidth': 410, 'origHeight': 410, 'width': 410, 'height': 410, 'widthPercent': 0.45, 'rescaleHeight': False, 'trialN': 112, 'loaded': True, 'loadedTime': 2874, 'positionName': 'LEFT', 'positionCoords': [511.6, 335], 'bid': 7.33}, {'imgObject': {}, 'id': 'mac & cheese', 'src': '/static/foodstim60/mac & cheese.jpg', 'key': 'i', 'origWidth': 410, 'origHeight': 410, 'width': 410, 'height': 410, 'widthPercent': 0.45, 'rescaleHeight': False, 'trialN': 112, 'loaded': True, 'loadedTime': 2884, 'positionName': 'RIGHT', 'positionCoords': [998.4, 335], 'bid': 8.33}]",269402,1669853865553,banana,mac & cheese,7.33,8.33,1.0,mac & cheese,1112,1128,1128.0,True,i,271032,1630,1669853867183,1630,HRV,HRV_0322,2022-12-01 00:20:09
113,"[{'imgObject': {}, 'id': 'burger', 'src': '/static/foodstim60/burger.jpg', 'key': 'u', 'origWidth': 409, 'origHeight': 409, 'width': 409, 'height': 409, 'widthPercent': 0.45, 'rescaleHeight': False, 'trialN': 113, 'loaded': True, 'loadedTime': 2892, 'positionName': 'LEFT', 'positionCoords': [512.6, 335.5], 'bid': 6.71}, {'imgObject': {}, 'id': 'salmon', 'src': '/static/foodstim60/salmon.jpg', 'key': 'i', 'origWidth': 410, 'origHeight': 409, 'width': 410, 'height': 409, 'widthPercent': 0.45, 'rescaleHeight': False, 'trialN': 113, 'loaded': True, 'loadedTime': 2910, 'positionName': 'RIGHT', 'positionCoords': [998.4, 335.5], 'bid': 5.66}]",271032,1669853867183,burger,salmon,6.71,5.66,-1.0499999999999998,burger,1373,1388,1388.0,True,u,272923,1891,1669853869074,1891,HRV,HRV_0322,2022-12-01 00:20:09
114,"[{'imgObject': {}, 'id': 'Grapes', 'src': '/static/foodstim60/Grapes.jpg', 'key': 'u', 'origWidth': 411, 'origHeight': 411, 'width': 411, 'height': 411, 'widthPercent': 0.45, 'rescaleHeight': False, 'trialN': 114, 'loaded': True, 'loadedTime': 2895, 'positionName': 'LEFT', 'positionCoords': [510.6, 334.5], 'bid': 7.29}, {'imgObject': {}, 'id': 'cocktailshrimp', 'src': '/static/foodstim60/cocktailshrimp.jpg', 'key': 'i', 'origWidth': 410, 'origHeight': 410, 'width': 410, 'height': 410, 'widthPercent': 0.45, 'rescaleHeight': False, 'trialN': 114, 'loaded': True, 'loadedTime': 2899, 'positionName': 'RIGHT', 'positionCoords': [998.4, 335], 'bid': 3.2}]",272923,1669853869074,Grapes,cocktailshrimp,7.29,3.2,-4.09,Grapes,2294,2306,2305.0,True,u,275737,2814,1669853871889,2815,HRV,HRV_0322,2022-12-01 00:20:09
115,"[{'imgObject': {}, 'id': 'blackbeanswithrice', 'src': '/static/foodstim60/blackbeanswithrice.jpg', 'key': 'u', 'origWidth': 410, 'origHeight': 410, 'width': 410, 'height': 410, 'widthPercent': 0.45, 'rescaleHeight': False, 'trialN': 115, 'loaded': True, 'loadedTime': 2908, 'positionName': 'LEFT', 'positionCoords': [511.6, 335], 'bid': 1.3}, {'imgObject': {}, 'id': 'mango', 'src': '/static/foodstim60/mango.jpg', 'key': 'i', 'origWidth': 411, 'origHeight': 411, 'width': 411, 'height': 411, 'widthPercent': 0.45, 'rescaleHeight': False, 'trialN': 115, 'loaded': True, 'loadedTime': 2880, 'positionName': 'RIGHT', 'positionCoords': [998.4, 334.5], 'bid': 6.43}]",275737,1669853871889,blackbeanswithrice,mango,1.3,6.43,5.13,mango,2496,2505,2506.0,True,i,278750,3013,1669853874902,3013,HRV,HRV_0322,2022-12-01 00:20:09
116,"[{'imgObject': {}, 'id': 'omelette', 'src': '/static/foodstim60/omelette.jpg', 'key': 'u', 'origWidth': 410, 'origHeight': 409, 'width': 410, 'height': 409, 'widthPercent': 0.45, 'rescaleHeight': False, 'trialN': 116, 'loaded': True, 'loadedTime': 2910, 'positionName': 'LEFT', 'positionCoords': [511.6, 335.5], 'bid': 5.83}, {'imgObject': {}, 'id': 'hashbrowns', 'src': '/static/foodstim60/hashbrowns.jpg', 'key': 'i', 'origWidth': 411, 'origHeight': 410, 'width': 411, 'height': 410, 'widthPercent': 0.45, 'rescaleHeight': False, 'trialN': 116, 'loaded': True, 'loadedTime': 2898, 'positionName': 'RIGHT', 'positionCoords': [998.4, 335], 'bid': 0.15}]",278750,1669853874902,omelette,hashbrowns,5.83,0.15,-5.68,omelette,999,999,1000.0,True,u,280258,1508,1669853876409,1507,HRV,HRV_0322,2022-12-01 00:20:09
117,"[{'imgObject': {}, 'id': 'turkeysandwich', 'src': '/static/foodstim60/turkeysandwich.jpg', 'key': 'u', 'origWidth': 409, 'origHeight': 409, 'width': 409, 'height': 409, 'widthPercent': 0.45, 'rescaleHeight': False, 'trialN': 117, 'loaded': True, 'loadedTime': 2887, 'positionName': 'LEFT', 'positionCoords': [512.6, 335.5], 'bid': 7.62}, {'imgObject': {}, 'id': 'veggieswithdip', 'src': '/static/foodstim60/veggieswithdip.jpg', 'key': 'i', 'origWidth': 409, 'origHeight': 409, 'width': 409, 'height': 409, 'widthPercent': 0.45, 'rescaleHeight': False, 'trialN': 117, 'loaded': True, 'loadedTime': 2911, 'positionName': 'RIGHT', 'positionCoords': [998.4, 335.5], 'bid': 4.51}]",280258,1669853876409,turkeysandwich,veggieswithdip,7.62,4.51,-3.1100000000000003,turkeysandwich,1552,1558,1558.0,True,u,282318,2060,1669853878469,2060,HRV,HRV_0322,2022-12-01 00:20:09
118,"[{'imgObject': {}, 'id': 'blueberries', 'src': '/static/foodstim60/blueberries.jpg', 'key': 'u', 'origWidth': 411, 'origHeight': 411, 'width': 411, 'height': 411, 'widthPercent': 0.45, 'rescaleHeight': False, 'trialN': 118, 'loaded': True, 'loadedTime': 2891, 'positionName': 'LEFT', 'positionCoords': [510.6, 334.5], 'bid': 5}, {'imgObject': {}, 'id': 'kiwi', 'src': '/static/foodstim60/kiwi.jpg', 'key': 'i', 'origWidth': 410, 'origHeight': 410, 'width': 410, 'height': 410, 'widthPercent': 0.45, 'rescaleHeight': False, 'trialN': 118, 'loaded': True, 'loadedTime': 2893, 'positionName': 'RIGHT', 'positionCoords': [998.4, 335], 'bid': 5.37}]",282318,1669853878469,blueberries,kiwi,5.0,5.37,0.3700000000000001,kiwi,2898,2912,2912.0,True,i,285732,3414,1669853881883,3414,HRV,HRV_0322,2022-12-01 00:20:09
