success,trial_type,trial_index,time_elapsed,internal_node_id,Block,TrialNumber,TrialTime,trialTimeDiff,FPS_avg,FPS_med,FPS_mode,TrialDur,winResizeTime,rt,block,button_pressed,MotCoh,MotDir,ColCoh,Color,ChoiceKey,Choice,Accuracy,RT,nFrames,FPS,PPD,missTrial,missTrialMsg,onsetDelay,fullScreenExitTime,canvCenter,TrialType,Score,BlockTrial,stimulus,button_labels,exp,subjectId,date
True,fullscreen,0,1953,0.0-0.0,0.0,1.0,,,,,,,,,,,,,,,,,,,,,,,,,,,,,,,,HRV,HRV_0322,2022-12-01 00:49:04
,wl-check-fps,1,6956,0.0-1.0,0.0,2.0,"[2524.6, 2532.8, 2549.6, 2566.3, 2582.9, 2599.7, 2616.4, 2633, 2649.7, 2666.4, 2683.2, 2699.8, 2716.5, 2733.2, 2749.9, 2766.6, 2783.3, 2800, 2816.7, 2833.4, 2850.1, 2866.8, 2883.5, 2900.2, 2916.9, 2933.6, 2950.3, 2967, 2983.7, 3000.4, 3017.1, 3033.8, 3050.7, 3067.2, 3083.9, 3100.6, 3117.3, 3134, 3150.7, 3167.3, 3184.1, 3200.8, 3217.5, 3234.2, 3250.9, 3267.5, 3284.3, 3301, 3317.7, 3334.4, 3351, 3367.7, 3384.4, 3401.1, 3417.8, 3434.5, 3451.2, 3468, 3484.6, 3501.4, 3518, 3534.7, 3551.5, 3568.1, 3585.1, 3601.4, 3618.2, 3634.9, 3651.6, 3668.3, 3684.9, 3701.6, 3718.4, 3735.1, 3751.8, 3768.4, 3785.2, 3801.9, 3818.6, 3835.3, 3852, 3868.6, 3885.3, 3902.1, 3918.8, 3935.4, 3952.1, 3968.8, 3985.4, 4002.2, 4018.9, 4035.5, 4052.2, 4069, 4085.6, 4102.4, 4119, 4135.7, 4152.5, 4169.1, 4185.8, 4202.5, 4219.2, 4235.9, 4252.6, 4269.4, 4286.1, 4302.8, 4319.4, 4336.1, 4352.8, 4369.5, 4386.2, 4402.8, 4419.5, 4436.3, 4452.9, 4469.6, 4486.4, 4503, 4519.8, 4536.4, 4553.1, 4569.8, 4586.5, 4603.3, 4619.9, 4636.6, 4653.4, 4670.1, 4686.7, 4703.4, 4720.1, 4736.9, 4753.5, 4770.2, 4786.9, 4803.6, 4820.3, 4837, 4853.7, 4870.4, 4887.1, 4903.8, 4920.5, 4937.2, 4954, 4970.6, 4987.2, 5003.9, 5020.7, 5037.4, 5054.1, 5070.7, 5087.5, 5104.2, 5120.8, 5137.5, 5154.3, 5170.9, 5187.6, 5204.3, 5221, 5237.7, 5254.3, 5271.1, 5287.8, 5304.5, 5321.2, 5337.9, 5354.5, 5371.3, 5388, 5404.6, 5421.4, 5438.1, 5454.7, 5471.5, 5488.2, 5504.9, 5521.5, 5538.2, 5554.9, 5571.7, 5588.3, 5605, 5621.7, 5638.5, 5655.1, 5671.9, 5688.5, 5705.2, 5721.9, 5738.6, 5755.3, 5772, 5788.7, 5805.4, 5822.1, 5838.8, 5855.6, 5872.1, 5888.9, 5905.6, 5922.2, 5939, 5955.6, 5972.3, 5989.1, 6005.8, 6022.4, 6039.1, 6055.8, 6072.5, 6089.2, 6105.9, 6122.6, 6139.3, 6156, 6172.7, 6189.4, 6206.1, 6222.8, 6239.5, 6256.2, 6272.9, 6289.6, 6306.3, 6323, 6339.7, 6356.4, 6373.1, 6389.8, 6406.4, 6423.1, 6439.9, 6456.6, 6473.2, 6490, 6506.6, 6523.4, 6540, 6556.8, 6573.5, 6590.2, 6606.8, 6623.5, 6640.2, 6656.9, 6673.6, 6690.3, 6707, 6723.7, 6740.5, 6757.1, 6773.8, 6790.5, 6807.1, 6823.9, 6840.6, 6857.3, 6874, 6890.7, 6907.4, 6924.1, 6940.7, 6957.5, 6974.2, 6990.8, 7007.5, 7024.3, 7040.9, 7057.6, 7074.4, 7091, 7107.7, 7124.5, 7141.1, 7157.8, 7174.5, 7191.2, 7207.9, 7224.6, 7241.3, 7257.9, 7274.7, 7291.4, 7308.1, 7324.8, 7341.5, 7358.2, 7374.8, 7391.6, 7408.3, 7424.9, 7441.7, 7458.3, 7475.1, 7491.8, 7508.5]","[1.1, 8.2, 16.8, 16.7, 16.6, 16.8, 16.7, 16.6, 16.7, 16.7, 16.8, 16.6, 16.7, 16.7, 16.7, 16.7, 16.7, 16.7, 16.7, 16.7, 16.7, 16.7, 16.7, 16.7, 16.7, 16.7, 16.7, 16.7, 16.7, 16.7, 16.7, 16.7, 16.9, 16.5, 16.7, 16.7, 16.7, 16.7, 16.7, 16.6, 16.8, 16.7, 16.7, 16.7, 16.7, 16.6, 16.8, 16.7, 16.7, 16.7, 16.6, 16.7, 16.7, 16.7, 16.7, 16.7, 16.7, 16.8, 16.6, 16.8, 16.6, 16.7, 16.8, 16.6, 17, 16.3, 16.8, 16.7, 16.7, 16.7, 16.6, 16.7, 16.8, 16.7, 16.7, 16.6, 16.8, 16.7, 16.7, 16.7, 16.7, 16.6, 16.7, 16.8, 16.7, 16.6, 16.7, 16.7, 16.6, 16.8, 16.7, 16.6, 16.7, 16.8, 16.6, 16.8, 16.6, 16.7, 16.8, 16.6, 16.7, 16.7, 16.7, 16.7, 16.7, 16.8, 16.7, 16.7, 16.6, 16.7, 16.7, 16.7, 16.7, 16.6, 16.7, 16.8, 16.6, 16.7, 16.8, 16.6, 16.8, 16.6, 16.7, 16.7, 16.7, 16.8, 16.6, 16.7, 16.8, 16.7, 16.6, 16.7, 16.7, 16.8, 16.6, 16.7, 16.7, 16.7, 16.7, 16.7, 16.7, 16.7, 16.7, 16.7, 16.7, 16.7, 16.8, 16.6, 16.6, 16.7, 16.8, 16.7, 16.7, 16.6, 16.8, 16.7, 16.6, 16.7, 16.8, 16.6, 16.7, 16.7, 16.7, 16.7, 16.6, 16.8, 16.7, 16.7, 16.7, 16.7, 16.6, 16.8, 16.7, 16.6, 16.8, 16.7, 16.6, 16.8, 16.7, 16.7, 16.6, 16.7, 16.7, 16.8, 16.6, 16.7, 16.7, 16.8, 16.6, 16.8, 16.6, 16.7, 16.7, 16.7, 16.7, 16.7, 16.7, 16.7, 16.7, 16.7, 16.8, 16.5, 16.8, 16.7, 16.6, 16.8, 16.6, 16.7, 16.8, 16.7, 16.6, 16.7, 16.7, 16.7, 16.7, 16.7, 16.7, 16.7, 16.7, 16.7, 16.7, 16.7, 16.7, 16.7, 16.7, 16.7, 16.7, 16.7, 16.7, 16.7, 16.7, 16.7, 16.7, 16.6, 16.7, 16.8, 16.7, 16.6, 16.8, 16.6, 16.8, 16.6, 16.8, 16.7, 16.7, 16.6, 16.7, 16.7, 16.7, 16.7, 16.7, 16.7, 16.7, 16.8, 16.6, 16.7, 16.7, 16.6, 16.8, 16.7, 16.7, 16.7, 16.7, 16.7, 16.7, 16.6, 16.8, 16.7, 16.6, 16.7, 16.8, 16.6, 16.7, 16.8, 16.6, 16.7, 16.8, 16.6, 16.7, 16.7, 16.7, 16.7, 16.7, 16.7, 16.6, 16.8, 16.7, 16.7, 16.7, 16.7, 16.7, 16.6, 16.8, 16.7, 16.6, 16.8, 16.6, 16.8, 16.7, 16.7]",60.0,60.0,60.0,5001.6,[],,,,,,,,,,,,,,,,,,,,,,,,,HRV,HRV_0322,2022-12-01 00:49:04
,wl-html-keyboard-response,2,44320,0.0-2.0-0.0,0.0,3.0,,,,,,,,35355.0,0.0,0,,,,,,,,,,,,,,,,,,,,,,HRV,HRV_0322,2022-12-01 00:49:04
,wl-rdm,3,51202,0.0-3.0-0.0,0.0,4.0,,,,,,,[],,,,0.0,0.0,87.9,0.0,u,0.0,True,1306.2000000476837,78.0,60.0,40.0,False,,3000.0,[],"[960, 540]",ColorTask_Demo,,,,,HRV,HRV_0322,2022-12-01 00:49:04
,wl-rdm,4,56561,0.0-3.0-1.0,0.0,5.0,,,,,,,[],,,,0.0,0.0,87.9,1.0,i,1.0,True,1291.7000000476837,77.0,60.0,40.0,False,,2000.0,[],"[960, 540]",ColorTask_Demo,,,,,HRV,HRV_0322,2022-12-01 00:49:04
,wl-html-keyboard-response,5,62328,0.0-3.0-2.0,0.0,6.0,,,,,,,,3764.2999999523163,0.0,1,,,,,,,,,,,,,,,,,,,,,,HRV,HRV_0322,2022-12-01 00:49:04
,wl-html-keyboard-response,6,73640,0.0-4.0-0.0,0.0,7.0,,,,,,,,9307.0,0.0,0,,,,,,,,,,,,,,,,,,,,,,HRV,HRV_0322,2022-12-01 00:49:04
,wl-html-keyboard-response,7,104111,0.0-5.0-0.0,0.0,8.0,,,,,,,,28469.5,0.0,0,,,,,,,,,,,,,,,,,,,,,,HRV,HRV_0322,2022-12-01 00:49:04
,wl-rdm,8,106467,0.0-6.0-0.0,0.0,9.0,,,,,,,[],,,,,,53.2,1.0,u,0.0,False,971.7999999523163,59.0,60.0,40.0,False,,332.99695764725686,[],"[960, 540]",ColorTask,-1.0,1.0,,,HRV,HRV_0322,2022-12-01 00:49:04
,wl-rdm,9,108972,0.0-6.1-0.1,0.0,10.0,,,,,,,[],,,,,,53.2,1.0,u,0.0,False,1229.6000001430511,74.0,60.0,40.0,False,,207.0212750237206,[],"[960, 540]",ColorTask,-2.0,2.0,,,HRV,HRV_0322,2022-12-01 00:49:04
,wl-rdm,10,111710,0.0-6.2-0.2,0.0,11.0,,,,,,,[],,,,,,50.0,1.0,i,1.0,True,1390.2000000476837,84.0,60.0,40.0,False,,277.5203690479425,[],"[960, 540]",ColorTask,-1.0,3.0,,,HRV,HRV_0322,2022-12-01 00:49:04
,wl-rdm,11,114365,0.0-6.3-0.3,0.0,12.0,,,,,,,[],,,,,,53.2,0.0,i,1.0,False,1295.5999999046326,78.0,60.0,40.0,False,,296.3882814512998,[],"[960, 540]",ColorTask,-2.0,4.0,,,HRV,HRV_0322,2022-12-01 00:49:04
,wl-rdm,12,116735,0.0-6.4-0.4,0.0,13.0,,,,,,,[],,,,,,73.6,0.0,u,0.0,True,1070.400000333786,64.0,60.0,40.0,False,,222.7847384796261,[],"[960, 540]",ColorTask,-1.0,5.0,,,HRV,HRV_0322,2022-12-01 00:49:04
,wl-rdm,13,118973,0.0-6.5-0.5,0.0,14.0,,,,,,,[],,,,,,73.6,1.0,i,1.0,True,855.0999999046326,52.0,60.0,40.0,False,,316.0624262882684,[],"[960, 540]",ColorTask,0.0,6.0,,,HRV,HRV_0322,2022-12-01 00:49:04
,wl-rdm,14,121177,0.0-6.6-0.6,0.0,15.0,,,,,,,[],,,,,,56.4,1.0,i,1.0,True,889.5,54.0,60.0,40.0,False,,240.57852134906744,[],"[960, 540]",ColorTask,1.0,7.0,,,HRV,HRV_0322,2022-12-01 00:49:04
,wl-rdm,15,123397,0.0-6.7-0.7,0.0,16.0,,,,,,,[],,,,,,62.5,0.0,u,0.0,True,893.9000000953674,54.0,60.0,40.0,False,,261.6081634592443,[],"[960, 540]",ColorTask,2.0,8.0,,,HRV,HRV_0322,2022-12-01 00:49:04
,wl-rdm,16,125384,0.0-6.8-0.8,0.0,17.0,,,,,,,[],,,,,,87.9,1.0,i,1.0,True,676.0,40.0,60.0,40.0,False,,235.00745353525508,[],"[960, 540]",ColorTask,3.0,9.0,,,HRV,HRV_0322,2022-12-01 00:49:04
,wl-rdm,17,127455,0.0-6.9-0.9,0.0,18.0,,,,,,,[],,,,,,73.6,1.0,i,1.0,True,725.6000001430511,44.0,60.0,40.0,False,,281.50216286626255,[],"[960, 540]",ColorTask,4.0,10.0,,,HRV,HRV_0322,2022-12-01 00:49:04
,wl-rdm,18,129542,0.0-6.10-0.10,0.0,19.0,,,,,,,[],,,,,,62.5,1.0,i,1.0,True,808.0,49.0,60.0,40.0,False,,212.61021758720884,[],"[960, 540]",ColorTask,5.0,11.0,,,HRV,HRV_0322,2022-12-01 00:49:04
,wl-rdm,19,131612,0.0-6.11-0.11,0.0,20.0,,,,,,,[],,,,,,73.6,0.0,u,0.0,True,730.5,43.0,60.0,40.0,False,,269.4398850000407,[],"[960, 540]",ColorTask,6.0,12.0,,,HRV,HRV_0322,2022-12-01 00:49:04
,wl-rdm,20,134016,0.0-6.12-0.12,0.0,21.0,,,,,,,[],,,,,,53.2,1.0,i,1.0,True,1087.2000000476837,66.0,60.0,40.0,False,,236.3313745874405,[],"[960, 540]",ColorTask,7.0,13.0,,,HRV,HRV_0322,2022-12-01 00:49:04
,wl-rdm,21,136487,0.0-6.13-0.13,0.0,22.0,,,,,,,[],,,,,,50.0,0.0,i,1.0,False,1059.7000000476837,64.0,60.0,40.0,False,,334.89160165365774,[],"[960, 540]",ColorTask,6.0,14.0,,,HRV,HRV_0322,2022-12-01 00:49:04
,wl-rdm,22,138842,0.0-6.14-0.14,0.0,23.0,,,,,,,[],,,,,,56.4,0.0,i,1.0,False,971.0,59.0,60.0,40.0,False,,316.86852818857415,[],"[960, 540]",ColorTask,5.0,15.0,,,HRV,HRV_0322,2022-12-01 00:49:04
,wl-rdm,23,141296,0.0-6.15-0.15,0.0,24.0,,,,,,,[],,,,,,53.2,1.0,u,0.0,False,1177.0999999046326,71.0,60.0,40.0,False,,208.60604485710198,[],"[960, 540]",ColorTask,4.0,16.0,,,HRV,HRV_0322,2022-12-01 00:49:04
,wl-rdm,24,143433,0.0-6.16-0.16,0.0,25.0,,,,,,,[],,,,,,73.6,1.0,i,1.0,True,739.6000001430511,45.0,60.0,40.0,False,,331.632865496813,[],"[960, 540]",ColorTask,5.0,17.0,,,HRV,HRV_0322,2022-12-01 00:49:04
,wl-rdm,25,145520,0.0-6.17-0.17,0.0,26.0,,,,,,,[],,,,,,50.0,1.0,i,1.0,True,762.4000000953674,46.0,60.0,40.0,False,,257.7799108072915,[],"[960, 540]",ColorTask,6.0,18.0,,,HRV,HRV_0322,2022-12-01 00:49:04
,wl-rdm,26,147758,0.0-6.18-0.18,0.0,27.0,,,,,,,[],,,,,,53.2,0.0,u,0.0,True,891.5999999046326,54.0,60.0,40.0,False,,276.0575557887677,[],"[960, 540]",ColorTask,7.0,19.0,,,HRV,HRV_0322,2022-12-01 00:49:04
,wl-rdm,27,149811,0.0-6.19-0.19,0.0,28.0,,,,,,,[],,,,,,87.9,1.0,i,1.0,True,699.5999999046326,42.0,60.0,40.0,False,,290.18238335466015,[],"[960, 540]",ColorTask,8.0,20.0,,,HRV,HRV_0322,2022-12-01 00:49:04
,wl-rdm,28,151765,0.0-6.20-0.20,0.0,29.0,,,,,,,[],,,,,,87.9,0.0,u,0.0,True,616.5,37.0,60.0,40.0,False,,277.9231424006974,[],"[960, 540]",ColorTask,9.0,21.0,,,HRV,HRV_0322,2022-12-01 00:49:04
,wl-rdm,29,153869,0.0-6.21-0.21,0.0,30.0,,,,,,,[],,,,,,73.6,0.0,u,0.0,True,714.9000000953674,43.0,60.0,40.0,False,,322.50936260079555,[],"[960, 540]",ColorTask,10.0,22.0,,,HRV,HRV_0322,2022-12-01 00:49:04
,wl-rdm,30,155872,0.0-6.22-0.22,0.0,31.0,,,,,,,[],,,,,,87.9,1.0,i,1.0,True,700.7000000476837,42.0,60.0,40.0,False,,239.0361656554743,[],"[960, 540]",ColorTask,11.0,23.0,,,HRV,HRV_0322,2022-12-01 00:49:04
,wl-rdm,31,157976,0.0-6.23-0.23,0.0,32.0,,,,,,,[],,,,,,73.6,0.0,u,0.0,True,777.7999999523163,47.0,60.0,40.0,False,,254.64606628875708,[],"[960, 540]",ColorTask,12.0,24.0,,,HRV,HRV_0322,2022-12-01 00:49:04
,wl-rdm,32,159963,0.0-6.24-0.24,0.0,33.0,,,,,,,[],,,,,,73.6,0.0,u,0.0,True,635.0000002384186,39.0,60.0,40.0,False,,278.80400801737403,[],"[960, 540]",ColorTask,13.0,25.0,,,HRV,HRV_0322,2022-12-01 00:49:04
,wl-rdm,33,162417,0.0-6.25-0.25,0.0,34.0,,,,,,,[],,,,,,53.2,1.0,u,0.0,False,1117.1000001430511,67.0,60.0,40.0,False,,282.1819719682055,[],"[960, 540]",ColorTask,12.0,26.0,,,HRV,HRV_0322,2022-12-01 00:49:04
,wl-rdm,34,164655,0.0-6.26-0.26,0.0,35.0,,,,,,,[],,,,,,73.6,1.0,i,1.0,True,858.400000333786,52.0,60.0,40.0,False,,311.19212289031793,[],"[960, 540]",ColorTask,13.0,27.0,,,HRV,HRV_0322,2022-12-01 00:49:04
,wl-rdm,35,166825,0.0-6.27-0.27,0.0,36.0,,,,,,,[],,,,,,62.5,1.0,i,1.0,True,757.5,46.0,60.0,40.0,False,,343.5030187268983,[],"[960, 540]",ColorTask,14.0,28.0,,,HRV,HRV_0322,2022-12-01 00:49:04
,wl-rdm,36,169280,0.0-6.28-0.28,0.0,37.0,,,,,,,[],,,,,,53.2,1.0,i,1.0,True,1001.0,60.0,60.0,40.0,False,,385.03236709268185,[],"[960, 540]",ColorTask,15.0,29.0,,,HRV,HRV_0322,2022-12-01 00:49:04
,wl-rdm,37,171417,0.0-6.29-0.29,0.0,38.0,,,,,,,[],,,,,,50.0,0.0,i,1.0,False,864.2000000476837,52.0,60.0,40.0,False,,207.31666306542752,[],"[960, 540]",ColorTask,14.0,30.0,,,HRV,HRV_0322,2022-12-01 00:49:04
,wl-rdm,38,173721,0.0-6.30-0.30,0.0,39.0,,,,,,,[],,,,,,56.4,1.0,u,0.0,False,1031.1000001430511,62.0,60.0,40.0,False,,210.19443169211814,[],"[960, 540]",ColorTask,13.0,31.0,,,HRV,HRV_0322,2022-12-01 00:49:04
,wl-rdm,39,175925,0.0-6.31-0.31,0.0,40.0,,,,,,,[],,,,,,56.4,1.0,i,1.0,True,874.8000001907349,53.0,60.0,40.0,False,,266.80603157905375,[],"[960, 540]",ColorTask,14.0,32.0,,,HRV,HRV_0322,2022-12-01 00:49:04
,wl-rdm,40,177912,0.0-6.32-0.32,0.0,41.0,,,,,,,[],,,,,,87.9,0.0,u,0.0,True,698.3999998569489,42.0,60.0,40.0,False,,233.2314742274865,[],"[960, 540]",ColorTask,15.0,33.0,,,HRV,HRV_0322,2022-12-01 00:49:04
,wl-rdm,41,179832,0.0-6.33-0.33,0.0,42.0,,,,,,,[],,,,,,73.6,0.0,u,0.0,True,600.0,36.0,60.0,40.0,False,,265.12504722911046,[],"[960, 540]",ColorTask,16.0,34.0,,,HRV,HRV_0322,2022-12-01 00:49:04
,wl-rdm,42,181952,0.0-6.34-0.34,0.0,43.0,,,,,,,[],,,,,,56.4,0.0,u,0.0,True,767.6999998092651,46.0,60.0,40.0,False,,288.6409067610078,[],"[960, 540]",ColorTask,17.0,35.0,,,HRV,HRV_0322,2022-12-01 00:49:04
,wl-rdm,43,184073,0.0-6.35-0.35,0.0,44.0,,,,,,,[],,,,,,62.5,0.0,u,0.0,True,781.7000000476837,47.0,60.0,40.0,False,,269.62191786020685,[],"[960, 540]",ColorTask,18.0,36.0,,,HRV,HRV_0322,2022-12-01 00:49:04
,wl-rdm,44,186444,0.0-6.36-0.36,0.0,45.0,,,,,,,[],,,,,,56.4,1.0,i,1.0,True,963.4000000953674,57.0,60.0,40.0,False,,340.2356912312772,[],"[960, 540]",ColorTask,19.0,37.0,,,HRV,HRV_0322,2022-12-01 00:49:04
,wl-rdm,45,188648,0.0-6.37-0.37,0.0,46.0,,,,,,,[],,,,,,62.5,1.0,i,1.0,True,739.5,45.0,60.0,40.0,False,,393.12734211366524,[],"[960, 540]",ColorTask,20.0,38.0,,,HRV,HRV_0322,2022-12-01 00:49:04
,wl-rdm,46,190868,0.0-6.38-0.38,0.0,47.0,,,,,,,[],,,,,,53.2,1.0,i,1.0,True,845.2000000476837,51.0,60.0,40.0,False,,313.8417896977612,[],"[960, 540]",ColorTask,21.0,39.0,,,HRV,HRV_0322,2022-12-01 00:49:04
,wl-rdm,47,192955,0.0-6.39-0.39,0.0,48.0,,,,,,,[],,,,,,50.0,1.0,i,1.0,True,813.5,49.0,60.0,40.0,False,,211.53787762021093,[],"[960, 540]",ColorTask,22.0,40.0,,,HRV,HRV_0322,2022-12-01 00:49:04
,wl-rdm,48,195193,0.0-6.40-0.40,0.0,49.0,,,,,,,[],,,,,,62.5,1.0,i,1.0,True,955.4000000953674,58.0,60.0,40.0,False,,202.3824048907892,[],"[960, 540]",ColorTask,23.0,41.0,,,HRV,HRV_0322,2022-12-01 00:49:04
,wl-rdm,49,197564,0.0-6.41-0.41,0.0,50.0,,,,,,,[],,,,,,56.4,0.0,u,0.0,True,1028.5000002384186,62.0,60.0,40.0,False,,267.46707034053554,[],"[960, 540]",ColorTask,24.0,42.0,,,HRV,HRV_0322,2022-12-01 00:49:04
,wl-rdm,50,199701,0.0-6.42-0.42,0.0,51.0,,,,,,,[],,,,,,73.6,1.0,i,1.0,True,770.8000001907349,47.0,60.0,40.0,False,,285.2316907046635,[],"[960, 540]",ColorTask,25.0,43.0,,,HRV,HRV_0322,2022-12-01 00:49:04
,wl-rdm,51,201788,0.0-6.43-0.43,0.0,52.0,,,,,,,[],,,,,,87.9,0.0,u,0.0,True,659.8000001907349,40.0,60.0,40.0,False,,355.98468589258704,[],"[960, 540]",ColorTask,26.0,44.0,,,HRV,HRV_0322,2022-12-01 00:49:04
,wl-rdm,52,204075,0.0-6.44-0.44,0.0,53.0,,,,,,,[],,,,,,56.4,1.0,i,1.0,True,937.2000000476837,57.0,60.0,40.0,False,,272.9837133452518,[],"[960, 540]",ColorTask,27.0,45.0,,,HRV,HRV_0322,2022-12-01 00:49:04
,wl-rdm,53,206196,0.0-6.45-0.45,0.0,54.0,,,,,,,[],,,,,,56.4,1.0,i,1.0,True,846.5,51.0,60.0,40.0,False,,215.4356597390906,[],"[960, 540]",ColorTask,28.0,46.0,,,HRV,HRV_0322,2022-12-01 00:49:04
,wl-rdm,54,208450,0.0-6.46-0.46,0.0,55.0,,,,,,,[],,,,,,56.4,0.0,u,0.0,True,962.4000000953674,58.0,60.0,40.0,False,,228.00515397163588,[],"[960, 540]",ColorTask,29.0,47.0,,,HRV,HRV_0322,2022-12-01 00:49:04
,wl-rdm,55,210437,0.0-6.47-0.47,0.0,56.0,,,,,,,[],,,,,,87.9,1.0,i,1.0,True,673.6999998092651,41.0,60.0,40.0,False,,236.79440342079604,[],"[960, 540]",ColorTask,30.0,48.0,,,HRV,HRV_0322,2022-12-01 00:49:04
,wl-rdm,56,212674,0.0-6.48-0.48,0.0,57.0,,,,,,,[],,,,,,56.4,1.0,u,0.0,False,920.5999999046326,56.0,60.0,40.0,False,,222.41104708279514,[],"[960, 540]",ColorTask,29.0,49.0,,,HRV,HRV_0322,2022-12-01 00:49:04
,wl-rdm,57,215245,0.0-6.49-0.49,0.0,58.0,,,,,,,[],,,,,,50.0,1.0,i,1.0,True,1116.2000000476837,67.0,60.0,40.0,False,,395.8142564177299,[],"[960, 540]",ColorTask,30.0,50.0,,,HRV,HRV_0322,2022-12-01 00:49:04
,wl-rdm,58,217800,0.0-6.50-0.50,0.0,59.0,,,,,,,[],,,,,,50.0,0.0,i,1.0,False,1164.7000000476837,70.0,60.0,40.0,False,,325.418932522828,[],"[960, 540]",ColorTask,29.0,51.0,,,HRV,HRV_0322,2022-12-01 00:49:04
,wl-rdm,59,220054,0.0-6.51-0.51,0.0,60.0,,,,,,,[],,,,,,56.4,1.0,u,0.0,False,938.7000000476837,57.0,60.0,40.0,False,,246.45392775988896,[],"[960, 540]",ColorTask,28.0,52.0,,,HRV,HRV_0322,2022-12-01 00:49:04
,wl-rdm,60,222007,0.0-6.52-0.52,0.0,61.0,,,,,,,[],,,,,,87.9,0.0,u,0.0,True,646.5999999046326,39.0,60.0,40.0,False,,238.1866072672678,[],"[960, 540]",ColorTask,29.0,53.0,,,HRV,HRV_0322,2022-12-01 00:49:04
,wl-rdm,61,224312,0.0-6.53-0.53,0.0,62.0,,,,,,,[],,,,,,50.0,0.0,i,1.0,False,1023.5999999046326,62.0,60.0,40.0,False,,213.63547447514551,[],"[960, 540]",ColorTask,28.0,54.0,,,HRV,HRV_0322,2022-12-01 00:49:04
,wl-rdm,62,227734,0.0-6.54-0.54,0.0,63.0,,,,,,,[],,,,,,62.5,0.0,u,0.0,True,2068.9000000953674,124.0,60.0,40.0,False,,288.0933589796303,[],"[960, 540]",ColorTask,29.0,55.0,,,HRV,HRV_0322,2022-12-01 00:49:04
,wl-rdm,63,230539,0.0-6.55-0.55,0.0,64.0,,,,,,,[],,,,,,62.5,0.0,u,0.0,True,1404.6000001430511,85.0,60.0,40.0,False,,319.75307011843216,[],"[960, 540]",ColorTask,30.0,56.0,,,HRV,HRV_0322,2022-12-01 00:49:04
,wl-rdm,64,232894,0.0-6.56-0.56,0.0,65.0,,,,,,,[],,,,,,73.6,0.0,u,0.0,True,1034.4000000953674,62.0,60.0,40.0,False,,256.9488436106774,[],"[960, 540]",ColorTask,31.0,57.0,,,HRV,HRV_0322,2022-12-01 00:49:04
,wl-rdm,65,236517,0.0-6.57-0.57,0.0,66.0,,,,,,,[],,,,,,53.2,0.0,u,0.0,True,2167.7000000476837,130.0,60.0,40.0,False,,388.37902918532114,[],"[960, 540]",ColorTask,32.0,58.0,,,HRV,HRV_0322,2022-12-01 00:49:04
,wl-rdm,66,239689,0.0-6.58-0.58,0.0,67.0,,,,,,,[],,,,,,53.2,0.0,u,0.0,True,1719.5999999046326,103.0,60.0,40.0,False,,384.03434985370285,[],"[960, 540]",ColorTask,33.0,59.0,,,HRV,HRV_0322,2022-12-01 00:49:04
,wl-rdm,67,242578,0.0-6.59-0.59,0.0,68.0,,,,,,,[],,,,,,62.5,1.0,i,1.0,True,1505.7000000476837,91.0,60.0,40.0,False,,303.28362181887167,[],"[960, 540]",ColorTask,34.0,60.0,,,HRV,HRV_0322,2022-12-01 00:49:04
,wl-rdm,68,245717,0.0-6.60-0.60,0.0,69.0,,,,,,,[],,,,,,50.0,1.0,i,1.0,True,1718.2000002861023,103.0,60.0,40.0,False,,366.96239623358355,[],"[960, 540]",ColorTask,35.0,61.0,,,HRV,HRV_0322,2022-12-01 00:49:04
,wl-rdm,69,247920,0.0-6.61-0.61,0.0,70.0,,,,,,,[],,,,,,87.9,1.0,i,1.0,True,917.7999999523163,55.0,60.0,40.0,False,,231.54277124627163,[],"[960, 540]",ColorTask,36.0,62.0,,,HRV,HRV_0322,2022-12-01 00:49:04
,wl-rdm,70,250225,0.0-6.62-0.62,0.0,71.0,,,,,,,[],,,,,,87.9,0.0,u,0.0,True,944.1999998092651,56.0,60.0,40.0,False,,291.0926707564611,[],"[960, 540]",ColorTask,37.0,63.0,,,HRV,HRV_0322,2022-12-01 00:49:04
,wl-rdm,71,252913,0.0-6.63-0.63,0.0,72.0,,,,,,,[],,,,,,56.4,0.0,u,0.0,True,1219.7999999523163,74.0,60.0,40.0,False,,395.37734461787124,[],"[960, 540]",ColorTask,38.0,64.0,,,HRV,HRV_0322,2022-12-01 00:49:04
,wl-rdm,72,255868,0.0-6.64-0.64,0.0,73.0,,,,,,,[],,,,,,62.5,0.0,u,0.0,True,1507.1000001430511,91.0,60.0,40.0,False,,376.7564935687071,[],"[960, 540]",ColorTask,39.0,65.0,,,HRV,HRV_0322,2022-12-01 00:49:04
,wl-rdm,73,258807,0.0-6.65-0.65,0.0,74.0,,,,,,,[],,,,,,53.2,0.0,u,0.0,True,1620.5,97.0,60.0,40.0,False,,244.93442134147094,[],"[960, 540]",ColorTask,40.0,66.0,,,HRV,HRV_0322,2022-12-01 00:49:04
,wl-rdm,74,261528,0.0-6.66-0.66,0.0,75.0,,,,,,,[],,,,,,73.6,1.0,i,1.0,True,1417.2000000476837,85.0,60.0,40.0,False,,244.54287948363694,[],"[960, 540]",ColorTask,41.0,67.0,,,HRV,HRV_0322,2022-12-01 00:49:04
,wl-rdm,75,263715,0.0-6.67-0.67,0.0,76.0,,,,,,,[],,,,,,87.9,0.0,u,0.0,True,886.0,54.0,60.0,40.0,False,,231.17539974266344,[],"[960, 540]",ColorTask,42.0,68.0,,,HRV,HRV_0322,2022-12-01 00:49:04
,wl-rdm,76,266286,0.0-6.68-0.68,0.0,77.0,,,,,,,[],,,,,,53.2,0.0,u,0.0,True,1199.400000333786,72.0,60.0,40.0,False,,305.8465115851487,[],"[960, 540]",ColorTask,43.0,69.0,,,HRV,HRV_0322,2022-12-01 00:49:04
,wl-rdm,77,268958,0.0-6.69-0.69,0.0,78.0,,,,,,,[],,,,,,56.4,0.0,u,0.0,True,1396.2999999523163,84.0,60.0,40.0,False,,207.50666711290847,[],"[960, 540]",ColorTask,44.0,70.0,,,HRV,HRV_0322,2022-12-01 00:49:04
,wl-rdm,78,271679,0.0-6.70-0.70,0.0,79.0,,,,,,,[],,,,,,87.9,0.0,u,0.0,True,1407.400000333786,85.0,60.0,40.0,False,,245.94883889549007,[],"[960, 540]",ColorTask,45.0,71.0,,,HRV,HRV_0322,2022-12-01 00:49:04
,wl-rdm,79,274852,0.0-6.71-0.71,0.0,80.0,,,,,,,[],,,,,,50.0,1.0,u,0.0,False,1830.5,110.0,60.0,40.0,False,,283.3504579523984,[],"[960, 540]",ColorTask,44.0,72.0,,,HRV,HRV_0322,2022-12-01 00:49:04
,wl-rdm,80,277740,0.0-6.72-0.72,0.0,81.0,,,,,,,[],,,,,,56.4,0.0,u,0.0,True,1574.6000001430511,95.0,60.0,40.0,False,,243.89089964891252,[],"[960, 540]",ColorTask,45.0,73.0,,,HRV,HRV_0322,2022-12-01 00:49:04
,wl-rdm,81,280094,0.0-6.73-0.73,0.0,82.0,,,,,,,[],,,,,,73.6,1.0,i,1.0,True,1034.3999998569489,61.0,60.0,40.0,False,,253.94838920839183,[],"[960, 540]",ColorTask,46.0,74.0,,,HRV,HRV_0322,2022-12-01 00:49:04
,wl-rdm,82,282966,0.0-6.74-0.74,0.0,83.0,,,,,,,[],,,,,,62.5,1.0,i,1.0,True,1569.8999998569489,95.0,60.0,40.0,False,,230.01275749626956,[],"[960, 540]",ColorTask,47.0,75.0,,,HRV,HRV_0322,2022-12-01 00:49:04
,wl-rdm,83,285972,0.0-6.75-0.75,0.0,84.0,,,,,,,[],,,,,,62.5,0.0,u,0.0,True,1565.4000000953674,94.0,60.0,40.0,False,,373.8173872942156,[],"[960, 540]",ColorTask,48.0,76.0,,,HRV,HRV_0322,2022-12-01 00:49:04
,wl-rdm,84,288643,0.0-6.76-0.76,0.0,85.0,,,,,,,[],,,,,,73.6,1.0,i,1.0,True,1399.0,84.0,60.0,40.0,False,,210.08481143418794,[],"[960, 540]",ColorTask,49.0,77.0,,,HRV,HRV_0322,2022-12-01 00:49:04
,wl-rdm,85,291448,0.0-6.77-0.77,0.0,86.0,,,,,,,[],,,,,,53.2,0.0,u,0.0,True,1444.0,87.0,60.0,40.0,False,,297.2384710687877,[],"[960, 540]",ColorTask,50.0,78.0,,,HRV,HRV_0322,2022-12-01 00:49:04
,wl-rdm,86,294270,0.0-6.78-0.78,0.0,87.0,,,,,,,[],,,,,,62.5,0.0,u,0.0,True,1378.5,83.0,60.0,40.0,False,,372.14833690907676,[],"[960, 540]",ColorTask,51.0,79.0,,,HRV,HRV_0322,2022-12-01 00:49:04
,wl-rdm,87,296791,0.0-6.79-0.79,0.0,88.0,,,,,,,[],,,,,,73.6,1.0,i,1.0,True,1194.7000000476837,72.0,60.0,40.0,False,,269.8571858202424,[],"[960, 540]",ColorTask,52.0,80.0,,,HRV,HRV_0322,2022-12-01 00:49:04
,wl-rdm,88,299212,0.0-6.80-0.80,0.0,89.0,,,,,,,[],,,,,,87.9,1.0,i,1.0,True,1123.0,68.0,60.0,40.0,False,,224.1862071514603,[],"[960, 540]",ColorTask,53.0,81.0,,,HRV,HRV_0322,2022-12-01 00:49:04
,wl-rdm,89,301984,0.0-6.81-0.81,0.0,90.0,,,,,,,[],,,,,,50.0,0.0,u,0.0,True,1423.8000001907349,86.0,60.0,40.0,False,,270.22814406116515,[],"[960, 540]",ColorTask,54.0,82.0,,,HRV,HRV_0322,2022-12-01 00:49:04
,wl-rdm,90,304488,0.0-6.82-0.82,0.0,91.0,,,,,,,[],,,,,,87.9,1.0,i,1.0,True,1156.0999999046326,70.0,60.0,40.0,False,,273.9213055448265,[],"[960, 540]",ColorTask,55.0,83.0,,,HRV,HRV_0322,2022-12-01 00:49:04
,wl-rdm,91,307544,0.0-6.83-0.83,0.0,92.0,,,,,,,[],,,,,,50.0,0.0,u,0.0,True,1768.8000001907349,105.0,60.0,40.0,False,,219.29605725919384,[],"[960, 540]",ColorTask,56.0,84.0,,,HRV,HRV_0322,2022-12-01 00:49:04
,wl-rdm,92,310900,0.0-6.84-0.84,0.0,93.0,,,,,,,[],,,,,,50.0,0.0,u,0.0,True,1970.2000002861023,118.0,60.0,40.0,False,,331.0127768172446,[],"[960, 540]",ColorTask,57.0,85.0,,,HRV,HRV_0322,2022-12-01 00:49:04
,wl-rdm,93,313805,0.0-6.85-0.85,0.0,94.0,,,,,,,[],,,,,,50.0,0.0,i,1.0,False,1460.0999999046326,87.0,60.0,40.0,False,,381.47850468151444,[],"[960, 540]",ColorTask,56.0,86.0,,,HRV,HRV_0322,2022-12-01 00:49:04
,wl-rdm,94,316159,0.0-6.86-0.86,0.0,95.0,,,,,,,[],,,,,,73.6,0.0,u,0.0,True,987.5,60.0,60.0,40.0,False,,289.61747769615926,[],"[960, 540]",ColorTask,57.0,87.0,,,HRV,HRV_0322,2022-12-01 00:49:04
,wl-rdm,95,318163,0.0-6.87-0.87,0.0,96.0,,,,,,,[],,,,,,73.6,0.0,u,0.0,True,633.4000000953674,38.0,60.0,40.0,False,,308.6268180821038,[],"[960, 540]",ColorTask,58.0,88.0,,,HRV,HRV_0322,2022-12-01 00:49:04
,wl-rdm,96,320984,0.0-6.88-0.88,0.0,97.0,,,,,,,[],,,,,,50.0,1.0,u,0.0,False,1395.7000000476837,84.0,60.0,40.0,False,,352.86076754451176,[],"[960, 540]",ColorTask,57.0,89.0,,,HRV,HRV_0322,2022-12-01 00:49:04
,wl-rdm,97,323539,0.0-6.89-0.89,0.0,98.0,,,,,,,[],,,,,,62.5,0.0,u,0.0,True,1209.5,73.0,60.0,40.0,False,,273.7899570540143,[],"[960, 540]",ColorTask,58.0,90.0,,,HRV,HRV_0322,2022-12-01 00:49:04
,wl-rdm,98,326277,0.0-6.90-0.90,0.0,99.0,,,,,,,[],,,,,,62.5,1.0,i,1.0,True,1424.5,85.0,60.0,40.0,False,,237.44293091630817,[],"[960, 540]",ColorTask,59.0,91.0,,,HRV,HRV_0322,2022-12-01 00:49:04
,wl-rdm,99,328665,0.0-6.91-0.91,0.0,100.0,,,,,,,[],,,,,,56.4,0.0,u,0.0,True,1037.5999999046326,63.0,60.0,40.0,False,,274.9726147449609,[],"[960, 540]",ColorTask,60.0,92.0,,,HRV,HRV_0322,2022-12-01 00:49:04
,wl-rdm,100,331904,0.0-6.92-0.92,0.0,101.0,,,,,,,[],,,,,,56.4,0.0,u,0.0,True,1775.2000000476837,107.0,60.0,40.0,False,,397.5573903798287,[],"[960, 540]",ColorTask,61.0,93.0,,,HRV,HRV_0322,2022-12-01 00:49:04
,wl-rdm,101,334475,0.0-6.93-0.93,0.0,102.0,,,,,,,[],,,,,,53.2,1.0,u,0.0,False,1254.4000000953674,76.0,60.0,40.0,False,,237.47372110771656,[],"[960, 540]",ColorTask,60.0,94.0,,,HRV,HRV_0322,2022-12-01 00:49:04
,wl-rdm,102,336779,0.0-6.94-0.94,0.0,103.0,,,,,,,[],,,,,,87.9,0.0,u,0.0,True,850.0999999046326,51.0,60.0,40.0,False,,398.18202514051177,[],"[960, 540]",ColorTask,61.0,95.0,,,HRV,HRV_0322,2022-12-01 00:49:04
,wl-rdm,103,339000,0.0-6.95-0.95,0.0,104.0,,,,,,,[],,,,,,87.9,1.0,i,1.0,True,946.4000000953674,57.0,60.0,40.0,False,,213.36886264486608,[],"[960, 540]",ColorTask,62.0,96.0,,,HRV,HRV_0322,2022-12-01 00:49:04
,wl-rdm,104,342189,0.0-6.96-0.96,0.0,105.0,,,,,,,[],,,,,,56.4,1.0,u,0.0,False,1903.7999999523163,115.0,60.0,40.0,False,,214.21346312729383,[],"[960, 540]",ColorTask,61.0,97.0,,,HRV,HRV_0322,2022-12-01 00:49:04
,wl-rdm,105,345061,0.0-6.97-0.97,0.0,106.0,,,,,,,[],,,,,,50.0,1.0,u,0.0,False,1569.3000001907349,94.0,60.0,40.0,False,,241.89918837357544,[],"[960, 540]",ColorTask,60.0,98.0,,,HRV,HRV_0322,2022-12-01 00:49:04
,wl-rdm,106,347933,0.0-6.98-0.98,0.0,107.0,,,,,,,[],,,,,,53.2,0.0,u,0.0,True,1447.6000001430511,87.0,60.0,40.0,False,,352.7685085402852,[],"[960, 540]",ColorTask,61.0,99.0,,,HRV,HRV_0322,2022-12-01 00:49:04
,wl-rdm,107,350654,0.0-6.99-0.99,0.0,108.0,,,,,,,[],,,,,,62.5,1.0,i,1.0,True,1442.1000001430511,87.0,60.0,40.0,False,,211.76303232954382,[],"[960, 540]",ColorTask,62.0,100.0,,,HRV,HRV_0322,2022-12-01 00:49:04
,wl-rdm,108,353810,0.0-6.100-0.100,0.0,109.0,,,,,,,[],,,,,,53.2,1.0,i,1.0,True,1857.9000000953674,112.0,60.0,40.0,False,,217.91980541206374,[],"[960, 540]",ColorTask,63.0,101.0,,,HRV,HRV_0322,2022-12-01 00:49:04
,wl-rdm,109,356064,0.0-6.101-0.101,0.0,110.0,,,,,,,[],,,,,,87.9,0.0,u,0.0,True,788.3000001907349,48.0,60.0,40.0,False,,396.1189050566892,[],"[960, 540]",ColorTask,64.0,102.0,,,HRV,HRV_0322,2022-12-01 00:49:04
,wl-rdm,110,359220,0.0-6.102-0.102,0.0,111.0,,,,,,,[],,,,,,53.2,0.0,u,0.0,True,1784.7999999523163,107.0,60.0,40.0,False,,302.7230593007789,[],"[960, 540]",ColorTask,65.0,103.0,,,HRV,HRV_0322,2022-12-01 00:49:04
,wl-rdm,111,361657,0.0-6.103-0.103,0.0,112.0,,,,,,,[],,,,,,50.0,0.0,u,0.0,True,1111.1000001430511,67.0,60.0,40.0,False,,265.13401241418035,[],"[960, 540]",ColorTask,66.0,104.0,,,HRV,HRV_0322,2022-12-01 00:49:04
,wl-rdm,112,363794,0.0-6.104-0.104,0.0,113.0,,,,,,,[],,,,,,87.9,1.0,i,1.0,True,798.7000000476837,48.0,60.0,40.0,False,,274.80755189708384,[],"[960, 540]",ColorTask,67.0,105.0,,,HRV,HRV_0322,2022-12-01 00:49:04
,wl-rdm,113,368035,0.0-6.105-0.105,0.0,114.0,,,,,,,[],,,,,,50.0,1.0,u,0.0,False,2917.300000190735,175.0,60.0,40.0,False,,251.03106548493375,[],"[960, 540]",ColorTask,66.0,106.0,,,HRV,HRV_0322,2022-12-01 00:49:04
,wl-rdm,114,370523,0.0-6.106-0.106,0.0,115.0,,,,,,,[],,,,,,62.5,1.0,i,1.0,True,1215.5,73.0,60.0,40.0,False,,204.57089135947166,[],"[960, 540]",ColorTask,67.0,107.0,,,HRV,HRV_0322,2022-12-01 00:49:04
,wl-rdm,115,372710,0.0-6.107-0.107,0.0,116.0,,,,,,,[],,,,,,62.5,0.0,u,0.0,True,795.9000000953674,48.0,60.0,40.0,False,,327.4707184435605,[],"[960, 540]",ColorTask,68.0,108.0,,,HRV,HRV_0322,2022-12-01 00:49:04
,wl-html-keyboard-response,116,467912,0.0-7.0-0.0,1.0,117.0,,,,,,,,93193.69999980927,1.0,0,,,,,,,,,,,,,,,,,,,,,,HRV,HRV_0322,2022-12-01 00:49:04
,wl-rdm,117,471203,0.0-8.0-0.0,1.0,118.0,,,,,,,[],,,,,,73.6,1.0,i,1.0,True,1944.0000002384186,117.0,60.0,40.0,False,,287.4764380016905,[],"[960, 540]",ColorTask,69.0,1.0,,,HRV,HRV_0322,2022-12-01 00:49:04
,wl-rdm,118,473958,0.0-8.1-0.1,1.0,119.0,,,,,,,[],,,,,,50.0,0.0,u,0.0,True,1480.7000000476837,89.0,60.0,40.0,False,,206.11272219701675,[],"[960, 540]",ColorTask,70.0,2.0,,,HRV,HRV_0322,2022-12-01 00:49:04
,wl-rdm,119,475895,0.0-8.2-0.2,1.0,120.0,,,,,,,[],,,,,,73.6,0.0,u,0.0,True,634.1000001430511,38.0,60.0,40.0,False,,242.07984596858824,[],"[960, 540]",ColorTask,71.0,3.0,,,HRV,HRV_0322,2022-12-01 00:49:04
,wl-rdm,120,478332,0.0-8.3-0.3,1.0,121.0,,,,,,,[],,,,,,62.5,0.0,u,0.0,True,1155.7000000476837,70.0,60.0,40.0,False,,206.66947550710245,[],"[960, 540]",ColorTask,72.0,4.0,,,HRV,HRV_0322,2022-12-01 00:49:04
,wl-rdm,121,480470,0.0-8.4-0.4,1.0,122.0,,,,,,,[],,,,,,73.6,0.0,u,0.0,True,838.4000000953674,51.0,60.0,40.0,False,,219.04886831179837,[],"[960, 540]",ColorTask,73.0,5.0,,,HRV,HRV_0322,2022-12-01 00:49:04
,wl-rdm,122,482573,0.0-8.5-0.5,1.0,123.0,,,,,,,[],,,,,,73.6,0.0,u,0.0,True,831.7999999523163,50.0,60.0,40.0,False,,202.60561385045648,[],"[960, 540]",ColorTask,74.0,6.0,,,HRV,HRV_0322,2022-12-01 00:49:04
,wl-rdm,123,485045,0.0-8.6-0.6,1.0,124.0,,,,,,,[],,,,,,73.6,0.0,u,0.0,True,1121.3000001907349,67.0,60.0,40.0,False,,269.7402366854087,[],"[960, 540]",ColorTask,75.0,7.0,,,HRV,HRV_0322,2022-12-01 00:49:04
,wl-rdm,124,488150,0.0-8.7-0.7,1.0,125.0,,,,,,,[],,,,,,56.4,1.0,i,1.0,True,1794.7000000476837,108.0,60.0,40.0,False,,244.6752420427894,[],"[960, 540]",ColorTask,76.0,8.0,,,HRV,HRV_0322,2022-12-01 00:49:04
,wl-rdm,125,490838,0.0-8.8-0.8,1.0,126.0,,,,,,,[],,,,,,56.4,0.0,u,0.0,True,1386.2000000476837,84.0,60.0,40.0,False,,227.28551145739934,[],"[960, 540]",ColorTask,77.0,9.0,,,HRV,HRV_0322,2022-12-01 00:49:04
,wl-rdm,126,494695,0.0-8.9-0.9,1.0,127.0,,,,,,,[],,,,,,50.0,1.0,u,0.0,False,2586.300000190735,154.0,60.0,40.0,False,,208.56177123505842,[],"[960, 540]",ColorTask,76.0,10.0,,,HRV,HRV_0322,2022-12-01 00:49:04
,wl-rdm,127,497233,0.0-8.10-0.10,1.0,128.0,,,,,,,[],,,,,,56.4,0.0,u,0.0,True,1119.7000000476837,68.0,60.0,40.0,False,,341.7247151188785,[],"[960, 540]",ColorTask,77.0,11.0,,,HRV,HRV_0322,2022-12-01 00:49:04
,wl-rdm,128,499587,0.0-8.11-0.11,1.0,129.0,,,,,,,[],,,,,,56.4,0.0,u,0.0,True,989.1000001430511,60.0,60.0,40.0,False,,287.40278781115444,[],"[960, 540]",ColorTask,78.0,12.0,,,HRV,HRV_0322,2022-12-01 00:49:04
,wl-rdm,129,501741,0.0-8.12-0.12,1.0,130.0,,,,,,,[],,,,,,87.9,0.0,u,0.0,True,735.1000001430511,45.0,60.0,40.0,False,,347.8353434314463,[],"[960, 540]",ColorTask,79.0,13.0,,,HRV,HRV_0322,2022-12-01 00:49:04
,wl-rdm,130,503928,0.0-8.13-0.13,1.0,131.0,,,,,,,[],,,,,,87.9,1.0,i,1.0,True,753.2000000476837,46.0,60.0,40.0,False,,351.45590921974133,[],"[960, 540]",ColorTask,80.0,14.0,,,HRV,HRV_0322,2022-12-01 00:49:04
,wl-rdm,131,508086,0.0-8.14-0.14,1.0,132.0,,,,,,,[],,,,,,50.0,1.0,u,0.0,False,2795.7000000476837,168.0,60.0,40.0,False,,297.2462136288949,[],"[960, 540]",ColorTask,79.0,15.0,,,HRV,HRV_0322,2022-12-01 00:49:04
,wl-rdm,132,510490,0.0-8.15-0.15,1.0,133.0,,,,,,,[],,,,,,50.0,1.0,i,1.0,True,1118.1000001430511,67.0,60.0,40.0,False,,225.7113803554445,[],"[960, 540]",ColorTask,80.0,16.0,,,HRV,HRV_0322,2022-12-01 00:49:04
,wl-rdm,133,513061,0.0-8.16-0.16,1.0,134.0,,,,,,,[],,,,,,62.5,1.0,i,1.0,True,1128.5999999046326,68.0,60.0,40.0,False,,377.91896436715206,[],"[960, 540]",ColorTask,81.0,17.0,,,HRV,HRV_0322,2022-12-01 00:49:04
,wl-rdm,134,515249,0.0-8.17-0.17,1.0,135.0,,,,,,,[],,,,,,87.9,0.0,u,0.0,True,748.7999999523163,46.0,60.0,40.0,False,,355.21747257670296,[],"[960, 540]",ColorTask,82.0,18.0,,,HRV,HRV_0322,2022-12-01 00:49:04
,wl-rdm,135,517269,0.0-8.18-0.18,1.0,136.0,,,,,,,[],,,,,,73.6,0.0,u,0.0,True,734.2000000476837,44.0,60.0,40.0,False,,227.10921611814828,[],"[960, 540]",ColorTask,83.0,19.0,,,HRV,HRV_0322,2022-12-01 00:49:04
,wl-rdm,136,519356,0.0-8.19-0.19,1.0,137.0,,,,,,,[],,,,,,87.9,0.0,u,0.0,True,796.1999998092651,48.0,60.0,40.0,False,,232.6833601580637,[],"[960, 540]",ColorTask,84.0,20.0,,,HRV,HRV_0322,2022-12-01 00:49:04
,wl-rdm,137,523797,0.0-8.20-0.20,1.0,137.0,,,,,,,[],,,,,,50.0,0.0,u,,,3085.5,179.0,60.0,40.0,True,RT_timeout ,355.6591858798167,[],"[960, 540]",ColorTask,83.0,21.0,,,HRV,HRV_0322,2022-12-01 00:49:04
,wl-rdm,138,526202,0.0-8.21-0.21,1.0,138.0,,,,,,,[],,,,,,73.6,0.0,u,0.0,True,1098.0,66.0,60.0,40.0,False,,247.99886985838828,[],"[960, 540]",ColorTask,84.0,22.0,,,HRV,HRV_0322,2022-12-01 00:49:04
,wl-rdm,139,529073,0.0-8.22-0.22,1.0,139.0,,,,,,,[],,,,,,50.0,0.0,u,0.0,True,1557.7000000476837,94.0,60.0,40.0,False,,236.87357735869338,[],"[960, 540]",ColorTask,85.0,23.0,,,HRV,HRV_0322,2022-12-01 00:49:04
,wl-rdm,140,532062,0.0-8.23-0.23,1.0,140.0,,,,,,,[],,,,,,50.0,1.0,u,0.0,False,1713.2000000476837,103.0,60.0,40.0,False,,206.79365639974102,[],"[960, 540]",ColorTask,84.0,24.0,,,HRV,HRV_0322,2022-12-01 00:49:04
,wl-rdm,141,534750,0.0-8.24-0.24,1.0,141.0,,,,,,,[],,,,,,50.0,0.0,i,1.0,False,1292.7999999523163,78.0,60.0,40.0,False,,332.25637771959674,[],"[960, 540]",ColorTask,83.0,25.0,,,HRV,HRV_0322,2022-12-01 00:49:04
,wl-rdm,142,537155,0.0-8.25-0.25,1.0,142.0,,,,,,,[],,,,,,53.2,1.0,i,1.0,True,1125.5,68.0,60.0,40.0,False,,210.84238640152375,[],"[960, 540]",ColorTask,84.0,26.0,,,HRV,HRV_0322,2022-12-01 00:49:04
,wl-rdm,143,539442,0.0-8.26-0.26,1.0,143.0,,,,,,,[],,,,,,87.9,1.0,i,1.0,True,960.0,58.0,60.0,40.0,False,,259.92254143011473,[],"[960, 540]",ColorTask,85.0,27.0,,,HRV,HRV_0322,2022-12-01 00:49:04
,wl-rdm,144,542347,0.0-8.27-0.27,1.0,144.0,,,,,,,[],,,,,,50.0,0.0,u,0.0,True,1588.3000001907349,96.0,60.0,40.0,False,,249.10834707048787,[],"[960, 540]",ColorTask,86.0,28.0,,,HRV,HRV_0322,2022-12-01 00:49:04
,wl-rdm,145,545336,0.0-8.28-0.28,1.0,145.0,,,,,,,[],,,,,,53.2,1.0,u,0.0,False,1670.2000000476837,101.0,60.0,40.0,False,,234.47279339315517,[],"[960, 540]",ColorTask,85.0,29.0,,,HRV,HRV_0322,2022-12-01 00:49:04
,wl-rdm,146,548191,0.0-8.29-0.29,1.0,146.0,,,,,,,[],,,,,,50.0,1.0,u,0.0,False,1441.3000001907349,87.0,60.0,40.0,False,,334.48407485407836,[],"[960, 540]",ColorTask,84.0,30.0,,,HRV,HRV_0322,2022-12-01 00:49:04
,wl-rdm,147,550946,0.0-8.30-0.30,1.0,147.0,,,,,,,[],,,,,,50.0,0.0,i,1.0,False,1441.4000000953674,87.0,60.0,40.0,False,,247.99550692205764,[],"[960, 540]",ColorTask,83.0,31.0,,,HRV,HRV_0322,2022-12-01 00:49:04
,wl-rdm,148,553901,0.0-8.31-0.31,1.0,148.0,,,,,,,[],,,,,,53.2,0.0,u,0.0,True,1549.2000000476837,93.0,60.0,40.0,False,,337.2260974981814,[],"[960, 540]",ColorTask,84.0,32.0,,,HRV,HRV_0322,2022-12-01 00:49:04
,wl-rdm,149,556005,0.0-8.32-0.32,1.0,149.0,,,,,,,[],,,,,,87.9,0.0,u,0.0,True,825.4000000953674,50.0,60.0,40.0,False,,209.1770784240332,[],"[960, 540]",ColorTask,85.0,33.0,,,HRV,HRV_0322,2022-12-01 00:49:04
,wl-rdm,150,558827,0.0-8.33-0.33,1.0,150.0,,,,,,,[],,,,,,56.4,0.0,u,0.0,True,1386.2999999523163,84.0,60.0,40.0,False,,355.43845578827245,[],"[960, 540]",ColorTask,86.0,34.0,,,HRV,HRV_0322,2022-12-01 00:49:04
,wl-rdm,151,561081,0.0-8.34-0.34,1.0,151.0,,,,,,,[],,,,,,87.9,1.0,i,1.0,True,889.6000001430511,54.0,60.0,40.0,False,,272.355666491729,[],"[960, 540]",ColorTask,87.0,35.0,,,HRV,HRV_0322,2022-12-01 00:49:04
,wl-rdm,152,563468,0.0-8.35-0.35,1.0,152.0,,,,,,,[],,,,,,87.9,1.0,i,1.0,True,1057.0,64.0,60.0,40.0,False,,264.25802330525266,[],"[960, 540]",ColorTask,88.0,36.0,,,HRV,HRV_0322,2022-12-01 00:49:04
,wl-rdm,153,565990,0.0-8.36-0.36,1.0,153.0,,,,,,,[],,,,,,62.5,1.0,i,1.0,True,1073.2999999523163,65.0,60.0,40.0,False,,371.7301706805214,[],"[960, 540]",ColorTask,89.0,37.0,,,HRV,HRV_0322,2022-12-01 00:49:04
,wl-rdm,154,568327,0.0-8.37-0.37,1.0,154.0,,,,,,,[],,,,,,62.5,1.0,i,1.0,True,1052.5,64.0,60.0,40.0,False,,209.72093893064914,[],"[960, 540]",ColorTask,90.0,38.0,,,HRV,HRV_0322,2022-12-01 00:49:04
,wl-rdm,155,570748,0.0-8.38-0.38,1.0,155.0,,,,,,,[],,,,,,62.5,0.0,u,0.0,True,1109.3000001907349,67.0,60.0,40.0,False,,244.59926439757976,[],"[960, 540]",ColorTask,91.0,39.0,,,HRV,HRV_0322,2022-12-01 00:49:04
,wl-rdm,156,573720,0.0-8.39-0.39,1.0,156.0,,,,,,,[],,,,,,56.4,0.0,u,0.0,True,1671.8999998569489,101.0,60.0,40.0,False,,218.6390955730213,[],"[960, 540]",ColorTask,92.0,40.0,,,HRV,HRV_0322,2022-12-01 00:49:04
,wl-rdm,157,576124,0.0-8.40-0.40,1.0,157.0,,,,,,,[],,,,,,87.9,1.0,i,1.0,True,1083.6000001430511,65.0,60.0,40.0,False,,255.27814879466732,[],"[960, 540]",ColorTask,93.0,41.0,,,HRV,HRV_0322,2022-12-01 00:49:04
,wl-rdm,158,578562,0.0-8.41-0.41,1.0,158.0,,,,,,,[],,,,,,62.5,0.0,u,0.0,True,1057.2000000476837,64.0,60.0,40.0,False,,316.2279036068271,[],"[960, 540]",ColorTask,94.0,42.0,,,HRV,HRV_0322,2022-12-01 00:49:04
,wl-rdm,159,580849,0.0-8.42-0.42,1.0,159.0,,,,,,,[],,,,,,62.5,0.0,u,0.0,True,821.0,50.0,60.0,40.0,False,,391.197100498116,[],"[960, 540]",ColorTask,95.0,43.0,,,HRV,HRV_0322,2022-12-01 00:49:04
,wl-rdm,160,583037,0.0-8.43-0.43,1.0,160.0,,,,,,,[],,,,,,73.6,1.0,i,1.0,True,819.7000000476837,50.0,60.0,40.0,False,,292.20915777199554,[],"[960, 540]",ColorTask,96.0,44.0,,,HRV,HRV_0322,2022-12-01 00:49:04
,wl-rdm,161,586226,0.0-8.44-0.44,1.0,161.0,,,,,,,[],,,,,,50.0,1.0,u,0.0,False,1859.9000000953674,112.0,60.0,40.0,False,,263.7559326096927,[],"[960, 540]",ColorTask,95.0,45.0,,,HRV,HRV_0322,2022-12-01 00:49:04
,wl-rdm,162,588864,0.0-8.45-0.45,1.0,162.0,,,,,,,[],,,,,,62.5,1.0,i,1.0,True,1219.5,74.0,60.0,40.0,False,,342.9049033318863,[],"[960, 540]",ColorTask,96.0,46.0,,,HRV,HRV_0322,2022-12-01 00:49:04
,wl-rdm,163,591969,0.0-8.46-0.46,1.0,163.0,,,,,,,[],,,,,,53.2,1.0,i,1.0,True,1771.8000001907349,106.0,60.0,40.0,False,,254.59900117355275,[],"[960, 540]",ColorTask,97.0,47.0,,,HRV,HRV_0322,2022-12-01 00:49:04
,wl-rdm,164,594841,0.0-8.47-0.47,1.0,164.0,,,,,,,[],,,,,,62.5,1.0,i,1.0,True,1432.4000000953674,86.0,60.0,40.0,False,,372.0982201799737,[],"[960, 540]",ColorTask,98.0,48.0,,,HRV,HRV_0322,2022-12-01 00:49:04
,wl-rdm,165,597813,0.0-8.48-0.48,1.0,165.0,,,,,,,[],,,,,,56.4,1.0,i,1.0,True,1685.7000000476837,101.0,60.0,40.0,False,,221.76929167037932,[],"[960, 540]",ColorTask,99.0,49.0,,,HRV,HRV_0322,2022-12-01 00:49:04
,wl-rdm,166,601169,0.0-8.49-0.49,1.0,166.0,,,,,,,[],,,,,,56.4,1.0,u,0.0,False,1930.3000001907349,116.0,60.0,40.0,False,,352.6244077469478,[],"[960, 540]",ColorTask,98.0,50.0,,,HRV,HRV_0322,2022-12-01 00:49:04
,wl-rdm,167,604275,0.0-8.50-0.50,1.0,167.0,,,,,,,[],,,,,,62.5,1.0,i,1.0,True,1776.5999999046326,107.0,60.0,40.0,False,,259.47953563870664,[],"[960, 540]",ColorTask,99.0,51.0,,,HRV,HRV_0322,2022-12-01 00:49:04
,wl-rdm,168,606395,0.0-8.51-0.51,1.0,168.0,,,,,,,[],,,,,,87.9,0.0,u,0.0,True,709.4000000953674,43.0,60.0,40.0,False,,340.9909919845053,[],"[960, 540]",ColorTask,100.0,52.0,,,HRV,HRV_0322,2022-12-01 00:49:04
,wl-rdm,169,609233,0.0-8.52-0.52,1.0,169.0,,,,,,,[],,,,,,56.4,0.0,u,0.0,True,1524.2000000476837,92.0,60.0,40.0,False,,240.2216896599595,[],"[960, 540]",ColorTask,101.0,53.0,,,HRV,HRV_0322,2022-12-01 00:49:04
,wl-rdm,170,611955,0.0-8.53-0.53,1.0,170.0,,,,,,,[],,,,,,62.5,1.0,i,1.0,True,1430.5,86.0,60.0,40.0,False,,223.84934135788836,[],"[960, 540]",ColorTask,102.0,54.0,,,HRV,HRV_0322,2022-12-01 00:49:04
,wl-rdm,171,614860,0.0-8.54-0.54,1.0,171.0,,,,,,,[],,,,,,53.2,0.0,u,0.0,True,1620.6000001430511,98.0,60.0,40.0,False,,206.0090753732701,[],"[960, 540]",ColorTask,103.0,55.0,,,HRV,HRV_0322,2022-12-01 00:49:04
,wl-rdm,172,617181,0.0-8.55-0.55,1.0,172.0,,,,,,,[],,,,,,87.9,1.0,i,1.0,True,952.9000000953674,58.0,60.0,40.0,False,,295.1609762753826,[],"[960, 540]",ColorTask,104.0,56.0,,,HRV,HRV_0322,2022-12-01 00:49:04
,wl-rdm,173,620270,0.0-8.56-0.56,1.0,173.0,,,,,,,[],,,,,,53.2,0.0,u,0.0,True,1714.5,103.0,60.0,40.0,False,,308.0292718565086,[],"[960, 540]",ColorTask,105.0,57.0,,,HRV,HRV_0322,2022-12-01 00:49:04
,wl-rdm,174,623108,0.0-8.57-0.57,1.0,174.0,,,,,,,[],,,,,,56.4,1.0,u,0.0,False,1468.5999999046326,88.0,60.0,40.0,False,,308.3950595869886,[],"[960, 540]",ColorTask,104.0,58.0,,,HRV,HRV_0322,2022-12-01 00:49:04
,wl-rdm,175,625663,0.0-8.58-0.58,1.0,175.0,,,,,,,[],,,,,,73.6,1.0,i,1.0,True,1153.4000000953674,70.0,60.0,40.0,False,,326.75739138357636,[],"[960, 540]",ColorTask,105.0,59.0,,,HRV,HRV_0322,2022-12-01 00:49:04
,wl-rdm,176,628919,0.0-8.59-0.59,1.0,176.0,,,,,,,[],,,,,,50.0,0.0,i,1.0,False,1828.3999998569489,110.0,60.0,40.0,False,,362.74379848651563,[],"[960, 540]",ColorTask,104.0,60.0,,,HRV,HRV_0322,2022-12-01 00:49:04
,wl-rdm,177,632158,0.0-8.60-0.60,1.0,177.0,,,,,,,[],,,,,,50.0,1.0,u,0.0,False,1959.8999998569489,118.0,60.0,40.0,False,,212.79435131565927,[],"[960, 540]",ColorTask,103.0,61.0,,,HRV,HRV_0322,2022-12-01 00:49:04
,wl-rdm,178,634796,0.0-8.61-0.61,1.0,178.0,,,,,,,[],,,,,,53.2,0.0,u,0.0,True,1193.8000001907349,72.0,60.0,40.0,False,,395.8570919281224,[],"[960, 540]",ColorTask,104.0,62.0,,,HRV,HRV_0322,2022-12-01 00:49:04
,wl-rdm,179,636916,0.0-8.62-0.62,1.0,179.0,,,,,,,[],,,,,,87.9,0.0,u,0.0,True,790.7000000476837,48.0,60.0,40.0,False,,263.03789501442566,[],"[960, 540]",ColorTask,105.0,63.0,,,HRV,HRV_0322,2022-12-01 00:49:04
,wl-rdm,180,640072,0.0-8.63-0.63,1.0,180.0,,,,,,,[],,,,,,50.0,1.0,u,0.0,False,1844.7999999523163,111.0,60.0,40.0,False,,248.93305561205568,[],"[960, 540]",ColorTask,104.0,64.0,,,HRV,HRV_0322,2022-12-01 00:49:04
,wl-rdm,181,642677,0.0-8.64-0.64,1.0,181.0,,,,,,,[],,,,,,62.5,1.0,i,1.0,True,1244.2000000476837,74.0,60.0,40.0,False,,300.3954806461951,[],"[960, 540]",ColorTask,105.0,65.0,,,HRV,HRV_0322,2022-12-01 00:49:04
,wl-rdm,182,645933,0.0-8.65-0.65,1.0,182.0,,,,,,,[],,,,,,50.0,1.0,i,1.0,True,1930.9000000953674,116.0,60.0,40.0,False,,264.7364663918785,[],"[960, 540]",ColorTask,106.0,66.0,,,HRV,HRV_0322,2022-12-01 00:49:04
,wl-rdm,183,647986,0.0-8.66-0.66,1.0,183.0,,,,,,,[],,,,,,87.9,1.0,i,1.0,True,683.2999999523163,41.0,60.0,40.0,False,,316.0543032204343,[],"[960, 540]",ColorTask,107.0,67.0,,,HRV,HRV_0322,2022-12-01 00:49:04
,wl-rdm,184,650491,0.0-8.67-0.67,1.0,184.0,,,,,,,[],,,,,,73.6,1.0,i,1.0,True,1066.5999999046326,64.0,60.0,40.0,False,,378.2343266644343,[],"[960, 540]",ColorTask,108.0,68.0,,,HRV,HRV_0322,2022-12-01 00:49:04
,wl-rdm,185,653045,0.0-8.68-0.68,1.0,185.0,,,,,,,[],,,,,,62.5,0.0,u,0.0,True,1173.0,71.0,60.0,40.0,False,,309.4168871792615,[],"[960, 540]",ColorTask,109.0,69.0,,,HRV,HRV_0322,2022-12-01 00:49:04
,wl-rdm,186,655132,0.0-8.69-0.69,1.0,186.0,,,,,,,[],,,,,,87.9,0.0,u,0.0,True,695.3000001907349,42.0,60.0,40.0,False,,326.7003274983345,[],"[960, 540]",ColorTask,110.0,70.0,,,HRV,HRV_0322,2022-12-01 00:49:04
,wl-rdm,187,657603,0.0-8.70-0.70,1.0,187.0,,,,,,,[],,,,,,50.0,0.0,u,0.0,True,1051.1000001430511,63.0,60.0,40.0,False,,356.178968416101,[],"[960, 540]",ColorTask,111.0,71.0,,,HRV,HRV_0322,2022-12-01 00:49:04
,wl-rdm,188,660091,0.0-8.71-0.71,1.0,188.0,,,,,,,[],,,,,,56.4,1.0,i,1.0,True,1194.5,72.0,60.0,40.0,False,,221.708186450273,[],"[960, 540]",ColorTask,112.0,72.0,,,HRV,HRV_0322,2022-12-01 00:49:04
,wl-rdm,189,662846,0.0-8.72-0.72,1.0,189.0,,,,,,,[],,,,,,53.2,1.0,u,0.0,False,1365.6000001430511,82.0,60.0,40.0,False,,323.06774836079217,[],"[960, 540]",ColorTask,111.0,73.0,,,HRV,HRV_0322,2022-12-01 00:49:04
,wl-rdm,190,665301,0.0-8.73-0.73,1.0,190.0,,,,,,,[],,,,,,62.5,0.0,u,0.0,True,1117.8999998569489,67.0,60.0,40.0,False,,269.5205171818634,[],"[960, 540]",ColorTask,112.0,74.0,,,HRV,HRV_0322,2022-12-01 00:49:04
,wl-rdm,191,667505,0.0-8.74-0.74,1.0,191.0,,,,,,,[],,,,,,87.9,0.0,u,0.0,True,927.2999999523163,56.0,60.0,40.0,False,,206.12140713841302,[],"[960, 540]",ColorTask,113.0,75.0,,,HRV,HRV_0322,2022-12-01 00:49:04
,wl-rdm,192,670259,0.0-8.75-0.75,1.0,192.0,,,,,,,[],,,,,,50.0,0.0,u,0.0,True,1445.8000001907349,87.0,60.0,40.0,False,,247.38625157452685,[],"[960, 540]",ColorTask,114.0,76.0,,,HRV,HRV_0322,2022-12-01 00:49:04
,wl-rdm,193,672681,0.0-8.76-0.76,1.0,193.0,,,,,,,[],,,,,,73.6,0.0,u,0.0,True,969.5,59.0,60.0,40.0,False,,378.6123517655178,[],"[960, 540]",ColorTask,115.0,77.0,,,HRV,HRV_0322,2022-12-01 00:49:04
,wl-rdm,194,675118,0.0-8.77-0.77,1.0,194.0,,,,,,,[],,,,,,73.6,0.0,u,0.0,True,1034.5999999046326,62.0,60.0,40.0,False,,342.186226048928,[],"[960, 540]",ColorTask,116.0,78.0,,,HRV,HRV_0322,2022-12-01 00:49:04
,wl-rdm,195,677573,0.0-8.78-0.78,1.0,195.0,,,,,,,[],,,,,,73.6,1.0,i,1.0,True,1071.4000000953674,65.0,60.0,40.0,False,,313.43350588497776,[],"[960, 540]",ColorTask,117.0,79.0,,,HRV,HRV_0322,2022-12-01 00:49:04
,wl-rdm,196,680010,0.0-8.79-0.79,1.0,196.0,,,,,,,[],,,,,,73.6,1.0,i,1.0,True,1081.7000000476837,65.0,60.0,40.0,False,,295.9397853641738,[],"[960, 540]",ColorTask,118.0,80.0,,,HRV,HRV_0322,2022-12-01 00:49:04
,wl-rdm,197,682765,0.0-8.80-0.80,1.0,197.0,,,,,,,[],,,,,,53.2,0.0,u,0.0,True,1287.8000001907349,78.0,60.0,40.0,False,,393.2690049877057,[],"[960, 540]",ColorTask,119.0,81.0,,,HRV,HRV_0322,2022-12-01 00:49:04
,wl-rdm,198,685720,0.0-8.81-0.81,1.0,198.0,,,,,,,[],,,,,,62.5,1.0,i,1.0,True,1508.7000002861023,91.0,60.0,40.0,False,,371.9566402810709,[],"[960, 540]",ColorTask,120.0,82.0,,,HRV,HRV_0322,2022-12-01 00:49:04
,wl-rdm,199,688726,0.0-8.82-0.82,1.0,199.0,,,,,,,[],,,,,,53.2,1.0,i,1.0,True,1664.5999999046326,100.0,60.0,40.0,False,,272.0022991010427,[],"[960, 540]",ColorTask,121.0,83.0,,,HRV,HRV_0322,2022-12-01 00:49:04
,wl-rdm,200,691180,0.0-8.83-0.83,1.0,200.0,,,,,,,[],,,,,,56.4,1.0,i,1.0,True,1174.0,71.0,60.0,40.0,False,,216.5561970515138,[],"[960, 540]",ColorTask,122.0,84.0,,,HRV,HRV_0322,2022-12-01 00:49:04
,wl-rdm,201,694770,0.0-8.84-0.84,1.0,201.0,,,,,,,[],,,,,,56.4,1.0,i,1.0,True,2259.4000000953674,136.0,60.0,40.0,False,,251.19619144411556,[],"[960, 540]",ColorTask,123.0,85.0,,,HRV,HRV_0322,2022-12-01 00:49:04
,wl-rdm,202,697141,0.0-8.85-0.85,1.0,202.0,,,,,,,[],,,,,,73.6,0.0,u,0.0,True,1024.9000000953674,62.0,60.0,40.0,False,,280.96320501813756,[],"[960, 540]",ColorTask,124.0,86.0,,,HRV,HRV_0322,2022-12-01 00:49:04
,wl-rdm,203,699512,0.0-8.86-0.86,1.0,203.0,,,,,,,[],,,,,,56.4,0.0,u,0.0,True,1069.1000001430511,65.0,60.0,40.0,False,,230.86891278464495,[],"[960, 540]",ColorTask,125.0,87.0,,,HRV,HRV_0322,2022-12-01 00:49:04
,wl-rdm,204,702033,0.0-8.87-0.87,1.0,204.0,,,,,,,[],,,,,,53.2,0.0,u,0.0,True,1163.5,70.0,60.0,40.0,False,,287.4731506740851,[],"[960, 540]",ColorTask,126.0,88.0,,,HRV,HRV_0322,2022-12-01 00:49:04
,wl-rdm,205,704655,0.0-8.88-0.88,1.0,205.0,,,,,,,[],,,,,,56.4,0.0,u,0.0,True,1208.0999999046326,73.0,60.0,40.0,False,,343.40417699215277,[],"[960, 540]",ColorTask,127.0,89.0,,,HRV,HRV_0322,2022-12-01 00:49:04
,wl-rdm,206,707810,0.0-8.89-0.89,1.0,206.0,,,,,,,[],,,,,,53.2,0.0,u,0.0,True,1725.2000000476837,104.0,60.0,40.0,False,,366.29342079458513,[],"[960, 540]",ColorTask,128.0,90.0,,,HRV,HRV_0322,2022-12-01 00:49:04
,wl-rdm,207,710765,0.0-8.90-0.90,1.0,207.0,,,,,,,[],,,,,,53.2,1.0,i,1.0,True,1670.7000000476837,100.0,60.0,40.0,False,,206.06106429064192,[],"[960, 540]",ColorTask,129.0,91.0,,,HRV,HRV_0322,2022-12-01 00:49:04
,wl-rdm,208,713904,0.0-8.91-0.91,1.0,208.0,,,,,,,[],,,,,,53.2,1.0,u,0.0,False,1707.2000000476837,103.0,60.0,40.0,False,,359.65862687293475,[],"[960, 540]",ColorTask,128.0,92.0,,,HRV,HRV_0322,2022-12-01 00:49:04
,wl-rdm,209,716225,0.0-8.92-0.92,1.0,209.0,,,,,,,[],,,,,,62.5,0.0,u,0.0,True,1051.6999998092651,63.0,60.0,40.0,False,,214.5999269252649,[],"[960, 540]",ColorTask,129.0,93.0,,,HRV,HRV_0322,2022-12-01 00:49:04
,wl-rdm,210,718680,0.0-8.93-0.93,1.0,210.0,,,,,,,[],,,,,,73.6,1.0,i,1.0,True,1167.0999999046326,69.0,60.0,40.0,False,,222.6811699671825,[],"[960, 540]",ColorTask,130.0,94.0,,,HRV,HRV_0322,2022-12-01 00:49:04
,wl-rdm,211,721184,0.0-8.94-0.94,1.0,211.0,,,,,,,[],,,,,,87.9,1.0,i,1.0,True,1183.2000000476837,71.0,60.0,40.0,False,,259.43121268339803,[],"[960, 540]",ColorTask,131.0,95.0,,,HRV,HRV_0322,2022-12-01 00:49:04
,wl-rdm,212,724023,0.0-8.95-0.95,1.0,212.0,,,,,,,[],,,,,,53.2,0.0,u,0.0,True,1556.0,94.0,60.0,40.0,False,,207.44933972808798,[],"[960, 540]",ColorTask,132.0,96.0,,,HRV,HRV_0322,2022-12-01 00:49:04
,wl-rdm,213,726995,0.0-8.96-0.96,1.0,213.0,,,,,,,[],,,,,,56.4,1.0,i,1.0,True,1676.7999999523163,101.0,60.0,40.0,False,,226.9526036739133,[],"[960, 540]",ColorTask,133.0,97.0,,,HRV,HRV_0322,2022-12-01 00:49:04
,wl-rdm,214,729716,0.0-8.97-0.97,1.0,214.0,,,,,,,[],,,,,,53.2,0.0,u,0.0,True,1402.4000000953674,84.0,60.0,40.0,False,,259.6677658785975,[],"[960, 540]",ColorTask,134.0,98.0,,,HRV,HRV_0322,2022-12-01 00:49:04
,wl-rdm,215,732989,0.0-8.98-0.98,1.0,215.0,,,,,,,[],,,,,,50.0,0.0,i,1.0,False,2000.7999999523163,120.0,60.0,40.0,False,,215.4009355752454,[],"[960, 540]",ColorTask,133.0,99.0,,,HRV,HRV_0322,2022-12-01 00:49:04
,wl-rdm,216,735577,0.0-8.99-0.99,1.0,216.0,,,,,,,[],,,,,,56.4,1.0,i,1.0,True,1313.4000000953674,79.0,60.0,40.0,False,,216.64423741542328,[],"[960, 540]",ColorTask,134.0,100.0,,,HRV,HRV_0322,2022-12-01 00:49:04
,wl-rdm,217,737947,0.0-8.100-0.100,1.0,217.0,,,,,,,[],,,,,,56.4,0.0,u,0.0,True,1056.0,64.0,60.0,40.0,False,,250.29806822620225,[],"[960, 540]",ColorTask,135.0,101.0,,,HRV,HRV_0322,2022-12-01 00:49:04
,wl-rdm,218,740402,0.0-8.101-0.101,1.0,218.0,,,,,,,[],,,,,,73.6,1.0,i,1.0,True,1129.4000000953674,68.0,60.0,40.0,False,,257.6891818296145,[],"[960, 540]",ColorTask,136.0,102.0,,,HRV,HRV_0322,2022-12-01 00:49:04
,wl-rdm,219,743073,0.0-8.102-0.102,1.0,219.0,,,,,,,[],,,,,,53.2,1.0,i,1.0,True,1296.9000000953674,78.0,60.0,40.0,False,,302.23575079013887,[],"[960, 540]",ColorTask,137.0,103.0,,,HRV,HRV_0322,2022-12-01 00:49:04
,wl-rdm,220,745695,0.0-8.103-0.103,1.0,220.0,,,,,,,[],,,,,,62.5,0.0,u,0.0,True,1173.6000001430511,71.0,60.0,40.0,False,,369.9379638240533,[],"[960, 540]",ColorTask,138.0,104.0,,,HRV,HRV_0322,2022-12-01 00:49:04
,wl-rdm,221,748933,0.0-8.104-0.104,1.0,221.0,,,,,,,[],,,,,,53.2,1.0,u,0.0,False,1832.7000000476837,110.0,60.0,40.0,False,,343.29750060401693,[],"[960, 540]",ColorTask,137.0,105.0,,,HRV,HRV_0322,2022-12-01 00:49:04
,wl-rdm,222,751655,0.0-8.105-0.105,1.0,222.0,,,,,,,[],,,,,,73.6,1.0,i,1.0,True,1363.6000001430511,82.0,60.0,40.0,False,,291.4188257353435,[],"[960, 540]",ColorTask,138.0,106.0,,,HRV,HRV_0322,2022-12-01 00:49:04
,wl-rdm,223,754310,0.0-8.106-0.106,1.0,223.0,,,,,,,[],,,,,,62.5,0.0,u,0.0,True,1255.7999999523163,76.0,60.0,40.0,False,,329.36042954640567,[],"[960, 540]",ColorTask,139.0,107.0,,,HRV,HRV_0322,2022-12-01 00:49:04
,wl-rdm,224,756480,0.0-8.107-0.107,1.0,224.0,,,,,,,[],,,,,,87.9,1.0,i,1.0,True,816.2000000476837,49.0,60.0,40.0,False,,290.5622253798848,[],"[960, 540]",ColorTask,140.0,108.0,,,HRV,HRV_0322,2022-12-01 00:49:04
,wl-rdm,225,758617,0.0-8.108-0.108,1.0,225.0,,,,,,,[],,,,,,87.9,0.0,u,0.0,True,841.7000002861023,51.0,60.0,40.0,False,,218.97117706287014,[],"[960, 540]",ColorTask,141.0,109.0,,,HRV,HRV_0322,2022-12-01 00:49:04
,wl-html-button-response,226,761178,0.0-9.0-0.0,,,,,,,,,,2558.7999999523163,,0,,,,,,,,,,,,,,,,,,,,<h3>End of this session. Thank you!</h3><br>,['Close window'],HRV,HRV_0322,2022-12-01 00:49:04
