trialN,stimuli,trialStartTime,trialStartTime_UNIX,stimulus1,stimulus2,stimulus1Bid,stimulus2Bid,delta,selected,rt,rt_UNIX,rt_perfnow,receivedResponse,rsp,trialEndTime,trialDuration,trialEndTime_UNIX,trialDuration_UNIX,exp,subjectId,date
0,"[{'imgObject': {}, 'id': 'avocado', 'src': '/static/foodstim60/avocado.jpg', 'key': 'u', 'origWidth': 409, 'origHeight': 409, 'width': 409, 'height': 409, 'widthPercent': 0.45, 'rescaleHeight': False, 'trialN': 0, 'loaded': True, 'loadedTime': 2697, 'positionName': 'LEFT', 'positionCoords': [154.04, 265], 'bid': 1.3}, {'imgObject': {}, 'id': 'bagel and cc', 'src': '/static/foodstim60/bagel and cc.jpg', 'key': 'i', 'origWidth': 410, 'origHeight': 410, 'width': 410, 'height': 410, 'widthPercent': 0.45, 'rescaleHeight': False, 'trialN': 0, 'loaded': True, 'loadedTime': 2730, 'positionName': 'RIGHT', 'positionCoords': [609.96, 264.5], 'bid': 0.11}]",5511,1669830688455,avocado,bagel and cc,1.3,0.11,-1.19,avocado,1409,1413,1413,True,u,7445,1934,1669830690388,1933,HRV,HRV_0142,2022-11-30 17:57:03
1,"[{'imgObject': {}, 'id': 'orange slices', 'src': '/static/foodstim60/orange slices.jpg', 'key': 'u', 'origWidth': 409, 'origHeight': 410, 'width': 409, 'height': 410, 'widthPercent': 0.45, 'rescaleHeight': False, 'trialN': 1, 'loaded': True, 'loadedTime': 2760, 'positionName': 'LEFT', 'positionCoords': [154.04, 264.5], 'bid': 0.02}, {'imgObject': {}, 'id': 'cherry tomato', 'src': '/static/foodstim60/cherry tomato.jpg', 'key': 'i', 'origWidth': 410, 'origHeight': 410, 'width': 410, 'height': 410, 'widthPercent': 0.45, 'rescaleHeight': False, 'trialN': 1, 'loaded': True, 'loadedTime': 2793, 'positionName': 'RIGHT', 'positionCoords': [609.96, 264.5], 'bid': 0.14}]",7459,1669830690402,orange slices,cherry tomato,0.02,0.14,0.12000000000000001,cherry tomato,1509,1514,1513,True,i,9482,2023,1669830692426,2024,HRV,HRV_0142,2022-11-30 17:57:03
2,"[{'imgObject': {}, 'id': 'raisin bran w milk', 'src': '/static/foodstim60/raisin bran w milk.jpg', 'key': 'u', 'origWidth': 411, 'origHeight': 411, 'width': 411, 'height': 411, 'widthPercent': 0.45, 'rescaleHeight': False, 'trialN': 2, 'loaded': True, 'loadedTime': 2844, 'positionName': 'LEFT', 'positionCoords': [152.04, 264], 'bid': 0}, {'imgObject': {}, 'id': 'cheerios', 'src': '/static/foodstim60/cheerios.jpg', 'key': 'i', 'origWidth': 409, 'origHeight': 410, 'width': 409, 'height': 410, 'widthPercent': 0.45, 'rescaleHeight': False, 'trialN': 2, 'loaded': True, 'loadedTime': 2877, 'positionName': 'RIGHT', 'positionCoords': [609.96, 264.5], 'bid': 0}]",9497,1669830692441,raisin bran w milk,cheerios,0.0,0.0,0.0,cheerios,1783,1795,1795,True,i,11800,2303,1669830694743,2302,HRV,HRV_0142,2022-11-30 17:57:03
3,"[{'imgObject': {}, 'id': 'ice cream sundae 002', 'src': '/static/foodstim60/ice cream sundae 002.jpg', 'key': 'u', 'origWidth': 409, 'origHeight': 409, 'width': 409, 'height': 409, 'widthPercent': 0.45, 'rescaleHeight': False, 'trialN': 3, 'loaded': True, 'loadedTime': 2902, 'positionName': 'LEFT', 'positionCoords': [154.04, 265], 'bid': 5.16}, {'imgObject': {}, 'id': 'burrito', 'src': '/static/foodstim60/burrito.jpg', 'key': 'i', 'origWidth': 410, 'origHeight': 410, 'width': 410, 'height': 410, 'widthPercent': 0.45, 'rescaleHeight': False, 'trialN': 3, 'loaded': True, 'loadedTime': 2931, 'positionName': 'RIGHT', 'positionCoords': [609.96, 264.5], 'bid': 5.33}]",11805,1669830694748,ice cream sundae 002,burrito,5.16,5.33,0.16999999999999993,burrito,1428,1440,1439,True,i,13761,1956,1669830696705,1957,HRV,HRV_0142,2022-11-30 17:57:03
4,"[{'imgObject': {}, 'id': 'mango', 'src': '/static/foodstim60/mango.jpg', 'key': 'u', 'origWidth': 411, 'origHeight': 411, 'width': 411, 'height': 411, 'widthPercent': 0.45, 'rescaleHeight': False, 'trialN': 4, 'loaded': True, 'loadedTime': 2956, 'positionName': 'LEFT', 'positionCoords': [152.04, 264], 'bid': 0.02}, {'imgObject': {}, 'id': 'avocado', 'src': '/static/foodstim60/avocado.jpg', 'key': 'i', 'origWidth': 409, 'origHeight': 409, 'width': 409, 'height': 409, 'widthPercent': 0.45, 'rescaleHeight': False, 'trialN': 4, 'loaded': True, 'loadedTime': 2703, 'positionName': 'RIGHT', 'positionCoords': [609.96, 265], 'bid': 1.3}]",13776,1669830696720,mango,avocado,0.02,1.3,1.28,avocado,1363,1380,1380,True,i,15665,1889,1669830698609,1889,HRV,HRV_0142,2022-11-30 17:57:03
5,"[{'imgObject': {}, 'id': 'hashbrowns', 'src': '/static/foodstim60/hashbrowns.jpg', 'key': 'u', 'origWidth': 411, 'origHeight': 410, 'width': 411, 'height': 410, 'widthPercent': 0.45, 'rescaleHeight': False, 'trialN': 5, 'loaded': True, 'loadedTime': 2981, 'positionName': 'LEFT', 'positionCoords': [152.04, 264.5], 'bid': 0.09}, {'imgObject': {}, 'id': 'burrito', 'src': '/static/foodstim60/burrito.jpg', 'key': 'i', 'origWidth': 410, 'origHeight': 410, 'width': 410, 'height': 410, 'widthPercent': 0.45, 'rescaleHeight': False, 'trialN': 5, 'loaded': True, 'loadedTime': 2935, 'positionName': 'RIGHT', 'positionCoords': [609.96, 264.5], 'bid': 5.33}]",15671,1669830698614,hashbrowns,burrito,0.09,5.33,5.24,burrito,1140,1158,1157,True,i,17335,1664,1669830700278,1664,HRV,HRV_0142,2022-11-30 17:57:03
6,"[{'imgObject': {}, 'id': 'cherries', 'src': '/static/foodstim60/cherries.jpg', 'key': 'u', 'origWidth': 410, 'origHeight': 411, 'width': 410, 'height': 411, 'widthPercent': 0.45, 'rescaleHeight': False, 'trialN': 6, 'loaded': True, 'loadedTime': 3011, 'positionName': 'LEFT', 'positionCoords': [153.04, 264], 'bid': 0.13}, {'imgObject': {}, 'id': 'pear', 'src': '/static/foodstim60/pear.jpg', 'key': 'i', 'origWidth': 411, 'origHeight': 410, 'width': 411, 'height': 410, 'widthPercent': 0.45, 'rescaleHeight': False, 'trialN': 6, 'loaded': True, 'loadedTime': 3040, 'positionName': 'RIGHT', 'positionCoords': [609.96, 264.5], 'bid': 0.09}]",17340,1669830700284,cherries,pear,0.13,0.09,-0.04000000000000001,cherries,1689,1704,1704,True,u,19551,2211,1669830702494,2210,HRV,HRV_0142,2022-11-30 17:57:03
7,"[{'imgObject': {}, 'id': 'veggieswithdip', 'src': '/static/foodstim60/veggieswithdip.jpg', 'key': 'u', 'origWidth': 409, 'origHeight': 409, 'width': 409, 'height': 409, 'widthPercent': 0.45, 'rescaleHeight': False, 'trialN': 7, 'loaded': True, 'loadedTime': 3067, 'positionName': 'LEFT', 'positionCoords': [154.04, 265], 'bid': 0.02}, {'imgObject': {}, 'id': 'mango', 'src': '/static/foodstim60/mango.jpg', 'key': 'i', 'origWidth': 411, 'origHeight': 411, 'width': 411, 'height': 411, 'widthPercent': 0.45, 'rescaleHeight': False, 'trialN': 7, 'loaded': True, 'loadedTime': 2960, 'positionName': 'RIGHT', 'positionCoords': [609.96, 264], 'bid': 0.02}]",19555,1669830702499,veggieswithdip,mango,0.02,0.02,0.0,veggieswithdip,2005,2017,2017,True,u,22087,2532,1669830705031,2532,HRV,HRV_0142,2022-11-30 17:57:03
8,"[{'imgObject': {}, 'id': 'seaweed', 'src': '/static/foodstim60/seaweed.jpg', 'key': 'u', 'origWidth': 410, 'origHeight': 410, 'width': 410, 'height': 410, 'widthPercent': 0.45, 'rescaleHeight': False, 'trialN': 8, 'loaded': True, 'loadedTime': 3099, 'positionName': 'LEFT', 'positionCoords': [153.04, 264.5], 'bid': 0.08}, {'imgObject': {}, 'id': 'kiwi', 'src': '/static/foodstim60/kiwi.jpg', 'key': 'i', 'origWidth': 410, 'origHeight': 410, 'width': 410, 'height': 410, 'widthPercent': 0.45, 'rescaleHeight': False, 'trialN': 8, 'loaded': True, 'loadedTime': 3135, 'positionName': 'RIGHT', 'positionCoords': [609.96, 264.5], 'bid': 0.11}]",22092,1669830705035,seaweed,kiwi,0.08,0.11,0.03,kiwi,1782,1792,1792,True,i,24399,2307,1669830707343,2308,HRV,HRV_0142,2022-11-30 17:57:03
9,"[{'imgObject': {}, 'id': 'hotdog w must', 'src': '/static/foodstim60/hotdog w must.jpg', 'key': 'u', 'origWidth': 409, 'origHeight': 409, 'width': 409, 'height': 409, 'widthPercent': 0.45, 'rescaleHeight': False, 'trialN': 9, 'loaded': True, 'loadedTime': 3163, 'positionName': 'LEFT', 'positionCoords': [154.04, 265], 'bid': 5.57}, {'imgObject': {}, 'id': 'chickenfingers', 'src': '/static/foodstim60/chickenfingers.jpg', 'key': 'i', 'origWidth': 410, 'origHeight': 410, 'width': 410, 'height': 410, 'widthPercent': 0.45, 'rescaleHeight': False, 'trialN': 9, 'loaded': True, 'loadedTime': 3203, 'positionName': 'RIGHT', 'positionCoords': [609.96, 264.5], 'bid': 6.2700000000000005}]",24405,1669830707348,hotdog w must,chickenfingers,5.57,6.2700000000000005,0.7000000000000002,chickenfingers,1266,1272,1270,True,i,26187,1782,1669830709132,1784,HRV,HRV_0142,2022-11-30 17:57:03
10,"[{'imgObject': {}, 'id': 'lox', 'src': '/static/foodstim60/lox.jpg', 'key': 'u', 'origWidth': 410, 'origHeight': 411, 'width': 410, 'height': 411, 'widthPercent': 0.45, 'rescaleHeight': False, 'trialN': 10, 'loaded': True, 'loadedTime': 3236, 'positionName': 'LEFT', 'positionCoords': [153.04, 264], 'bid': 0.02}, {'imgObject': {}, 'id': 'Tribe humus pita', 'src': '/static/foodstim60/Tribe humus pita.jpg', 'key': 'i', 'origWidth': 411, 'origHeight': 411, 'width': 411, 'height': 411, 'widthPercent': 0.45, 'rescaleHeight': False, 'trialN': 10, 'loaded': True, 'loadedTime': 3269, 'positionName': 'RIGHT', 'positionCoords': [609.96, 264], 'bid': 0.08}]",26192,1669830709136,lox,Tribe humus pita,0.02,0.08,0.06,Tribe humus pita,1307,1316,1316,True,i,28021,1829,1669830710965,1829,HRV,HRV_0142,2022-11-30 17:57:03
11,"[{'imgObject': {}, 'id': 'banana', 'src': '/static/foodstim60/banana.jpg', 'key': 'u', 'origWidth': 410, 'origHeight': 410, 'width': 410, 'height': 410, 'widthPercent': 0.45, 'rescaleHeight': False, 'trialN': 11, 'loaded': True, 'loadedTime': 3294, 'positionName': 'LEFT', 'positionCoords': [153.04, 264.5], 'bid': 0.06}, {'imgObject': {}, 'id': 'hashbrowns', 'src': '/static/foodstim60/hashbrowns.jpg', 'key': 'i', 'origWidth': 411, 'origHeight': 410, 'width': 411, 'height': 410, 'widthPercent': 0.45, 'rescaleHeight': False, 'trialN': 11, 'loaded': True, 'loadedTime': 2985, 'positionName': 'RIGHT', 'positionCoords': [609.96, 264.5], 'bid': 0.09}]",28026,1669830710970,banana,hashbrowns,0.06,0.09,0.03,banana,1957,1970,1970,True,u,30506,2480,1669830713449,2479,HRV,HRV_0142,2022-11-30 17:57:03
12,"[{'imgObject': {}, 'id': 'pear', 'src': '/static/foodstim60/pear.jpg', 'key': 'u', 'origWidth': 411, 'origHeight': 410, 'width': 411, 'height': 410, 'widthPercent': 0.45, 'rescaleHeight': False, 'trialN': 12, 'loaded': True, 'loadedTime': 3043, 'positionName': 'LEFT', 'positionCoords': [152.04, 264.5], 'bid': 0.09}, {'imgObject': {}, 'id': 'steak', 'src': '/static/foodstim60/steak.jpg', 'key': 'i', 'origWidth': 410, 'origHeight': 410, 'width': 410, 'height': 410, 'widthPercent': 0.45, 'rescaleHeight': False, 'trialN': 12, 'loaded': True, 'loadedTime': 3327, 'positionName': 'RIGHT', 'positionCoords': [609.96, 264.5], 'bid': 9.95}]",30510,1669830713454,pear,steak,0.09,9.95,9.86,steak,1020,1022,1022,True,i,32048,1538,1669830714992,1538,HRV,HRV_0142,2022-11-30 17:57:03
13,"[{'imgObject': {}, 'id': 'turkey sandwich', 'src': '/static/foodstim60/turkey sandwich.jpg', 'key': 'u', 'origWidth': 409, 'origHeight': 409, 'width': 409, 'height': 409, 'widthPercent': 0.45, 'rescaleHeight': False, 'trialN': 13, 'loaded': True, 'loadedTime': 3351, 'positionName': 'LEFT', 'positionCoords': [154.04, 265], 'bid': 5.6000000000000005}, {'imgObject': {}, 'id': 'raspberries', 'src': '/static/foodstim60/raspberries.jpg', 'key': 'i', 'origWidth': 411, 'origHeight': 411, 'width': 411, 'height': 411, 'widthPercent': 0.45, 'rescaleHeight': False, 'trialN': 13, 'loaded': True, 'loadedTime': 3409, 'positionName': 'RIGHT', 'positionCoords': [609.96, 264], 'bid': 0.06}]",32052,1669830714996,turkey sandwich,raspberries,5.6000000000000005,0.06,-5.540000000000001,turkey sandwich,916,920,919,True,u,33481,1429,1669830716425,1429,HRV,HRV_0142,2022-11-30 17:57:03
14,"[{'imgObject': {}, 'id': 'grilled chicken strips', 'src': '/static/foodstim60/grilled chicken strips.jpg', 'key': 'u', 'origWidth': 410, 'origHeight': 411, 'width': 410, 'height': 411, 'widthPercent': 0.45, 'rescaleHeight': False, 'trialN': 14, 'loaded': True, 'loadedTime': 3428, 'positionName': 'LEFT', 'positionCoords': [153.04, 264], 'bid': 0}, {'imgObject': {}, 'id': 'corn cob', 'src': '/static/foodstim60/corn cob.jpg', 'key': 'i', 'origWidth': 411, 'origHeight': 411, 'width': 411, 'height': 411, 'widthPercent': 0.45, 'rescaleHeight': False, 'trialN': 14, 'loaded': True, 'loadedTime': 3471, 'positionName': 'RIGHT', 'positionCoords': [609.96, 264], 'bid': 0.01}]",33486,1669830716430,grilled chicken strips,corn cob,0.0,0.01,0.01,grilled chicken strips,1294,1302,1302,True,u,35290,1804,1669830718234,1804,HRV,HRV_0142,2022-11-30 17:57:03
15,"[{'imgObject': {}, 'id': 'grilled chicken strips', 'src': '/static/foodstim60/grilled chicken strips.jpg', 'key': 'u', 'origWidth': 410, 'origHeight': 411, 'width': 410, 'height': 411, 'widthPercent': 0.45, 'rescaleHeight': False, 'trialN': 15, 'loaded': True, 'loadedTime': 3438, 'positionName': 'LEFT', 'positionCoords': [153.04, 264], 'bid': 0}, {'imgObject': {}, 'id': 'eggsalad', 'src': '/static/foodstim60/eggsalad.jpg', 'key': 'i', 'origWidth': 410, 'origHeight': 409, 'width': 410, 'height': 409, 'widthPercent': 0.45, 'rescaleHeight': False, 'trialN': 15, 'loaded': True, 'loadedTime': 3515, 'positionName': 'RIGHT', 'positionCoords': [609.96, 265], 'bid': 0.09}]",35295,1669830718239,grilled chicken strips,eggsalad,0.0,0.09,0.09,grilled chicken strips,1391,1405,1405,True,u,37216,1921,1669830720161,1922,HRV,HRV_0142,2022-11-30 17:57:03
16,"[{'imgObject': {}, 'id': 'blueberries', 'src': '/static/foodstim60/blueberries.jpg', 'key': 'u', 'origWidth': 411, 'origHeight': 411, 'width': 411, 'height': 411, 'widthPercent': 0.45, 'rescaleHeight': False, 'trialN': 16, 'loaded': True, 'loadedTime': 3559, 'positionName': 'LEFT', 'positionCoords': [152.04, 264], 'bid': 0.06}, {'imgObject': {}, 'id': 'corn cob', 'src': '/static/foodstim60/corn cob.jpg', 'key': 'i', 'origWidth': 411, 'origHeight': 411, 'width': 411, 'height': 411, 'widthPercent': 0.45, 'rescaleHeight': False, 'trialN': 16, 'loaded': True, 'loadedTime': 3474, 'positionName': 'RIGHT', 'positionCoords': [609.96, 264], 'bid': 0.01}]",37222,1669830720165,blueberries,corn cob,0.06,0.01,-0.049999999999999996,corn cob,855,863,862,True,i,38593,1371,1669830721537,1372,HRV,HRV_0142,2022-11-30 17:57:03
17,"[{'imgObject': {}, 'id': 'apple slices', 'src': '/static/foodstim60/apple slices.jpg', 'key': 'u', 'origWidth': 409, 'origHeight': 410, 'width': 409, 'height': 410, 'widthPercent': 0.45, 'rescaleHeight': False, 'trialN': 17, 'loaded': True, 'loadedTime': 3601, 'positionName': 'LEFT', 'positionCoords': [154.04, 264.5], 'bid': 0.2}, {'imgObject': {}, 'id': 'lox', 'src': '/static/foodstim60/lox.jpg', 'key': 'i', 'origWidth': 410, 'origHeight': 411, 'width': 410, 'height': 411, 'widthPercent': 0.45, 'rescaleHeight': False, 'trialN': 17, 'loaded': True, 'loadedTime': 3244, 'positionName': 'RIGHT', 'positionCoords': [609.96, 264], 'bid': 0.02}]",38597,1669830721541,apple slices,lox,0.2,0.02,-0.18000000000000002,apple slices,1713,1727,1727,True,u,40831,2234,1669830723775,2234,HRV,HRV_0142,2022-11-30 17:57:03
18,"[{'imgObject': {}, 'id': 'burger', 'src': '/static/foodstim60/burger.jpg', 'key': 'u', 'origWidth': 409, 'origHeight': 409, 'width': 409, 'height': 409, 'widthPercent': 0.45, 'rescaleHeight': False, 'trialN': 18, 'loaded': True, 'loadedTime': 3652, 'positionName': 'LEFT', 'positionCoords': [154.04, 265], 'bid': 7.49}, {'imgObject': {}, 'id': 'steak', 'src': '/static/foodstim60/steak.jpg', 'key': 'i', 'origWidth': 410, 'origHeight': 410, 'width': 410, 'height': 410, 'widthPercent': 0.45, 'rescaleHeight': False, 'trialN': 18, 'loaded': True, 'loadedTime': 3331, 'positionName': 'RIGHT', 'positionCoords': [609.96, 264.5], 'bid': 9.95}]",40836,1669830723780,burger,steak,7.49,9.95,2.459999999999999,steak,1162,1168,1168,True,i,42520,1684,1669830725464,1684,HRV,HRV_0142,2022-11-30 17:57:03
19,"[{'imgObject': {}, 'id': 'bagel and cc', 'src': '/static/foodstim60/bagel and cc.jpg', 'key': 'u', 'origWidth': 410, 'origHeight': 410, 'width': 410, 'height': 410, 'widthPercent': 0.45, 'rescaleHeight': False, 'trialN': 19, 'loaded': True, 'loadedTime': 2733, 'positionName': 'LEFT', 'positionCoords': [153.04, 264.5], 'bid': 0.11}, {'imgObject': {}, 'id': 'cherries', 'src': '/static/foodstim60/cherries.jpg', 'key': 'i', 'origWidth': 410, 'origHeight': 411, 'width': 410, 'height': 411, 'widthPercent': 0.45, 'rescaleHeight': False, 'trialN': 19, 'loaded': True, 'loadedTime': 3018, 'positionName': 'RIGHT', 'positionCoords': [609.96, 264], 'bid': 0.13}]",42533,1669830725476,bagel and cc,cherries,0.11,0.13,0.020000000000000004,bagel and cc,1731,1744,1743,True,u,44794,2261,1669830727738,2262,HRV,HRV_0142,2022-11-30 17:57:03
20,"[{'imgObject': {}, 'id': 'bagel plain', 'src': '/static/foodstim60/bagel plain.jpg', 'key': 'u', 'origWidth': 410, 'origHeight': 410, 'width': 410, 'height': 410, 'widthPercent': 0.45, 'rescaleHeight': False, 'trialN': 20, 'loaded': True, 'loadedTime': 3720, 'positionName': 'LEFT', 'positionCoords': [153.04, 264.5], 'bid': 0}, {'imgObject': {}, 'id': 'fruitsalad', 'src': '/static/foodstim60/fruitsalad.jpg', 'key': 'i', 'origWidth': 410, 'origHeight': 410, 'width': 410, 'height': 410, 'widthPercent': 0.45, 'rescaleHeight': False, 'trialN': 20, 'loaded': True, 'loadedTime': 3816, 'positionName': 'RIGHT', 'positionCoords': [609.96, 264.5], 'bid': 0.04}]",44799,1669830727743,bagel plain,fruitsalad,0.0,0.04,0.04,bagel plain,950,964,965,True,u,46272,1473,1669830729215,1472,HRV,HRV_0142,2022-11-30 17:57:03
21,"[{'imgObject': {}, 'id': 'cherry tomato', 'src': '/static/foodstim60/cherry tomato.jpg', 'key': 'u', 'origWidth': 410, 'origHeight': 410, 'width': 410, 'height': 410, 'widthPercent': 0.45, 'rescaleHeight': False, 'trialN': 21, 'loaded': True, 'loadedTime': 2796, 'positionName': 'LEFT', 'positionCoords': [153.04, 264.5], 'bid': 0.14}, {'imgObject': {}, 'id': 'roastedpotatoes', 'src': '/static/foodstim60/roastedpotatoes.jpg', 'key': 'i', 'origWidth': 409, 'origHeight': 410, 'width': 409, 'height': 410, 'widthPercent': 0.45, 'rescaleHeight': False, 'trialN': 21, 'loaded': True, 'loadedTime': 3890, 'positionName': 'RIGHT', 'positionCoords': [609.96, 264.5], 'bid': 6.32}]",46283,1669830729228,cherry tomato,roastedpotatoes,0.14,6.32,6.180000000000001,roastedpotatoes,1122,1136,1137,True,i,47929,1646,1669830730872,1644,HRV,HRV_0142,2022-11-30 17:57:03
22,"[{'imgObject': {}, 'id': 'eggs', 'src': '/static/foodstim60/eggs.jpg', 'key': 'u', 'origWidth': 409, 'origHeight': 409, 'width': 409, 'height': 409, 'widthPercent': 0.45, 'rescaleHeight': False, 'trialN': 22, 'loaded': True, 'loadedTime': 4024, 'positionName': 'LEFT', 'positionCoords': [154.04, 265], 'bid': 6.0600000000000005}, {'imgObject': {}, 'id': 'salmon', 'src': '/static/foodstim60/salmon.jpg', 'key': 'i', 'origWidth': 410, 'origHeight': 409, 'width': 410, 'height': 409, 'widthPercent': 0.45, 'rescaleHeight': False, 'trialN': 22, 'loaded': True, 'loadedTime': 4083, 'positionName': 'RIGHT', 'positionCoords': [609.96, 265], 'bid': 0.06}]",47933,1669830730876,eggs,salmon,6.0600000000000005,0.06,-6.000000000000001,eggs,1096,1104,1104,True,u,49550,1617,1669830732493,1617,HRV,HRV_0142,2022-11-30 17:57:03
23,"[{'imgObject': {}, 'id': 'Grapes', 'src': '/static/foodstim60/Grapes.jpg', 'key': 'u', 'origWidth': 411, 'origHeight': 411, 'width': 411, 'height': 411, 'widthPercent': 0.45, 'rescaleHeight': False, 'trialN': 23, 'loaded': True, 'loadedTime': 4153, 'positionName': 'LEFT', 'positionCoords': [152.04, 264], 'bid': 0.09}, {'imgObject': {}, 'id': 'luckycharms', 'src': '/static/foodstim60/luckycharms.jpg', 'key': 'i', 'origWidth': 410, 'origHeight': 409, 'width': 410, 'height': 409, 'widthPercent': 0.45, 'rescaleHeight': False, 'trialN': 23, 'loaded': True, 'loadedTime': 4276, 'positionName': 'RIGHT', 'positionCoords': [609.96, 265], 'bid': 0.08}]",49555,1669830732498,Grapes,luckycharms,0.09,0.08,-0.009999999999999995,luckycharms,1319,1330,1329,True,i,51389,1834,1669830734332,1834,HRV,HRV_0142,2022-11-30 17:57:03
24,"[{'imgObject': {}, 'id': 'cantaloupe', 'src': '/static/foodstim60/cantaloupe.jpg', 'key': 'u', 'origWidth': 409, 'origHeight': 409, 'width': 409, 'height': 409, 'widthPercent': 0.45, 'rescaleHeight': False, 'trialN': 24, 'loaded': True, 'loadedTime': 4351, 'positionName': 'LEFT', 'positionCoords': [154.04, 265], 'bid': 0}, {'imgObject': {}, 'id': 'rigatoni', 'src': '/static/foodstim60/rigatoni.jpg', 'key': 'i', 'origWidth': 411, 'origHeight': 411, 'width': 411, 'height': 411, 'widthPercent': 0.45, 'rescaleHeight': False, 'trialN': 24, 'loaded': True, 'loadedTime': 4377, 'positionName': 'RIGHT', 'positionCoords': [609.96, 264], 'bid': 0.04}]",51393,1669830734337,cantaloupe,rigatoni,0.0,0.04,0.04,rigatoni,1231,1243,1243,True,i,53145,1752,1669830736089,1752,HRV,HRV_0142,2022-11-30 17:57:03
25,"[{'imgObject': {}, 'id': 'roastedpotatoes', 'src': '/static/foodstim60/roastedpotatoes.jpg', 'key': 'u', 'origWidth': 409, 'origHeight': 410, 'width': 409, 'height': 410, 'widthPercent': 0.45, 'rescaleHeight': False, 'trialN': 25, 'loaded': True, 'loadedTime': 3900, 'positionName': 'LEFT', 'positionCoords': [154.04, 264.5], 'bid': 6.32}, {'imgObject': {}, 'id': 'luckycharms', 'src': '/static/foodstim60/luckycharms.jpg', 'key': 'i', 'origWidth': 410, 'origHeight': 409, 'width': 410, 'height': 409, 'widthPercent': 0.45, 'rescaleHeight': False, 'trialN': 25, 'loaded': True, 'loadedTime': 4296, 'positionName': 'RIGHT', 'positionCoords': [609.96, 265], 'bid': 0.08}]",53150,1669830736093,roastedpotatoes,luckycharms,6.32,0.08,-6.24,roastedpotatoes,1051,1063,1062,True,u,54724,1574,1669830737669,1576,HRV,HRV_0142,2022-11-30 17:57:03
26,"[{'imgObject': {}, 'id': 'grilled chicken strips', 'src': '/static/foodstim60/grilled chicken strips.jpg', 'key': 'u', 'origWidth': 410, 'origHeight': 411, 'width': 410, 'height': 411, 'widthPercent': 0.45, 'rescaleHeight': False, 'trialN': 26, 'loaded': True, 'loadedTime': 3443, 'positionName': 'LEFT', 'positionCoords': [153.04, 264], 'bid': 0}, {'imgObject': {}, 'id': 'sushi w_condiments', 'src': '/static/foodstim60/sushi w_condiments.jpg', 'key': 'i', 'origWidth': 410, 'origHeight': 410, 'width': 410, 'height': 410, 'widthPercent': 0.45, 'rescaleHeight': False, 'trialN': 26, 'loaded': True, 'loadedTime': 4397, 'positionName': 'RIGHT', 'positionCoords': [609.96, 264.5], 'bid': 0}]",54729,1669830737672,grilled chicken strips,sushi w_condiments,0.0,0.0,0.0,grilled chicken strips,1098,1108,1107,True,u,56339,1610,1669830739283,1611,HRV,HRV_0142,2022-11-30 17:57:03
27,"[{'imgObject': {}, 'id': 'cocktailshrimp', 'src': '/static/foodstim60/cocktailshrimp.jpg', 'key': 'u', 'origWidth': 410, 'origHeight': 410, 'width': 410, 'height': 410, 'widthPercent': 0.45, 'rescaleHeight': False, 'trialN': 27, 'loaded': True, 'loadedTime': 4434, 'positionName': 'LEFT', 'positionCoords': [153.04, 264.5], 'bid': 0.09}, {'imgObject': {}, 'id': 'shreddedwheatwithmilk', 'src': '/static/foodstim60/shreddedwheatwithmilk.jpg', 'key': 'i', 'origWidth': 410, 'origHeight': 410, 'width': 410, 'height': 410, 'widthPercent': 0.45, 'rescaleHeight': False, 'trialN': 27, 'loaded': True, 'loadedTime': 4544, 'positionName': 'RIGHT', 'positionCoords': [609.96, 264.5], 'bid': 0.09}]",56345,1669830739289,cocktailshrimp,shreddedwheatwithmilk,0.09,0.09,0.0,shreddedwheatwithmilk,2044,2059,2059,True,i,58910,2565,1669830741855,2566,HRV,HRV_0142,2022-11-30 17:57:03
28,"[{'imgObject': {}, 'id': 'olives', 'src': '/static/foodstim60/olives.jpg', 'key': 'u', 'origWidth': 410, 'origHeight': 410, 'width': 410, 'height': 410, 'widthPercent': 0.45, 'rescaleHeight': False, 'trialN': 28, 'loaded': True, 'loadedTime': 4559, 'positionName': 'LEFT', 'positionCoords': [153.04, 264.5], 'bid': 0}, {'imgObject': {}, 'id': 'sweetpotato', 'src': '/static/foodstim60/sweetpotato.jpg', 'key': 'i', 'origWidth': 410, 'origHeight': 410, 'width': 410, 'height': 410, 'widthPercent': 0.45, 'rescaleHeight': False, 'trialN': 28, 'loaded': True, 'loadedTime': 4743, 'positionName': 'RIGHT', 'positionCoords': [609.96, 264.5], 'bid': 0.04}]",58916,1669830741859,olives,sweetpotato,0.0,0.04,0.04,sweetpotato,1222,1233,1232,True,i,60654,1738,1669830743598,1739,HRV,HRV_0142,2022-11-30 17:57:03
29,"[{'imgObject': {}, 'id': 'raisin bran w milk', 'src': '/static/foodstim60/raisin bran w milk.jpg', 'key': 'u', 'origWidth': 411, 'origHeight': 411, 'width': 411, 'height': 411, 'widthPercent': 0.45, 'rescaleHeight': False, 'trialN': 29, 'loaded': True, 'loadedTime': 2851, 'positionName': 'LEFT', 'positionCoords': [152.04, 264], 'bid': 0}, {'imgObject': {}, 'id': 'blueberries', 'src': '/static/foodstim60/blueberries.jpg', 'key': 'i', 'origWidth': 411, 'origHeight': 411, 'width': 411, 'height': 411, 'widthPercent': 0.45, 'rescaleHeight': False, 'trialN': 29, 'loaded': True, 'loadedTime': 3568, 'positionName': 'RIGHT', 'positionCoords': [609.96, 264], 'bid': 0.06}]",60666,1669830743611,raisin bran w milk,blueberries,0.0,0.06,0.06,raisin bran w milk,1395,1409,1410,True,u,62589,1923,1669830745533,1922,HRV,HRV_0142,2022-11-30 17:57:03
30,"[{'imgObject': {}, 'id': 'bagel plain', 'src': '/static/foodstim60/bagel plain.jpg', 'key': 'u', 'origWidth': 410, 'origHeight': 410, 'width': 410, 'height': 410, 'widthPercent': 0.45, 'rescaleHeight': False, 'trialN': 30, 'loaded': True, 'loadedTime': 3745, 'positionName': 'LEFT', 'positionCoords': [153.04, 264.5], 'bid': 0}, {'imgObject': {}, 'id': 'salmon', 'src': '/static/foodstim60/salmon.jpg', 'key': 'i', 'origWidth': 410, 'origHeight': 409, 'width': 410, 'height': 409, 'widthPercent': 0.45, 'rescaleHeight': False, 'trialN': 30, 'loaded': True, 'loadedTime': 4105, 'positionName': 'RIGHT', 'positionCoords': [609.96, 265], 'bid': 0.06}]",62594,1669830745538,bagel plain,salmon,0.0,0.06,0.06,bagel plain,1702,1713,1714,True,u,64814,2220,1669830747758,2220,HRV,HRV_0142,2022-11-30 17:57:03
31,"[{'imgObject': {}, 'id': 'roastedpotatoes', 'src': '/static/foodstim60/roastedpotatoes.jpg', 'key': 'u', 'origWidth': 409, 'origHeight': 410, 'width': 409, 'height': 410, 'widthPercent': 0.45, 'rescaleHeight': False, 'trialN': 31, 'loaded': True, 'loadedTime': 3925, 'positionName': 'LEFT', 'positionCoords': [154.04, 264.5], 'bid': 6.32}, {'imgObject': {}, 'id': 'burger', 'src': '/static/foodstim60/burger.jpg', 'key': 'i', 'origWidth': 409, 'origHeight': 409, 'width': 409, 'height': 409, 'widthPercent': 0.45, 'rescaleHeight': False, 'trialN': 31, 'loaded': True, 'loadedTime': 3658, 'positionName': 'RIGHT', 'positionCoords': [609.96, 265], 'bid': 7.49}]",64819,1669830747763,roastedpotatoes,burger,6.32,7.49,1.17,roastedpotatoes,899,904,905,True,u,66233,1414,1669830749176,1413,HRV,HRV_0142,2022-11-30 17:57:03
32,"[{'imgObject': {}, 'id': 'avocado', 'src': '/static/foodstim60/avocado.jpg', 'key': 'u', 'origWidth': 409, 'origHeight': 409, 'width': 409, 'height': 409, 'widthPercent': 0.45, 'rescaleHeight': False, 'trialN': 32, 'loaded': True, 'loadedTime': 2709, 'positionName': 'LEFT', 'positionCoords': [154.04, 265], 'bid': 1.3}, {'imgObject': {}, 'id': 'steak', 'src': '/static/foodstim60/steak.jpg', 'key': 'i', 'origWidth': 410, 'origHeight': 410, 'width': 410, 'height': 410, 'widthPercent': 0.45, 'rescaleHeight': False, 'trialN': 32, 'loaded': True, 'loadedTime': 3336, 'positionName': 'RIGHT', 'positionCoords': [609.96, 264.5], 'bid': 9.95}]",66247,1669830749190,avocado,steak,1.3,9.95,8.649999999999999,steak,955,958,957,True,i,67719,1472,1669830750663,1473,HRV,HRV_0142,2022-11-30 17:57:03
33,"[{'imgObject': {}, 'id': 'chicken nuggets2', 'src': '/static/foodstim60/chicken nuggets2.jpg', 'key': 'u', 'origWidth': 410, 'origHeight': 409, 'width': 410, 'height': 409, 'widthPercent': 0.45, 'rescaleHeight': False, 'trialN': 33, 'loaded': True, 'loadedTime': 4766, 'positionName': 'LEFT', 'positionCoords': [153.04, 265], 'bid': 6.25}, {'imgObject': {}, 'id': 'strawberries', 'src': '/static/foodstim60/strawberries.jpg', 'key': 'i', 'origWidth': 410, 'origHeight': 410, 'width': 410, 'height': 410, 'widthPercent': 0.45, 'rescaleHeight': False, 'trialN': 33, 'loaded': True, 'loadedTime': 4805, 'positionName': 'RIGHT', 'positionCoords': [609.96, 264.5], 'bid': 0.08}]",67724,1669830750668,chicken nuggets2,strawberries,6.25,0.08,-6.17,chicken nuggets2,961,968,968,True,u,69205,1481,1669830752149,1481,HRV,HRV_0142,2022-11-30 17:57:03
34,"[{'imgObject': {}, 'id': 'chickenfingers', 'src': '/static/foodstim60/chickenfingers.jpg', 'key': 'u', 'origWidth': 410, 'origHeight': 410, 'width': 410, 'height': 410, 'widthPercent': 0.45, 'rescaleHeight': False, 'trialN': 34, 'loaded': True, 'loadedTime': 3206, 'positionName': 'LEFT', 'positionCoords': [153.04, 264.5], 'bid': 6.2700000000000005}, {'imgObject': {}, 'id': 'popsicles', 'src': '/static/foodstim60/popsicles.jpg', 'key': 'i', 'origWidth': 410, 'origHeight': 410, 'width': 410, 'height': 410, 'widthPercent': 0.45, 'rescaleHeight': False, 'trialN': 34, 'loaded': True, 'loadedTime': 4856, 'positionName': 'RIGHT', 'positionCoords': [609.96, 264.5], 'bid': 0.14}]",69211,1669830752154,chickenfingers,popsicles,6.2700000000000005,0.14,-6.130000000000001,chickenfingers,927,946,945,True,u,70672,1461,1669830753616,1462,HRV,HRV_0142,2022-11-30 17:57:03
35,"[{'imgObject': {}, 'id': 'olives', 'src': '/static/foodstim60/olives.jpg', 'key': 'u', 'origWidth': 410, 'origHeight': 410, 'width': 410, 'height': 410, 'widthPercent': 0.45, 'rescaleHeight': False, 'trialN': 35, 'loaded': True, 'loadedTime': 4565, 'positionName': 'LEFT', 'positionCoords': [153.04, 264.5], 'bid': 0}, {'imgObject': {}, 'id': 'blackbeanswithrice', 'src': '/static/foodstim60/blackbeanswithrice.jpg', 'key': 'i', 'origWidth': 410, 'origHeight': 410, 'width': 410, 'height': 410, 'widthPercent': 0.45, 'rescaleHeight': False, 'trialN': 35, 'loaded': True, 'loadedTime': 4886, 'positionName': 'RIGHT', 'positionCoords': [609.96, 264.5], 'bid': 0}]",70677,1669830753620,olives,blackbeanswithrice,0.0,0.0,0.0,olives,1290,1296,1295,True,u,72483,1806,1669830755427,1807,HRV,HRV_0142,2022-11-30 17:57:03
36,"[{'imgObject': {}, 'id': 'fried eggs', 'src': '/static/foodstim60/fried eggs.jpg', 'key': 'u', 'origWidth': 410, 'origHeight': 410, 'width': 410, 'height': 410, 'widthPercent': 0.45, 'rescaleHeight': False, 'trialN': 36, 'loaded': True, 'loadedTime': 4899, 'positionName': 'LEFT', 'positionCoords': [153.04, 264.5], 'bid': 7.24}, {'imgObject': {}, 'id': 'baked potato', 'src': '/static/foodstim60/baked potato.jpg', 'key': 'i', 'origWidth': 409, 'origHeight': 410, 'width': 409, 'height': 410, 'widthPercent': 0.45, 'rescaleHeight': False, 'trialN': 36, 'loaded': True, 'loadedTime': 4927, 'positionName': 'RIGHT', 'positionCoords': [609.96, 264.5], 'bid': 5.65}]",72488,1669830755432,fried eggs,baked potato,7.24,5.65,-1.5899999999999999,fried eggs,1198,1203,1204,True,u,74196,1708,1669830757140,1708,HRV,HRV_0142,2022-11-30 17:57:03
37,"[{'imgObject': {}, 'id': 'cherry tomato', 'src': '/static/foodstim60/cherry tomato.jpg', 'key': 'u', 'origWidth': 410, 'origHeight': 410, 'width': 410, 'height': 410, 'widthPercent': 0.45, 'rescaleHeight': False, 'trialN': 37, 'loaded': True, 'loadedTime': 2800, 'positionName': 'LEFT', 'positionCoords': [153.04, 264.5], 'bid': 0.14}, {'imgObject': {}, 'id': 'apple slices', 'src': '/static/foodstim60/apple slices.jpg', 'key': 'i', 'origWidth': 409, 'origHeight': 410, 'width': 409, 'height': 410, 'widthPercent': 0.45, 'rescaleHeight': False, 'trialN': 37, 'loaded': True, 'loadedTime': 3605, 'positionName': 'RIGHT', 'positionCoords': [609.96, 264.5], 'bid': 0.2}]",74208,1669830757153,cherry tomato,apple slices,0.14,0.2,0.06,cherry tomato,2040,2051,2052,True,u,76771,2563,1669830759714,2561,HRV,HRV_0142,2022-11-30 17:57:03
38,"[{'imgObject': {}, 'id': 'raisin bran w milk', 'src': '/static/foodstim60/raisin bran w milk.jpg', 'key': 'u', 'origWidth': 411, 'origHeight': 411, 'width': 411, 'height': 411, 'widthPercent': 0.45, 'rescaleHeight': False, 'trialN': 38, 'loaded': True, 'loadedTime': 2856, 'positionName': 'LEFT', 'positionCoords': [152.04, 264], 'bid': 0}, {'imgObject': {}, 'id': 'mango', 'src': '/static/foodstim60/mango.jpg', 'key': 'i', 'origWidth': 411, 'origHeight': 411, 'width': 411, 'height': 411, 'widthPercent': 0.45, 'rescaleHeight': False, 'trialN': 38, 'loaded': True, 'loadedTime': 2965, 'positionName': 'RIGHT', 'positionCoords': [609.96, 264], 'bid': 0.02}]",76784,1669830759728,raisin bran w milk,mango,0.0,0.02,0.02,mango,1839,1844,1844,True,i,79141,2357,1669830762085,2357,HRV,HRV_0142,2022-11-30 17:57:03
39,"[{'imgObject': {}, 'id': 'cherry tomato', 'src': '/static/foodstim60/cherry tomato.jpg', 'key': 'u', 'origWidth': 410, 'origHeight': 410, 'width': 410, 'height': 410, 'widthPercent': 0.45, 'rescaleHeight': False, 'trialN': 39, 'loaded': True, 'loadedTime': 2806, 'positionName': 'LEFT', 'positionCoords': [153.04, 264.5], 'bid': 0.14}, {'imgObject': {}, 'id': 'baked potato', 'src': '/static/foodstim60/baked potato.jpg', 'key': 'i', 'origWidth': 409, 'origHeight': 410, 'width': 409, 'height': 410, 'widthPercent': 0.45, 'rescaleHeight': False, 'trialN': 39, 'loaded': True, 'loadedTime': 4932, 'positionName': 'RIGHT', 'positionCoords': [609.96, 264.5], 'bid': 5.65}]",79148,1669830762092,cherry tomato,baked potato,0.14,5.65,5.510000000000001,baked potato,1101,1104,1103,True,i,80764,1616,1669830763707,1615,HRV,HRV_0142,2022-11-30 17:57:03
40,"[{'imgObject': {}, 'id': 'hotdog w must', 'src': '/static/foodstim60/hotdog w must.jpg', 'key': 'u', 'origWidth': 409, 'origHeight': 409, 'width': 409, 'height': 409, 'widthPercent': 0.45, 'rescaleHeight': False, 'trialN': 40, 'loaded': True, 'loadedTime': 3171, 'positionName': 'LEFT', 'positionCoords': [154.04, 265], 'bid': 5.57}, {'imgObject': {}, 'id': 'baked potato', 'src': '/static/foodstim60/baked potato.jpg', 'key': 'i', 'origWidth': 409, 'origHeight': 410, 'width': 409, 'height': 410, 'widthPercent': 0.45, 'rescaleHeight': False, 'trialN': 40, 'loaded': True, 'loadedTime': 4941, 'positionName': 'RIGHT', 'positionCoords': [609.96, 264.5], 'bid': 5.65}]",80769,1669830763712,hotdog w must,baked potato,5.57,5.65,0.08000000000000007,hotdog w must,1730,1740,1739,True,u,83011,2242,1669830765954,2242,HRV,HRV_0142,2022-11-30 17:57:03
41,"[{'imgObject': {}, 'id': 'blackbeanswithrice', 'src': '/static/foodstim60/blackbeanswithrice.jpg', 'key': 'u', 'origWidth': 410, 'origHeight': 410, 'width': 410, 'height': 410, 'widthPercent': 0.45, 'rescaleHeight': False, 'trialN': 41, 'loaded': True, 'loadedTime': 4891, 'positionName': 'LEFT', 'positionCoords': [153.04, 264.5], 'bid': 0}, {'imgObject': {}, 'id': 'bagel plain', 'src': '/static/foodstim60/bagel plain.jpg', 'key': 'i', 'origWidth': 410, 'origHeight': 410, 'width': 410, 'height': 410, 'widthPercent': 0.45, 'rescaleHeight': False, 'trialN': 41, 'loaded': True, 'loadedTime': 3751, 'positionName': 'RIGHT', 'positionCoords': [609.96, 264.5], 'bid': 0}]",83016,1669830765959,blackbeanswithrice,bagel plain,0.0,0.0,0.0,bagel plain,1202,1205,1204,True,i,84737,1721,1669830767680,1721,HRV,HRV_0142,2022-11-30 17:57:03
42,"[{'imgObject': {}, 'id': 'tacos', 'src': '/static/foodstim60/tacos.jpg', 'key': 'u', 'origWidth': 411, 'origHeight': 411, 'width': 411, 'height': 411, 'widthPercent': 0.45, 'rescaleHeight': False, 'trialN': 42, 'loaded': True, 'loadedTime': 4960, 'positionName': 'LEFT', 'positionCoords': [152.04, 264], 'bid': 0.08}, {'imgObject': {}, 'id': 'seaweed', 'src': '/static/foodstim60/seaweed.jpg', 'key': 'i', 'origWidth': 410, 'origHeight': 410, 'width': 410, 'height': 410, 'widthPercent': 0.45, 'rescaleHeight': False, 'trialN': 42, 'loaded': True, 'loadedTime': 3108, 'positionName': 'RIGHT', 'positionCoords': [609.96, 264.5], 'bid': 0.08}]",84741,1669830767685,tacos,seaweed,0.08,0.08,0.0,tacos,1054,1063,1063,True,u,86317,1576,1669830769260,1575,HRV,HRV_0142,2022-11-30 17:57:03
43,"[{'imgObject': {}, 'id': 'mango', 'src': '/static/foodstim60/mango.jpg', 'key': 'u', 'origWidth': 411, 'origHeight': 411, 'width': 411, 'height': 411, 'widthPercent': 0.45, 'rescaleHeight': False, 'trialN': 43, 'loaded': True, 'loadedTime': 2967, 'positionName': 'LEFT', 'positionCoords': [152.04, 264], 'bid': 0.02}, {'imgObject': {}, 'id': 'sweetpotato', 'src': '/static/foodstim60/sweetpotato.jpg', 'key': 'i', 'origWidth': 410, 'origHeight': 410, 'width': 410, 'height': 410, 'widthPercent': 0.45, 'rescaleHeight': False, 'trialN': 43, 'loaded': True, 'loadedTime': 4749, 'positionName': 'RIGHT', 'positionCoords': [609.96, 264.5], 'bid': 0.04}]",86322,1669830769265,mango,sweetpotato,0.02,0.04,0.02,sweetpotato,989,994,995,True,i,87818,1496,1669830770762,1497,HRV,HRV_0142,2022-11-30 17:57:03
44,"[{'imgObject': {}, 'id': 'tacos', 'src': '/static/foodstim60/tacos.jpg', 'key': 'u', 'origWidth': 411, 'origHeight': 411, 'width': 411, 'height': 411, 'widthPercent': 0.45, 'rescaleHeight': False, 'trialN': 44, 'loaded': True, 'loadedTime': 4964, 'positionName': 'LEFT', 'positionCoords': [152.04, 264], 'bid': 0.08}, {'imgObject': {}, 'id': 'strawberries', 'src': '/static/foodstim60/strawberries.jpg', 'key': 'i', 'origWidth': 410, 'origHeight': 410, 'width': 410, 'height': 410, 'widthPercent': 0.45, 'rescaleHeight': False, 'trialN': 44, 'loaded': True, 'loadedTime': 4812, 'positionName': 'RIGHT', 'positionCoords': [609.96, 264.5], 'bid': 0.08}]",87823,1669830770766,tacos,strawberries,0.08,0.08,0.0,tacos,1066,1078,1077,True,u,89409,1586,1669830772352,1586,HRV,HRV_0142,2022-11-30 17:57:03
45,"[{'imgObject': {}, 'id': 'lox', 'src': '/static/foodstim60/lox.jpg', 'key': 'u', 'origWidth': 410, 'origHeight': 411, 'width': 410, 'height': 411, 'widthPercent': 0.45, 'rescaleHeight': False, 'trialN': 45, 'loaded': True, 'loadedTime': 3250, 'positionName': 'LEFT', 'positionCoords': [153.04, 264], 'bid': 0.02}, {'imgObject': {}, 'id': 'grilled chicken strips', 'src': '/static/foodstim60/grilled chicken strips.jpg', 'key': 'i', 'origWidth': 410, 'origHeight': 411, 'width': 410, 'height': 411, 'widthPercent': 0.45, 'rescaleHeight': False, 'trialN': 45, 'loaded': True, 'loadedTime': 3449, 'positionName': 'RIGHT', 'positionCoords': [609.96, 264], 'bid': 0}]",89413,1669830772358,lox,grilled chicken strips,0.02,0.0,-0.02,grilled chicken strips,1023,1038,1039,True,i,90969,1556,1669830773912,1554,HRV,HRV_0142,2022-11-30 17:57:03
46,"[{'imgObject': {}, 'id': 'salad w chicken', 'src': '/static/foodstim60/salad w chicken.jpg', 'key': 'u', 'origWidth': 411, 'origHeight': 411, 'width': 411, 'height': 411, 'widthPercent': 0.45, 'rescaleHeight': False, 'trialN': 46, 'loaded': True, 'loadedTime': 4979, 'positionName': 'LEFT', 'positionCoords': [152.04, 264], 'bid': 0.09}, {'imgObject': {}, 'id': 'granola w milk', 'src': '/static/foodstim60/granola w milk.jpg', 'key': 'i', 'origWidth': 410, 'origHeight': 410, 'width': 410, 'height': 410, 'widthPercent': 0.45, 'rescaleHeight': False, 'trialN': 46, 'loaded': True, 'loadedTime': 5014, 'positionName': 'RIGHT', 'positionCoords': [609.96, 264.5], 'bid': 0.09}]",90973,1669830773917,salad w chicken,granola w milk,0.09,0.09,0.0,salad w chicken,1651,1663,1662,True,u,93149,2176,1669830776093,2176,HRV,HRV_0142,2022-11-30 17:57:03
47,"[{'imgObject': {}, 'id': 'bagel plain', 'src': '/static/foodstim60/bagel plain.jpg', 'key': 'u', 'origWidth': 410, 'origHeight': 410, 'width': 410, 'height': 410, 'widthPercent': 0.45, 'rescaleHeight': False, 'trialN': 47, 'loaded': True, 'loadedTime': 3781, 'positionName': 'LEFT', 'positionCoords': [153.04, 264.5], 'bid': 0}, {'imgObject': {}, 'id': 'corn cob', 'src': '/static/foodstim60/corn cob.jpg', 'key': 'i', 'origWidth': 411, 'origHeight': 411, 'width': 411, 'height': 411, 'widthPercent': 0.45, 'rescaleHeight': False, 'trialN': 47, 'loaded': True, 'loadedTime': 3497, 'positionName': 'RIGHT', 'positionCoords': [609.96, 264], 'bid': 0.01}]",93154,1669830776098,bagel plain,corn cob,0.0,0.01,0.01,corn cob,1235,1249,1250,True,i,94909,1755,1669830777853,1755,HRV,HRV_0142,2022-11-30 17:57:03
48,"[{'imgObject': {}, 'id': 'raspberries', 'src': '/static/foodstim60/raspberries.jpg', 'key': 'u', 'origWidth': 411, 'origHeight': 411, 'width': 411, 'height': 411, 'widthPercent': 0.45, 'rescaleHeight': False, 'trialN': 48, 'loaded': True, 'loadedTime': 3414, 'positionName': 'LEFT', 'positionCoords': [152.04, 264], 'bid': 0.06}, {'imgObject': {}, 'id': 'omelette', 'src': '/static/foodstim60/omelette.jpg', 'key': 'i', 'origWidth': 410, 'origHeight': 409, 'width': 410, 'height': 409, 'widthPercent': 0.45, 'rescaleHeight': False, 'trialN': 48, 'loaded': True, 'loadedTime': 5085, 'positionName': 'RIGHT', 'positionCoords': [609.96, 265], 'bid': 0.06}]",94914,1669830777858,raspberries,omelette,0.06,0.06,0.0,omelette,1131,1146,1146,True,i,96564,1650,1669830779507,1649,HRV,HRV_0142,2022-11-30 17:57:03
49,"[{'imgObject': {}, 'id': 'turkey sandwich', 'src': '/static/foodstim60/turkey sandwich.jpg', 'key': 'u', 'origWidth': 409, 'origHeight': 409, 'width': 409, 'height': 409, 'widthPercent': 0.45, 'rescaleHeight': False, 'trialN': 49, 'loaded': True, 'loadedTime': 3359, 'positionName': 'LEFT', 'positionCoords': [154.04, 265], 'bid': 5.6000000000000005}, {'imgObject': {}, 'id': 'popsicles', 'src': '/static/foodstim60/popsicles.jpg', 'key': 'i', 'origWidth': 410, 'origHeight': 410, 'width': 410, 'height': 410, 'widthPercent': 0.45, 'rescaleHeight': False, 'trialN': 49, 'loaded': True, 'loadedTime': 4860, 'positionName': 'RIGHT', 'positionCoords': [609.96, 264.5], 'bid': 0.14}]",96568,1669830779512,turkey sandwich,popsicles,5.6000000000000005,0.14,-5.460000000000001,turkey sandwich,821,831,832,True,u,97906,1338,1669830780850,1338,HRV,HRV_0142,2022-11-30 17:57:03
50,"[{'imgObject': {}, 'id': 'omelette', 'src': '/static/foodstim60/omelette.jpg', 'key': 'u', 'origWidth': 410, 'origHeight': 409, 'width': 410, 'height': 409, 'widthPercent': 0.45, 'rescaleHeight': False, 'trialN': 50, 'loaded': True, 'loadedTime': 5095, 'positionName': 'LEFT', 'positionCoords': [153.04, 265], 'bid': 0.06}, {'imgObject': {}, 'id': 'sweetpotato', 'src': '/static/foodstim60/sweetpotato.jpg', 'key': 'i', 'origWidth': 410, 'origHeight': 410, 'width': 410, 'height': 410, 'widthPercent': 0.45, 'rescaleHeight': False, 'trialN': 50, 'loaded': True, 'loadedTime': 4751, 'positionName': 'RIGHT', 'positionCoords': [609.96, 264.5], 'bid': 0.04}]",97910,1669830780854,omelette,sweetpotato,0.06,0.04,-0.019999999999999997,sweetpotato,1167,1174,1174,True,i,99589,1679,1669830782533,1679,HRV,HRV_0142,2022-11-30 17:57:03
51,"[{'imgObject': {}, 'id': 'ice cream sundae 002', 'src': '/static/foodstim60/ice cream sundae 002.jpg', 'key': 'u', 'origWidth': 409, 'origHeight': 409, 'width': 409, 'height': 409, 'widthPercent': 0.45, 'rescaleHeight': False, 'trialN': 51, 'loaded': True, 'loadedTime': 2909, 'positionName': 'LEFT', 'positionCoords': [154.04, 265], 'bid': 5.16}, {'imgObject': {}, 'id': 'roastedpotatoes', 'src': '/static/foodstim60/roastedpotatoes.jpg', 'key': 'i', 'origWidth': 409, 'origHeight': 410, 'width': 409, 'height': 410, 'widthPercent': 0.45, 'rescaleHeight': False, 'trialN': 51, 'loaded': True, 'loadedTime': 3937, 'positionName': 'RIGHT', 'positionCoords': [609.96, 264.5], 'bid': 6.32}]",99594,1669830782538,ice cream sundae 002,roastedpotatoes,5.16,6.32,1.1600000000000001,roastedpotatoes,1155,1170,1170,True,i,101274,1680,1669830784218,1680,HRV,HRV_0142,2022-11-30 17:57:03
52,"[{'imgObject': {}, 'id': 'fruitsalad', 'src': '/static/foodstim60/fruitsalad.jpg', 'key': 'u', 'origWidth': 410, 'origHeight': 410, 'width': 410, 'height': 410, 'widthPercent': 0.45, 'rescaleHeight': False, 'trialN': 52, 'loaded': True, 'loadedTime': 3822, 'positionName': 'LEFT', 'positionCoords': [153.04, 264.5], 'bid': 0.04}, {'imgObject': {}, 'id': 'blueberries', 'src': '/static/foodstim60/blueberries.jpg', 'key': 'i', 'origWidth': 411, 'origHeight': 411, 'width': 411, 'height': 411, 'widthPercent': 0.45, 'rescaleHeight': False, 'trialN': 52, 'loaded': True, 'loadedTime': 3570, 'positionName': 'RIGHT', 'positionCoords': [609.96, 264], 'bid': 0.06}]",101279,1669830784223,fruitsalad,blueberries,0.04,0.06,0.019999999999999997,fruitsalad,1470,1485,1485,True,u,103268,1989,1669830786211,1988,HRV,HRV_0142,2022-11-30 17:57:03
53,"[{'imgObject': {}, 'id': 'raisin bran w milk', 'src': '/static/foodstim60/raisin bran w milk.jpg', 'key': 'u', 'origWidth': 411, 'origHeight': 411, 'width': 411, 'height': 411, 'widthPercent': 0.45, 'rescaleHeight': False, 'trialN': 53, 'loaded': True, 'loadedTime': 2860, 'positionName': 'LEFT', 'positionCoords': [152.04, 264], 'bid': 0}, {'imgObject': {}, 'id': 'mashed potato', 'src': '/static/foodstim60/mashed potato.jpg', 'key': 'i', 'origWidth': 409, 'origHeight': 409, 'width': 409, 'height': 409, 'widthPercent': 0.45, 'rescaleHeight': False, 'trialN': 53, 'loaded': True, 'loadedTime': 5154, 'positionName': 'RIGHT', 'positionCoords': [609.96, 265], 'bid': 0.01}]",103275,1669830786218,raisin bran w milk,mashed potato,0.0,0.01,0.01,mashed potato,1192,1202,1201,True,i,104980,1705,1669830787923,1705,HRV,HRV_0142,2022-11-30 17:57:03
54,"[{'imgObject': {}, 'id': 'veggieswithdip', 'src': '/static/foodstim60/veggieswithdip.jpg', 'key': 'u', 'origWidth': 409, 'origHeight': 409, 'width': 409, 'height': 409, 'widthPercent': 0.45, 'rescaleHeight': False, 'trialN': 54, 'loaded': True, 'loadedTime': 3070, 'positionName': 'LEFT', 'positionCoords': [154.04, 265], 'bid': 0.02}, {'imgObject': {}, 'id': 'seaweed', 'src': '/static/foodstim60/seaweed.jpg', 'key': 'i', 'origWidth': 410, 'origHeight': 410, 'width': 410, 'height': 410, 'widthPercent': 0.45, 'rescaleHeight': False, 'trialN': 54, 'loaded': True, 'loadedTime': 3115, 'positionName': 'RIGHT', 'positionCoords': [609.96, 264.5], 'bid': 0.08}]",104985,1669830787928,veggieswithdip,seaweed,0.02,0.08,0.06,veggieswithdip,1014,1028,1027,True,u,106519,1534,1669830789462,1534,HRV,HRV_0142,2022-11-30 17:57:03
55,"[{'imgObject': {}, 'id': 'olives', 'src': '/static/foodstim60/olives.jpg', 'key': 'u', 'origWidth': 410, 'origHeight': 410, 'width': 410, 'height': 410, 'widthPercent': 0.45, 'rescaleHeight': False, 'trialN': 55, 'loaded': True, 'loadedTime': 4599, 'positionName': 'LEFT', 'positionCoords': [153.04, 264.5], 'bid': 0}, {'imgObject': {}, 'id': 'froot loops w milk', 'src': '/static/foodstim60/froot loops w milk.jpg', 'key': 'i', 'origWidth': 410, 'origHeight': 410, 'width': 410, 'height': 410, 'widthPercent': 0.45, 'rescaleHeight': False, 'trialN': 55, 'loaded': True, 'loadedTime': 5191, 'positionName': 'RIGHT', 'positionCoords': [609.96, 264.5], 'bid': 0}]",106523,1669830789467,olives,froot loops w milk,0.0,0.0,0.0,froot loops w milk,1632,1640,1641,True,i,108677,2154,1669830791620,2153,HRV,HRV_0142,2022-11-30 17:57:03
56,"[{'imgObject': {}, 'id': 'corn cob', 'src': '/static/foodstim60/corn cob.jpg', 'key': 'u', 'origWidth': 411, 'origHeight': 411, 'width': 411, 'height': 411, 'widthPercent': 0.45, 'rescaleHeight': False, 'trialN': 56, 'loaded': True, 'loadedTime': 3504, 'positionName': 'LEFT', 'positionCoords': [152.04, 264], 'bid': 0.01}, {'imgObject': {}, 'id': 'orange slices', 'src': '/static/foodstim60/orange slices.jpg', 'key': 'i', 'origWidth': 409, 'origHeight': 410, 'width': 409, 'height': 410, 'widthPercent': 0.45, 'rescaleHeight': False, 'trialN': 56, 'loaded': True, 'loadedTime': 2766, 'positionName': 'RIGHT', 'positionCoords': [609.96, 264.5], 'bid': 0.02}]",108689,1669830791633,corn cob,orange slices,0.01,0.02,0.01,corn cob,1325,1339,1339,True,u,110538,1849,1669830793481,1848,HRV,HRV_0142,2022-11-30 17:57:03
57,"[{'imgObject': {}, 'id': 'luckycharms', 'src': '/static/foodstim60/luckycharms.jpg', 'key': 'u', 'origWidth': 410, 'origHeight': 409, 'width': 410, 'height': 409, 'widthPercent': 0.45, 'rescaleHeight': False, 'trialN': 57, 'loaded': True, 'loadedTime': 4304, 'positionName': 'LEFT', 'positionCoords': [153.04, 265], 'bid': 0.08}, {'imgObject': {}, 'id': 'hashbrowns', 'src': '/static/foodstim60/hashbrowns.jpg', 'key': 'i', 'origWidth': 411, 'origHeight': 410, 'width': 411, 'height': 410, 'widthPercent': 0.45, 'rescaleHeight': False, 'trialN': 57, 'loaded': True, 'loadedTime': 2990, 'positionName': 'RIGHT', 'positionCoords': [609.96, 264.5], 'bid': 0.09}]",110542,1669830793486,luckycharms,hashbrowns,0.08,0.09,0.009999999999999995,luckycharms,1488,1493,1494,True,u,112551,2009,1669830795495,2009,HRV,HRV_0142,2022-11-30 17:57:03
58,"[{'imgObject': {}, 'id': 'Tribe humus pita', 'src': '/static/foodstim60/Tribe humus pita.jpg', 'key': 'u', 'origWidth': 411, 'origHeight': 411, 'width': 411, 'height': 411, 'widthPercent': 0.45, 'rescaleHeight': False, 'trialN': 58, 'loaded': True, 'loadedTime': 3273, 'positionName': 'LEFT', 'positionCoords': [152.04, 264], 'bid': 0.08}, {'imgObject': {}, 'id': 'bagel and cc', 'src': '/static/foodstim60/bagel and cc.jpg', 'key': 'i', 'origWidth': 410, 'origHeight': 410, 'width': 410, 'height': 410, 'widthPercent': 0.45, 'rescaleHeight': False, 'trialN': 58, 'loaded': True, 'loadedTime': 2738, 'positionName': 'RIGHT', 'positionCoords': [609.96, 264.5], 'bid': 0.11}]",112565,1669830795509,Tribe humus pita,bagel and cc,0.08,0.11,0.03,bagel and cc,1574,1591,1591,True,i,114661,2096,1669830797605,2096,HRV,HRV_0142,2022-11-30 17:57:03
59,"[{'imgObject': {}, 'id': 'shreddedwheatwithmilk', 'src': '/static/foodstim60/shreddedwheatwithmilk.jpg', 'key': 'u', 'origWidth': 410, 'origHeight': 410, 'width': 410, 'height': 410, 'widthPercent': 0.45, 'rescaleHeight': False, 'trialN': 59, 'loaded': True, 'loadedTime': 4548, 'positionName': 'LEFT', 'positionCoords': [153.04, 264.5], 'bid': 0.09}, {'imgObject': {}, 'id': 'hashbrowns', 'src': '/static/foodstim60/hashbrowns.jpg', 'key': 'i', 'origWidth': 411, 'origHeight': 410, 'width': 411, 'height': 410, 'widthPercent': 0.45, 'rescaleHeight': False, 'trialN': 59, 'loaded': True, 'loadedTime': 2995, 'positionName': 'RIGHT', 'positionCoords': [609.96, 264.5], 'bid': 0.09}]",114665,1669830797609,shreddedwheatwithmilk,hashbrowns,0.09,0.09,0.0,shreddedwheatwithmilk,1678,1691,1691,True,u,116868,2203,1669830799810,2201,HRV,HRV_0142,2022-11-30 17:57:03
60,"[{'imgObject': {}, 'id': 'cantaloupe', 'src': '/static/foodstim60/cantaloupe.jpg', 'key': 'u', 'origWidth': 409, 'origHeight': 409, 'width': 409, 'height': 409, 'widthPercent': 0.45, 'rescaleHeight': False, 'trialN': 60, 'loaded': True, 'loadedTime': 4360, 'positionName': 'LEFT', 'positionCoords': [154.04, 265], 'bid': 0}, {'imgObject': {}, 'id': 'cheerios', 'src': '/static/foodstim60/cheerios.jpg', 'key': 'i', 'origWidth': 409, 'origHeight': 410, 'width': 409, 'height': 410, 'widthPercent': 0.45, 'rescaleHeight': False, 'trialN': 60, 'loaded': True, 'loadedTime': 2880, 'positionName': 'RIGHT', 'positionCoords': [609.96, 264.5], 'bid': 0}]",116879,1669830799823,cantaloupe,cheerios,0.0,0.0,0.0,cheerios,1604,1612,1613,True,i,118996,2117,1669830801940,2117,HRV,HRV_0142,2022-11-30 17:57:03
61,"[{'imgObject': {}, 'id': 'blackbeanswithrice', 'src': '/static/foodstim60/blackbeanswithrice.jpg', 'key': 'u', 'origWidth': 410, 'origHeight': 410, 'width': 410, 'height': 410, 'widthPercent': 0.45, 'rescaleHeight': False, 'trialN': 61, 'loaded': True, 'loadedTime': 4892, 'positionName': 'LEFT', 'positionCoords': [153.04, 264.5], 'bid': 0}, {'imgObject': {}, 'id': 'veggieswithdip', 'src': '/static/foodstim60/veggieswithdip.jpg', 'key': 'i', 'origWidth': 409, 'origHeight': 409, 'width': 409, 'height': 409, 'widthPercent': 0.45, 'rescaleHeight': False, 'trialN': 61, 'loaded': True, 'loadedTime': 3076, 'positionName': 'RIGHT', 'positionCoords': [609.96, 265], 'bid': 0.02}]",119001,1669830801944,blackbeanswithrice,veggieswithdip,0.0,0.02,0.02,veggieswithdip,1075,1092,1091,True,i,120604,1603,1669830803548,1604,HRV,HRV_0142,2022-11-30 17:57:03
62,"[{'imgObject': {}, 'id': 'hotdog w must', 'src': '/static/foodstim60/hotdog w must.jpg', 'key': 'u', 'origWidth': 409, 'origHeight': 409, 'width': 409, 'height': 409, 'widthPercent': 0.45, 'rescaleHeight': False, 'trialN': 62, 'loaded': True, 'loadedTime': 3177, 'positionName': 'LEFT', 'positionCoords': [154.04, 265], 'bid': 5.57}, {'imgObject': {}, 'id': 'steak', 'src': '/static/foodstim60/steak.jpg', 'key': 'i', 'origWidth': 410, 'origHeight': 410, 'width': 410, 'height': 410, 'widthPercent': 0.45, 'rescaleHeight': False, 'trialN': 62, 'loaded': True, 'loadedTime': 3337, 'positionName': 'RIGHT', 'positionCoords': [609.96, 264.5], 'bid': 9.95}]",120610,1669830803554,hotdog w must,steak,5.57,9.95,4.379999999999999,steak,1029,1034,1034,True,i,122147,1537,1669830805091,1537,HRV,HRV_0142,2022-11-30 17:57:03
63,"[{'imgObject': {}, 'id': 'salad w chicken', 'src': '/static/foodstim60/salad w chicken.jpg', 'key': 'u', 'origWidth': 411, 'origHeight': 411, 'width': 411, 'height': 411, 'widthPercent': 0.45, 'rescaleHeight': False, 'trialN': 63, 'loaded': True, 'loadedTime': 4997, 'positionName': 'LEFT', 'positionCoords': [152.04, 264], 'bid': 0.09}, {'imgObject': {}, 'id': 'ice cream sundae 002', 'src': '/static/foodstim60/ice cream sundae 002.jpg', 'key': 'i', 'origWidth': 409, 'origHeight': 409, 'width': 409, 'height': 409, 'widthPercent': 0.45, 'rescaleHeight': False, 'trialN': 63, 'loaded': True, 'loadedTime': 2914, 'positionName': 'RIGHT', 'positionCoords': [609.96, 265], 'bid': 5.16}]",122152,1669830805095,salad w chicken,ice cream sundae 002,0.09,5.16,5.07,ice cream sundae 002,1191,1205,1204,True,i,123870,1718,1669830806814,1719,HRV,HRV_0142,2022-11-30 17:57:03
64,"[{'imgObject': {}, 'id': 'omelette', 'src': '/static/foodstim60/omelette.jpg', 'key': 'u', 'origWidth': 410, 'origHeight': 409, 'width': 410, 'height': 409, 'widthPercent': 0.45, 'rescaleHeight': False, 'trialN': 64, 'loaded': True, 'loadedTime': 5100, 'positionName': 'LEFT', 'positionCoords': [153.04, 265], 'bid': 0.06}, {'imgObject': {}, 'id': 'baked potato', 'src': '/static/foodstim60/baked potato.jpg', 'key': 'i', 'origWidth': 409, 'origHeight': 410, 'width': 409, 'height': 410, 'widthPercent': 0.45, 'rescaleHeight': False, 'trialN': 64, 'loaded': True, 'loadedTime': 4943, 'positionName': 'RIGHT', 'positionCoords': [609.96, 264.5], 'bid': 5.65}]",123875,1669830806819,omelette,baked potato,0.06,5.65,5.590000000000001,baked potato,1045,1056,1057,True,i,125448,1573,1669830808392,1573,HRV,HRV_0142,2022-11-30 17:57:03
65,"[{'imgObject': {}, 'id': 'baked potato', 'src': '/static/foodstim60/baked potato.jpg', 'key': 'u', 'origWidth': 409, 'origHeight': 410, 'width': 409, 'height': 410, 'widthPercent': 0.45, 'rescaleHeight': False, 'trialN': 65, 'loaded': True, 'loadedTime': 4957, 'positionName': 'LEFT', 'positionCoords': [154.04, 264.5], 'bid': 5.65}, {'imgObject': {}, 'id': 'Grapes', 'src': '/static/foodstim60/Grapes.jpg', 'key': 'i', 'origWidth': 411, 'origHeight': 411, 'width': 411, 'height': 411, 'widthPercent': 0.45, 'rescaleHeight': False, 'trialN': 65, 'loaded': True, 'loadedTime': 4182, 'positionName': 'RIGHT', 'positionCoords': [609.96, 264], 'bid': 0.09}]",125453,1669830808397,baked potato,Grapes,5.65,0.09,-5.5600000000000005,baked potato,921,927,927,True,u,126890,1437,1669830809834,1437,HRV,HRV_0142,2022-11-30 17:57:03
66,"[{'imgObject': {}, 'id': 'eggs', 'src': '/static/foodstim60/eggs.jpg', 'key': 'u', 'origWidth': 409, 'origHeight': 409, 'width': 409, 'height': 409, 'widthPercent': 0.45, 'rescaleHeight': False, 'trialN': 66, 'loaded': True, 'loadedTime': 4037, 'positionName': 'LEFT', 'positionCoords': [154.04, 265], 'bid': 6.0600000000000005}, {'imgObject': {}, 'id': 'steak', 'src': '/static/foodstim60/steak.jpg', 'key': 'i', 'origWidth': 410, 'origHeight': 410, 'width': 410, 'height': 410, 'widthPercent': 0.45, 'rescaleHeight': False, 'trialN': 66, 'loaded': True, 'loadedTime': 3339, 'positionName': 'RIGHT', 'positionCoords': [609.96, 264.5], 'bid': 9.95}]",126894,1669830809838,eggs,steak,6.0600000000000005,9.95,3.889999999999999,steak,1105,1110,1110,True,i,128520,1626,1669830811464,1626,HRV,HRV_0142,2022-11-30 17:57:03
67,"[{'imgObject': {}, 'id': 'bagel and cc', 'src': '/static/foodstim60/bagel and cc.jpg', 'key': 'u', 'origWidth': 410, 'origHeight': 410, 'width': 410, 'height': 410, 'widthPercent': 0.45, 'rescaleHeight': False, 'trialN': 67, 'loaded': True, 'loadedTime': 2744, 'positionName': 'LEFT', 'positionCoords': [153.04, 264.5], 'bid': 0.11}, {'imgObject': {}, 'id': 'eggs', 'src': '/static/foodstim60/eggs.jpg', 'key': 'i', 'origWidth': 409, 'origHeight': 409, 'width': 409, 'height': 409, 'widthPercent': 0.45, 'rescaleHeight': False, 'trialN': 67, 'loaded': True, 'loadedTime': 4041, 'positionName': 'RIGHT', 'positionCoords': [609.96, 265], 'bid': 6.0600000000000005}]",128534,1669830811477,bagel and cc,eggs,0.11,6.0600000000000005,5.95,eggs,1136,1150,1150,True,i,130196,1662,1669830813140,1663,HRV,HRV_0142,2022-11-30 17:57:03
68,"[{'imgObject': {}, 'id': 'edamame', 'src': '/static/foodstim60/edamame.jpg', 'key': 'u', 'origWidth': 409, 'origHeight': 410, 'width': 409, 'height': 410, 'widthPercent': 0.45, 'rescaleHeight': False, 'trialN': 68, 'loaded': True, 'loadedTime': 5263, 'positionName': 'LEFT', 'positionCoords': [154.04, 264.5], 'bid': 0.04}, {'imgObject': {}, 'id': 'banana', 'src': '/static/foodstim60/banana.jpg', 'key': 'i', 'origWidth': 410, 'origHeight': 410, 'width': 410, 'height': 410, 'widthPercent': 0.45, 'rescaleHeight': False, 'trialN': 68, 'loaded': True, 'loadedTime': 3297, 'positionName': 'RIGHT', 'positionCoords': [609.96, 264.5], 'bid': 0.06}]",130202,1669830813145,edamame,banana,0.04,0.06,0.019999999999999997,banana,1312,1323,1322,True,i,132033,1831,1669830814977,1832,HRV,HRV_0142,2022-11-30 17:57:03
69,"[{'imgObject': {}, 'id': 'seaweed', 'src': '/static/foodstim60/seaweed.jpg', 'key': 'u', 'origWidth': 410, 'origHeight': 410, 'width': 410, 'height': 410, 'widthPercent': 0.45, 'rescaleHeight': False, 'trialN': 69, 'loaded': True, 'loadedTime': 3117, 'positionName': 'LEFT', 'positionCoords': [153.04, 264.5], 'bid': 0.08}, {'imgObject': {}, 'id': 'fried eggs', 'src': '/static/foodstim60/fried eggs.jpg', 'key': 'i', 'origWidth': 410, 'origHeight': 410, 'width': 410, 'height': 410, 'widthPercent': 0.45, 'rescaleHeight': False, 'trialN': 69, 'loaded': True, 'loadedTime': 4905, 'positionName': 'RIGHT', 'positionCoords': [609.96, 264.5], 'bid': 7.24}]",132038,1669830814981,seaweed,fried eggs,0.08,7.24,7.16,fried eggs,945,958,958,True,i,133502,1464,1669830816447,1466,HRV,HRV_0142,2022-11-30 17:57:03
70,"[{'imgObject': {}, 'id': 'sweetpotato', 'src': '/static/foodstim60/sweetpotato.jpg', 'key': 'u', 'origWidth': 410, 'origHeight': 410, 'width': 410, 'height': 410, 'widthPercent': 0.45, 'rescaleHeight': False, 'trialN': 70, 'loaded': True, 'loadedTime': 4756, 'positionName': 'LEFT', 'positionCoords': [153.04, 264.5], 'bid': 0.04}, {'imgObject': {}, 'id': 'lox', 'src': '/static/foodstim60/lox.jpg', 'key': 'i', 'origWidth': 410, 'origHeight': 411, 'width': 410, 'height': 411, 'widthPercent': 0.45, 'rescaleHeight': False, 'trialN': 70, 'loaded': True, 'loadedTime': 3256, 'positionName': 'RIGHT', 'positionCoords': [609.96, 264], 'bid': 0.02}]",133507,1669830816451,sweetpotato,lox,0.04,0.02,-0.02,sweetpotato,1054,1057,1057,True,u,135065,1558,1669830818010,1559,HRV,HRV_0142,2022-11-30 17:57:03
71,"[{'imgObject': {}, 'id': 'cantaloupe', 'src': '/static/foodstim60/cantaloupe.jpg', 'key': 'u', 'origWidth': 409, 'origHeight': 409, 'width': 409, 'height': 409, 'widthPercent': 0.45, 'rescaleHeight': False, 'trialN': 71, 'loaded': True, 'loadedTime': 4361, 'positionName': 'LEFT', 'positionCoords': [154.04, 265], 'bid': 0}, {'imgObject': {}, 'id': 'kiwi', 'src': '/static/foodstim60/kiwi.jpg', 'key': 'i', 'origWidth': 410, 'origHeight': 410, 'width': 410, 'height': 410, 'widthPercent': 0.45, 'rescaleHeight': False, 'trialN': 71, 'loaded': True, 'loadedTime': 3139, 'positionName': 'RIGHT', 'positionCoords': [609.96, 264.5], 'bid': 0.11}]",135070,1669830818014,cantaloupe,kiwi,0.0,0.11,0.11,cantaloupe,1240,1253,1254,True,u,136834,1764,1669830819778,1764,HRV,HRV_0142,2022-11-30 17:57:03
72,"[{'imgObject': {}, 'id': 'apple slices', 'src': '/static/foodstim60/apple slices.jpg', 'key': 'u', 'origWidth': 409, 'origHeight': 410, 'width': 409, 'height': 410, 'widthPercent': 0.45, 'rescaleHeight': False, 'trialN': 72, 'loaded': True, 'loadedTime': 3606, 'positionName': 'LEFT', 'positionCoords': [154.04, 264.5], 'bid': 0.2}, {'imgObject': {}, 'id': 'burger', 'src': '/static/foodstim60/burger.jpg', 'key': 'i', 'origWidth': 409, 'origHeight': 409, 'width': 409, 'height': 409, 'widthPercent': 0.45, 'rescaleHeight': False, 'trialN': 72, 'loaded': True, 'loadedTime': 3672, 'positionName': 'RIGHT', 'positionCoords': [609.96, 265], 'bid': 7.49}]",136839,1669830819783,apple slices,burger,0.2,7.49,7.29,burger,1066,1077,1077,True,i,138424,1585,1669830821368,1585,HRV,HRV_0142,2022-11-30 17:57:03
73,"[{'imgObject': {}, 'id': 'sushi w_condiments', 'src': '/static/foodstim60/sushi w_condiments.jpg', 'key': 'u', 'origWidth': 410, 'origHeight': 410, 'width': 410, 'height': 410, 'widthPercent': 0.45, 'rescaleHeight': False, 'trialN': 73, 'loaded': True, 'loadedTime': 4401, 'positionName': 'LEFT', 'positionCoords': [153.04, 264.5], 'bid': 0}, {'imgObject': {}, 'id': 'salad w chicken', 'src': '/static/foodstim60/salad w chicken.jpg', 'key': 'i', 'origWidth': 411, 'origHeight': 411, 'width': 411, 'height': 411, 'widthPercent': 0.45, 'rescaleHeight': False, 'trialN': 73, 'loaded': True, 'loadedTime': 4999, 'positionName': 'RIGHT', 'positionCoords': [609.96, 264], 'bid': 0.09}]",138430,1669830821374,sushi w_condiments,salad w chicken,0.0,0.09,0.09,salad w chicken,1349,1365,1365,True,i,140303,1873,1669830823246,1872,HRV,HRV_0142,2022-11-30 17:57:03
74,"[{'imgObject': {}, 'id': 'turkeysandwich', 'src': '/static/foodstim60/turkeysandwich.jpg', 'key': 'u', 'origWidth': 409, 'origHeight': 409, 'width': 409, 'height': 409, 'widthPercent': 0.45, 'rescaleHeight': False, 'trialN': 74, 'loaded': True, 'loadedTime': 5348, 'positionName': 'LEFT', 'positionCoords': [154.04, 265], 'bid': 5.38}, {'imgObject': {}, 'id': 'fruitsalad', 'src': '/static/foodstim60/fruitsalad.jpg', 'key': 'i', 'origWidth': 410, 'origHeight': 410, 'width': 410, 'height': 410, 'widthPercent': 0.45, 'rescaleHeight': False, 'trialN': 74, 'loaded': True, 'loadedTime': 3823, 'positionName': 'RIGHT', 'positionCoords': [609.96, 264.5], 'bid': 0.04}]",140307,1669830823251,turkeysandwich,fruitsalad,5.38,0.04,-5.34,turkeysandwich,1004,1017,1017,True,u,141836,1529,1669830824780,1529,HRV,HRV_0142,2022-11-30 17:57:03
75,"[{'imgObject': {}, 'id': 'chickenfingers', 'src': '/static/foodstim60/chickenfingers.jpg', 'key': 'u', 'origWidth': 410, 'origHeight': 410, 'width': 410, 'height': 410, 'widthPercent': 0.45, 'rescaleHeight': False, 'trialN': 75, 'loaded': True, 'loadedTime': 3212, 'positionName': 'LEFT', 'positionCoords': [153.04, 264.5], 'bid': 6.2700000000000005}, {'imgObject': {}, 'id': 'tacos', 'src': '/static/foodstim60/tacos.jpg', 'key': 'i', 'origWidth': 411, 'origHeight': 411, 'width': 411, 'height': 411, 'widthPercent': 0.45, 'rescaleHeight': False, 'trialN': 75, 'loaded': True, 'loadedTime': 4965, 'positionName': 'RIGHT', 'positionCoords': [609.96, 264], 'bid': 0.08}]",141841,1669830824785,chickenfingers,tacos,6.2700000000000005,0.08,-6.19,chickenfingers,908,915,915,True,u,143260,1419,1669830826204,1419,HRV,HRV_0142,2022-11-30 17:57:03
76,"[{'imgObject': {}, 'id': 'kiwi', 'src': '/static/foodstim60/kiwi.jpg', 'key': 'u', 'origWidth': 410, 'origHeight': 410, 'width': 410, 'height': 410, 'widthPercent': 0.45, 'rescaleHeight': False, 'trialN': 76, 'loaded': True, 'loadedTime': 3145, 'positionName': 'LEFT', 'positionCoords': [153.04, 264.5], 'bid': 0.11}, {'imgObject': {}, 'id': 'apple slices', 'src': '/static/foodstim60/apple slices.jpg', 'key': 'i', 'origWidth': 409, 'origHeight': 410, 'width': 409, 'height': 410, 'widthPercent': 0.45, 'rescaleHeight': False, 'trialN': 76, 'loaded': True, 'loadedTime': 3622, 'positionName': 'RIGHT', 'positionCoords': [609.96, 264.5], 'bid': 0.2}]",143266,1669830826209,kiwi,apple slices,0.11,0.2,0.09000000000000001,apple slices,952,954,953,True,i,144723,1457,1669830827667,1458,HRV,HRV_0142,2022-11-30 17:57:03
77,"[{'imgObject': {}, 'id': 'rigatoni and sauce', 'src': '/static/foodstim60/rigatoni and sauce.jpg', 'key': 'u', 'origWidth': 410, 'origHeight': 411, 'width': 410, 'height': 411, 'widthPercent': 0.45, 'rescaleHeight': False, 'trialN': 77, 'loaded': True, 'loadedTime': 5361, 'positionName': 'LEFT', 'positionCoords': [153.04, 264], 'bid': 5.94}, {'imgObject': {}, 'id': 'banana', 'src': '/static/foodstim60/banana.jpg', 'key': 'i', 'origWidth': 410, 'origHeight': 410, 'width': 410, 'height': 410, 'widthPercent': 0.45, 'rescaleHeight': False, 'trialN': 77, 'loaded': True, 'loadedTime': 3303, 'positionName': 'RIGHT', 'positionCoords': [609.96, 264.5], 'bid': 0.06}]",144728,1669830827672,rigatoni and sauce,banana,5.94,0.06,-5.880000000000001,rigatoni and sauce,1161,1172,1171,True,u,146403,1675,1669830829346,1674,HRV,HRV_0142,2022-11-30 17:57:03
78,"[{'imgObject': {}, 'id': 'cocktailshrimp', 'src': '/static/foodstim60/cocktailshrimp.jpg', 'key': 'u', 'origWidth': 410, 'origHeight': 410, 'width': 410, 'height': 410, 'widthPercent': 0.45, 'rescaleHeight': False, 'trialN': 78, 'loaded': True, 'loadedTime': 4468, 'positionName': 'LEFT', 'positionCoords': [153.04, 264.5], 'bid': 0.09}, {'imgObject': {}, 'id': 'turkey sandwich', 'src': '/static/foodstim60/turkey sandwich.jpg', 'key': 'i', 'origWidth': 409, 'origHeight': 409, 'width': 409, 'height': 409, 'widthPercent': 0.45, 'rescaleHeight': False, 'trialN': 78, 'loaded': True, 'loadedTime': 3365, 'positionName': 'RIGHT', 'positionCoords': [609.96, 265], 'bid': 5.6000000000000005}]",146407,1669830829352,cocktailshrimp,turkey sandwich,0.09,5.6000000000000005,5.510000000000001,turkey sandwich,936,948,948,True,i,147864,1457,1669830830807,1455,HRV,HRV_0142,2022-11-30 17:57:03
79,"[{'imgObject': {}, 'id': 'baked potato', 'src': '/static/foodstim60/baked potato.jpg', 'key': 'u', 'origWidth': 409, 'origHeight': 410, 'width': 409, 'height': 410, 'widthPercent': 0.45, 'rescaleHeight': False, 'trialN': 79, 'loaded': True, 'loadedTime': 4958, 'positionName': 'LEFT', 'positionCoords': [154.04, 264.5], 'bid': 5.65}, {'imgObject': {}, 'id': 'turkey sandwich', 'src': '/static/foodstim60/turkey sandwich.jpg', 'key': 'i', 'origWidth': 409, 'origHeight': 409, 'width': 409, 'height': 409, 'widthPercent': 0.45, 'rescaleHeight': False, 'trialN': 79, 'loaded': True, 'loadedTime': 3372, 'positionName': 'RIGHT', 'positionCoords': [609.96, 265], 'bid': 5.6000000000000005}]",147868,1669830830812,baked potato,turkey sandwich,5.65,5.6000000000000005,-0.04999999999999982,turkey sandwich,1395,1408,1408,True,i,149783,1915,1669830832726,1914,HRV,HRV_0142,2022-11-30 17:57:03
80,"[{'imgObject': {}, 'id': 'eggsalad', 'src': '/static/foodstim60/eggsalad.jpg', 'key': 'u', 'origWidth': 410, 'origHeight': 409, 'width': 410, 'height': 409, 'widthPercent': 0.45, 'rescaleHeight': False, 'trialN': 80, 'loaded': True, 'loadedTime': 3520, 'positionName': 'LEFT', 'positionCoords': [153.04, 265], 'bid': 0.09}, {'imgObject': {}, 'id': 'cocktailshrimp', 'src': '/static/foodstim60/cocktailshrimp.jpg', 'key': 'i', 'origWidth': 410, 'origHeight': 410, 'width': 410, 'height': 410, 'widthPercent': 0.45, 'rescaleHeight': False, 'trialN': 80, 'loaded': True, 'loadedTime': 4491, 'positionName': 'RIGHT', 'positionCoords': [609.96, 264.5], 'bid': 0.09}]",149788,1669830832732,eggsalad,cocktailshrimp,0.09,0.09,0.0,eggsalad,1616,1624,1624,True,u,151916,2128,1669830834859,2127,HRV,HRV_0142,2022-11-30 17:57:03
81,"[{'imgObject': {}, 'id': 'corn cob', 'src': '/static/foodstim60/corn cob.jpg', 'key': 'u', 'origWidth': 411, 'origHeight': 411, 'width': 411, 'height': 411, 'widthPercent': 0.45, 'rescaleHeight': False, 'trialN': 81, 'loaded': True, 'loadedTime': 3505, 'positionName': 'LEFT', 'positionCoords': [152.04, 264], 'bid': 0.01}, {'imgObject': {}, 'id': 'cherries', 'src': '/static/foodstim60/cherries.jpg', 'key': 'i', 'origWidth': 410, 'origHeight': 411, 'width': 410, 'height': 411, 'widthPercent': 0.45, 'rescaleHeight': False, 'trialN': 81, 'loaded': True, 'loadedTime': 3019, 'positionName': 'RIGHT', 'positionCoords': [609.96, 264], 'bid': 0.13}]",151920,1669830834863,corn cob,cherries,0.01,0.13,0.12000000000000001,corn cob,860,877,876,True,u,153304,1384,1669830836247,1384,HRV,HRV_0142,2022-11-30 17:57:03
82,"[{'imgObject': {}, 'id': 'orange slices', 'src': '/static/foodstim60/orange slices.jpg', 'key': 'u', 'origWidth': 409, 'origHeight': 410, 'width': 409, 'height': 410, 'widthPercent': 0.45, 'rescaleHeight': False, 'trialN': 82, 'loaded': True, 'loadedTime': 2772, 'positionName': 'LEFT', 'positionCoords': [154.04, 264.5], 'bid': 0.02}, {'imgObject': {}, 'id': 'sushi w_condiments', 'src': '/static/foodstim60/sushi w_condiments.jpg', 'key': 'i', 'origWidth': 410, 'origHeight': 410, 'width': 410, 'height': 410, 'widthPercent': 0.45, 'rescaleHeight': False, 'trialN': 82, 'loaded': True, 'loadedTime': 4406, 'positionName': 'RIGHT', 'positionCoords': [609.96, 264.5], 'bid': 0}]",153317,1669830836261,orange slices,sushi w_condiments,0.02,0.0,-0.02,orange slices,1041,1055,1055,True,u,154882,1565,1669830837826,1565,HRV,HRV_0142,2022-11-30 17:57:03
83,"[{'imgObject': {}, 'id': 'hashbrowns', 'src': '/static/foodstim60/hashbrowns.jpg', 'key': 'u', 'origWidth': 411, 'origHeight': 410, 'width': 411, 'height': 410, 'widthPercent': 0.45, 'rescaleHeight': False, 'trialN': 83, 'loaded': True, 'loadedTime': 3001, 'positionName': 'LEFT', 'positionCoords': [152.04, 264.5], 'bid': 0.09}, {'imgObject': {}, 'id': 'blackbeanswithrice', 'src': '/static/foodstim60/blackbeanswithrice.jpg', 'key': 'i', 'origWidth': 410, 'origHeight': 410, 'width': 410, 'height': 410, 'widthPercent': 0.45, 'rescaleHeight': False, 'trialN': 83, 'loaded': True, 'loadedTime': 4894, 'positionName': 'RIGHT', 'positionCoords': [609.96, 264.5], 'bid': 0}]",154887,1669830837831,hashbrowns,blackbeanswithrice,0.09,0.0,-0.09,hashbrowns,1159,1173,1173,True,u,156576,1689,1669830839520,1689,HRV,HRV_0142,2022-11-30 17:57:03
84,"[{'imgObject': {}, 'id': 'hotdog w must', 'src': '/static/foodstim60/hotdog w must.jpg', 'key': 'u', 'origWidth': 409, 'origHeight': 409, 'width': 409, 'height': 409, 'widthPercent': 0.45, 'rescaleHeight': False, 'trialN': 84, 'loaded': True, 'loadedTime': 3184, 'positionName': 'LEFT', 'positionCoords': [154.04, 265], 'bid': 5.57}, {'imgObject': {}, 'id': 'shreddedwheatwithmilk', 'src': '/static/foodstim60/shreddedwheatwithmilk.jpg', 'key': 'i', 'origWidth': 410, 'origHeight': 410, 'width': 410, 'height': 410, 'widthPercent': 0.45, 'rescaleHeight': False, 'trialN': 84, 'loaded': True, 'loadedTime': 4549, 'positionName': 'RIGHT', 'positionCoords': [609.96, 264.5], 'bid': 0.09}]",156581,1669830839524,hotdog w must,shreddedwheatwithmilk,5.57,0.09,-5.48,hotdog w must,1011,1023,1023,True,u,158119,1538,1669830841062,1538,HRV,HRV_0142,2022-11-30 17:57:03
85,"[{'imgObject': {}, 'id': 'granola w milk', 'src': '/static/foodstim60/granola w milk.jpg', 'key': 'u', 'origWidth': 410, 'origHeight': 410, 'width': 410, 'height': 410, 'widthPercent': 0.45, 'rescaleHeight': False, 'trialN': 85, 'loaded': True, 'loadedTime': 5037, 'positionName': 'LEFT', 'positionCoords': [153.04, 264.5], 'bid': 0.09}, {'imgObject': {}, 'id': 'olives', 'src': '/static/foodstim60/olives.jpg', 'key': 'i', 'origWidth': 410, 'origHeight': 410, 'width': 410, 'height': 410, 'widthPercent': 0.45, 'rescaleHeight': False, 'trialN': 85, 'loaded': True, 'loadedTime': 4722, 'positionName': 'RIGHT', 'positionCoords': [609.96, 264.5], 'bid': 0}]",158124,1669830841067,granola w milk,olives,0.09,0.0,-0.09,olives,1156,1168,1168,True,i,159802,1678,1669830842746,1679,HRV,HRV_0142,2022-11-30 17:57:03
86,"[{'imgObject': {}, 'id': 'tacos', 'src': '/static/foodstim60/tacos.jpg', 'key': 'u', 'origWidth': 411, 'origHeight': 411, 'width': 411, 'height': 411, 'widthPercent': 0.45, 'rescaleHeight': False, 'trialN': 86, 'loaded': True, 'loadedTime': 4967, 'positionName': 'LEFT', 'positionCoords': [152.04, 264], 'bid': 0.08}, {'imgObject': {}, 'id': 'mashed potato', 'src': '/static/foodstim60/mashed potato.jpg', 'key': 'i', 'origWidth': 409, 'origHeight': 409, 'width': 409, 'height': 409, 'widthPercent': 0.45, 'rescaleHeight': False, 'trialN': 86, 'loaded': True, 'loadedTime': 5169, 'positionName': 'RIGHT', 'positionCoords': [609.96, 265], 'bid': 0.01}]",159807,1669830842750,tacos,mashed potato,0.08,0.01,-0.07,tacos,1441,1454,1453,True,u,161767,1960,1669830844711,1961,HRV,HRV_0142,2022-11-30 17:57:03
87,"[{'imgObject': {}, 'id': 'pear', 'src': '/static/foodstim60/pear.jpg', 'key': 'u', 'origWidth': 411, 'origHeight': 410, 'width': 411, 'height': 410, 'widthPercent': 0.45, 'rescaleHeight': False, 'trialN': 87, 'loaded': True, 'loadedTime': 3049, 'positionName': 'LEFT', 'positionCoords': [152.04, 264.5], 'bid': 0.09}, {'imgObject': {}, 'id': 'salad w chicken', 'src': '/static/foodstim60/salad w chicken.jpg', 'key': 'i', 'origWidth': 411, 'origHeight': 411, 'width': 411, 'height': 411, 'widthPercent': 0.45, 'rescaleHeight': False, 'trialN': 87, 'loaded': True, 'loadedTime': 5000, 'positionName': 'RIGHT', 'positionCoords': [609.96, 264], 'bid': 0.09}]",161772,1669830844715,pear,salad w chicken,0.09,0.09,0.0,salad w chicken,991,1009,1008,True,i,163287,1515,1669830846230,1515,HRV,HRV_0142,2022-11-30 17:57:03
88,"[{'imgObject': {}, 'id': 'raisin bran w milk', 'src': '/static/foodstim60/raisin bran w milk.jpg', 'key': 'u', 'origWidth': 411, 'origHeight': 411, 'width': 411, 'height': 411, 'widthPercent': 0.45, 'rescaleHeight': False, 'trialN': 88, 'loaded': True, 'loadedTime': 2866, 'positionName': 'LEFT', 'positionCoords': [152.04, 264], 'bid': 0}, {'imgObject': {}, 'id': 'shreddedwheatwithmilk', 'src': '/static/foodstim60/shreddedwheatwithmilk.jpg', 'key': 'i', 'origWidth': 410, 'origHeight': 410, 'width': 410, 'height': 410, 'widthPercent': 0.45, 'rescaleHeight': False, 'trialN': 88, 'loaded': True, 'loadedTime': 4550, 'positionName': 'RIGHT', 'positionCoords': [609.96, 264.5], 'bid': 0.09}]",163299,1669830846243,raisin bran w milk,shreddedwheatwithmilk,0.0,0.09,0.09,shreddedwheatwithmilk,1184,1193,1193,True,i,165001,1702,1669830847945,1702,HRV,HRV_0142,2022-11-30 17:57:03
89,"[{'imgObject': {}, 'id': 'yogurt no spoon', 'src': '/static/foodstim60/yogurt no spoon.jpg', 'key': 'u', 'origWidth': 411, 'origHeight': 410, 'width': 411, 'height': 410, 'widthPercent': 0.45, 'rescaleHeight': False, 'trialN': 89, 'loaded': True, 'loadedTime': 5378, 'positionName': 'LEFT', 'positionCoords': [152.04, 264.5], 'bid': 0.16}, {'imgObject': {}, 'id': 'rigatoni and sauce', 'src': '/static/foodstim60/rigatoni and sauce.jpg', 'key': 'i', 'origWidth': 410, 'origHeight': 411, 'width': 410, 'height': 411, 'widthPercent': 0.45, 'rescaleHeight': False, 'trialN': 89, 'loaded': True, 'loadedTime': 5365, 'positionName': 'RIGHT', 'positionCoords': [609.96, 264], 'bid': 5.94}]",165006,1669830847950,yogurt no spoon,rigatoni and sauce,0.16,5.94,5.78,rigatoni and sauce,961,965,966,True,i,166474,1468,1669830849417,1467,HRV,HRV_0142,2022-11-30 17:57:03
90,"[{'imgObject': {}, 'id': 'sushi w_condiments', 'src': '/static/foodstim60/sushi w_condiments.jpg', 'key': 'u', 'origWidth': 410, 'origHeight': 410, 'width': 410, 'height': 410, 'widthPercent': 0.45, 'rescaleHeight': False, 'trialN': 90, 'loaded': True, 'loadedTime': 4408, 'positionName': 'LEFT', 'positionCoords': [153.04, 264.5], 'bid': 0}, {'imgObject': {}, 'id': 'edamame', 'src': '/static/foodstim60/edamame.jpg', 'key': 'i', 'origWidth': 409, 'origHeight': 410, 'width': 409, 'height': 410, 'widthPercent': 0.45, 'rescaleHeight': False, 'trialN': 90, 'loaded': True, 'loadedTime': 5293, 'positionName': 'RIGHT', 'positionCoords': [609.96, 264.5], 'bid': 0.04}]",179187,1669830862131,sushi w_condiments,edamame,0.0,0.04,0.04,edamame,2406,2409,2410,True,i,182110,2923,1669830865053,2922,HRV,HRV_0142,2022-11-30 17:57:03
91,"[{'imgObject': {}, 'id': 'popsicles', 'src': '/static/foodstim60/popsicles.jpg', 'key': 'u', 'origWidth': 410, 'origHeight': 410, 'width': 410, 'height': 410, 'widthPercent': 0.45, 'rescaleHeight': False, 'trialN': 91, 'loaded': True, 'loadedTime': 4862, 'positionName': 'LEFT', 'positionCoords': [153.04, 264.5], 'bid': 0.14}, {'imgObject': {}, 'id': 'mashed potato', 'src': '/static/foodstim60/mashed potato.jpg', 'key': 'i', 'origWidth': 409, 'origHeight': 409, 'width': 409, 'height': 409, 'widthPercent': 0.45, 'rescaleHeight': False, 'trialN': 91, 'loaded': True, 'loadedTime': 5171, 'positionName': 'RIGHT', 'positionCoords': [609.96, 265], 'bid': 0.01}]",182114,1669830865058,popsicles,mashed potato,0.14,0.01,-0.13,mashed potato,1025,1028,1029,True,i,183651,1537,1669830866595,1537,HRV,HRV_0142,2022-11-30 17:57:03
92,"[{'imgObject': {}, 'id': 'avocado', 'src': '/static/foodstim60/avocado.jpg', 'key': 'u', 'origWidth': 409, 'origHeight': 409, 'width': 409, 'height': 409, 'widthPercent': 0.45, 'rescaleHeight': False, 'trialN': 92, 'loaded': True, 'loadedTime': 2714, 'positionName': 'LEFT', 'positionCoords': [154.04, 265], 'bid': 1.3}, {'imgObject': {}, 'id': 'ice cream sundae 002', 'src': '/static/foodstim60/ice cream sundae 002.jpg', 'key': 'i', 'origWidth': 409, 'origHeight': 409, 'width': 409, 'height': 409, 'widthPercent': 0.45, 'rescaleHeight': False, 'trialN': 92, 'loaded': True, 'loadedTime': 2920, 'positionName': 'RIGHT', 'positionCoords': [609.96, 265], 'bid': 5.16}]",183662,1669830866605,avocado,ice cream sundae 002,1.3,5.16,3.8600000000000003,avocado,1320,1336,1334,True,u,185503,1841,1669830868446,1841,HRV,HRV_0142,2022-11-30 17:57:03
93,"[{'imgObject': {}, 'id': 'pear', 'src': '/static/foodstim60/pear.jpg', 'key': 'u', 'origWidth': 411, 'origHeight': 410, 'width': 411, 'height': 410, 'widthPercent': 0.45, 'rescaleHeight': False, 'trialN': 93, 'loaded': True, 'loadedTime': 3053, 'positionName': 'LEFT', 'positionCoords': [152.04, 264.5], 'bid': 0.09}, {'imgObject': {}, 'id': 'Tribe humus pita', 'src': '/static/foodstim60/Tribe humus pita.jpg', 'key': 'i', 'origWidth': 411, 'origHeight': 411, 'width': 411, 'height': 411, 'widthPercent': 0.45, 'rescaleHeight': False, 'trialN': 93, 'loaded': True, 'loadedTime': 3274, 'positionName': 'RIGHT', 'positionCoords': [609.96, 264], 'bid': 0.08}]",185508,1669830868452,pear,Tribe humus pita,0.09,0.08,-0.009999999999999995,Tribe humus pita,1413,1415,1416,True,i,187428,1920,1669830870373,1921,HRV,HRV_0142,2022-11-30 17:57:03
94,"[{'imgObject': {}, 'id': 'roastedpotatoes', 'src': '/static/foodstim60/roastedpotatoes.jpg', 'key': 'u', 'origWidth': 409, 'origHeight': 410, 'width': 409, 'height': 410, 'widthPercent': 0.45, 'rescaleHeight': False, 'trialN': 94, 'loaded': True, 'loadedTime': 3946, 'positionName': 'LEFT', 'positionCoords': [154.04, 264.5], 'bid': 6.32}, {'imgObject': {}, 'id': 'fried eggs', 'src': '/static/foodstim60/fried eggs.jpg', 'key': 'i', 'origWidth': 410, 'origHeight': 410, 'width': 410, 'height': 410, 'widthPercent': 0.45, 'rescaleHeight': False, 'trialN': 94, 'loaded': True, 'loadedTime': 4907, 'positionName': 'RIGHT', 'positionCoords': [609.96, 264.5], 'bid': 7.24}]",187433,1669830870377,roastedpotatoes,fried eggs,6.32,7.24,0.9199999999999999,fried eggs,1925,1939,1939,True,i,189877,2444,1669830872820,2443,HRV,HRV_0142,2022-11-30 17:57:03
95,"[{'imgObject': {}, 'id': 'Grapes', 'src': '/static/foodstim60/Grapes.jpg', 'key': 'u', 'origWidth': 411, 'origHeight': 411, 'width': 411, 'height': 411, 'widthPercent': 0.45, 'rescaleHeight': False, 'trialN': 95, 'loaded': True, 'loadedTime': 4200, 'positionName': 'LEFT', 'positionCoords': [152.04, 264], 'bid': 0.09}, {'imgObject': {}, 'id': 'kiwi', 'src': '/static/foodstim60/kiwi.jpg', 'key': 'i', 'origWidth': 410, 'origHeight': 410, 'width': 410, 'height': 410, 'widthPercent': 0.45, 'rescaleHeight': False, 'trialN': 95, 'loaded': True, 'loadedTime': 3150, 'positionName': 'RIGHT', 'positionCoords': [609.96, 264.5], 'bid': 0.11}]",189882,1669830872825,Grapes,kiwi,0.09,0.11,0.020000000000000004,Grapes,1476,1490,1490,True,u,191880,1998,1669830874823,1998,HRV,HRV_0142,2022-11-30 17:57:03
96,"[{'imgObject': {}, 'id': 'rigatoni', 'src': '/static/foodstim60/rigatoni.jpg', 'key': 'u', 'origWidth': 411, 'origHeight': 411, 'width': 411, 'height': 411, 'widthPercent': 0.45, 'rescaleHeight': False, 'trialN': 96, 'loaded': True, 'loadedTime': 4380, 'positionName': 'LEFT', 'positionCoords': [152.04, 264], 'bid': 0.04}, {'imgObject': {}, 'id': 'blackbeanswithrice', 'src': '/static/foodstim60/blackbeanswithrice.jpg', 'key': 'i', 'origWidth': 410, 'origHeight': 410, 'width': 410, 'height': 410, 'widthPercent': 0.45, 'rescaleHeight': False, 'trialN': 96, 'loaded': True, 'loadedTime': 4895, 'positionName': 'RIGHT', 'positionCoords': [609.96, 264.5], 'bid': 0}]",191885,1669830874828,rigatoni,blackbeanswithrice,0.04,0.0,-0.04,rigatoni,1489,1496,1496,True,u,193885,2000,1669830876828,2000,HRV,HRV_0142,2022-11-30 17:57:03
97,"[{'imgObject': {}, 'id': 'salad w chicken', 'src': '/static/foodstim60/salad w chicken.jpg', 'key': 'u', 'origWidth': 411, 'origHeight': 411, 'width': 411, 'height': 411, 'widthPercent': 0.45, 'rescaleHeight': False, 'trialN': 97, 'loaded': True, 'loadedTime': 5002, 'positionName': 'LEFT', 'positionCoords': [152.04, 264], 'bid': 0.09}, {'imgObject': {}, 'id': 'tacos', 'src': '/static/foodstim60/tacos.jpg', 'key': 'i', 'origWidth': 411, 'origHeight': 411, 'width': 411, 'height': 411, 'widthPercent': 0.45, 'rescaleHeight': False, 'trialN': 97, 'loaded': True, 'loadedTime': 4972, 'positionName': 'RIGHT', 'positionCoords': [609.96, 264], 'bid': 0.08}]",193890,1669830876834,salad w chicken,tacos,0.09,0.08,-0.009999999999999995,tacos,1718,1730,1730,True,i,196137,2247,1669830879080,2246,HRV,HRV_0142,2022-11-30 17:57:03
98,"[{'imgObject': {}, 'id': 'burger', 'src': '/static/foodstim60/burger.jpg', 'key': 'u', 'origWidth': 409, 'origHeight': 409, 'width': 409, 'height': 409, 'widthPercent': 0.45, 'rescaleHeight': False, 'trialN': 98, 'loaded': True, 'loadedTime': 3673, 'positionName': 'LEFT', 'positionCoords': [154.04, 265], 'bid': 7.49}, {'imgObject': {}, 'id': 'Tribe humus pita', 'src': '/static/foodstim60/Tribe humus pita.jpg', 'key': 'i', 'origWidth': 411, 'origHeight': 411, 'width': 411, 'height': 411, 'widthPercent': 0.45, 'rescaleHeight': False, 'trialN': 98, 'loaded': True, 'loadedTime': 3276, 'positionName': 'RIGHT', 'positionCoords': [609.96, 264], 'bid': 0.08}]",196141,1669830879084,burger,Tribe humus pita,7.49,0.08,-7.41,burger,1513,1520,1520,True,u,198173,2032,1669830881117,2033,HRV,HRV_0142,2022-11-30 17:57:03
99,"[{'imgObject': {}, 'id': 'mac & cheese', 'src': '/static/foodstim60/mac & cheese.jpg', 'key': 'u', 'origWidth': 410, 'origHeight': 410, 'width': 410, 'height': 410, 'widthPercent': 0.45, 'rescaleHeight': False, 'trialN': 99, 'loaded': True, 'loadedTime': 5391, 'positionName': 'LEFT', 'positionCoords': [153.04, 264.5], 'bid': 4.78}, {'imgObject': {}, 'id': 'sweetpotato', 'src': '/static/foodstim60/sweetpotato.jpg', 'key': 'i', 'origWidth': 410, 'origHeight': 410, 'width': 410, 'height': 410, 'widthPercent': 0.45, 'rescaleHeight': False, 'trialN': 99, 'loaded': True, 'loadedTime': 4758, 'positionName': 'RIGHT', 'positionCoords': [609.96, 264.5], 'bid': 0.04}]",198179,1669830881122,mac & cheese,sweetpotato,4.78,0.04,-4.74,sweetpotato,1007,1010,1009,True,i,199698,1519,1669830882643,1521,HRV,HRV_0142,2022-11-30 17:57:03
100,"[{'imgObject': {}, 'id': 'salmon', 'src': '/static/foodstim60/salmon.jpg', 'key': 'u', 'origWidth': 410, 'origHeight': 409, 'width': 410, 'height': 409, 'widthPercent': 0.45, 'rescaleHeight': False, 'trialN': 100, 'loaded': True, 'loadedTime': 4111, 'positionName': 'LEFT', 'positionCoords': [153.04, 265], 'bid': 0.06}, {'imgObject': {}, 'id': 'eggsalad', 'src': '/static/foodstim60/eggsalad.jpg', 'key': 'i', 'origWidth': 410, 'origHeight': 409, 'width': 410, 'height': 409, 'widthPercent': 0.45, 'rescaleHeight': False, 'trialN': 100, 'loaded': True, 'loadedTime': 3524, 'positionName': 'RIGHT', 'positionCoords': [609.96, 265], 'bid': 0.09}]",199704,1669830882647,salmon,eggsalad,0.06,0.09,0.03,eggsalad,1185,1196,1196,True,i,201416,1712,1669830884359,1712,HRV,HRV_0142,2022-11-30 17:57:03
101,"[{'imgObject': {}, 'id': 'froot loops w milk', 'src': '/static/foodstim60/froot loops w milk.jpg', 'key': 'u', 'origWidth': 410, 'origHeight': 410, 'width': 410, 'height': 410, 'widthPercent': 0.45, 'rescaleHeight': False, 'trialN': 101, 'loaded': True, 'loadedTime': 5219, 'positionName': 'LEFT', 'positionCoords': [153.04, 264.5], 'bid': 0}, {'imgObject': {}, 'id': 'raisin bran w milk', 'src': '/static/foodstim60/raisin bran w milk.jpg', 'key': 'i', 'origWidth': 411, 'origHeight': 411, 'width': 411, 'height': 411, 'widthPercent': 0.45, 'rescaleHeight': False, 'trialN': 101, 'loaded': True, 'loadedTime': 2872, 'positionName': 'RIGHT', 'positionCoords': [609.96, 264], 'bid': 0}]",201422,1669830884365,froot loops w milk,raisin bran w milk,0.0,0.0,0.0,froot loops w milk,1046,1055,1054,True,u,202992,1570,1669830885935,1570,HRV,HRV_0142,2022-11-30 17:57:03
102,"[{'imgObject': {}, 'id': 'mac & cheese', 'src': '/static/foodstim60/mac & cheese.jpg', 'key': 'u', 'origWidth': 410, 'origHeight': 410, 'width': 410, 'height': 410, 'widthPercent': 0.45, 'rescaleHeight': False, 'trialN': 102, 'loaded': True, 'loadedTime': 5409, 'positionName': 'LEFT', 'positionCoords': [153.04, 264.5], 'bid': 4.78}, {'imgObject': {}, 'id': 'avocado', 'src': '/static/foodstim60/avocado.jpg', 'key': 'i', 'origWidth': 409, 'origHeight': 409, 'width': 409, 'height': 409, 'widthPercent': 0.45, 'rescaleHeight': False, 'trialN': 102, 'loaded': True, 'loadedTime': 2719, 'positionName': 'RIGHT', 'positionCoords': [609.96, 265], 'bid': 1.3}]",202997,1669830885941,mac & cheese,avocado,4.78,1.3,-3.4800000000000004,avocado,1563,1567,1567,True,i,205067,2070,1669830888010,2069,HRV,HRV_0142,2022-11-30 17:57:03
103,"[{'imgObject': {}, 'id': 'shreddedwheatwithmilk', 'src': '/static/foodstim60/shreddedwheatwithmilk.jpg', 'key': 'u', 'origWidth': 410, 'origHeight': 410, 'width': 410, 'height': 410, 'widthPercent': 0.45, 'rescaleHeight': False, 'trialN': 103, 'loaded': True, 'loadedTime': 4552, 'positionName': 'LEFT', 'positionCoords': [153.04, 264.5], 'bid': 0.09}, {'imgObject': {}, 'id': 'Tribe humus pita', 'src': '/static/foodstim60/Tribe humus pita.jpg', 'key': 'i', 'origWidth': 411, 'origHeight': 411, 'width': 411, 'height': 411, 'widthPercent': 0.45, 'rescaleHeight': False, 'trialN': 103, 'loaded': True, 'loadedTime': 3282, 'positionName': 'RIGHT', 'positionCoords': [609.96, 264], 'bid': 0.08}]",205072,1669830888015,shreddedwheatwithmilk,Tribe humus pita,0.09,0.08,-0.009999999999999995,Tribe humus pita,1192,1197,1196,True,i,206784,1712,1669830889728,1713,HRV,HRV_0142,2022-11-30 17:57:03
104,"[{'imgObject': {}, 'id': 'eggs', 'src': '/static/foodstim60/eggs.jpg', 'key': 'u', 'origWidth': 409, 'origHeight': 409, 'width': 409, 'height': 409, 'widthPercent': 0.45, 'rescaleHeight': False, 'trialN': 104, 'loaded': True, 'loadedTime': 4043, 'positionName': 'LEFT', 'positionCoords': [154.04, 265], 'bid': 6.0600000000000005}, {'imgObject': {}, 'id': 'chickenfingers', 'src': '/static/foodstim60/chickenfingers.jpg', 'key': 'i', 'origWidth': 410, 'origHeight': 410, 'width': 410, 'height': 410, 'widthPercent': 0.45, 'rescaleHeight': False, 'trialN': 104, 'loaded': True, 'loadedTime': 3218, 'positionName': 'RIGHT', 'positionCoords': [609.96, 264.5], 'bid': 6.2700000000000005}]",206789,1669830889732,eggs,chickenfingers,6.0600000000000005,6.2700000000000005,0.20999999999999996,chickenfingers,818,823,823,True,i,208124,1335,1669830891067,1335,HRV,HRV_0142,2022-11-30 17:57:03
105,"[{'imgObject': {}, 'id': 'avocado', 'src': '/static/foodstim60/avocado.jpg', 'key': 'u', 'origWidth': 409, 'origHeight': 409, 'width': 409, 'height': 409, 'widthPercent': 0.45, 'rescaleHeight': False, 'trialN': 105, 'loaded': True, 'loadedTime': 2724, 'positionName': 'LEFT', 'positionCoords': [154.04, 265], 'bid': 1.3}, {'imgObject': {}, 'id': 'chicken nuggets2', 'src': '/static/foodstim60/chicken nuggets2.jpg', 'key': 'i', 'origWidth': 410, 'origHeight': 409, 'width': 410, 'height': 409, 'widthPercent': 0.45, 'rescaleHeight': False, 'trialN': 105, 'loaded': True, 'loadedTime': 4778, 'positionName': 'RIGHT', 'positionCoords': [609.96, 265], 'bid': 6.25}]",208130,1669830891074,avocado,chicken nuggets2,1.3,6.25,4.95,chicken nuggets2,1165,1177,1178,True,i,209819,1689,1669830892763,1689,HRV,HRV_0142,2022-11-30 17:57:03
106,"[{'imgObject': {}, 'id': 'blueberries', 'src': '/static/foodstim60/blueberries.jpg', 'key': 'u', 'origWidth': 411, 'origHeight': 411, 'width': 411, 'height': 411, 'widthPercent': 0.45, 'rescaleHeight': False, 'trialN': 106, 'loaded': True, 'loadedTime': 3583, 'positionName': 'LEFT', 'positionCoords': [152.04, 264], 'bid': 0.06}, {'imgObject': {}, 'id': 'rigatoni', 'src': '/static/foodstim60/rigatoni.jpg', 'key': 'i', 'origWidth': 411, 'origHeight': 411, 'width': 411, 'height': 411, 'widthPercent': 0.45, 'rescaleHeight': False, 'trialN': 106, 'loaded': True, 'loadedTime': 4387, 'positionName': 'RIGHT', 'positionCoords': [609.96, 264], 'bid': 0.04}]",209824,1669830892768,blueberries,rigatoni,0.06,0.04,-0.019999999999999997,rigatoni,1049,1059,1060,True,i,211394,1570,1669830894338,1570,HRV,HRV_0142,2022-11-30 17:57:03
107,"[{'imgObject': {}, 'id': 'eggs', 'src': '/static/foodstim60/eggs.jpg', 'key': 'u', 'origWidth': 409, 'origHeight': 409, 'width': 409, 'height': 409, 'widthPercent': 0.45, 'rescaleHeight': False, 'trialN': 107, 'loaded': True, 'loadedTime': 4059, 'positionName': 'LEFT', 'positionCoords': [154.04, 265], 'bid': 6.0600000000000005}, {'imgObject': {}, 'id': 'rigatoni and sauce', 'src': '/static/foodstim60/rigatoni and sauce.jpg', 'key': 'i', 'origWidth': 410, 'origHeight': 411, 'width': 410, 'height': 411, 'widthPercent': 0.45, 'rescaleHeight': False, 'trialN': 107, 'loaded': True, 'loadedTime': 5372, 'positionName': 'RIGHT', 'positionCoords': [609.96, 264], 'bid': 5.94}]",211399,1669830894343,eggs,rigatoni and sauce,6.0600000000000005,5.94,-0.1200000000000001,rigatoni and sauce,1194,1204,1205,True,i,213109,1710,1669830896053,1710,HRV,HRV_0142,2022-11-30 17:57:03
108,"[{'imgObject': {}, 'id': 'sweetpotato', 'src': '/static/foodstim60/sweetpotato.jpg', 'key': 'u', 'origWidth': 410, 'origHeight': 410, 'width': 410, 'height': 410, 'widthPercent': 0.45, 'rescaleHeight': False, 'trialN': 108, 'loaded': True, 'loadedTime': 4764, 'positionName': 'LEFT', 'positionCoords': [153.04, 264.5], 'bid': 0.04}, {'imgObject': {}, 'id': 'cheerios', 'src': '/static/foodstim60/cheerios.jpg', 'key': 'i', 'origWidth': 409, 'origHeight': 410, 'width': 409, 'height': 410, 'widthPercent': 0.45, 'rescaleHeight': False, 'trialN': 108, 'loaded': True, 'loadedTime': 2885, 'positionName': 'RIGHT', 'positionCoords': [609.96, 264.5], 'bid': 0}]",213114,1669830896057,sweetpotato,cheerios,0.04,0.0,-0.04,sweetpotato,1432,1443,1442,True,u,215063,1949,1669830898007,1950,HRV,HRV_0142,2022-11-30 17:57:03
109,"[{'imgObject': {}, 'id': 'cocktailshrimp', 'src': '/static/foodstim60/cocktailshrimp.jpg', 'key': 'u', 'origWidth': 410, 'origHeight': 410, 'width': 410, 'height': 410, 'widthPercent': 0.45, 'rescaleHeight': False, 'trialN': 109, 'loaded': True, 'loadedTime': 4511, 'positionName': 'LEFT', 'positionCoords': [153.04, 264.5], 'bid': 0.09}, {'imgObject': {}, 'id': 'cheerios', 'src': '/static/foodstim60/cheerios.jpg', 'key': 'i', 'origWidth': 409, 'origHeight': 410, 'width': 409, 'height': 410, 'widthPercent': 0.45, 'rescaleHeight': False, 'trialN': 109, 'loaded': True, 'loadedTime': 2890, 'positionName': 'RIGHT', 'positionCoords': [609.96, 264.5], 'bid': 0}]",215068,1669830898011,cocktailshrimp,cheerios,0.09,0.0,-0.09,cheerios,1258,1273,1272,True,i,216850,1782,1669830899794,1783,HRV,HRV_0142,2022-11-30 17:57:03
110,"[{'imgObject': {}, 'id': 'mac & cheese', 'src': '/static/foodstim60/mac & cheese.jpg', 'key': 'u', 'origWidth': 410, 'origHeight': 410, 'width': 410, 'height': 410, 'widthPercent': 0.45, 'rescaleHeight': False, 'trialN': 110, 'loaded': True, 'loadedTime': 5415, 'positionName': 'LEFT', 'positionCoords': [153.04, 264.5], 'bid': 4.78}, {'imgObject': {}, 'id': 'cherries', 'src': '/static/foodstim60/cherries.jpg', 'key': 'i', 'origWidth': 410, 'origHeight': 411, 'width': 410, 'height': 411, 'widthPercent': 0.45, 'rescaleHeight': False, 'trialN': 110, 'loaded': True, 'loadedTime': 3024, 'positionName': 'RIGHT', 'positionCoords': [609.96, 264], 'bid': 0.13}]",216855,1669830899799,mac & cheese,cherries,4.78,0.13,-4.65,mac & cheese,1097,1109,1109,True,u,218475,1620,1669830901419,1620,HRV,HRV_0142,2022-11-30 17:57:03
111,"[{'imgObject': {}, 'id': 'granola w milk', 'src': '/static/foodstim60/granola w milk.jpg', 'key': 'u', 'origWidth': 410, 'origHeight': 410, 'width': 410, 'height': 410, 'widthPercent': 0.45, 'rescaleHeight': False, 'trialN': 111, 'loaded': True, 'loadedTime': 5041, 'positionName': 'LEFT', 'positionCoords': [153.04, 264.5], 'bid': 0.09}, {'imgObject': {}, 'id': 'raspberries', 'src': '/static/foodstim60/raspberries.jpg', 'key': 'i', 'origWidth': 411, 'origHeight': 411, 'width': 411, 'height': 411, 'widthPercent': 0.45, 'rescaleHeight': False, 'trialN': 111, 'loaded': True, 'loadedTime': 3419, 'positionName': 'RIGHT', 'positionCoords': [609.96, 264], 'bid': 0.06}]",218479,1669830901423,granola w milk,raspberries,0.09,0.06,-0.03,granola w milk,1504,1508,1509,True,u,220492,2013,1669830903435,2012,HRV,HRV_0142,2022-11-30 17:57:03
112,"[{'imgObject': {}, 'id': 'Grapes', 'src': '/static/foodstim60/Grapes.jpg', 'key': 'u', 'origWidth': 411, 'origHeight': 411, 'width': 411, 'height': 411, 'widthPercent': 0.45, 'rescaleHeight': False, 'trialN': 112, 'loaded': True, 'loadedTime': 4204, 'positionName': 'LEFT', 'positionCoords': [152.04, 264], 'bid': 0.09}, {'imgObject': {}, 'id': 'froot loops w milk', 'src': '/static/foodstim60/froot loops w milk.jpg', 'key': 'i', 'origWidth': 410, 'origHeight': 410, 'width': 410, 'height': 410, 'widthPercent': 0.45, 'rescaleHeight': False, 'trialN': 112, 'loaded': True, 'loadedTime': 5227, 'positionName': 'RIGHT', 'positionCoords': [609.96, 264.5], 'bid': 0}]",220496,1669830903441,Grapes,froot loops w milk,0.09,0.0,-0.09,froot loops w milk,925,931,932,True,i,221939,1443,1669830904883,1442,HRV,HRV_0142,2022-11-30 17:57:03
113,"[{'imgObject': {}, 'id': 'burger', 'src': '/static/foodstim60/burger.jpg', 'key': 'u', 'origWidth': 409, 'origHeight': 409, 'width': 409, 'height': 409, 'widthPercent': 0.45, 'rescaleHeight': False, 'trialN': 113, 'loaded': True, 'loadedTime': 3675, 'positionName': 'LEFT', 'positionCoords': [154.04, 265], 'bid': 7.49}, {'imgObject': {}, 'id': 'rigatoni and sauce', 'src': '/static/foodstim60/rigatoni and sauce.jpg', 'key': 'i', 'origWidth': 410, 'origHeight': 411, 'width': 410, 'height': 411, 'widthPercent': 0.45, 'rescaleHeight': False, 'trialN': 113, 'loaded': True, 'loadedTime': 5373, 'positionName': 'RIGHT', 'positionCoords': [609.96, 264], 'bid': 5.94}]",221943,1669830904887,burger,rigatoni and sauce,7.49,5.94,-1.5499999999999998,rigatoni and sauce,1118,1133,1133,True,i,223583,1640,1669830906527,1640,HRV,HRV_0142,2022-11-30 17:57:03
114,"[{'imgObject': {}, 'id': 'grilled chicken strips', 'src': '/static/foodstim60/grilled chicken strips.jpg', 'key': 'u', 'origWidth': 410, 'origHeight': 411, 'width': 410, 'height': 411, 'widthPercent': 0.45, 'rescaleHeight': False, 'trialN': 114, 'loaded': True, 'loadedTime': 3451, 'positionName': 'LEFT', 'positionCoords': [153.04, 264], 'bid': 0}, {'imgObject': {}, 'id': 'fruitsalad', 'src': '/static/foodstim60/fruitsalad.jpg', 'key': 'i', 'origWidth': 410, 'origHeight': 410, 'width': 410, 'height': 410, 'widthPercent': 0.45, 'rescaleHeight': False, 'trialN': 114, 'loaded': True, 'loadedTime': 3856, 'positionName': 'RIGHT', 'positionCoords': [609.96, 264.5], 'bid': 0.04}]",223588,1669830906532,grilled chicken strips,fruitsalad,0.0,0.04,0.04,grilled chicken strips,1051,1063,1064,True,u,225160,1572,1669830908103,1571,HRV,HRV_0142,2022-11-30 17:57:03
115,"[{'imgObject': {}, 'id': 'eggsalad', 'src': '/static/foodstim60/eggsalad.jpg', 'key': 'u', 'origWidth': 410, 'origHeight': 409, 'width': 410, 'height': 409, 'widthPercent': 0.45, 'rescaleHeight': False, 'trialN': 115, 'loaded': True, 'loadedTime': 3551, 'positionName': 'LEFT', 'positionCoords': [153.04, 265], 'bid': 0.09}, {'imgObject': {}, 'id': 'turkeysandwich', 'src': '/static/foodstim60/turkeysandwich.jpg', 'key': 'i', 'origWidth': 409, 'origHeight': 409, 'width': 409, 'height': 409, 'widthPercent': 0.45, 'rescaleHeight': False, 'trialN': 115, 'loaded': True, 'loadedTime': 5352, 'positionName': 'RIGHT', 'positionCoords': [609.96, 265], 'bid': 5.38}]",225164,1669830908108,eggsalad,turkeysandwich,0.09,5.38,5.29,turkeysandwich,929,943,944,True,i,226614,1450,1669830909557,1449,HRV,HRV_0142,2022-11-30 17:57:03
116,"[{'imgObject': {}, 'id': 'salad w chicken', 'src': '/static/foodstim60/salad w chicken.jpg', 'key': 'u', 'origWidth': 411, 'origHeight': 411, 'width': 411, 'height': 411, 'widthPercent': 0.45, 'rescaleHeight': False, 'trialN': 116, 'loaded': True, 'loadedTime': 5003, 'positionName': 'LEFT', 'positionCoords': [152.04, 264], 'bid': 0.09}, {'imgObject': {}, 'id': 'omelette', 'src': '/static/foodstim60/omelette.jpg', 'key': 'i', 'origWidth': 410, 'origHeight': 409, 'width': 410, 'height': 409, 'widthPercent': 0.45, 'rescaleHeight': False, 'trialN': 116, 'loaded': True, 'loadedTime': 5105, 'positionName': 'RIGHT', 'positionCoords': [609.96, 265], 'bid': 0.06}]",226617,1669830909561,salad w chicken,omelette,0.09,0.06,-0.03,salad w chicken,1569,1571,1571,True,u,228697,2080,1669830911642,2081,HRV,HRV_0142,2022-11-30 17:57:03
117,"[{'imgObject': {}, 'id': 'fried eggs', 'src': '/static/foodstim60/fried eggs.jpg', 'key': 'u', 'origWidth': 410, 'origHeight': 410, 'width': 410, 'height': 410, 'widthPercent': 0.45, 'rescaleHeight': False, 'trialN': 117, 'loaded': True, 'loadedTime': 4908, 'positionName': 'LEFT', 'positionCoords': [153.04, 264.5], 'bid': 7.24}, {'imgObject': {}, 'id': 'burrito', 'src': '/static/foodstim60/burrito.jpg', 'key': 'i', 'origWidth': 410, 'origHeight': 410, 'width': 410, 'height': 410, 'widthPercent': 0.45, 'rescaleHeight': False, 'trialN': 117, 'loaded': True, 'loadedTime': 2940, 'positionName': 'RIGHT', 'positionCoords': [609.96, 264.5], 'bid': 5.33}]",228702,1669830911647,fried eggs,burrito,7.24,5.33,-1.9100000000000001,burrito,2297,2301,2302,True,i,231519,2817,1669830914463,2816,HRV,HRV_0142,2022-11-30 17:57:03
118,"[{'imgObject': {}, 'id': 'turkeysandwich', 'src': '/static/foodstim60/turkeysandwich.jpg', 'key': 'u', 'origWidth': 409, 'origHeight': 409, 'width': 409, 'height': 409, 'widthPercent': 0.45, 'rescaleHeight': False, 'trialN': 118, 'loaded': True, 'loadedTime': 5354, 'positionName': 'LEFT', 'positionCoords': [154.04, 265], 'bid': 5.38}, {'imgObject': {}, 'id': 'burger', 'src': '/static/foodstim60/burger.jpg', 'key': 'i', 'origWidth': 409, 'origHeight': 409, 'width': 409, 'height': 409, 'widthPercent': 0.45, 'rescaleHeight': False, 'trialN': 118, 'loaded': True, 'loadedTime': 3685, 'positionName': 'RIGHT', 'positionCoords': [609.96, 265], 'bid': 7.49}]",231524,1669830914468,turkeysandwich,burger,5.38,7.49,2.1100000000000003,burger,1739,1744,1744,True,i,233776,2252,1669830916720,2252,HRV,HRV_0142,2022-11-30 17:57:03
