success,trial_type,trial_index,time_elapsed,internal_node_id,Block,TrialNumber,TrialTime,trialTimeDiff,FPS_avg,FPS_med,FPS_mode,TrialDur,winResizeTime,rt,block,button_pressed,MotCoh,MotDir,ColCoh,Color,ChoiceKey,Choice,Accuracy,RT,nFrames,FPS,PPD,missTrial,missTrialMsg,onsetDelay,fullScreenExitTime,canvCenter,TrialType,Score,BlockTrial,stimulus,button_labels,exp,subjectId,date
True,fullscreen,0,2176,0.0-0.0,0.0,1.0,,,,,,,,,,,,,,,,,,,,,,,,,,,,,,,,HRV,HRV_0142,2022-11-30 18:25:40
,wl-check-fps,1,7190,0.0-1.0,0.0,2.0,"[2556, 2571, 2596, 2607, 2623, 2639, 2655, 2671, 2689, 2707, 2722, 2739, 2755, 2770, 2787, 2805, 2820, 2839, 2856, 2871, 2889, 2905, 2921, 2938, 2955, 2970, 2987, 3005, 3020, 3039, 3055, 3071, 3088, 3105, 3121, 3138, 3155, 3170, 3187, 3204, 3221, 3238, 3255, 3270, 3287, 3304, 3322, 3339, 3355, 3372, 3388, 3407, 3423, 3439, 3457, 3471, 3487, 3504, 3521, 3537, 3556, 3572, 3588, 3605, 3622, 3638, 3655, 3671, 3687, 3704, 3721, 3737, 3755, 3771, 3788, 3804, 3821, 3839, 3854, 3871, 3889, 3904, 3921, 3939, 3955, 3972, 3989, 4004, 4022, 4039, 4054, 4071, 4089, 4104, 4121, 4139, 4155, 4171, 4189, 4204, 4222, 4239, 4256, 4272, 4289, 4305, 4322, 4339, 4354, 4372, 4389, 4405, 4422, 4439, 4456, 4472, 4489, 4506, 4523, 4539, 4555, 4572, 4589, 4605, 4622, 4639, 4655, 4672, 4689, 4706, 4722, 4739, 4755, 4772, 4789, 4805, 4822, 4839, 4855, 4872, 4889, 4905, 4923, 4939, 4955, 4973, 4989, 5006, 5023, 5039, 5056, 5073, 5089, 5105, 5123, 5139, 5155, 5173, 5189, 5205, 5223, 5239, 5256, 5274, 5289, 5306, 5323, 5339, 5356, 5373, 5389, 5406, 5423, 5439, 5456, 5473, 5490, 5506, 5523, 5539, 5557, 5573, 5589, 5606, 5623, 5639, 5656, 5673, 5689, 5706, 5723, 5739, 5757, 5773, 5790, 5806, 5823, 5839, 5856, 5873, 5889, 5906, 5923, 5940, 5957, 5973, 5990, 6007, 6023, 6040, 6057, 6073, 6090, 6106, 6124, 6140, 6157, 6173, 6189, 6206, 6222, 6240, 6257, 6272, 6290, 6307, 6323, 6340, 6356, 6373, 6390, 6411, 6422, 6440, 6457, 6473, 6491, 6510, 6523, 6540, 6557, 6574, 6589, 6606, 6625, 6640, 6657, 6677, 6689, 6707, 6724, 6741, 6758, 6775, 6789, 6806, 6823, 6839, 6857, 6873, 6889, 6906, 6925, 6939, 6957, 6974, 6989, 7006, 7024, 7039, 7056, 7074, 7090, 7106, 7124, 7140, 7156, 7174, 7190, 7206, 7225, 7240, 7257, 7273, 7290, 7306, 7324, 7340, 7356, 7374, 7390, 7406, 7424, 7440, 7456, 7476, 7491, 7507, 7524, 7540]","[10, 15, 25, 11, 16, 16, 16, 16, 18, 18, 15, 17, 16, 15, 17, 18, 15, 19, 17, 15, 18, 16, 16, 17, 17, 15, 17, 18, 15, 19, 16, 16, 17, 17, 16, 17, 17, 15, 17, 17, 17, 17, 17, 15, 17, 17, 18, 17, 16, 17, 16, 19, 16, 16, 18, 14, 16, 17, 17, 16, 19, 16, 16, 17, 17, 16, 17, 16, 16, 17, 17, 16, 18, 16, 17, 16, 17, 18, 15, 17, 18, 15, 17, 18, 16, 17, 17, 15, 18, 17, 15, 17, 18, 15, 17, 18, 16, 16, 18, 15, 18, 17, 17, 16, 17, 16, 17, 17, 15, 18, 17, 16, 17, 17, 17, 16, 17, 17, 17, 16, 16, 17, 17, 16, 17, 17, 16, 17, 17, 17, 16, 17, 16, 17, 17, 16, 17, 17, 16, 17, 17, 16, 18, 16, 16, 18, 16, 17, 17, 16, 17, 17, 16, 16, 18, 16, 16, 18, 16, 16, 18, 16, 17, 18, 15, 17, 17, 16, 17, 17, 16, 17, 17, 16, 17, 17, 17, 16, 17, 16, 18, 16, 16, 17, 17, 16, 17, 17, 16, 17, 17, 16, 18, 16, 17, 16, 17, 16, 17, 17, 16, 17, 17, 17, 17, 16, 17, 17, 16, 17, 17, 16, 17, 16, 18, 16, 17, 16, 16, 17, 16, 18, 17, 15, 18, 17, 16, 17, 16, 17, 17, 21, 11, 18, 17, 16, 18, 19, 13, 17, 17, 17, 15, 17, 19, 15, 17, 20, 12, 18, 17, 17, 17, 17, 14, 17, 17, 16, 18, 16, 16, 17, 19, 14, 18, 17, 15, 17, 18, 15, 17, 18, 16, 16, 18, 16, 16, 18, 16, 16, 19, 15, 17, 16, 17, 16, 18, 16, 16, 18, 16, 16, 18, 16, 16, 20, 15, 16, 17, 16]",60.0,61.0,59.0,5010.0,[],,,,,,,,,,,,,,,,,,,,,,,,,HRV,HRV_0142,2022-11-30 18:25:40
,wl-html-keyboard-response,2,66760,0.0-2.0-0.0,0.0,3.0,,,,,,,,57565.0,0.0,0,,,,,,,,,,,,,,,,,,,,,,HRV,HRV_0142,2022-11-30 18:25:40
,wl-rdm,3,74149,0.0-3.0-0.0,0.0,4.0,,,,,,,[],,,,0.0,0.0,87.9,0.0,u,0.0,True,1782.0,107.0,59.0,40.0,False,,3000.0,[],"[640, 512]",ColorTask_Demo,,,,,HRV,HRV_0142,2022-11-30 18:25:40
,wl-rdm,4,79252,0.0-3.0-1.0,0.0,5.0,,,,,,,[],,,,0.0,0.0,87.9,1.0,i,1.0,True,1027.0,62.0,59.0,40.0,False,,2000.0,[],"[640, 512]",ColorTask_Demo,,,,,HRV,HRV_0142,2022-11-30 18:25:40
,wl-html-keyboard-response,5,92824,0.0-3.0-2.0,0.0,6.0,,,,,,,,11567.0,0.0,1,,,,,,,,,,,,,,,,,,,,,,HRV,HRV_0142,2022-11-30 18:25:40
,wl-html-keyboard-response,6,104728,0.0-4.0-0.0,0.0,7.0,,,,,,,,9900.0,0.0,0,,,,,,,,,,,,,,,,,,,,,,HRV,HRV_0142,2022-11-30 18:25:40
,wl-html-keyboard-response,7,112200,0.0-5.0-0.0,0.0,8.0,,,,,,,,5468.0,0.0,0,,,,,,,,,,,,,,,,,,,,,,HRV,HRV_0142,2022-11-30 18:25:40
,wl-rdm,8,114489,0.0-6.0-0.0,0.0,9.0,,,,,,,[],,,,,,87.9,0.0,u,0.0,True,829.0,50.0,59.0,40.0,False,,392.81822194230847,[],"[640, 512]",ColorTask,1.0,1.0,,,HRV,HRV_0142,2022-11-30 18:25:40
,wl-rdm,9,116992,0.0-6.1-0.1,0.0,10.0,,,,,,,[],,,,,,62.5,0.0,u,0.0,True,1149.0,69.0,59.0,40.0,False,,279.6312464584673,[],"[640, 512]",ColorTask,2.0,2.0,,,HRV,HRV_0142,2022-11-30 18:25:40
,wl-rdm,10,119642,0.0-6.2-0.2,0.0,11.0,,,,,,,[],,,,,,73.6,1.0,i,1.0,True,1204.0,73.0,59.0,40.0,False,,380.8941085098958,[],"[640, 512]",ColorTask,3.0,3.0,,,HRV,HRV_0142,2022-11-30 18:25:40
,wl-rdm,11,122110,0.0-6.3-0.3,0.0,12.0,,,,,,,[],,,,,,73.6,0.0,i,1.0,False,1098.0,66.0,59.0,40.0,False,,299.4640698616319,[],"[640, 512]",ColorTask,2.0,4.0,,,HRV,HRV_0142,2022-11-30 18:25:40
,wl-rdm,12,125079,0.0-6.4-0.4,0.0,13.0,,,,,,,[],,,,,,62.5,0.0,u,0.0,True,1514.0,91.0,59.0,40.0,False,,384.73155484491724,[],"[640, 512]",ColorTask,3.0,5.0,,,HRV,HRV_0142,2022-11-30 18:25:40
,wl-rdm,13,127381,0.0-6.5-0.5,0.0,14.0,,,,,,,[],,,,,,62.5,1.0,i,1.0,True,993.0,60.0,59.0,40.0,False,,221.8331450333602,[],"[640, 512]",ColorTask,4.0,6.0,,,HRV,HRV_0142,2022-11-30 18:25:40
,wl-rdm,14,129981,0.0-6.6-0.6,0.0,15.0,,,,,,,[],,,,,,53.2,1.0,i,1.0,True,1290.0,78.0,59.0,40.0,False,,229.9213441578922,[],"[640, 512]",ColorTask,5.0,7.0,,,HRV,HRV_0142,2022-11-30 18:25:40
,wl-rdm,15,132534,0.0-6.7-0.7,0.0,16.0,,,,,,,[],,,,,,56.4,1.0,u,0.0,False,1223.0,74.0,59.0,40.0,False,,238.40091900046684,[],"[640, 512]",ColorTask,4.0,8.0,,,HRV,HRV_0142,2022-11-30 18:25:40
,wl-rdm,16,134969,0.0-6.8-0.8,0.0,17.0,,,,,,,[],,,,,,73.6,0.0,u,0.0,True,995.0,60.0,59.0,40.0,False,,368.19886000148335,[],"[640, 512]",ColorTask,5.0,9.0,,,HRV,HRV_0142,2022-11-30 18:25:40
,wl-rdm,17,137587,0.0-6.9-0.9,0.0,18.0,,,,,,,[],,,,,,73.6,0.0,u,0.0,True,1321.0,80.0,59.0,40.0,False,,200.2651801452016,[],"[640, 512]",ColorTask,6.0,10.0,,,HRV,HRV_0142,2022-11-30 18:25:40
,wl-rdm,18,139989,0.0-6.10-0.10,0.0,19.0,,,,,,,[],,,,,,56.4,1.0,i,1.0,True,1059.0,64.0,59.0,40.0,False,,263.2973655484893,[],"[640, 512]",ColorTask,7.0,11.0,,,HRV,HRV_0142,2022-11-30 18:25:40
,wl-rdm,19,143024,0.0-6.11-0.11,0.0,20.0,,,,,,,[],,,,,,62.5,0.0,u,0.0,True,1614.0,97.0,59.0,40.0,False,,340.3792239514381,[],"[640, 512]",ColorTask,8.0,12.0,,,HRV,HRV_0142,2022-11-30 18:25:40
,wl-rdm,20,145775,0.0-6.12-0.12,0.0,21.0,,,,,,,[],,,,,,56.4,0.0,u,0.0,True,1313.0,79.0,59.0,40.0,False,,381.63811555165034,[],"[640, 512]",ColorTask,9.0,13.0,,,HRV,HRV_0142,2022-11-30 18:25:40
,wl-rdm,21,148393,0.0-6.13-0.13,0.0,22.0,,,,,,,[],,,,,,73.6,0.0,u,0.0,True,1171.0,71.0,59.0,40.0,False,,355.4257044704894,[],"[640, 512]",ColorTask,10.0,14.0,,,HRV,HRV_0142,2022-11-30 18:25:40
,wl-rdm,22,151028,0.0-6.14-0.14,0.0,23.0,,,,,,,[],,,,,,50.0,1.0,i,1.0,True,1250.0,75.0,59.0,40.0,False,,309.738077018185,[],"[640, 512]",ColorTask,11.0,15.0,,,HRV,HRV_0142,2022-11-30 18:25:40
,wl-rdm,23,153512,0.0-6.15-0.15,0.0,24.0,,,,,,,[],,,,,,50.0,1.0,i,1.0,True,1020.0,62.0,59.0,40.0,False,,389.8309807159508,[],"[640, 512]",ColorTask,12.0,16.0,,,HRV,HRV_0142,2022-11-30 18:25:40
,wl-rdm,24,155731,0.0-6.16-0.16,0.0,25.0,,,,,,,[],,,,,,56.4,0.0,u,0.0,True,916.0,55.0,59.0,40.0,False,,218.67651751570298,[],"[640, 512]",ColorTask,13.0,17.0,,,HRV,HRV_0142,2022-11-30 18:25:40
,wl-rdm,25,158065,0.0-6.17-0.17,0.0,26.0,,,,,,,[],,,,,,73.6,0.0,u,0.0,True,961.0,58.0,59.0,40.0,False,,304.0292776408104,[],"[640, 512]",ColorTask,14.0,18.0,,,HRV,HRV_0142,2022-11-30 18:25:40
,wl-rdm,26,160533,0.0-6.18-0.18,0.0,27.0,,,,,,,[],,,,,,50.0,0.0,i,1.0,False,1125.0,68.0,59.0,40.0,False,,253.55407218913587,[],"[640, 512]",ColorTask,13.0,19.0,,,HRV,HRV_0142,2022-11-30 18:25:40
,wl-rdm,27,162734,0.0-6.19-0.19,0.0,28.0,,,,,,,[],,,,,,87.9,0.0,u,0.0,True,756.0,46.0,59.0,40.0,False,,361.3559809245367,[],"[640, 512]",ColorTask,14.0,20.0,,,HRV,HRV_0142,2022-11-30 18:25:40
,wl-rdm,28,165120,0.0-6.20-0.20,0.0,29.0,,,,,,,[],,,,,,50.0,1.0,u,0.0,False,1029.0,62.0,59.0,40.0,False,,291.83408666916216,[],"[640, 512]",ColorTask,13.0,21.0,,,HRV,HRV_0142,2022-11-30 18:25:40
,wl-rdm,29,167888,0.0-6.21-0.21,0.0,30.0,,,,,,,[],,,,,,53.2,0.0,i,1.0,False,1462.0,88.0,59.0,40.0,False,,236.67215227865938,[],"[640, 512]",ColorTask,12.0,22.0,,,HRV,HRV_0142,2022-11-30 18:25:40
,wl-rdm,30,170373,0.0-6.22-0.22,0.0,31.0,,,,,,,[],,,,,,53.2,0.0,i,1.0,False,1124.0,68.0,59.0,40.0,False,,284.3781232237455,[],"[640, 512]",ColorTask,11.0,23.0,,,HRV,HRV_0142,2022-11-30 18:25:40
,wl-rdm,31,173141,0.0-6.23-0.23,0.0,32.0,,,,,,,[],,,,,,62.5,0.0,i,1.0,False,1298.0,78.0,59.0,40.0,False,,383.12042337999134,[],"[640, 512]",ColorTask,10.0,24.0,,,HRV,HRV_0142,2022-11-30 18:25:40
,wl-rdm,32,175409,0.0-6.24-0.24,0.0,33.0,,,,,,,[],,,,,,73.6,0.0,u,0.0,True,944.0,57.0,59.0,40.0,False,,239.95067598906854,[],"[640, 512]",ColorTask,11.0,25.0,,,HRV,HRV_0142,2022-11-30 18:25:40
,wl-rdm,33,178027,0.0-6.25-0.25,0.0,34.0,,,,,,,[],,,,,,62.5,1.0,i,1.0,True,1334.0,80.0,59.0,40.0,False,,201.37194877029864,[],"[640, 512]",ColorTask,12.0,26.0,,,HRV,HRV_0142,2022-11-30 18:25:40
,wl-rdm,34,180379,0.0-6.26-0.26,0.0,35.0,,,,,,,[],,,,,,62.5,1.0,i,1.0,True,1067.0,64.0,59.0,40.0,False,,215.6496369277261,[],"[640, 512]",ColorTask,13.0,27.0,,,HRV,HRV_0142,2022-11-30 18:25:40
,wl-rdm,35,182914,0.0-6.27-0.27,0.0,36.0,,,,,,,[],,,,,,50.0,0.0,i,1.0,False,1153.0,69.0,59.0,40.0,False,,305.06992378895006,[],"[640, 512]",ColorTask,12.0,28.0,,,HRV,HRV_0142,2022-11-30 18:25:40
,wl-rdm,36,185149,0.0-6.28-0.28,0.0,37.0,,,,,,,[],,,,,,53.2,0.0,u,0.0,True,950.0,57.0,59.0,40.0,False,,216.6038786388581,[],"[640, 512]",ColorTask,13.0,29.0,,,HRV,HRV_0142,2022-11-30 18:25:40
,wl-rdm,37,187983,0.0-6.29-0.29,0.0,38.0,,,,,,,[],,,,,,56.4,0.0,u,0.0,True,1462.0,88.0,59.0,40.0,False,,290.45095333224106,[],"[640, 512]",ColorTask,14.0,30.0,,,HRV,HRV_0142,2022-11-30 18:25:40
,wl-rdm,38,190235,0.0-6.30-0.30,0.0,39.0,,,,,,,[],,,,,,56.4,1.0,i,1.0,True,975.0,59.0,59.0,40.0,False,,208.81407613686545,[],"[640, 512]",ColorTask,15.0,31.0,,,HRV,HRV_0142,2022-11-30 18:25:40
,wl-rdm,39,192737,0.0-6.31-0.31,0.0,40.0,,,,,,,[],,,,,,56.4,1.0,i,1.0,True,1195.0,72.0,59.0,40.0,False,,218.3015835941573,[],"[640, 512]",ColorTask,16.0,32.0,,,HRV,HRV_0142,2022-11-30 18:25:40
,wl-rdm,40,195738,0.0-6.32-0.32,0.0,41.0,,,,,,,[],,,,,,56.4,0.0,u,0.0,True,1668.0,101.0,59.0,40.0,False,,244.07290184758418,[],"[640, 512]",ColorTask,17.0,33.0,,,HRV,HRV_0142,2022-11-30 18:25:40
,wl-rdm,41,198441,0.0-6.33-0.33,0.0,42.0,,,,,,,[],,,,,,50.0,0.0,i,1.0,False,1303.0,79.0,59.0,40.0,False,,328.61160634407986,[],"[640, 512]",ColorTask,16.0,34.0,,,HRV,HRV_0142,2022-11-30 18:25:40
,wl-rdm,42,200491,0.0-6.34-0.34,0.0,43.0,,,,,,,[],,,,,,87.9,1.0,i,1.0,True,750.0,45.0,59.0,40.0,False,,230.75786816730277,[],"[640, 512]",ColorTask,17.0,35.0,,,HRV,HRV_0142,2022-11-30 18:25:40
,wl-rdm,43,202627,0.0-6.35-0.35,0.0,44.0,,,,,,,[],,,,,,73.6,1.0,i,1.0,True,842.0,51.0,59.0,40.0,False,,230.654396511874,[],"[640, 512]",ColorTask,18.0,36.0,,,HRV,HRV_0142,2022-11-30 18:25:40
,wl-rdm,44,205246,0.0-6.36-0.36,0.0,45.0,,,,,,,[],,,,,,50.0,1.0,i,1.0,True,1281.0,77.0,59.0,40.0,False,,256.75988813858953,[],"[640, 512]",ColorTask,19.0,37.0,,,HRV,HRV_0142,2022-11-30 18:25:40
,wl-rdm,45,208097,0.0-6.37-0.37,0.0,46.0,,,,,,,[],,,,,,62.5,0.0,u,0.0,True,1445.0,87.0,59.0,40.0,False,,344.24130265393455,[],"[640, 512]",ColorTask,20.0,38.0,,,HRV,HRV_0142,2022-11-30 18:25:40
,wl-rdm,46,210365,0.0-6.38-0.38,0.0,47.0,,,,,,,[],,,,,,56.4,0.0,u,0.0,True,974.0,59.0,59.0,40.0,False,,224.10577676492963,[],"[640, 512]",ColorTask,21.0,39.0,,,HRV,HRV_0142,2022-11-30 18:25:40
,wl-rdm,47,213050,0.0-6.39-0.39,0.0,48.0,,,,,,,[],,,,,,62.5,1.0,u,0.0,False,1295.0,78.0,59.0,40.0,False,,301.78174385900707,[],"[640, 512]",ColorTask,20.0,40.0,,,HRV,HRV_0142,2022-11-30 18:25:40
,wl-rdm,48,215852,0.0-6.40-0.40,0.0,49.0,,,,,,,[],,,,,,56.4,0.0,i,1.0,False,1401.0,84.0,59.0,40.0,False,,323.8771887758536,[],"[640, 512]",ColorTask,19.0,41.0,,,HRV,HRV_0142,2022-11-30 18:25:40
,wl-rdm,49,218136,0.0-6.41-0.41,0.0,50.0,,,,,,,[],,,,,,73.6,1.0,i,1.0,True,888.0,54.0,59.0,40.0,False,,309.27719028942454,[],"[640, 512]",ColorTask,20.0,42.0,,,HRV,HRV_0142,2022-11-30 18:25:40
,wl-rdm,50,220220,0.0-6.42-0.42,0.0,51.0,,,,,,,[],,,,,,87.9,0.0,u,0.0,True,798.0,48.0,59.0,40.0,False,,223.77815986001985,[],"[640, 512]",ColorTask,21.0,43.0,,,HRV,HRV_0142,2022-11-30 18:25:40
,wl-rdm,51,222540,0.0-6.43-0.43,0.0,52.0,,,,,,,[],,,,,,56.4,1.0,i,1.0,True,952.0,57.0,59.0,40.0,False,,292.0399398881341,[],"[640, 512]",ColorTask,22.0,44.0,,,HRV,HRV_0142,2022-11-30 18:25:40
,wl-rdm,52,225441,0.0-6.44-0.44,0.0,53.0,,,,,,,[],,,,,,73.6,0.0,u,0.0,True,1545.0,93.0,59.0,40.0,False,,286.66652737264883,[],"[640, 512]",ColorTask,23.0,45.0,,,HRV,HRV_0142,2022-11-30 18:25:40
,wl-rdm,53,227559,0.0-6.45-0.45,0.0,54.0,,,,,,,[],,,,,,87.9,1.0,i,1.0,True,813.0,49.0,59.0,40.0,False,,233.08382145423744,[],"[640, 512]",ColorTask,24.0,46.0,,,HRV,HRV_0142,2022-11-30 18:25:40
,wl-rdm,54,230479,0.0-6.46-0.46,0.0,55.0,,,,,,,[],,,,,,50.0,1.0,i,1.0,True,1617.0,97.0,59.0,40.0,False,,228.42002590082654,[],"[640, 512]",ColorTask,25.0,47.0,,,HRV,HRV_0142,2022-11-30 18:25:40
,wl-rdm,55,232663,0.0-6.47-0.47,0.0,56.0,,,,,,,[],,,,,,62.5,1.0,i,1.0,True,822.0,50.0,59.0,40.0,False,,280.8766882260797,[],"[640, 512]",ColorTask,26.0,48.0,,,HRV,HRV_0142,2022-11-30 18:25:40
,wl-rdm,56,234831,0.0-6.48-0.48,0.0,57.0,,,,,,,[],,,,,,50.0,1.0,u,0.0,False,691.0,42.0,59.0,40.0,False,,398.28216557629247,[],"[640, 512]",ColorTask,25.0,49.0,,,HRV,HRV_0142,2022-11-30 18:25:40
,wl-rdm,57,237033,0.0-6.49-0.49,0.0,58.0,,,,,,,[],,,,,,73.6,1.0,i,1.0,True,780.0,47.0,59.0,40.0,False,,336.44542358606634,[],"[640, 512]",ColorTask,26.0,50.0,,,HRV,HRV_0142,2022-11-30 18:25:40
,wl-rdm,58,239618,0.0-6.50-0.50,0.0,59.0,,,,,,,[],,,,,,53.2,1.0,u,0.0,False,1288.0,78.0,59.0,40.0,False,,230.6118269436928,[],"[640, 512]",ColorTask,25.0,51.0,,,HRV,HRV_0142,2022-11-30 18:25:40
,wl-rdm,59,242534,0.0-6.51-0.51,0.0,60.0,,,,,,,[],,,,,,62.5,0.0,u,0.0,True,1583.0,95.0,59.0,40.0,False,,264.47900861703584,[],"[640, 512]",ColorTask,26.0,52.0,,,HRV,HRV_0142,2022-11-30 18:25:40
,wl-rdm,60,245454,0.0-6.52-0.52,0.0,61.0,,,,,,,[],,,,,,56.4,0.0,i,1.0,False,1549.0,93.0,59.0,40.0,False,,289.16369152060236,[],"[640, 512]",ColorTask,25.0,53.0,,,HRV,HRV_0142,2022-11-30 18:25:40
,wl-rdm,61,248722,0.0-6.53-0.53,0.0,62.0,,,,,,,[],,,,,,56.4,0.0,i,1.0,False,1854.0,112.0,59.0,40.0,False,,324.31998392979347,[],"[640, 512]",ColorTask,24.0,54.0,,,HRV,HRV_0142,2022-11-30 18:25:40
,wl-rdm,62,250790,0.0-6.54-0.54,0.0,63.0,,,,,,,[],,,,,,87.9,1.0,i,1.0,True,625.0,38.0,59.0,40.0,False,,362.8767814777658,[],"[640, 512]",ColorTask,25.0,55.0,,,HRV,HRV_0142,2022-11-30 18:25:40
,wl-rdm,63,252692,0.0-6.55-0.55,0.0,64.0,,,,,,,[],,,,,,87.9,1.0,i,1.0,True,565.0,34.0,59.0,40.0,False,,272.99468386247565,[],"[640, 512]",ColorTask,26.0,56.0,,,HRV,HRV_0142,2022-11-30 18:25:40
,wl-rdm,64,254776,0.0-6.56-0.56,0.0,65.0,,,,,,,[],,,,,,73.6,0.0,u,0.0,True,812.0,49.0,59.0,40.0,False,,200.17646134285204,[],"[640, 512]",ColorTask,27.0,57.0,,,HRV,HRV_0142,2022-11-30 18:25:40
,wl-rdm,65,256828,0.0-6.57-0.57,0.0,66.0,,,,,,,[],,,,,,73.6,0.0,u,0.0,True,609.0,37.0,59.0,40.0,False,,352.05510726572834,[],"[640, 512]",ColorTask,28.0,58.0,,,HRV,HRV_0142,2022-11-30 18:25:40
,wl-rdm,66,259629,0.0-6.58-0.58,0.0,67.0,,,,,,,[],,,,,,50.0,0.0,u,0.0,True,1449.0,87.0,59.0,40.0,False,,269.13951759855064,[],"[640, 512]",ColorTask,29.0,59.0,,,HRV,HRV_0142,2022-11-30 18:25:40
,wl-rdm,67,261813,0.0-6.59-0.59,0.0,68.0,,,,,,,[],,,,,,62.5,1.0,i,1.0,True,865.0,52.0,59.0,40.0,False,,235.15687770526708,[],"[640, 512]",ColorTask,30.0,60.0,,,HRV,HRV_0142,2022-11-30 18:25:40
,wl-rdm,68,264433,0.0-6.60-0.60,0.0,69.0,,,,,,,[],,,,,,53.2,0.0,i,1.0,False,1171.0,71.0,59.0,40.0,False,,377.51332559955154,[],"[640, 512]",ColorTask,29.0,61.0,,,HRV,HRV_0142,2022-11-30 18:25:40
,wl-rdm,69,266983,0.0-6.61-0.61,0.0,70.0,,,,,,,[],,,,,,50.0,0.0,i,1.0,False,1122.0,68.0,59.0,40.0,False,,337.15758347192155,[],"[640, 512]",ColorTask,28.0,62.0,,,HRV,HRV_0142,2022-11-30 18:25:40
,wl-rdm,70,269369,0.0-6.62-0.62,0.0,71.0,,,,,,,[],,,,,,53.2,1.0,i,1.0,True,1046.0,63.0,59.0,40.0,False,,258.30873786129894,[],"[640, 512]",ColorTask,29.0,63.0,,,HRV,HRV_0142,2022-11-30 18:25:40
,wl-rdm,71,271702,0.0-6.63-0.63,0.0,72.0,,,,,,,[],,,,,,53.2,0.0,u,0.0,True,1006.0,61.0,59.0,40.0,False,,244.07821159696314,[],"[640, 512]",ColorTask,30.0,64.0,,,HRV,HRV_0142,2022-11-30 18:25:40
,wl-rdm,72,273855,0.0-6.64-0.64,0.0,73.0,,,,,,,[],,,,,,87.9,1.0,i,1.0,True,731.0,44.0,59.0,40.0,False,,336.58430720667934,[],"[640, 512]",ColorTask,31.0,65.0,,,HRV,HRV_0142,2022-11-30 18:25:40
,wl-rdm,73,276138,0.0-6.65-0.65,0.0,74.0,,,,,,,[],,,,,,87.9,0.0,u,0.0,True,926.0,56.0,59.0,40.0,False,,277.423159192642,[],"[640, 512]",ColorTask,32.0,66.0,,,HRV,HRV_0142,2022-11-30 18:25:40
,wl-rdm,74,278291,0.0-6.66-0.66,0.0,75.0,,,,,,,[],,,,,,87.9,0.0,u,0.0,True,836.0,50.0,59.0,40.0,False,,240.65296304767264,[],"[640, 512]",ColorTask,33.0,67.0,,,HRV,HRV_0142,2022-11-30 18:25:40
,wl-rdm,75,281009,0.0-6.67-0.67,0.0,76.0,,,,,,,[],,,,,,53.2,0.0,u,0.0,True,1364.0,82.0,59.0,40.0,False,,283.8004343607041,[],"[640, 512]",ColorTask,34.0,68.0,,,HRV,HRV_0142,2022-11-30 18:25:40
,wl-rdm,76,283344,0.0-6.68-0.68,0.0,77.0,,,,,,,[],,,,,,62.5,1.0,i,1.0,True,1038.0,63.0,59.0,40.0,False,,206.7766785881867,[],"[640, 512]",ColorTask,35.0,69.0,,,HRV,HRV_0142,2022-11-30 18:25:40
,wl-rdm,77,285845,0.0-6.69-0.69,0.0,78.0,,,,,,,[],,,,,,53.2,0.0,u,0.0,True,1189.0,72.0,59.0,40.0,False,,236.02971073352177,[],"[640, 512]",ColorTask,36.0,70.0,,,HRV,HRV_0142,2022-11-30 18:25:40
,wl-rdm,78,288147,0.0-6.70-0.70,0.0,79.0,,,,,,,[],,,,,,53.2,1.0,i,1.0,True,888.0,54.0,59.0,40.0,False,,347.2136959886386,[],"[640, 512]",ColorTask,37.0,71.0,,,HRV,HRV_0142,2022-11-30 18:25:40
,wl-rdm,79,291065,0.0-6.71-0.71,0.0,80.0,,,,,,,[],,,,,,50.0,0.0,i,1.0,False,1579.0,95.0,59.0,40.0,False,,267.8876513017126,[],"[640, 512]",ColorTask,36.0,72.0,,,HRV,HRV_0142,2022-11-30 18:25:40
,wl-rdm,80,293584,0.0-6.72-0.72,0.0,81.0,,,,,,,[],,,,,,62.5,1.0,i,1.0,True,1071.0,65.0,59.0,40.0,False,,381.43073450007995,[],"[640, 512]",ColorTask,37.0,73.0,,,HRV,HRV_0142,2022-11-30 18:25:40
,wl-rdm,81,295902,0.0-6.73-0.73,0.0,82.0,,,,,,,[],,,,,,53.2,0.0,u,0.0,True,1034.0,62.0,59.0,40.0,False,,207.62845959803613,[],"[640, 512]",ColorTask,38.0,74.0,,,HRV,HRV_0142,2022-11-30 18:25:40
,wl-rdm,82,298136,0.0-6.74-0.74,0.0,83.0,,,,,,,[],,,,,,87.9,0.0,u,0.0,True,839.0,51.0,59.0,40.0,False,,309.5221268709163,[],"[640, 512]",ColorTask,39.0,75.0,,,HRV,HRV_0142,2022-11-30 18:25:40
,wl-rdm,83,300254,0.0-6.75-0.75,0.0,84.0,,,,,,,[],,,,,,87.9,1.0,i,1.0,True,706.0,43.0,59.0,40.0,False,,343.6971249242635,[],"[640, 512]",ColorTask,40.0,76.0,,,HRV,HRV_0142,2022-11-30 18:25:40
,wl-rdm,84,302372,0.0-6.76-0.76,0.0,85.0,,,,,,,[],,,,,,73.6,1.0,i,1.0,True,692.0,42.0,59.0,40.0,False,,336.6149195487544,[],"[640, 512]",ColorTask,41.0,77.0,,,HRV,HRV_0142,2022-11-30 18:25:40
,wl-rdm,85,304874,0.0-6.77-0.77,0.0,86.0,,,,,,,[],,,,,,62.5,0.0,i,1.0,False,1128.0,68.0,59.0,40.0,False,,305.57242716048563,[],"[640, 512]",ColorTask,40.0,78.0,,,HRV,HRV_0142,2022-11-30 18:25:40
,wl-rdm,86,307593,0.0-6.78-0.78,0.0,87.0,,,,,,,[],,,,,,50.0,1.0,i,1.0,True,1436.0,87.0,59.0,40.0,False,,203.45698686970763,[],"[640, 512]",ColorTask,41.0,79.0,,,HRV,HRV_0142,2022-11-30 18:25:40
,wl-rdm,87,309859,0.0-6.79-0.79,0.0,88.0,,,,,,,[],,,,,,53.2,1.0,i,1.0,True,967.0,58.0,59.0,40.0,False,,223.9283754678669,[],"[640, 512]",ColorTask,42.0,80.0,,,HRV,HRV_0142,2022-11-30 18:25:40
,wl-rdm,88,312262,0.0-6.80-0.80,0.0,89.0,,,,,,,[],,,,,,73.6,1.0,i,1.0,True,950.0,57.0,59.0,40.0,False,,382.6229628525924,[],"[640, 512]",ColorTask,43.0,81.0,,,HRV,HRV_0142,2022-11-30 18:25:40
,wl-rdm,89,314280,0.0-6.81-0.81,0.0,90.0,,,,,,,[],,,,,,62.5,1.0,i,1.0,True,663.0,40.0,59.0,40.0,False,,276.4117163076234,[],"[640, 512]",ColorTask,44.0,82.0,,,HRV,HRV_0142,2022-11-30 18:25:40
,wl-rdm,90,316398,0.0-6.82-0.82,0.0,91.0,,,,,,,[],,,,,,87.9,0.0,u,0.0,True,774.0,47.0,59.0,40.0,False,,280.4219872802771,[],"[640, 512]",ColorTask,45.0,83.0,,,HRV,HRV_0142,2022-11-30 18:25:40
,wl-rdm,91,318599,0.0-6.83-0.83,0.0,92.0,,,,,,,[],,,,,,87.9,1.0,i,1.0,True,765.0,46.0,59.0,40.0,False,,354.43087234377805,[],"[640, 512]",ColorTask,46.0,84.0,,,HRV,HRV_0142,2022-11-30 18:25:40
,wl-rdm,92,320817,0.0-6.84-0.84,0.0,93.0,,,,,,,[],,,,,,53.2,1.0,i,1.0,True,836.0,51.0,59.0,40.0,False,,295.1070956322462,[],"[640, 512]",ColorTask,47.0,85.0,,,HRV,HRV_0142,2022-11-30 18:25:40
,wl-rdm,93,323435,0.0-6.85-0.85,0.0,94.0,,,,,,,[],,,,,,56.4,1.0,i,1.0,True,1253.0,75.0,59.0,40.0,False,,299.9189328796182,[],"[640, 512]",ColorTask,48.0,86.0,,,HRV,HRV_0142,2022-11-30 18:25:40
,wl-rdm,94,325652,0.0-6.86-0.86,0.0,95.0,,,,,,,[],,,,,,73.6,1.0,i,1.0,True,781.0,47.0,59.0,40.0,False,,374.92271552252566,[],"[640, 512]",ColorTask,49.0,87.0,,,HRV,HRV_0142,2022-11-30 18:25:40
,wl-rdm,95,328272,0.0-6.87-0.87,0.0,96.0,,,,,,,[],,,,,,62.5,0.0,u,0.0,True,1206.0,73.0,59.0,40.0,False,,319.23003614028676,[],"[640, 512]",ColorTask,50.0,88.0,,,HRV,HRV_0142,2022-11-30 18:25:40
,wl-rdm,96,330690,0.0-6.88-0.88,0.0,97.0,,,,,,,[],,,,,,50.0,0.0,u,0.0,True,1128.0,68.0,59.0,40.0,False,,220.16565007576236,[],"[640, 512]",ColorTask,51.0,89.0,,,HRV,HRV_0142,2022-11-30 18:25:40
,wl-rdm,97,333091,0.0-6.89-0.89,0.0,98.0,,,,,,,[],,,,,,56.4,0.0,i,1.0,False,934.0,56.0,59.0,40.0,False,,394.3544032763026,[],"[640, 512]",ColorTask,50.0,90.0,,,HRV,HRV_0142,2022-11-30 18:25:40
,wl-rdm,98,335293,0.0-6.90-0.90,0.0,99.0,,,,,,,[],,,,,,53.2,1.0,u,0.0,False,776.0,47.0,59.0,40.0,False,,333.57886348726777,[],"[640, 512]",ColorTask,49.0,91.0,,,HRV,HRV_0142,2022-11-30 18:25:40
,wl-rdm,99,338295,0.0-6.91-0.91,0.0,100.0,,,,,,,[],,,,,,50.0,0.0,i,1.0,False,1708.0,103.0,59.0,40.0,False,,204.4924415951019,[],"[640, 512]",ColorTask,48.0,92.0,,,HRV,HRV_0142,2022-11-30 18:25:40
,wl-rdm,100,340613,0.0-6.92-0.92,0.0,101.0,,,,,,,[],,,,,,73.6,1.0,i,1.0,True,942.0,57.0,59.0,40.0,False,,299.726412103458,[],"[640, 512]",ColorTask,49.0,93.0,,,HRV,HRV_0142,2022-11-30 18:25:40
,wl-rdm,101,342597,0.0-6.93-0.93,0.0,102.0,,,,,,,[],,,,,,87.9,1.0,i,1.0,True,681.0,41.0,59.0,40.0,False,,248.7226337298585,[],"[640, 512]",ColorTask,50.0,94.0,,,HRV,HRV_0142,2022-11-30 18:25:40
,wl-rdm,102,344814,0.0-6.94-0.94,0.0,103.0,,,,,,,[],,,,,,56.4,1.0,i,1.0,True,923.0,56.0,59.0,40.0,False,,208.39435068040441,[],"[640, 512]",ColorTask,51.0,95.0,,,HRV,HRV_0142,2022-11-30 18:25:40
,wl-rdm,103,346783,0.0-6.95-0.95,0.0,104.0,,,,,,,[],,,,,,87.9,0.0,u,0.0,True,683.0,41.0,59.0,40.0,False,,230.89297198764132,[],"[640, 512]",ColorTask,52.0,96.0,,,HRV,HRV_0142,2022-11-30 18:25:40
,wl-rdm,104,350219,0.0-6.96-0.96,0.0,105.0,,,,,,,[],,,,,,53.2,0.0,u,0.0,True,2036.0,123.0,59.0,40.0,False,,307.8706588776976,[],"[640, 512]",ColorTask,53.0,97.0,,,HRV,HRV_0142,2022-11-30 18:25:40
,wl-rdm,105,352437,0.0-6.97-0.97,0.0,106.0,,,,,,,[],,,,,,73.6,1.0,i,1.0,True,808.0,49.0,59.0,40.0,False,,324.9371853625926,[],"[640, 512]",ColorTask,54.0,98.0,,,HRV,HRV_0142,2022-11-30 18:25:40
,wl-rdm,106,354470,0.0-6.98-0.98,0.0,107.0,,,,,,,[],,,,,,56.4,1.0,i,1.0,True,690.0,42.0,59.0,40.0,False,,261.5497893255367,[],"[640, 512]",ColorTask,55.0,99.0,,,HRV,HRV_0142,2022-11-30 18:25:40
,wl-rdm,107,356740,0.0-6.99-0.99,0.0,108.0,,,,,,,[],,,,,,50.0,1.0,i,1.0,True,984.0,59.0,59.0,40.0,False,,212.9429114318547,[],"[640, 512]",ColorTask,56.0,100.0,,,HRV,HRV_0142,2022-11-30 18:25:40
,wl-rdm,108,358907,0.0-6.100-0.100,0.0,109.0,,,,,,,[],,,,,,62.5,0.0,u,0.0,True,859.0,52.0,59.0,40.0,False,,246.12487549522436,[],"[640, 512]",ColorTask,57.0,101.0,,,HRV,HRV_0142,2022-11-30 18:25:40
,wl-rdm,109,361126,0.0-6.101-0.101,0.0,110.0,,,,,,,[],,,,,,50.0,0.0,i,1.0,False,756.0,46.0,59.0,40.0,False,,383.33026970525026,[],"[640, 512]",ColorTask,56.0,102.0,,,HRV,HRV_0142,2022-11-30 18:25:40
,wl-rdm,110,363277,0.0-6.102-0.102,0.0,111.0,,,,,,,[],,,,,,50.0,1.0,i,1.0,True,849.0,51.0,59.0,40.0,False,,219.08505484866103,[],"[640, 512]",ColorTask,57.0,103.0,,,HRV,HRV_0142,2022-11-30 18:25:40
,wl-rdm,111,365311,0.0-6.103-0.103,0.0,112.0,,,,,,,[],,,,,,87.9,0.0,u,0.0,True,679.0,41.0,59.0,40.0,False,,276.57311418662755,[],"[640, 512]",ColorTask,58.0,104.0,,,HRV,HRV_0142,2022-11-30 18:25:40
,wl-rdm,112,367595,0.0-6.104-0.104,0.0,113.0,,,,,,,[],,,,,,87.9,1.0,i,1.0,True,960.0,58.0,59.0,40.0,False,,245.30826288217503,[],"[640, 512]",ColorTask,59.0,105.0,,,HRV,HRV_0142,2022-11-30 18:25:40
,wl-rdm,113,370197,0.0-6.105-0.105,0.0,114.0,,,,,,,[],,,,,,53.2,1.0,i,1.0,True,1284.0,77.0,59.0,40.0,False,,245.1596237076973,[],"[640, 512]",ColorTask,60.0,106.0,,,HRV,HRV_0142,2022-11-30 18:25:40
,wl-rdm,114,373133,0.0-6.106-0.106,0.0,115.0,,,,,,,[],,,,,,53.2,1.0,u,0.0,False,1541.0,93.0,59.0,40.0,False,,330.95888134985876,[],"[640, 512]",ColorTask,59.0,107.0,,,HRV,HRV_0142,2022-11-30 18:25:40
,wl-rdm,115,375268,0.0-6.107-0.107,0.0,116.0,,,,,,,[],,,,,,56.4,1.0,i,1.0,True,817.0,49.0,59.0,40.0,False,,249.35050386745525,[],"[640, 512]",ColorTask,60.0,108.0,,,HRV,HRV_0142,2022-11-30 18:25:40
,wl-html-keyboard-response,116,410872,0.0-7.0-0.0,1.0,117.0,,,,,,,,33597.0,1.0,0,,,,,,,,,,,,,,,,,,,,,,HRV,HRV_0142,2022-11-30 18:25:40
,wl-rdm,117,413407,0.0-8.0-0.0,1.0,118.0,,,,,,,[],,,,,,56.4,1.0,i,1.0,True,1089.0,66.0,59.0,40.0,False,,352.73822951954276,[],"[640, 512]",ColorTask,61.0,1.0,,,HRV,HRV_0142,2022-11-30 18:25:40
,wl-rdm,118,415458,0.0-8.1-0.1,1.0,119.0,,,,,,,[],,,,,,87.9,0.0,u,0.0,True,777.0,47.0,59.0,40.0,False,,212.83011605216444,[],"[640, 512]",ColorTask,62.0,2.0,,,HRV,HRV_0142,2022-11-30 18:25:40
,wl-rdm,119,418460,0.0-8.2-0.2,1.0,120.0,,,,,,,[],,,,,,53.2,1.0,u,0.0,False,1516.0,91.0,59.0,40.0,False,,392.1036525309512,[],"[640, 512]",ColorTask,61.0,3.0,,,HRV,HRV_0142,2022-11-30 18:25:40
,wl-rdm,120,420595,0.0-8.3-0.3,1.0,121.0,,,,,,,[],,,,,,87.9,1.0,i,1.0,True,700.0,42.0,59.0,40.0,False,,353.93872207371385,[],"[640, 512]",ColorTask,62.0,4.0,,,HRV,HRV_0142,2022-11-30 18:25:40
,wl-rdm,121,423296,0.0-8.4-0.4,1.0,122.0,,,,,,,[],,,,,,73.6,0.0,u,0.0,True,1336.0,81.0,59.0,40.0,False,,286.26102490538926,[],"[640, 512]",ColorTask,63.0,5.0,,,HRV,HRV_0142,2022-11-30 18:25:40
,wl-rdm,122,425898,0.0-8.5-0.5,1.0,123.0,,,,,,,[],,,,,,53.2,1.0,u,0.0,False,1217.0,73.0,59.0,40.0,False,,321.92040899171695,[],"[640, 512]",ColorTask,62.0,6.0,,,HRV,HRV_0142,2022-11-30 18:25:40
,wl-rdm,123,428199,0.0-8.6-0.6,1.0,124.0,,,,,,,[],,,,,,56.4,1.0,i,1.0,True,857.0,52.0,59.0,40.0,False,,363.7300278712315,[],"[640, 512]",ColorTask,63.0,7.0,,,HRV,HRV_0142,2022-11-30 18:25:40
,wl-rdm,124,430517,0.0-8.7-0.7,1.0,125.0,,,,,,,[],,,,,,62.5,1.0,i,1.0,True,980.0,59.0,59.0,40.0,False,,256.91288758300817,[],"[640, 512]",ColorTask,64.0,8.0,,,HRV,HRV_0142,2022-11-30 18:25:40
,wl-rdm,125,433002,0.0-8.8-0.8,1.0,126.0,,,,,,,[],,,,,,53.2,0.0,i,1.0,False,1159.0,70.0,59.0,40.0,False,,240.96866603091306,[],"[640, 512]",ColorTask,63.0,9.0,,,HRV,HRV_0142,2022-11-30 18:25:40
,wl-rdm,126,435270,0.0-8.9-0.9,1.0,127.0,,,,,,,[],,,,,,50.0,0.0,i,1.0,False,972.0,59.0,59.0,40.0,False,,221.77360632988513,[],"[640, 512]",ColorTask,62.0,10.0,,,HRV,HRV_0142,2022-11-30 18:25:40
,wl-rdm,127,437422,0.0-8.10-0.10,1.0,128.0,,,,,,,[],,,,,,73.6,1.0,i,1.0,True,814.0,49.0,59.0,40.0,False,,250.1227528182158,[],"[640, 512]",ColorTask,63.0,11.0,,,HRV,HRV_0142,2022-11-30 18:25:40
,wl-rdm,128,439640,0.0-8.11-0.11,1.0,129.0,,,,,,,[],,,,,,87.9,0.0,u,0.0,True,846.0,51.0,59.0,40.0,False,,285.0025578319214,[],"[640, 512]",ColorTask,64.0,12.0,,,HRV,HRV_0142,2022-11-30 18:25:40
,wl-rdm,129,442458,0.0-8.12-0.12,1.0,130.0,,,,,,,[],,,,,,53.2,1.0,u,0.0,False,1444.0,87.0,59.0,40.0,False,,298.32917816763205,[],"[640, 512]",ColorTask,63.0,13.0,,,HRV,HRV_0142,2022-11-30 18:25:40
,wl-rdm,130,444726,0.0-8.13-0.13,1.0,131.0,,,,,,,[],,,,,,73.6,0.0,u,0.0,True,974.0,59.0,59.0,40.0,False,,230.1842811405801,[],"[640, 512]",ColorTask,64.0,14.0,,,HRV,HRV_0142,2022-11-30 18:25:40
,wl-rdm,131,447296,0.0-8.14-0.14,1.0,132.0,,,,,,,[],,,,,,50.0,1.0,u,0.0,False,1272.0,77.0,59.0,40.0,False,,205.86877496603927,[],"[640, 512]",ColorTask,63.0,15.0,,,HRV,HRV_0142,2022-11-30 18:25:40
,wl-rdm,132,450231,0.0-8.15-0.15,1.0,133.0,,,,,,,[],,,,,,53.2,0.0,u,0.0,True,1615.0,97.0,59.0,40.0,False,,249.39890227790966,[],"[640, 512]",ColorTask,64.0,16.0,,,HRV,HRV_0142,2022-11-30 18:25:40
,wl-rdm,133,452565,0.0-8.16-0.16,1.0,134.0,,,,,,,[],,,,,,73.6,0.0,u,0.0,True,1040.0,63.0,59.0,40.0,False,,221.95893602947987,[],"[640, 512]",ColorTask,65.0,17.0,,,HRV,HRV_0142,2022-11-30 18:25:40
,wl-rdm,134,454950,0.0-8.17-0.17,1.0,135.0,,,,,,,[],,,,,,56.4,1.0,i,1.0,True,1040.0,63.0,59.0,40.0,False,,276.4906059034613,[],"[640, 512]",ColorTask,66.0,18.0,,,HRV,HRV_0142,2022-11-30 18:25:40
,wl-rdm,135,457585,0.0-8.18-0.18,1.0,136.0,,,,,,,[],,,,,,50.0,1.0,i,1.0,True,1222.0,73.0,59.0,40.0,False,,338.6701333237328,[],"[640, 512]",ColorTask,67.0,19.0,,,HRV,HRV_0142,2022-11-30 18:25:40
,wl-rdm,136,460204,0.0-8.19-0.19,1.0,137.0,,,,,,,[],,,,,,56.4,0.0,u,0.0,True,1319.0,80.0,59.0,40.0,False,,216.01976095644798,[],"[640, 512]",ColorTask,68.0,20.0,,,HRV,HRV_0142,2022-11-30 18:25:40
,wl-rdm,137,462572,0.0-8.20-0.20,1.0,138.0,,,,,,,[],,,,,,73.6,1.0,i,1.0,True,902.0,55.0,59.0,40.0,False,,369.7190057464203,[],"[640, 512]",ColorTask,69.0,21.0,,,HRV,HRV_0142,2022-11-30 18:25:40
,wl-rdm,138,465506,0.0-8.21-0.21,1.0,139.0,,,,,,,[],,,,,,62.5,0.0,i,1.0,False,1537.0,92.0,59.0,40.0,False,,327.98508245723644,[],"[640, 512]",ColorTask,68.0,22.0,,,HRV,HRV_0142,2022-11-30 18:25:40
,wl-rdm,139,467758,0.0-8.22-0.22,1.0,140.0,,,,,,,[],,,,,,87.9,0.0,u,0.0,True,832.0,50.0,59.0,40.0,False,,341.5126323473796,[],"[640, 512]",ColorTask,69.0,23.0,,,HRV,HRV_0142,2022-11-30 18:25:40
,wl-rdm,140,469960,0.0-8.23-0.23,1.0,141.0,,,,,,,[],,,,,,87.9,1.0,i,1.0,True,772.0,47.0,59.0,40.0,False,,345.93344505942605,[],"[640, 512]",ColorTask,70.0,24.0,,,HRV,HRV_0142,2022-11-30 18:25:40
,wl-rdm,141,472194,0.0-8.24-0.24,1.0,142.0,,,,,,,[],,,,,,62.5,1.0,i,1.0,True,911.0,55.0,59.0,40.0,False,,253.05028196071694,[],"[640, 512]",ColorTask,71.0,25.0,,,HRV,HRV_0142,2022-11-30 18:25:40
,wl-rdm,142,474529,0.0-8.25-0.25,1.0,143.0,,,,,,,[],,,,,,62.5,0.0,u,0.0,True,945.0,57.0,59.0,40.0,False,,317.1053905977903,[],"[640, 512]",ColorTask,72.0,26.0,,,HRV,HRV_0142,2022-11-30 18:25:40
,wl-rdm,143,477131,0.0-8.26-0.26,1.0,144.0,,,,,,,[],,,,,,62.5,1.0,i,1.0,True,1135.0,69.0,59.0,40.0,False,,378.7574079114522,[],"[640, 512]",ColorTask,73.0,27.0,,,HRV,HRV_0142,2022-11-30 18:25:40
,wl-rdm,144,479532,0.0-8.27-0.27,1.0,145.0,,,,,,,[],,,,,,50.0,0.0,i,1.0,False,1084.0,65.0,59.0,40.0,False,,242.33409721685746,[],"[640, 512]",ColorTask,72.0,28.0,,,HRV,HRV_0142,2022-11-30 18:25:40
,wl-rdm,145,481734,0.0-8.28-0.28,1.0,146.0,,,,,,,[],,,,,,87.9,1.0,i,1.0,True,833.0,50.0,59.0,40.0,False,,295.43883080361803,[],"[640, 512]",ColorTask,73.0,29.0,,,HRV,HRV_0142,2022-11-30 18:25:40
,wl-rdm,146,483886,0.0-8.29-0.29,1.0,147.0,,,,,,,[],,,,,,73.6,0.0,u,0.0,True,749.0,45.0,59.0,40.0,False,,328.60002674141697,[],"[640, 512]",ColorTask,74.0,30.0,,,HRV,HRV_0142,2022-11-30 18:25:40
,wl-rdm,147,486221,0.0-8.30-0.30,1.0,148.0,,,,,,,[],,,,,,87.9,0.0,u,0.0,True,893.0,54.0,59.0,40.0,False,,362.1756448067686,[],"[640, 512]",ColorTask,75.0,31.0,,,HRV,HRV_0142,2022-11-30 18:25:40
,wl-rdm,148,488737,0.0-8.31-0.31,1.0,149.0,,,,,,,[],,,,,,56.4,1.0,i,1.0,True,1056.0,64.0,59.0,40.0,False,,367.7575219093562,[],"[640, 512]",ColorTask,76.0,32.0,,,HRV,HRV_0142,2022-11-30 18:25:40
,wl-rdm,149,491089,0.0-8.32-0.32,1.0,150.0,,,,,,,[],,,,,,50.0,0.0,i,1.0,False,1054.0,64.0,59.0,40.0,False,,213.5160291106671,[],"[640, 512]",ColorTask,75.0,33.0,,,HRV,HRV_0142,2022-11-30 18:25:40
,wl-rdm,150,493207,0.0-8.33-0.33,1.0,151.0,,,,,,,[],,,,,,87.9,1.0,i,1.0,True,672.0,41.0,59.0,40.0,False,,376.303053644323,[],"[640, 512]",ColorTask,76.0,34.0,,,HRV,HRV_0142,2022-11-30 18:25:40
,wl-rdm,151,495791,0.0-8.34-0.34,1.0,152.0,,,,,,,[],,,,,,53.2,1.0,i,1.0,True,1238.0,75.0,59.0,40.0,False,,258.274311116664,[],"[640, 512]",ColorTask,77.0,35.0,,,HRV,HRV_0142,2022-11-30 18:25:40
,wl-rdm,152,498144,0.0-8.35-0.35,1.0,153.0,,,,,,,[],,,,,,50.0,1.0,u,0.0,False,1039.0,63.0,59.0,40.0,False,,226.2924381963899,[],"[640, 512]",ColorTask,76.0,36.0,,,HRV,HRV_0142,2022-11-30 18:25:40
,wl-rdm,153,501096,0.0-8.36-0.36,1.0,154.0,,,,,,,[],,,,,,56.4,0.0,i,1.0,False,1657.0,100.0,59.0,40.0,False,,213.39963749389855,[],"[640, 512]",ColorTask,75.0,37.0,,,HRV,HRV_0142,2022-11-30 18:25:40
,wl-rdm,154,503247,0.0-8.37-0.37,1.0,155.0,,,,,,,[],,,,,,87.9,0.0,u,0.0,True,697.0,42.0,59.0,40.0,False,,372.4707064647979,[],"[640, 512]",ColorTask,76.0,38.0,,,HRV,HRV_0142,2022-11-30 18:25:40
,wl-rdm,155,505781,0.0-8.38-0.38,1.0,156.0,,,,,,,[],,,,,,53.2,0.0,u,0.0,True,1090.0,66.0,59.0,40.0,False,,382.64899863454605,[],"[640, 512]",ColorTask,77.0,39.0,,,HRV,HRV_0142,2022-11-30 18:25:40
,wl-rdm,156,508065,0.0-8.39-0.39,1.0,157.0,,,,,,,[],,,,,,87.9,0.0,u,0.0,True,835.0,50.0,59.0,40.0,False,,372.6080641117876,[],"[640, 512]",ColorTask,78.0,40.0,,,HRV,HRV_0142,2022-11-30 18:25:40
,wl-rdm,157,510218,0.0-8.40-0.40,1.0,158.0,,,,,,,[],,,,,,73.6,0.0,u,0.0,True,786.0,48.0,59.0,40.0,False,,290.6599757335773,[],"[640, 512]",ColorTask,79.0,41.0,,,HRV,HRV_0142,2022-11-30 18:25:40
,wl-rdm,158,512301,0.0-8.41-0.41,1.0,159.0,,,,,,,[],,,,,,62.5,1.0,i,1.0,True,792.0,48.0,59.0,40.0,False,,202.43256904923115,[],"[640, 512]",ColorTask,80.0,42.0,,,HRV,HRV_0142,2022-11-30 18:25:40
,wl-rdm,159,514620,0.0-8.42-0.42,1.0,160.0,,,,,,,[],,,,,,62.5,0.0,u,0.0,True,941.0,57.0,59.0,40.0,False,,305.0931573685547,[],"[640, 512]",ColorTask,81.0,43.0,,,HRV,HRV_0142,2022-11-30 18:25:40
,wl-rdm,160,517120,0.0-8.43-0.43,1.0,161.0,,,,,,,[],,,,,,50.0,0.0,u,0.0,True,1162.0,70.0,59.0,40.0,False,,253.13351662129497,[],"[640, 512]",ColorTask,82.0,44.0,,,HRV,HRV_0142,2022-11-30 18:25:40
,wl-rdm,161,520273,0.0-8.44-0.44,1.0,162.0,,,,,,,[],,,,,,50.0,0.0,i,1.0,False,1761.0,106.0,59.0,40.0,False,,319.79881673942987,[],"[640, 512]",ColorTask,81.0,45.0,,,HRV,HRV_0142,2022-11-30 18:25:40
,wl-rdm,162,522891,0.0-8.45-0.45,1.0,163.0,,,,,,,[],,,,,,56.4,1.0,i,1.0,True,1175.0,71.0,59.0,40.0,False,,368.7099364290658,[],"[640, 512]",ColorTask,82.0,46.0,,,HRV,HRV_0142,2022-11-30 18:25:40
,wl-rdm,163,525843,0.0-8.46-0.46,1.0,164.0,,,,,,,[],,,,,,56.4,0.0,u,0.0,True,1559.0,94.0,59.0,40.0,False,,314.65683826807384,[],"[640, 512]",ColorTask,83.0,47.0,,,HRV,HRV_0142,2022-11-30 18:25:40
,wl-rdm,164,528578,0.0-8.47-0.47,1.0,165.0,,,,,,,[],,,,,,50.0,0.0,i,1.0,False,1326.0,80.0,59.0,40.0,False,,335.6511961056244,[],"[640, 512]",ColorTask,82.0,48.0,,,HRV,HRV_0142,2022-11-30 18:25:40
,wl-rdm,165,530846,0.0-8.48-0.48,1.0,166.0,,,,,,,[],,,,,,50.0,1.0,i,1.0,True,974.0,59.0,59.0,40.0,False,,202.46219354680568,[],"[640, 512]",ColorTask,83.0,49.0,,,HRV,HRV_0142,2022-11-30 18:25:40
,wl-rdm,166,533264,0.0-8.49-0.49,1.0,167.0,,,,,,,[],,,,,,73.6,1.0,i,1.0,True,954.0,58.0,59.0,40.0,False,,397.7673063117768,[],"[640, 512]",ColorTask,84.0,50.0,,,HRV,HRV_0142,2022-11-30 18:25:40
,wl-rdm,167,535381,0.0-8.50-0.50,1.0,168.0,,,,,,,[],,,,,,87.9,1.0,i,1.0,True,755.0,46.0,59.0,40.0,False,,281.5213113806674,[],"[640, 512]",ColorTask,85.0,51.0,,,HRV,HRV_0142,2022-11-30 18:25:40
,wl-rdm,168,537550,0.0-8.51-0.51,1.0,169.0,,,,,,,[],,,,,,87.9,1.0,i,1.0,True,722.0,44.0,59.0,40.0,False,,350.55983036608814,[],"[640, 512]",ColorTask,86.0,52.0,,,HRV,HRV_0142,2022-11-30 18:25:40
,wl-rdm,169,540085,0.0-8.52-0.52,1.0,170.0,,,,,,,[],,,,,,53.2,0.0,u,0.0,True,1247.0,75.0,59.0,40.0,False,,216.23336753819942,[],"[640, 512]",ColorTask,87.0,53.0,,,HRV,HRV_0142,2022-11-30 18:25:40
,wl-rdm,170,542537,0.0-8.53-0.53,1.0,171.0,,,,,,,[],,,,,,56.4,0.0,i,1.0,False,1062.0,64.0,59.0,40.0,False,,315.75731686424587,[],"[640, 512]",ColorTask,86.0,54.0,,,HRV,HRV_0142,2022-11-30 18:25:40
,wl-rdm,171,545889,0.0-8.54-0.54,1.0,172.0,,,,,,,[],,,,,,62.5,0.0,u,0.0,True,1981.0,119.0,59.0,40.0,False,,309.35497329635814,[],"[640, 512]",ColorTask,87.0,55.0,,,HRV,HRV_0142,2022-11-30 18:25:40
,wl-rdm,172,548674,0.0-8.55-0.55,1.0,173.0,,,,,,,[],,,,,,50.0,1.0,i,1.0,True,1368.0,82.0,59.0,40.0,False,,340.4165344703953,[],"[640, 512]",ColorTask,88.0,56.0,,,HRV,HRV_0142,2022-11-30 18:25:40
,wl-rdm,173,551292,0.0-8.56-0.56,1.0,174.0,,,,,,,[],,,,,,50.0,0.0,i,1.0,False,1249.0,75.0,59.0,40.0,False,,283.14612621128407,[],"[640, 512]",ColorTask,87.0,57.0,,,HRV,HRV_0142,2022-11-30 18:25:40
,wl-rdm,174,553794,0.0-8.57-0.57,1.0,175.0,,,,,,,[],,,,,,56.4,1.0,i,1.0,True,1202.0,73.0,59.0,40.0,False,,216.87697296280658,[],"[640, 512]",ColorTask,88.0,58.0,,,HRV,HRV_0142,2022-11-30 18:25:40
,wl-rdm,175,556129,0.0-8.58-0.58,1.0,176.0,,,,,,,[],,,,,,73.6,0.0,u,0.0,True,1029.0,62.0,59.0,40.0,False,,229.29790398197878,[],"[640, 512]",ColorTask,89.0,59.0,,,HRV,HRV_0142,2022-11-30 18:25:40
,wl-rdm,176,559029,0.0-8.59-0.59,1.0,177.0,,,,,,,[],,,,,,50.0,1.0,u,0.0,False,1605.0,97.0,59.0,40.0,False,,217.07958374756626,[],"[640, 512]",ColorTask,88.0,60.0,,,HRV,HRV_0142,2022-11-30 18:25:40
,wl-rdm,177,561882,0.0-8.60-0.60,1.0,178.0,,,,,,,[],,,,,,53.2,0.0,u,0.0,True,1444.0,87.0,59.0,40.0,False,,333.62642847739824,[],"[640, 512]",ColorTask,89.0,61.0,,,HRV,HRV_0142,2022-11-30 18:25:40
,wl-rdm,178,564801,0.0-8.61-0.61,1.0,179.0,,,,,,,[],,,,,,62.5,1.0,i,1.0,True,1587.0,96.0,59.0,40.0,False,,248.82144238352146,[],"[640, 512]",ColorTask,90.0,62.0,,,HRV,HRV_0142,2022-11-30 18:25:40
,wl-rdm,179,566936,0.0-8.62-0.62,1.0,180.0,,,,,,,[],,,,,,87.9,1.0,i,1.0,True,763.0,46.0,59.0,40.0,False,,286.2611751896466,[],"[640, 512]",ColorTask,91.0,63.0,,,HRV,HRV_0142,2022-11-30 18:25:40
,wl-rdm,180,569988,0.0-8.63-0.63,1.0,181.0,,,,,,,[],,,,,,53.2,1.0,u,0.0,False,1676.0,101.0,59.0,40.0,False,,267.1827751246482,[],"[640, 512]",ColorTask,90.0,64.0,,,HRV,HRV_0142,2022-11-30 18:25:40
,wl-rdm,181,572040,0.0-8.64-0.64,1.0,182.0,,,,,,,[],,,,,,87.9,1.0,i,1.0,True,622.0,38.0,59.0,40.0,False,,345.5909384877066,[],"[640, 512]",ColorTask,91.0,65.0,,,HRV,HRV_0142,2022-11-30 18:25:40
,wl-rdm,182,574324,0.0-8.65-0.65,1.0,183.0,,,,,,,[],,,,,,62.5,1.0,i,1.0,True,899.0,54.0,59.0,40.0,False,,327.3891788511097,[],"[640, 512]",ColorTask,92.0,66.0,,,HRV,HRV_0142,2022-11-30 18:25:40
,wl-rdm,183,576459,0.0-8.66-0.66,1.0,184.0,,,,,,,[],,,,,,73.6,1.0,i,1.0,True,810.0,49.0,59.0,40.0,False,,265.3682286022521,[],"[640, 512]",ColorTask,93.0,67.0,,,HRV,HRV_0142,2022-11-30 18:25:40
,wl-rdm,184,579227,0.0-8.67-0.67,1.0,185.0,,,,,,,[],,,,,,56.4,1.0,i,1.0,True,1411.0,85.0,59.0,40.0,False,,292.47827187547693,[],"[640, 512]",ColorTask,94.0,68.0,,,HRV,HRV_0142,2022-11-30 18:25:40
,wl-rdm,185,581863,0.0-8.68-0.68,1.0,186.0,,,,,,,[],,,,,,73.6,1.0,i,1.0,True,1248.0,75.0,59.0,40.0,False,,301.80352732399274,[],"[640, 512]",ColorTask,95.0,69.0,,,HRV,HRV_0142,2022-11-30 18:25:40
,wl-rdm,186,584097,0.0-8.69-0.69,1.0,187.0,,,,,,,[],,,,,,53.2,0.0,i,1.0,False,837.0,51.0,59.0,40.0,False,,303.9249514168011,[],"[640, 512]",ColorTask,94.0,70.0,,,HRV,HRV_0142,2022-11-30 18:25:40
,wl-rdm,187,586981,0.0-8.70-0.70,1.0,188.0,,,,,,,[],,,,,,73.6,0.0,u,0.0,True,1407.0,85.0,59.0,40.0,False,,388.280590745332,[],"[640, 512]",ColorTask,95.0,71.0,,,HRV,HRV_0142,2022-11-30 18:25:40
,wl-rdm,188,590584,0.0-8.71-0.71,1.0,189.0,,,,,,,[],,,,,,50.0,1.0,u,0.0,False,2288.0,138.0,59.0,40.0,False,,242.2403248583752,[],"[640, 512]",ColorTask,94.0,72.0,,,HRV,HRV_0142,2022-11-30 18:25:40
,wl-rdm,189,592752,0.0-8.72-0.72,1.0,190.0,,,,,,,[],,,,,,87.9,0.0,u,0.0,True,822.0,50.0,59.0,40.0,False,,262.73683774101306,[],"[640, 512]",ColorTask,95.0,73.0,,,HRV,HRV_0142,2022-11-30 18:25:40
,wl-rdm,190,595971,0.0-8.73-0.73,1.0,191.0,,,,,,,[],,,,,,53.2,0.0,u,0.0,True,1785.0,107.0,59.0,40.0,False,,353.71428286977533,[],"[640, 512]",ColorTask,96.0,74.0,,,HRV,HRV_0142,2022-11-30 18:25:40
,wl-rdm,191,598789,0.0-8.74-0.74,1.0,192.0,,,,,,,[],,,,,,56.4,0.0,i,1.0,False,1525.0,92.0,59.0,40.0,False,,210.85130570006572,[],"[640, 512]",ColorTask,95.0,75.0,,,HRV,HRV_0142,2022-11-30 18:25:40
,wl-rdm,192,601291,0.0-8.75-0.75,1.0,193.0,,,,,,,[],,,,,,62.5,0.0,u,0.0,True,1171.0,71.0,59.0,40.0,False,,238.4441178566223,[],"[640, 512]",ColorTask,96.0,76.0,,,HRV,HRV_0142,2022-11-30 18:25:40
,wl-rdm,193,604008,0.0-8.76-0.76,1.0,194.0,,,,,,,[],,,,,,62.5,0.0,u,0.0,True,1272.0,77.0,59.0,40.0,False,,355.0655862537555,[],"[640, 512]",ColorTask,97.0,77.0,,,HRV,HRV_0142,2022-11-30 18:25:40
,wl-rdm,194,606544,0.0-8.77-0.77,1.0,195.0,,,,,,,[],,,,,,56.4,0.0,u,0.0,True,1138.0,69.0,59.0,40.0,False,,304.57107956457037,[],"[640, 512]",ColorTask,98.0,78.0,,,HRV,HRV_0142,2022-11-30 18:25:40
,wl-rdm,195,609212,0.0-8.78-0.78,1.0,196.0,,,,,,,[],,,,,,62.5,1.0,i,1.0,True,1292.0,78.0,59.0,40.0,False,,289.01587742188485,[],"[640, 512]",ColorTask,99.0,79.0,,,HRV,HRV_0142,2022-11-30 18:25:40
,wl-rdm,196,611530,0.0-8.79-0.79,1.0,197.0,,,,,,,[],,,,,,62.5,1.0,i,1.0,True,903.0,55.0,59.0,40.0,False,,333.93201425150517,[],"[640, 512]",ColorTask,100.0,80.0,,,HRV,HRV_0142,2022-11-30 18:25:40
,wl-rdm,197,613999,0.0-8.80-0.80,1.0,198.0,,,,,,,[],,,,,,73.6,1.0,i,1.0,True,1039.0,63.0,59.0,40.0,False,,337.845798065171,[],"[640, 512]",ColorTask,101.0,81.0,,,HRV,HRV_0142,2022-11-30 18:25:40
,wl-rdm,198,616600,0.0-8.81-0.81,1.0,199.0,,,,,,,[],,,,,,53.2,1.0,i,1.0,True,1305.0,79.0,59.0,40.0,False,,206.2474041178985,[],"[640, 512]",ColorTask,102.0,82.0,,,HRV,HRV_0142,2022-11-30 18:25:40
,wl-rdm,199,619385,0.0-8.82-0.82,1.0,200.0,,,,,,,[],,,,,,53.2,0.0,i,1.0,False,1394.0,84.0,59.0,40.0,False,,334.725869730482,[],"[640, 512]",ColorTask,101.0,83.0,,,HRV,HRV_0142,2022-11-30 18:25:40
,wl-rdm,200,622154,0.0-8.83-0.83,1.0,201.0,,,,,,,[],,,,,,56.4,1.0,i,1.0,True,1354.0,82.0,59.0,40.0,False,,325.85505397063616,[],"[640, 512]",ColorTask,102.0,84.0,,,HRV,HRV_0142,2022-11-30 18:25:40
,wl-rdm,201,624356,0.0-8.84-0.84,1.0,202.0,,,,,,,[],,,,,,87.9,1.0,i,1.0,True,793.0,48.0,59.0,40.0,False,,318.78154758902906,[],"[640, 512]",ColorTask,103.0,85.0,,,HRV,HRV_0142,2022-11-30 18:25:40
,wl-rdm,202,626806,0.0-8.85-0.85,1.0,203.0,,,,,,,[],,,,,,62.5,0.0,u,0.0,True,1056.0,64.0,59.0,40.0,False,,304.84650788586293,[],"[640, 512]",ColorTask,104.0,86.0,,,HRV,HRV_0142,2022-11-30 18:25:40
,wl-rdm,203,629226,0.0-8.86-0.86,1.0,204.0,,,,,,,[],,,,,,73.6,1.0,i,1.0,True,1111.0,67.0,59.0,40.0,False,,251.2186634521989,[],"[640, 512]",ColorTask,105.0,87.0,,,HRV,HRV_0142,2022-11-30 18:25:40
,wl-rdm,204,632477,0.0-8.87-0.87,1.0,205.0,,,,,,,[],,,,,,62.5,1.0,i,1.0,True,1917.0,115.0,59.0,40.0,False,,263.33682049556455,[],"[640, 512]",ColorTask,106.0,88.0,,,HRV,HRV_0142,2022-11-30 18:25:40
,wl-rdm,205,634711,0.0-8.88-0.88,1.0,206.0,,,,,,,[],,,,,,87.9,0.0,u,0.0,True,755.0,46.0,59.0,40.0,False,,398.55212537165664,[],"[640, 512]",ColorTask,107.0,89.0,,,HRV,HRV_0142,2022-11-30 18:25:40
,wl-rdm,206,637647,0.0-8.89-0.89,1.0,207.0,,,,,,,[],,,,,,56.4,1.0,u,0.0,False,1474.0,89.0,59.0,40.0,False,,369.8096443916394,[],"[640, 512]",ColorTask,106.0,90.0,,,HRV,HRV_0142,2022-11-30 18:25:40
,wl-rdm,207,640982,0.0-8.90-0.90,1.0,208.0,,,,,,,[],,,,,,50.0,1.0,i,1.0,True,1915.0,115.0,59.0,40.0,False,,337.6668198335173,[],"[640, 512]",ColorTask,107.0,91.0,,,HRV,HRV_0142,2022-11-30 18:25:40
,wl-rdm,208,643500,0.0-8.91-0.91,1.0,209.0,,,,,,,[],,,,,,50.0,0.0,u,0.0,True,1084.0,65.0,59.0,40.0,False,,378.40057318845925,[],"[640, 512]",ColorTask,108.0,92.0,,,HRV,HRV_0142,2022-11-30 18:25:40
,wl-rdm,209,646202,0.0-8.92-0.92,1.0,210.0,,,,,,,[],,,,,,73.6,1.0,i,1.0,True,1278.0,77.0,59.0,40.0,False,,361.30095948838573,[],"[640, 512]",ColorTask,109.0,93.0,,,HRV,HRV_0142,2022-11-30 18:25:40
,wl-rdm,210,648688,0.0-8.93-0.93,1.0,211.0,,,,,,,[],,,,,,62.5,0.0,u,0.0,True,1005.0,61.0,59.0,40.0,False,,393.1338497140455,[],"[640, 512]",ColorTask,110.0,94.0,,,HRV,HRV_0142,2022-11-30 18:25:40
,wl-rdm,211,651088,0.0-8.94-0.94,1.0,212.0,,,,,,,[],,,,,,62.5,0.0,u,0.0,True,1096.0,66.0,59.0,40.0,False,,218.60703098077371,[],"[640, 512]",ColorTask,111.0,95.0,,,HRV,HRV_0142,2022-11-30 18:25:40
,wl-rdm,212,654324,0.0-8.95-0.95,1.0,213.0,,,,,,,[],,,,,,50.0,1.0,u,0.0,False,1876.0,113.0,59.0,40.0,False,,280.25813730165993,[],"[640, 512]",ColorTask,110.0,96.0,,,HRV,HRV_0142,2022-11-30 18:25:40
,wl-rdm,213,657142,0.0-8.96-0.96,1.0,214.0,,,,,,,[],,,,,,56.4,0.0,i,1.0,False,1531.0,92.0,59.0,40.0,False,,222.28164206040282,[],"[640, 512]",ColorTask,109.0,97.0,,,HRV,HRV_0142,2022-11-30 18:25:40
,wl-rdm,214,659193,0.0-8.97-0.97,1.0,215.0,,,,,,,[],,,,,,87.9,0.0,u,0.0,True,737.0,45.0,59.0,40.0,False,,230.654255440384,[],"[640, 512]",ColorTask,110.0,98.0,,,HRV,HRV_0142,2022-11-30 18:25:40
,wl-rdm,215,661697,0.0-8.98-0.98,1.0,216.0,,,,,,,[],,,,,,53.2,0.0,u,0.0,True,1197.0,72.0,59.0,40.0,False,,244.0887242656739,[],"[640, 512]",ColorTask,111.0,99.0,,,HRV,HRV_0142,2022-11-30 18:25:40
,wl-rdm,216,664580,0.0-8.99-0.99,1.0,217.0,,,,,,,[],,,,,,53.2,1.0,i,1.0,True,1469.0,88.0,59.0,40.0,False,,341.52140771472534,[],"[640, 512]",ColorTask,112.0,100.0,,,HRV,HRV_0142,2022-11-30 18:25:40
,wl-rdm,217,667148,0.0-8.100-0.100,1.0,218.0,,,,,,,[],,,,,,56.4,0.0,u,0.0,True,1149.0,69.0,59.0,40.0,False,,342.7834157736745,[],"[640, 512]",ColorTask,113.0,101.0,,,HRV,HRV_0142,2022-11-30 18:25:40
,wl-rdm,218,669366,0.0-8.101-0.101,1.0,219.0,,,,,,,[],,,,,,53.2,1.0,u,0.0,False,883.0,53.0,59.0,40.0,False,,263.7271643467939,[],"[640, 512]",ColorTask,112.0,102.0,,,HRV,HRV_0142,2022-11-30 18:25:40
,wl-rdm,219,672101,0.0-8.102-0.102,1.0,220.0,,,,,,,[],,,,,,53.2,1.0,i,1.0,True,1283.0,77.0,59.0,40.0,False,,382.59675058937694,[],"[640, 512]",ColorTask,113.0,103.0,,,HRV,HRV_0142,2022-11-30 18:25:40
,wl-rdm,220,674586,0.0-8.103-0.103,1.0,221.0,,,,,,,[],,,,,,73.6,1.0,i,1.0,True,1126.0,68.0,59.0,40.0,False,,290.62097846799855,[],"[640, 512]",ColorTask,114.0,104.0,,,HRV,HRV_0142,2022-11-30 18:25:40
,wl-rdm,221,676940,0.0-8.104-0.104,1.0,222.0,,,,,,,[],,,,,,73.6,0.0,u,0.0,True,1010.0,61.0,59.0,40.0,False,,261.29218698938996,[],"[640, 512]",ColorTask,115.0,105.0,,,HRV,HRV_0142,2022-11-30 18:25:40
,wl-rdm,222,679289,0.0-8.105-0.105,1.0,223.0,,,,,,,[],,,,,,56.4,0.0,u,0.0,True,956.0,58.0,59.0,40.0,False,,314.1415584766769,[],"[640, 512]",ColorTask,116.0,106.0,,,HRV,HRV_0142,2022-11-30 18:25:40
,wl-rdm,223,681341,0.0-8.106-0.106,1.0,224.0,,,,,,,[],,,,,,73.6,0.0,u,0.0,True,683.0,41.0,59.0,40.0,False,,285.30545464600254,[],"[640, 512]",ColorTask,117.0,107.0,,,HRV,HRV_0142,2022-11-30 18:25:40
,wl-rdm,224,684076,0.0-8.107-0.107,1.0,225.0,,,,,,,[],,,,,,50.0,0.0,u,0.0,True,1268.0,76.0,59.0,40.0,False,,394.9878228196451,[],"[640, 512]",ColorTask,118.0,108.0,,,HRV,HRV_0142,2022-11-30 18:25:40
,wl-html-button-response,225,688370,0.0-9.0-0.0,,,,,,,,,,4289.0,,0,,,,,,,,,,,,,,,,,,,,<h3>End of this session. Thank you!</h3><br>,['Close window'],HRV,HRV_0142,2022-11-30 18:25:40
