trialN,stimuli,question,trialStartTime,trialStartTime_UNIX,stimulus1,rt,receivedResponse,rating,trialEndTime,trialDuration,stimulus1Loaded,exp,subjectId,date
0,"[{'imgObject': {}, 'id': 'shreddedwheatwithmilk', 'src': '/static/foodstim60/shreddedwheatwithmilk.jpg', 'key': 'NaN', 'origWidth': 410, 'origHeight': 410, 'width': 410, 'height': 410, 'widthPercent': 0.8, 'rescaleHeight': True, 'trialN': 0, 'loaded': True, 'loadedTime': 2016.4000000953674, 'positionName': 'CENTER', 'positionCoords': [755, 395]}]",Rate how much you want to eat this food from 0 (least) to 10 (most).,2298.2000000476837,1669829733599,shreddedwheatwithmilk,2732.2999999523163,True,1.1,5030.5,2732.2999999523163,True,HRV,HRV_0098,2022-11-30 17:37:27
1,"[{'imgObject': {}, 'id': 'fruitsalad', 'src': '/static/foodstim60/fruitsalad.jpg', 'key': 'NaN', 'origWidth': 410, 'origHeight': 410, 'width': 410, 'height': 410, 'widthPercent': 0.8, 'rescaleHeight': True, 'trialN': 1, 'loaded': True, 'loadedTime': 2018.9000000953674, 'positionName': 'CENTER', 'positionCoords': [755, 395]}]",Rate how much you want to eat this food from 0 (least) to 10 (most).,5032.300000071526,1669829736334,fruitsalad,1862.1000000238419,True,6.12,6894.400000095367,1862.1000000238419,True,HRV,HRV_0098,2022-11-30 17:37:27
2,"[{'imgObject': {}, 'id': 'veggieswithdip', 'src': '/static/foodstim60/veggieswithdip.jpg', 'key': 'NaN', 'origWidth': 409, 'origHeight': 409, 'width': 409, 'height': 409, 'widthPercent': 0.8, 'rescaleHeight': True, 'trialN': 2, 'loaded': True, 'loadedTime': 2020.2000000476837, 'positionName': 'CENTER', 'positionCoords': [755.5, 395.5]}]",Rate how much you want to eat this food from 0 (least) to 10 (most).,6895.100000023842,1669829738196,veggieswithdip,2352.399999976158,True,0.0,9247.5,2352.399999976158,True,HRV,HRV_0098,2022-11-30 17:37:27
3,"[{'imgObject': {}, 'id': 'cherries', 'src': '/static/foodstim60/cherries.jpg', 'key': 'NaN', 'origWidth': 410, 'origHeight': 411, 'width': 410, 'height': 411, 'widthPercent': 0.8, 'rescaleHeight': True, 'trialN': 3, 'loaded': True, 'loadedTime': 2034.5, 'positionName': 'CENTER', 'positionCoords': [755, 394.5]}]",Rate how much you want to eat this food from 0 (least) to 10 (most).,9248.400000095367,1669829740550,cherries,1582.0,True,4.2,10830.400000095367,1582.0,True,HRV,HRV_0098,2022-11-30 17:37:27
4,"[{'imgObject': {}, 'id': 'Tribe humus pita', 'src': '/static/foodstim60/Tribe humus pita.jpg', 'key': 'NaN', 'origWidth': 411, 'origHeight': 411, 'width': 411, 'height': 411, 'widthPercent': 0.8, 'rescaleHeight': True, 'trialN': 4, 'loaded': True, 'loadedTime': 2035.8000000715256, 'positionName': 'CENTER', 'positionCoords': [754.5, 394.5]}]",Rate how much you want to eat this food from 0 (least) to 10 (most).,10831.100000023842,1669829742132,Tribe humus pita,1645.3999999761581,True,1.05,12476.5,1645.3999999761581,True,HRV,HRV_0098,2022-11-30 17:37:27
5,"[{'imgObject': {}, 'id': 'chicken nuggets2', 'src': '/static/foodstim60/chicken nuggets2.jpg', 'key': 'NaN', 'origWidth': 410, 'origHeight': 409, 'width': 410, 'height': 409, 'widthPercent': 0.8, 'rescaleHeight': True, 'trialN': 5, 'loaded': True, 'loadedTime': 2052.2000000476837, 'positionName': 'CENTER', 'positionCoords': [755, 395.5]}]",Rate how much you want to eat this food from 0 (least) to 10 (most).,12477.100000023842,1669829743778,chicken nuggets2,2857.5,True,2.75,15334.600000023842,2857.5,True,HRV,HRV_0098,2022-11-30 17:37:27
6,"[{'imgObject': {}, 'id': 'ice cream sundae 002', 'src': '/static/foodstim60/ice cream sundae 002.jpg', 'key': 'NaN', 'origWidth': 409, 'origHeight': 409, 'width': 409, 'height': 409, 'widthPercent': 0.8, 'rescaleHeight': True, 'trialN': 6, 'loaded': True, 'loadedTime': 2053.9000000953674, 'positionName': 'CENTER', 'positionCoords': [755.5, 395.5]}]",Rate how much you want to eat this food from 0 (least) to 10 (most).,15335.400000095367,1669829746637,ice cream sundae 002,2221.7999999523163,True,7.82,17557.200000047684,2221.7999999523163,True,HRV,HRV_0098,2022-11-30 17:37:27
7,"[{'imgObject': {}, 'id': 'salad w chicken', 'src': '/static/foodstim60/salad w chicken.jpg', 'key': 'NaN', 'origWidth': 411, 'origHeight': 411, 'width': 411, 'height': 411, 'widthPercent': 0.8, 'rescaleHeight': True, 'trialN': 7, 'loaded': True, 'loadedTime': 2055.3000000715256, 'positionName': 'CENTER', 'positionCoords': [754.5, 394.5]}]",Rate how much you want to eat this food from 0 (least) to 10 (most).,17558.100000023842,1669829748859,salad w chicken,2662.7000000476837,True,6.96,20220.800000071526,2662.7000000476837,True,HRV,HRV_0098,2022-11-30 17:37:27
8,"[{'imgObject': {}, 'id': 'cherry tomato', 'src': '/static/foodstim60/cherry tomato.jpg', 'key': 'NaN', 'origWidth': 410, 'origHeight': 410, 'width': 410, 'height': 410, 'widthPercent': 0.8, 'rescaleHeight': True, 'trialN': 8, 'loaded': True, 'loadedTime': 2066.7000000476837, 'positionName': 'CENTER', 'positionCoords': [755, 395]}]",Rate how much you want to eat this food from 0 (least) to 10 (most).,20221.800000071526,1669829751523,cherry tomato,1838.7999999523163,True,0.0,22060.600000023842,1838.7999999523163,True,HRV,HRV_0098,2022-11-30 17:37:27
9,"[{'imgObject': {}, 'id': 'strawberries', 'src': '/static/foodstim60/strawberries.jpg', 'key': 'NaN', 'origWidth': 410, 'origHeight': 410, 'width': 410, 'height': 410, 'widthPercent': 0.8, 'rescaleHeight': True, 'trialN': 9, 'loaded': True, 'loadedTime': 2084.4000000953674, 'positionName': 'CENTER', 'positionCoords': [755, 395]}]",Rate how much you want to eat this food from 0 (least) to 10 (most).,22061.600000023842,1669829753363,strawberries,1792.8999999761581,True,4.12,23854.5,1792.8999999761581,True,HRV,HRV_0098,2022-11-30 17:37:27
10,"[{'imgObject': {}, 'id': 'apple slices', 'src': '/static/foodstim60/apple slices.jpg', 'key': 'NaN', 'origWidth': 409, 'origHeight': 410, 'width': 409, 'height': 410, 'widthPercent': 0.8, 'rescaleHeight': True, 'trialN': 10, 'loaded': True, 'loadedTime': 2085.8000000715256, 'positionName': 'CENTER', 'positionCoords': [755.5, 395]}]",Rate how much you want to eat this food from 0 (least) to 10 (most).,23855.200000047684,1669829755156,apple slices,1629.2000000476837,True,2.17,25484.400000095367,1629.2000000476837,True,HRV,HRV_0098,2022-11-30 17:37:27
11,"[{'imgObject': {}, 'id': 'steak', 'src': '/static/foodstim60/steak.jpg', 'key': 'NaN', 'origWidth': 410, 'origHeight': 410, 'width': 410, 'height': 410, 'widthPercent': 0.8, 'rescaleHeight': True, 'trialN': 11, 'loaded': True, 'loadedTime': 2092.7000000476837, 'positionName': 'CENTER', 'positionCoords': [755, 395]}]",Rate how much you want to eat this food from 0 (least) to 10 (most).,25485.100000023842,1669829756786,steak,1475.3000000715256,True,8.92,26960.400000095367,1475.3000000715256,True,HRV,HRV_0098,2022-11-30 17:37:27
12,"[{'imgObject': {}, 'id': 'omelette', 'src': '/static/foodstim60/omelette.jpg', 'key': 'NaN', 'origWidth': 410, 'origHeight': 409, 'width': 410, 'height': 409, 'widthPercent': 0.8, 'rescaleHeight': True, 'trialN': 12, 'loaded': True, 'loadedTime': 2096.100000023842, 'positionName': 'CENTER', 'positionCoords': [755, 395.5]}]",Rate how much you want to eat this food from 0 (least) to 10 (most).,26961.100000023842,1669829758262,omelette,1823.5,True,0.0,28784.600000023842,1823.5,True,HRV,HRV_0098,2022-11-30 17:37:27
13,"[{'imgObject': {}, 'id': 'blackbeanswithrice', 'src': '/static/foodstim60/blackbeanswithrice.jpg', 'key': 'NaN', 'origWidth': 410, 'origHeight': 410, 'width': 410, 'height': 410, 'widthPercent': 0.8, 'rescaleHeight': True, 'trialN': 13, 'loaded': True, 'loadedTime': 2098.100000023842, 'positionName': 'CENTER', 'positionCoords': [755, 395]}]",Rate how much you want to eat this food from 0 (least) to 10 (most).,28785.900000095367,1669829760087,blackbeanswithrice,1862.5999999046326,True,0.01,30648.5,1862.5999999046326,True,HRV,HRV_0098,2022-11-30 17:37:27
14,"[{'imgObject': {}, 'id': 'mac & cheese', 'src': '/static/foodstim60/mac & cheese.jpg', 'key': 'NaN', 'origWidth': 410, 'origHeight': 410, 'width': 410, 'height': 410, 'widthPercent': 0.8, 'rescaleHeight': True, 'trialN': 14, 'loaded': True, 'loadedTime': 2099.3000000715256, 'positionName': 'CENTER', 'positionCoords': [755, 395]}]",Rate how much you want to eat this food from 0 (least) to 10 (most).,30649.200000047684,1669829761951,mac & cheese,1723.2999999523163,True,9.03,32372.5,1723.2999999523163,True,HRV,HRV_0098,2022-11-30 17:37:27
15,"[{'imgObject': {}, 'id': 'mango', 'src': '/static/foodstim60/mango.jpg', 'key': 'NaN', 'origWidth': 411, 'origHeight': 411, 'width': 411, 'height': 411, 'widthPercent': 0.8, 'rescaleHeight': True, 'trialN': 15, 'loaded': True, 'loadedTime': 2100.9000000953674, 'positionName': 'CENTER', 'positionCoords': [754.5, 394.5]}]",Rate how much you want to eat this food from 0 (least) to 10 (most).,32373.400000095367,1669829763675,mango,1575.3999999761581,True,1.4000000000000001,33948.800000071526,1575.3999999761581,True,HRV,HRV_0098,2022-11-30 17:37:27
16,"[{'imgObject': {}, 'id': 'rigatoni', 'src': '/static/foodstim60/rigatoni.jpg', 'key': 'NaN', 'origWidth': 411, 'origHeight': 411, 'width': 411, 'height': 411, 'widthPercent': 0.8, 'rescaleHeight': True, 'trialN': 16, 'loaded': True, 'loadedTime': 2105.9000000953674, 'positionName': 'CENTER', 'positionCoords': [754.5, 394.5]}]",Rate how much you want to eat this food from 0 (least) to 10 (most).,33950.200000047684,1669829765251,rigatoni,1552.2999999523163,True,3.81,35502.5,1552.2999999523163,True,HRV,HRV_0098,2022-11-30 17:37:27
17,"[{'imgObject': {}, 'id': 'sweetpotato', 'src': '/static/foodstim60/sweetpotato.jpg', 'key': 'NaN', 'origWidth': 410, 'origHeight': 410, 'width': 410, 'height': 410, 'widthPercent': 0.8, 'rescaleHeight': True, 'trialN': 17, 'loaded': True, 'loadedTime': 2108.3000000715256, 'positionName': 'CENTER', 'positionCoords': [755, 395]}]",Rate how much you want to eat this food from 0 (least) to 10 (most).,35503.40000009537,1669829766805,sweetpotato,1675.0999999046326,True,0.91,37178.5,1675.0999999046326,True,HRV,HRV_0098,2022-11-30 17:37:27
18,"[{'imgObject': {}, 'id': 'hotdog w must', 'src': '/static/foodstim60/hotdog w must.jpg', 'key': 'NaN', 'origWidth': 409, 'origHeight': 409, 'width': 409, 'height': 409, 'widthPercent': 0.8, 'rescaleHeight': True, 'trialN': 18, 'loaded': True, 'loadedTime': 2123.7000000476837, 'positionName': 'CENTER', 'positionCoords': [755.5, 395.5]}]",Rate how much you want to eat this food from 0 (least) to 10 (most).,37179.800000071526,1669829768481,hotdog w must,1584.5,True,0.0,38764.300000071526,1584.5,True,HRV,HRV_0098,2022-11-30 17:37:27
19,"[{'imgObject': {}, 'id': 'avocado', 'src': '/static/foodstim60/avocado.jpg', 'key': 'NaN', 'origWidth': 409, 'origHeight': 409, 'width': 409, 'height': 409, 'widthPercent': 0.8, 'rescaleHeight': True, 'trialN': 19, 'loaded': True, 'loadedTime': 2129.7000000476837, 'positionName': 'CENTER', 'positionCoords': [755.5, 395.5]}]",Rate how much you want to eat this food from 0 (least) to 10 (most).,38765.40000009537,1669829770067,avocado,2009.0,True,0.01,40774.40000009537,2009.0,True,HRV,HRV_0098,2022-11-30 17:37:27
20,"[{'imgObject': {}, 'id': 'cantaloupe', 'src': '/static/foodstim60/cantaloupe.jpg', 'key': 'NaN', 'origWidth': 409, 'origHeight': 409, 'width': 409, 'height': 409, 'widthPercent': 0.8, 'rescaleHeight': True, 'trialN': 20, 'loaded': True, 'loadedTime': 2130.7000000476837, 'positionName': 'CENTER', 'positionCoords': [755.5, 395.5]}]",Rate how much you want to eat this food from 0 (least) to 10 (most).,40775.300000071526,1669829772077,cantaloupe,1583.1000000238419,True,0.02,42358.40000009537,1583.1000000238419,True,HRV,HRV_0098,2022-11-30 17:37:27
21,"[{'imgObject': {}, 'id': 'orange slices', 'src': '/static/foodstim60/orange slices.jpg', 'key': 'NaN', 'origWidth': 409, 'origHeight': 410, 'width': 409, 'height': 410, 'widthPercent': 0.8, 'rescaleHeight': True, 'trialN': 21, 'loaded': True, 'loadedTime': 2131.9000000953674, 'positionName': 'CENTER', 'positionCoords': [755.5, 395]}]",Rate how much you want to eat this food from 0 (least) to 10 (most).,42359.300000071526,1669829773661,orange slices,2639.0,True,2.2600000000000002,44998.300000071526,2639.0,True,HRV,HRV_0098,2022-11-30 17:37:27
22,"[{'imgObject': {}, 'id': 'turkey sandwich', 'src': '/static/foodstim60/turkey sandwich.jpg', 'key': 'NaN', 'origWidth': 409, 'origHeight': 409, 'width': 409, 'height': 409, 'widthPercent': 0.8, 'rescaleHeight': True, 'trialN': 22, 'loaded': True, 'loadedTime': 2136.3000000715256, 'positionName': 'CENTER', 'positionCoords': [755.5, 395.5]}]",Rate how much you want to eat this food from 0 (least) to 10 (most).,44999.0,1669829776300,turkey sandwich,1756.2000000476837,True,3.93,46755.200000047684,1756.2000000476837,True,HRV,HRV_0098,2022-11-30 17:37:27
23,"[{'imgObject': {}, 'id': 'luckycharms', 'src': '/static/foodstim60/luckycharms.jpg', 'key': 'NaN', 'origWidth': 410, 'origHeight': 409, 'width': 410, 'height': 409, 'widthPercent': 0.8, 'rescaleHeight': True, 'trialN': 23, 'loaded': True, 'loadedTime': 2137.5, 'positionName': 'CENTER', 'positionCoords': [755, 395.5]}]",Rate how much you want to eat this food from 0 (least) to 10 (most).,46756.10000002384,1669829778057,luckycharms,2506.399999976158,True,3.15,49262.5,2506.399999976158,True,HRV,HRV_0098,2022-11-30 17:37:27
24,"[{'imgObject': {}, 'id': 'corn cob', 'src': '/static/foodstim60/corn cob.jpg', 'key': 'NaN', 'origWidth': 411, 'origHeight': 411, 'width': 411, 'height': 411, 'widthPercent': 0.8, 'rescaleHeight': True, 'trialN': 24, 'loaded': True, 'loadedTime': 2138.7000000476837, 'positionName': 'CENTER', 'positionCoords': [754.5, 394.5]}]",Rate how much you want to eat this food from 0 (least) to 10 (most).,49263.300000071526,1669829780565,corn cob,2057.100000023842,True,2.2600000000000002,51320.40000009537,2057.100000023842,True,HRV,HRV_0098,2022-11-30 17:37:27
25,"[{'imgObject': {}, 'id': 'rigatoni and sauce', 'src': '/static/foodstim60/rigatoni and sauce.jpg', 'key': 'NaN', 'origWidth': 410, 'origHeight': 411, 'width': 410, 'height': 411, 'widthPercent': 0.8, 'rescaleHeight': True, 'trialN': 25, 'loaded': True, 'loadedTime': 2140.100000023842, 'positionName': 'CENTER', 'positionCoords': [755, 394.5]}]",Rate how much you want to eat this food from 0 (least) to 10 (most).,51321.10000002384,1669829782622,rigatoni and sauce,1855.3999999761581,True,6.23,53176.5,1855.3999999761581,True,HRV,HRV_0098,2022-11-30 17:37:27
26,"[{'imgObject': {}, 'id': 'raspberries', 'src': '/static/foodstim60/raspberries.jpg', 'key': 'NaN', 'origWidth': 411, 'origHeight': 411, 'width': 411, 'height': 411, 'widthPercent': 0.8, 'rescaleHeight': True, 'trialN': 26, 'loaded': True, 'loadedTime': 2141, 'positionName': 'CENTER', 'positionCoords': [754.5, 394.5]}]",Rate how much you want to eat this food from 0 (least) to 10 (most).,53177.200000047684,1669829784478,raspberries,1810.1000000238419,True,3.59,54987.300000071526,1810.1000000238419,True,HRV,HRV_0098,2022-11-30 17:37:27
27,"[{'imgObject': {}, 'id': 'kiwi', 'src': '/static/foodstim60/kiwi.jpg', 'key': 'NaN', 'origWidth': 410, 'origHeight': 410, 'width': 410, 'height': 410, 'widthPercent': 0.8, 'rescaleHeight': True, 'trialN': 27, 'loaded': True, 'loadedTime': 2141.7000000476837, 'positionName': 'CENTER', 'positionCoords': [755, 395]}]",Rate how much you want to eat this food from 0 (least) to 10 (most).,54988.200000047684,1669829786289,kiwi,1682.2000000476837,True,0.0,56670.40000009537,1682.2000000476837,True,HRV,HRV_0098,2022-11-30 17:37:27
28,"[{'imgObject': {}, 'id': 'granola w milk', 'src': '/static/foodstim60/granola w milk.jpg', 'key': 'NaN', 'origWidth': 410, 'origHeight': 410, 'width': 410, 'height': 410, 'widthPercent': 0.8, 'rescaleHeight': True, 'trialN': 28, 'loaded': True, 'loadedTime': 2142.5, 'positionName': 'CENTER', 'positionCoords': [755, 395]}]",Rate how much you want to eat this food from 0 (least) to 10 (most).,56671.40000009537,1669829787973,granola w milk,1491.0,True,0.84,58162.40000009537,1491.0,True,HRV,HRV_0098,2022-11-30 17:37:27
29,"[{'imgObject': {}, 'id': 'eggsalad', 'src': '/static/foodstim60/eggsalad.jpg', 'key': 'NaN', 'origWidth': 410, 'origHeight': 409, 'width': 410, 'height': 409, 'widthPercent': 0.8, 'rescaleHeight': True, 'trialN': 29, 'loaded': True, 'loadedTime': 2143.4000000953674, 'positionName': 'CENTER', 'positionCoords': [755, 395.5]}]",Rate how much you want to eat this food from 0 (least) to 10 (most).,58163.300000071526,1669829789465,eggsalad,2483.100000023842,True,1.34,60646.40000009537,2483.100000023842,True,HRV,HRV_0098,2022-11-30 17:37:27
30,"[{'imgObject': {}, 'id': 'salmon', 'src': '/static/foodstim60/salmon.jpg', 'key': 'NaN', 'origWidth': 410, 'origHeight': 409, 'width': 410, 'height': 409, 'widthPercent': 0.8, 'rescaleHeight': True, 'trialN': 30, 'loaded': True, 'loadedTime': 2144.7000000476837, 'positionName': 'CENTER', 'positionCoords': [755, 395.5]}]",Rate how much you want to eat this food from 0 (least) to 10 (most).,60647.10000002384,1669829791948,salmon,1701.3000000715256,True,3.09,62348.40000009537,1701.3000000715256,True,HRV,HRV_0098,2022-11-30 17:37:27
31,"[{'imgObject': {}, 'id': 'seaweed', 'src': '/static/foodstim60/seaweed.jpg', 'key': 'NaN', 'origWidth': 410, 'origHeight': 410, 'width': 410, 'height': 410, 'widthPercent': 0.8, 'rescaleHeight': True, 'trialN': 31, 'loaded': True, 'loadedTime': 2146.7000000476837, 'positionName': 'CENTER', 'positionCoords': [755, 395]}]",Rate how much you want to eat this food from 0 (least) to 10 (most).,62349.10000002384,1669829793650,seaweed,2041.3000000715256,True,0.0,64390.40000009537,2041.3000000715256,True,HRV,HRV_0098,2022-11-30 17:37:27
32,"[{'imgObject': {}, 'id': 'turkeysandwich', 'src': '/static/foodstim60/turkeysandwich.jpg', 'key': 'NaN', 'origWidth': 409, 'origHeight': 409, 'width': 409, 'height': 409, 'widthPercent': 0.8, 'rescaleHeight': True, 'trialN': 32, 'loaded': True, 'loadedTime': 2155.600000023842, 'positionName': 'CENTER', 'positionCoords': [755.5, 395.5]}]",Rate how much you want to eat this food from 0 (least) to 10 (most).,64391.200000047684,1669829795692,turkeysandwich,1645.2000000476837,True,4.16,66036.40000009537,1645.2000000476837,True,HRV,HRV_0098,2022-11-30 17:37:27
33,"[{'imgObject': {}, 'id': 'burrito', 'src': '/static/foodstim60/burrito.jpg', 'key': 'NaN', 'origWidth': 410, 'origHeight': 410, 'width': 410, 'height': 410, 'widthPercent': 0.8, 'rescaleHeight': True, 'trialN': 33, 'loaded': True, 'loadedTime': 2157.8000000715256, 'positionName': 'CENTER', 'positionCoords': [755, 395]}]",Rate how much you want to eat this food from 0 (least) to 10 (most).,66037.10000002384,1669829797338,burrito,1685.3000000715256,True,3.31,67722.40000009537,1685.3000000715256,True,HRV,HRV_0098,2022-11-30 17:37:27
34,"[{'imgObject': {}, 'id': 'raisin bran w milk', 'src': '/static/foodstim60/raisin bran w milk.jpg', 'key': 'NaN', 'origWidth': 411, 'origHeight': 411, 'width': 411, 'height': 411, 'widthPercent': 0.8, 'rescaleHeight': True, 'trialN': 34, 'loaded': True, 'loadedTime': 2159.2000000476837, 'positionName': 'CENTER', 'positionCoords': [754.5, 394.5]}]",Rate how much you want to eat this food from 0 (least) to 10 (most).,67723.20000004768,1669829799024,raisin bran w milk,1770.0,True,0.86,69493.20000004768,1770.0,True,HRV,HRV_0098,2022-11-30 17:37:27
35,"[{'imgObject': {}, 'id': 'mashed potato', 'src': '/static/foodstim60/mashed potato.jpg', 'key': 'NaN', 'origWidth': 409, 'origHeight': 409, 'width': 409, 'height': 409, 'widthPercent': 0.8, 'rescaleHeight': True, 'trialN': 35, 'loaded': True, 'loadedTime': 2173.100000023842, 'positionName': 'CENTER', 'positionCoords': [755.5, 395.5]}]",Rate how much you want to eat this food from 0 (least) to 10 (most).,69493.80000007153,1669829800795,mashed potato,2204.6999999284744,True,4.97,71698.5,2204.6999999284744,True,HRV,HRV_0098,2022-11-30 17:37:27
36,"[{'imgObject': {}, 'id': 'popsicles', 'src': '/static/foodstim60/popsicles.jpg', 'key': 'NaN', 'origWidth': 410, 'origHeight': 410, 'width': 410, 'height': 410, 'widthPercent': 0.8, 'rescaleHeight': True, 'trialN': 36, 'loaded': True, 'loadedTime': 2174.4000000953674, 'positionName': 'CENTER', 'positionCoords': [755, 395]}]",Rate how much you want to eat this food from 0 (least) to 10 (most).,71699.20000004768,1669829803001,popsicles,1955.1000000238419,True,0.4,73654.30000007153,1955.1000000238419,True,HRV,HRV_0098,2022-11-30 17:37:27
37,"[{'imgObject': {}, 'id': 'burger', 'src': '/static/foodstim60/burger.jpg', 'key': 'NaN', 'origWidth': 409, 'origHeight': 409, 'width': 409, 'height': 409, 'widthPercent': 0.8, 'rescaleHeight': True, 'trialN': 37, 'loaded': True, 'loadedTime': 2175.7000000476837, 'positionName': 'CENTER', 'positionCoords': [755.5, 395.5]}]",Rate how much you want to eat this food from 0 (least) to 10 (most).,73655.10000002384,1669829804956,burger,1475.2000000476837,True,6.16,75130.30000007153,1475.2000000476837,True,HRV,HRV_0098,2022-11-30 17:37:27
38,"[{'imgObject': {}, 'id': 'yogurt no spoon', 'src': '/static/foodstim60/yogurt no spoon.jpg', 'key': 'NaN', 'origWidth': 411, 'origHeight': 410, 'width': 411, 'height': 410, 'widthPercent': 0.8, 'rescaleHeight': True, 'trialN': 38, 'loaded': True, 'loadedTime': 2189.8000000715256, 'positionName': 'CENTER', 'positionCoords': [754.5, 395]}]",Rate how much you want to eat this food from 0 (least) to 10 (most).,75131.0,1669829806432,yogurt no spoon,1623.4000000953674,True,1.97,76754.40000009537,1623.4000000953674,True,HRV,HRV_0098,2022-11-30 17:37:27
39,"[{'imgObject': {}, 'id': 'fried eggs', 'src': '/static/foodstim60/fried eggs.jpg', 'key': 'NaN', 'origWidth': 410, 'origHeight': 410, 'width': 410, 'height': 410, 'widthPercent': 0.8, 'rescaleHeight': True, 'trialN': 39, 'loaded': True, 'loadedTime': 2191, 'positionName': 'CENTER', 'positionCoords': [755, 395]}]",Rate how much you want to eat this food from 0 (least) to 10 (most).,76755.10000002384,1669829808056,fried eggs,1855.2000000476837,True,1.03,78610.30000007153,1855.2000000476837,True,HRV,HRV_0098,2022-11-30 17:37:27
40,"[{'imgObject': {}, 'id': 'banana', 'src': '/static/foodstim60/banana.jpg', 'key': 'NaN', 'origWidth': 410, 'origHeight': 410, 'width': 410, 'height': 410, 'widthPercent': 0.8, 'rescaleHeight': True, 'trialN': 40, 'loaded': True, 'loadedTime': 2192.100000023842, 'positionName': 'CENTER', 'positionCoords': [755, 395]}]",Rate how much you want to eat this food from 0 (least) to 10 (most).,78611.10000002384,1669829809912,banana,1707.3000000715256,True,4.15,80318.40000009537,1707.3000000715256,True,HRV,HRV_0098,2022-11-30 17:37:27
41,"[{'imgObject': {}, 'id': 'lox', 'src': '/static/foodstim60/lox.jpg', 'key': 'NaN', 'origWidth': 410, 'origHeight': 411, 'width': 410, 'height': 411, 'widthPercent': 0.8, 'rescaleHeight': True, 'trialN': 41, 'loaded': True, 'loadedTime': 2203.8000000715256, 'positionName': 'CENTER', 'positionCoords': [755, 394.5]}]",Rate how much you want to eat this food from 0 (least) to 10 (most).,80319.10000002384,1669829811620,lox,1939.3999999761581,True,0.06,82258.5,1939.3999999761581,True,HRV,HRV_0098,2022-11-30 17:37:27
42,"[{'imgObject': {}, 'id': 'froot loops w milk', 'src': '/static/foodstim60/froot loops w milk.jpg', 'key': 'NaN', 'origWidth': 410, 'origHeight': 410, 'width': 410, 'height': 410, 'widthPercent': 0.8, 'rescaleHeight': True, 'trialN': 42, 'loaded': True, 'loadedTime': 2205.2000000476837, 'positionName': 'CENTER', 'positionCoords': [755, 395]}]",Rate how much you want to eat this food from 0 (least) to 10 (most).,82259.70000004768,1669829813561,froot loops w milk,1520.7000000476837,True,3.13,83780.40000009537,1520.7000000476837,True,HRV,HRV_0098,2022-11-30 17:37:27
43,"[{'imgObject': {}, 'id': 'cheerios', 'src': '/static/foodstim60/cheerios.jpg', 'key': 'NaN', 'origWidth': 409, 'origHeight': 410, 'width': 409, 'height': 410, 'widthPercent': 0.8, 'rescaleHeight': True, 'trialN': 43, 'loaded': True, 'loadedTime': 2206.2000000476837, 'positionName': 'CENTER', 'positionCoords': [755.5, 395]}]",Rate how much you want to eat this food from 0 (least) to 10 (most).,83781.5,1669829815083,cheerios,1388.8000000715256,True,5.0200000000000005,85170.30000007153,1388.8000000715256,True,HRV,HRV_0098,2022-11-30 17:37:27
44,"[{'imgObject': {}, 'id': 'bagel plain', 'src': '/static/foodstim60/bagel plain.jpg', 'key': 'NaN', 'origWidth': 410, 'origHeight': 410, 'width': 410, 'height': 410, 'widthPercent': 0.8, 'rescaleHeight': True, 'trialN': 44, 'loaded': True, 'loadedTime': 2217.5, 'positionName': 'CENTER', 'positionCoords': [755, 395]}]",Rate how much you want to eat this food from 0 (least) to 10 (most).,85171.0,1669829816472,bagel plain,1801.4000000953674,True,3.36,86972.40000009537,1801.4000000953674,True,HRV,HRV_0098,2022-11-30 17:37:27
45,"[{'imgObject': {}, 'id': 'tacos', 'src': '/static/foodstim60/tacos.jpg', 'key': 'NaN', 'origWidth': 411, 'origHeight': 411, 'width': 411, 'height': 411, 'widthPercent': 0.8, 'rescaleHeight': True, 'trialN': 45, 'loaded': True, 'loadedTime': 2218.8000000715256, 'positionName': 'CENTER', 'positionCoords': [754.5, 394.5]}]",Rate how much you want to eat this food from 0 (least) to 10 (most).,86973.40000009537,1669829818274,tacos,2033.0999999046326,True,4.41,89006.5,2033.0999999046326,True,HRV,HRV_0098,2022-11-30 17:37:27
46,"[{'imgObject': {}, 'id': 'cocktailshrimp', 'src': '/static/foodstim60/cocktailshrimp.jpg', 'key': 'NaN', 'origWidth': 410, 'origHeight': 410, 'width': 410, 'height': 410, 'widthPercent': 0.8, 'rescaleHeight': True, 'trialN': 46, 'loaded': True, 'loadedTime': 2219.9000000953674, 'positionName': 'CENTER', 'positionCoords': [755, 395]}]",Rate how much you want to eat this food from 0 (least) to 10 (most).,89007.5,1669829820309,cocktailshrimp,3067.0,True,5.55,92074.5,3067.0,True,HRV,HRV_0098,2022-11-30 17:37:27
47,"[{'imgObject': {}, 'id': 'blueberries', 'src': '/static/foodstim60/blueberries.jpg', 'key': 'NaN', 'origWidth': 411, 'origHeight': 411, 'width': 411, 'height': 411, 'widthPercent': 0.8, 'rescaleHeight': True, 'trialN': 47, 'loaded': True, 'loadedTime': 2233.600000023842, 'positionName': 'CENTER', 'positionCoords': [754.5, 394.5]}]",Rate how much you want to eat this food from 0 (least) to 10 (most).,92075.30000007153,1669829823376,blueberries,2833.0,True,2.56,94908.30000007153,2833.0,True,HRV,HRV_0098,2022-11-30 17:37:27
48,"[{'imgObject': {}, 'id': 'hashbrowns', 'src': '/static/foodstim60/hashbrowns.jpg', 'key': 'NaN', 'origWidth': 411, 'origHeight': 410, 'width': 411, 'height': 410, 'widthPercent': 0.8, 'rescaleHeight': True, 'trialN': 48, 'loaded': True, 'loadedTime': 2234.9000000953674, 'positionName': 'CENTER', 'positionCoords': [754.5, 395]}]",Rate how much you want to eat this food from 0 (least) to 10 (most).,94909.20000004768,1669829826210,hashbrowns,1917.1000000238419,True,0.0,96826.30000007153,1917.1000000238419,True,HRV,HRV_0098,2022-11-30 17:37:27
49,"[{'imgObject': {}, 'id': 'edamame', 'src': '/static/foodstim60/edamame.jpg', 'key': 'NaN', 'origWidth': 409, 'origHeight': 410, 'width': 409, 'height': 410, 'widthPercent': 0.8, 'rescaleHeight': True, 'trialN': 49, 'loaded': True, 'loadedTime': 2235.9000000953674, 'positionName': 'CENTER', 'positionCoords': [755.5, 395]}]",Rate how much you want to eat this food from 0 (least) to 10 (most).,96827.5,1669829828129,edamame,1342.7000000476837,True,0.0,98170.20000004768,1342.7000000476837,True,HRV,HRV_0098,2022-11-30 17:37:27
50,"[{'imgObject': {}, 'id': 'bagel and cc', 'src': '/static/foodstim60/bagel and cc.jpg', 'key': 'NaN', 'origWidth': 410, 'origHeight': 410, 'width': 410, 'height': 410, 'widthPercent': 0.8, 'rescaleHeight': True, 'trialN': 50, 'loaded': True, 'loadedTime': 2247.7000000476837, 'positionName': 'CENTER', 'positionCoords': [755, 395]}]",Rate how much you want to eat this food from 0 (least) to 10 (most).,98171.10000002384,1669829829472,bagel and cc,2065.3000000715256,True,3.8000000000000003,100236.40000009537,2065.3000000715256,True,HRV,HRV_0098,2022-11-30 17:37:27
51,"[{'imgObject': {}, 'id': 'sushi w_condiments', 'src': '/static/foodstim60/sushi w_condiments.jpg', 'key': 'NaN', 'origWidth': 410, 'origHeight': 410, 'width': 410, 'height': 410, 'widthPercent': 0.8, 'rescaleHeight': True, 'trialN': 51, 'loaded': True, 'loadedTime': 2248.7000000476837, 'positionName': 'CENTER', 'positionCoords': [755, 395]}]",Rate how much you want to eat this food from 0 (least) to 10 (most).,100237.80000007153,1669829831539,sushi w_condiments,1682.6000000238419,True,0.0,101920.40000009537,1682.6000000238419,True,HRV,HRV_0098,2022-11-30 17:37:27
52,"[{'imgObject': {}, 'id': 'eggs', 'src': '/static/foodstim60/eggs.jpg', 'key': 'NaN', 'origWidth': 409, 'origHeight': 409, 'width': 409, 'height': 409, 'widthPercent': 0.8, 'rescaleHeight': True, 'trialN': 52, 'loaded': True, 'loadedTime': 2249.7000000476837, 'positionName': 'CENTER', 'positionCoords': [755.5, 395.5]}]",Rate how much you want to eat this food from 0 (least) to 10 (most).,101921.80000007153,1669829833223,eggs,1504.5,True,0.03,103426.30000007153,1504.5,True,HRV,HRV_0098,2022-11-30 17:37:27
53,"[{'imgObject': {}, 'id': 'pear', 'src': '/static/foodstim60/pear.jpg', 'key': 'NaN', 'origWidth': 411, 'origHeight': 410, 'width': 411, 'height': 410, 'widthPercent': 0.8, 'rescaleHeight': True, 'trialN': 53, 'loaded': True, 'loadedTime': 2262, 'positionName': 'CENTER', 'positionCoords': [754.5, 395]}]",Rate how much you want to eat this food from 0 (least) to 10 (most).,103427.40000009537,1669829834728,pear,1598.8999999761581,True,5.0200000000000005,105026.30000007153,1598.8999999761581,True,HRV,HRV_0098,2022-11-30 17:37:27
54,"[{'imgObject': {}, 'id': 'baked potato', 'src': '/static/foodstim60/baked potato.jpg', 'key': 'NaN', 'origWidth': 409, 'origHeight': 410, 'width': 409, 'height': 410, 'widthPercent': 0.8, 'rescaleHeight': True, 'trialN': 54, 'loaded': True, 'loadedTime': 2263.3000000715256, 'positionName': 'CENTER', 'positionCoords': [755.5, 395]}]",Rate how much you want to eat this food from 0 (least) to 10 (most).,105027.5,1669829836329,baked potato,1902.7000000476837,True,3.95,106930.20000004768,1902.7000000476837,True,HRV,HRV_0098,2022-11-30 17:37:27
55,"[{'imgObject': {}, 'id': 'roastedpotatoes', 'src': '/static/foodstim60/roastedpotatoes.jpg', 'key': 'NaN', 'origWidth': 409, 'origHeight': 410, 'width': 409, 'height': 410, 'widthPercent': 0.8, 'rescaleHeight': True, 'trialN': 55, 'loaded': True, 'loadedTime': 2264.600000023842, 'positionName': 'CENTER', 'positionCoords': [755.5, 395]}]",Rate how much you want to eat this food from 0 (least) to 10 (most).,106930.90000009537,1669829838232,roastedpotatoes,1443.6999999284744,True,6.46,108374.60000002384,1443.6999999284744,True,HRV,HRV_0098,2022-11-30 17:37:27
56,"[{'imgObject': {}, 'id': 'Grapes', 'src': '/static/foodstim60/Grapes.jpg', 'key': 'NaN', 'origWidth': 411, 'origHeight': 411, 'width': 411, 'height': 411, 'widthPercent': 0.8, 'rescaleHeight': True, 'trialN': 56, 'loaded': True, 'loadedTime': 2277.600000023842, 'positionName': 'CENTER', 'positionCoords': [754.5, 394.5]}]",Rate how much you want to eat this food from 0 (least) to 10 (most).,108375.10000002384,1669829839676,Grapes,1482.0,True,4.19,109857.10000002384,1482.0,True,HRV,HRV_0098,2022-11-30 17:37:27
57,"[{'imgObject': {}, 'id': 'olives', 'src': '/static/foodstim60/olives.jpg', 'key': 'NaN', 'origWidth': 410, 'origHeight': 410, 'width': 410, 'height': 410, 'widthPercent': 0.8, 'rescaleHeight': True, 'trialN': 57, 'loaded': True, 'loadedTime': 2278.9000000953674, 'positionName': 'CENTER', 'positionCoords': [755, 395]}]",Rate how much you want to eat this food from 0 (least) to 10 (most).,109857.80000007153,1669829841159,olives,2484.600000023842,True,0.0,112342.40000009537,2484.600000023842,True,HRV,HRV_0098,2022-11-30 17:37:27
58,"[{'imgObject': {}, 'id': 'chickenfingers', 'src': '/static/foodstim60/chickenfingers.jpg', 'key': 'NaN', 'origWidth': 410, 'origHeight': 410, 'width': 410, 'height': 410, 'widthPercent': 0.8, 'rescaleHeight': True, 'trialN': 58, 'loaded': True, 'loadedTime': 2279.9000000953674, 'positionName': 'CENTER', 'positionCoords': [755, 395]}]",Rate how much you want to eat this food from 0 (least) to 10 (most).,112343.40000009537,1669829843644,chickenfingers,1450.8999999761581,True,5.65,113794.30000007153,1450.8999999761581,True,HRV,HRV_0098,2022-11-30 17:37:27
59,"[{'imgObject': {}, 'id': 'grilled chicken strips', 'src': '/static/foodstim60/grilled chicken strips.jpg', 'key': 'NaN', 'origWidth': 410, 'origHeight': 411, 'width': 410, 'height': 411, 'widthPercent': 0.8, 'rescaleHeight': True, 'trialN': 59, 'loaded': True, 'loadedTime': 2294.5, 'positionName': 'CENTER', 'positionCoords': [755, 394.5]}]",Rate how much you want to eat this food from 0 (least) to 10 (most).,113795.30000007153,1669829845096,grilled chicken strips,1869.1000000238419,True,2.93,115664.40000009537,1869.1000000238419,True,HRV,HRV_0098,2022-11-30 17:37:27
