trialN,stimuli,question,trialStartTime,trialStartTime_UNIX,stimulus1,rt,receivedResponse,rating,trialEndTime,trialDuration,stimulus1Loaded,exp,subjectId,date
0,"[{'imgObject': {}, 'id': 'apple slices', 'src': '/static/foodstim60/apple slices.jpg', 'key': 'NaN', 'origWidth': 409, 'origHeight': 410, 'width': 409, 'height': 410, 'widthPercent': 0.8, 'rescaleHeight': True, 'trialN': 0, 'loaded': True, 'loadedTime': 3015.5, 'positionName': 'CENTER', 'positionCoords': [755.5, 395]}]",Rate how much you want to eat this food from 0 (least) to 10 (most).,3467.3000000715256,1669829557163,apple slices,3475.2999999523163,True,1.26,6942.600000023842,3475.2999999523163,True,HRV,HRV_0098,2022-11-30 17:35:11
1,"[{'imgObject': {}, 'id': 'ice cream sundae 002', 'src': '/static/foodstim60/ice cream sundae 002.jpg', 'key': 'NaN', 'origWidth': 409, 'origHeight': 409, 'width': 409, 'height': 409, 'widthPercent': 0.8, 'rescaleHeight': True, 'trialN': 1, 'loaded': True, 'loadedTime': 3025.600000023842, 'positionName': 'CENTER', 'positionCoords': [755.5, 395.5]}]",Rate how much you want to eat this food from 0 (least) to 10 (most).,6944.700000047684,1669829560640,ice cream sundae 002,2582.100000023842,True,7.92,9526.800000071526,2582.100000023842,True,HRV,HRV_0098,2022-11-30 17:35:11
2,"[{'imgObject': {}, 'id': 'turkeysandwich', 'src': '/static/foodstim60/turkeysandwich.jpg', 'key': 'NaN', 'origWidth': 409, 'origHeight': 409, 'width': 409, 'height': 409, 'widthPercent': 0.8, 'rescaleHeight': True, 'trialN': 2, 'loaded': True, 'loadedTime': 3036.899999976158, 'positionName': 'CENTER', 'positionCoords': [755.5, 395.5]}]",Rate how much you want to eat this food from 0 (least) to 10 (most).,9527.899999976158,1669829563224,turkeysandwich,3268.7000000476837,True,4.05,12796.600000023842,3268.7000000476837,True,HRV,HRV_0098,2022-11-30 17:35:11
3,"[{'imgObject': {}, 'id': 'grilled chicken strips', 'src': '/static/foodstim60/grilled chicken strips.jpg', 'key': 'NaN', 'origWidth': 410, 'origHeight': 411, 'width': 410, 'height': 411, 'widthPercent': 0.8, 'rescaleHeight': True, 'trialN': 3, 'loaded': True, 'loadedTime': 3020, 'positionName': 'CENTER', 'positionCoords': [755, 394.5]}]",Rate how much you want to eat this food from 0 (least) to 10 (most).,12797.700000047684,1669829566494,grilled chicken strips,2421.100000023842,True,2.5,15218.800000071526,2421.100000023842,True,HRV,HRV_0098,2022-11-30 17:35:11
4,"[{'imgObject': {}, 'id': 'chicken nuggets2', 'src': '/static/foodstim60/chicken nuggets2.jpg', 'key': 'NaN', 'origWidth': 410, 'origHeight': 409, 'width': 410, 'height': 409, 'widthPercent': 0.8, 'rescaleHeight': True, 'trialN': 4, 'loaded': True, 'loadedTime': 3043.7000000476837, 'positionName': 'CENTER', 'positionCoords': [755, 395.5]}]",Rate how much you want to eat this food from 0 (least) to 10 (most).,15219.399999976158,1669829568915,chicken nuggets2,2079.4000000953674,True,0.11,17298.800000071526,2079.4000000953674,True,HRV,HRV_0098,2022-11-30 17:35:11
5,"[{'imgObject': {}, 'id': 'mango', 'src': '/static/foodstim60/mango.jpg', 'key': 'NaN', 'origWidth': 411, 'origHeight': 411, 'width': 411, 'height': 411, 'widthPercent': 0.8, 'rescaleHeight': True, 'trialN': 5, 'loaded': True, 'loadedTime': 3047.5, 'positionName': 'CENTER', 'positionCoords': [754.5, 394.5]}]",Rate how much you want to eat this food from 0 (least) to 10 (most).,17299.5,1669829570996,mango,1979.2000000476837,True,1.56,19278.700000047684,1979.2000000476837,True,HRV,HRV_0098,2022-11-30 17:35:11
6,"[{'imgObject': {}, 'id': 'veggieswithdip', 'src': '/static/foodstim60/veggieswithdip.jpg', 'key': 'NaN', 'origWidth': 409, 'origHeight': 409, 'width': 409, 'height': 409, 'widthPercent': 0.8, 'rescaleHeight': True, 'trialN': 6, 'loaded': True, 'loadedTime': 3075, 'positionName': 'CENTER', 'positionCoords': [755.5, 395.5]}]",Rate how much you want to eat this food from 0 (least) to 10 (most).,19279.600000023842,1669829572976,veggieswithdip,2183.2000000476837,True,0.08,21462.800000071526,2183.2000000476837,True,HRV,HRV_0098,2022-11-30 17:35:11
7,"[{'imgObject': {}, 'id': 'burrito', 'src': '/static/foodstim60/burrito.jpg', 'key': 'NaN', 'origWidth': 410, 'origHeight': 410, 'width': 410, 'height': 410, 'widthPercent': 0.8, 'rescaleHeight': True, 'trialN': 7, 'loaded': True, 'loadedTime': 3054.600000023842, 'positionName': 'CENTER', 'positionCoords': [755, 395]}]",Rate how much you want to eat this food from 0 (least) to 10 (most).,21468.200000047684,1669829575164,burrito,3154.5,True,1.61,24622.700000047684,3154.5,True,HRV,HRV_0098,2022-11-30 17:35:11
8,"[{'imgObject': {}, 'id': 'edamame', 'src': '/static/foodstim60/edamame.jpg', 'key': 'NaN', 'origWidth': 409, 'origHeight': 410, 'width': 409, 'height': 410, 'widthPercent': 0.8, 'rescaleHeight': True, 'trialN': 8, 'loaded': True, 'loadedTime': 3061.8000000715256, 'positionName': 'CENTER', 'positionCoords': [755.5, 395]}]",Rate how much you want to eat this food from 0 (least) to 10 (most).,24623.800000071526,1669829578320,edamame,2110.899999976158,True,0.0,26734.700000047684,2110.899999976158,True,HRV,HRV_0098,2022-11-30 17:35:11
9,"[{'imgObject': {}, 'id': 'sweetpotato', 'src': '/static/foodstim60/sweetpotato.jpg', 'key': 'NaN', 'origWidth': 410, 'origHeight': 410, 'width': 410, 'height': 410, 'widthPercent': 0.8, 'rescaleHeight': True, 'trialN': 9, 'loaded': True, 'loadedTime': 3056.7000000476837, 'positionName': 'CENTER', 'positionCoords': [755, 395]}]",Rate how much you want to eat this food from 0 (least) to 10 (most).,26735.700000047684,1669829580432,sweetpotato,2467.0,True,1.1400000000000001,29202.700000047684,2467.0,True,HRV,HRV_0098,2022-11-30 17:35:11
10,"[{'imgObject': {}, 'id': 'salad w chicken', 'src': '/static/foodstim60/salad w chicken.jpg', 'key': 'NaN', 'origWidth': 411, 'origHeight': 411, 'width': 411, 'height': 411, 'widthPercent': 0.8, 'rescaleHeight': True, 'trialN': 10, 'loaded': True, 'loadedTime': 3102.3000000715256, 'positionName': 'CENTER', 'positionCoords': [754.5, 394.5]}]",Rate how much you want to eat this food from 0 (least) to 10 (most).,29203.5,1669829582899,salad w chicken,3207.100000023842,True,5.0600000000000005,32410.600000023842,3207.100000023842,True,HRV,HRV_0098,2022-11-30 17:35:11
11,"[{'imgObject': {}, 'id': 'fruitsalad', 'src': '/static/foodstim60/fruitsalad.jpg', 'key': 'NaN', 'origWidth': 410, 'origHeight': 410, 'width': 410, 'height': 410, 'widthPercent': 0.8, 'rescaleHeight': True, 'trialN': 11, 'loaded': True, 'loadedTime': 3079.8000000715256, 'positionName': 'CENTER', 'positionCoords': [755, 395]}]",Rate how much you want to eat this food from 0 (least) to 10 (most).,32411.600000023842,1669829586107,fruitsalad,2375.0,True,6.01,34786.60000002384,2375.0,True,HRV,HRV_0098,2022-11-30 17:35:11
12,"[{'imgObject': {}, 'id': 'eggs', 'src': '/static/foodstim60/eggs.jpg', 'key': 'NaN', 'origWidth': 409, 'origHeight': 409, 'width': 409, 'height': 409, 'widthPercent': 0.8, 'rescaleHeight': True, 'trialN': 12, 'loaded': True, 'loadedTime': 3088.5, 'positionName': 'CENTER', 'positionCoords': [755.5, 395.5]}]",Rate how much you want to eat this food from 0 (least) to 10 (most).,34787.60000002384,1669829588484,eggs,2663.0,True,0.0,37450.60000002384,2663.0,True,HRV,HRV_0098,2022-11-30 17:35:11
13,"[{'imgObject': {}, 'id': 'strawberries', 'src': '/static/foodstim60/strawberries.jpg', 'key': 'NaN', 'origWidth': 410, 'origHeight': 410, 'width': 410, 'height': 410, 'widthPercent': 0.8, 'rescaleHeight': True, 'trialN': 13, 'loaded': True, 'loadedTime': 3101, 'positionName': 'CENTER', 'positionCoords': [755, 395]}]",Rate how much you want to eat this food from 0 (least) to 10 (most).,37451.5,1669829591148,strawberries,2359.3000000715256,True,4.22,39810.800000071526,2359.3000000715256,True,HRV,HRV_0098,2022-11-30 17:35:11
14,"[{'imgObject': {}, 'id': 'granola w milk', 'src': '/static/foodstim60/granola w milk.jpg', 'key': 'NaN', 'origWidth': 410, 'origHeight': 410, 'width': 410, 'height': 410, 'widthPercent': 0.8, 'rescaleHeight': True, 'trialN': 14, 'loaded': True, 'loadedTime': 3103.7000000476837, 'positionName': 'CENTER', 'positionCoords': [755, 395]}]",Rate how much you want to eat this food from 0 (least) to 10 (most).,39811.700000047684,1669829593508,granola w milk,2943.0,True,0.58,42754.700000047684,2943.0,True,HRV,HRV_0098,2022-11-30 17:35:11
15,"[{'imgObject': {}, 'id': 'tacos', 'src': '/static/foodstim60/tacos.jpg', 'key': 'NaN', 'origWidth': 411, 'origHeight': 411, 'width': 411, 'height': 411, 'widthPercent': 0.8, 'rescaleHeight': True, 'trialN': 15, 'loaded': True, 'loadedTime': 3131, 'positionName': 'CENTER', 'positionCoords': [754.5, 394.5]}]",Rate how much you want to eat this food from 0 (least) to 10 (most).,42756.10000002384,1669829596452,tacos,3150.600000023842,True,4.23,45906.700000047684,3150.600000023842,True,HRV,HRV_0098,2022-11-30 17:35:11
16,"[{'imgObject': {}, 'id': 'yogurt no spoon', 'src': '/static/foodstim60/yogurt no spoon.jpg', 'key': 'NaN', 'origWidth': 411, 'origHeight': 410, 'width': 411, 'height': 410, 'widthPercent': 0.8, 'rescaleHeight': True, 'trialN': 16, 'loaded': True, 'loadedTime': 3118.600000023842, 'positionName': 'CENTER', 'positionCoords': [754.5, 395]}]",Rate how much you want to eat this food from 0 (least) to 10 (most).,45907.700000047684,1669829599604,yogurt no spoon,2088.899999976158,True,1.2,47996.60000002384,2088.899999976158,True,HRV,HRV_0098,2022-11-30 17:35:11
17,"[{'imgObject': {}, 'id': 'fried eggs', 'src': '/static/foodstim60/fried eggs.jpg', 'key': 'NaN', 'origWidth': 410, 'origHeight': 410, 'width': 410, 'height': 410, 'widthPercent': 0.8, 'rescaleHeight': True, 'trialN': 17, 'loaded': True, 'loadedTime': 3129.100000023842, 'positionName': 'CENTER', 'positionCoords': [755, 395]}]",Rate how much you want to eat this food from 0 (least) to 10 (most).,47997.200000047684,1669829601693,fried eggs,2335.2999999523163,True,0.02,50332.5,2335.2999999523163,True,HRV,HRV_0098,2022-11-30 17:35:11
18,"[{'imgObject': {}, 'id': 'seaweed', 'src': '/static/foodstim60/seaweed.jpg', 'key': 'NaN', 'origWidth': 410, 'origHeight': 410, 'width': 410, 'height': 410, 'widthPercent': 0.8, 'rescaleHeight': True, 'trialN': 18, 'loaded': True, 'loadedTime': 3145.600000023842, 'positionName': 'CENTER', 'positionCoords': [755, 395]}]",Rate how much you want to eat this food from 0 (least) to 10 (most).,50333.200000047684,1669829604029,seaweed,2159.2999999523163,True,0.04,52492.5,2159.2999999523163,True,HRV,HRV_0098,2022-11-30 17:35:11
19,"[{'imgObject': {}, 'id': 'hotdog w must', 'src': '/static/foodstim60/hotdog w must.jpg', 'key': 'NaN', 'origWidth': 409, 'origHeight': 409, 'width': 409, 'height': 409, 'widthPercent': 0.8, 'rescaleHeight': True, 'trialN': 19, 'loaded': True, 'loadedTime': 3147.100000023842, 'positionName': 'CENTER', 'positionCoords': [755.5, 395.5]}]",Rate how much you want to eat this food from 0 (least) to 10 (most).,52493.5,1669829606189,hotdog w must,2329.100000023842,True,0.0,54822.60000002384,2329.100000023842,True,HRV,HRV_0098,2022-11-30 17:35:11
20,"[{'imgObject': {}, 'id': 'cherry tomato', 'src': '/static/foodstim60/cherry tomato.jpg', 'key': 'NaN', 'origWidth': 410, 'origHeight': 410, 'width': 410, 'height': 410, 'widthPercent': 0.8, 'rescaleHeight': True, 'trialN': 20, 'loaded': True, 'loadedTime': 3144, 'positionName': 'CENTER', 'positionCoords': [755, 395]}]",Rate how much you want to eat this food from 0 (least) to 10 (most).,54823.700000047684,1669829608520,cherry tomato,2520.899999976158,True,0.0,57344.60000002384,2520.899999976158,True,HRV,HRV_0098,2022-11-30 17:35:11
21,"[{'imgObject': {}, 'id': 'eggsalad', 'src': '/static/foodstim60/eggsalad.jpg', 'key': 'NaN', 'origWidth': 410, 'origHeight': 409, 'width': 410, 'height': 409, 'widthPercent': 0.8, 'rescaleHeight': True, 'trialN': 21, 'loaded': True, 'loadedTime': 3161.399999976158, 'positionName': 'CENTER', 'positionCoords': [755, 395.5]}]",Rate how much you want to eat this food from 0 (least) to 10 (most).,57345.300000071526,1669829611041,eggsalad,5171.299999952316,True,0.64,62516.60000002384,5171.299999952316,True,HRV,HRV_0098,2022-11-30 17:35:11
22,"[{'imgObject': {}, 'id': 'salmon', 'src': '/static/foodstim60/salmon.jpg', 'key': 'NaN', 'origWidth': 410, 'origHeight': 409, 'width': 410, 'height': 409, 'widthPercent': 0.8, 'rescaleHeight': True, 'trialN': 22, 'loaded': True, 'loadedTime': 3163.2000000476837, 'positionName': 'CENTER', 'positionCoords': [755, 395.5]}]",Rate how much you want to eat this food from 0 (least) to 10 (most).,62517.39999997616,1669829616213,salmon,2213.2000000476837,True,3.4,64730.60000002384,2213.2000000476837,True,HRV,HRV_0098,2022-11-30 17:35:11
23,"[{'imgObject': {}, 'id': 'raisin bran w milk', 'src': '/static/foodstim60/raisin bran w milk.jpg', 'key': 'NaN', 'origWidth': 411, 'origHeight': 411, 'width': 411, 'height': 411, 'widthPercent': 0.8, 'rescaleHeight': True, 'trialN': 23, 'loaded': True, 'loadedTime': 3166.600000023842, 'positionName': 'CENTER', 'positionCoords': [754.5, 394.5]}]",Rate how much you want to eat this food from 0 (least) to 10 (most).,64731.5,1669829618428,raisin bran w milk,2445.2000000476837,True,1.06,67176.70000004768,2445.2000000476837,True,HRV,HRV_0098,2022-11-30 17:35:11
24,"[{'imgObject': {}, 'id': 'cherries', 'src': '/static/foodstim60/cherries.jpg', 'key': 'NaN', 'origWidth': 410, 'origHeight': 411, 'width': 410, 'height': 411, 'widthPercent': 0.8, 'rescaleHeight': True, 'trialN': 24, 'loaded': True, 'loadedTime': 3186.2000000476837, 'positionName': 'CENTER', 'positionCoords': [755, 394.5]}]",Rate how much you want to eat this food from 0 (least) to 10 (most).,67177.60000002384,1669829620874,cherries,3189.0,True,2.5100000000000002,70366.60000002384,3189.0,True,HRV,HRV_0098,2022-11-30 17:35:11
25,"[{'imgObject': {}, 'id': 'corn cob', 'src': '/static/foodstim60/corn cob.jpg', 'key': 'NaN', 'origWidth': 411, 'origHeight': 411, 'width': 411, 'height': 411, 'widthPercent': 0.8, 'rescaleHeight': True, 'trialN': 25, 'loaded': True, 'loadedTime': 3179.600000023842, 'positionName': 'CENTER', 'positionCoords': [754.5, 394.5]}]",Rate how much you want to eat this food from 0 (least) to 10 (most).,70367.30000007153,1669829624063,corn cob,2197.399999976158,True,1.18,72564.70000004768,2197.399999976158,True,HRV,HRV_0098,2022-11-30 17:35:11
26,"[{'imgObject': {}, 'id': 'roastedpotatoes', 'src': '/static/foodstim60/roastedpotatoes.jpg', 'key': 'NaN', 'origWidth': 409, 'origHeight': 410, 'width': 409, 'height': 410, 'widthPercent': 0.8, 'rescaleHeight': True, 'trialN': 26, 'loaded': True, 'loadedTime': 3192.2000000476837, 'positionName': 'CENTER', 'positionCoords': [755.5, 395]}]",Rate how much you want to eat this food from 0 (least) to 10 (most).,72565.89999997616,1669829626262,roastedpotatoes,2266.600000023842,True,5.6000000000000005,74832.5,2266.600000023842,True,HRV,HRV_0098,2022-11-30 17:35:11
27,"[{'imgObject': {}, 'id': 'rigatoni', 'src': '/static/foodstim60/rigatoni.jpg', 'key': 'NaN', 'origWidth': 411, 'origHeight': 411, 'width': 411, 'height': 411, 'widthPercent': 0.8, 'rescaleHeight': True, 'trialN': 27, 'loaded': True, 'loadedTime': 3210.2000000476837, 'positionName': 'CENTER', 'positionCoords': [754.5, 394.5]}]",Rate how much you want to eat this food from 0 (least) to 10 (most).,74833.70000004768,1669829628530,rigatoni,3330.899999976158,True,1.4000000000000001,78164.60000002384,3330.899999976158,True,HRV,HRV_0098,2022-11-30 17:35:11
28,"[{'imgObject': {}, 'id': 'cantaloupe', 'src': '/static/foodstim60/cantaloupe.jpg', 'key': 'NaN', 'origWidth': 409, 'origHeight': 409, 'width': 409, 'height': 409, 'widthPercent': 0.8, 'rescaleHeight': True, 'trialN': 28, 'loaded': True, 'loadedTime': 3208.600000023842, 'positionName': 'CENTER', 'positionCoords': [755.5, 395.5]}]",Rate how much you want to eat this food from 0 (least) to 10 (most).,78165.30000007153,1669829631861,cantaloupe,1979.2999999523163,True,0.0,80144.60000002384,1979.2999999523163,True,HRV,HRV_0098,2022-11-30 17:35:11
29,"[{'imgObject': {}, 'id': 'sushi w_condiments', 'src': '/static/foodstim60/sushi w_condiments.jpg', 'key': 'NaN', 'origWidth': 410, 'origHeight': 410, 'width': 410, 'height': 410, 'widthPercent': 0.8, 'rescaleHeight': True, 'trialN': 29, 'loaded': True, 'loadedTime': 3212.5, 'positionName': 'CENTER', 'positionCoords': [755, 395]}]",Rate how much you want to eat this food from 0 (least) to 10 (most).,80145.5,1669829633841,sushi w_condiments,2747.100000023842,True,0.0,82892.60000002384,2747.100000023842,True,HRV,HRV_0098,2022-11-30 17:35:11
30,"[{'imgObject': {}, 'id': 'cocktailshrimp', 'src': '/static/foodstim60/cocktailshrimp.jpg', 'key': 'NaN', 'origWidth': 410, 'origHeight': 410, 'width': 410, 'height': 410, 'widthPercent': 0.8, 'rescaleHeight': True, 'trialN': 30, 'loaded': True, 'loadedTime': 3225, 'positionName': 'CENTER', 'positionCoords': [755, 395]}]",Rate how much you want to eat this food from 0 (least) to 10 (most).,82893.5,1669829636589,cocktailshrimp,2485.0,True,2.41,85378.5,2485.0,True,HRV,HRV_0098,2022-11-30 17:35:11
31,"[{'imgObject': {}, 'id': 'luckycharms', 'src': '/static/foodstim60/luckycharms.jpg', 'key': 'NaN', 'origWidth': 410, 'origHeight': 409, 'width': 410, 'height': 409, 'widthPercent': 0.8, 'rescaleHeight': True, 'trialN': 31, 'loaded': True, 'loadedTime': 3233.600000023842, 'positionName': 'CENTER', 'positionCoords': [755, 395.5]}]",Rate how much you want to eat this food from 0 (least) to 10 (most).,85379.5,1669829639075,luckycharms,3119.0,True,4.13,88498.5,3119.0,True,HRV,HRV_0098,2022-11-30 17:35:11
32,"[{'imgObject': {}, 'id': 'popsicles', 'src': '/static/foodstim60/popsicles.jpg', 'key': 'NaN', 'origWidth': 410, 'origHeight': 410, 'width': 410, 'height': 410, 'widthPercent': 0.8, 'rescaleHeight': True, 'trialN': 32, 'loaded': True, 'loadedTime': 3232.8000000715256, 'positionName': 'CENTER', 'positionCoords': [755, 395]}]",Rate how much you want to eat this food from 0 (least) to 10 (most).,88499.39999997616,1669829642195,popsicles,2539.100000023842,True,0.0,91038.5,2539.100000023842,True,HRV,HRV_0098,2022-11-30 17:35:11
33,"[{'imgObject': {}, 'id': 'bagel and cc', 'src': '/static/foodstim60/bagel and cc.jpg', 'key': 'NaN', 'origWidth': 410, 'origHeight': 410, 'width': 410, 'height': 410, 'widthPercent': 0.8, 'rescaleHeight': True, 'trialN': 33, 'loaded': True, 'loadedTime': 3243, 'positionName': 'CENTER', 'positionCoords': [755, 395]}]",Rate how much you want to eat this food from 0 (least) to 10 (most).,91039.5,1669829644735,bagel and cc,2647.100000023842,True,3.98,93686.60000002384,2647.100000023842,True,HRV,HRV_0098,2022-11-30 17:35:11
34,"[{'imgObject': {}, 'id': 'omelette', 'src': '/static/foodstim60/omelette.jpg', 'key': 'NaN', 'origWidth': 410, 'origHeight': 409, 'width': 410, 'height': 409, 'widthPercent': 0.8, 'rescaleHeight': True, 'trialN': 34, 'loaded': True, 'loadedTime': 3253.2000000476837, 'positionName': 'CENTER', 'positionCoords': [755, 395.5]}]",Rate how much you want to eat this food from 0 (least) to 10 (most).,93687.20000004768,1669829647383,omelette,2329.2999999523163,True,0.0,96016.5,2329.2999999523163,True,HRV,HRV_0098,2022-11-30 17:35:11
35,"[{'imgObject': {}, 'id': 'froot loops w milk', 'src': '/static/foodstim60/froot loops w milk.jpg', 'key': 'NaN', 'origWidth': 410, 'origHeight': 410, 'width': 410, 'height': 410, 'widthPercent': 0.8, 'rescaleHeight': True, 'trialN': 35, 'loaded': True, 'loadedTime': 3257.399999976158, 'positionName': 'CENTER', 'positionCoords': [755, 395]}]",Rate how much you want to eat this food from 0 (least) to 10 (most).,96017.20000004768,1669829649713,froot loops w milk,2655.399999976158,True,1.34,98672.60000002384,2655.399999976158,True,HRV,HRV_0098,2022-11-30 17:35:11
36,"[{'imgObject': {}, 'id': 'turkey sandwich', 'src': '/static/foodstim60/turkey sandwich.jpg', 'key': 'NaN', 'origWidth': 409, 'origHeight': 409, 'width': 409, 'height': 409, 'widthPercent': 0.8, 'rescaleHeight': True, 'trialN': 36, 'loaded': True, 'loadedTime': 3260.8000000715256, 'positionName': 'CENTER', 'positionCoords': [755.5, 395.5]}]",Rate how much you want to eat this food from 0 (least) to 10 (most).,98673.39999997616,1669829652369,turkey sandwich,2017.3000000715256,True,3.3000000000000003,100690.70000004768,2017.3000000715256,True,HRV,HRV_0098,2022-11-30 17:35:11
37,"[{'imgObject': {}, 'id': 'pear', 'src': '/static/foodstim60/pear.jpg', 'key': 'NaN', 'origWidth': 411, 'origHeight': 410, 'width': 411, 'height': 410, 'widthPercent': 0.8, 'rescaleHeight': True, 'trialN': 37, 'loaded': True, 'loadedTime': 3273, 'positionName': 'CENTER', 'positionCoords': [754.5, 395]}]",Rate how much you want to eat this food from 0 (least) to 10 (most).,100691.5,1669829654387,pear,2221.0,True,5.0,102912.5,2221.0,True,HRV,HRV_0098,2022-11-30 17:35:11
38,"[{'imgObject': {}, 'id': 'shreddedwheatwithmilk', 'src': '/static/foodstim60/shreddedwheatwithmilk.jpg', 'key': 'NaN', 'origWidth': 410, 'origHeight': 410, 'width': 410, 'height': 410, 'widthPercent': 0.8, 'rescaleHeight': True, 'trialN': 38, 'loaded': True, 'loadedTime': 3277.399999976158, 'positionName': 'CENTER', 'positionCoords': [755, 395]}]",Rate how much you want to eat this food from 0 (least) to 10 (most).,102913.30000007153,1669829656609,shreddedwheatwithmilk,2227.2999999523163,True,0.64,105140.60000002384,2227.2999999523163,True,HRV,HRV_0098,2022-11-30 17:35:11
39,"[{'imgObject': {}, 'id': 'rigatoni and sauce', 'src': '/static/foodstim60/rigatoni and sauce.jpg', 'key': 'NaN', 'origWidth': 410, 'origHeight': 411, 'width': 410, 'height': 411, 'widthPercent': 0.8, 'rescaleHeight': True, 'trialN': 39, 'loaded': True, 'loadedTime': 3280, 'positionName': 'CENTER', 'positionCoords': [755, 394.5]}]",Rate how much you want to eat this food from 0 (least) to 10 (most).,105141.60000002384,1669829658837,rigatoni and sauce,2148.899999976158,True,6.0600000000000005,107290.5,2148.899999976158,True,HRV,HRV_0098,2022-11-30 17:35:11
40,"[{'imgObject': {}, 'id': 'blackbeanswithrice', 'src': '/static/foodstim60/blackbeanswithrice.jpg', 'key': 'NaN', 'origWidth': 410, 'origHeight': 410, 'width': 410, 'height': 410, 'widthPercent': 0.8, 'rescaleHeight': True, 'trialN': 40, 'loaded': True, 'loadedTime': 3332.7000000476837, 'positionName': 'CENTER', 'positionCoords': [755, 395]}]",Rate how much you want to eat this food from 0 (least) to 10 (most).,107291.5,1669829660987,blackbeanswithrice,3067.0,True,0.02,110358.5,3067.0,True,HRV,HRV_0098,2022-11-30 17:35:11
41,"[{'imgObject': {}, 'id': 'cheerios', 'src': '/static/foodstim60/cheerios.jpg', 'key': 'NaN', 'origWidth': 409, 'origHeight': 410, 'width': 409, 'height': 410, 'widthPercent': 0.8, 'rescaleHeight': True, 'trialN': 41, 'loaded': True, 'loadedTime': 3291.600000023842, 'positionName': 'CENTER', 'positionCoords': [755.5, 395]}]",Rate how much you want to eat this food from 0 (least) to 10 (most).,110359.30000007153,1669829664055,cheerios,2252.0,True,5.0,112611.30000007153,2252.0,True,HRV,HRV_0098,2022-11-30 17:35:11
42,"[{'imgObject': {}, 'id': 'baked potato', 'src': '/static/foodstim60/baked potato.jpg', 'key': 'NaN', 'origWidth': 409, 'origHeight': 410, 'width': 409, 'height': 410, 'widthPercent': 0.8, 'rescaleHeight': True, 'trialN': 42, 'loaded': True, 'loadedTime': 3298.600000023842, 'positionName': 'CENTER', 'positionCoords': [755.5, 395]}]",Rate how much you want to eat this food from 0 (least) to 10 (most).,112612.60000002384,1669829666308,baked potato,2732.0,True,2.7,115344.60000002384,2732.0,True,HRV,HRV_0098,2022-11-30 17:35:11
43,"[{'imgObject': {}, 'id': 'raspberries', 'src': '/static/foodstim60/raspberries.jpg', 'key': 'NaN', 'origWidth': 411, 'origHeight': 411, 'width': 411, 'height': 411, 'widthPercent': 0.8, 'rescaleHeight': True, 'trialN': 43, 'loaded': True, 'loadedTime': 3307.8000000715256, 'positionName': 'CENTER', 'positionCoords': [754.5, 394.5]}]",Rate how much you want to eat this food from 0 (least) to 10 (most).,115345.5,1669829669041,raspberries,4051.100000023842,True,4.21,119396.60000002384,4051.100000023842,True,HRV,HRV_0098,2022-11-30 17:35:11
44,"[{'imgObject': {}, 'id': 'burger', 'src': '/static/foodstim60/burger.jpg', 'key': 'NaN', 'origWidth': 409, 'origHeight': 409, 'width': 409, 'height': 409, 'widthPercent': 0.8, 'rescaleHeight': True, 'trialN': 44, 'loaded': True, 'loadedTime': 3339, 'positionName': 'CENTER', 'positionCoords': [755.5, 395.5]}]",Rate how much you want to eat this food from 0 (least) to 10 (most).,119397.60000002384,1669829673094,burger,2235.100000023842,True,6.9,121632.70000004768,2235.100000023842,True,HRV,HRV_0098,2022-11-30 17:35:11
45,"[{'imgObject': {}, 'id': 'blueberries', 'src': '/static/foodstim60/blueberries.jpg', 'key': 'NaN', 'origWidth': 411, 'origHeight': 411, 'width': 411, 'height': 411, 'widthPercent': 0.8, 'rescaleHeight': True, 'trialN': 45, 'loaded': True, 'loadedTime': 3342.7000000476837, 'positionName': 'CENTER', 'positionCoords': [754.5, 394.5]}]",Rate how much you want to eat this food from 0 (least) to 10 (most).,121633.70000004768,1669829675330,blueberries,2296.7999999523163,True,1.11,123930.5,2296.7999999523163,True,HRV,HRV_0098,2022-11-30 17:35:11
46,"[{'imgObject': {}, 'id': 'Tribe humus pita', 'src': '/static/foodstim60/Tribe humus pita.jpg', 'key': 'NaN', 'origWidth': 411, 'origHeight': 411, 'width': 411, 'height': 411, 'widthPercent': 0.8, 'rescaleHeight': True, 'trialN': 46, 'loaded': True, 'loadedTime': 3345, 'positionName': 'CENTER', 'positionCoords': [754.5, 394.5]}]",Rate how much you want to eat this food from 0 (least) to 10 (most).,123931.5,1669829677627,Tribe humus pita,2980.899999976158,True,0.6,126912.39999997616,2980.899999976158,True,HRV,HRV_0098,2022-11-30 17:35:11
47,"[{'imgObject': {}, 'id': 'Grapes', 'src': '/static/foodstim60/Grapes.jpg', 'key': 'NaN', 'origWidth': 411, 'origHeight': 411, 'width': 411, 'height': 411, 'widthPercent': 0.8, 'rescaleHeight': True, 'trialN': 47, 'loaded': True, 'loadedTime': 3351, 'positionName': 'CENTER', 'positionCoords': [754.5, 394.5]}]",Rate how much you want to eat this food from 0 (least) to 10 (most).,126913.10000002384,1669829680609,Grapes,1715.5,True,3.6,128628.60000002384,1715.5,True,HRV,HRV_0098,2022-11-30 17:35:11
48,"[{'imgObject': {}, 'id': 'avocado', 'src': '/static/foodstim60/avocado.jpg', 'key': 'NaN', 'origWidth': 409, 'origHeight': 409, 'width': 409, 'height': 409, 'widthPercent': 0.8, 'rescaleHeight': True, 'trialN': 48, 'loaded': True, 'loadedTime': 3353.2000000476837, 'positionName': 'CENTER', 'positionCoords': [755.5, 395.5]}]",Rate how much you want to eat this food from 0 (least) to 10 (most).,128629.20000004768,1669829682325,avocado,2035.6000000238419,True,0.0,130664.80000007153,2035.6000000238419,True,HRV,HRV_0098,2022-11-30 17:35:11
49,"[{'imgObject': {}, 'id': 'hashbrowns', 'src': '/static/foodstim60/hashbrowns.jpg', 'key': 'NaN', 'origWidth': 411, 'origHeight': 410, 'width': 411, 'height': 410, 'widthPercent': 0.8, 'rescaleHeight': True, 'trialN': 49, 'loaded': True, 'loadedTime': 3391.7000000476837, 'positionName': 'CENTER', 'positionCoords': [754.5, 395]}]",Rate how much you want to eat this food from 0 (least) to 10 (most).,130666.10000002384,1669829684361,hashbrowns,3290.2999999523163,True,0.0,133956.39999997616,3290.2999999523163,True,HRV,HRV_0098,2022-11-30 17:35:11
50,"[{'imgObject': {}, 'id': 'lox', 'src': '/static/foodstim60/lox.jpg', 'key': 'NaN', 'origWidth': 410, 'origHeight': 411, 'width': 410, 'height': 411, 'widthPercent': 0.8, 'rescaleHeight': True, 'trialN': 50, 'loaded': True, 'loadedTime': 3374.600000023842, 'positionName': 'CENTER', 'positionCoords': [755, 394.5]}]",Rate how much you want to eat this food from 0 (least) to 10 (most).,133957.20000004768,1669829687653,lox,4387.199999928474,True,0.0,138344.39999997616,4387.199999928474,True,HRV,HRV_0098,2022-11-30 17:35:11
51,"[{'imgObject': {}, 'id': 'banana', 'src': '/static/foodstim60/banana.jpg', 'key': 'NaN', 'origWidth': 410, 'origHeight': 410, 'width': 410, 'height': 410, 'widthPercent': 0.8, 'rescaleHeight': True, 'trialN': 51, 'loaded': True, 'loadedTime': 3371, 'positionName': 'CENTER', 'positionCoords': [755, 395]}]",Rate how much you want to eat this food from 0 (least) to 10 (most).,138345.39999997616,1669829692041,banana,2157.100000023842,True,3.92,140502.5,2157.100000023842,True,HRV,HRV_0098,2022-11-30 17:35:11
52,"[{'imgObject': {}, 'id': 'bagel plain', 'src': '/static/foodstim60/bagel plain.jpg', 'key': 'NaN', 'origWidth': 410, 'origHeight': 410, 'width': 410, 'height': 410, 'widthPercent': 0.8, 'rescaleHeight': True, 'trialN': 52, 'loaded': True, 'loadedTime': 3378.5, 'positionName': 'CENTER', 'positionCoords': [755, 395]}]",Rate how much you want to eat this food from 0 (least) to 10 (most).,140503.30000007153,1669829694199,bagel plain,2763.1999999284744,True,2.5300000000000002,143266.5,2763.1999999284744,True,HRV,HRV_0098,2022-11-30 17:35:11
53,"[{'imgObject': {}, 'id': 'orange slices', 'src': '/static/foodstim60/orange slices.jpg', 'key': 'NaN', 'origWidth': 409, 'origHeight': 410, 'width': 409, 'height': 410, 'widthPercent': 0.8, 'rescaleHeight': True, 'trialN': 53, 'loaded': True, 'loadedTime': 3398.3000000715256, 'positionName': 'CENTER', 'positionCoords': [755.5, 395]}]",Rate how much you want to eat this food from 0 (least) to 10 (most).,143267.30000007153,1669829696963,orange slices,1871.0999999046326,True,1.6500000000000001,145138.39999997616,1871.0999999046326,True,HRV,HRV_0098,2022-11-30 17:35:11
54,"[{'imgObject': {}, 'id': 'kiwi', 'src': '/static/foodstim60/kiwi.jpg', 'key': 'NaN', 'origWidth': 410, 'origHeight': 410, 'width': 410, 'height': 410, 'widthPercent': 0.8, 'rescaleHeight': True, 'trialN': 54, 'loaded': True, 'loadedTime': 3395.899999976158, 'positionName': 'CENTER', 'positionCoords': [755, 395]}]",Rate how much you want to eat this food from 0 (least) to 10 (most).,145139.20000004768,1669829698835,kiwi,2197.399999976158,True,0.0,147336.60000002384,2197.399999976158,True,HRV,HRV_0098,2022-11-30 17:35:11
55,"[{'imgObject': {}, 'id': 'mac & cheese', 'src': '/static/foodstim60/mac & cheese.jpg', 'key': 'NaN', 'origWidth': 410, 'origHeight': 410, 'width': 410, 'height': 410, 'widthPercent': 0.8, 'rescaleHeight': True, 'trialN': 55, 'loaded': True, 'loadedTime': 3403.899999976158, 'positionName': 'CENTER', 'positionCoords': [755, 395]}]",Rate how much you want to eat this food from 0 (least) to 10 (most).,147337.89999997616,1669829701033,mac & cheese,2172.600000023842,True,8.6,149510.5,2172.600000023842,True,HRV,HRV_0098,2022-11-30 17:35:11
56,"[{'imgObject': {}, 'id': 'mashed potato', 'src': '/static/foodstim60/mashed potato.jpg', 'key': 'NaN', 'origWidth': 409, 'origHeight': 409, 'width': 409, 'height': 409, 'widthPercent': 0.8, 'rescaleHeight': True, 'trialN': 56, 'loaded': True, 'loadedTime': 3422.100000023842, 'positionName': 'CENTER', 'positionCoords': [755.5, 395.5]}]",Rate how much you want to eat this food from 0 (least) to 10 (most).,149511.20000004768,1669829703207,mashed potato,2033.1999999284744,True,5.61,151544.39999997616,2033.1999999284744,True,HRV,HRV_0098,2022-11-30 17:35:11
57,"[{'imgObject': {}, 'id': 'steak', 'src': '/static/foodstim60/steak.jpg', 'key': 'NaN', 'origWidth': 410, 'origHeight': 410, 'width': 410, 'height': 410, 'widthPercent': 0.8, 'rescaleHeight': True, 'trialN': 57, 'loaded': True, 'loadedTime': 3423.3000000715256, 'positionName': 'CENTER', 'positionCoords': [755, 395]}]",Rate how much you want to eat this food from 0 (least) to 10 (most).,151545.39999997616,1669829705241,steak,1708.9000000953674,True,8.31,153254.30000007153,1708.9000000953674,True,HRV,HRV_0098,2022-11-30 17:35:11
58,"[{'imgObject': {}, 'id': 'olives', 'src': '/static/foodstim60/olives.jpg', 'key': 'NaN', 'origWidth': 410, 'origHeight': 410, 'width': 410, 'height': 410, 'widthPercent': 0.8, 'rescaleHeight': True, 'trialN': 58, 'loaded': True, 'loadedTime': 3427.600000023842, 'positionName': 'CENTER', 'positionCoords': [755, 395]}]",Rate how much you want to eat this food from 0 (least) to 10 (most).,153255.39999997616,1669829706951,olives,2273.0,True,0.0,155528.39999997616,2273.0,True,HRV,HRV_0098,2022-11-30 17:35:11
59,"[{'imgObject': {}, 'id': 'chickenfingers', 'src': '/static/foodstim60/chickenfingers.jpg', 'key': 'NaN', 'origWidth': 410, 'origHeight': 410, 'width': 410, 'height': 410, 'widthPercent': 0.8, 'rescaleHeight': True, 'trialN': 59, 'loaded': True, 'loadedTime': 3452, 'positionName': 'CENTER', 'positionCoords': [755, 395]}]",Rate how much you want to eat this food from 0 (least) to 10 (most).,155529.30000007153,1669829709225,chickenfingers,1693.0,True,5.66,157222.30000007153,1693.0,True,HRV,HRV_0098,2022-11-30 17:35:11
