success,trial_type,trial_index,time_elapsed,internal_node_id,Block,TrialNumber,TrialTime,trialTimeDiff,FPS_avg,FPS_med,FPS_mode,TrialDur,winResizeTime,rt,block,button_pressed,MotCoh,MotDir,ColCoh,Color,ChoiceKey,Choice,Accuracy,RT,nFrames,FPS,PPD,missTrial,missTrialMsg,onsetDelay,fullScreenExitTime,canvCenter,TrialType,Score,BlockTrial,stimulus,button_labels,exp,subjectId,date
True,fullscreen,0,2491,0.0-0.0,0.0,1.0,,,,,,,,,,,,,,,,,,,,,,,,,,,,,,,,HRV,HRV_0098,2022-11-30 18:12:28
,wl-check-fps,1,7491,0.0-1.0,0.0,2.0,"[2785.4, 2793.3, 2810.1, 2827, 2843.6, 2860.1, 2876.8, 2893.5, 2910.1, 2926.8, 2943.6, 2965.6, 2977, 2993.5, 3010.1, 3026.7, 3043.4, 3060.1, 3076.9, 3093.5, 3110.2, 3127, 3143.6, 3160.3, 3177, 3193.7, 3210.2, 3227, 3243.7, 3260.3, 3277, 3293.8, 3310.4, 3327.1, 3343.9, 3360.4, 3377.1, 3393.8, 3410.5, 3427.1, 3443.8, 3460.5, 3477.3, 3493.9, 3510.6, 3527.2, 3543.9, 3560.6, 3577.3, 3594, 3610.7, 3627.4, 3644, 3660.7, 3677.4, 3694, 3710.8, 3727.5, 3744, 3760.9, 3777.6, 3794.2, 3810.9, 3827.6, 3844.3, 3861, 3877.7, 3894.4, 3911, 3927.7, 3944.5, 3961.1, 3977.5, 3994.3, 4011.1, 4027.6, 4044.4, 4060.9, 4077.8, 4094.5, 4111.1, 4127.9, 4144.4, 4161.1, 4177.8, 4194.6, 4211.2, 4227.9, 4244.6, 4261.3, 4277.9, 4294.6, 4311.3, 4328, 4344.7, 4361.4, 4378.1, 4394.7, 4411.4, 4428.1, 4444.7, 4461.4, 4478.1, 4494.8, 4511.4, 4528.1, 4544.8, 4561.4, 4578.3, 4594.9, 4611.7, 4628.3, 4645, 4661.6, 4678.3, 4694.9, 4711.7, 4728.3, 4745.1, 4761.8, 4778.4, 4795, 4811.8, 4828.4, 4845.1, 4861.8, 4878.4, 4895.1, 4911.7, 4928.4, 4945.1, 4961.8, 4978.5, 4995.1, 5011.7, 5028.6, 5045.2, 5061.9, 5078.6, 5095.3, 5112, 5128.6, 5145.2, 5162, 5178.7, 5195.3, 5211.9, 5228.7, 5245.4, 5262, 5278.8, 5295.4, 5312.1, 5328.8, 5345.5, 5362.1, 5378.8, 5395.5, 5412.2, 5428.9, 5448.9, 5462.3, 5479, 5495.6, 5512.2, 5528.9, 5545.6, 5562.3, 5579.1, 5595.7, 5612.3, 5628.9, 5645.6, 5662.4, 5679.1, 5695.9, 5712.3, 5729.2, 5745.8, 5762.5, 5779.1, 5795.8, 5812.5, 5829.1, 5845.8, 5862.5, 5879.2, 5895.9, 5912.6, 5929.2, 5946, 5962.6, 5979.3, 5995.9, 6012.7, 6029.4, 6046, 6062.7, 6079.3, 6096.1, 6112.8, 6129.5, 6146.2, 6162.8, 6179.4, 6196.1, 6212.8, 6229.5, 6246.3, 6262.9, 6279.6, 6296.2, 6312.9, 6329.7, 6346.5, 6363.2, 6379.9, 6396.5, 6413.2, 6429.9, 6446.6, 6463.2, 6480, 6496.6, 6513.3, 6530, 6546.7, 6563.4, 6580.1, 6596.7, 6613.5, 6630.1, 6646.8, 6663.5, 6680.3, 6696.9, 6713.4, 6730.2, 6746.8, 6763.5, 6780.2, 6797.1, 6813.7, 6830.3, 6846.9, 6863.6, 6880.3, 6897.1, 6913.7, 6930.4, 6947, 6963.8, 6980.4, 6997.2, 7013.8, 7030.4, 7047.1, 7063.8, 7080.5, 7097.1, 7113.9, 7130.4, 7147, 7163.7, 7180.3, 7197.1, 7213.6, 7230.5, 7247, 7263.8, 7280.4, 7297.1, 7313.7, 7330.4, 7347.1, 7363.8, 7380.4, 7397.2, 7413.9, 7430.5, 7447.3, 7464, 7480.5, 7497.1, 7514, 7530.6, 7547.3, 7564, 7580.7, 7597.3, 7614, 7630.9, 7647.5, 7664.1, 7680.7, 7697.4, 7714.2, 7730.9, 7747.5, 7764.1]","[1.8, 7.9, 16.8, 16.9, 16.6, 16.5, 16.7, 16.7, 16.6, 16.7, 16.8, 22, 11.4, 16.5, 16.6, 16.6, 16.7, 16.7, 16.8, 16.6, 16.7, 16.8, 16.6, 16.7, 16.7, 16.7, 16.5, 16.8, 16.7, 16.6, 16.7, 16.8, 16.6, 16.7, 16.8, 16.5, 16.7, 16.7, 16.7, 16.6, 16.7, 16.7, 16.8, 16.6, 16.7, 16.6, 16.7, 16.7, 16.7, 16.7, 16.7, 16.7, 16.6, 16.7, 16.7, 16.6, 16.8, 16.7, 16.5, 16.9, 16.7, 16.6, 16.7, 16.7, 16.7, 16.7, 16.7, 16.7, 16.6, 16.7, 16.8, 16.6, 16.4, 16.8, 16.8, 16.5, 16.8, 16.5, 16.9, 16.7, 16.6, 16.8, 16.5, 16.7, 16.7, 16.8, 16.6, 16.7, 16.7, 16.7, 16.6, 16.7, 16.7, 16.7, 16.7, 16.7, 16.7, 16.6, 16.7, 16.7, 16.6, 16.7, 16.7, 16.7, 16.6, 16.7, 16.7, 16.6, 16.9, 16.6, 16.8, 16.6, 16.7, 16.6, 16.7, 16.6, 16.8, 16.6, 16.8, 16.7, 16.6, 16.6, 16.8, 16.6, 16.7, 16.7, 16.6, 16.7, 16.6, 16.7, 16.7, 16.7, 16.7, 16.6, 16.6, 16.9, 16.6, 16.7, 16.7, 16.7, 16.7, 16.6, 16.6, 16.8, 16.7, 16.6, 16.6, 16.8, 16.7, 16.6, 16.8, 16.6, 16.7, 16.7, 16.7, 16.6, 16.7, 16.7, 16.7, 16.7, 20, 13.4, 16.7, 16.6, 16.6, 16.7, 16.7, 16.7, 16.8, 16.6, 16.6, 16.6, 16.7, 16.8, 16.7, 16.8, 16.4, 16.9, 16.6, 16.7, 16.6, 16.7, 16.7, 16.6, 16.7, 16.7, 16.7, 16.7, 16.7, 16.6, 16.8, 16.6, 16.7, 16.6, 16.8, 16.7, 16.6, 16.7, 16.6, 16.8, 16.7, 16.7, 16.7, 16.6, 16.6, 16.7, 16.7, 16.7, 16.8, 16.6, 16.7, 16.6, 16.7, 16.8, 16.8, 16.7, 16.7, 16.6, 16.7, 16.7, 16.7, 16.6, 16.8, 16.6, 16.7, 16.7, 16.7, 16.7, 16.7, 16.6, 16.8, 16.6, 16.7, 16.7, 16.8, 16.6, 16.5, 16.8, 16.6, 16.7, 16.7, 16.9, 16.6, 16.6, 16.6, 16.7, 16.7, 16.8, 16.6, 16.7, 16.6, 16.8, 16.6, 16.8, 16.6, 16.6, 16.7, 16.7, 16.7, 16.6, 16.8, 16.5, 16.6, 16.7, 16.6, 16.8, 16.5, 16.9, 16.5, 16.8, 16.6, 16.7, 16.6, 16.7, 16.7, 16.7, 16.6, 16.8, 16.7, 16.6, 16.8, 16.7, 16.5, 16.6, 16.9, 16.6, 16.7, 16.7, 16.7, 16.6, 16.7, 16.9, 16.6, 16.6, 16.6, 16.7, 16.8, 16.7, 16.6, 16.6]",60.0,60.0,60.0,4997.2,[],,,,,,,,,,,,,,,,,,,,,,,,,HRV,HRV_0098,2022-11-30 18:12:28
,wl-html-keyboard-response,2,31300,0.0-2.0-0.0,0.0,3.0,,,,,,,,21796.899999976158,0.0,0,,,,,,,,,,,,,,,,,,,,,,HRV,HRV_0098,2022-11-30 18:12:28
,wl-rdm,3,38517,0.0-3.0-0.0,0.0,4.0,,,,,,,[],,,,0.0,0.0,87.9,0.0,u,0.0,True,1651.1000000238419,99.0,60.0,40.0,False,,3000.0,[],"[960, 600]",ColorTask_Demo,,,,,HRV,HRV_0098,2022-11-30 18:12:28
,wl-rdm,4,44405,0.0-3.0-1.0,0.0,5.0,,,,,,,[],,,,0.0,0.0,87.9,1.0,i,1.0,True,1819.9000000953674,110.0,60.0,40.0,False,,2000.0,[],"[960, 600]",ColorTask_Demo,,,,,HRV,HRV_0098,2022-11-30 18:12:28
,wl-html-keyboard-response,5,52245,0.0-3.0-2.0,0.0,6.0,,,,,,,,5821.0,0.0,1,,,,,,,,,,,,,,,,,,,,,,HRV,HRV_0098,2022-11-30 18:12:28
,wl-html-keyboard-response,6,75411,0.0-4.0-0.0,0.0,7.0,,,,,,,,21159.200000047684,0.0,0,,,,,,,,,,,,,,,,,,,,,,HRV,HRV_0098,2022-11-30 18:12:28
,wl-html-keyboard-response,7,98266,0.0-5.0-0.0,0.0,8.0,,,,,,,,20849.399999976158,0.0,0,,,,,,,,,,,,,,,,,,,,,,HRV,HRV_0098,2022-11-30 18:12:28
,wl-rdm,8,101453,0.0-6.0-0.0,0.0,9.0,,,,,,,[],,,,,,56.4,1.0,i,1.0,True,1723.1000000238419,104.0,60.0,40.0,False,,394.74867434459065,[],"[960, 600]",ColorTask,1.0,1.0,,,HRV,HRV_0098,2022-11-30 18:12:28
,wl-rdm,9,104272,0.0-6.1-0.1,0.0,10.0,,,,,,,[],,,,,,53.2,0.0,i,1.0,False,1464.0,88.0,60.0,40.0,False,,295.4646597591027,[],"[960, 600]",ColorTask,0.0,2.0,,,HRV,HRV_0098,2022-11-30 18:12:28
,wl-rdm,10,106857,0.0-6.2-0.2,0.0,11.0,,,,,,,[],,,,,,62.5,1.0,i,1.0,True,1278.7999999523163,77.0,60.0,40.0,False,,243.19359705871577,[],"[960, 600]",ColorTask,1.0,3.0,,,HRV,HRV_0098,2022-11-30 18:12:28
,wl-rdm,11,109910,0.0-6.3-0.3,0.0,12.0,,,,,,,[],,,,,,53.2,0.0,u,0.0,True,1693.5,102.0,60.0,40.0,False,,288.3263046313821,[],"[960, 600]",ColorTask,2.0,4.0,,,HRV,HRV_0098,2022-11-30 18:12:28
,wl-rdm,12,112161,0.0-6.4-0.4,0.0,13.0,,,,,,,[],,,,,,87.9,1.0,i,1.0,True,858.6000000238419,52.0,60.0,40.0,False,,316.89743560825184,[],"[960, 600]",ColorTask,3.0,5.0,,,HRV,HRV_0098,2022-11-30 18:12:28
,wl-rdm,13,114930,0.0-6.5-0.5,0.0,14.0,,,,,,,[],,,,,,53.2,0.0,u,0.0,True,1418.7000000476837,86.0,60.0,40.0,False,,267.9735820970475,[],"[960, 600]",ColorTask,4.0,6.0,,,HRV,HRV_0098,2022-11-30 18:12:28
,wl-rdm,14,117683,0.0-6.6-0.6,0.0,15.0,,,,,,,[],,,,,,50.0,1.0,i,1.0,True,1417.7000000476837,85.0,60.0,40.0,False,,279.9437246406397,[],"[960, 600]",ColorTask,5.0,7.0,,,HRV,HRV_0098,2022-11-30 18:12:28
,wl-rdm,15,120402,0.0-6.7-0.7,0.0,16.0,,,,,,,[],,,,,,50.0,0.0,i,1.0,False,1414.7000000476837,85.0,60.0,40.0,False,,235.56791768723792,[],"[960, 600]",ColorTask,4.0,8.0,,,HRV,HRV_0098,2022-11-30 18:12:28
,wl-rdm,16,122687,0.0-6.8-0.8,0.0,17.0,,,,,,,[],,,,,,87.9,0.0,u,0.0,True,884.9999998807907,54.0,60.0,40.0,False,,330.55591931697205,[],"[960, 600]",ColorTask,5.0,9.0,,,HRV,HRV_0098,2022-11-30 18:12:28
,wl-rdm,17,125439,0.0-6.9-0.9,0.0,18.0,,,,,,,[],,,,,,50.0,0.0,i,1.0,False,1428.2999999523163,86.0,60.0,40.0,False,,265.37676951473924,[],"[960, 600]",ColorTask,4.0,10.0,,,HRV,HRV_0098,2022-11-30 18:12:28
,wl-rdm,18,128308,0.0-6.10-0.10,0.0,19.0,,,,,,,[],,,,,,53.2,1.0,u,0.0,False,1539.1999999284744,93.0,60.0,40.0,False,,252.2765682300684,[],"[960, 600]",ColorTask,3.0,11.0,,,HRV,HRV_0098,2022-11-30 18:12:28
,wl-rdm,19,130644,0.0-6.11-0.11,0.0,20.0,,,,,,,[],,,,,,87.9,0.0,u,0.0,True,958.2000000476837,58.0,60.0,40.0,False,,312.1126586616822,[],"[960, 600]",ColorTask,4.0,12.0,,,HRV,HRV_0098,2022-11-30 18:12:28
,wl-rdm,20,133479,0.0-6.12-0.12,0.0,21.0,,,,,,,[],,,,,,56.4,0.0,u,0.0,True,1385.1000000238419,84.0,60.0,40.0,False,,373.8307071108146,[],"[960, 600]",ColorTask,5.0,13.0,,,HRV,HRV_0098,2022-11-30 18:12:28
,wl-rdm,21,136232,0.0-6.13-0.13,0.0,22.0,,,,,,,[],,,,,,56.4,0.0,i,1.0,False,1388.2000000476837,82.0,60.0,40.0,False,,283.98489363242174,[],"[960, 600]",ColorTask,4.0,14.0,,,HRV,HRV_0098,2022-11-30 18:12:28
,wl-rdm,22,138317,0.0-6.14-0.14,0.0,23.0,,,,,,,[],,,,,,87.9,0.0,u,0.0,True,811.9999998807907,49.0,60.0,40.0,False,,211.89939094310068,[],"[960, 600]",ColorTask,5.0,15.0,,,HRV,HRV_0098,2022-11-30 18:12:28
,wl-rdm,23,140802,0.0-6.15-0.15,0.0,24.0,,,,,,,[],,,,,,53.2,1.0,i,1.0,True,1094.0,66.0,60.0,40.0,False,,318.00455033391034,[],"[960, 600]",ColorTask,6.0,16.0,,,HRV,HRV_0098,2022-11-30 18:12:28
,wl-rdm,24,142954,0.0-6.16-0.16,0.0,25.0,,,,,,,[],,,,,,73.6,1.0,i,1.0,True,777.5,47.0,60.0,40.0,False,,312.7276647869369,[],"[960, 600]",ColorTask,7.0,17.0,,,HRV,HRV_0098,2022-11-30 18:12:28
,wl-rdm,25,145823,0.0-6.17-0.17,0.0,26.0,,,,,,,[],,,,,,56.4,0.0,u,0.0,True,1451.6000000238419,88.0,60.0,40.0,False,,336.8941218548907,[],"[960, 600]",ColorTask,8.0,18.0,,,HRV,HRV_0098,2022-11-30 18:12:28
,wl-rdm,26,148676,0.0-6.18-0.18,0.0,27.0,,,,,,,[],,,,,,50.0,1.0,i,1.0,True,1557.6000000238419,94.0,60.0,40.0,False,,225.057297372241,[],"[960, 600]",ColorTask,9.0,19.0,,,HRV,HRV_0098,2022-11-30 18:12:28
,wl-rdm,27,151261,0.0-6.19-0.19,0.0,28.0,,,,,,,[],,,,,,73.6,1.0,i,1.0,True,1147.9000000953674,69.0,60.0,40.0,False,,378.49914760336145,[],"[960, 600]",ColorTask,10.0,20.0,,,HRV,HRV_0098,2022-11-30 18:12:28
,wl-rdm,28,154147,0.0-6.20-0.20,0.0,29.0,,,,,,,[],,,,,,53.2,1.0,i,1.0,True,1597.2000000476837,96.0,60.0,40.0,False,,224.1170174048537,[],"[960, 600]",ColorTask,11.0,21.0,,,HRV,HRV_0098,2022-11-30 18:12:28
,wl-rdm,29,157132,0.0-6.21-0.21,0.0,30.0,,,,,,,[],,,,,,53.2,1.0,i,1.0,True,1682.6999999284744,101.0,60.0,40.0,False,,240.63495963769032,[],"[960, 600]",ColorTask,12.0,22.0,,,HRV,HRV_0098,2022-11-30 18:12:28
,wl-rdm,30,160252,0.0-6.22-0.22,0.0,31.0,,,,,,,[],,,,,,62.5,1.0,i,1.0,True,1668.9999998807907,101.0,60.0,40.0,False,,369.14924761457075,[],"[960, 600]",ColorTask,13.0,23.0,,,HRV,HRV_0098,2022-11-30 18:12:28
,wl-rdm,31,163655,0.0-6.23-0.23,0.0,32.0,,,,,,,[],,,,,,53.2,1.0,u,0.0,False,2003.6999999284744,121.0,60.0,40.0,False,,323.4526290908725,[],"[960, 600]",ColorTask,12.0,24.0,,,HRV,HRV_0098,2022-11-30 18:12:28
,wl-rdm,32,166240,0.0-6.24-0.24,0.0,33.0,,,,,,,[],,,,,,53.2,0.0,u,0.0,True,1229.5,74.0,60.0,40.0,False,,288.1530758870817,[],"[960, 600]",ColorTask,13.0,25.0,,,HRV,HRV_0098,2022-11-30 18:12:28
,wl-rdm,33,169126,0.0-6.25-0.25,0.0,34.0,,,,,,,[],,,,,,50.0,1.0,i,1.0,True,1473.3999999761581,89.0,60.0,40.0,False,,337.4690524062494,[],"[960, 600]",ColorTask,14.0,26.0,,,HRV,HRV_0098,2022-11-30 18:12:28
,wl-rdm,34,172212,0.0-6.26-0.26,0.0,35.0,,,,,,,[],,,,,,56.4,0.0,i,1.0,False,1622.1999999284744,98.0,60.0,40.0,False,,396.0757814967223,[],"[960, 600]",ColorTask,13.0,27.0,,,HRV,HRV_0098,2022-11-30 18:12:28
,wl-rdm,35,175665,0.0-6.27-0.27,0.0,36.0,,,,,,,[],,,,,,50.0,0.0,i,1.0,False,2069.2999999523163,125.0,60.0,40.0,False,,313.7105319800687,[],"[960, 600]",ColorTask,12.0,28.0,,,HRV,HRV_0098,2022-11-30 18:12:28
,wl-rdm,36,179218,0.0-6.28-0.28,0.0,37.0,,,,,,,[],,,,,,56.4,1.0,u,0.0,False,2219.100000023842,134.0,60.0,40.0,False,,254.7712317492642,[],"[960, 600]",ColorTask,11.0,29.0,,,HRV,HRV_0098,2022-11-30 18:12:28
,wl-rdm,37,182754,0.0-6.29-0.29,0.0,38.0,,,,,,,[],,,,,,50.0,0.0,i,1.0,False,2084.0,125.0,60.0,40.0,False,,388.68153348332964,[],"[960, 600]",ColorTask,10.0,30.0,,,HRV,HRV_0098,2022-11-30 18:12:28
,wl-rdm,38,186090,0.0-6.30-0.30,0.0,39.0,,,,,,,[],,,,,,56.4,1.0,i,1.0,True,2012.7000000476837,121.0,60.0,40.0,False,,264.1172922757393,[],"[960, 600]",ColorTask,11.0,31.0,,,HRV,HRV_0098,2022-11-30 18:12:28
,wl-rdm,39,189676,0.0-6.31-0.31,0.0,40.0,,,,,,,[],,,,,,56.4,0.0,u,0.0,True,2184.4000000953674,131.0,60.0,40.0,False,,339.5336037660312,[],"[960, 600]",ColorTask,12.0,32.0,,,HRV,HRV_0098,2022-11-30 18:12:28
,wl-rdm,40,192129,0.0-6.32-0.32,0.0,41.0,,,,,,,[],,,,,,73.6,1.0,i,1.0,True,1009.2000000476837,61.0,60.0,40.0,False,,375.18926631083946,[],"[960, 600]",ColorTask,13.0,33.0,,,HRV,HRV_0098,2022-11-30 18:12:28
,wl-rdm,41,194330,0.0-6.33-0.33,0.0,42.0,,,,,,,[],,,,,,87.9,1.0,i,1.0,True,860.0,52.0,60.0,40.0,False,,268.7304935938586,[],"[960, 600]",ColorTask,14.0,34.0,,,HRV,HRV_0098,2022-11-30 18:12:28
,wl-rdm,42,196382,0.0-6.34-0.34,0.0,43.0,,,,,,,[],,,,,,87.9,1.0,i,1.0,True,751.3999999761581,46.0,60.0,40.0,False,,227.96402758260746,[],"[960, 600]",ColorTask,15.0,35.0,,,HRV,HRV_0098,2022-11-30 18:12:28
,wl-rdm,43,198701,0.0-6.35-0.35,0.0,44.0,,,,,,,[],,,,,,73.6,1.0,i,1.0,True,1041.7000000476837,63.0,60.0,40.0,False,,208.07902103548358,[],"[960, 600]",ColorTask,16.0,36.0,,,HRV,HRV_0098,2022-11-30 18:12:28
,wl-rdm,44,200969,0.0-6.36-0.36,0.0,45.0,,,,,,,[],,,,,,73.6,0.0,u,0.0,True,892.0,54.0,60.0,40.0,False,,313.6521850869866,[],"[960, 600]",ColorTask,17.0,37.0,,,HRV,HRV_0098,2022-11-30 18:12:28
,wl-rdm,45,203271,0.0-6.37-0.37,0.0,46.0,,,,,,,[],,,,,,73.6,0.0,u,0.0,True,886.0,54.0,60.0,40.0,False,,349.3120538794367,[],"[960, 600]",ColorTask,18.0,38.0,,,HRV,HRV_0098,2022-11-30 18:12:28
,wl-rdm,46,205656,0.0-6.38-0.38,0.0,47.0,,,,,,,[],,,,,,73.6,0.0,u,0.0,True,1046.2000000476837,63.0,60.0,40.0,False,,272.6409956288368,[],"[960, 600]",ColorTask,19.0,39.0,,,HRV,HRV_0098,2022-11-30 18:12:28
,wl-rdm,47,207825,0.0-6.39-0.39,0.0,48.0,,,,,,,[],,,,,,73.6,1.0,i,1.0,True,803.5,49.0,60.0,40.0,False,,296.85734042181616,[],"[960, 600]",ColorTask,20.0,40.0,,,HRV,HRV_0098,2022-11-30 18:12:28
,wl-rdm,48,210661,0.0-6.40-0.40,0.0,49.0,,,,,,,[],,,,,,62.5,0.0,u,0.0,True,1495.5,90.0,60.0,40.0,False,,270.3374812378954,[],"[960, 600]",ColorTask,21.0,41.0,,,HRV,HRV_0098,2022-11-30 18:12:28
,wl-rdm,49,213413,0.0-6.41-0.41,0.0,50.0,,,,,,,[],,,,,,56.4,0.0,u,0.0,True,1390.1000000238419,84.0,60.0,40.0,False,,288.18797483619795,[],"[960, 600]",ColorTask,22.0,42.0,,,HRV,HRV_0098,2022-11-30 18:12:28
,wl-rdm,50,215431,0.0-6.42-0.42,0.0,51.0,,,,,,,[],,,,,,87.9,1.0,i,1.0,True,725.1000000238419,44.0,60.0,40.0,False,,232.40181572108298,[],"[960, 600]",ColorTask,23.0,43.0,,,HRV,HRV_0098,2022-11-30 18:12:28
,wl-rdm,51,218484,0.0-6.43-0.43,0.0,52.0,,,,,,,[],,,,,,62.5,0.0,u,0.0,True,1601.6000000238419,96.0,60.0,40.0,False,,388.70948766848414,[],"[960, 600]",ColorTask,24.0,44.0,,,HRV,HRV_0098,2022-11-30 18:12:28
,wl-rdm,52,221787,0.0-6.44-0.44,0.0,53.0,,,,,,,[],,,,,,53.2,0.0,i,1.0,False,1982.5,119.0,60.0,40.0,False,,258.72073574411627,[],"[960, 600]",ColorTask,23.0,45.0,,,HRV,HRV_0098,2022-11-30 18:12:28
,wl-rdm,53,225456,0.0-6.45-0.45,0.0,54.0,,,,,,,[],,,,,,56.4,1.0,i,1.0,True,2245.2000000476837,135.0,60.0,40.0,False,,361.5690428392311,[],"[960, 600]",ColorTask,24.0,46.0,,,HRV,HRV_0098,2022-11-30 18:12:28
,wl-rdm,54,229293,0.0-6.46-0.46,0.0,55.0,,,,,,,[],,,,,,50.0,1.0,u,0.0,False,2411.399999976158,145.0,60.0,40.0,False,,361.8489575042097,[],"[960, 600]",ColorTask,23.0,47.0,,,HRV,HRV_0098,2022-11-30 18:12:28
,wl-rdm,55,232362,0.0-6.47-0.47,0.0,56.0,,,,,,,[],,,,,,62.5,0.0,u,0.0,True,1665.2000000476837,100.0,60.0,40.0,False,,333.8364828298129,[],"[960, 600]",ColorTask,24.0,48.0,,,HRV,HRV_0098,2022-11-30 18:12:28
,wl-rdm,56,234615,0.0-6.48-0.48,0.0,57.0,,,,,,,[],,,,,,87.9,1.0,i,1.0,True,887.299999833107,54.0,60.0,40.0,False,,288.79313214080776,[],"[960, 600]",ColorTask,25.0,49.0,,,HRV,HRV_0098,2022-11-30 18:12:28
,wl-rdm,57,237183,0.0-6.49-0.49,0.0,58.0,,,,,,,[],,,,,,73.6,0.0,u,0.0,True,1239.0999999046326,75.0,60.0,40.0,False,,237.7599876614856,[],"[960, 600]",ColorTask,26.0,50.0,,,HRV,HRV_0098,2022-11-30 18:12:28
,wl-rdm,58,239335,0.0-6.50-0.50,0.0,59.0,,,,,,,[],,,,,,87.9,1.0,i,1.0,True,784.6000000238419,48.0,60.0,40.0,False,,286.16661399691714,[],"[960, 600]",ColorTask,27.0,51.0,,,HRV,HRV_0098,2022-11-30 18:12:28
,wl-rdm,59,241470,0.0-6.51-0.51,0.0,60.0,,,,,,,[],,,,,,87.9,0.0,u,0.0,True,802.7000000476837,49.0,60.0,40.0,False,,258.5401112805444,[],"[960, 600]",ColorTask,28.0,52.0,,,HRV,HRV_0098,2022-11-30 18:12:28
,wl-rdm,60,243838,0.0-6.52-0.52,0.0,61.0,,,,,,,[],,,,,,73.6,1.0,i,1.0,True,1016.0,61.0,60.0,40.0,False,,286.7887459912554,[],"[960, 600]",ColorTask,29.0,53.0,,,HRV,HRV_0098,2022-11-30 18:12:28
,wl-rdm,61,245923,0.0-6.53-0.53,0.0,62.0,,,,,,,[],,,,,,87.9,0.0,u,0.0,True,815.6000000238419,49.0,60.0,40.0,False,,206.74285403245483,[],"[960, 600]",ColorTask,30.0,54.0,,,HRV,HRV_0098,2022-11-30 18:12:28
,wl-rdm,62,248442,0.0-6.54-0.54,0.0,63.0,,,,,,,[],,,,,,73.6,1.0,i,1.0,True,1087.5999999046326,66.0,60.0,40.0,False,,359.1659537533259,[],"[960, 600]",ColorTask,31.0,55.0,,,HRV,HRV_0098,2022-11-30 18:12:28
,wl-rdm,63,251211,0.0-6.55-0.55,0.0,64.0,,,,,,,[],,,,,,56.4,0.0,u,0.0,True,1425.7999999523163,86.0,60.0,40.0,False,,271.44458051366604,[],"[960, 600]",ColorTask,32.0,56.0,,,HRV,HRV_0098,2022-11-30 18:12:28
,wl-rdm,64,253747,0.0-6.56-0.56,0.0,65.0,,,,,,,[],,,,,,62.5,0.0,u,0.0,True,1095.6000000238419,66.0,60.0,40.0,False,,379.5273221987147,[],"[960, 600]",ColorTask,33.0,57.0,,,HRV,HRV_0098,2022-11-30 18:12:28
,wl-rdm,65,255882,0.0-6.57-0.57,0.0,66.0,,,,,,,[],,,,,,87.9,0.0,u,0.0,True,831.1999999284744,50.0,60.0,40.0,False,,245.49037880887553,[],"[960, 600]",ColorTask,34.0,58.0,,,HRV,HRV_0098,2022-11-30 18:12:28
,wl-rdm,66,257984,0.0-6.58-0.58,0.0,67.0,,,,,,,[],,,,,,87.9,0.0,u,0.0,True,801.9000000953674,49.0,60.0,40.0,False,,220.60625075464756,[],"[960, 600]",ColorTask,35.0,59.0,,,HRV,HRV_0098,2022-11-30 18:12:28
,wl-rdm,67,260385,0.0-6.59-0.59,0.0,68.0,,,,,,,[],,,,,,62.5,0.0,u,0.0,True,981.5,59.0,60.0,40.0,False,,351.33111556317994,[],"[960, 600]",ColorTask,36.0,60.0,,,HRV,HRV_0098,2022-11-30 18:12:28
,wl-rdm,68,263638,0.0-6.60-0.60,0.0,69.0,,,,,,,[],,,,,,50.0,0.0,i,1.0,False,1954.3999999761581,118.0,60.0,40.0,False,,231.45460025887448,[],"[960, 600]",ColorTask,35.0,61.0,,,HRV,HRV_0098,2022-11-30 18:12:28
,wl-rdm,69,267942,0.0-6.61-0.61,0.0,69.0,,,,,,,[],,,,,,50.0,0.0,i,,,3128.5000001192093,179.0,60.0,40.0,True,RT_timeout ,220.91264125852254,[],"[960, 600]",ColorTask,34.0,62.0,,,HRV,HRV_0098,2022-11-30 18:12:28
,wl-rdm,70,270127,0.0-6.62-0.62,0.0,70.0,,,,,,,[],,,,,,87.9,1.0,i,1.0,True,800.3000000715256,48.0,60.0,40.0,False,,326.41631064880147,[],"[960, 600]",ColorTask,35.0,63.0,,,HRV,HRV_0098,2022-11-30 18:12:28
,wl-rdm,71,272162,0.0-6.63-0.63,0.0,71.0,,,,,,,[],,,,,,56.4,0.0,u,0.0,True,733.7000000476837,44.0,60.0,40.0,False,,246.7345722668095,[],"[960, 600]",ColorTask,36.0,64.0,,,HRV,HRV_0098,2022-11-30 18:12:28
,wl-rdm,72,274180,0.0-6.64-0.64,0.0,72.0,,,,,,,[],,,,,,87.9,1.0,i,1.0,True,677.0,41.0,60.0,40.0,False,,278.75244822534034,[],"[960, 600]",ColorTask,37.0,65.0,,,HRV,HRV_0098,2022-11-30 18:12:28
,wl-rdm,73,276149,0.0-6.65-0.65,0.0,73.0,,,,,,,[],,,,,,87.9,0.0,u,0.0,True,675.6000000238419,41.0,60.0,40.0,False,,219.39993000926606,[],"[960, 600]",ColorTask,38.0,66.0,,,HRV,HRV_0098,2022-11-30 18:12:28
,wl-rdm,74,278601,0.0-6.66-0.66,0.0,74.0,,,,,,,[],,,,,,53.2,0.0,i,1.0,False,1106.3000000715256,67.0,60.0,40.0,False,,268.9827811466527,[],"[960, 600]",ColorTask,37.0,67.0,,,HRV,HRV_0098,2022-11-30 18:12:28
,wl-rdm,75,281020,0.0-6.67-0.67,0.0,75.0,,,,,,,[],,,,,,73.6,0.0,u,0.0,True,1142.8999999761581,69.0,60.0,40.0,False,,207.18776463894844,[],"[960, 600]",ColorTask,38.0,68.0,,,HRV,HRV_0098,2022-11-30 18:12:28
,wl-rdm,76,283989,0.0-6.68-0.68,0.0,76.0,,,,,,,[],,,,,,50.0,1.0,u,0.0,False,1555.2999999523163,94.0,60.0,40.0,False,,343.66459300031414,[],"[960, 600]",ColorTask,37.0,69.0,,,HRV,HRV_0098,2022-11-30 18:12:28
,wl-rdm,77,286791,0.0-6.69-0.69,0.0,77.0,,,,,,,[],,,,,,50.0,0.0,i,1.0,False,1375.6000000238419,83.0,60.0,40.0,False,,355.5869705604755,[],"[960, 600]",ColorTask,36.0,70.0,,,HRV,HRV_0098,2022-11-30 18:12:28
,wl-rdm,78,289476,0.0-6.70-0.70,0.0,78.0,,,,,,,[],,,,,,73.6,0.0,u,0.0,True,1272.2999999523163,77.0,60.0,40.0,False,,347.47453889103156,[],"[960, 600]",ColorTask,37.0,71.0,,,HRV,HRV_0098,2022-11-30 18:12:28
,wl-rdm,79,291826,0.0-6.71-0.71,0.0,79.0,,,,,,,[],,,,,,73.6,1.0,i,1.0,True,1007.9999998807907,61.0,60.0,40.0,False,,265.3995495068494,[],"[960, 600]",ColorTask,38.0,72.0,,,HRV,HRV_0098,2022-11-30 18:12:28
,wl-rdm,80,294631,0.0-6.72-0.72,0.0,80.0,,,,,,,[],,,,,,50.0,0.0,i,1.0,False,1493.0,90.0,60.0,40.0,False,,250.57996338802275,[],"[960, 600]",ColorTask,37.0,73.0,,,HRV,HRV_0098,2022-11-30 18:12:28
,wl-rdm,81,297483,0.0-6.73-0.73,0.0,81.0,,,,,,,[],,,,,,62.5,1.0,i,1.0,True,1452.1000000238419,88.0,60.0,40.0,False,,317.61658575580026,[],"[960, 600]",ColorTask,38.0,74.0,,,HRV,HRV_0098,2022-11-30 18:12:28
,wl-rdm,82,300569,0.0-6.74-0.74,0.0,82.0,,,,,,,[],,,,,,62.5,1.0,i,1.0,True,1772.0999999046326,107.0,60.0,40.0,False,,247.3815572094992,[],"[960, 600]",ColorTask,39.0,75.0,,,HRV,HRV_0098,2022-11-30 18:12:28
,wl-rdm,83,302654,0.0-6.75-0.75,0.0,83.0,,,,,,,[],,,,,,87.9,1.0,i,1.0,True,783.1999999284744,47.0,60.0,40.0,False,,234.54454761074706,[],"[960, 600]",ColorTask,40.0,76.0,,,HRV,HRV_0098,2022-11-30 18:12:28
,wl-rdm,84,305556,0.0-6.76-0.76,0.0,84.0,,,,,,,[],,,,,,56.4,1.0,u,0.0,False,1628.4000000953674,98.0,60.0,40.0,False,,208.34473492863998,[],"[960, 600]",ColorTask,39.0,77.0,,,HRV,HRV_0098,2022-11-30 18:12:28
,wl-rdm,85,308592,0.0-6.77-0.77,0.0,85.0,,,,,,,[],,,,,,62.5,1.0,i,1.0,True,1733.7000000476837,104.0,60.0,40.0,False,,233.59688796694576,[],"[960, 600]",ColorTask,40.0,78.0,,,HRV,HRV_0098,2022-11-30 18:12:28
,wl-rdm,86,311044,0.0-6.78-0.78,0.0,86.0,,,,,,,[],,,,,,53.2,1.0,i,1.0,True,1098.2000000476837,66.0,60.0,40.0,False,,285.5022160242041,[],"[960, 600]",ColorTask,41.0,79.0,,,HRV,HRV_0098,2022-11-30 18:12:28
,wl-rdm,87,313730,0.0-6.79-0.79,0.0,87.0,,,,,,,[],,,,,,53.2,0.0,u,0.0,True,1392.4000000953674,84.0,60.0,40.0,False,,229.03064272105667,[],"[960, 600]",ColorTask,42.0,80.0,,,HRV,HRV_0098,2022-11-30 18:12:28
,wl-rdm,88,316332,0.0-6.80-0.80,0.0,88.0,,,,,,,[],,,,,,62.5,0.0,u,0.0,True,1333.2999999523163,80.0,60.0,40.0,False,,204.44922783366025,[],"[960, 600]",ColorTask,43.0,81.0,,,HRV,HRV_0098,2022-11-30 18:12:28
,wl-rdm,89,319035,0.0-6.81-0.81,0.0,89.0,,,,,,,[],,,,,,62.5,0.0,u,0.0,True,1409.8999999761581,85.0,60.0,40.0,False,,221.52342904290032,[],"[960, 600]",ColorTask,44.0,82.0,,,HRV,HRV_0098,2022-11-30 18:12:28
,wl-rdm,90,321520,0.0-6.82-0.82,0.0,90.0,,,,,,,[],,,,,,62.5,1.0,i,1.0,True,1146.5999999046326,69.0,60.0,40.0,False,,270.13315652556514,[],"[960, 600]",ColorTask,45.0,83.0,,,HRV,HRV_0098,2022-11-30 18:12:28
,wl-rdm,91,324439,0.0-6.83-0.83,0.0,91.0,,,,,,,[],,,,,,53.2,1.0,i,1.0,True,1605.0,97.0,60.0,40.0,False,,241.67212974021703,[],"[960, 600]",ColorTask,46.0,84.0,,,HRV,HRV_0098,2022-11-30 18:12:28
,wl-rdm,92,327125,0.0-6.84-0.84,0.0,92.0,,,,,,,[],,,,,,53.2,1.0,i,1.0,True,1291.0,78.0,60.0,40.0,False,,308.66702932623866,[],"[960, 600]",ColorTask,47.0,85.0,,,HRV,HRV_0098,2022-11-30 18:12:28
,wl-rdm,93,329493,0.0-6.85-0.85,0.0,93.0,,,,,,,[],,,,,,73.6,0.0,u,0.0,True,942.2999999523163,57.0,60.0,40.0,False,,364.6946529348148,[],"[960, 600]",ColorTask,48.0,86.0,,,HRV,HRV_0098,2022-11-30 18:12:28
,wl-rdm,94,332429,0.0-6.86-0.86,0.0,94.0,,,,,,,[],,,,,,50.0,0.0,i,1.0,False,1636.4000000953674,99.0,60.0,40.0,False,,228.03715451147033,[],"[960, 600]",ColorTask,47.0,87.0,,,HRV,HRV_0098,2022-11-30 18:12:28
,wl-rdm,95,334864,0.0-6.87-0.87,0.0,95.0,,,,,,,[],,,,,,62.5,0.0,u,0.0,True,1053.4000000953674,64.0,60.0,40.0,False,,313.9712637308685,[],"[960, 600]",ColorTask,48.0,88.0,,,HRV,HRV_0098,2022-11-30 18:12:28
,wl-rdm,96,337767,0.0-6.88-0.88,0.0,96.0,,,,,,,[],,,,,,56.4,1.0,i,1.0,True,1564.8999999761581,94.0,60.0,40.0,False,,251.03153708212335,[],"[960, 600]",ColorTask,49.0,89.0,,,HRV,HRV_0098,2022-11-30 18:12:28
,wl-rdm,97,340669,0.0-6.89-0.89,0.0,97.0,,,,,,,[],,,,,,56.4,1.0,i,1.0,True,1544.5,93.0,60.0,40.0,False,,287.6731236631467,[],"[960, 600]",ColorTask,50.0,90.0,,,HRV,HRV_0098,2022-11-30 18:12:28
,wl-rdm,98,343505,0.0-6.90-0.90,0.0,98.0,,,,,,,[],,,,,,62.5,1.0,i,1.0,True,1566.6000000238419,94.0,60.0,40.0,False,,200.24355396670666,[],"[960, 600]",ColorTask,51.0,91.0,,,HRV,HRV_0098,2022-11-30 18:12:28
,wl-rdm,99,346274,0.0-6.91-0.91,0.0,99.0,,,,,,,[],,,,,,50.0,1.0,u,0.0,False,1319.6999999284744,80.0,60.0,40.0,False,,376.7379023640894,[],"[960, 600]",ColorTask,50.0,92.0,,,HRV,HRV_0098,2022-11-30 18:12:28
,wl-rdm,100,349093,0.0-6.92-0.92,0.0,100.0,,,,,,,[],,,,,,50.0,0.0,i,1.0,False,1550.0,93.0,60.0,40.0,False,,216.56212075402416,[],"[960, 600]",ColorTask,49.0,93.0,,,HRV,HRV_0098,2022-11-30 18:12:28
,wl-rdm,101,352329,0.0-6.93-0.93,0.0,101.0,,,,,,,[],,,,,,56.4,1.0,i,1.0,True,1862.8999998569489,112.0,60.0,40.0,False,,314.30394575208686,[],"[960, 600]",ColorTask,50.0,94.0,,,HRV,HRV_0098,2022-11-30 18:12:28
,wl-rdm,102,355899,0.0-6.94-0.94,0.0,102.0,,,,,,,[],,,,,,50.0,1.0,u,0.0,False,2297.1999999284744,138.0,60.0,40.0,False,,214.18231147123385,[],"[960, 600]",ColorTask,49.0,95.0,,,HRV,HRV_0098,2022-11-30 18:12:28
,wl-rdm,103,358334,0.0-6.95-0.95,0.0,103.0,,,,,,,[],,,,,,73.6,1.0,i,1.0,True,1075.9000000953674,65.0,60.0,40.0,False,,287.6707480571815,[],"[960, 600]",ColorTask,50.0,96.0,,,HRV,HRV_0098,2022-11-30 18:12:28
,wl-rdm,104,360619,0.0-6.96-0.96,0.0,104.0,,,,,,,[],,,,,,56.4,0.0,u,0.0,True,1010.1000000238419,61.0,60.0,40.0,False,,202.47015412765137,[],"[960, 600]",ColorTask,51.0,97.0,,,HRV,HRV_0098,2022-11-30 18:12:28
,wl-rdm,105,363572,0.0-6.97-0.97,0.0,105.0,,,,,,,[],,,,,,56.4,1.0,i,1.0,True,1647.8000000715256,99.0,60.0,40.0,False,,245.44976032985008,[],"[960, 600]",ColorTask,52.0,98.0,,,HRV,HRV_0098,2022-11-30 18:12:28
,wl-rdm,106,366407,0.0-6.98-0.98,0.0,106.0,,,,,,,[],,,,,,50.0,1.0,u,0.0,False,1437.5999999046326,87.0,60.0,40.0,False,,330.7025745736923,[],"[960, 600]",ColorTask,51.0,99.0,,,HRV,HRV_0098,2022-11-30 18:12:28
,wl-rdm,107,369243,0.0-6.99-0.99,0.0,107.0,,,,,,,[],,,,,,62.5,1.0,i,1.0,True,1390.3999999761581,84.0,60.0,40.0,False,,374.6388846787814,[],"[960, 600]",ColorTask,52.0,100.0,,,HRV,HRV_0098,2022-11-30 18:12:28
,wl-rdm,108,371862,0.0-6.100-0.100,0.0,108.0,,,,,,,[],,,,,,50.0,1.0,u,0.0,False,1254.1000000238419,76.0,60.0,40.0,False,,294.9561181517686,[],"[960, 600]",ColorTask,51.0,101.0,,,HRV,HRV_0098,2022-11-30 18:12:28
,wl-rdm,109,374531,0.0-6.101-0.101,0.0,109.0,,,,,,,[],,,,,,53.2,0.0,u,0.0,True,1264.2999999523163,76.0,60.0,40.0,False,,336.78708407347983,[],"[960, 600]",ColorTask,52.0,102.0,,,HRV,HRV_0098,2022-11-30 18:12:28
,wl-rdm,110,376950,0.0-6.102-0.102,0.0,110.0,,,,,,,[],,,,,,62.5,0.0,u,0.0,True,1031.4000000953674,62.0,60.0,40.0,False,,328.92830551208095,[],"[960, 600]",ColorTask,53.0,103.0,,,HRV,HRV_0098,2022-11-30 18:12:28
,wl-rdm,111,379285,0.0-6.103-0.103,0.0,111.0,,,,,,,[],,,,,,73.6,0.0,u,0.0,True,957.4000000953674,58.0,60.0,40.0,False,,302.9890917296291,[],"[960, 600]",ColorTask,54.0,104.0,,,HRV,HRV_0098,2022-11-30 18:12:28
,wl-rdm,112,381470,0.0-6.104-0.104,0.0,112.0,,,,,,,[],,,,,,53.2,1.0,i,1.0,True,916.1000000238419,55.0,60.0,40.0,False,,224.77561058324991,[],"[960, 600]",ColorTask,55.0,105.0,,,HRV,HRV_0098,2022-11-30 18:12:28
,wl-rdm,113,383672,0.0-6.105-0.105,0.0,113.0,,,,,,,[],,,,,,73.6,0.0,u,0.0,True,773.4999998807907,47.0,60.0,40.0,False,,357.7846419287765,[],"[960, 600]",ColorTask,56.0,106.0,,,HRV,HRV_0098,2022-11-30 18:12:28
,wl-rdm,114,386007,0.0-6.106-0.106,0.0,114.0,,,,,,,[],,,,,,62.5,1.0,i,1.0,True,1053.5,64.0,60.0,40.0,False,,202.61192850392078,[],"[960, 600]",ColorTask,57.0,107.0,,,HRV,HRV_0098,2022-11-30 18:12:28
,wl-rdm,115,388109,0.0-6.107-0.107,0.0,115.0,,,,,,,[],,,,,,87.9,0.0,u,0.0,True,761.5,46.0,60.0,40.0,False,,273.1661159547948,[],"[960, 600]",ColorTask,58.0,108.0,,,HRV,HRV_0098,2022-11-30 18:12:28
,wl-rdm,116,390761,0.0-6.108-0.108,0.0,116.0,,,,,,,[],,,,,,53.2,0.0,u,0.0,True,1191.1000000238419,72.0,60.0,40.0,False,,393.125430616844,[],"[960, 600]",ColorTask,59.0,109.0,,,HRV,HRV_0098,2022-11-30 18:12:28
,wl-html-keyboard-response,117,398353,0.0-7.0-0.0,1.0,117.0,,,,,,,,5567.700000047684,1.0,0,,,,,,,,,,,,,,,,,,,,,,HRV,HRV_0098,2022-11-30 18:12:28
,wl-rdm,118,401253,0.0-8.0-0.0,1.0,118.0,,,,,,,[],,,,,,53.2,1.0,i,1.0,True,1451.3999999761581,88.0,60.0,40.0,False,,373.72441845155686,[],"[960, 600]",ColorTask,60.0,1.0,,,HRV,HRV_0098,2022-11-30 18:12:28
,wl-rdm,119,403338,0.0-8.1-0.1,1.0,119.0,,,,,,,[],,,,,,73.6,1.0,i,1.0,True,806.0,49.0,60.0,40.0,False,,212.8886309807175,[],"[960, 600]",ColorTask,61.0,2.0,,,HRV,HRV_0098,2022-11-30 18:12:28
,wl-rdm,120,406007,0.0-8.2-0.2,1.0,120.0,,,,,,,[],,,,,,62.5,1.0,i,1.0,True,1364.1000000238419,82.0,60.0,40.0,False,,235.11948129472205,[],"[960, 600]",ColorTask,62.0,3.0,,,HRV,HRV_0098,2022-11-30 18:12:28
,wl-rdm,121,408142,0.0-8.3-0.3,1.0,121.0,,,,,,,[],,,,,,87.9,0.0,u,0.0,True,817.8999999761581,50.0,60.0,40.0,False,,239.0258551841552,[],"[960, 600]",ColorTask,63.0,4.0,,,HRV,HRV_0098,2022-11-30 18:12:28
,wl-rdm,122,410528,0.0-8.4-0.4,1.0,122.0,,,,,,,[],,,,,,62.5,1.0,i,1.0,True,958.2999999523163,58.0,60.0,40.0,False,,364.8314874492197,[],"[960, 600]",ColorTask,64.0,5.0,,,HRV,HRV_0098,2022-11-30 18:12:28
,wl-rdm,123,413330,0.0-8.5-0.5,1.0,123.0,,,,,,,[],,,,,,62.5,1.0,i,1.0,True,1390.1000000238419,84.0,60.0,40.0,False,,343.65201316152366,[],"[960, 600]",ColorTask,65.0,6.0,,,HRV,HRV_0098,2022-11-30 18:12:28
,wl-rdm,124,415548,0.0-8.6-0.6,1.0,124.0,,,,,,,[],,,,,,56.4,1.0,u,0.0,False,849.3000000715256,51.0,60.0,40.0,False,,314.83353703497596,[],"[960, 600]",ColorTask,64.0,7.0,,,HRV,HRV_0098,2022-11-30 18:12:28
,wl-rdm,125,417917,0.0-8.7-0.7,1.0,125.0,,,,,,,[],,,,,,56.4,1.0,i,1.0,True,941.2999999523163,57.0,60.0,40.0,False,,355.40510469129225,[],"[960, 600]",ColorTask,65.0,8.0,,,HRV,HRV_0098,2022-11-30 18:12:28
,wl-rdm,126,420536,0.0-8.8-0.8,1.0,126.0,,,,,,,[],,,,,,50.0,1.0,u,0.0,False,1251.8999999761581,76.0,60.0,40.0,False,,316.7664939335352,[],"[960, 600]",ColorTask,64.0,9.0,,,HRV,HRV_0098,2022-11-30 18:12:28
,wl-rdm,127,423522,0.0-8.9-0.9,1.0,127.0,,,,,,,[],,,,,,53.2,1.0,i,1.0,True,1556.6000000238419,94.0,60.0,40.0,False,,363.1775723589194,[],"[960, 600]",ColorTask,65.0,10.0,,,HRV,HRV_0098,2022-11-30 18:12:28
,wl-rdm,128,425807,0.0-8.10-0.10,1.0,128.0,,,,,,,[],,,,,,73.6,1.0,i,1.0,True,935.3999999761581,57.0,60.0,40.0,False,,272.67929721284804,[],"[960, 600]",ColorTask,66.0,11.0,,,HRV,HRV_0098,2022-11-30 18:12:28
,wl-rdm,129,428993,0.0-8.11-0.11,1.0,129.0,,,,,,,[],,,,,,50.0,1.0,i,1.0,True,1870.2999999523163,113.0,60.0,40.0,False,,247.31453261441624,[],"[960, 600]",ColorTask,67.0,12.0,,,HRV,HRV_0098,2022-11-30 18:12:28
,wl-rdm,130,431345,0.0-8.12-0.12,1.0,130.0,,,,,,,[],,,,,,73.6,1.0,i,1.0,True,958.0999999046326,58.0,60.0,40.0,False,,326.34066335285667,[],"[960, 600]",ColorTask,68.0,13.0,,,HRV,HRV_0098,2022-11-30 18:12:28
,wl-rdm,131,433964,0.0-8.13-0.13,1.0,131.0,,,,,,,[],,,,,,50.0,1.0,u,0.0,False,1294.0,78.0,60.0,40.0,False,,264.50795519994756,[],"[960, 600]",ColorTask,67.0,14.0,,,HRV,HRV_0098,2022-11-30 18:12:28
,wl-rdm,132,436299,0.0-8.14-0.14,1.0,132.0,,,,,,,[],,,,,,53.2,0.0,u,0.0,True,1045.2000000476837,63.0,60.0,40.0,False,,218.31247303914904,[],"[960, 600]",ColorTask,68.0,15.0,,,HRV,HRV_0098,2022-11-30 18:12:28
,wl-rdm,133,438835,0.0-8.15-0.15,1.0,133.0,,,,,,,[],,,,,,62.5,1.0,i,1.0,True,1216.3999998569489,73.0,60.0,40.0,False,,266.6510500172242,[],"[960, 600]",ColorTask,69.0,16.0,,,HRV,HRV_0098,2022-11-30 18:12:28
,wl-rdm,134,441170,0.0-8.16-0.16,1.0,134.0,,,,,,,[],,,,,,73.6,0.0,u,0.0,True,933.5,56.0,60.0,40.0,False,,337.4223439915095,[],"[960, 600]",ColorTask,70.0,17.0,,,HRV,HRV_0098,2022-11-30 18:12:28
,wl-rdm,135,443172,0.0-8.17-0.17,1.0,135.0,,,,,,,[],,,,,,73.6,1.0,i,1.0,True,714.7000000476837,43.0,60.0,40.0,False,,233.37924037633894,[],"[960, 600]",ColorTask,71.0,18.0,,,HRV,HRV_0098,2022-11-30 18:12:28
,wl-rdm,136,446341,0.0-8.18-0.18,1.0,136.0,,,,,,,[],,,,,,53.2,0.0,i,1.0,False,1883.1999998092651,113.0,60.0,40.0,False,,226.3619195243095,[],"[960, 600]",ColorTask,70.0,19.0,,,HRV,HRV_0098,2022-11-30 18:12:28
,wl-rdm,137,449143,0.0-8.19-0.19,1.0,137.0,,,,,,,[],,,,,,50.0,0.0,u,0.0,True,1468.6999999284744,89.0,60.0,40.0,False,,265.52569907726496,[],"[960, 600]",ColorTask,71.0,20.0,,,HRV,HRV_0098,2022-11-30 18:12:28
,wl-rdm,138,452312,0.0-8.20-0.20,1.0,138.0,,,,,,,[],,,,,,50.0,0.0,u,0.0,True,1897.7999999523163,114.0,60.0,40.0,False,,200.4102658238964,[],"[960, 600]",ColorTask,72.0,21.0,,,HRV,HRV_0098,2022-11-30 18:12:28
,wl-rdm,139,455132,0.0-8.21-0.21,1.0,139.0,,,,,,,[],,,,,,50.0,0.0,u,0.0,True,1526.5,92.0,60.0,40.0,False,,230.12011885102356,[],"[960, 600]",ColorTask,73.0,22.0,,,HRV,HRV_0098,2022-11-30 18:12:28
,wl-rdm,140,457750,0.0-8.22-0.22,1.0,140.0,,,,,,,[],,,,,,62.5,0.0,u,0.0,True,1281.5999999046326,77.0,60.0,40.0,False,,267.3182619907734,[],"[960, 600]",ColorTask,74.0,23.0,,,HRV,HRV_0098,2022-11-30 18:12:28
,wl-rdm,141,460920,0.0-8.23-0.23,1.0,141.0,,,,,,,[],,,,,,56.4,0.0,u,0.0,True,1899.9000000953674,114.0,60.0,40.0,False,,201.6221319227618,[],"[960, 600]",ColorTask,75.0,24.0,,,HRV,HRV_0098,2022-11-30 18:12:28
,wl-rdm,142,463823,0.0-8.24-0.24,1.0,142.0,,,,,,,[],,,,,,50.0,0.0,i,1.0,False,1530.5999999046326,92.0,60.0,40.0,False,,308.4332371098229,[],"[960, 600]",ColorTask,74.0,25.0,,,HRV,HRV_0098,2022-11-30 18:12:28
,wl-rdm,143,466241,0.0-8.25-0.25,1.0,143.0,,,,,,,[],,,,,,73.6,1.0,i,1.0,True,1072.2999999523163,65.0,60.0,40.0,False,,270.61003210532965,[],"[960, 600]",ColorTask,75.0,26.0,,,HRV,HRV_0098,2022-11-30 18:12:28
,wl-rdm,144,468509,0.0-8.26-0.26,1.0,144.0,,,,,,,[],,,,,,73.6,0.0,u,0.0,True,981.0000001192093,59.0,60.0,40.0,False,,233.26208130916228,[],"[960, 600]",ColorTask,76.0,27.0,,,HRV,HRV_0098,2022-11-30 18:12:28
,wl-rdm,145,471428,0.0-8.27-0.27,1.0,145.0,,,,,,,[],,,,,,56.4,0.0,u,0.0,True,1643.9999998807907,99.0,60.0,40.0,False,,209.44452320653622,[],"[960, 600]",ColorTask,77.0,28.0,,,HRV,HRV_0098,2022-11-30 18:12:28
,wl-rdm,146,474414,0.0-8.28-0.28,1.0,146.0,,,,,,,[],,,,,,62.5,0.0,u,0.0,True,1557.0000001192093,94.0,60.0,40.0,False,,356.432173624748,[],"[960, 600]",ColorTask,78.0,29.0,,,HRV,HRV_0098,2022-11-30 18:12:28
,wl-rdm,147,477050,0.0-8.29-0.29,1.0,147.0,,,,,,,[],,,,,,53.2,1.0,i,1.0,True,1191.3999999761581,72.0,60.0,40.0,False,,369.90298327363723,[],"[960, 600]",ColorTask,79.0,30.0,,,HRV,HRV_0098,2022-11-30 18:12:28
,wl-rdm,148,479185,0.0-8.30-0.30,1.0,148.0,,,,,,,[],,,,,,73.6,0.0,u,0.0,True,812.6000000238419,49.0,60.0,40.0,False,,265.09933610210305,[],"[960, 600]",ColorTask,80.0,31.0,,,HRV,HRV_0098,2022-11-30 18:12:28
,wl-rdm,149,481353,0.0-8.31-0.31,1.0,149.0,,,,,,,[],,,,,,73.6,1.0,i,1.0,True,725.1000000238419,44.0,60.0,40.0,False,,373.05081789717457,[],"[960, 600]",ColorTask,81.0,32.0,,,HRV,HRV_0098,2022-11-30 18:12:28
,wl-rdm,150,483572,0.0-8.32-0.32,1.0,150.0,,,,,,,[],,,,,,73.6,0.0,u,0.0,True,909.1000000238419,55.0,60.0,40.0,False,,244.25410291534024,[],"[960, 600]",ColorTask,82.0,33.0,,,HRV,HRV_0098,2022-11-30 18:12:28
,wl-rdm,151,486441,0.0-8.33-0.33,1.0,151.0,,,,,,,[],,,,,,62.5,0.0,u,0.0,True,1531.2999999523163,92.0,60.0,40.0,False,,278.5705473098707,[],"[960, 600]",ColorTask,83.0,34.0,,,HRV,HRV_0098,2022-11-30 18:12:28
,wl-rdm,152,489027,0.0-8.34-0.34,1.0,152.0,,,,,,,[],,,,,,53.2,0.0,i,1.0,False,1271.0,77.0,60.0,40.0,False,,238.04951279093814,[],"[960, 600]",ColorTask,82.0,35.0,,,HRV,HRV_0098,2022-11-30 18:12:28
,wl-rdm,153,492096,0.0-8.35-0.35,1.0,153.0,,,,,,,[],,,,,,50.0,1.0,u,0.0,False,1787.8000000715256,108.0,60.0,40.0,False,,203.86540506955325,[],"[960, 600]",ColorTask,81.0,36.0,,,HRV,HRV_0098,2022-11-30 18:12:28
,wl-rdm,154,494331,0.0-8.36-0.36,1.0,154.0,,,,,,,[],,,,,,87.9,1.0,i,1.0,True,906.0,55.0,60.0,40.0,False,,260.88668745162875,[],"[960, 600]",ColorTask,82.0,37.0,,,HRV,HRV_0098,2022-11-30 18:12:28
,wl-rdm,155,497033,0.0-8.37-0.37,1.0,155.0,,,,,,,[],,,,,,50.0,1.0,i,1.0,True,1387.4999998807907,84.0,60.0,40.0,False,,247.92322471660526,[],"[960, 600]",ColorTask,83.0,38.0,,,HRV,HRV_0098,2022-11-30 18:12:28
,wl-rdm,156,499218,0.0-8.38-0.38,1.0,156.0,,,,,,,[],,,,,,56.4,0.0,u,0.0,True,915.0,55.0,60.0,40.0,False,,210.74433844330213,[],"[960, 600]",ColorTask,84.0,39.0,,,HRV,HRV_0098,2022-11-30 18:12:28
,wl-rdm,157,501353,0.0-8.39-0.39,1.0,157.0,,,,,,,[],,,,,,87.9,0.0,u,0.0,True,852.4000000953674,52.0,60.0,40.0,False,,215.33126767144068,[],"[960, 600]",ColorTask,85.0,40.0,,,HRV,HRV_0098,2022-11-30 18:12:28
,wl-rdm,158,504206,0.0-8.40-0.40,1.0,158.0,,,,,,,[],,,,,,56.4,1.0,i,1.0,True,1446.3999999761581,87.0,60.0,40.0,False,,336.64457990003217,[],"[960, 600]",ColorTask,86.0,41.0,,,HRV,HRV_0098,2022-11-30 18:12:28
,wl-rdm,159,506625,0.0-8.41-0.41,1.0,159.0,,,,,,,[],,,,,,73.6,1.0,i,1.0,True,993.3000000715256,60.0,60.0,40.0,False,,361.1470583431373,[],"[960, 600]",ColorTask,87.0,42.0,,,HRV,HRV_0098,2022-11-30 18:12:28
,wl-rdm,160,509744,0.0-8.42-0.42,1.0,160.0,,,,,,,[],,,,,,62.5,0.0,u,0.0,True,1802.3999999761581,109.0,60.0,40.0,False,,248.14853326379716,[],"[960, 600]",ColorTask,88.0,43.0,,,HRV,HRV_0098,2022-11-30 18:12:28
,wl-rdm,161,512713,0.0-8.43-0.43,1.0,161.0,,,,,,,[],,,,,,50.0,0.0,i,1.0,False,1653.0,100.0,60.0,40.0,False,,240.11706394363665,[],"[960, 600]",ColorTask,87.0,44.0,,,HRV,HRV_0098,2022-11-30 18:12:28
,wl-rdm,162,514948,0.0-8.44-0.44,1.0,162.0,,,,,,,[],,,,,,87.9,1.0,i,1.0,True,926.8999999761581,56.0,60.0,40.0,False,,239.25702707248468,[],"[960, 600]",ColorTask,88.0,45.0,,,HRV,HRV_0098,2022-11-30 18:12:28
,wl-rdm,163,517133,0.0-8.45-0.45,1.0,163.0,,,,,,,[],,,,,,87.9,1.0,i,1.0,True,722.2999999523163,44.0,60.0,40.0,False,,385.987144024528,[],"[960, 600]",ColorTask,89.0,46.0,,,HRV,HRV_0098,2022-11-30 18:12:28
,wl-rdm,164,520203,0.0-8.46-0.46,1.0,164.0,,,,,,,[],,,,,,50.0,0.0,i,1.0,False,1666.6000000238419,100.0,60.0,40.0,False,,350.00883902765383,[],"[960, 600]",ColorTask,88.0,47.0,,,HRV,HRV_0098,2022-11-30 18:12:28
,wl-rdm,165,522821,0.0-8.47-0.47,1.0,165.0,,,,,,,[],,,,,,87.9,0.0,u,0.0,True,1161.5,70.0,60.0,40.0,False,,388.04057493172684,[],"[960, 600]",ColorTask,89.0,48.0,,,HRV,HRV_0098,2022-11-30 18:12:28
,wl-rdm,166,525074,0.0-8.48-0.48,1.0,166.0,,,,,,,[],,,,,,73.6,1.0,i,1.0,True,822.0,50.0,60.0,40.0,False,,361.10707224362994,[],"[960, 600]",ColorTask,90.0,49.0,,,HRV,HRV_0098,2022-11-30 18:12:28
,wl-rdm,167,528426,0.0-8.49-0.49,1.0,167.0,,,,,,,[],,,,,,53.2,0.0,i,1.0,False,2069.299999833107,125.0,60.0,40.0,False,,206.56133656298115,[],"[960, 600]",ColorTask,89.0,50.0,,,HRV,HRV_0098,2022-11-30 18:12:28
,wl-rdm,168,531412,0.0-8.50-0.50,1.0,168.0,,,,,,,[],,,,,,56.4,0.0,i,1.0,False,1666.6999999284744,100.0,60.0,40.0,False,,260.43389622105883,[],"[960, 600]",ColorTask,88.0,51.0,,,HRV,HRV_0098,2022-11-30 18:12:28
,wl-rdm,169,533664,0.0-8.51-0.51,1.0,169.0,,,,,,,[],,,,,,87.9,1.0,i,1.0,True,890.0,54.0,60.0,40.0,False,,284.37856339859,[],"[960, 600]",ColorTask,89.0,52.0,,,HRV,HRV_0098,2022-11-30 18:12:28
,wl-rdm,170,536550,0.0-8.52-0.52,1.0,170.0,,,,,,,[],,,,,,73.6,1.0,i,1.0,True,1545.3999999761581,93.0,60.0,40.0,False,,280.0100341600077,[],"[960, 600]",ColorTask,90.0,53.0,,,HRV,HRV_0098,2022-11-30 18:12:28
,wl-rdm,171,539235,0.0-8.53-0.53,1.0,171.0,,,,,,,[],,,,,,56.4,0.0,u,0.0,True,1359.2999999523163,82.0,60.0,40.0,False,,256.5608735592079,[],"[960, 600]",ColorTask,91.0,54.0,,,HRV,HRV_0098,2022-11-30 18:12:28
,wl-rdm,172,541421,0.0-8.54-0.54,1.0,172.0,,,,,,,[],,,,,,87.9,1.0,i,1.0,True,805.5,49.0,60.0,40.0,False,,316.4061422520358,[],"[960, 600]",ColorTask,92.0,55.0,,,HRV,HRV_0098,2022-11-30 18:12:28
,wl-rdm,173,544123,0.0-8.55-0.55,1.0,173.0,,,,,,,[],,,,,,50.0,1.0,i,1.0,True,1363.7000000476837,82.0,60.0,40.0,False,,270.45437971741944,[],"[960, 600]",ColorTask,93.0,56.0,,,HRV,HRV_0098,2022-11-30 18:12:28
,wl-rdm,174,547325,0.0-8.56-0.56,1.0,174.0,,,,,,,[],,,,,,50.0,0.0,u,0.0,True,1826.1000000238419,110.0,60.0,40.0,False,,308.53967398867667,[],"[960, 600]",ColorTask,94.0,57.0,,,HRV,HRV_0098,2022-11-30 18:12:28
,wl-rdm,175,550511,0.0-8.57-0.57,1.0,175.0,,,,,,,[],,,,,,62.5,0.0,u,0.0,True,1747.2000000476837,105.0,60.0,40.0,False,,376.59397577151435,[],"[960, 600]",ColorTask,95.0,58.0,,,HRV,HRV_0098,2022-11-30 18:12:28
,wl-rdm,176,553297,0.0-8.58-0.58,1.0,176.0,,,,,,,[],,,,,,73.6,0.0,u,0.0,True,1321.8999999761581,80.0,60.0,40.0,False,,385.0515096964082,[],"[960, 600]",ColorTask,96.0,59.0,,,HRV,HRV_0098,2022-11-30 18:12:28
,wl-rdm,177,555632,0.0-8.59-0.59,1.0,177.0,,,,,,,[],,,,,,87.9,0.0,u,0.0,True,984.7999999523163,60.0,60.0,40.0,False,,279.27302036414403,[],"[960, 600]",ColorTask,97.0,60.0,,,HRV,HRV_0098,2022-11-30 18:12:28
,wl-rdm,178,558952,0.0-8.60-0.60,1.0,178.0,,,,,,,[],,,,,,56.4,0.0,u,0.0,True,1857.8999999761581,112.0,60.0,40.0,False,,386.5440635332201,[],"[960, 600]",ColorTask,98.0,61.0,,,HRV,HRV_0098,2022-11-30 18:12:28
,wl-rdm,179,561520,0.0-8.61-0.61,1.0,179.0,,,,,,,[],,,,,,73.6,0.0,u,0.0,True,1119.2999999523163,68.0,60.0,40.0,False,,377.2329453234124,[],"[960, 600]",ColorTask,99.0,62.0,,,HRV,HRV_0098,2022-11-30 18:12:28
,wl-rdm,180,564773,0.0-8.62-0.62,1.0,180.0,,,,,,,[],,,,,,50.0,1.0,u,0.0,False,1796.6000000238419,108.0,60.0,40.0,False,,391.346561030546,[],"[960, 600]",ColorTask,98.0,63.0,,,HRV,HRV_0098,2022-11-30 18:12:28
,wl-rdm,181,567309,0.0-8.63-0.63,1.0,181.0,,,,,,,[],,,,,,53.2,1.0,i,1.0,True,1219.3000000715256,74.0,60.0,40.0,False,,239.19245231461545,[],"[960, 600]",ColorTask,99.0,64.0,,,HRV,HRV_0098,2022-11-30 18:12:28
,wl-rdm,182,570512,0.0-8.64-0.64,1.0,182.0,,,,,,,[],,,,,,53.2,0.0,u,0.0,True,1918.7999999523163,116.0,60.0,40.0,False,,213.40549607548954,[],"[960, 600]",ColorTask,100.0,65.0,,,HRV,HRV_0098,2022-11-30 18:12:28
,wl-rdm,183,572964,0.0-8.65-0.65,1.0,183.0,,,,,,,[],,,,,,56.4,1.0,i,1.0,True,1129.0,68.0,60.0,40.0,False,,266.7669600586502,[],"[960, 600]",ColorTask,101.0,66.0,,,HRV,HRV_0098,2022-11-30 18:12:28
,wl-rdm,184,576000,0.0-8.66-0.66,1.0,184.0,,,,,,,[],,,,,,56.4,0.0,u,0.0,True,1631.5999999046326,98.0,60.0,40.0,False,,348.4717222812004,[],"[960, 600]",ColorTask,102.0,67.0,,,HRV,HRV_0098,2022-11-30 18:12:28
,wl-rdm,185,578235,0.0-8.67-0.67,1.0,185.0,,,,,,,[],,,,,,87.9,0.0,u,0.0,True,917.0,55.0,60.0,40.0,False,,244.96264146777338,[],"[960, 600]",ColorTask,103.0,68.0,,,HRV,HRV_0098,2022-11-30 18:12:28
,wl-rdm,186,581571,0.0-8.68-0.68,1.0,186.0,,,,,,,[],,,,,,56.4,1.0,i,1.0,True,2026.6000000238419,122.0,60.0,40.0,False,,242.04678556622125,[],"[960, 600]",ColorTask,104.0,69.0,,,HRV,HRV_0098,2022-11-30 18:12:28
,wl-rdm,187,584690,0.0-8.69-0.69,1.0,187.0,,,,,,,[],,,,,,62.5,0.0,u,0.0,True,1652.3000000715256,100.0,60.0,40.0,False,,385.83096501184264,[],"[960, 600]",ColorTask,105.0,70.0,,,HRV,HRV_0098,2022-11-30 18:12:28
,wl-rdm,188,586942,0.0-8.70-0.70,1.0,188.0,,,,,,,[],,,,,,62.5,1.0,i,1.0,True,899.2999999523163,54.0,60.0,40.0,False,,287.58411705669863,[],"[960, 600]",ColorTask,106.0,71.0,,,HRV,HRV_0098,2022-11-30 18:12:28
,wl-rdm,189,589928,0.0-8.71-0.71,1.0,189.0,,,,,,,[],,,,,,56.4,1.0,i,1.0,True,1596.0,96.0,60.0,40.0,False,,321.61224557645664,[],"[960, 600]",ColorTask,107.0,72.0,,,HRV,HRV_0098,2022-11-30 18:12:28
,wl-rdm,190,592513,0.0-8.72-0.72,1.0,190.0,,,,,,,[],,,,,,62.5,1.0,i,1.0,True,1237.2999999523163,75.0,60.0,40.0,False,,270.6983730068552,[],"[960, 600]",ColorTask,108.0,73.0,,,HRV,HRV_0098,2022-11-30 18:12:28
,wl-rdm,191,595232,0.0-8.73-0.73,1.0,191.0,,,,,,,[],,,,,,53.2,1.0,i,1.0,True,1339.5999999046326,81.0,60.0,40.0,False,,315.2313238407454,[],"[960, 600]",ColorTask,109.0,74.0,,,HRV,HRV_0098,2022-11-30 18:12:28
,wl-rdm,192,597518,0.0-8.74-0.74,1.0,192.0,,,,,,,[],,,,,,62.5,0.0,u,0.0,True,974.5,59.0,60.0,40.0,False,,247.1961110330951,[],"[960, 600]",ColorTask,110.0,75.0,,,HRV,HRV_0098,2022-11-30 18:12:28
,wl-rdm,193,599970,0.0-8.75-0.75,1.0,193.0,,,,,,,[],,,,,,62.5,1.0,i,1.0,True,1134.6000000238419,68.0,60.0,40.0,False,,249.55871698021366,[],"[960, 600]",ColorTask,111.0,76.0,,,HRV,HRV_0098,2022-11-30 18:12:28
,wl-rdm,194,602822,0.0-8.76-0.76,1.0,194.0,,,,,,,[],,,,,,53.2,1.0,i,1.0,True,1433.7999999523163,86.0,60.0,40.0,False,,335.53255074517756,[],"[960, 600]",ColorTask,112.0,77.0,,,HRV,HRV_0098,2022-11-30 18:12:28
,wl-rdm,195,605224,0.0-8.77-0.77,1.0,195.0,,,,,,,[],,,,,,87.9,1.0,i,1.0,True,971.1999999284744,59.0,60.0,40.0,False,,359.94246681235427,[],"[960, 600]",ColorTask,113.0,78.0,,,HRV,HRV_0098,2022-11-30 18:12:28
,wl-rdm,196,607860,0.0-8.78-0.78,1.0,196.0,,,,,,,[],,,,,,62.5,0.0,u,0.0,True,1333.1000000238419,80.0,60.0,40.0,False,,240.22118055095316,[],"[960, 600]",ColorTask,114.0,79.0,,,HRV,HRV_0098,2022-11-30 18:12:28
,wl-rdm,197,610862,0.0-8.79-0.79,1.0,197.0,,,,,,,[],,,,,,56.4,1.0,i,1.0,True,1734.3999999761581,104.0,60.0,40.0,False,,203.39772320498193,[],"[960, 600]",ColorTask,115.0,80.0,,,HRV,HRV_0098,2022-11-30 18:12:28
,wl-rdm,198,613464,0.0-8.80-0.80,1.0,198.0,,,,,,,[],,,,,,53.2,1.0,i,1.0,True,1196.1000000238419,72.0,60.0,40.0,False,,339.9071910264872,[],"[960, 600]",ColorTask,116.0,81.0,,,HRV,HRV_0098,2022-11-30 18:12:28
,wl-rdm,199,616600,0.0-8.81-0.81,1.0,199.0,,,,,,,[],,,,,,50.0,0.0,i,1.0,False,1752.5,106.0,60.0,40.0,False,,312.2187713083273,[],"[960, 600]",ColorTask,115.0,82.0,,,HRV,HRV_0098,2022-11-30 18:12:28
,wl-rdm,200,619086,0.0-8.82-0.82,1.0,200.0,,,,,,,[],,,,,,62.5,1.0,i,1.0,True,1139.3999999761581,69.0,60.0,40.0,False,,273.49682571985636,[],"[960, 600]",ColorTask,116.0,83.0,,,HRV,HRV_0098,2022-11-30 18:12:28
,wl-rdm,201,622088,0.0-8.83-0.83,1.0,201.0,,,,,,,[],,,,,,50.0,1.0,i,1.0,True,1575.7000000476837,95.0,60.0,40.0,False,,357.8049252159125,[],"[960, 600]",ColorTask,117.0,84.0,,,HRV,HRV_0098,2022-11-30 18:12:28
,wl-rdm,202,624707,0.0-8.84-0.84,1.0,202.0,,,,,,,[],,,,,,62.5,0.0,u,0.0,True,1301.5,79.0,60.0,40.0,False,,238.61726752424087,[],"[960, 600]",ColorTask,118.0,85.0,,,HRV,HRV_0098,2022-11-30 18:12:28
,wl-rdm,203,627342,0.0-8.85-0.85,1.0,203.0,,,,,,,[],,,,,,56.4,1.0,i,1.0,True,1335.9000000953674,81.0,60.0,40.0,False,,228.1125457855332,[],"[960, 600]",ColorTask,119.0,86.0,,,HRV,HRV_0098,2022-11-30 18:12:28
,wl-rdm,204,630512,0.0-8.86-0.86,1.0,204.0,,,,,,,[],,,,,,53.2,0.0,i,1.0,False,1879.6000000238419,113.0,60.0,40.0,False,,233.39906847177775,[],"[960, 600]",ColorTask,118.0,87.0,,,HRV,HRV_0098,2022-11-30 18:12:28
,wl-rdm,205,632880,0.0-8.87-0.87,1.0,205.0,,,,,,,[],,,,,,73.6,0.0,u,0.0,True,993.6000000238419,60.0,60.0,40.0,False,,304.7582048917528,[],"[960, 600]",ColorTask,119.0,88.0,,,HRV,HRV_0098,2022-11-30 18:12:28
,wl-rdm,206,636066,0.0-8.88-0.88,1.0,206.0,,,,,,,[],,,,,,50.0,1.0,i,1.0,True,1770.6000000238419,107.0,60.0,40.0,False,,349.36960534906103,[],"[960, 600]",ColorTask,120.0,89.0,,,HRV,HRV_0098,2022-11-30 18:12:28
,wl-rdm,207,639319,0.0-8.89-0.89,1.0,207.0,,,,,,,[],,,,,,56.4,0.0,u,0.0,True,1821.6000000238419,110.0,60.0,40.0,False,,356.8260018307563,[],"[960, 600]",ColorTask,121.0,90.0,,,HRV,HRV_0098,2022-11-30 18:12:28
,wl-rdm,208,641421,0.0-8.90-0.90,1.0,208.0,,,,,,,[],,,,,,73.6,0.0,u,0.0,True,818.9999998807907,50.0,60.0,40.0,False,,204.8905413730467,[],"[960, 600]",ColorTask,122.0,91.0,,,HRV,HRV_0098,2022-11-30 18:12:28
,wl-rdm,209,644073,0.0-8.91-0.91,1.0,209.0,,,,,,,[],,,,,,73.6,0.0,u,0.0,True,1242.3999999761581,75.0,60.0,40.0,False,,335.6832945529411,[],"[960, 600]",ColorTask,123.0,92.0,,,HRV,HRV_0098,2022-11-30 18:12:28
,wl-rdm,210,646575,0.0-8.92-0.92,1.0,210.0,,,,,,,[],,,,,,53.2,0.0,u,0.0,True,1229.5,74.0,60.0,40.0,False,,216.3492807487538,[],"[960, 600]",ColorTask,124.0,93.0,,,HRV,HRV_0098,2022-11-30 18:12:28
,wl-rdm,211,649027,0.0-8.93-0.93,1.0,211.0,,,,,,,[],,,,,,53.2,0.0,u,0.0,True,991.8999999761581,60.0,60.0,40.0,False,,397.9213517138447,[],"[960, 600]",ColorTask,125.0,94.0,,,HRV,HRV_0098,2022-11-30 18:12:28
,wl-rdm,212,651663,0.0-8.94-0.94,1.0,212.0,,,,,,,[],,,,,,53.2,0.0,u,0.0,True,1246.7999999523163,75.0,60.0,40.0,False,,323.28624667211795,[],"[960, 600]",ColorTask,126.0,95.0,,,HRV,HRV_0098,2022-11-30 18:12:28
,wl-rdm,213,653998,0.0-8.95-0.95,1.0,213.0,,,,,,,[],,,,,,62.5,1.0,i,1.0,True,1026.0,62.0,60.0,40.0,False,,240.613037183352,[],"[960, 600]",ColorTask,127.0,96.0,,,HRV,HRV_0098,2022-11-30 18:12:28
,wl-rdm,214,656416,0.0-8.96-0.96,1.0,214.0,,,,,,,[],,,,,,53.2,1.0,u,0.0,False,1007.2000000476837,61.0,60.0,40.0,False,,339.54044167893767,[],"[960, 600]",ColorTask,126.0,97.0,,,HRV,HRV_0098,2022-11-30 18:12:28
,wl-rdm,215,658619,0.0-8.97-0.97,1.0,215.0,,,,,,,[],,,,,,87.9,1.0,i,1.0,True,746.7000000476837,45.0,60.0,40.0,False,,385.0816454960863,[],"[960, 600]",ColorTask,127.0,98.0,,,HRV,HRV_0098,2022-11-30 18:12:28
,wl-rdm,216,661304,0.0-8.98-0.98,1.0,216.0,,,,,,,[],,,,,,53.2,1.0,i,1.0,True,1346.7999999523163,81.0,60.0,40.0,False,,276.82026135347706,[],"[960, 600]",ColorTask,128.0,99.0,,,HRV,HRV_0098,2022-11-30 18:12:28
,wl-rdm,217,663456,0.0-8.99-0.99,1.0,217.0,,,,,,,[],,,,,,87.9,1.0,i,1.0,True,707.8999999761581,43.0,60.0,40.0,False,,366.0629506899655,[],"[960, 600]",ColorTask,129.0,100.0,,,HRV,HRV_0098,2022-11-30 18:12:28
,wl-rdm,218,665558,0.0-8.100-0.100,1.0,218.0,,,,,,,[],,,,,,87.9,0.0,u,0.0,True,727.6999999284744,44.0,60.0,40.0,False,,301.2713789841732,[],"[960, 600]",ColorTask,130.0,101.0,,,HRV,HRV_0098,2022-11-30 18:12:28
,wl-rdm,219,667576,0.0-8.101-0.101,1.0,219.0,,,,,,,[],,,,,,87.9,0.0,u,0.0,True,660.7000000476837,40.0,60.0,40.0,False,,292.0424995598413,[],"[960, 600]",ColorTask,131.0,102.0,,,HRV,HRV_0098,2022-11-30 18:12:28
,wl-rdm,220,669711,0.0-8.102-0.102,1.0,220.0,,,,,,,[],,,,,,87.9,0.0,u,0.0,True,851.5999999046326,52.0,60.0,40.0,False,,210.3992408872473,[],"[960, 600]",ColorTask,132.0,103.0,,,HRV,HRV_0098,2022-11-30 18:12:28
,wl-rdm,221,672263,0.0-8.103-0.103,1.0,221.0,,,,,,,[],,,,,,56.4,0.0,u,0.0,True,1279.5,77.0,60.0,40.0,False,,210.06031299439192,[],"[960, 600]",ColorTask,133.0,104.0,,,HRV,HRV_0098,2022-11-30 18:12:28
,wl-rdm,222,675916,0.0-8.104-0.104,1.0,222.0,,,,,,,[],,,,,,50.0,0.0,i,1.0,False,2194.7000000476837,132.0,60.0,40.0,False,,395.0172384801237,[],"[960, 600]",ColorTask,132.0,105.0,,,HRV,HRV_0098,2022-11-30 18:12:28
,wl-rdm,223,678735,0.0-8.105-0.105,1.0,223.0,,,,,,,[],,,,,,56.4,1.0,i,1.0,True,1429.2999999523163,86.0,60.0,40.0,False,,324.84879605923317,[],"[960, 600]",ColorTask,133.0,106.0,,,HRV,HRV_0098,2022-11-30 18:12:28
,wl-rdm,224,680854,0.0-8.106-0.106,1.0,224.0,,,,,,,[],,,,,,87.9,1.0,i,1.0,True,849.8000000715256,51.0,60.0,40.0,False,,215.29991538842836,[],"[960, 600]",ColorTask,134.0,107.0,,,HRV,HRV_0098,2022-11-30 18:12:28
,wl-rdm,225,682939,0.0-8.107-0.107,1.0,225.0,,,,,,,[],,,,,,87.9,0.0,u,0.0,True,744.0,45.0,60.0,40.0,False,,276.58413750379316,[],"[960, 600]",ColorTask,135.0,108.0,,,HRV,HRV_0098,2022-11-30 18:12:28
,wl-html-button-response,226,687333,0.0-9.0-0.0,,,,,,,,,,4391.600000023842,,0,,,,,,,,,,,,,,,,,,,,<h3>End of this session. Thank you!</h3><br>,['Close window'],HRV,HRV_0098,2022-11-30 18:12:28
