trialN,stimuli,trialStartTime,trialStartTime_UNIX,stimulus1,stimulus2,stimulus1Bid,stimulus2Bid,delta,selected,rt,rt_UNIX,rt_perfnow,receivedResponse,rsp,trialEndTime,trialDuration,trialEndTime_UNIX,trialDuration_UNIX,exp,subjectId,date
0,"[{'imgObject': {}, 'id': 'pear', 'src': '/static/foodstim60/pear.jpg', 'key': 'u', 'origWidth': 411, 'origHeight': 410, 'width': 411, 'height': 410, 'widthPercent': 0.45, 'rescaleHeight': False, 'trialN': 0, 'loaded': True, 'loadedTime': 1976.0999999046326, 'positionName': 'LEFT', 'positionCoords': [510.6, 395], 'bid': 5.0200000000000005}, {'imgObject': {}, 'id': 'luckycharms', 'src': '/static/foodstim60/luckycharms.jpg', 'key': 'i', 'origWidth': 410, 'origHeight': 409, 'width': 410, 'height': 409, 'widthPercent': 0.45, 'rescaleHeight': False, 'trialN': 0, 'loaded': True, 'loadedTime': 2044.5, 'positionName': 'RIGHT', 'positionCoords': [998.4, 395.5], 'bid': 3.15}]",2495.5,1669829966224,pear,luckycharms,5.0200000000000005,3.15,-1.8700000000000006,luckycharms,1371.5,1372,1372.0999999046326,True,i,4376.699999928474,1881.1999999284744,1669829968106,1882,HRV,HRV_0098,2022-11-30 17:44:55
1,"[{'imgObject': {}, 'id': 'bagel and cc', 'src': '/static/foodstim60/bagel and cc.jpg', 'key': 'u', 'origWidth': 410, 'origHeight': 410, 'width': 410, 'height': 410, 'widthPercent': 0.45, 'rescaleHeight': False, 'trialN': 1, 'loaded': True, 'loadedTime': 2049.399999976158, 'positionName': 'LEFT', 'positionCoords': [511.6, 395], 'bid': 3.8}, {'imgObject': {}, 'id': 'fruitsalad', 'src': '/static/foodstim60/fruitsalad.jpg', 'key': 'i', 'origWidth': 410, 'origHeight': 410, 'width': 410, 'height': 410, 'widthPercent': 0.45, 'rescaleHeight': False, 'trialN': 1, 'loaded': True, 'loadedTime': 2051.399999976158, 'positionName': 'RIGHT', 'positionCoords': [998.4, 395], 'bid': 6.12}]",4377.0,1669829968106,bagel and cc,fruitsalad,3.8,6.12,2.3200000000000003,fruitsalad,1203.3999999761581,1203,1203.5999999046326,True,i,6102.699999928474,1725.6999999284744,1669829969832,1726,HRV,HRV_0098,2022-11-30 17:44:55
2,"[{'imgObject': {}, 'id': 'mango', 'src': '/static/foodstim60/mango.jpg', 'key': 'u', 'origWidth': 411, 'origHeight': 411, 'width': 411, 'height': 411, 'widthPercent': 0.45, 'rescaleHeight': False, 'trialN': 2, 'loaded': True, 'loadedTime': 2053.5, 'positionName': 'LEFT', 'positionCoords': [510.6, 394.5], 'bid': 1.4}, {'imgObject': {}, 'id': 'luckycharms', 'src': '/static/foodstim60/luckycharms.jpg', 'key': 'i', 'origWidth': 410, 'origHeight': 409, 'width': 410, 'height': 409, 'widthPercent': 0.45, 'rescaleHeight': False, 'trialN': 2, 'loaded': True, 'loadedTime': 2044.5999999046326, 'positionName': 'RIGHT', 'positionCoords': [998.4, 395.5], 'bid': 3.15}]",6102.799999952316,1669829969832,mango,luckycharms,1.4,3.15,1.75,luckycharms,1037.0,1037,1037.2000000476837,True,i,7660.399999976158,1557.6000000238419,1669829971389,1557,HRV,HRV_0098,2022-11-30 17:44:55
3,"[{'imgObject': {}, 'id': 'grilled chicken strips', 'src': '/static/foodstim60/grilled chicken strips.jpg', 'key': 'u', 'origWidth': 410, 'origHeight': 411, 'width': 410, 'height': 411, 'widthPercent': 0.45, 'rescaleHeight': False, 'trialN': 3, 'loaded': True, 'loadedTime': 2054.5, 'positionName': 'LEFT', 'positionCoords': [511.6, 394.5], 'bid': 2.93}, {'imgObject': {}, 'id': 'yogurt no spoon', 'src': '/static/foodstim60/yogurt no spoon.jpg', 'key': 'i', 'origWidth': 411, 'origHeight': 410, 'width': 411, 'height': 410, 'widthPercent': 0.45, 'rescaleHeight': False, 'trialN': 3, 'loaded': True, 'loadedTime': 2055.899999976158, 'positionName': 'RIGHT', 'positionCoords': [998.4, 395], 'bid': 1.97}]",7660.5,1669829971389,grilled chicken strips,yogurt no spoon,2.93,1.97,-0.9600000000000002,yogurt no spoon,1206.8999999761581,1207,1207.1999999284744,True,i,9387.599999904633,1727.0999999046326,1669829973116,1727,HRV,HRV_0098,2022-11-30 17:44:55
4,"[{'imgObject': {}, 'id': 'salmon', 'src': '/static/foodstim60/salmon.jpg', 'key': 'u', 'origWidth': 410, 'origHeight': 409, 'width': 410, 'height': 409, 'widthPercent': 0.45, 'rescaleHeight': False, 'trialN': 4, 'loaded': True, 'loadedTime': 2056.2999999523163, 'positionName': 'LEFT', 'positionCoords': [511.6, 395.5], 'bid': 3.09}, {'imgObject': {}, 'id': 'apple slices', 'src': '/static/foodstim60/apple slices.jpg', 'key': 'i', 'origWidth': 409, 'origHeight': 410, 'width': 409, 'height': 410, 'widthPercent': 0.45, 'rescaleHeight': False, 'trialN': 4, 'loaded': True, 'loadedTime': 2076.399999976158, 'positionName': 'RIGHT', 'positionCoords': [998.4, 395], 'bid': 2.17}]",9387.699999928474,1669829973117,salmon,apple slices,3.09,2.17,-0.9199999999999999,apple slices,1746.1000000238419,1746,1746.3000000715256,True,i,11642.5,2254.8000000715256,1669829975371,2254,HRV,HRV_0098,2022-11-30 17:44:55
5,"[{'imgObject': {}, 'id': 'baked potato', 'src': '/static/foodstim60/baked potato.jpg', 'key': 'u', 'origWidth': 409, 'origHeight': 410, 'width': 409, 'height': 410, 'widthPercent': 0.45, 'rescaleHeight': False, 'trialN': 5, 'loaded': True, 'loadedTime': 2103.2999999523163, 'positionName': 'LEFT', 'positionCoords': [512.6, 395], 'bid': 3.95}, {'imgObject': {}, 'id': 'cocktailshrimp', 'src': '/static/foodstim60/cocktailshrimp.jpg', 'key': 'i', 'origWidth': 410, 'origHeight': 410, 'width': 410, 'height': 410, 'widthPercent': 0.45, 'rescaleHeight': False, 'trialN': 5, 'loaded': True, 'loadedTime': 2143.899999976158, 'positionName': 'RIGHT', 'positionCoords': [998.4, 395], 'bid': 5.55}]",11642.799999952316,1669829975372,baked potato,cocktailshrimp,3.95,5.55,1.5999999999999996,cocktailshrimp,1194.6000000238419,1194,1194.8999999761581,True,i,13353.399999976158,1710.6000000238419,1669829977082,1710,HRV,HRV_0098,2022-11-30 17:44:55
6,"[{'imgObject': {}, 'id': 'shreddedwheatwithmilk', 'src': '/static/foodstim60/shreddedwheatwithmilk.jpg', 'key': 'u', 'origWidth': 410, 'origHeight': 410, 'width': 410, 'height': 410, 'widthPercent': 0.45, 'rescaleHeight': False, 'trialN': 6, 'loaded': True, 'loadedTime': 2147.5999999046326, 'positionName': 'LEFT', 'positionCoords': [511.6, 395], 'bid': 1.1}, {'imgObject': {}, 'id': 'hotdog w must', 'src': '/static/foodstim60/hotdog w must.jpg', 'key': 'i', 'origWidth': 409, 'origHeight': 409, 'width': 409, 'height': 409, 'widthPercent': 0.45, 'rescaleHeight': False, 'trialN': 6, 'loaded': True, 'loadedTime': 2150.2999999523163, 'positionName': 'RIGHT', 'positionCoords': [998.4, 395.5], 'bid': 0}]",13353.5,1669829977082,shreddedwheatwithmilk,hotdog w must,1.1,0.0,-1.1,shreddedwheatwithmilk,1110.5999999046326,1111,1110.8999999761581,True,u,14969.5,1616.0,1669829978698,1616,HRV,HRV_0098,2022-11-30 17:44:55
7,"[{'imgObject': {}, 'id': 'shreddedwheatwithmilk', 'src': '/static/foodstim60/shreddedwheatwithmilk.jpg', 'key': 'u', 'origWidth': 410, 'origHeight': 410, 'width': 410, 'height': 410, 'widthPercent': 0.45, 'rescaleHeight': False, 'trialN': 7, 'loaded': True, 'loadedTime': 2147.899999976158, 'positionName': 'LEFT', 'positionCoords': [511.6, 395], 'bid': 1.1}, {'imgObject': {}, 'id': 'mango', 'src': '/static/foodstim60/mango.jpg', 'key': 'i', 'origWidth': 411, 'origHeight': 411, 'width': 411, 'height': 411, 'widthPercent': 0.45, 'rescaleHeight': False, 'trialN': 7, 'loaded': True, 'loadedTime': 2053.0999999046326, 'positionName': 'RIGHT', 'positionCoords': [998.4, 394.5], 'bid': 1.4}]",14969.699999928474,1669829978699,shreddedwheatwithmilk,mango,1.1,1.4,0.2999999999999998,mango,1405.3000000715256,1405,1405.6000000238419,True,i,16884.699999928474,1915.0,1669829980613,1914,HRV,HRV_0098,2022-11-30 17:44:55
8,"[{'imgObject': {}, 'id': 'chickenfingers', 'src': '/static/foodstim60/chickenfingers.jpg', 'key': 'u', 'origWidth': 410, 'origHeight': 410, 'width': 410, 'height': 410, 'widthPercent': 0.45, 'rescaleHeight': False, 'trialN': 8, 'loaded': True, 'loadedTime': 2010, 'positionName': 'LEFT', 'positionCoords': [511.6, 395], 'bid': 5.65}, {'imgObject': {}, 'id': 'raspberries', 'src': '/static/foodstim60/raspberries.jpg', 'key': 'i', 'origWidth': 411, 'origHeight': 411, 'width': 411, 'height': 411, 'widthPercent': 0.45, 'rescaleHeight': False, 'trialN': 8, 'loaded': True, 'loadedTime': 2077.2999999523163, 'positionName': 'RIGHT', 'positionCoords': [998.4, 394.5], 'bid': 3.59}]",16884.799999952316,1669829980614,chickenfingers,raspberries,5.65,3.59,-2.0600000000000005,chickenfingers,900.2999999523163,900,900.6000000238419,True,u,18296.299999952316,1411.5,1669829982025,1411,HRV,HRV_0098,2022-11-30 17:44:55
9,"[{'imgObject': {}, 'id': 'blueberries', 'src': '/static/foodstim60/blueberries.jpg', 'key': 'u', 'origWidth': 411, 'origHeight': 411, 'width': 411, 'height': 411, 'widthPercent': 0.45, 'rescaleHeight': False, 'trialN': 9, 'loaded': True, 'loadedTime': 2128.1999999284744, 'positionName': 'LEFT', 'positionCoords': [510.6, 394.5], 'bid': 2.56}, {'imgObject': {}, 'id': 'steak', 'src': '/static/foodstim60/steak.jpg', 'key': 'i', 'origWidth': 410, 'origHeight': 410, 'width': 410, 'height': 410, 'widthPercent': 0.45, 'rescaleHeight': False, 'trialN': 9, 'loaded': True, 'loadedTime': 2144.5, 'positionName': 'RIGHT', 'positionCoords': [998.4, 395], 'bid': 8.92}]",18296.599999904633,1669829982025,blueberries,steak,2.56,8.92,6.359999999999999,steak,776.2000000476837,777,776.5,True,i,19586.5,1289.9000000953674,1669829983315,1290,HRV,HRV_0098,2022-11-30 17:44:55
10,"[{'imgObject': {}, 'id': 'cocktailshrimp', 'src': '/static/foodstim60/cocktailshrimp.jpg', 'key': 'u', 'origWidth': 410, 'origHeight': 410, 'width': 410, 'height': 410, 'widthPercent': 0.45, 'rescaleHeight': False, 'trialN': 10, 'loaded': True, 'loadedTime': 2143.899999976158, 'positionName': 'LEFT', 'positionCoords': [511.6, 395], 'bid': 5.55}, {'imgObject': {}, 'id': 'bagel plain', 'src': '/static/foodstim60/bagel plain.jpg', 'key': 'i', 'origWidth': 410, 'origHeight': 410, 'width': 410, 'height': 410, 'widthPercent': 0.45, 'rescaleHeight': False, 'trialN': 10, 'loaded': True, 'loadedTime': 2149.7999999523163, 'positionName': 'RIGHT', 'positionCoords': [998.4, 395], 'bid': 3.36}]",19586.699999928474,1669829983316,cocktailshrimp,bagel plain,5.55,3.36,-2.19,cocktailshrimp,1083.1000000238419,1083,1083.3999999761581,True,u,21186.299999952316,1599.6000000238419,1669829984915,1599,HRV,HRV_0098,2022-11-30 17:44:55
11,"[{'imgObject': {}, 'id': 'olives', 'src': '/static/foodstim60/olives.jpg', 'key': 'u', 'origWidth': 410, 'origHeight': 410, 'width': 410, 'height': 410, 'widthPercent': 0.45, 'rescaleHeight': False, 'trialN': 11, 'loaded': True, 'loadedTime': 2157.5999999046326, 'positionName': 'LEFT', 'positionCoords': [511.6, 395], 'bid': 0}, {'imgObject': {}, 'id': 'sushi w_condiments', 'src': '/static/foodstim60/sushi w_condiments.jpg', 'key': 'i', 'origWidth': 410, 'origHeight': 410, 'width': 410, 'height': 410, 'widthPercent': 0.45, 'rescaleHeight': False, 'trialN': 11, 'loaded': True, 'loadedTime': 2158.899999976158, 'positionName': 'RIGHT', 'positionCoords': [998.4, 395], 'bid': 0}]",21186.599999904633,1669829984915,olives,sushi w_condiments,0.0,0.0,0.0,sushi w_condiments,996.2000000476837,997,996.4000000953674,True,i,22699.399999976158,1512.8000000715256,1669829986428,1513,HRV,HRV_0098,2022-11-30 17:44:55
12,"[{'imgObject': {}, 'id': 'grilled chicken strips', 'src': '/static/foodstim60/grilled chicken strips.jpg', 'key': 'u', 'origWidth': 410, 'origHeight': 411, 'width': 410, 'height': 411, 'widthPercent': 0.45, 'rescaleHeight': False, 'trialN': 12, 'loaded': True, 'loadedTime': 2054.6999999284744, 'positionName': 'LEFT', 'positionCoords': [511.6, 394.5], 'bid': 2.93}, {'imgObject': {}, 'id': 'blueberries', 'src': '/static/foodstim60/blueberries.jpg', 'key': 'i', 'origWidth': 411, 'origHeight': 411, 'width': 411, 'height': 411, 'widthPercent': 0.45, 'rescaleHeight': False, 'trialN': 12, 'loaded': True, 'loadedTime': 2115.899999976158, 'positionName': 'RIGHT', 'positionCoords': [998.4, 394.5], 'bid': 2.56}]",22699.599999904633,1669829986428,grilled chicken strips,blueberries,2.93,2.56,-0.3700000000000001,grilled chicken strips,1565.0,1568,1567.8000000715256,True,u,24788.799999952316,2089.2000000476837,1669829988518,2090,HRV,HRV_0098,2022-11-30 17:44:55
13,"[{'imgObject': {}, 'id': 'burrito', 'src': '/static/foodstim60/burrito.jpg', 'key': 'u', 'origWidth': 410, 'origHeight': 410, 'width': 410, 'height': 410, 'widthPercent': 0.45, 'rescaleHeight': False, 'trialN': 13, 'loaded': True, 'loadedTime': 2161.6999999284744, 'positionName': 'LEFT', 'positionCoords': [511.6, 395], 'bid': 3.31}, {'imgObject': {}, 'id': 'bagel plain', 'src': '/static/foodstim60/bagel plain.jpg', 'key': 'i', 'origWidth': 410, 'origHeight': 410, 'width': 410, 'height': 410, 'widthPercent': 0.45, 'rescaleHeight': False, 'trialN': 13, 'loaded': True, 'loadedTime': 2149.399999976158, 'positionName': 'RIGHT', 'positionCoords': [998.4, 395], 'bid': 3.36}]",24789.0,1669829988518,burrito,bagel plain,3.31,3.36,0.04999999999999982,burrito,1266.6999999284744,1267,1267.0,True,u,26564.299999952316,1775.2999999523163,1669829990293,1775,HRV,HRV_0098,2022-11-30 17:44:55
14,"[{'imgObject': {}, 'id': 'mac & cheese', 'src': '/static/foodstim60/mac & cheese.jpg', 'key': 'u', 'origWidth': 410, 'origHeight': 410, 'width': 410, 'height': 410, 'widthPercent': 0.45, 'rescaleHeight': False, 'trialN': 14, 'loaded': True, 'loadedTime': 2162.5, 'positionName': 'LEFT', 'positionCoords': [511.6, 395], 'bid': 9.03}, {'imgObject': {}, 'id': 'burger', 'src': '/static/foodstim60/burger.jpg', 'key': 'i', 'origWidth': 409, 'origHeight': 409, 'width': 409, 'height': 409, 'widthPercent': 0.45, 'rescaleHeight': False, 'trialN': 14, 'loaded': True, 'loadedTime': 2167.2999999523163, 'positionName': 'RIGHT', 'positionCoords': [998.4, 395.5], 'bid': 6.16}]",26564.5,1669829990293,mac & cheese,burger,9.03,6.16,-2.869999999999999,mac & cheese,807.7999999523163,808,808.0,True,u,27884.799999952316,1320.2999999523163,1669829991614,1321,HRV,HRV_0098,2022-11-30 17:44:55
15,"[{'imgObject': {}, 'id': 'avocado', 'src': '/static/foodstim60/avocado.jpg', 'key': 'u', 'origWidth': 409, 'origHeight': 409, 'width': 409, 'height': 409, 'widthPercent': 0.45, 'rescaleHeight': False, 'trialN': 15, 'loaded': True, 'loadedTime': 2167.5, 'positionName': 'LEFT', 'positionCoords': [512.6, 395.5], 'bid': 0.01}, {'imgObject': {}, 'id': 'baked potato', 'src': '/static/foodstim60/baked potato.jpg', 'key': 'i', 'origWidth': 409, 'origHeight': 410, 'width': 409, 'height': 410, 'widthPercent': 0.45, 'rescaleHeight': False, 'trialN': 15, 'loaded': True, 'loadedTime': 2103.0999999046326, 'positionName': 'RIGHT', 'positionCoords': [998.4, 395], 'bid': 3.95}]",27885.0,1669829991614,avocado,baked potato,0.01,3.95,3.9400000000000004,baked potato,842.1999999284744,842,842.5999999046326,True,i,29234.0,1349.0,1669829992963,1349,HRV,HRV_0098,2022-11-30 17:44:55
16,"[{'imgObject': {}, 'id': 'kiwi', 'src': '/static/foodstim60/kiwi.jpg', 'key': 'u', 'origWidth': 410, 'origHeight': 410, 'width': 410, 'height': 410, 'widthPercent': 0.45, 'rescaleHeight': False, 'trialN': 16, 'loaded': True, 'loadedTime': 2195.5999999046326, 'positionName': 'LEFT', 'positionCoords': [511.6, 395], 'bid': 0}, {'imgObject': {}, 'id': 'avocado', 'src': '/static/foodstim60/avocado.jpg', 'key': 'i', 'origWidth': 409, 'origHeight': 409, 'width': 409, 'height': 409, 'widthPercent': 0.45, 'rescaleHeight': False, 'trialN': 16, 'loaded': True, 'loadedTime': 2180.2999999523163, 'positionName': 'RIGHT', 'positionCoords': [998.4, 395.5], 'bid': 0.01}]",29234.299999952316,1669829992963,kiwi,avocado,0.0,0.01,0.01,kiwi,1043.1000000238419,1044,1043.5,True,u,30786.299999952316,1552.0,1669829994515,1552,HRV,HRV_0098,2022-11-30 17:44:55
17,"[{'imgObject': {}, 'id': 'eggs', 'src': '/static/foodstim60/eggs.jpg', 'key': 'u', 'origWidth': 409, 'origHeight': 409, 'width': 409, 'height': 409, 'widthPercent': 0.45, 'rescaleHeight': False, 'trialN': 17, 'loaded': True, 'loadedTime': 2195.7999999523163, 'positionName': 'LEFT', 'positionCoords': [512.6, 395.5], 'bid': 0.03}, {'imgObject': {}, 'id': 'turkeysandwich', 'src': '/static/foodstim60/turkeysandwich.jpg', 'key': 'i', 'origWidth': 409, 'origHeight': 409, 'width': 409, 'height': 409, 'widthPercent': 0.45, 'rescaleHeight': False, 'trialN': 17, 'loaded': True, 'loadedTime': 2224, 'positionName': 'RIGHT', 'positionCoords': [998.4, 395.5], 'bid': 4.16}]",30786.5,1669829994515,eggs,turkeysandwich,0.03,4.16,4.13,turkeysandwich,1012.5999999046326,1013,1013.0,True,i,32304.599999904633,1518.0999999046326,1669829996033,1518,HRV,HRV_0098,2022-11-30 17:44:55
18,"[{'imgObject': {}, 'id': 'edamame', 'src': '/static/foodstim60/edamame.jpg', 'key': 'u', 'origWidth': 409, 'origHeight': 410, 'width': 409, 'height': 410, 'widthPercent': 0.45, 'rescaleHeight': False, 'trialN': 18, 'loaded': True, 'loadedTime': 2240, 'positionName': 'LEFT', 'positionCoords': [512.6, 395], 'bid': 0}, {'imgObject': {}, 'id': 'veggieswithdip', 'src': '/static/foodstim60/veggieswithdip.jpg', 'key': 'i', 'origWidth': 409, 'origHeight': 409, 'width': 409, 'height': 409, 'widthPercent': 0.45, 'rescaleHeight': False, 'trialN': 18, 'loaded': True, 'loadedTime': 2250.899999976158, 'positionName': 'RIGHT', 'positionCoords': [998.4, 395.5], 'bid': 0}]",32304.799999952316,1669829996034,edamame,veggieswithdip,0.0,0.0,0.0,veggieswithdip,1095.2000000476837,1095,1095.5,True,i,33918.299999952316,1613.5,1669829997647,1613,HRV,HRV_0098,2022-11-30 17:44:55
19,"[{'imgObject': {}, 'id': 'strawberries', 'src': '/static/foodstim60/strawberries.jpg', 'key': 'u', 'origWidth': 410, 'origHeight': 410, 'width': 410, 'height': 410, 'widthPercent': 0.45, 'rescaleHeight': False, 'trialN': 19, 'loaded': True, 'loadedTime': 2252, 'positionName': 'LEFT', 'positionCoords': [511.6, 395], 'bid': 4.12}, {'imgObject': {}, 'id': 'turkeysandwich', 'src': '/static/foodstim60/turkeysandwich.jpg', 'key': 'i', 'origWidth': 409, 'origHeight': 409, 'width': 409, 'height': 409, 'widthPercent': 0.45, 'rescaleHeight': False, 'trialN': 19, 'loaded': True, 'loadedTime': 2223, 'positionName': 'RIGHT', 'positionCoords': [998.4, 395.5], 'bid': 4.16}]",33918.5,1669829997647,strawberries,turkeysandwich,4.12,4.16,0.040000000000000036,turkeysandwich,1375.0999999046326,1376,1375.3999999761581,True,i,35801.799999952316,1883.2999999523163,1669829999531,1884,HRV,HRV_0098,2022-11-30 17:44:55
20,"[{'imgObject': {}, 'id': 'kiwi', 'src': '/static/foodstim60/kiwi.jpg', 'key': 'u', 'origWidth': 410, 'origHeight': 410, 'width': 410, 'height': 410, 'widthPercent': 0.45, 'rescaleHeight': False, 'trialN': 20, 'loaded': True, 'loadedTime': 2180.399999976158, 'positionName': 'LEFT', 'positionCoords': [511.6, 395], 'bid': 0}, {'imgObject': {}, 'id': 'omelette', 'src': '/static/foodstim60/omelette.jpg', 'key': 'i', 'origWidth': 410, 'origHeight': 409, 'width': 410, 'height': 409, 'widthPercent': 0.45, 'rescaleHeight': False, 'trialN': 20, 'loaded': True, 'loadedTime': 2265.5999999046326, 'positionName': 'RIGHT', 'positionCoords': [998.4, 395.5], 'bid': 0}]",35801.89999997616,1669829999531,kiwi,omelette,0.0,0.0,0.0,omelette,1086.7999999523163,1087,1087.1999999284744,True,i,37399.299999952316,1597.3999999761581,1669830001128,1597,HRV,HRV_0098,2022-11-30 17:44:55
21,"[{'imgObject': {}, 'id': 'salad w chicken', 'src': '/static/foodstim60/salad w chicken.jpg', 'key': 'u', 'origWidth': 411, 'origHeight': 411, 'width': 411, 'height': 411, 'widthPercent': 0.45, 'rescaleHeight': False, 'trialN': 21, 'loaded': True, 'loadedTime': 2289.5, 'positionName': 'LEFT', 'positionCoords': [510.6, 394.5], 'bid': 6.96}, {'imgObject': {}, 'id': 'ice cream sundae 002', 'src': '/static/foodstim60/ice cream sundae 002.jpg', 'key': 'i', 'origWidth': 409, 'origHeight': 409, 'width': 409, 'height': 409, 'widthPercent': 0.45, 'rescaleHeight': False, 'trialN': 21, 'loaded': True, 'loadedTime': 2302.7999999523163, 'positionName': 'RIGHT', 'positionCoords': [998.4, 395.5], 'bid': 7.82}]",37399.39999997616,1669830001129,salad w chicken,ice cream sundae 002,6.96,7.82,0.8600000000000003,salad w chicken,849.5,850,849.7999999523163,True,u,38764.59999990463,1365.1999999284744,1669830002494,1365,HRV,HRV_0098,2022-11-30 17:44:55
22,"[{'imgObject': {}, 'id': 'ice cream sundae 002', 'src': '/static/foodstim60/ice cream sundae 002.jpg', 'key': 'u', 'origWidth': 409, 'origHeight': 409, 'width': 409, 'height': 409, 'widthPercent': 0.45, 'rescaleHeight': False, 'trialN': 22, 'loaded': True, 'loadedTime': 2302.1999999284744, 'positionName': 'LEFT', 'positionCoords': [512.6, 395.5], 'bid': 7.82}, {'imgObject': {}, 'id': 'orange slices', 'src': '/static/foodstim60/orange slices.jpg', 'key': 'i', 'origWidth': 409, 'origHeight': 410, 'width': 409, 'height': 410, 'widthPercent': 0.45, 'rescaleHeight': False, 'trialN': 22, 'loaded': True, 'loadedTime': 2303.5999999046326, 'positionName': 'RIGHT', 'positionCoords': [998.4, 395], 'bid': 2.26}]",38764.89999997616,1669830002494,ice cream sundae 002,orange slices,7.82,2.26,-5.5600000000000005,ice cream sundae 002,1289.8999999761581,1290,1290.1999999284744,True,u,40568.799999952316,1803.8999999761581,1669830004298,1804,HRV,HRV_0098,2022-11-30 17:44:55
23,"[{'imgObject': {}, 'id': 'chickenfingers', 'src': '/static/foodstim60/chickenfingers.jpg', 'key': 'u', 'origWidth': 410, 'origHeight': 410, 'width': 410, 'height': 410, 'widthPercent': 0.45, 'rescaleHeight': False, 'trialN': 23, 'loaded': True, 'loadedTime': 2010.0999999046326, 'positionName': 'LEFT', 'positionCoords': [511.6, 395], 'bid': 5.65}, {'imgObject': {}, 'id': 'cocktailshrimp', 'src': '/static/foodstim60/cocktailshrimp.jpg', 'key': 'i', 'origWidth': 410, 'origHeight': 410, 'width': 410, 'height': 410, 'widthPercent': 0.45, 'rescaleHeight': False, 'trialN': 23, 'loaded': True, 'loadedTime': 2143.7999999523163, 'positionName': 'RIGHT', 'positionCoords': [998.4, 395], 'bid': 5.55}]",40569.0,1669830004298,chickenfingers,cocktailshrimp,5.65,5.55,-0.10000000000000053,chickenfingers,1423.7999999523163,1424,1424.1999999284744,True,u,42503.5,1934.5,1669830006233,1935,HRV,HRV_0098,2022-11-30 17:44:55
24,"[{'imgObject': {}, 'id': 'burger', 'src': '/static/foodstim60/burger.jpg', 'key': 'u', 'origWidth': 409, 'origHeight': 409, 'width': 409, 'height': 409, 'widthPercent': 0.45, 'rescaleHeight': False, 'trialN': 24, 'loaded': True, 'loadedTime': 2164.7999999523163, 'positionName': 'LEFT', 'positionCoords': [512.6, 395.5], 'bid': 6.16}, {'imgObject': {}, 'id': 'mango', 'src': '/static/foodstim60/mango.jpg', 'key': 'i', 'origWidth': 411, 'origHeight': 411, 'width': 411, 'height': 411, 'widthPercent': 0.45, 'rescaleHeight': False, 'trialN': 24, 'loaded': True, 'loadedTime': 2053.2999999523163, 'positionName': 'RIGHT', 'positionCoords': [998.4, 394.5], 'bid': 1.4}]",42503.799999952316,1669830006233,burger,mango,6.16,1.4,-4.76,burger,1131.5,1132,1131.7999999523163,True,u,44152.89999997616,1649.1000000238419,1669830007882,1649,HRV,HRV_0098,2022-11-30 17:44:55
25,"[{'imgObject': {}, 'id': 'yogurt no spoon', 'src': '/static/foodstim60/yogurt no spoon.jpg', 'key': 'u', 'origWidth': 411, 'origHeight': 410, 'width': 411, 'height': 410, 'widthPercent': 0.45, 'rescaleHeight': False, 'trialN': 25, 'loaded': True, 'loadedTime': 2055.1999999284744, 'positionName': 'LEFT', 'positionCoords': [510.6, 395], 'bid': 1.97}, {'imgObject': {}, 'id': 'apple slices', 'src': '/static/foodstim60/apple slices.jpg', 'key': 'i', 'origWidth': 409, 'origHeight': 410, 'width': 409, 'height': 410, 'widthPercent': 0.45, 'rescaleHeight': False, 'trialN': 25, 'loaded': True, 'loadedTime': 2062.0999999046326, 'positionName': 'RIGHT', 'positionCoords': [998.4, 395], 'bid': 2.17}]",44153.0,1669830007882,yogurt no spoon,apple slices,1.97,2.17,0.19999999999999996,apple slices,1790.8999999761581,1791,1791.0999999046326,True,i,46447.699999928474,2294.6999999284744,1669830010177,2295,HRV,HRV_0098,2022-11-30 17:44:55
26,"[{'imgObject': {}, 'id': 'froot loops w milk', 'src': '/static/foodstim60/froot loops w milk.jpg', 'key': 'u', 'origWidth': 410, 'origHeight': 410, 'width': 410, 'height': 410, 'widthPercent': 0.45, 'rescaleHeight': False, 'trialN': 26, 'loaded': True, 'loadedTime': 2316.0999999046326, 'positionName': 'LEFT', 'positionCoords': [511.6, 395], 'bid': 3.13}, {'imgObject': {}, 'id': 'burrito', 'src': '/static/foodstim60/burrito.jpg', 'key': 'i', 'origWidth': 410, 'origHeight': 410, 'width': 410, 'height': 410, 'widthPercent': 0.45, 'rescaleHeight': False, 'trialN': 26, 'loaded': True, 'loadedTime': 2161.6999999284744, 'positionName': 'RIGHT', 'positionCoords': [998.4, 395], 'bid': 3.31}]",46447.799999952316,1669830010177,froot loops w milk,burrito,3.13,3.31,0.18000000000000016,burrito,1540.3999999761581,1541,1540.8999999761581,True,i,48509.699999928474,2061.899999976158,1669830012239,2062,HRV,HRV_0098,2022-11-30 17:44:55
27,"[{'imgObject': {}, 'id': 'veggieswithdip', 'src': '/static/foodstim60/veggieswithdip.jpg', 'key': 'u', 'origWidth': 409, 'origHeight': 409, 'width': 409, 'height': 409, 'widthPercent': 0.45, 'rescaleHeight': False, 'trialN': 27, 'loaded': True, 'loadedTime': 2248.5999999046326, 'positionName': 'LEFT', 'positionCoords': [512.6, 395.5], 'bid': 0}, {'imgObject': {}, 'id': 'raisin bran w milk', 'src': '/static/foodstim60/raisin bran w milk.jpg', 'key': 'i', 'origWidth': 411, 'origHeight': 411, 'width': 411, 'height': 411, 'widthPercent': 0.45, 'rescaleHeight': False, 'trialN': 27, 'loaded': True, 'loadedTime': 2340.1999999284744, 'positionName': 'RIGHT', 'positionCoords': [998.4, 394.5], 'bid': 0.86}]",48509.799999952316,1669830012239,veggieswithdip,raisin bran w milk,0.0,0.86,0.86,raisin bran w milk,1474.3999999761581,1475,1474.7999999523163,True,i,50499.89999997616,1990.1000000238419,1669830014229,1990,HRV,HRV_0098,2022-11-30 17:44:55
28,"[{'imgObject': {}, 'id': 'fried eggs', 'src': '/static/foodstim60/fried eggs.jpg', 'key': 'u', 'origWidth': 410, 'origHeight': 410, 'width': 410, 'height': 410, 'widthPercent': 0.45, 'rescaleHeight': False, 'trialN': 28, 'loaded': True, 'loadedTime': 2354.7999999523163, 'positionName': 'LEFT', 'positionCoords': [511.6, 395], 'bid': 1.03}, {'imgObject': {}, 'id': 'sushi w_condiments', 'src': '/static/foodstim60/sushi w_condiments.jpg', 'key': 'i', 'origWidth': 410, 'origHeight': 410, 'width': 410, 'height': 410, 'widthPercent': 0.45, 'rescaleHeight': False, 'trialN': 28, 'loaded': True, 'loadedTime': 2159.899999976158, 'positionName': 'RIGHT', 'positionCoords': [998.4, 395], 'bid': 0}]",50500.09999990463,1669830014229,fried eggs,sushi w_condiments,1.03,0.0,-1.03,fried eggs,1805.5,1806,1805.6000000238419,True,u,52808.59999990463,2308.5,1669830016538,2309,HRV,HRV_0098,2022-11-30 17:44:55
29,"[{'imgObject': {}, 'id': 'blackbeanswithrice', 'src': '/static/foodstim60/blackbeanswithrice.jpg', 'key': 'u', 'origWidth': 410, 'origHeight': 410, 'width': 410, 'height': 410, 'widthPercent': 0.45, 'rescaleHeight': False, 'trialN': 29, 'loaded': True, 'loadedTime': 2341.5, 'positionName': 'LEFT', 'positionCoords': [511.6, 395], 'bid': 0.01}, {'imgObject': {}, 'id': 'edamame', 'src': '/static/foodstim60/edamame.jpg', 'key': 'i', 'origWidth': 409, 'origHeight': 410, 'width': 409, 'height': 410, 'widthPercent': 0.45, 'rescaleHeight': False, 'trialN': 29, 'loaded': True, 'loadedTime': 2243.6999999284744, 'positionName': 'RIGHT', 'positionCoords': [998.4, 395], 'bid': 0}]",52808.799999952316,1669830016538,blackbeanswithrice,edamame,0.01,0.0,-0.01,blackbeanswithrice,1189.2999999523163,1190,1189.7000000476837,True,u,54505.39999997616,1696.6000000238419,1669830018235,1697,HRV,HRV_0098,2022-11-30 17:44:55
30,"[{'imgObject': {}, 'id': 'bagel and cc', 'src': '/static/foodstim60/bagel and cc.jpg', 'key': 'u', 'origWidth': 410, 'origHeight': 410, 'width': 410, 'height': 410, 'widthPercent': 0.45, 'rescaleHeight': False, 'trialN': 30, 'loaded': True, 'loadedTime': 2048.399999976158, 'positionName': 'LEFT', 'positionCoords': [511.6, 395], 'bid': 3.8}, {'imgObject': {}, 'id': 'veggieswithdip', 'src': '/static/foodstim60/veggieswithdip.jpg', 'key': 'i', 'origWidth': 409, 'origHeight': 409, 'width': 409, 'height': 409, 'widthPercent': 0.45, 'rescaleHeight': False, 'trialN': 30, 'loaded': True, 'loadedTime': 2246.899999976158, 'positionName': 'RIGHT', 'positionCoords': [998.4, 395.5], 'bid': 0}]",54505.5,1669830018235,bagel and cc,veggieswithdip,3.8,0.0,-3.8,bagel and cc,1799.5,1800,1799.7999999523163,True,u,56817.0,2311.5,1669830020546,2311,HRV,HRV_0098,2022-11-30 17:44:55
31,"[{'imgObject': {}, 'id': 'hotdog w must', 'src': '/static/foodstim60/hotdog w must.jpg', 'key': 'u', 'origWidth': 409, 'origHeight': 409, 'width': 409, 'height': 409, 'widthPercent': 0.45, 'rescaleHeight': False, 'trialN': 31, 'loaded': True, 'loadedTime': 2151.6999999284744, 'positionName': 'LEFT', 'positionCoords': [512.6, 395.5], 'bid': 0}, {'imgObject': {}, 'id': 'veggieswithdip', 'src': '/static/foodstim60/veggieswithdip.jpg', 'key': 'i', 'origWidth': 409, 'origHeight': 409, 'width': 409, 'height': 409, 'widthPercent': 0.45, 'rescaleHeight': False, 'trialN': 31, 'loaded': True, 'loadedTime': 2247.899999976158, 'positionName': 'RIGHT', 'positionCoords': [998.4, 395.5], 'bid': 0}]",56817.199999928474,1669830020546,hotdog w must,veggieswithdip,0.0,0.0,0.0,hotdog w must,2390.5,2391,2390.8000000715256,True,u,59711.699999928474,2894.5,1669830023441,2895,HRV,HRV_0098,2022-11-30 17:44:55
32,"[{'imgObject': {}, 'id': 'apple slices', 'src': '/static/foodstim60/apple slices.jpg', 'key': 'u', 'origWidth': 409, 'origHeight': 410, 'width': 409, 'height': 410, 'widthPercent': 0.45, 'rescaleHeight': False, 'trialN': 32, 'loaded': True, 'loadedTime': 2061.6999999284744, 'positionName': 'LEFT', 'positionCoords': [512.6, 395], 'bid': 2.17}, {'imgObject': {}, 'id': 'bagel plain', 'src': '/static/foodstim60/bagel plain.jpg', 'key': 'i', 'origWidth': 410, 'origHeight': 410, 'width': 410, 'height': 410, 'widthPercent': 0.45, 'rescaleHeight': False, 'trialN': 32, 'loaded': True, 'loadedTime': 2149.899999976158, 'positionName': 'RIGHT', 'positionCoords': [998.4, 395], 'bid': 3.36}]",59711.799999952316,1669830023441,apple slices,bagel plain,2.17,3.36,1.19,apple slices,1876.8999999761581,1877,1877.2999999523163,True,u,62106.699999928474,2394.899999976158,1669830025836,2395,HRV,HRV_0098,2022-11-30 17:44:55
33,"[{'imgObject': {}, 'id': 'bagel and cc', 'src': '/static/foodstim60/bagel and cc.jpg', 'key': 'u', 'origWidth': 410, 'origHeight': 410, 'width': 410, 'height': 410, 'widthPercent': 0.45, 'rescaleHeight': False, 'trialN': 33, 'loaded': True, 'loadedTime': 2048, 'positionName': 'LEFT', 'positionCoords': [511.6, 395], 'bid': 3.8}, {'imgObject': {}, 'id': 'orange slices', 'src': '/static/foodstim60/orange slices.jpg', 'key': 'i', 'origWidth': 409, 'origHeight': 410, 'width': 409, 'height': 410, 'widthPercent': 0.45, 'rescaleHeight': False, 'trialN': 33, 'loaded': True, 'loadedTime': 2302.899999976158, 'positionName': 'RIGHT', 'positionCoords': [998.4, 395], 'bid': 2.26}]",62107.0,1669830025836,bagel and cc,orange slices,3.8,2.26,-1.54,bagel and cc,1504.0999999046326,1505,1504.2999999523163,True,u,64121.5,2014.5,1669830027851,2015,HRV,HRV_0098,2022-11-30 17:44:55
34,"[{'imgObject': {}, 'id': 'omelette', 'src': '/static/foodstim60/omelette.jpg', 'key': 'u', 'origWidth': 410, 'origHeight': 409, 'width': 410, 'height': 409, 'widthPercent': 0.45, 'rescaleHeight': False, 'trialN': 34, 'loaded': True, 'loadedTime': 2277.0999999046326, 'positionName': 'LEFT', 'positionCoords': [511.6, 395.5], 'bid': 0}, {'imgObject': {}, 'id': 'olives', 'src': '/static/foodstim60/olives.jpg', 'key': 'i', 'origWidth': 410, 'origHeight': 410, 'width': 410, 'height': 410, 'widthPercent': 0.45, 'rescaleHeight': False, 'trialN': 34, 'loaded': True, 'loadedTime': 2154.2999999523163, 'positionName': 'RIGHT', 'positionCoords': [998.4, 395], 'bid': 0}]",64121.699999928474,1669830027851,omelette,olives,0.0,0.0,0.0,omelette,1106.2000000476837,1107,1106.6000000238419,True,u,65745.09999990463,1623.3999999761581,1669830029474,1623,HRV,HRV_0098,2022-11-30 17:44:55
35,"[{'imgObject': {}, 'id': 'raisin bran w milk', 'src': '/static/foodstim60/raisin bran w milk.jpg', 'key': 'u', 'origWidth': 411, 'origHeight': 411, 'width': 411, 'height': 411, 'widthPercent': 0.45, 'rescaleHeight': False, 'trialN': 35, 'loaded': True, 'loadedTime': 2328.7999999523163, 'positionName': 'LEFT', 'positionCoords': [510.6, 394.5], 'bid': 0.86}, {'imgObject': {}, 'id': 'omelette', 'src': '/static/foodstim60/omelette.jpg', 'key': 'i', 'origWidth': 410, 'origHeight': 409, 'width': 410, 'height': 409, 'widthPercent': 0.45, 'rescaleHeight': False, 'trialN': 35, 'loaded': True, 'loadedTime': 2276.6999999284744, 'positionName': 'RIGHT', 'positionCoords': [998.4, 395.5], 'bid': 0}]",65745.19999992847,1669830029474,raisin bran w milk,omelette,0.86,0.0,-0.86,raisin bran w milk,2125.399999976158,2126,2125.7000000476837,True,u,68380.79999995232,2635.600000023842,1669830032110,2636,HRV,HRV_0098,2022-11-30 17:44:55
36,"[{'imgObject': {}, 'id': 'granola w milk', 'src': '/static/foodstim60/granola w milk.jpg', 'key': 'u', 'origWidth': 410, 'origHeight': 410, 'width': 410, 'height': 410, 'widthPercent': 0.45, 'rescaleHeight': False, 'trialN': 36, 'loaded': True, 'loadedTime': 2367.1999999284744, 'positionName': 'LEFT', 'positionCoords': [511.6, 395], 'bid': 0.84}, {'imgObject': {}, 'id': 'sweetpotato', 'src': '/static/foodstim60/sweetpotato.jpg', 'key': 'i', 'origWidth': 410, 'origHeight': 410, 'width': 410, 'height': 410, 'widthPercent': 0.45, 'rescaleHeight': False, 'trialN': 36, 'loaded': True, 'loadedTime': 2384.0999999046326, 'positionName': 'RIGHT', 'positionCoords': [998.4, 395], 'bid': 0.91}]",68380.89999997616,1669830032110,granola w milk,sweetpotato,0.84,0.91,0.07000000000000006,sweetpotato,1325.6999999284744,1326,1325.8999999761581,True,i,70218.5,1837.6000000238419,1669830033948,1838,HRV,HRV_0098,2022-11-30 17:44:55
37,"[{'imgObject': {}, 'id': 'blackbeanswithrice', 'src': '/static/foodstim60/blackbeanswithrice.jpg', 'key': 'u', 'origWidth': 410, 'origHeight': 410, 'width': 410, 'height': 410, 'widthPercent': 0.45, 'rescaleHeight': False, 'trialN': 37, 'loaded': True, 'loadedTime': 2341.5, 'positionName': 'LEFT', 'positionCoords': [511.6, 395], 'bid': 0.01}, {'imgObject': {}, 'id': 'seaweed', 'src': '/static/foodstim60/seaweed.jpg', 'key': 'i', 'origWidth': 410, 'origHeight': 410, 'width': 410, 'height': 410, 'widthPercent': 0.45, 'rescaleHeight': False, 'trialN': 37, 'loaded': True, 'loadedTime': 2386.5, 'positionName': 'RIGHT', 'positionCoords': [998.4, 395], 'bid': 0}]",70218.69999992847,1669830033948,blackbeanswithrice,seaweed,0.01,0.0,-0.01,blackbeanswithrice,1000.8000000715256,1001,1001.0,True,u,71738.29999995232,1519.6000000238419,1669830035467,1519,HRV,HRV_0098,2022-11-30 17:44:55
38,"[{'imgObject': {}, 'id': 'avocado', 'src': '/static/foodstim60/avocado.jpg', 'key': 'u', 'origWidth': 409, 'origHeight': 409, 'width': 409, 'height': 409, 'widthPercent': 0.45, 'rescaleHeight': False, 'trialN': 38, 'loaded': True, 'loadedTime': 2168.1999999284744, 'positionName': 'LEFT', 'positionCoords': [512.6, 395.5], 'bid': 0.01}, {'imgObject': {}, 'id': 'hashbrowns', 'src': '/static/foodstim60/hashbrowns.jpg', 'key': 'i', 'origWidth': 411, 'origHeight': 410, 'width': 411, 'height': 410, 'widthPercent': 0.45, 'rescaleHeight': False, 'trialN': 38, 'loaded': True, 'loadedTime': 2388.5999999046326, 'positionName': 'RIGHT', 'positionCoords': [998.4, 395], 'bid': 0}]",71738.5,1669830035468,avocado,hashbrowns,0.01,0.0,-0.01,hashbrowns,1630.2999999523163,1630,1630.5,True,i,73885.0,2146.5,1669830037614,2146,HRV,HRV_0098,2022-11-30 17:44:55
39,"[{'imgObject': {}, 'id': 'chickenfingers', 'src': '/static/foodstim60/chickenfingers.jpg', 'key': 'u', 'origWidth': 410, 'origHeight': 410, 'width': 410, 'height': 410, 'widthPercent': 0.45, 'rescaleHeight': False, 'trialN': 39, 'loaded': True, 'loadedTime': 2019.7999999523163, 'positionName': 'LEFT', 'positionCoords': [511.6, 395], 'bid': 5.65}, {'imgObject': {}, 'id': 'cheerios', 'src': '/static/foodstim60/cheerios.jpg', 'key': 'i', 'origWidth': 409, 'origHeight': 410, 'width': 409, 'height': 410, 'widthPercent': 0.45, 'rescaleHeight': False, 'trialN': 39, 'loaded': True, 'loadedTime': 2390.1999999284744, 'positionName': 'RIGHT', 'positionCoords': [998.4, 395], 'bid': 5.0200000000000005}]",73885.09999990463,1669830037614,chickenfingers,cheerios,5.65,5.0200000000000005,-0.6299999999999999,chickenfingers,1838.4000000953674,1839,1838.6000000238419,True,u,76242.0,2356.9000000953674,1669830039971,2357,HRV,HRV_0098,2022-11-30 17:44:55
40,"[{'imgObject': {}, 'id': 'pear', 'src': '/static/foodstim60/pear.jpg', 'key': 'u', 'origWidth': 411, 'origHeight': 410, 'width': 411, 'height': 410, 'widthPercent': 0.45, 'rescaleHeight': False, 'trialN': 40, 'loaded': True, 'loadedTime': 1976.1999999284744, 'positionName': 'LEFT', 'positionCoords': [510.6, 395], 'bid': 5.0200000000000005}, {'imgObject': {}, 'id': 'steak', 'src': '/static/foodstim60/steak.jpg', 'key': 'i', 'origWidth': 410, 'origHeight': 410, 'width': 410, 'height': 410, 'widthPercent': 0.45, 'rescaleHeight': False, 'trialN': 40, 'loaded': True, 'loadedTime': 2146.1999999284744, 'positionName': 'RIGHT', 'positionCoords': [998.4, 395], 'bid': 8.92}]",76242.19999992847,1669830039971,pear,steak,5.0200000000000005,8.92,3.8999999999999995,steak,756.0,757,756.2000000476837,True,i,77515.89999997616,1273.7000000476837,1669830041245,1274,HRV,HRV_0098,2022-11-30 17:44:55
41,"[{'imgObject': {}, 'id': 'orange slices', 'src': '/static/foodstim60/orange slices.jpg', 'key': 'u', 'origWidth': 409, 'origHeight': 410, 'width': 409, 'height': 410, 'widthPercent': 0.45, 'rescaleHeight': False, 'trialN': 41, 'loaded': True, 'loadedTime': 2303.7999999523163, 'positionName': 'LEFT', 'positionCoords': [512.6, 395], 'bid': 2.26}, {'imgObject': {}, 'id': 'apple slices', 'src': '/static/foodstim60/apple slices.jpg', 'key': 'i', 'origWidth': 409, 'origHeight': 410, 'width': 409, 'height': 410, 'widthPercent': 0.45, 'rescaleHeight': False, 'trialN': 41, 'loaded': True, 'loadedTime': 2062.1999999284744, 'positionName': 'RIGHT', 'positionCoords': [998.4, 395], 'bid': 2.17}]",77516.0,1669830041245,orange slices,apple slices,2.26,2.17,-0.08999999999999986,orange slices,966.0,967,966.2999999523163,True,u,78990.29999995232,1474.2999999523163,1669830042720,1475,HRV,HRV_0098,2022-11-30 17:44:55
42,"[{'imgObject': {}, 'id': 'cherries', 'src': '/static/foodstim60/cherries.jpg', 'key': 'u', 'origWidth': 410, 'origHeight': 411, 'width': 410, 'height': 411, 'widthPercent': 0.45, 'rescaleHeight': False, 'trialN': 42, 'loaded': True, 'loadedTime': 2390.399999976158, 'positionName': 'LEFT', 'positionCoords': [511.6, 394.5], 'bid': 4.2}, {'imgObject': {}, 'id': 'grilled chicken strips', 'src': '/static/foodstim60/grilled chicken strips.jpg', 'key': 'i', 'origWidth': 410, 'origHeight': 411, 'width': 410, 'height': 411, 'widthPercent': 0.45, 'rescaleHeight': False, 'trialN': 42, 'loaded': True, 'loadedTime': 2053.7999999523163, 'positionName': 'RIGHT', 'positionCoords': [998.4, 394.5], 'bid': 2.93}]",78990.5,1669830042720,cherries,grilled chicken strips,4.2,2.93,-1.27,grilled chicken strips,1546.6999999284744,1547,1547.0,True,i,81041.09999990463,2050.5999999046326,1669830044770,2050,HRV,HRV_0098,2022-11-30 17:44:55
43,"[{'imgObject': {}, 'id': 'eggs', 'src': '/static/foodstim60/eggs.jpg', 'key': 'u', 'origWidth': 409, 'origHeight': 409, 'width': 409, 'height': 409, 'widthPercent': 0.45, 'rescaleHeight': False, 'trialN': 43, 'loaded': True, 'loadedTime': 2208.899999976158, 'positionName': 'LEFT', 'positionCoords': [512.6, 395.5], 'bid': 0.03}, {'imgObject': {}, 'id': 'fried eggs', 'src': '/static/foodstim60/fried eggs.jpg', 'key': 'i', 'origWidth': 410, 'origHeight': 410, 'width': 410, 'height': 410, 'widthPercent': 0.45, 'rescaleHeight': False, 'trialN': 43, 'loaded': True, 'loadedTime': 2354.5, 'positionName': 'RIGHT', 'positionCoords': [998.4, 395], 'bid': 1.03}]",81041.29999995232,1669830044770,eggs,fried eggs,0.03,1.03,1.0,eggs,1307.0,1308,1307.2999999523163,True,u,82860.09999990463,1818.7999999523163,1669830046589,1819,HRV,HRV_0098,2022-11-30 17:44:55
44,"[{'imgObject': {}, 'id': 'burger', 'src': '/static/foodstim60/burger.jpg', 'key': 'u', 'origWidth': 409, 'origHeight': 409, 'width': 409, 'height': 409, 'widthPercent': 0.45, 'rescaleHeight': False, 'trialN': 44, 'loaded': True, 'loadedTime': 2167.5, 'positionName': 'LEFT', 'positionCoords': [512.6, 395.5], 'bid': 6.16}, {'imgObject': {}, 'id': 'fruitsalad', 'src': '/static/foodstim60/fruitsalad.jpg', 'key': 'i', 'origWidth': 410, 'origHeight': 410, 'width': 410, 'height': 410, 'widthPercent': 0.45, 'rescaleHeight': False, 'trialN': 44, 'loaded': True, 'loadedTime': 2051.899999976158, 'positionName': 'RIGHT', 'positionCoords': [998.4, 395], 'bid': 6.12}]",82860.29999995232,1669830046589,burger,fruitsalad,6.16,6.12,-0.040000000000000036,fruitsalad,1528.6000000238419,1529,1528.8999999761581,True,i,84900.39999997616,2040.1000000238419,1669830048630,2041,HRV,HRV_0098,2022-11-30 17:44:55
45,"[{'imgObject': {}, 'id': 'corn cob', 'src': '/static/foodstim60/corn cob.jpg', 'key': 'u', 'origWidth': 411, 'origHeight': 411, 'width': 411, 'height': 411, 'widthPercent': 0.45, 'rescaleHeight': False, 'trialN': 45, 'loaded': True, 'loadedTime': 2410.899999976158, 'positionName': 'LEFT', 'positionCoords': [510.6, 394.5], 'bid': 2.26}, {'imgObject': {}, 'id': 'raspberries', 'src': '/static/foodstim60/raspberries.jpg', 'key': 'i', 'origWidth': 411, 'origHeight': 411, 'width': 411, 'height': 411, 'widthPercent': 0.45, 'rescaleHeight': False, 'trialN': 45, 'loaded': True, 'loadedTime': 2077.5, 'positionName': 'RIGHT', 'positionCoords': [998.4, 394.5], 'bid': 3.59}]",84900.5,1669830048630,corn cob,raspberries,2.26,3.59,1.33,raspberries,1306.6999999284744,1307,1307.0999999046326,True,i,86717.39999997616,1816.8999999761581,1669830050447,1817,HRV,HRV_0098,2022-11-30 17:44:55
46,"[{'imgObject': {}, 'id': 'turkey sandwich', 'src': '/static/foodstim60/turkey sandwich.jpg', 'key': 'u', 'origWidth': 409, 'origHeight': 409, 'width': 409, 'height': 409, 'widthPercent': 0.45, 'rescaleHeight': False, 'trialN': 46, 'loaded': True, 'loadedTime': 2412.2999999523163, 'positionName': 'LEFT', 'positionCoords': [512.6, 395.5], 'bid': 3.93}, {'imgObject': {}, 'id': 'rigatoni', 'src': '/static/foodstim60/rigatoni.jpg', 'key': 'i', 'origWidth': 411, 'origHeight': 411, 'width': 411, 'height': 411, 'widthPercent': 0.45, 'rescaleHeight': False, 'trialN': 46, 'loaded': True, 'loadedTime': 2426.1999999284744, 'positionName': 'RIGHT', 'positionCoords': [998.4, 394.5], 'bid': 3.81}]",86717.59999990463,1669830050447,turkey sandwich,rigatoni,3.93,3.81,-0.1200000000000001,turkey sandwich,1565.4000000953674,1566,1565.7000000476837,True,u,88796.19999992847,2078.600000023842,1669830052525,2078,HRV,HRV_0098,2022-11-30 17:44:55
47,"[{'imgObject': {}, 'id': 'cantaloupe', 'src': '/static/foodstim60/cantaloupe.jpg', 'key': 'u', 'origWidth': 409, 'origHeight': 409, 'width': 409, 'height': 409, 'widthPercent': 0.45, 'rescaleHeight': False, 'trialN': 47, 'loaded': True, 'loadedTime': 2427.1999999284744, 'positionName': 'LEFT', 'positionCoords': [512.6, 395.5], 'bid': 0.02}, {'imgObject': {}, 'id': 'lox', 'src': '/static/foodstim60/lox.jpg', 'key': 'i', 'origWidth': 410, 'origHeight': 411, 'width': 410, 'height': 411, 'widthPercent': 0.45, 'rescaleHeight': False, 'trialN': 47, 'loaded': True, 'loadedTime': 2440.0999999046326, 'positionName': 'RIGHT', 'positionCoords': [998.4, 394.5], 'bid': 0.06}]",88796.39999997616,1669830052526,cantaloupe,lox,0.02,0.06,0.039999999999999994,cantaloupe,1298.1999999284744,1298,1298.5,True,u,90610.29999995232,1813.8999999761581,1669830054340,1814,HRV,HRV_0098,2022-11-30 17:44:55
48,"[{'imgObject': {}, 'id': 'mashed potato', 'src': '/static/foodstim60/mashed potato.jpg', 'key': 'u', 'origWidth': 409, 'origHeight': 409, 'width': 409, 'height': 409, 'widthPercent': 0.45, 'rescaleHeight': False, 'trialN': 48, 'loaded': True, 'loadedTime': 2456.0999999046326, 'positionName': 'LEFT', 'positionCoords': [512.6, 395.5], 'bid': 4.97}, {'imgObject': {}, 'id': 'cherries', 'src': '/static/foodstim60/cherries.jpg', 'key': 'i', 'origWidth': 410, 'origHeight': 411, 'width': 410, 'height': 411, 'widthPercent': 0.45, 'rescaleHeight': False, 'trialN': 48, 'loaded': True, 'loadedTime': 2391.399999976158, 'positionName': 'RIGHT', 'positionCoords': [998.4, 394.5], 'bid': 4.2}]",90610.39999997616,1669830054340,mashed potato,cherries,4.97,4.2,-0.7699999999999996,mashed potato,1108.2999999523163,1108,1108.8999999761581,True,u,92228.19999992847,1617.7999999523163,1669830055957,1617,HRV,HRV_0098,2022-11-30 17:44:55
49,"[{'imgObject': {}, 'id': 'corn cob', 'src': '/static/foodstim60/corn cob.jpg', 'key': 'u', 'origWidth': 411, 'origHeight': 411, 'width': 411, 'height': 411, 'widthPercent': 0.45, 'rescaleHeight': False, 'trialN': 49, 'loaded': True, 'loadedTime': 2410.899999976158, 'positionName': 'LEFT', 'positionCoords': [510.6, 394.5], 'bid': 2.26}, {'imgObject': {}, 'id': 'blackbeanswithrice', 'src': '/static/foodstim60/blackbeanswithrice.jpg', 'key': 'i', 'origWidth': 410, 'origHeight': 410, 'width': 410, 'height': 410, 'widthPercent': 0.45, 'rescaleHeight': False, 'trialN': 49, 'loaded': True, 'loadedTime': 2341.6999999284744, 'positionName': 'RIGHT', 'positionCoords': [998.4, 395], 'bid': 0.01}]",92228.39999997616,1669830055958,corn cob,blackbeanswithrice,2.26,0.01,-2.25,blackbeanswithrice,1270.3999999761581,1271,1271.1000000238419,True,i,94020.5,1792.1000000238419,1669830057750,1792,HRV,HRV_0098,2022-11-30 17:44:55
50,"[{'imgObject': {}, 'id': 'kiwi', 'src': '/static/foodstim60/kiwi.jpg', 'key': 'u', 'origWidth': 410, 'origHeight': 410, 'width': 410, 'height': 410, 'widthPercent': 0.45, 'rescaleHeight': False, 'trialN': 50, 'loaded': True, 'loadedTime': 2195.1999999284744, 'positionName': 'LEFT', 'positionCoords': [511.6, 395], 'bid': 0}, {'imgObject': {}, 'id': 'seaweed', 'src': '/static/foodstim60/seaweed.jpg', 'key': 'i', 'origWidth': 410, 'origHeight': 410, 'width': 410, 'height': 410, 'widthPercent': 0.45, 'rescaleHeight': False, 'trialN': 50, 'loaded': True, 'loadedTime': 2386.899999976158, 'positionName': 'RIGHT', 'positionCoords': [998.4, 395], 'bid': 0}]",94020.69999992847,1669830057750,kiwi,seaweed,0.0,0.0,0.0,kiwi,785.0,785,785.3000000715256,True,u,95315.19999992847,1294.5,1669830059044,1294,HRV,HRV_0098,2022-11-30 17:44:55
51,"[{'imgObject': {}, 'id': 'pear', 'src': '/static/foodstim60/pear.jpg', 'key': 'u', 'origWidth': 411, 'origHeight': 410, 'width': 411, 'height': 410, 'widthPercent': 0.45, 'rescaleHeight': False, 'trialN': 51, 'loaded': True, 'loadedTime': 1988.2999999523163, 'positionName': 'LEFT', 'positionCoords': [510.6, 395], 'bid': 5.0200000000000005}, {'imgObject': {}, 'id': 'cheerios', 'src': '/static/foodstim60/cheerios.jpg', 'key': 'i', 'origWidth': 409, 'origHeight': 410, 'width': 409, 'height': 410, 'widthPercent': 0.45, 'rescaleHeight': False, 'trialN': 51, 'loaded': True, 'loadedTime': 2388.6999999284744, 'positionName': 'RIGHT', 'positionCoords': [998.4, 395], 'bid': 5.0200000000000005}]",95315.39999997616,1669830059045,pear,cheerios,5.0200000000000005,5.0200000000000005,0.0,cheerios,1360.6999999284744,1361,1360.8999999761581,True,i,97191.59999990463,1876.1999999284744,1669830060921,1876,HRV,HRV_0098,2022-11-30 17:44:55
52,"[{'imgObject': {}, 'id': 'eggs', 'src': '/static/foodstim60/eggs.jpg', 'key': 'u', 'origWidth': 409, 'origHeight': 409, 'width': 409, 'height': 409, 'widthPercent': 0.45, 'rescaleHeight': False, 'trialN': 52, 'loaded': True, 'loadedTime': 2208.2999999523163, 'positionName': 'LEFT', 'positionCoords': [512.6, 395.5], 'bid': 0.03}, {'imgObject': {}, 'id': 'blueberries', 'src': '/static/foodstim60/blueberries.jpg', 'key': 'i', 'origWidth': 411, 'origHeight': 411, 'width': 411, 'height': 411, 'widthPercent': 0.45, 'rescaleHeight': False, 'trialN': 52, 'loaded': True, 'loadedTime': 2128.2999999523163, 'positionName': 'RIGHT', 'positionCoords': [998.4, 394.5], 'bid': 2.56}]",97191.79999995232,1669830060921,eggs,blueberries,0.03,2.56,2.5300000000000002,eggs,1786.1000000238419,1786,1786.5,True,u,99491.29999995232,2299.5,1669830063220,2299,HRV,HRV_0098,2022-11-30 17:44:55
53,"[{'imgObject': {}, 'id': 'cantaloupe', 'src': '/static/foodstim60/cantaloupe.jpg', 'key': 'u', 'origWidth': 409, 'origHeight': 409, 'width': 409, 'height': 409, 'widthPercent': 0.45, 'rescaleHeight': False, 'trialN': 53, 'loaded': True, 'loadedTime': 2426.2999999523163, 'positionName': 'LEFT', 'positionCoords': [512.6, 395.5], 'bid': 0.02}, {'imgObject': {}, 'id': 'omelette', 'src': '/static/foodstim60/omelette.jpg', 'key': 'i', 'origWidth': 410, 'origHeight': 409, 'width': 410, 'height': 409, 'widthPercent': 0.45, 'rescaleHeight': False, 'trialN': 53, 'loaded': True, 'loadedTime': 2265.5999999046326, 'positionName': 'RIGHT', 'positionCoords': [998.4, 395.5], 'bid': 0}]",99491.69999992847,1669830063220,cantaloupe,omelette,0.02,0.0,-0.02,omelette,908.3000000715256,909,908.7000000476837,True,i,100916.89999997616,1425.2000000476837,1669830064646,1426,HRV,HRV_0098,2022-11-30 17:44:55
54,"[{'imgObject': {}, 'id': 'eggsalad', 'src': '/static/foodstim60/eggsalad.jpg', 'key': 'u', 'origWidth': 410, 'origHeight': 409, 'width': 410, 'height': 409, 'widthPercent': 0.45, 'rescaleHeight': False, 'trialN': 54, 'loaded': True, 'loadedTime': 2456.1999999284744, 'positionName': 'LEFT', 'positionCoords': [511.6, 395.5], 'bid': 1.34}, {'imgObject': {}, 'id': 'Tribe humus pita', 'src': '/static/foodstim60/Tribe humus pita.jpg', 'key': 'i', 'origWidth': 411, 'origHeight': 411, 'width': 411, 'height': 411, 'widthPercent': 0.45, 'rescaleHeight': False, 'trialN': 54, 'loaded': True, 'loadedTime': 2469.1999999284744, 'positionName': 'RIGHT', 'positionCoords': [998.4, 394.5], 'bid': 1.05}]",100917.0,1669830064646,eggsalad,Tribe humus pita,1.34,1.05,-0.29000000000000004,eggsalad,1403.0999999046326,1403,1403.5,True,u,102836.29999995232,1919.2999999523163,1669830066565,1919,HRV,HRV_0098,2022-11-30 17:44:55
55,"[{'imgObject': {}, 'id': 'seaweed', 'src': '/static/foodstim60/seaweed.jpg', 'key': 'u', 'origWidth': 410, 'origHeight': 410, 'width': 410, 'height': 410, 'widthPercent': 0.45, 'rescaleHeight': False, 'trialN': 55, 'loaded': True, 'loadedTime': 2384.6999999284744, 'positionName': 'LEFT', 'positionCoords': [511.6, 395], 'bid': 0}, {'imgObject': {}, 'id': 'cherry tomato', 'src': '/static/foodstim60/cherry tomato.jpg', 'key': 'i', 'origWidth': 410, 'origHeight': 410, 'width': 410, 'height': 410, 'widthPercent': 0.45, 'rescaleHeight': False, 'trialN': 55, 'loaded': True, 'loadedTime': 2470.6999999284744, 'positionName': 'RIGHT', 'positionCoords': [998.4, 395], 'bid': 0}]",102836.5,1669830066565,seaweed,cherry tomato,0.0,0.0,0.0,cherry tomato,858.6999999284744,859,859.1999999284744,True,i,104201.5,1365.0,1669830067930,1365,HRV,HRV_0098,2022-11-30 17:44:55
56,"[{'imgObject': {}, 'id': 'omelette', 'src': '/static/foodstim60/omelette.jpg', 'key': 'u', 'origWidth': 410, 'origHeight': 409, 'width': 410, 'height': 409, 'widthPercent': 0.45, 'rescaleHeight': False, 'trialN': 56, 'loaded': True, 'loadedTime': 2277.0999999046326, 'positionName': 'LEFT', 'positionCoords': [511.6, 395.5], 'bid': 0}, {'imgObject': {}, 'id': 'froot loops w milk', 'src': '/static/foodstim60/froot loops w milk.jpg', 'key': 'i', 'origWidth': 410, 'origHeight': 410, 'width': 410, 'height': 410, 'widthPercent': 0.45, 'rescaleHeight': False, 'trialN': 56, 'loaded': True, 'loadedTime': 2327.5, 'positionName': 'RIGHT', 'positionCoords': [998.4, 395], 'bid': 3.13}]",104201.69999992847,1669830067930,omelette,froot loops w milk,0.0,3.13,3.13,froot loops w milk,1079.2000000476837,1080,1079.5,True,i,105794.09999990463,1592.3999999761581,1669830069523,1593,HRV,HRV_0098,2022-11-30 17:44:55
57,"[{'imgObject': {}, 'id': 'burger', 'src': '/static/foodstim60/burger.jpg', 'key': 'u', 'origWidth': 409, 'origHeight': 409, 'width': 409, 'height': 409, 'widthPercent': 0.45, 'rescaleHeight': False, 'trialN': 57, 'loaded': True, 'loadedTime': 2165.399999976158, 'positionName': 'LEFT', 'positionCoords': [512.6, 395.5], 'bid': 6.16}, {'imgObject': {}, 'id': 'turkeysandwich', 'src': '/static/foodstim60/turkeysandwich.jpg', 'key': 'i', 'origWidth': 409, 'origHeight': 409, 'width': 409, 'height': 409, 'widthPercent': 0.45, 'rescaleHeight': False, 'trialN': 57, 'loaded': True, 'loadedTime': 2223.899999976158, 'positionName': 'RIGHT', 'positionCoords': [998.4, 395.5], 'bid': 4.16}]",105794.19999992847,1669830069523,burger,turkeysandwich,6.16,4.16,-2.0,burger,1516.3000000715256,1517,1516.7000000476837,True,u,107819.79999995232,2025.6000000238419,1669830071549,2026,HRV,HRV_0098,2022-11-30 17:44:55
58,"[{'imgObject': {}, 'id': 'yogurt no spoon', 'src': '/static/foodstim60/yogurt no spoon.jpg', 'key': 'u', 'origWidth': 411, 'origHeight': 410, 'width': 411, 'height': 410, 'widthPercent': 0.45, 'rescaleHeight': False, 'trialN': 58, 'loaded': True, 'loadedTime': 2056, 'positionName': 'LEFT', 'positionCoords': [510.6, 395], 'bid': 1.97}, {'imgObject': {}, 'id': 'sushi w_condiments', 'src': '/static/foodstim60/sushi w_condiments.jpg', 'key': 'i', 'origWidth': 410, 'origHeight': 410, 'width': 410, 'height': 410, 'widthPercent': 0.45, 'rescaleHeight': False, 'trialN': 58, 'loaded': True, 'loadedTime': 2158, 'positionName': 'RIGHT', 'positionCoords': [998.4, 395], 'bid': 0}]",107820.0,1669830071549,yogurt no spoon,sushi w_condiments,1.97,0.0,-1.97,yogurt no spoon,1530.2999999523163,1531,1530.7999999523163,True,u,109857.79999995232,2037.7999999523163,1669830073587,2038,HRV,HRV_0098,2022-11-30 17:44:55
59,"[{'imgObject': {}, 'id': 'rigatoni and sauce', 'src': '/static/foodstim60/rigatoni and sauce.jpg', 'key': 'u', 'origWidth': 410, 'origHeight': 411, 'width': 410, 'height': 411, 'widthPercent': 0.45, 'rescaleHeight': False, 'trialN': 59, 'loaded': True, 'loadedTime': 2471.899999976158, 'positionName': 'LEFT', 'positionCoords': [511.6, 394.5], 'bid': 6.23}, {'imgObject': {}, 'id': 'yogurt no spoon', 'src': '/static/foodstim60/yogurt no spoon.jpg', 'key': 'i', 'origWidth': 411, 'origHeight': 410, 'width': 411, 'height': 410, 'widthPercent': 0.45, 'rescaleHeight': False, 'trialN': 59, 'loaded': True, 'loadedTime': 2056.1999999284744, 'positionName': 'RIGHT', 'positionCoords': [998.4, 395], 'bid': 1.97}]",109858.09999990463,1669830073587,rigatoni and sauce,yogurt no spoon,6.23,1.97,-4.260000000000001,rigatoni and sauce,1113.6000000238419,1114,1114.0,True,u,111489.5,1631.4000000953674,1669830075218,1631,HRV,HRV_0098,2022-11-30 17:44:55
60,"[{'imgObject': {}, 'id': 'mashed potato', 'src': '/static/foodstim60/mashed potato.jpg', 'key': 'u', 'origWidth': 409, 'origHeight': 409, 'width': 409, 'height': 409, 'widthPercent': 0.45, 'rescaleHeight': False, 'trialN': 60, 'loaded': True, 'loadedTime': 2455.899999976158, 'positionName': 'LEFT', 'positionCoords': [512.6, 395.5], 'bid': 4.97}, {'imgObject': {}, 'id': 'froot loops w milk', 'src': '/static/foodstim60/froot loops w milk.jpg', 'key': 'i', 'origWidth': 410, 'origHeight': 410, 'width': 410, 'height': 410, 'widthPercent': 0.45, 'rescaleHeight': False, 'trialN': 60, 'loaded': True, 'loadedTime': 2315.399999976158, 'positionName': 'RIGHT', 'positionCoords': [998.4, 395], 'bid': 3.13}]",111489.69999992847,1669830075218,mashed potato,froot loops w milk,4.97,3.13,-1.8399999999999999,froot loops w milk,1050.8999999761581,1052,1051.3000000715256,True,i,113055.69999992847,1566.0,1669830076784,1566,HRV,HRV_0098,2022-11-30 17:44:55
61,"[{'imgObject': {}, 'id': 'luckycharms', 'src': '/static/foodstim60/luckycharms.jpg', 'key': 'u', 'origWidth': 410, 'origHeight': 409, 'width': 410, 'height': 409, 'widthPercent': 0.45, 'rescaleHeight': False, 'trialN': 61, 'loaded': True, 'loadedTime': 2045.2999999523163, 'positionName': 'LEFT', 'positionCoords': [511.6, 395.5], 'bid': 3.15}, {'imgObject': {}, 'id': 'cherry tomato', 'src': '/static/foodstim60/cherry tomato.jpg', 'key': 'i', 'origWidth': 410, 'origHeight': 410, 'width': 410, 'height': 410, 'widthPercent': 0.45, 'rescaleHeight': False, 'trialN': 61, 'loaded': True, 'loadedTime': 2469.5, 'positionName': 'RIGHT', 'positionCoords': [998.4, 395], 'bid': 0}]",113055.89999997616,1669830076785,luckycharms,cherry tomato,3.15,0.0,-3.15,luckycharms,782.3999999761581,782,782.7999999523163,True,u,114352.79999995232,1296.8999999761581,1669830078082,1297,HRV,HRV_0098,2022-11-30 17:44:55
62,"[{'imgObject': {}, 'id': 'rigatoni', 'src': '/static/foodstim60/rigatoni.jpg', 'key': 'u', 'origWidth': 411, 'origHeight': 411, 'width': 411, 'height': 411, 'widthPercent': 0.45, 'rescaleHeight': False, 'trialN': 62, 'loaded': True, 'loadedTime': 2426, 'positionName': 'LEFT', 'positionCoords': [510.6, 394.5], 'bid': 3.81}, {'imgObject': {}, 'id': 'raspberries', 'src': '/static/foodstim60/raspberries.jpg', 'key': 'i', 'origWidth': 411, 'origHeight': 411, 'width': 411, 'height': 411, 'widthPercent': 0.45, 'rescaleHeight': False, 'trialN': 62, 'loaded': True, 'loadedTime': 2076.6999999284744, 'positionName': 'RIGHT', 'positionCoords': [998.4, 394.5], 'bid': 3.59}]",114352.89999997616,1669830078082,rigatoni,raspberries,3.81,3.59,-0.2200000000000002,raspberries,2059.7999999523163,2060,2060.0,True,i,116919.39999997616,2566.5,1669830080648,2566,HRV,HRV_0098,2022-11-30 17:44:55
63,"[{'imgObject': {}, 'id': 'chicken nuggets2', 'src': '/static/foodstim60/chicken nuggets2.jpg', 'key': 'u', 'origWidth': 410, 'origHeight': 409, 'width': 410, 'height': 409, 'widthPercent': 0.45, 'rescaleHeight': False, 'trialN': 63, 'loaded': True, 'loadedTime': 2473.899999976158, 'positionName': 'LEFT', 'positionCoords': [511.6, 395.5], 'bid': 2.75}, {'imgObject': {}, 'id': 'lox', 'src': '/static/foodstim60/lox.jpg', 'key': 'i', 'origWidth': 410, 'origHeight': 411, 'width': 410, 'height': 411, 'widthPercent': 0.45, 'rescaleHeight': False, 'trialN': 63, 'loaded': True, 'loadedTime': 2439.0999999046326, 'positionName': 'RIGHT', 'positionCoords': [998.4, 394.5], 'bid': 0.06}]",116919.5,1669830080648,chicken nuggets2,lox,2.75,0.06,-2.69,chicken nuggets2,1088.8999999761581,1090,1089.2999999523163,True,u,118517.59999990463,1598.0999999046326,1669830082246,1598,HRV,HRV_0098,2022-11-30 17:44:55
64,"[{'imgObject': {}, 'id': 'raisin bran w milk', 'src': '/static/foodstim60/raisin bran w milk.jpg', 'key': 'u', 'origWidth': 411, 'origHeight': 411, 'width': 411, 'height': 411, 'widthPercent': 0.45, 'rescaleHeight': False, 'trialN': 64, 'loaded': True, 'loadedTime': 2328.6999999284744, 'positionName': 'LEFT', 'positionCoords': [510.6, 394.5], 'bid': 0.86}, {'imgObject': {}, 'id': 'mango', 'src': '/static/foodstim60/mango.jpg', 'key': 'i', 'origWidth': 411, 'origHeight': 411, 'width': 411, 'height': 411, 'widthPercent': 0.45, 'rescaleHeight': False, 'trialN': 64, 'loaded': True, 'loadedTime': 2053.5, 'positionName': 'RIGHT', 'positionCoords': [998.4, 394.5], 'bid': 1.4}]",118517.69999992847,1669830082246,raisin bran w milk,mango,0.86,1.4,0.5399999999999999,raisin bran w milk,1210.1000000238419,1211,1210.3999999761581,True,u,120232.29999995232,1714.6000000238419,1669830083961,1715,HRV,HRV_0098,2022-11-30 17:44:55
65,"[{'imgObject': {}, 'id': 'chicken nuggets2', 'src': '/static/foodstim60/chicken nuggets2.jpg', 'key': 'u', 'origWidth': 410, 'origHeight': 409, 'width': 410, 'height': 409, 'widthPercent': 0.45, 'rescaleHeight': False, 'trialN': 65, 'loaded': True, 'loadedTime': 2473.6999999284744, 'positionName': 'LEFT', 'positionCoords': [511.6, 395.5], 'bid': 2.75}, {'imgObject': {}, 'id': 'turkey sandwich', 'src': '/static/foodstim60/turkey sandwich.jpg', 'key': 'i', 'origWidth': 409, 'origHeight': 409, 'width': 409, 'height': 409, 'widthPercent': 0.45, 'rescaleHeight': False, 'trialN': 65, 'loaded': True, 'loadedTime': 2412.399999976158, 'positionName': 'RIGHT', 'positionCoords': [998.4, 395.5], 'bid': 3.93}]",120232.39999997616,1669830083961,chicken nuggets2,turkey sandwich,2.75,3.93,1.1800000000000002,chicken nuggets2,2249.2999999523163,2250,2249.600000023842,True,u,122996.5,2764.100000023842,1669830086725,2764,HRV,HRV_0098,2022-11-30 17:44:55
66,"[{'imgObject': {}, 'id': 'Tribe humus pita', 'src': '/static/foodstim60/Tribe humus pita.jpg', 'key': 'u', 'origWidth': 411, 'origHeight': 411, 'width': 411, 'height': 411, 'widthPercent': 0.45, 'rescaleHeight': False, 'trialN': 66, 'loaded': True, 'loadedTime': 2469.2999999523163, 'positionName': 'LEFT', 'positionCoords': [510.6, 394.5], 'bid': 1.05}, {'imgObject': {}, 'id': 'edamame', 'src': '/static/foodstim60/edamame.jpg', 'key': 'i', 'origWidth': 409, 'origHeight': 410, 'width': 409, 'height': 410, 'widthPercent': 0.45, 'rescaleHeight': False, 'trialN': 66, 'loaded': True, 'loadedTime': 2236, 'positionName': 'RIGHT', 'positionCoords': [998.4, 395], 'bid': 0}]",122996.69999992847,1669830086726,Tribe humus pita,edamame,1.05,0.0,-1.05,Tribe humus pita,1372.8999999761581,1373,1373.3000000715256,True,u,124885.5,1888.8000000715256,1669830088614,1888,HRV,HRV_0098,2022-11-30 17:44:55
67,"[{'imgObject': {}, 'id': 'eggsalad', 'src': '/static/foodstim60/eggsalad.jpg', 'key': 'u', 'origWidth': 410, 'origHeight': 409, 'width': 410, 'height': 409, 'widthPercent': 0.45, 'rescaleHeight': False, 'trialN': 67, 'loaded': True, 'loadedTime': 2468.2999999523163, 'positionName': 'LEFT', 'positionCoords': [511.6, 395.5], 'bid': 1.34}, {'imgObject': {}, 'id': 'froot loops w milk', 'src': '/static/foodstim60/froot loops w milk.jpg', 'key': 'i', 'origWidth': 410, 'origHeight': 410, 'width': 410, 'height': 410, 'widthPercent': 0.45, 'rescaleHeight': False, 'trialN': 67, 'loaded': True, 'loadedTime': 2316.1999999284744, 'positionName': 'RIGHT', 'positionCoords': [998.4, 395], 'bid': 3.13}]",124885.69999992847,1669830088615,eggsalad,froot loops w milk,1.34,3.13,1.7899999999999998,froot loops w milk,2210.399999976158,2210,2210.600000023842,True,i,127601.59999990463,2715.899999976158,1669830091330,2715,HRV,HRV_0098,2022-11-30 17:44:55
68,"[{'imgObject': {}, 'id': 'sweetpotato', 'src': '/static/foodstim60/sweetpotato.jpg', 'key': 'u', 'origWidth': 410, 'origHeight': 410, 'width': 410, 'height': 410, 'widthPercent': 0.45, 'rescaleHeight': False, 'trialN': 68, 'loaded': True, 'loadedTime': 2383.899999976158, 'positionName': 'LEFT', 'positionCoords': [511.6, 395], 'bid': 0.91}, {'imgObject': {}, 'id': 'fried eggs', 'src': '/static/foodstim60/fried eggs.jpg', 'key': 'i', 'origWidth': 410, 'origHeight': 410, 'width': 410, 'height': 410, 'widthPercent': 0.45, 'rescaleHeight': False, 'trialN': 68, 'loaded': True, 'loadedTime': 2353.7999999523163, 'positionName': 'RIGHT', 'positionCoords': [998.4, 395], 'bid': 1.03}]",127601.69999992847,1669830091331,sweetpotato,fried eggs,0.91,1.03,0.12,sweetpotato,1571.3999999761581,1571,1571.7000000476837,True,u,129687.5,2085.8000000715256,1669830093416,2085,HRV,HRV_0098,2022-11-30 17:44:55
69,"[{'imgObject': {}, 'id': 'tacos', 'src': '/static/foodstim60/tacos.jpg', 'key': 'u', 'origWidth': 411, 'origHeight': 411, 'width': 411, 'height': 411, 'widthPercent': 0.45, 'rescaleHeight': False, 'trialN': 69, 'loaded': True, 'loadedTime': 2474.6999999284744, 'positionName': 'LEFT', 'positionCoords': [510.6, 394.5], 'bid': 4.41}, {'imgObject': {}, 'id': 'Grapes', 'src': '/static/foodstim60/Grapes.jpg', 'key': 'i', 'origWidth': 411, 'origHeight': 411, 'width': 411, 'height': 411, 'widthPercent': 0.45, 'rescaleHeight': False, 'trialN': 69, 'loaded': True, 'loadedTime': 2487.7999999523163, 'positionName': 'RIGHT', 'positionCoords': [998.4, 394.5], 'bid': 4.19}]",129687.69999992847,1669830093416,tacos,Grapes,4.41,4.19,-0.21999999999999975,tacos,1454.7000000476837,1456,1455.2000000476837,True,u,131656.69999992847,1969.0,1669830095385,1969,HRV,HRV_0098,2022-11-30 17:44:55
70,"[{'imgObject': {}, 'id': 'sushi w_condiments', 'src': '/static/foodstim60/sushi w_condiments.jpg', 'key': 'u', 'origWidth': 410, 'origHeight': 410, 'width': 410, 'height': 410, 'widthPercent': 0.45, 'rescaleHeight': False, 'trialN': 70, 'loaded': True, 'loadedTime': 2159, 'positionName': 'LEFT', 'positionCoords': [511.6, 395], 'bid': 0}, {'imgObject': {}, 'id': 'turkey sandwich', 'src': '/static/foodstim60/turkey sandwich.jpg', 'key': 'i', 'origWidth': 409, 'origHeight': 409, 'width': 409, 'height': 409, 'widthPercent': 0.45, 'rescaleHeight': False, 'trialN': 70, 'loaded': True, 'loadedTime': 2411.2999999523163, 'positionName': 'RIGHT', 'positionCoords': [998.4, 395.5], 'bid': 3.93}]",131656.69999992847,1669830095386,sushi w_condiments,turkey sandwich,0.0,3.93,3.93,turkey sandwich,1389.0,1389,1389.3000000715256,True,i,133558.89999997616,1902.2000000476837,1669830097288,1902,HRV,HRV_0098,2022-11-30 17:44:55
71,"[{'imgObject': {}, 'id': 'baked potato', 'src': '/static/foodstim60/baked potato.jpg', 'key': 'u', 'origWidth': 409, 'origHeight': 410, 'width': 409, 'height': 410, 'widthPercent': 0.45, 'rescaleHeight': False, 'trialN': 71, 'loaded': True, 'loadedTime': 2089.899999976158, 'positionName': 'LEFT', 'positionCoords': [512.6, 395], 'bid': 3.95}, {'imgObject': {}, 'id': 'roastedpotatoes', 'src': '/static/foodstim60/roastedpotatoes.jpg', 'key': 'i', 'origWidth': 409, 'origHeight': 410, 'width': 409, 'height': 410, 'widthPercent': 0.45, 'rescaleHeight': False, 'trialN': 71, 'loaded': True, 'loadedTime': 2488.7999999523163, 'positionName': 'RIGHT', 'positionCoords': [998.4, 395], 'bid': 6.46}]",133559.0,1669830097288,baked potato,roastedpotatoes,3.95,6.46,2.51,roastedpotatoes,999.2999999523163,999,999.6999999284744,True,i,135063.79999995232,1504.7999999523163,1669830098793,1505,HRV,HRV_0098,2022-11-30 17:44:55
72,"[{'imgObject': {}, 'id': 'bagel plain', 'src': '/static/foodstim60/bagel plain.jpg', 'key': 'u', 'origWidth': 410, 'origHeight': 410, 'width': 410, 'height': 410, 'widthPercent': 0.45, 'rescaleHeight': False, 'trialN': 72, 'loaded': True, 'loadedTime': 2149.7999999523163, 'positionName': 'LEFT', 'positionCoords': [511.6, 395], 'bid': 3.36}, {'imgObject': {}, 'id': 'luckycharms', 'src': '/static/foodstim60/luckycharms.jpg', 'key': 'i', 'origWidth': 410, 'origHeight': 409, 'width': 410, 'height': 409, 'widthPercent': 0.45, 'rescaleHeight': False, 'trialN': 72, 'loaded': True, 'loadedTime': 2043.5, 'positionName': 'RIGHT', 'positionCoords': [998.4, 395.5], 'bid': 3.15}]",135063.89999997616,1669830098793,bagel plain,luckycharms,3.36,3.15,-0.20999999999999996,luckycharms,1018.8999999761581,1019,1019.3999999761581,True,i,136604.79999995232,1540.8999999761581,1669830100334,1541,HRV,HRV_0098,2022-11-30 17:44:55
73,"[{'imgObject': {}, 'id': 'burrito', 'src': '/static/foodstim60/burrito.jpg', 'key': 'u', 'origWidth': 410, 'origHeight': 410, 'width': 410, 'height': 410, 'widthPercent': 0.45, 'rescaleHeight': False, 'trialN': 73, 'loaded': True, 'loadedTime': 2160.5999999046326, 'positionName': 'LEFT', 'positionCoords': [511.6, 395], 'bid': 3.31}, {'imgObject': {}, 'id': 'hashbrowns', 'src': '/static/foodstim60/hashbrowns.jpg', 'key': 'i', 'origWidth': 411, 'origHeight': 410, 'width': 411, 'height': 410, 'widthPercent': 0.45, 'rescaleHeight': False, 'trialN': 73, 'loaded': True, 'loadedTime': 2388.5999999046326, 'positionName': 'RIGHT', 'positionCoords': [998.4, 395], 'bid': 0}]",136604.89999997616,1669830100334,burrito,hashbrowns,3.31,0.0,-3.31,burrito,1051.5,1051,1051.7999999523163,True,u,138173.09999990463,1568.1999999284744,1669830101902,1568,HRV,HRV_0098,2022-11-30 17:44:55
74,"[{'imgObject': {}, 'id': 'lox', 'src': '/static/foodstim60/lox.jpg', 'key': 'u', 'origWidth': 410, 'origHeight': 411, 'width': 410, 'height': 411, 'widthPercent': 0.45, 'rescaleHeight': False, 'trialN': 74, 'loaded': True, 'loadedTime': 2440.0999999046326, 'positionName': 'LEFT', 'positionCoords': [511.6, 394.5], 'bid': 0.06}, {'imgObject': {}, 'id': 'popsicles', 'src': '/static/foodstim60/popsicles.jpg', 'key': 'i', 'origWidth': 410, 'origHeight': 410, 'width': 410, 'height': 410, 'widthPercent': 0.45, 'rescaleHeight': False, 'trialN': 74, 'loaded': True, 'loadedTime': 2494.399999976158, 'positionName': 'RIGHT', 'positionCoords': [998.4, 395], 'bid': 0.4}]",138173.29999995232,1669830101902,lox,popsicles,0.06,0.4,0.34,popsicles,1462.8999999761581,1463,1463.2000000476837,True,i,140151.09999990463,1977.7999999523163,1669830103880,1978,HRV,HRV_0098,2022-11-30 17:44:55
75,"[{'imgObject': {}, 'id': 'salmon', 'src': '/static/foodstim60/salmon.jpg', 'key': 'u', 'origWidth': 410, 'origHeight': 409, 'width': 410, 'height': 409, 'widthPercent': 0.45, 'rescaleHeight': False, 'trialN': 75, 'loaded': True, 'loadedTime': 2056.899999976158, 'positionName': 'LEFT', 'positionCoords': [511.6, 395.5], 'bid': 3.09}, {'imgObject': {}, 'id': 'shreddedwheatwithmilk', 'src': '/static/foodstim60/shreddedwheatwithmilk.jpg', 'key': 'i', 'origWidth': 410, 'origHeight': 410, 'width': 410, 'height': 410, 'widthPercent': 0.45, 'rescaleHeight': False, 'trialN': 75, 'loaded': True, 'loadedTime': 2147.899999976158, 'positionName': 'RIGHT', 'positionCoords': [998.4, 395], 'bid': 1.1}]",140151.19999992847,1669830103880,salmon,shreddedwheatwithmilk,3.09,1.1,-1.9899999999999998,salmon,1501.3000000715256,1502,1501.7000000476837,True,u,142164.69999992847,2013.5,1669830105894,2014,HRV,HRV_0098,2022-11-30 17:44:55
76,"[{'imgObject': {}, 'id': 'mac & cheese', 'src': '/static/foodstim60/mac & cheese.jpg', 'key': 'u', 'origWidth': 410, 'origHeight': 410, 'width': 410, 'height': 410, 'widthPercent': 0.45, 'rescaleHeight': False, 'trialN': 76, 'loaded': True, 'loadedTime': 2164.5999999046326, 'positionName': 'LEFT', 'positionCoords': [511.6, 395], 'bid': 9.03}, {'imgObject': {}, 'id': 'steak', 'src': '/static/foodstim60/steak.jpg', 'key': 'i', 'origWidth': 410, 'origHeight': 410, 'width': 410, 'height': 410, 'widthPercent': 0.45, 'rescaleHeight': False, 'trialN': 76, 'loaded': True, 'loadedTime': 2146.2999999523163, 'positionName': 'RIGHT', 'positionCoords': [998.4, 395], 'bid': 8.92}]",142164.89999997616,1669830105894,mac & cheese,steak,9.03,8.92,-0.10999999999999943,steak,1976.6999999284744,1977,1977.1000000238419,True,i,144649.0,2484.100000023842,1669830108378,2484,HRV,HRV_0098,2022-11-30 17:44:55
77,"[{'imgObject': {}, 'id': 'corn cob', 'src': '/static/foodstim60/corn cob.jpg', 'key': 'u', 'origWidth': 411, 'origHeight': 411, 'width': 411, 'height': 411, 'widthPercent': 0.45, 'rescaleHeight': False, 'trialN': 77, 'loaded': True, 'loadedTime': 2411.0999999046326, 'positionName': 'LEFT', 'positionCoords': [510.6, 394.5], 'bid': 2.26}, {'imgObject': {}, 'id': 'salad w chicken', 'src': '/static/foodstim60/salad w chicken.jpg', 'key': 'i', 'origWidth': 411, 'origHeight': 411, 'width': 411, 'height': 411, 'widthPercent': 0.45, 'rescaleHeight': False, 'trialN': 77, 'loaded': True, 'loadedTime': 2278.1999999284744, 'positionName': 'RIGHT', 'positionCoords': [998.4, 394.5], 'bid': 6.96}]",144649.19999992847,1669830108378,corn cob,salad w chicken,2.26,6.96,4.7,salad w chicken,805.8999999761581,806,806.3000000715256,True,i,145964.0,1314.8000000715256,1669830109693,1315,HRV,HRV_0098,2022-11-30 17:44:55
78,"[{'imgObject': {}, 'id': 'eggsalad', 'src': '/static/foodstim60/eggsalad.jpg', 'key': 'u', 'origWidth': 410, 'origHeight': 409, 'width': 410, 'height': 409, 'widthPercent': 0.45, 'rescaleHeight': False, 'trialN': 78, 'loaded': True, 'loadedTime': 2468.2999999523163, 'positionName': 'LEFT', 'positionCoords': [511.6, 395.5], 'bid': 1.34}, {'imgObject': {}, 'id': 'fruitsalad', 'src': '/static/foodstim60/fruitsalad.jpg', 'key': 'i', 'origWidth': 410, 'origHeight': 410, 'width': 410, 'height': 410, 'widthPercent': 0.45, 'rescaleHeight': False, 'trialN': 78, 'loaded': True, 'loadedTime': 2050.899999976158, 'positionName': 'RIGHT', 'positionCoords': [998.4, 395], 'bid': 6.12}]",145964.09999990463,1669830109693,eggsalad,fruitsalad,1.34,6.12,4.78,fruitsalad,1821.6000000238419,1822,1821.8000000715256,True,i,148298.69999992847,2334.600000023842,1669830112027,2334,HRV,HRV_0098,2022-11-30 17:44:55
79,"[{'imgObject': {}, 'id': 'ice cream sundae 002', 'src': '/static/foodstim60/ice cream sundae 002.jpg', 'key': 'u', 'origWidth': 409, 'origHeight': 409, 'width': 409, 'height': 409, 'widthPercent': 0.45, 'rescaleHeight': False, 'trialN': 79, 'loaded': True, 'loadedTime': 2302.5, 'positionName': 'LEFT', 'positionCoords': [512.6, 395.5], 'bid': 7.82}, {'imgObject': {}, 'id': 'mac & cheese', 'src': '/static/foodstim60/mac & cheese.jpg', 'key': 'i', 'origWidth': 410, 'origHeight': 410, 'width': 410, 'height': 410, 'widthPercent': 0.45, 'rescaleHeight': False, 'trialN': 79, 'loaded': True, 'loadedTime': 2164.6999999284744, 'positionName': 'RIGHT', 'positionCoords': [998.4, 395], 'bid': 9.03}]",148298.89999997616,1669830112028,ice cream sundae 002,mac & cheese,7.82,9.03,1.209999999999999,mac & cheese,1484.5,1485,1484.8999999761581,True,i,150300.59999990463,2001.6999999284744,1669830114029,2001,HRV,HRV_0098,2022-11-30 17:44:55
80,"[{'imgObject': {}, 'id': 'cherry tomato', 'src': '/static/foodstim60/cherry tomato.jpg', 'key': 'u', 'origWidth': 410, 'origHeight': 410, 'width': 410, 'height': 410, 'widthPercent': 0.45, 'rescaleHeight': False, 'trialN': 80, 'loaded': True, 'loadedTime': 2470.1999999284744, 'positionName': 'LEFT', 'positionCoords': [511.6, 395], 'bid': 0}, {'imgObject': {}, 'id': 'omelette', 'src': '/static/foodstim60/omelette.jpg', 'key': 'i', 'origWidth': 410, 'origHeight': 409, 'width': 410, 'height': 409, 'widthPercent': 0.45, 'rescaleHeight': False, 'trialN': 80, 'loaded': True, 'loadedTime': 2264.6999999284744, 'positionName': 'RIGHT', 'positionCoords': [998.4, 395.5], 'bid': 0}]",150300.79999995232,1669830114030,cherry tomato,omelette,0.0,0.0,0.0,omelette,985.2000000476837,985,985.3999999761581,True,i,151800.5,1499.7000000476837,1669830115529,1499,HRV,HRV_0098,2022-11-30 17:44:55
81,"[{'imgObject': {}, 'id': 'veggieswithdip', 'src': '/static/foodstim60/veggieswithdip.jpg', 'key': 'u', 'origWidth': 409, 'origHeight': 409, 'width': 409, 'height': 409, 'widthPercent': 0.45, 'rescaleHeight': False, 'trialN': 81, 'loaded': True, 'loadedTime': 2251, 'positionName': 'LEFT', 'positionCoords': [512.6, 395.5], 'bid': 0}, {'imgObject': {}, 'id': 'eggsalad', 'src': '/static/foodstim60/eggsalad.jpg', 'key': 'i', 'origWidth': 410, 'origHeight': 409, 'width': 410, 'height': 409, 'widthPercent': 0.45, 'rescaleHeight': False, 'trialN': 81, 'loaded': True, 'loadedTime': 2468.1999999284744, 'positionName': 'RIGHT', 'positionCoords': [998.4, 395.5], 'bid': 1.34}]",151800.69999992847,1669830115529,veggieswithdip,eggsalad,0.0,1.34,1.34,eggsalad,1051.8000000715256,1053,1052.3000000715256,True,i,153365.59999990463,1564.8999999761581,1669830117094,1565,HRV,HRV_0098,2022-11-30 17:44:55
82,"[{'imgObject': {}, 'id': 'sushi w_condiments', 'src': '/static/foodstim60/sushi w_condiments.jpg', 'key': 'u', 'origWidth': 410, 'origHeight': 410, 'width': 410, 'height': 410, 'widthPercent': 0.45, 'rescaleHeight': False, 'trialN': 82, 'loaded': True, 'loadedTime': 2159.5, 'positionName': 'LEFT', 'positionCoords': [511.6, 395], 'bid': 0}, {'imgObject': {}, 'id': 'blackbeanswithrice', 'src': '/static/foodstim60/blackbeanswithrice.jpg', 'key': 'i', 'origWidth': 410, 'origHeight': 410, 'width': 410, 'height': 410, 'widthPercent': 0.45, 'rescaleHeight': False, 'trialN': 82, 'loaded': True, 'loadedTime': 2341.5, 'positionName': 'RIGHT', 'positionCoords': [998.4, 395], 'bid': 0.01}]",153365.69999992847,1669830117095,sushi w_condiments,blackbeanswithrice,0.0,0.01,0.01,blackbeanswithrice,1382.6000000238419,1383,1383.0,True,i,155258.89999997616,1893.2000000476837,1669830118988,1893,HRV,HRV_0098,2022-11-30 17:44:55
83,"[{'imgObject': {}, 'id': 'Tribe humus pita', 'src': '/static/foodstim60/Tribe humus pita.jpg', 'key': 'u', 'origWidth': 411, 'origHeight': 411, 'width': 411, 'height': 411, 'widthPercent': 0.45, 'rescaleHeight': False, 'trialN': 83, 'loaded': True, 'loadedTime': 2469.2999999523163, 'positionName': 'LEFT', 'positionCoords': [510.6, 394.5], 'bid': 1.05}, {'imgObject': {}, 'id': 'shreddedwheatwithmilk', 'src': '/static/foodstim60/shreddedwheatwithmilk.jpg', 'key': 'i', 'origWidth': 410, 'origHeight': 410, 'width': 410, 'height': 410, 'widthPercent': 0.45, 'rescaleHeight': False, 'trialN': 83, 'loaded': True, 'loadedTime': 2147.2999999523163, 'positionName': 'RIGHT', 'positionCoords': [998.4, 395], 'bid': 1.1}]",155259.0,1669830118988,Tribe humus pita,shreddedwheatwithmilk,1.05,1.1,0.050000000000000044,shreddedwheatwithmilk,1799.0999999046326,1799,1799.3999999761581,True,i,157573.09999990463,2314.0999999046326,1669830121302,2314,HRV,HRV_0098,2022-11-30 17:44:55
84,"[{'imgObject': {}, 'id': 'mashed potato', 'src': '/static/foodstim60/mashed potato.jpg', 'key': 'u', 'origWidth': 409, 'origHeight': 409, 'width': 409, 'height': 409, 'widthPercent': 0.45, 'rescaleHeight': False, 'trialN': 84, 'loaded': True, 'loadedTime': 2455.7999999523163, 'positionName': 'LEFT', 'positionCoords': [512.6, 395.5], 'bid': 4.97}, {'imgObject': {}, 'id': 'tacos', 'src': '/static/foodstim60/tacos.jpg', 'key': 'i', 'origWidth': 411, 'origHeight': 411, 'width': 411, 'height': 411, 'widthPercent': 0.45, 'rescaleHeight': False, 'trialN': 84, 'loaded': True, 'loadedTime': 2473.899999976158, 'positionName': 'RIGHT', 'positionCoords': [998.4, 394.5], 'bid': 4.41}]",157573.19999992847,1669830121302,mashed potato,tacos,4.97,4.41,-0.5599999999999996,tacos,965.3000000715256,966,965.7000000476837,True,i,159042.0,1468.8000000715256,1669830122771,1469,HRV,HRV_0098,2022-11-30 17:44:55
85,"[{'imgObject': {}, 'id': 'mac & cheese', 'src': '/static/foodstim60/mac & cheese.jpg', 'key': 'u', 'origWidth': 410, 'origHeight': 410, 'width': 410, 'height': 410, 'widthPercent': 0.45, 'rescaleHeight': False, 'trialN': 85, 'loaded': True, 'loadedTime': 2164.399999976158, 'positionName': 'LEFT', 'positionCoords': [511.6, 395], 'bid': 9.03}, {'imgObject': {}, 'id': 'Grapes', 'src': '/static/foodstim60/Grapes.jpg', 'key': 'i', 'origWidth': 411, 'origHeight': 411, 'width': 411, 'height': 411, 'widthPercent': 0.45, 'rescaleHeight': False, 'trialN': 85, 'loaded': True, 'loadedTime': 2487.6999999284744, 'positionName': 'RIGHT', 'positionCoords': [998.4, 394.5], 'bid': 4.19}]",159042.5,1669830122772,mac & cheese,Grapes,9.03,4.19,-4.839999999999999,mac & cheese,953.5,953,953.7999999523163,True,u,160514.89999997616,1472.3999999761581,1669830124244,1472,HRV,HRV_0098,2022-11-30 17:44:55
86,"[{'imgObject': {}, 'id': 'cocktailshrimp', 'src': '/static/foodstim60/cocktailshrimp.jpg', 'key': 'u', 'origWidth': 410, 'origHeight': 410, 'width': 410, 'height': 410, 'widthPercent': 0.45, 'rescaleHeight': False, 'trialN': 86, 'loaded': True, 'loadedTime': 2139.899999976158, 'positionName': 'LEFT', 'positionCoords': [511.6, 395], 'bid': 5.55}, {'imgObject': {}, 'id': 'salad w chicken', 'src': '/static/foodstim60/salad w chicken.jpg', 'key': 'i', 'origWidth': 411, 'origHeight': 411, 'width': 411, 'height': 411, 'widthPercent': 0.45, 'rescaleHeight': False, 'trialN': 86, 'loaded': True, 'loadedTime': 2277.2999999523163, 'positionName': 'RIGHT', 'positionCoords': [998.4, 394.5], 'bid': 6.96}]",160515.09999990463,1669830124244,cocktailshrimp,salad w chicken,5.55,6.96,1.4100000000000001,salad w chicken,1175.2000000476837,1176,1175.7000000476837,True,i,162203.19999992847,1688.1000000238419,1669830125932,1688,HRV,HRV_0098,2022-11-30 17:44:55
87,"[{'imgObject': {}, 'id': 'steak', 'src': '/static/foodstim60/steak.jpg', 'key': 'u', 'origWidth': 410, 'origHeight': 410, 'width': 410, 'height': 410, 'widthPercent': 0.45, 'rescaleHeight': False, 'trialN': 87, 'loaded': True, 'loadedTime': 2145.399999976158, 'positionName': 'LEFT', 'positionCoords': [511.6, 395], 'bid': 8.92}, {'imgObject': {}, 'id': 'turkeysandwich', 'src': '/static/foodstim60/turkeysandwich.jpg', 'key': 'i', 'origWidth': 409, 'origHeight': 409, 'width': 409, 'height': 409, 'widthPercent': 0.45, 'rescaleHeight': False, 'trialN': 87, 'loaded': True, 'loadedTime': 2224, 'positionName': 'RIGHT', 'positionCoords': [998.4, 395.5], 'bid': 4.16}]",162203.39999997616,1669830125933,steak,turkeysandwich,8.92,4.16,-4.76,steak,920.6999999284744,921,921.1999999284744,True,u,163635.0,1431.6000000238419,1669830127364,1431,HRV,HRV_0098,2022-11-30 17:44:55
88,"[{'imgObject': {}, 'id': 'corn cob', 'src': '/static/foodstim60/corn cob.jpg', 'key': 'u', 'origWidth': 411, 'origHeight': 411, 'width': 411, 'height': 411, 'widthPercent': 0.45, 'rescaleHeight': False, 'trialN': 88, 'loaded': True, 'loadedTime': 2411, 'positionName': 'LEFT', 'positionCoords': [510.6, 394.5], 'bid': 2.26}, {'imgObject': {}, 'id': 'yogurt no spoon', 'src': '/static/foodstim60/yogurt no spoon.jpg', 'key': 'i', 'origWidth': 411, 'origHeight': 410, 'width': 411, 'height': 410, 'widthPercent': 0.45, 'rescaleHeight': False, 'trialN': 88, 'loaded': True, 'loadedTime': 2056, 'positionName': 'RIGHT', 'positionCoords': [998.4, 395], 'bid': 1.97}]",163635.19999992847,1669830127364,corn cob,yogurt no spoon,2.26,1.97,-0.2899999999999998,yogurt no spoon,1740.0,1741,1740.2000000476837,True,i,165885.89999997616,2250.7000000476837,1669830129615,2251,HRV,HRV_0098,2022-11-30 17:44:55
89,"[{'imgObject': {}, 'id': 'rigatoni and sauce', 'src': '/static/foodstim60/rigatoni and sauce.jpg', 'key': 'u', 'origWidth': 410, 'origHeight': 411, 'width': 410, 'height': 411, 'widthPercent': 0.45, 'rescaleHeight': False, 'trialN': 89, 'loaded': True, 'loadedTime': 2472.399999976158, 'positionName': 'LEFT', 'positionCoords': [511.6, 394.5], 'bid': 6.23}, {'imgObject': {}, 'id': 'pear', 'src': '/static/foodstim60/pear.jpg', 'key': 'i', 'origWidth': 411, 'origHeight': 410, 'width': 411, 'height': 410, 'widthPercent': 0.45, 'rescaleHeight': False, 'trialN': 89, 'loaded': True, 'loadedTime': 1989.2999999523163, 'positionName': 'RIGHT', 'positionCoords': [998.4, 395], 'bid': 5.0200000000000005}]",165886.19999992847,1669830129615,rigatoni and sauce,pear,6.23,5.0200000000000005,-1.21,rigatoni and sauce,963.7000000476837,964,963.8999999761581,True,u,167363.69999992847,1477.5,1669830131093,1478,HRV,HRV_0098,2022-11-30 17:44:55
90,"[{'imgObject': {}, 'id': 'rigatoni', 'src': '/static/foodstim60/rigatoni.jpg', 'key': 'u', 'origWidth': 411, 'origHeight': 411, 'width': 411, 'height': 411, 'widthPercent': 0.45, 'rescaleHeight': False, 'trialN': 90, 'loaded': True, 'loadedTime': 2426.1999999284744, 'positionName': 'LEFT', 'positionCoords': [510.6, 394.5], 'bid': 3.81}, {'imgObject': {}, 'id': 'blueberries', 'src': '/static/foodstim60/blueberries.jpg', 'key': 'i', 'origWidth': 411, 'origHeight': 411, 'width': 411, 'height': 411, 'widthPercent': 0.45, 'rescaleHeight': False, 'trialN': 90, 'loaded': True, 'loadedTime': 2116.899999976158, 'positionName': 'RIGHT', 'positionCoords': [998.4, 394.5], 'bid': 2.56}]",177727.69999992847,1669830141457,rigatoni,blueberries,3.81,2.56,-1.25,rigatoni,2828.5,2829,2828.8000000715256,True,u,181075.59999990463,3347.899999976158,1669830144805,3348,HRV,HRV_0098,2022-11-30 17:44:55
91,"[{'imgObject': {}, 'id': 'hashbrowns', 'src': '/static/foodstim60/hashbrowns.jpg', 'key': 'u', 'origWidth': 411, 'origHeight': 410, 'width': 411, 'height': 410, 'widthPercent': 0.45, 'rescaleHeight': False, 'trialN': 91, 'loaded': True, 'loadedTime': 2388.5999999046326, 'positionName': 'LEFT', 'positionCoords': [510.6, 395], 'bid': 0}, {'imgObject': {}, 'id': 'fried eggs', 'src': '/static/foodstim60/fried eggs.jpg', 'key': 'i', 'origWidth': 410, 'origHeight': 410, 'width': 410, 'height': 410, 'widthPercent': 0.45, 'rescaleHeight': False, 'trialN': 91, 'loaded': True, 'loadedTime': 2354.7999999523163, 'positionName': 'RIGHT', 'positionCoords': [998.4, 395], 'bid': 1.03}]",181075.89999997616,1669830144805,hashbrowns,fried eggs,0.0,1.03,1.03,fried eggs,1263.1000000238419,1264,1263.5,True,i,182850.89999997616,1775.0,1669830146580,1775,HRV,HRV_0098,2022-11-30 17:44:55
92,"[{'imgObject': {}, 'id': 'mashed potato', 'src': '/static/foodstim60/mashed potato.jpg', 'key': 'u', 'origWidth': 409, 'origHeight': 409, 'width': 409, 'height': 409, 'widthPercent': 0.45, 'rescaleHeight': False, 'trialN': 92, 'loaded': True, 'loadedTime': 2456, 'positionName': 'LEFT', 'positionCoords': [512.6, 395.5], 'bid': 4.97}, {'imgObject': {}, 'id': 'ice cream sundae 002', 'src': '/static/foodstim60/ice cream sundae 002.jpg', 'key': 'i', 'origWidth': 409, 'origHeight': 409, 'width': 409, 'height': 409, 'widthPercent': 0.45, 'rescaleHeight': False, 'trialN': 92, 'loaded': True, 'loadedTime': 2302.6999999284744, 'positionName': 'RIGHT', 'positionCoords': [998.4, 395.5], 'bid': 7.82}]",182851.09999990463,1669830146580,mashed potato,ice cream sundae 002,4.97,7.82,2.8500000000000005,ice cream sundae 002,1032.5,1033,1032.8000000715256,True,i,184405.29999995232,1554.2000000476837,1669830148134,1554,HRV,HRV_0098,2022-11-30 17:44:55
93,"[{'imgObject': {}, 'id': 'roastedpotatoes', 'src': '/static/foodstim60/roastedpotatoes.jpg', 'key': 'u', 'origWidth': 409, 'origHeight': 410, 'width': 409, 'height': 410, 'widthPercent': 0.45, 'rescaleHeight': False, 'trialN': 93, 'loaded': True, 'loadedTime': 2488, 'positionName': 'LEFT', 'positionCoords': [512.6, 395], 'bid': 6.46}, {'imgObject': {}, 'id': 'apple slices', 'src': '/static/foodstim60/apple slices.jpg', 'key': 'i', 'origWidth': 409, 'origHeight': 410, 'width': 409, 'height': 410, 'widthPercent': 0.45, 'rescaleHeight': False, 'trialN': 93, 'loaded': True, 'loadedTime': 2057.399999976158, 'positionName': 'RIGHT', 'positionCoords': [998.4, 395], 'bid': 2.17}]",184405.39999997616,1669830148135,roastedpotatoes,apple slices,6.46,2.17,-4.29,roastedpotatoes,887.6999999284744,887,887.8999999761581,True,u,185808.59999990463,1403.1999999284744,1669830149538,1403,HRV,HRV_0098,2022-11-30 17:44:55
94,"[{'imgObject': {}, 'id': 'salmon', 'src': '/static/foodstim60/salmon.jpg', 'key': 'u', 'origWidth': 410, 'origHeight': 409, 'width': 410, 'height': 409, 'widthPercent': 0.45, 'rescaleHeight': False, 'trialN': 94, 'loaded': True, 'loadedTime': 2057.2999999523163, 'positionName': 'LEFT', 'positionCoords': [511.6, 395.5], 'bid': 3.09}, {'imgObject': {}, 'id': 'grilled chicken strips', 'src': '/static/foodstim60/grilled chicken strips.jpg', 'key': 'i', 'origWidth': 410, 'origHeight': 411, 'width': 410, 'height': 411, 'widthPercent': 0.45, 'rescaleHeight': False, 'trialN': 94, 'loaded': True, 'loadedTime': 2054.7999999523163, 'positionName': 'RIGHT', 'positionCoords': [998.4, 394.5], 'bid': 2.93}]",185808.69999992847,1669830149538,salmon,grilled chicken strips,3.09,2.93,-0.1599999999999997,salmon,1454.5,1455,1454.8000000715256,True,u,187777.89999997616,1969.2000000476837,1669830151507,1969,HRV,HRV_0098,2022-11-30 17:44:55
95,"[{'imgObject': {}, 'id': 'bagel and cc', 'src': '/static/foodstim60/bagel and cc.jpg', 'key': 'u', 'origWidth': 410, 'origHeight': 410, 'width': 410, 'height': 410, 'widthPercent': 0.45, 'rescaleHeight': False, 'trialN': 95, 'loaded': True, 'loadedTime': 2046.3999999761581, 'positionName': 'LEFT', 'positionCoords': [511.6, 395], 'bid': 3.8}, {'imgObject': {}, 'id': 'turkeysandwich', 'src': '/static/foodstim60/turkeysandwich.jpg', 'key': 'i', 'origWidth': 409, 'origHeight': 409, 'width': 409, 'height': 409, 'widthPercent': 0.45, 'rescaleHeight': False, 'trialN': 95, 'loaded': True, 'loadedTime': 2224.0999999046326, 'positionName': 'RIGHT', 'positionCoords': [998.4, 395.5], 'bid': 4.16}]",187778.19999992847,1669830151507,bagel and cc,turkeysandwich,3.8,4.16,0.3600000000000003,turkeysandwich,935.8000000715256,936,936.1000000238419,True,i,189220.39999997616,1442.2000000476837,1669830152949,1442,HRV,HRV_0098,2022-11-30 17:44:55
96,"[{'imgObject': {}, 'id': 'hashbrowns', 'src': '/static/foodstim60/hashbrowns.jpg', 'key': 'u', 'origWidth': 411, 'origHeight': 410, 'width': 411, 'height': 410, 'widthPercent': 0.45, 'rescaleHeight': False, 'trialN': 96, 'loaded': True, 'loadedTime': 2387, 'positionName': 'LEFT', 'positionCoords': [510.6, 395], 'bid': 0}, {'imgObject': {}, 'id': 'lox', 'src': '/static/foodstim60/lox.jpg', 'key': 'i', 'origWidth': 410, 'origHeight': 411, 'width': 410, 'height': 411, 'widthPercent': 0.45, 'rescaleHeight': False, 'trialN': 96, 'loaded': True, 'loadedTime': 2454.0999999046326, 'positionName': 'RIGHT', 'positionCoords': [998.4, 394.5], 'bid': 0.06}]",189220.5,1669830152950,hashbrowns,lox,0.0,0.06,0.06,hashbrowns,1381.8999999761581,1382,1382.0999999046326,True,u,191117.19999992847,1896.6999999284744,1669830154846,1896,HRV,HRV_0098,2022-11-30 17:44:55
97,"[{'imgObject': {}, 'id': 'popsicles', 'src': '/static/foodstim60/popsicles.jpg', 'key': 'u', 'origWidth': 410, 'origHeight': 410, 'width': 410, 'height': 410, 'widthPercent': 0.45, 'rescaleHeight': False, 'trialN': 97, 'loaded': True, 'loadedTime': 2494.2999999523163, 'positionName': 'LEFT', 'positionCoords': [511.6, 395], 'bid': 0.4}, {'imgObject': {}, 'id': 'shreddedwheatwithmilk', 'src': '/static/foodstim60/shreddedwheatwithmilk.jpg', 'key': 'i', 'origWidth': 410, 'origHeight': 410, 'width': 410, 'height': 410, 'widthPercent': 0.45, 'rescaleHeight': False, 'trialN': 97, 'loaded': True, 'loadedTime': 2148.0999999046326, 'positionName': 'RIGHT', 'positionCoords': [998.4, 395], 'bid': 1.1}]",191117.29999995232,1669830154846,popsicles,shreddedwheatwithmilk,0.4,1.1,0.7000000000000001,popsicles,1388.2000000476837,1389,1388.5,True,u,193021.39999997616,1904.1000000238419,1669830156750,1904,HRV,HRV_0098,2022-11-30 17:44:55
98,"[{'imgObject': {}, 'id': 'raspberries', 'src': '/static/foodstim60/raspberries.jpg', 'key': 'u', 'origWidth': 411, 'origHeight': 411, 'width': 411, 'height': 411, 'widthPercent': 0.45, 'rescaleHeight': False, 'trialN': 98, 'loaded': True, 'loadedTime': 2089.0999999046326, 'positionName': 'LEFT', 'positionCoords': [510.6, 394.5], 'bid': 3.59}, {'imgObject': {}, 'id': 'bagel and cc', 'src': '/static/foodstim60/bagel and cc.jpg', 'key': 'i', 'origWidth': 410, 'origHeight': 410, 'width': 410, 'height': 410, 'widthPercent': 0.45, 'rescaleHeight': False, 'trialN': 98, 'loaded': True, 'loadedTime': 2047.5999999046326, 'positionName': 'RIGHT', 'positionCoords': [998.4, 395], 'bid': 3.8}]",193021.59999990463,1669830156751,raspberries,bagel and cc,3.59,3.8,0.20999999999999996,bagel and cc,991.7000000476837,992,992.2000000476837,True,i,194531.89999997616,1510.3000000715256,1669830158261,1510,HRV,HRV_0098,2022-11-30 17:44:55
99,"[{'imgObject': {}, 'id': 'hotdog w must', 'src': '/static/foodstim60/hotdog w must.jpg', 'key': 'u', 'origWidth': 409, 'origHeight': 409, 'width': 409, 'height': 409, 'widthPercent': 0.45, 'rescaleHeight': False, 'trialN': 99, 'loaded': True, 'loadedTime': 2151.0999999046326, 'positionName': 'LEFT', 'positionCoords': [512.6, 395.5], 'bid': 0}, {'imgObject': {}, 'id': 'kiwi', 'src': '/static/foodstim60/kiwi.jpg', 'key': 'i', 'origWidth': 410, 'origHeight': 410, 'width': 410, 'height': 410, 'widthPercent': 0.45, 'rescaleHeight': False, 'trialN': 99, 'loaded': True, 'loadedTime': 2194.5999999046326, 'positionName': 'RIGHT', 'positionCoords': [998.4, 395], 'bid': 0}]",194532.0,1669830158261,hotdog w must,kiwi,0.0,0.0,0.0,hotdog w must,1790.2999999523163,1791,1790.6999999284744,True,u,196838.69999992847,2306.6999999284744,1669830160568,2307,HRV,HRV_0098,2022-11-30 17:44:55
100,"[{'imgObject': {}, 'id': 'eggsalad', 'src': '/static/foodstim60/eggsalad.jpg', 'key': 'u', 'origWidth': 410, 'origHeight': 409, 'width': 410, 'height': 409, 'widthPercent': 0.45, 'rescaleHeight': False, 'trialN': 100, 'loaded': True, 'loadedTime': 2467.6999999284744, 'positionName': 'LEFT', 'positionCoords': [511.6, 395.5], 'bid': 1.34}, {'imgObject': {}, 'id': 'mango', 'src': '/static/foodstim60/mango.jpg', 'key': 'i', 'origWidth': 411, 'origHeight': 411, 'width': 411, 'height': 411, 'widthPercent': 0.45, 'rescaleHeight': False, 'trialN': 100, 'loaded': True, 'loadedTime': 2052.399999976158, 'positionName': 'RIGHT', 'positionCoords': [998.4, 394.5], 'bid': 1.4}]",196838.89999997616,1669830160568,eggsalad,mango,1.34,1.4,0.05999999999999983,eggsalad,1910.2999999523163,1911,1910.6999999284744,True,u,199263.39999997616,2424.5,1669830162993,2425,HRV,HRV_0098,2022-11-30 17:44:55
101,"[{'imgObject': {}, 'id': 'raspberries', 'src': '/static/foodstim60/raspberries.jpg', 'key': 'u', 'origWidth': 411, 'origHeight': 411, 'width': 411, 'height': 411, 'widthPercent': 0.45, 'rescaleHeight': False, 'trialN': 101, 'loaded': True, 'loadedTime': 2077.5999999046326, 'positionName': 'LEFT', 'positionCoords': [510.6, 394.5], 'bid': 3.59}, {'imgObject': {}, 'id': 'banana', 'src': '/static/foodstim60/banana.jpg', 'key': 'i', 'origWidth': 410, 'origHeight': 410, 'width': 410, 'height': 410, 'widthPercent': 0.45, 'rescaleHeight': False, 'trialN': 101, 'loaded': True, 'loadedTime': 2489.1999999284744, 'positionName': 'RIGHT', 'positionCoords': [998.4, 395], 'bid': 4.15}]",199263.59999990463,1669830162993,raspberries,banana,3.59,4.15,0.5600000000000005,banana,1299.2000000476837,1299,1299.8000000715256,True,i,201073.79999995232,1810.2000000476837,1669830164803,1810,HRV,HRV_0098,2022-11-30 17:44:55
102,"[{'imgObject': {}, 'id': 'olives', 'src': '/static/foodstim60/olives.jpg', 'key': 'u', 'origWidth': 410, 'origHeight': 410, 'width': 410, 'height': 410, 'widthPercent': 0.45, 'rescaleHeight': False, 'trialN': 102, 'loaded': True, 'loadedTime': 2154.2999999523163, 'positionName': 'LEFT', 'positionCoords': [511.6, 395], 'bid': 0}, {'imgObject': {}, 'id': 'mango', 'src': '/static/foodstim60/mango.jpg', 'key': 'i', 'origWidth': 411, 'origHeight': 411, 'width': 411, 'height': 411, 'widthPercent': 0.45, 'rescaleHeight': False, 'trialN': 102, 'loaded': True, 'loadedTime': 2053.5999999046326, 'positionName': 'RIGHT', 'positionCoords': [998.4, 394.5], 'bid': 1.4}]",201073.89999997616,1669830164803,olives,mango,0.0,1.4,1.4,mango,934.0,934,934.2999999523163,True,i,202525.59999990463,1451.6999999284744,1669830166255,1452,HRV,HRV_0098,2022-11-30 17:44:55
103,"[{'imgObject': {}, 'id': 'froot loops w milk', 'src': '/static/foodstim60/froot loops w milk.jpg', 'key': 'u', 'origWidth': 410, 'origHeight': 410, 'width': 410, 'height': 410, 'widthPercent': 0.45, 'rescaleHeight': False, 'trialN': 103, 'loaded': True, 'loadedTime': 2316.1999999284744, 'positionName': 'LEFT', 'positionCoords': [511.6, 395], 'bid': 3.13}, {'imgObject': {}, 'id': 'luckycharms', 'src': '/static/foodstim60/luckycharms.jpg', 'key': 'i', 'origWidth': 410, 'origHeight': 409, 'width': 410, 'height': 409, 'widthPercent': 0.45, 'rescaleHeight': False, 'trialN': 103, 'loaded': True, 'loadedTime': 2046, 'positionName': 'RIGHT', 'positionCoords': [998.4, 395.5], 'bid': 3.15}]",202525.79999995232,1669830166255,froot loops w milk,luckycharms,3.13,3.15,0.020000000000000018,luckycharms,948.5,949,948.7999999523163,True,i,203980.29999995232,1454.5,1669830167709,1454,HRV,HRV_0098,2022-11-30 17:44:55
104,"[{'imgObject': {}, 'id': 'shreddedwheatwithmilk', 'src': '/static/foodstim60/shreddedwheatwithmilk.jpg', 'key': 'u', 'origWidth': 410, 'origHeight': 410, 'width': 410, 'height': 410, 'widthPercent': 0.45, 'rescaleHeight': False, 'trialN': 104, 'loaded': True, 'loadedTime': 2146.5999999046326, 'positionName': 'LEFT', 'positionCoords': [511.6, 395], 'bid': 1.1}, {'imgObject': {}, 'id': 'chickenfingers', 'src': '/static/foodstim60/chickenfingers.jpg', 'key': 'i', 'origWidth': 410, 'origHeight': 410, 'width': 410, 'height': 410, 'widthPercent': 0.45, 'rescaleHeight': False, 'trialN': 104, 'loaded': True, 'loadedTime': 2019.3999999761581, 'positionName': 'RIGHT', 'positionCoords': [998.4, 395], 'bid': 5.65}]",203980.5,1669830167710,shreddedwheatwithmilk,chickenfingers,1.1,5.65,4.550000000000001,chickenfingers,842.7999999523163,843,843.1999999284744,True,i,205340.69999992847,1360.1999999284744,1669830169070,1360,HRV,HRV_0098,2022-11-30 17:44:55
105,"[{'imgObject': {}, 'id': 'fried eggs', 'src': '/static/foodstim60/fried eggs.jpg', 'key': 'u', 'origWidth': 410, 'origHeight': 410, 'width': 410, 'height': 410, 'widthPercent': 0.45, 'rescaleHeight': False, 'trialN': 105, 'loaded': True, 'loadedTime': 2354.5999999046326, 'positionName': 'LEFT', 'positionCoords': [511.6, 395], 'bid': 1.03}, {'imgObject': {}, 'id': 'cheerios', 'src': '/static/foodstim60/cheerios.jpg', 'key': 'i', 'origWidth': 409, 'origHeight': 410, 'width': 409, 'height': 410, 'widthPercent': 0.45, 'rescaleHeight': False, 'trialN': 105, 'loaded': True, 'loadedTime': 2389.5999999046326, 'positionName': 'RIGHT', 'positionCoords': [998.4, 395], 'bid': 5.0200000000000005}]",205340.89999997616,1669830169070,fried eggs,cheerios,1.03,5.0200000000000005,3.99,cheerios,1149.8999999761581,1150,1150.1999999284744,True,i,207007.59999990463,1666.6999999284744,1669830170737,1667,HRV,HRV_0098,2022-11-30 17:44:55
106,"[{'imgObject': {}, 'id': 'corn cob', 'src': '/static/foodstim60/corn cob.jpg', 'key': 'u', 'origWidth': 411, 'origHeight': 411, 'width': 411, 'height': 411, 'widthPercent': 0.45, 'rescaleHeight': False, 'trialN': 106, 'loaded': True, 'loadedTime': 2411.1999999284744, 'positionName': 'LEFT', 'positionCoords': [510.6, 394.5], 'bid': 2.26}, {'imgObject': {}, 'id': 'orange slices', 'src': '/static/foodstim60/orange slices.jpg', 'key': 'i', 'origWidth': 409, 'origHeight': 410, 'width': 409, 'height': 410, 'widthPercent': 0.45, 'rescaleHeight': False, 'trialN': 106, 'loaded': True, 'loadedTime': 2315.1999999284744, 'positionName': 'RIGHT', 'positionCoords': [998.4, 395], 'bid': 2.26}]",207007.79999995232,1669830170737,corn cob,orange slices,2.26,2.26,0.0,orange slices,913.8999999761581,914,914.2999999523163,True,i,208430.59999990463,1422.7999999523163,1669830172160,1423,HRV,HRV_0098,2022-11-30 17:44:55
107,"[{'imgObject': {}, 'id': 'edamame', 'src': '/static/foodstim60/edamame.jpg', 'key': 'u', 'origWidth': 409, 'origHeight': 410, 'width': 409, 'height': 410, 'widthPercent': 0.45, 'rescaleHeight': False, 'trialN': 107, 'loaded': True, 'loadedTime': 2246.2999999523163, 'positionName': 'LEFT', 'positionCoords': [512.6, 395], 'bid': 0}, {'imgObject': {}, 'id': 'popsicles', 'src': '/static/foodstim60/popsicles.jpg', 'key': 'i', 'origWidth': 410, 'origHeight': 410, 'width': 410, 'height': 410, 'widthPercent': 0.45, 'rescaleHeight': False, 'trialN': 107, 'loaded': True, 'loadedTime': 2493.399999976158, 'positionName': 'RIGHT', 'positionCoords': [998.4, 395], 'bid': 0.4}]",208430.69999992847,1669830172160,edamame,popsicles,0.0,0.4,0.4,popsicles,769.6000000238419,770,769.8000000715256,True,i,209709.39999997616,1278.7000000476837,1669830173439,1279,HRV,HRV_0098,2022-11-30 17:44:55
108,"[{'imgObject': {}, 'id': 'salad w chicken', 'src': '/static/foodstim60/salad w chicken.jpg', 'key': 'u', 'origWidth': 411, 'origHeight': 411, 'width': 411, 'height': 411, 'widthPercent': 0.45, 'rescaleHeight': False, 'trialN': 108, 'loaded': True, 'loadedTime': 2289.899999976158, 'positionName': 'LEFT', 'positionCoords': [510.6, 394.5], 'bid': 6.96}, {'imgObject': {}, 'id': 'steak', 'src': '/static/foodstim60/steak.jpg', 'key': 'i', 'origWidth': 410, 'origHeight': 410, 'width': 410, 'height': 410, 'widthPercent': 0.45, 'rescaleHeight': False, 'trialN': 108, 'loaded': True, 'loadedTime': 2145.7999999523163, 'positionName': 'RIGHT', 'positionCoords': [998.4, 395], 'bid': 8.92}]",209709.59999990463,1669830173439,salad w chicken,steak,6.96,8.92,1.96,steak,1656.2000000476837,1656,1656.3000000715256,True,i,211879.19999992847,2169.600000023842,1669830175608,2169,HRV,HRV_0098,2022-11-30 17:44:55
