trialN,stimuli,trialStartTime,trialStartTime_UNIX,stimulus1,stimulus2,stimulus1Bid,stimulus2Bid,delta,selected,rt,rt_UNIX,rt_perfnow,receivedResponse,rsp,trialEndTime,trialDuration,trialEndTime_UNIX,trialDuration_UNIX,exp,subjectId,date
0,"[{'imgObject': {}, 'id': 'lox', 'src': '/static/foodstim60/lox.jpg', 'key': 'u', 'origWidth': 410, 'origHeight': 411, 'width': 410, 'height': 411, 'widthPercent': 0.45, 'rescaleHeight': False, 'trialN': 0, 'loaded': True, 'loadedTime': 4806.800000011921, 'positionName': 'LEFT', 'positionCoords': [204.4, 154.5], 'bid': 6.3100000000000005}, {'imgObject': {}, 'id': 'ice cream sundae 002', 'src': '/static/foodstim60/ice cream sundae 002.jpg', 'key': 'i', 'origWidth': 409, 'origHeight': 409, 'width': 409, 'height': 409, 'widthPercent': 0.45, 'rescaleHeight': False, 'trialN': 0, 'loaded': True, 'loadedTime': 5083.0999999940395, 'positionName': 'RIGHT', 'positionCoords': [665.6, 155.5], 'bid': 6.2}]",6360.699999988079,1669831087817,lox,ice cream sundae 002,6.3100000000000005,6.2,-0.11000000000000032,lox,853.8000000119209,856,856.1000000238419,True,u,7727.199999988079,1366.5,1669831089184,1367,HRV,HRV_0150,2022-11-30 18:03:43
1,"[{'imgObject': {}, 'id': 'orange slices', 'src': '/static/foodstim60/orange slices.jpg', 'key': 'u', 'origWidth': 409, 'origHeight': 410, 'width': 409, 'height': 410, 'widthPercent': 0.45, 'rescaleHeight': False, 'trialN': 1, 'loaded': True, 'loadedTime': 5090.0999999940395, 'positionName': 'LEFT', 'positionCoords': [205.4, 155], 'bid': 0.8200000000000001}, {'imgObject': {}, 'id': 'shreddedwheatwithmilk', 'src': '/static/foodstim60/shreddedwheatwithmilk.jpg', 'key': 'i', 'origWidth': 410, 'origHeight': 410, 'width': 410, 'height': 410, 'widthPercent': 0.45, 'rescaleHeight': False, 'trialN': 1, 'loaded': True, 'loadedTime': 5150.0999999940395, 'positionName': 'RIGHT', 'positionCoords': [665.6, 155], 'bid': 1.01}]",7728.4000000059605,1669831089185,orange slices,shreddedwheatwithmilk,0.8200000000000001,1.01,0.18999999999999995,orange slices,1374.0999999940395,1375,1375.5,True,u,9610.300000011921,1881.9000000059605,1669831091067,1882,HRV,HRV_0150,2022-11-30 18:03:43
2,"[{'imgObject': {}, 'id': 'orange slices', 'src': '/static/foodstim60/orange slices.jpg', 'key': 'u', 'origWidth': 409, 'origHeight': 410, 'width': 409, 'height': 410, 'widthPercent': 0.45, 'rescaleHeight': False, 'trialN': 2, 'loaded': True, 'loadedTime': 5089.5999999940395, 'positionName': 'LEFT', 'positionCoords': [205.4, 155], 'bid': 0.8200000000000001}, {'imgObject': {}, 'id': 'omelette', 'src': '/static/foodstim60/omelette.jpg', 'key': 'i', 'origWidth': 410, 'origHeight': 409, 'width': 410, 'height': 409, 'widthPercent': 0.45, 'rescaleHeight': False, 'trialN': 2, 'loaded': True, 'loadedTime': 5197.5, 'positionName': 'RIGHT', 'positionCoords': [665.6, 155.5], 'bid': 0.32}]",9610.800000011921,1669831091067,orange slices,omelette,0.8200000000000001,0.32,-0.5,orange slices,713,715,714.1999999880791,True,u,10844.40000000596,1233.5999999940395,1669831092301,1234,HRV,HRV_0150,2022-11-30 18:03:43
3,"[{'imgObject': {}, 'id': 'baked potato', 'src': '/static/foodstim60/baked potato.jpg', 'key': 'u', 'origWidth': 409, 'origHeight': 410, 'width': 409, 'height': 410, 'widthPercent': 0.45, 'rescaleHeight': False, 'trialN': 3, 'loaded': True, 'loadedTime': 5255.0999999940395, 'positionName': 'LEFT', 'positionCoords': [205.4, 155], 'bid': 0.53}, {'imgObject': {}, 'id': 'raisin bran w milk', 'src': '/static/foodstim60/raisin bran w milk.jpg', 'key': 'i', 'origWidth': 411, 'origHeight': 411, 'width': 411, 'height': 411, 'widthPercent': 0.45, 'rescaleHeight': False, 'trialN': 3, 'loaded': True, 'loadedTime': 5318.4000000059605, 'positionName': 'RIGHT', 'positionCoords': [665.6, 154.5], 'bid': 1.64}]",10844.800000011921,1669831092301,baked potato,raisin bran w milk,0.53,1.64,1.1099999999999999,baked potato,1326.0999999940395,1328,1327.5,True,u,12684.0,1839.199999988079,1669831094141,1840,HRV,HRV_0150,2022-11-30 18:03:43
4,"[{'imgObject': {}, 'id': 'chickenfingers', 'src': '/static/foodstim60/chickenfingers.jpg', 'key': 'u', 'origWidth': 410, 'origHeight': 410, 'width': 410, 'height': 410, 'widthPercent': 0.45, 'rescaleHeight': False, 'trialN': 4, 'loaded': True, 'loadedTime': 5327.4000000059605, 'positionName': 'LEFT', 'positionCoords': [204.4, 155], 'bid': 9.7}, {'imgObject': {}, 'id': 'salad w chicken', 'src': '/static/foodstim60/salad w chicken.jpg', 'key': 'i', 'origWidth': 411, 'origHeight': 411, 'width': 411, 'height': 411, 'widthPercent': 0.45, 'rescaleHeight': False, 'trialN': 4, 'loaded': True, 'loadedTime': 5441.4000000059605, 'positionName': 'RIGHT', 'positionCoords': [665.6, 154.5], 'bid': 9.71}]",12684.40000000596,1669831094141,chickenfingers,salad w chicken,9.7,9.71,0.010000000000001563,salad w chicken,652.9000000059605,654,654.0,True,i,13852.300000011921,1167.9000000059605,1669831095309,1168,HRV,HRV_0150,2022-11-30 18:03:43
5,"[{'imgObject': {}, 'id': 'avocado', 'src': '/static/foodstim60/avocado.jpg', 'key': 'u', 'origWidth': 409, 'origHeight': 409, 'width': 409, 'height': 409, 'widthPercent': 0.45, 'rescaleHeight': False, 'trialN': 5, 'loaded': True, 'loadedTime': 5507, 'positionName': 'LEFT', 'positionCoords': [205.4, 155.5], 'bid': 7.54}, {'imgObject': {}, 'id': 'veggieswithdip', 'src': '/static/foodstim60/veggieswithdip.jpg', 'key': 'i', 'origWidth': 409, 'origHeight': 409, 'width': 409, 'height': 409, 'widthPercent': 0.45, 'rescaleHeight': False, 'trialN': 5, 'loaded': True, 'loadedTime': 5511.300000011921, 'positionName': 'RIGHT', 'positionCoords': [665.6, 155.5], 'bid': 7.43}]",13852.90000000596,1669831095309,avocado,veggieswithdip,7.54,7.43,-0.11000000000000032,veggieswithdip,1316,1318,1317.2999999821186,True,i,15680.59999999404,1827.699999988079,1669831097137,1828,HRV,HRV_0150,2022-11-30 18:03:43
6,"[{'imgObject': {}, 'id': 'salad w chicken', 'src': '/static/foodstim60/salad w chicken.jpg', 'key': 'u', 'origWidth': 411, 'origHeight': 411, 'width': 411, 'height': 411, 'widthPercent': 0.45, 'rescaleHeight': False, 'trialN': 6, 'loaded': True, 'loadedTime': 5435.5999999940395, 'positionName': 'LEFT', 'positionCoords': [203.4, 154.5], 'bid': 9.71}, {'imgObject': {}, 'id': 'turkey sandwich', 'src': '/static/foodstim60/turkey sandwich.jpg', 'key': 'i', 'origWidth': 409, 'origHeight': 409, 'width': 409, 'height': 409, 'widthPercent': 0.45, 'rescaleHeight': False, 'trialN': 6, 'loaded': True, 'loadedTime': 5566.300000011921, 'positionName': 'RIGHT', 'positionCoords': [665.6, 155.5], 'bid': 6.78}]",15681.199999988079,1669831097138,salad w chicken,turkey sandwich,9.71,6.78,-2.9300000000000006,salad w chicken,1186,1188,1187.9000000059605,True,u,17384.90000000596,1703.7000000178814,1669831098842,1704,HRV,HRV_0150,2022-11-30 18:03:43
7,"[{'imgObject': {}, 'id': 'mac & cheese', 'src': '/static/foodstim60/mac & cheese.jpg', 'key': 'u', 'origWidth': 410, 'origHeight': 410, 'width': 410, 'height': 410, 'widthPercent': 0.45, 'rescaleHeight': False, 'trialN': 7, 'loaded': True, 'loadedTime': 5629.0999999940395, 'positionName': 'LEFT', 'positionCoords': [204.4, 155], 'bid': 6.76}, {'imgObject': {}, 'id': 'chickenfingers', 'src': '/static/foodstim60/chickenfingers.jpg', 'key': 'i', 'origWidth': 410, 'origHeight': 410, 'width': 410, 'height': 410, 'widthPercent': 0.45, 'rescaleHeight': False, 'trialN': 7, 'loaded': True, 'loadedTime': 5326.699999988079, 'positionName': 'RIGHT', 'positionCoords': [665.6, 155], 'bid': 9.7}]",17385.40000000596,1669831098842,mac & cheese,chickenfingers,6.76,9.7,2.9399999999999995,chickenfingers,892.2999999821186,894,893.5,True,i,18798.69999998808,1413.2999999821186,1669831100255,1413,HRV,HRV_0150,2022-11-30 18:03:43
8,"[{'imgObject': {}, 'id': 'salad w chicken', 'src': '/static/foodstim60/salad w chicken.jpg', 'key': 'u', 'origWidth': 411, 'origHeight': 411, 'width': 411, 'height': 411, 'widthPercent': 0.45, 'rescaleHeight': False, 'trialN': 8, 'loaded': True, 'loadedTime': 5441.5999999940395, 'positionName': 'LEFT', 'positionCoords': [203.4, 154.5], 'bid': 9.71}, {'imgObject': {}, 'id': 'sushi w_condiments', 'src': '/static/foodstim60/sushi w_condiments.jpg', 'key': 'i', 'origWidth': 410, 'origHeight': 410, 'width': 410, 'height': 410, 'widthPercent': 0.45, 'rescaleHeight': False, 'trialN': 8, 'loaded': True, 'loadedTime': 5690.0999999940395, 'positionName': 'RIGHT', 'positionCoords': [665.6, 155], 'bid': 7.87}]",18799.19999998808,1669831100256,salad w chicken,sushi w_condiments,9.71,7.87,-1.8400000000000007,salad w chicken,760.7000000178814,762,762.1000000238419,True,u,20073.69999998808,1274.5,1669831101530,1274,HRV,HRV_0150,2022-11-30 18:03:43
9,"[{'imgObject': {}, 'id': 'burrito', 'src': '/static/foodstim60/burrito.jpg', 'key': 'u', 'origWidth': 410, 'origHeight': 410, 'width': 410, 'height': 410, 'widthPercent': 0.45, 'rescaleHeight': False, 'trialN': 9, 'loaded': True, 'loadedTime': 5691, 'positionName': 'LEFT', 'positionCoords': [204.4, 155], 'bid': 7.32}, {'imgObject': {}, 'id': 'mango', 'src': '/static/foodstim60/mango.jpg', 'key': 'i', 'origWidth': 411, 'origHeight': 411, 'width': 411, 'height': 411, 'widthPercent': 0.45, 'rescaleHeight': False, 'trialN': 9, 'loaded': True, 'loadedTime': 5804.9000000059605, 'positionName': 'RIGHT', 'positionCoords': [665.6, 154.5], 'bid': 7.26}]",20074.19999998808,1669831101531,burrito,mango,7.32,7.26,-0.0600000000000005,burrito,1413.2000000178814,1416,1416.1000000238419,True,u,22005.69999998808,1931.5,1669831103462,1931,HRV,HRV_0150,2022-11-30 18:03:43
10,"[{'imgObject': {}, 'id': 'orange slices', 'src': '/static/foodstim60/orange slices.jpg', 'key': 'u', 'origWidth': 409, 'origHeight': 410, 'width': 409, 'height': 410, 'widthPercent': 0.45, 'rescaleHeight': False, 'trialN': 10, 'loaded': True, 'loadedTime': 5143.5999999940395, 'positionName': 'LEFT', 'positionCoords': [205.4, 155], 'bid': 0.8200000000000001}, {'imgObject': {}, 'id': 'burger', 'src': '/static/foodstim60/burger.jpg', 'key': 'i', 'origWidth': 409, 'origHeight': 409, 'width': 409, 'height': 409, 'widthPercent': 0.45, 'rescaleHeight': False, 'trialN': 10, 'loaded': True, 'loadedTime': 5807.4000000059605, 'positionName': 'RIGHT', 'positionCoords': [665.6, 155.5], 'bid': 3.5}]",22006.19999998808,1669831103463,orange slices,burger,0.8200000000000001,3.5,2.6799999999999997,orange slices,2135.100000023842,2136,2136.4000000059605,True,u,24659.09999999404,2652.9000000059605,1669831106116,2653,HRV,HRV_0150,2022-11-30 18:03:43
11,"[{'imgObject': {}, 'id': 'hashbrowns', 'src': '/static/foodstim60/hashbrowns.jpg', 'key': 'u', 'origWidth': 411, 'origHeight': 410, 'width': 411, 'height': 410, 'widthPercent': 0.45, 'rescaleHeight': False, 'trialN': 11, 'loaded': True, 'loadedTime': 5808.300000011921, 'positionName': 'LEFT', 'positionCoords': [203.4, 155], 'bid': 0.35}, {'imgObject': {}, 'id': 'rigatoni', 'src': '/static/foodstim60/rigatoni.jpg', 'key': 'i', 'origWidth': 411, 'origHeight': 411, 'width': 411, 'height': 411, 'widthPercent': 0.45, 'rescaleHeight': False, 'trialN': 11, 'loaded': True, 'loadedTime': 5908.699999988079, 'positionName': 'RIGHT', 'positionCoords': [665.6, 154.5], 'bid': 0.92}]",24659.5,1669831106116,hashbrowns,rigatoni,0.35,0.92,0.5700000000000001,rigatoni,1637.0999999940395,1639,1638.5,True,i,26800.69999998808,2141.199999988079,1669831108257,2141,HRV,HRV_0150,2022-11-30 18:03:43
12,"[{'imgObject': {}, 'id': 'eggsalad', 'src': '/static/foodstim60/eggsalad.jpg', 'key': 'u', 'origWidth': 410, 'origHeight': 409, 'width': 410, 'height': 409, 'widthPercent': 0.45, 'rescaleHeight': False, 'trialN': 12, 'loaded': True, 'loadedTime': 5914.9000000059605, 'positionName': 'LEFT', 'positionCoords': [204.4, 155.5], 'bid': 0.46}, {'imgObject': {}, 'id': 'blackbeanswithrice', 'src': '/static/foodstim60/blackbeanswithrice.jpg', 'key': 'i', 'origWidth': 410, 'origHeight': 410, 'width': 410, 'height': 410, 'widthPercent': 0.45, 'rescaleHeight': False, 'trialN': 12, 'loaded': True, 'loadedTime': 5927.699999988079, 'positionName': 'RIGHT', 'positionCoords': [665.6, 155], 'bid': 6.0600000000000005}]",26801.09999999404,1669831108258,eggsalad,blackbeanswithrice,0.46,6.0600000000000005,5.6000000000000005,blackbeanswithrice,1193.7000000178814,1195,1195.2000000178814,True,i,28506.5,1705.4000000059605,1669831109963,1705,HRV,HRV_0150,2022-11-30 18:03:43
13,"[{'imgObject': {}, 'id': 'cheerios', 'src': '/static/foodstim60/cheerios.jpg', 'key': 'u', 'origWidth': 409, 'origHeight': 410, 'width': 409, 'height': 410, 'widthPercent': 0.45, 'rescaleHeight': False, 'trialN': 13, 'loaded': True, 'loadedTime': 5944.800000011921, 'positionName': 'LEFT', 'positionCoords': [205.4, 155], 'bid': 1.78}, {'imgObject': {}, 'id': 'raisin bran w milk', 'src': '/static/foodstim60/raisin bran w milk.jpg', 'key': 'i', 'origWidth': 411, 'origHeight': 411, 'width': 411, 'height': 411, 'widthPercent': 0.45, 'rescaleHeight': False, 'trialN': 13, 'loaded': True, 'loadedTime': 5319, 'positionName': 'RIGHT', 'positionCoords': [665.6, 154.5], 'bid': 1.64}]",28507.09999999404,1669831109964,cheerios,raisin bran w milk,1.78,1.64,-0.14000000000000012,cheerios,1413.0999999940395,1416,1416.0,True,u,30447.30000001192,1940.2000000178814,1669831111904,1940,HRV,HRV_0150,2022-11-30 18:03:43
14,"[{'imgObject': {}, 'id': 'grilled chicken strips', 'src': '/static/foodstim60/grilled chicken strips.jpg', 'key': 'u', 'origWidth': 410, 'origHeight': 411, 'width': 410, 'height': 411, 'widthPercent': 0.45, 'rescaleHeight': False, 'trialN': 14, 'loaded': True, 'loadedTime': 5947.9000000059605, 'positionName': 'LEFT', 'positionCoords': [204.4, 154.5], 'bid': 9.5}, {'imgObject': {}, 'id': 'olives', 'src': '/static/foodstim60/olives.jpg', 'key': 'i', 'origWidth': 410, 'origHeight': 410, 'width': 410, 'height': 410, 'widthPercent': 0.45, 'rescaleHeight': False, 'trialN': 14, 'loaded': True, 'loadedTime': 5991.699999988079, 'positionName': 'RIGHT', 'positionCoords': [665.6, 155], 'bid': 6.5600000000000005}]",30447.69999998808,1669831111904,grilled chicken strips,olives,9.5,6.5600000000000005,-2.9399999999999995,grilled chicken strips,1345.9000000059605,1349,1348.300000011921,True,u,32312.80000001192,1865.1000000238419,1669831113769,1865,HRV,HRV_0150,2022-11-30 18:03:43
15,"[{'imgObject': {}, 'id': 'cherry tomato', 'src': '/static/foodstim60/cherry tomato.jpg', 'key': 'u', 'origWidth': 410, 'origHeight': 410, 'width': 410, 'height': 410, 'widthPercent': 0.45, 'rescaleHeight': False, 'trialN': 15, 'loaded': True, 'loadedTime': 5993.800000011921, 'positionName': 'LEFT', 'positionCoords': [204.4, 155], 'bid': 0.31}, {'imgObject': {}, 'id': 'omelette', 'src': '/static/foodstim60/omelette.jpg', 'key': 'i', 'origWidth': 410, 'origHeight': 409, 'width': 410, 'height': 409, 'widthPercent': 0.45, 'rescaleHeight': False, 'trialN': 15, 'loaded': True, 'loadedTime': 5197.5999999940395, 'positionName': 'RIGHT', 'positionCoords': [665.6, 155.5], 'bid': 0.32}]",32313.40000000596,1669831113770,cherry tomato,omelette,0.31,0.32,0.010000000000000009,omelette,1636.5,1638,1638.2999999821186,True,i,34457.0,2143.5999999940395,1669831115913,2143,HRV,HRV_0150,2022-11-30 18:03:43
16,"[{'imgObject': {}, 'id': 'burrito', 'src': '/static/foodstim60/burrito.jpg', 'key': 'u', 'origWidth': 410, 'origHeight': 410, 'width': 410, 'height': 410, 'widthPercent': 0.45, 'rescaleHeight': False, 'trialN': 16, 'loaded': True, 'loadedTime': 5694.4000000059605, 'positionName': 'LEFT', 'positionCoords': [204.4, 155], 'bid': 7.32}, {'imgObject': {}, 'id': 'olives', 'src': '/static/foodstim60/olives.jpg', 'key': 'i', 'origWidth': 410, 'origHeight': 410, 'width': 410, 'height': 410, 'widthPercent': 0.45, 'rescaleHeight': False, 'trialN': 16, 'loaded': True, 'loadedTime': 5991.9000000059605, 'positionName': 'RIGHT', 'positionCoords': [665.6, 155], 'bid': 6.5600000000000005}]",34457.59999999404,1669831115914,burrito,olives,7.32,6.5600000000000005,-0.7599999999999998,burrito,1534.4000000059605,1538,1537.7000000178814,True,u,36505.80000001192,2048.2000000178814,1669831117962,2048,HRV,HRV_0150,2022-11-30 18:03:43
17,"[{'imgObject': {}, 'id': 'baked potato', 'src': '/static/foodstim60/baked potato.jpg', 'key': 'u', 'origWidth': 409, 'origHeight': 410, 'width': 409, 'height': 410, 'widthPercent': 0.45, 'rescaleHeight': False, 'trialN': 17, 'loaded': True, 'loadedTime': 5253.9000000059605, 'positionName': 'LEFT', 'positionCoords': [205.4, 155], 'bid': 0.53}, {'imgObject': {}, 'id': 'eggsalad', 'src': '/static/foodstim60/eggsalad.jpg', 'key': 'i', 'origWidth': 410, 'origHeight': 409, 'width': 410, 'height': 409, 'widthPercent': 0.45, 'rescaleHeight': False, 'trialN': 17, 'loaded': True, 'loadedTime': 5911.4000000059605, 'positionName': 'RIGHT', 'positionCoords': [665.6, 155.5], 'bid': 0.46}]",36506.40000000596,1669831117963,baked potato,eggsalad,0.53,0.46,-0.07,baked potato,1908.0999999940395,1910,1910.199999988079,True,u,38933.0,2426.5999999940395,1669831120389,2426,HRV,HRV_0150,2022-11-30 18:03:43
18,"[{'imgObject': {}, 'id': 'strawberries', 'src': '/static/foodstim60/strawberries.jpg', 'key': 'u', 'origWidth': 410, 'origHeight': 410, 'width': 410, 'height': 410, 'widthPercent': 0.45, 'rescaleHeight': False, 'trialN': 18, 'loaded': True, 'loadedTime': 5994.5, 'positionName': 'LEFT', 'positionCoords': [204.4, 155], 'bid': 7.34}, {'imgObject': {}, 'id': 'bagel plain', 'src': '/static/foodstim60/bagel plain.jpg', 'key': 'i', 'origWidth': 410, 'origHeight': 410, 'width': 410, 'height': 410, 'widthPercent': 0.45, 'rescaleHeight': False, 'trialN': 18, 'loaded': True, 'loadedTime': 6062.199999988079, 'positionName': 'RIGHT', 'positionCoords': [665.6, 155], 'bid': 4.15}]",38933.40000000596,1669831120390,strawberries,bagel plain,7.34,4.15,-3.1899999999999995,strawberries,1060.0999999940395,1062,1062.0,True,u,40512.0,1578.5999999940395,1669831121968,1578,HRV,HRV_0150,2022-11-30 18:03:43
19,"[{'imgObject': {}, 'id': 'burger', 'src': '/static/foodstim60/burger.jpg', 'key': 'u', 'origWidth': 409, 'origHeight': 409, 'width': 409, 'height': 409, 'widthPercent': 0.45, 'rescaleHeight': False, 'trialN': 19, 'loaded': True, 'loadedTime': 5807.699999988079, 'positionName': 'LEFT', 'positionCoords': [205.4, 155.5], 'bid': 3.5}, {'imgObject': {}, 'id': 'raspberries', 'src': '/static/foodstim60/raspberries.jpg', 'key': 'i', 'origWidth': 411, 'origHeight': 411, 'width': 411, 'height': 411, 'widthPercent': 0.45, 'rescaleHeight': False, 'trialN': 19, 'loaded': True, 'loadedTime': 6122.5, 'positionName': 'RIGHT', 'positionCoords': [665.6, 154.5], 'bid': 3.81}]",40512.40000000596,1669831121969,burger,raspberries,3.5,3.81,0.31000000000000005,burger,1999.0999999940395,2001,2001.4000000059605,True,u,43017.0,2504.5999999940395,1669831124473,2504,HRV,HRV_0150,2022-11-30 18:03:43
20,"[{'imgObject': {}, 'id': 'roastedpotatoes', 'src': '/static/foodstim60/roastedpotatoes.jpg', 'key': 'u', 'origWidth': 409, 'origHeight': 410, 'width': 409, 'height': 410, 'widthPercent': 0.45, 'rescaleHeight': False, 'trialN': 20, 'loaded': True, 'loadedTime': 6128.5999999940395, 'positionName': 'LEFT', 'positionCoords': [205.4, 155], 'bid': 1.75}, {'imgObject': {}, 'id': 'strawberries', 'src': '/static/foodstim60/strawberries.jpg', 'key': 'i', 'origWidth': 410, 'origHeight': 410, 'width': 410, 'height': 410, 'widthPercent': 0.45, 'rescaleHeight': False, 'trialN': 20, 'loaded': True, 'loadedTime': 6059.300000011921, 'positionName': 'RIGHT', 'positionCoords': [665.6, 155], 'bid': 7.34}]",43017.40000000596,1669831124474,roastedpotatoes,strawberries,1.75,7.34,5.59,strawberries,1616.0999999940395,1619,1619.0999999940395,True,i,45149.80000001192,2132.4000000059605,1669831126606,2132,HRV,HRV_0150,2022-11-30 18:03:43
21,"[{'imgObject': {}, 'id': 'rigatoni and sauce', 'src': '/static/foodstim60/rigatoni and sauce.jpg', 'key': 'u', 'origWidth': 410, 'origHeight': 411, 'width': 410, 'height': 411, 'widthPercent': 0.45, 'rescaleHeight': False, 'trialN': 21, 'loaded': True, 'loadedTime': 6131.199999988079, 'positionName': 'LEFT', 'positionCoords': [204.4, 154.5], 'bid': 6.48}, {'imgObject': {}, 'id': 'cherries', 'src': '/static/foodstim60/cherries.jpg', 'key': 'i', 'origWidth': 410, 'origHeight': 411, 'width': 410, 'height': 411, 'widthPercent': 0.45, 'rescaleHeight': False, 'trialN': 21, 'loaded': True, 'loadedTime': 4942.0999999940395, 'positionName': 'RIGHT', 'positionCoords': [665.6, 154.5], 'bid': 6.62}]",45150.09999999404,1669831126607,rigatoni and sauce,cherries,6.48,6.62,0.13999999999999968,cherries,1293,1295,1295.300000011921,True,i,46953.0,1802.9000000059605,1669831128409,1802,HRV,HRV_0150,2022-11-30 18:03:43
22,"[{'imgObject': {}, 'id': 'fried eggs', 'src': '/static/foodstim60/fried eggs.jpg', 'key': 'u', 'origWidth': 410, 'origHeight': 410, 'width': 410, 'height': 410, 'widthPercent': 0.45, 'rescaleHeight': False, 'trialN': 22, 'loaded': True, 'loadedTime': 4947.9000000059605, 'positionName': 'LEFT', 'positionCoords': [204.4, 155], 'bid': 0.53}, {'imgObject': {}, 'id': 'corn cob', 'src': '/static/foodstim60/corn cob.jpg', 'key': 'i', 'origWidth': 411, 'origHeight': 411, 'width': 411, 'height': 411, 'widthPercent': 0.45, 'rescaleHeight': False, 'trialN': 22, 'loaded': True, 'loadedTime': 5019.4000000059605, 'positionName': 'RIGHT', 'positionCoords': [665.6, 154.5], 'bid': 2.37}]",46953.30000001192,1669831128410,fried eggs,corn cob,0.53,2.37,1.84,corn cob,1533.199999988079,1535,1535.699999988079,True,i,48997.09999999404,2043.7999999821186,1669831130453,2043,HRV,HRV_0150,2022-11-30 18:03:43
23,"[{'imgObject': {}, 'id': 'yogurt no spoon', 'src': '/static/foodstim60/yogurt no spoon.jpg', 'key': 'u', 'origWidth': 411, 'origHeight': 410, 'width': 411, 'height': 410, 'widthPercent': 0.45, 'rescaleHeight': False, 'trialN': 23, 'loaded': True, 'loadedTime': 5382.300000011921, 'positionName': 'LEFT', 'positionCoords': [203.4, 155], 'bid': 1.43}, {'imgObject': {}, 'id': 'cherry tomato', 'src': '/static/foodstim60/cherry tomato.jpg', 'key': 'i', 'origWidth': 410, 'origHeight': 410, 'width': 410, 'height': 410, 'widthPercent': 0.45, 'rescaleHeight': False, 'trialN': 23, 'loaded': True, 'loadedTime': 5993.9000000059605, 'positionName': 'RIGHT', 'positionCoords': [665.6, 155], 'bid': 0.31}]",48997.5,1669831130454,yogurt no spoon,cherry tomato,1.43,0.31,-1.1199999999999999,yogurt no spoon,2390,2394,2393.699999988079,True,u,51907.5,2910.0,1669831133364,2910,HRV,HRV_0150,2022-11-30 18:03:43
24,"[{'imgObject': {}, 'id': 'sweetpotato', 'src': '/static/foodstim60/sweetpotato.jpg', 'key': 'u', 'origWidth': 410, 'origHeight': 410, 'width': 410, 'height': 410, 'widthPercent': 0.45, 'rescaleHeight': False, 'trialN': 24, 'loaded': True, 'loadedTime': 5572.800000011921, 'positionName': 'LEFT', 'positionCoords': [204.4, 155], 'bid': 0.32}, {'imgObject': {}, 'id': 'seaweed', 'src': '/static/foodstim60/seaweed.jpg', 'key': 'i', 'origWidth': 410, 'origHeight': 410, 'width': 410, 'height': 410, 'widthPercent': 0.45, 'rescaleHeight': False, 'trialN': 24, 'loaded': True, 'loadedTime': 5686.9000000059605, 'positionName': 'RIGHT', 'positionCoords': [665.6, 155], 'bid': 0.12}]",51907.90000000596,1669831133364,sweetpotato,seaweed,0.32,0.12,-0.2,sweetpotato,982.4000000059605,984,983.9000000059605,True,u,53401.5,1493.5999999940395,1669831134858,1494,HRV,HRV_0150,2022-11-30 18:03:43
25,"[{'imgObject': {}, 'id': 'blueberries', 'src': '/static/foodstim60/blueberries.jpg', 'key': 'u', 'origWidth': 411, 'origHeight': 411, 'width': 411, 'height': 411, 'widthPercent': 0.45, 'rescaleHeight': False, 'trialN': 25, 'loaded': True, 'loadedTime': 5754.699999988079, 'positionName': 'LEFT', 'positionCoords': [203.4, 154.5], 'bid': 2.93}, {'imgObject': {}, 'id': 'fruitsalad', 'src': '/static/foodstim60/fruitsalad.jpg', 'key': 'i', 'origWidth': 410, 'origHeight': 410, 'width': 410, 'height': 410, 'widthPercent': 0.45, 'rescaleHeight': False, 'trialN': 25, 'loaded': True, 'loadedTime': 6063.699999988079, 'positionName': 'RIGHT', 'positionCoords': [665.6, 155], 'bid': 3.96}]",53401.80000001192,1669831134858,blueberries,fruitsalad,2.93,3.96,1.0299999999999998,fruitsalad,1168,1171,1170.7999999821186,True,i,55086.09999999404,1684.2999999821186,1669831136542,1684,HRV,HRV_0150,2022-11-30 18:03:43
26,"[{'imgObject': {}, 'id': 'hotdog w must', 'src': '/static/foodstim60/hotdog w must.jpg', 'key': 'u', 'origWidth': 409, 'origHeight': 409, 'width': 409, 'height': 409, 'widthPercent': 0.45, 'rescaleHeight': False, 'trialN': 26, 'loaded': True, 'loadedTime': 6124.9000000059605, 'positionName': 'LEFT', 'positionCoords': [205.4, 155.5], 'bid': 0.68}, {'imgObject': {}, 'id': 'turkeysandwich', 'src': '/static/foodstim60/turkeysandwich.jpg', 'key': 'i', 'origWidth': 409, 'origHeight': 409, 'width': 409, 'height': 409, 'widthPercent': 0.45, 'rescaleHeight': False, 'trialN': 26, 'loaded': True, 'loadedTime': 6136.199999988079, 'positionName': 'RIGHT', 'positionCoords': [665.6, 155.5], 'bid': 6.43}]",55086.5,1669831136543,hotdog w must,turkeysandwich,0.68,6.43,5.75,turkeysandwich,1013.4000000059605,1017,1016.5999999940395,True,i,56611.80000001192,1525.300000011921,1669831138068,1525,HRV,HRV_0150,2022-11-30 18:03:43
27,"[{'imgObject': {}, 'id': 'chickenfingers', 'src': '/static/foodstim60/chickenfingers.jpg', 'key': 'u', 'origWidth': 410, 'origHeight': 410, 'width': 410, 'height': 410, 'widthPercent': 0.45, 'rescaleHeight': False, 'trialN': 27, 'loaded': True, 'loadedTime': 5327.5999999940395, 'positionName': 'LEFT', 'positionCoords': [204.4, 155], 'bid': 9.7}, {'imgObject': {}, 'id': 'grilled chicken strips', 'src': '/static/foodstim60/grilled chicken strips.jpg', 'key': 'i', 'origWidth': 410, 'origHeight': 411, 'width': 410, 'height': 411, 'widthPercent': 0.45, 'rescaleHeight': False, 'trialN': 27, 'loaded': True, 'loadedTime': 5989.4000000059605, 'positionName': 'RIGHT', 'positionCoords': [665.6, 154.5], 'bid': 9.5}]",56612.09999999404,1669831138069,chickenfingers,grilled chicken strips,9.7,9.5,-0.1999999999999993,chickenfingers,1377.5999999940395,1380,1380.5,True,u,58504.5,1892.4000000059605,1669831139961,1892,HRV,HRV_0150,2022-11-30 18:03:43
28,"[{'imgObject': {}, 'id': 'luckycharms', 'src': '/static/foodstim60/luckycharms.jpg', 'key': 'u', 'origWidth': 410, 'origHeight': 409, 'width': 410, 'height': 409, 'widthPercent': 0.45, 'rescaleHeight': False, 'trialN': 28, 'loaded': True, 'loadedTime': 6137.5, 'positionName': 'LEFT', 'positionCoords': [204.4, 155.5], 'bid': 0.51}, {'imgObject': {}, 'id': 'hashbrowns', 'src': '/static/foodstim60/hashbrowns.jpg', 'key': 'i', 'origWidth': 411, 'origHeight': 410, 'width': 411, 'height': 410, 'widthPercent': 0.45, 'rescaleHeight': False, 'trialN': 28, 'loaded': True, 'loadedTime': 5901.0999999940395, 'positionName': 'RIGHT', 'positionCoords': [665.6, 155], 'bid': 0.35}]",58505.30000001192,1669831139962,luckycharms,hashbrowns,0.51,0.35,-0.16000000000000003,luckycharms,1524,1525,1524.7999999821186,True,u,60547.0,2041.699999988079,1669831142003,2041,HRV,HRV_0150,2022-11-30 18:03:43
29,"[{'imgObject': {}, 'id': 'shreddedwheatwithmilk', 'src': '/static/foodstim60/shreddedwheatwithmilk.jpg', 'key': 'u', 'origWidth': 410, 'origHeight': 410, 'width': 410, 'height': 410, 'widthPercent': 0.45, 'rescaleHeight': False, 'trialN': 29, 'loaded': True, 'loadedTime': 5151.0999999940395, 'positionName': 'LEFT', 'positionCoords': [204.4, 155], 'bid': 1.01}, {'imgObject': {}, 'id': 'tacos', 'src': '/static/foodstim60/tacos.jpg', 'key': 'i', 'origWidth': 411, 'origHeight': 411, 'width': 411, 'height': 411, 'widthPercent': 0.45, 'rescaleHeight': False, 'trialN': 29, 'loaded': True, 'loadedTime': 6145.5999999940395, 'positionName': 'RIGHT', 'positionCoords': [665.6, 154.5], 'bid': 7.03}]",60547.40000000596,1669831142004,shreddedwheatwithmilk,tacos,1.01,7.03,6.0200000000000005,tacos,799.7999999821186,801,801.2999999821186,True,i,61856.80000001192,1309.4000000059605,1669831143313,1309,HRV,HRV_0150,2022-11-30 18:03:43
30,"[{'imgObject': {}, 'id': 'grilled chicken strips', 'src': '/static/foodstim60/grilled chicken strips.jpg', 'key': 'u', 'origWidth': 410, 'origHeight': 411, 'width': 410, 'height': 411, 'widthPercent': 0.45, 'rescaleHeight': False, 'trialN': 30, 'loaded': True, 'loadedTime': 5989.9000000059605, 'positionName': 'LEFT', 'positionCoords': [204.4, 154.5], 'bid': 9.5}, {'imgObject': {}, 'id': 'kiwi', 'src': '/static/foodstim60/kiwi.jpg', 'key': 'i', 'origWidth': 410, 'origHeight': 410, 'width': 410, 'height': 410, 'widthPercent': 0.45, 'rescaleHeight': False, 'trialN': 30, 'loaded': True, 'loadedTime': 6147.0999999940395, 'positionName': 'RIGHT', 'positionCoords': [665.6, 155], 'bid': 3.15}]",61857.19999998808,1669831143314,grilled chicken strips,kiwi,9.5,3.15,-6.35,grilled chicken strips,749.2000000178814,752,752.0,True,u,63122.5,1265.300000011921,1669831144579,1265,HRV,HRV_0150,2022-11-30 18:03:43
31,"[{'imgObject': {}, 'id': 'bagel plain', 'src': '/static/foodstim60/bagel plain.jpg', 'key': 'u', 'origWidth': 410, 'origHeight': 410, 'width': 410, 'height': 410, 'widthPercent': 0.45, 'rescaleHeight': False, 'trialN': 31, 'loaded': True, 'loadedTime': 6063.300000011921, 'positionName': 'LEFT', 'positionCoords': [204.4, 155], 'bid': 4.15}, {'imgObject': {}, 'id': 'omelette', 'src': '/static/foodstim60/omelette.jpg', 'key': 'i', 'origWidth': 410, 'origHeight': 409, 'width': 410, 'height': 409, 'widthPercent': 0.45, 'rescaleHeight': False, 'trialN': 31, 'loaded': True, 'loadedTime': 5195.800000011921, 'positionName': 'RIGHT', 'positionCoords': [665.6, 155.5], 'bid': 0.32}]",63122.90000000596,1669831144579,bagel plain,omelette,4.15,0.32,-3.8300000000000005,bagel plain,856.7999999821186,859,858.4000000059605,True,u,64499.19999998808,1376.2999999821186,1669831145956,1377,HRV,HRV_0150,2022-11-30 18:03:43
32,"[{'imgObject': {}, 'id': 'bagel and cc', 'src': '/static/foodstim60/bagel and cc.jpg', 'key': 'u', 'origWidth': 410, 'origHeight': 410, 'width': 410, 'height': 410, 'widthPercent': 0.45, 'rescaleHeight': False, 'trialN': 32, 'loaded': True, 'loadedTime': 6209.800000011921, 'positionName': 'LEFT', 'positionCoords': [204.4, 155], 'bid': 6.04}, {'imgObject': {}, 'id': 'burger', 'src': '/static/foodstim60/burger.jpg', 'key': 'i', 'origWidth': 409, 'origHeight': 409, 'width': 409, 'height': 409, 'widthPercent': 0.45, 'rescaleHeight': False, 'trialN': 32, 'loaded': True, 'loadedTime': 5808.0999999940395, 'positionName': 'RIGHT', 'positionCoords': [665.6, 155.5], 'bid': 3.5}]",64499.69999998808,1669831145956,bagel and cc,burger,6.04,3.5,-2.54,bagel and cc,1192.2000000178814,1194,1194.1000000238419,True,u,66211.5,1711.800000011921,1669831147668,1712,HRV,HRV_0150,2022-11-30 18:03:43
33,"[{'imgObject': {}, 'id': 'eggs', 'src': '/static/foodstim60/eggs.jpg', 'key': 'u', 'origWidth': 409, 'origHeight': 409, 'width': 409, 'height': 409, 'widthPercent': 0.45, 'rescaleHeight': False, 'trialN': 33, 'loaded': True, 'loadedTime': 6226.0999999940395, 'positionName': 'LEFT', 'positionCoords': [205.4, 155.5], 'bid': 0.75}, {'imgObject': {}, 'id': 'blueberries', 'src': '/static/foodstim60/blueberries.jpg', 'key': 'i', 'origWidth': 411, 'origHeight': 411, 'width': 411, 'height': 411, 'widthPercent': 0.45, 'rescaleHeight': False, 'trialN': 33, 'loaded': True, 'loadedTime': 5755.0999999940395, 'positionName': 'RIGHT', 'positionCoords': [665.6, 154.5], 'bid': 2.93}]",66211.90000000596,1669831147668,eggs,blueberries,0.75,2.93,2.18,blueberries,1086.0999999940395,1088,1087.699999988079,True,i,67817.80000001192,1605.9000000059605,1669831149274,1606,HRV,HRV_0150,2022-11-30 18:03:43
34,"[{'imgObject': {}, 'id': 'yogurt no spoon', 'src': '/static/foodstim60/yogurt no spoon.jpg', 'key': 'u', 'origWidth': 411, 'origHeight': 410, 'width': 411, 'height': 410, 'widthPercent': 0.45, 'rescaleHeight': False, 'trialN': 34, 'loaded': True, 'loadedTime': 5387.0999999940395, 'positionName': 'LEFT', 'positionCoords': [203.4, 155], 'bid': 1.43}, {'imgObject': {}, 'id': 'raisin bran w milk', 'src': '/static/foodstim60/raisin bran w milk.jpg', 'key': 'i', 'origWidth': 411, 'origHeight': 411, 'width': 411, 'height': 411, 'widthPercent': 0.45, 'rescaleHeight': False, 'trialN': 34, 'loaded': True, 'loadedTime': 5257.5, 'positionName': 'RIGHT', 'positionCoords': [665.6, 154.5], 'bid': 1.64}]",67818.30000001192,1669831149275,yogurt no spoon,raisin bran w milk,1.43,1.64,0.20999999999999996,yogurt no spoon,1121.5,1123,1123.0999999940395,True,u,69462.69999998808,1644.3999999761581,1669831150919,1644,HRV,HRV_0150,2022-11-30 18:03:43
35,"[{'imgObject': {}, 'id': 'rigatoni and sauce', 'src': '/static/foodstim60/rigatoni and sauce.jpg', 'key': 'u', 'origWidth': 410, 'origHeight': 411, 'width': 410, 'height': 411, 'widthPercent': 0.45, 'rescaleHeight': False, 'trialN': 35, 'loaded': True, 'loadedTime': 6131.199999988079, 'positionName': 'LEFT', 'positionCoords': [204.4, 154.5], 'bid': 6.48}, {'imgObject': {}, 'id': 'eggs', 'src': '/static/foodstim60/eggs.jpg', 'key': 'i', 'origWidth': 409, 'origHeight': 409, 'width': 409, 'height': 409, 'widthPercent': 0.45, 'rescaleHeight': False, 'trialN': 35, 'loaded': True, 'loadedTime': 6225.0999999940395, 'positionName': 'RIGHT', 'positionCoords': [665.6, 155.5], 'bid': 0.75}]",69463.59999999404,1669831150920,rigatoni and sauce,eggs,6.48,0.75,-5.73,rigatoni and sauce,1646.5999999940395,1648,1648.300000011921,True,u,71618.5,2154.9000000059605,1669831153075,2155,HRV,HRV_0150,2022-11-30 18:03:43
36,"[{'imgObject': {}, 'id': 'apple slices', 'src': '/static/foodstim60/apple slices.jpg', 'key': 'u', 'origWidth': 409, 'origHeight': 410, 'width': 409, 'height': 410, 'widthPercent': 0.45, 'rescaleHeight': False, 'trialN': 36, 'loaded': True, 'loadedTime': 6230, 'positionName': 'LEFT', 'positionCoords': [205.4, 155], 'bid': 2.23}, {'imgObject': {}, 'id': 'luckycharms', 'src': '/static/foodstim60/luckycharms.jpg', 'key': 'i', 'origWidth': 410, 'origHeight': 409, 'width': 410, 'height': 409, 'widthPercent': 0.45, 'rescaleHeight': False, 'trialN': 36, 'loaded': True, 'loadedTime': 6137.800000011921, 'positionName': 'RIGHT', 'positionCoords': [665.6, 155.5], 'bid': 0.51}]",71619.19999998808,1669831153076,apple slices,luckycharms,2.23,0.51,-1.72,apple slices,810.6000000238419,813,813.9000000059605,True,u,72943.80000001192,1324.6000000238419,1669831154400,1324,HRV,HRV_0150,2022-11-30 18:03:43
37,"[{'imgObject': {}, 'id': 'popsicles', 'src': '/static/foodstim60/popsicles.jpg', 'key': 'u', 'origWidth': 410, 'origHeight': 410, 'width': 410, 'height': 410, 'widthPercent': 0.45, 'rescaleHeight': False, 'trialN': 37, 'loaded': True, 'loadedTime': 6234, 'positionName': 'LEFT', 'positionCoords': [204.4, 155], 'bid': 3.98}, {'imgObject': {}, 'id': 'burrito', 'src': '/static/foodstim60/burrito.jpg', 'key': 'i', 'origWidth': 410, 'origHeight': 410, 'width': 410, 'height': 410, 'widthPercent': 0.45, 'rescaleHeight': False, 'trialN': 37, 'loaded': True, 'loadedTime': 5694, 'positionName': 'RIGHT', 'positionCoords': [665.6, 155], 'bid': 7.32}]",72944.19999998808,1669831154401,popsicles,burrito,3.98,7.32,3.3400000000000003,burrito,876.9000000059605,878,878.7000000178814,True,i,74340.69999998808,1396.5,1669831155797,1396,HRV,HRV_0150,2022-11-30 18:03:43
38,"[{'imgObject': {}, 'id': 'avocado', 'src': '/static/foodstim60/avocado.jpg', 'key': 'u', 'origWidth': 409, 'origHeight': 409, 'width': 409, 'height': 409, 'widthPercent': 0.45, 'rescaleHeight': False, 'trialN': 38, 'loaded': True, 'loadedTime': 5452.0999999940395, 'positionName': 'LEFT', 'positionCoords': [205.4, 155.5], 'bid': 7.54}, {'imgObject': {}, 'id': 'edamame', 'src': '/static/foodstim60/edamame.jpg', 'key': 'i', 'origWidth': 409, 'origHeight': 410, 'width': 409, 'height': 410, 'widthPercent': 0.45, 'rescaleHeight': False, 'trialN': 38, 'loaded': True, 'loadedTime': 6237.699999988079, 'positionName': 'RIGHT', 'positionCoords': [665.6, 155], 'bid': 7.37}]",74341.19999998808,1669831155798,avocado,edamame,7.54,7.37,-0.16999999999999993,avocado,1579.5,1581,1581.1000000238419,True,u,76426.59999999404,2085.4000000059605,1669831157883,2085,HRV,HRV_0150,2022-11-30 18:03:43
39,"[{'imgObject': {}, 'id': 'luckycharms', 'src': '/static/foodstim60/luckycharms.jpg', 'key': 'u', 'origWidth': 410, 'origHeight': 409, 'width': 410, 'height': 409, 'widthPercent': 0.45, 'rescaleHeight': False, 'trialN': 39, 'loaded': True, 'loadedTime': 6136.4000000059605, 'positionName': 'LEFT', 'positionCoords': [204.4, 155.5], 'bid': 0.51}, {'imgObject': {}, 'id': 'ice cream sundae 002', 'src': '/static/foodstim60/ice cream sundae 002.jpg', 'key': 'i', 'origWidth': 409, 'origHeight': 409, 'width': 409, 'height': 409, 'widthPercent': 0.45, 'rescaleHeight': False, 'trialN': 39, 'loaded': True, 'loadedTime': 5086, 'positionName': 'RIGHT', 'positionCoords': [665.6, 155.5], 'bid': 6.2}]",76427.0,1669831157883,luckycharms,ice cream sundae 002,0.51,6.2,5.69,ice cream sundae 002,1248.199999988079,1250,1250.0,True,i,78194.40000000596,1767.4000000059605,1669831159651,1768,HRV,HRV_0150,2022-11-30 18:03:43
40,"[{'imgObject': {}, 'id': 'banana', 'src': '/static/foodstim60/banana.jpg', 'key': 'u', 'origWidth': 410, 'origHeight': 410, 'width': 410, 'height': 410, 'widthPercent': 0.45, 'rescaleHeight': False, 'trialN': 40, 'loaded': True, 'loadedTime': 6241, 'positionName': 'LEFT', 'positionCoords': [204.4, 155], 'bid': 1.79}, {'imgObject': {}, 'id': 'veggieswithdip', 'src': '/static/foodstim60/veggieswithdip.jpg', 'key': 'i', 'origWidth': 409, 'origHeight': 409, 'width': 409, 'height': 409, 'widthPercent': 0.45, 'rescaleHeight': False, 'trialN': 40, 'loaded': True, 'loadedTime': 5507.300000011921, 'positionName': 'RIGHT', 'positionCoords': [665.6, 155.5], 'bid': 7.43}]",78195.09999999404,1669831159652,banana,veggieswithdip,1.79,7.43,5.64,veggieswithdip,875.2000000178814,878,878.2000000178814,True,i,79587.5,1392.4000000059605,1669831161044,1392,HRV,HRV_0150,2022-11-30 18:03:43
41,"[{'imgObject': {}, 'id': 'apple slices', 'src': '/static/foodstim60/apple slices.jpg', 'key': 'u', 'origWidth': 409, 'origHeight': 410, 'width': 409, 'height': 410, 'widthPercent': 0.45, 'rescaleHeight': False, 'trialN': 41, 'loaded': True, 'loadedTime': 6229.699999988079, 'positionName': 'LEFT', 'positionCoords': [205.4, 155], 'bid': 2.23}, {'imgObject': {}, 'id': 'avocado', 'src': '/static/foodstim60/avocado.jpg', 'key': 'i', 'origWidth': 409, 'origHeight': 409, 'width': 409, 'height': 409, 'widthPercent': 0.45, 'rescaleHeight': False, 'trialN': 41, 'loaded': True, 'loadedTime': 5506.0999999940395, 'positionName': 'RIGHT', 'positionCoords': [665.6, 155.5], 'bid': 7.54}]",79588.0,1669831161044,apple slices,avocado,2.23,7.54,5.3100000000000005,avocado,815.9000000059605,818,817.5999999940395,True,i,80914.40000000596,1326.4000000059605,1669831162371,1327,HRV,HRV_0150,2022-11-30 18:03:43
42,"[{'imgObject': {}, 'id': 'mashed potato', 'src': '/static/foodstim60/mashed potato.jpg', 'key': 'u', 'origWidth': 409, 'origHeight': 409, 'width': 409, 'height': 409, 'widthPercent': 0.45, 'rescaleHeight': False, 'trialN': 42, 'loaded': True, 'loadedTime': 6244, 'positionName': 'LEFT', 'positionCoords': [205.4, 155.5], 'bid': 6.21}, {'imgObject': {}, 'id': 'baked potato', 'src': '/static/foodstim60/baked potato.jpg', 'key': 'i', 'origWidth': 409, 'origHeight': 410, 'width': 409, 'height': 410, 'widthPercent': 0.45, 'rescaleHeight': False, 'trialN': 42, 'loaded': True, 'loadedTime': 5198, 'positionName': 'RIGHT', 'positionCoords': [665.6, 155], 'bid': 0.53}]",80915.19999998808,1669831162372,mashed potato,baked potato,6.21,0.53,-5.68,mashed potato,935.1000000238419,937,936.9000000059605,True,u,82374.09999999404,1458.9000000059605,1669831163831,1459,HRV,HRV_0150,2022-11-30 18:03:43
43,"[{'imgObject': {}, 'id': 'burrito', 'src': '/static/foodstim60/burrito.jpg', 'key': 'u', 'origWidth': 410, 'origHeight': 410, 'width': 410, 'height': 410, 'widthPercent': 0.45, 'rescaleHeight': False, 'trialN': 43, 'loaded': True, 'loadedTime': 5693.199999988079, 'positionName': 'LEFT', 'positionCoords': [204.4, 155], 'bid': 7.32}, {'imgObject': {}, 'id': 'raisin bran w milk', 'src': '/static/foodstim60/raisin bran w milk.jpg', 'key': 'i', 'origWidth': 411, 'origHeight': 411, 'width': 411, 'height': 411, 'widthPercent': 0.45, 'rescaleHeight': False, 'trialN': 43, 'loaded': True, 'loadedTime': 5323.800000011921, 'positionName': 'RIGHT', 'positionCoords': [665.6, 154.5], 'bid': 1.64}]",82374.59999999404,1669831163831,burrito,raisin bran w milk,7.32,1.64,-5.680000000000001,burrito,906.3000000119209,908,907.7000000178814,True,u,83786.80000001192,1412.2000000178814,1669831165243,1412,HRV,HRV_0150,2022-11-30 18:03:43
44,"[{'imgObject': {}, 'id': 'eggsalad', 'src': '/static/foodstim60/eggsalad.jpg', 'key': 'u', 'origWidth': 410, 'origHeight': 409, 'width': 410, 'height': 409, 'widthPercent': 0.45, 'rescaleHeight': False, 'trialN': 44, 'loaded': True, 'loadedTime': 5909.5, 'positionName': 'LEFT', 'positionCoords': [204.4, 155.5], 'bid': 0.46}, {'imgObject': {}, 'id': 'shreddedwheatwithmilk', 'src': '/static/foodstim60/shreddedwheatwithmilk.jpg', 'key': 'i', 'origWidth': 410, 'origHeight': 410, 'width': 410, 'height': 410, 'widthPercent': 0.45, 'rescaleHeight': False, 'trialN': 44, 'loaded': True, 'loadedTime': 5194.800000011921, 'positionName': 'RIGHT', 'positionCoords': [665.6, 155], 'bid': 1.01}]",83787.30000001192,1669831165244,eggsalad,shreddedwheatwithmilk,0.46,1.01,0.55,shreddedwheatwithmilk,2412.399999976158,2414,2414.0999999940395,True,i,86715.0,2927.699999988079,1669831168171,2927,HRV,HRV_0150,2022-11-30 18:03:43
45,"[{'imgObject': {}, 'id': 'roastedpotatoes', 'src': '/static/foodstim60/roastedpotatoes.jpg', 'key': 'u', 'origWidth': 409, 'origHeight': 410, 'width': 409, 'height': 410, 'widthPercent': 0.45, 'rescaleHeight': False, 'trialN': 45, 'loaded': True, 'loadedTime': 6128.4000000059605, 'positionName': 'LEFT', 'positionCoords': [205.4, 155], 'bid': 1.75}, {'imgObject': {}, 'id': 'fried eggs', 'src': '/static/foodstim60/fried eggs.jpg', 'key': 'i', 'origWidth': 410, 'origHeight': 410, 'width': 410, 'height': 410, 'widthPercent': 0.45, 'rescaleHeight': False, 'trialN': 45, 'loaded': True, 'loadedTime': 4948.9000000059605, 'positionName': 'RIGHT', 'positionCoords': [665.6, 155], 'bid': 0.53}]",86715.40000000596,1669831168172,roastedpotatoes,fried eggs,1.75,0.53,-1.22,roastedpotatoes,1906.5999999940395,1909,1909.4000000059605,True,u,89143.40000000596,2428.0,1669831170600,2428,HRV,HRV_0150,2022-11-30 18:03:43
46,"[{'imgObject': {}, 'id': 'froot loops w milk', 'src': '/static/foodstim60/froot loops w milk.jpg', 'key': 'u', 'origWidth': 410, 'origHeight': 410, 'width': 410, 'height': 410, 'widthPercent': 0.45, 'rescaleHeight': False, 'trialN': 46, 'loaded': True, 'loadedTime': 6279.4000000059605, 'positionName': 'LEFT', 'positionCoords': [204.4, 155], 'bid': 0.75}, {'imgObject': {}, 'id': 'kiwi', 'src': '/static/foodstim60/kiwi.jpg', 'key': 'i', 'origWidth': 410, 'origHeight': 410, 'width': 410, 'height': 410, 'widthPercent': 0.45, 'rescaleHeight': False, 'trialN': 46, 'loaded': True, 'loadedTime': 6172.0999999940395, 'positionName': 'RIGHT', 'positionCoords': [665.6, 155], 'bid': 3.15}]",89143.69999998808,1669831170600,froot loops w milk,kiwi,0.75,3.15,2.4,kiwi,2783.9000000059605,2786,2785.5,True,i,92446.59999999404,3302.9000000059605,1669831173903,3303,HRV,HRV_0150,2022-11-30 18:03:43
47,"[{'imgObject': {}, 'id': 'granola w milk', 'src': '/static/foodstim60/granola w milk.jpg', 'key': 'u', 'origWidth': 410, 'origHeight': 410, 'width': 410, 'height': 410, 'widthPercent': 0.45, 'rescaleHeight': False, 'trialN': 47, 'loaded': True, 'loadedTime': 6284.4000000059605, 'positionName': 'LEFT', 'positionCoords': [204.4, 155], 'bid': 0.81}, {'imgObject': {}, 'id': 'rigatoni', 'src': '/static/foodstim60/rigatoni.jpg', 'key': 'i', 'origWidth': 411, 'origHeight': 411, 'width': 411, 'height': 411, 'widthPercent': 0.45, 'rescaleHeight': False, 'trialN': 47, 'loaded': True, 'loadedTime': 5906.199999988079, 'positionName': 'RIGHT', 'positionCoords': [665.6, 154.5], 'bid': 0.92}]",92447.09999999404,1669831173903,granola w milk,rigatoni,0.81,0.92,0.10999999999999999,rigatoni,1425.2000000178814,1427,1426.800000011921,True,i,94379.19999998808,1932.0999999940395,1669831175836,1933,HRV,HRV_0150,2022-11-30 18:03:43
48,"[{'imgObject': {}, 'id': 'raisin bran w milk', 'src': '/static/foodstim60/raisin bran w milk.jpg', 'key': 'u', 'origWidth': 411, 'origHeight': 411, 'width': 411, 'height': 411, 'widthPercent': 0.45, 'rescaleHeight': False, 'trialN': 48, 'loaded': True, 'loadedTime': 5255.300000011921, 'positionName': 'LEFT', 'positionCoords': [203.4, 154.5], 'bid': 1.64}, {'imgObject': {}, 'id': 'sweetpotato', 'src': '/static/foodstim60/sweetpotato.jpg', 'key': 'i', 'origWidth': 410, 'origHeight': 410, 'width': 410, 'height': 410, 'widthPercent': 0.45, 'rescaleHeight': False, 'trialN': 48, 'loaded': True, 'loadedTime': 5570.800000011921, 'positionName': 'RIGHT', 'positionCoords': [665.6, 155], 'bid': 0.32}]",94379.69999998808,1669831175836,raisin bran w milk,sweetpotato,1.64,0.32,-1.3199999999999998,sweetpotato,2463.800000011921,2467,2466.800000011921,True,i,97355.19999998808,2975.5,1669831178812,2976,HRV,HRV_0150,2022-11-30 18:03:43
49,"[{'imgObject': {}, 'id': 'strawberries', 'src': '/static/foodstim60/strawberries.jpg', 'key': 'u', 'origWidth': 410, 'origHeight': 410, 'width': 410, 'height': 410, 'widthPercent': 0.45, 'rescaleHeight': False, 'trialN': 49, 'loaded': True, 'loadedTime': 6057.199999988079, 'positionName': 'LEFT', 'positionCoords': [204.4, 155], 'bid': 7.34}, {'imgObject': {}, 'id': 'salmon', 'src': '/static/foodstim60/salmon.jpg', 'key': 'i', 'origWidth': 410, 'origHeight': 409, 'width': 410, 'height': 409, 'widthPercent': 0.45, 'rescaleHeight': False, 'trialN': 49, 'loaded': True, 'loadedTime': 6289.4000000059605, 'positionName': 'RIGHT', 'positionCoords': [665.6, 155.5], 'bid': 7.95}]",97356.09999999404,1669831178813,strawberries,salmon,7.34,7.95,0.6100000000000003,salmon,1246.4000000059605,1248,1248.0,True,i,99127.0,1770.9000000059605,1669831180584,1771,HRV,HRV_0150,2022-11-30 18:03:43
50,"[{'imgObject': {}, 'id': 'tacos', 'src': '/static/foodstim60/tacos.jpg', 'key': 'u', 'origWidth': 411, 'origHeight': 411, 'width': 411, 'height': 411, 'widthPercent': 0.45, 'rescaleHeight': False, 'trialN': 50, 'loaded': True, 'loadedTime': 6145.800000011921, 'positionName': 'LEFT', 'positionCoords': [203.4, 154.5], 'bid': 7.03}, {'imgObject': {}, 'id': 'raspberries', 'src': '/static/foodstim60/raspberries.jpg', 'key': 'i', 'origWidth': 411, 'origHeight': 411, 'width': 411, 'height': 411, 'widthPercent': 0.45, 'rescaleHeight': False, 'trialN': 50, 'loaded': True, 'loadedTime': 6122.5999999940395, 'positionName': 'RIGHT', 'positionCoords': [665.6, 154.5], 'bid': 3.81}]",99127.5,1669831180584,tacos,raspberries,7.03,3.81,-3.22,tacos,1001.5999999940395,1003,1003.1999999880791,True,u,100634.40000000596,1506.9000000059605,1669831182091,1507,HRV,HRV_0150,2022-11-30 18:03:43
51,"[{'imgObject': {}, 'id': 'banana', 'src': '/static/foodstim60/banana.jpg', 'key': 'u', 'origWidth': 410, 'origHeight': 410, 'width': 410, 'height': 410, 'widthPercent': 0.45, 'rescaleHeight': False, 'trialN': 51, 'loaded': True, 'loadedTime': 6242.0999999940395, 'positionName': 'LEFT', 'positionCoords': [204.4, 155], 'bid': 1.79}, {'imgObject': {}, 'id': 'raspberries', 'src': '/static/foodstim60/raspberries.jpg', 'key': 'i', 'origWidth': 411, 'origHeight': 411, 'width': 411, 'height': 411, 'widthPercent': 0.45, 'rescaleHeight': False, 'trialN': 51, 'loaded': True, 'loadedTime': 6123.0999999940395, 'positionName': 'RIGHT', 'positionCoords': [665.6, 154.5], 'bid': 3.81}]",100634.90000000596,1669831182091,banana,raspberries,1.79,3.81,2.02,banana,2045.4000000059605,2050,2049.5,True,u,103195.40000000596,2560.5,1669831184652,2561,HRV,HRV_0150,2022-11-30 18:03:43
52,"[{'imgObject': {}, 'id': 'froot loops w milk', 'src': '/static/foodstim60/froot loops w milk.jpg', 'key': 'u', 'origWidth': 410, 'origHeight': 410, 'width': 410, 'height': 410, 'widthPercent': 0.45, 'rescaleHeight': False, 'trialN': 52, 'loaded': True, 'loadedTime': 6278.4000000059605, 'positionName': 'LEFT', 'positionCoords': [204.4, 155], 'bid': 0.75}, {'imgObject': {}, 'id': 'cherry tomato', 'src': '/static/foodstim60/cherry tomato.jpg', 'key': 'i', 'origWidth': 410, 'origHeight': 410, 'width': 410, 'height': 410, 'widthPercent': 0.45, 'rescaleHeight': False, 'trialN': 52, 'loaded': True, 'loadedTime': 5992.5, 'positionName': 'RIGHT', 'positionCoords': [665.6, 155], 'bid': 0.31}]",103195.90000000596,1669831184652,froot loops w milk,cherry tomato,0.75,0.31,-0.44,froot loops w milk,1355.7999999821186,1358,1357.4000000059605,True,u,105067.90000000596,1872.0,1669831186524,1872,HRV,HRV_0150,2022-11-30 18:03:43
53,"[{'imgObject': {}, 'id': 'omelette', 'src': '/static/foodstim60/omelette.jpg', 'key': 'u', 'origWidth': 410, 'origHeight': 409, 'width': 410, 'height': 409, 'widthPercent': 0.45, 'rescaleHeight': False, 'trialN': 53, 'loaded': True, 'loadedTime': 5197.300000011921, 'positionName': 'LEFT', 'positionCoords': [204.4, 155.5], 'bid': 0.32}, {'imgObject': {}, 'id': 'sweetpotato', 'src': '/static/foodstim60/sweetpotato.jpg', 'key': 'i', 'origWidth': 410, 'origHeight': 410, 'width': 410, 'height': 410, 'widthPercent': 0.45, 'rescaleHeight': False, 'trialN': 53, 'loaded': True, 'loadedTime': 5572.5999999940395, 'positionName': 'RIGHT', 'positionCoords': [665.6, 155], 'bid': 0.32}]",105068.40000000596,1669831186525,omelette,sweetpotato,0.32,0.32,0.0,sweetpotato,1157.5,1159,1159.0,True,i,106739.80000001192,1671.4000000059605,1669831188196,1671,HRV,HRV_0150,2022-11-30 18:03:43
54,"[{'imgObject': {}, 'id': 'bagel and cc', 'src': '/static/foodstim60/bagel and cc.jpg', 'key': 'u', 'origWidth': 410, 'origHeight': 410, 'width': 410, 'height': 410, 'widthPercent': 0.45, 'rescaleHeight': False, 'trialN': 54, 'loaded': True, 'loadedTime': 6208.0999999940395, 'positionName': 'LEFT', 'positionCoords': [204.4, 155], 'bid': 6.04}, {'imgObject': {}, 'id': 'blackbeanswithrice', 'src': '/static/foodstim60/blackbeanswithrice.jpg', 'key': 'i', 'origWidth': 410, 'origHeight': 410, 'width': 410, 'height': 410, 'widthPercent': 0.45, 'rescaleHeight': False, 'trialN': 54, 'loaded': True, 'loadedTime': 5929.800000011921, 'positionName': 'RIGHT', 'positionCoords': [665.6, 155], 'bid': 6.0600000000000005}]",106740.5,1669831188197,bagel and cc,blackbeanswithrice,6.04,6.0600000000000005,0.020000000000000462,blackbeanswithrice,1702.199999988079,1704,1703.800000011921,True,i,108963.59999999404,2223.0999999940395,1669831190420,2223,HRV,HRV_0150,2022-11-30 18:03:43
55,"[{'imgObject': {}, 'id': 'lox', 'src': '/static/foodstim60/lox.jpg', 'key': 'u', 'origWidth': 410, 'origHeight': 411, 'width': 410, 'height': 411, 'widthPercent': 0.45, 'rescaleHeight': False, 'trialN': 55, 'loaded': True, 'loadedTime': 4807.199999988079, 'positionName': 'LEFT', 'positionCoords': [204.4, 154.5], 'bid': 6.3100000000000005}, {'imgObject': {}, 'id': 'turkeysandwich', 'src': '/static/foodstim60/turkeysandwich.jpg', 'key': 'i', 'origWidth': 409, 'origHeight': 409, 'width': 409, 'height': 409, 'widthPercent': 0.45, 'rescaleHeight': False, 'trialN': 55, 'loaded': True, 'loadedTime': 6134.199999988079, 'positionName': 'RIGHT', 'positionCoords': [665.6, 155.5], 'bid': 6.43}]",108964.0,1669831190420,lox,turkeysandwich,6.3100000000000005,6.43,0.11999999999999922,turkeysandwich,2202.5999999940395,2205,2204.800000011921,True,i,111684.59999999404,2720.5999999940395,1669831193141,2721,HRV,HRV_0150,2022-11-30 18:03:43
56,"[{'imgObject': {}, 'id': 'cantaloupe', 'src': '/static/foodstim60/cantaloupe.jpg', 'key': 'u', 'origWidth': 409, 'origHeight': 409, 'width': 409, 'height': 409, 'widthPercent': 0.45, 'rescaleHeight': False, 'trialN': 56, 'loaded': True, 'loadedTime': 6295.5, 'positionName': 'LEFT', 'positionCoords': [205.4, 155.5], 'bid': 3.81}, {'imgObject': {}, 'id': 'blackbeanswithrice', 'src': '/static/foodstim60/blackbeanswithrice.jpg', 'key': 'i', 'origWidth': 410, 'origHeight': 410, 'width': 410, 'height': 410, 'widthPercent': 0.45, 'rescaleHeight': False, 'trialN': 56, 'loaded': True, 'loadedTime': 5929.0999999940395, 'positionName': 'RIGHT', 'positionCoords': [665.6, 155], 'bid': 6.0600000000000005}]",111685.0,1669831193141,cantaloupe,blackbeanswithrice,3.81,6.0600000000000005,2.2500000000000004,blackbeanswithrice,1239.800000011921,1242,1241.4000000059605,True,i,113444.40000000596,1759.4000000059605,1669831194901,1760,HRV,HRV_0150,2022-11-30 18:03:43
57,"[{'imgObject': {}, 'id': 'granola w milk', 'src': '/static/foodstim60/granola w milk.jpg', 'key': 'u', 'origWidth': 410, 'origHeight': 410, 'width': 410, 'height': 410, 'widthPercent': 0.45, 'rescaleHeight': False, 'trialN': 57, 'loaded': True, 'loadedTime': 6281.199999988079, 'positionName': 'LEFT', 'positionCoords': [204.4, 155], 'bid': 0.81}, {'imgObject': {}, 'id': 'Grapes', 'src': '/static/foodstim60/Grapes.jpg', 'key': 'i', 'origWidth': 411, 'origHeight': 411, 'width': 411, 'height': 411, 'widthPercent': 0.45, 'rescaleHeight': False, 'trialN': 57, 'loaded': True, 'loadedTime': 6296.199999988079, 'positionName': 'RIGHT', 'positionCoords': [665.6, 154.5], 'bid': 3.43}]",113444.90000000596,1669831194901,granola w milk,Grapes,0.81,3.43,2.62,Grapes,1162.5999999940395,1165,1164.199999988079,True,i,115116.5,1671.5999999940395,1669831196573,1672,HRV,HRV_0150,2022-11-30 18:03:43
58,"[{'imgObject': {}, 'id': 'turkey sandwich', 'src': '/static/foodstim60/turkey sandwich.jpg', 'key': 'u', 'origWidth': 409, 'origHeight': 409, 'width': 409, 'height': 409, 'widthPercent': 0.45, 'rescaleHeight': False, 'trialN': 58, 'loaded': True, 'loadedTime': 5567.4000000059605, 'positionName': 'LEFT', 'positionCoords': [205.4, 155.5], 'bid': 6.78}, {'imgObject': {}, 'id': 'rigatoni', 'src': '/static/foodstim60/rigatoni.jpg', 'key': 'i', 'origWidth': 411, 'origHeight': 411, 'width': 411, 'height': 411, 'widthPercent': 0.45, 'rescaleHeight': False, 'trialN': 58, 'loaded': True, 'loadedTime': 5909.199999988079, 'positionName': 'RIGHT', 'positionCoords': [665.6, 154.5], 'bid': 0.92}]",115117.09999999404,1669831196574,turkey sandwich,rigatoni,6.78,0.92,-5.86,turkey sandwich,1012.3000000119209,1015,1015.0,True,u,116643.80000001192,1526.7000000178814,1669831198100,1526,HRV,HRV_0150,2022-11-30 18:03:43
59,"[{'imgObject': {}, 'id': 'grilled chicken strips', 'src': '/static/foodstim60/grilled chicken strips.jpg', 'key': 'u', 'origWidth': 410, 'origHeight': 411, 'width': 410, 'height': 411, 'widthPercent': 0.45, 'rescaleHeight': False, 'trialN': 59, 'loaded': True, 'loadedTime': 5947.5, 'positionName': 'LEFT', 'positionCoords': [204.4, 154.5], 'bid': 9.5}, {'imgObject': {}, 'id': 'veggieswithdip', 'src': '/static/foodstim60/veggieswithdip.jpg', 'key': 'i', 'origWidth': 409, 'origHeight': 409, 'width': 409, 'height': 409, 'widthPercent': 0.45, 'rescaleHeight': False, 'trialN': 59, 'loaded': True, 'loadedTime': 5511.5, 'positionName': 'RIGHT', 'positionCoords': [665.6, 155.5], 'bid': 7.43}]",116644.09999999404,1669831198101,grilled chicken strips,veggieswithdip,9.5,7.43,-2.0700000000000003,grilled chicken strips,1343.5,1345,1345.300000011921,True,u,118508.59999999404,1864.5,1669831199965,1864,HRV,HRV_0150,2022-11-30 18:03:43
60,"[{'imgObject': {}, 'id': 'froot loops w milk', 'src': '/static/foodstim60/froot loops w milk.jpg', 'key': 'u', 'origWidth': 410, 'origHeight': 410, 'width': 410, 'height': 410, 'widthPercent': 0.45, 'rescaleHeight': False, 'trialN': 60, 'loaded': True, 'loadedTime': 6277.800000011921, 'positionName': 'LEFT', 'positionCoords': [204.4, 155], 'bid': 0.75}, {'imgObject': {}, 'id': 'eggs', 'src': '/static/foodstim60/eggs.jpg', 'key': 'i', 'origWidth': 409, 'origHeight': 409, 'width': 409, 'height': 409, 'widthPercent': 0.45, 'rescaleHeight': False, 'trialN': 60, 'loaded': True, 'loadedTime': 6225.300000011921, 'positionName': 'RIGHT', 'positionCoords': [665.6, 155.5], 'bid': 0.75}]",118509.0,1669831199965,froot loops w milk,eggs,0.75,0.75,0.0,froot loops w milk,1676,1678,1677.5,True,u,120689.40000000596,2180.4000000059605,1669831202146,2181,HRV,HRV_0150,2022-11-30 18:03:43
61,"[{'imgObject': {}, 'id': 'bagel plain', 'src': '/static/foodstim60/bagel plain.jpg', 'key': 'u', 'origWidth': 410, 'origHeight': 410, 'width': 410, 'height': 410, 'widthPercent': 0.45, 'rescaleHeight': False, 'trialN': 61, 'loaded': True, 'loadedTime': 6063.5, 'positionName': 'LEFT', 'positionCoords': [204.4, 155], 'bid': 4.15}, {'imgObject': {}, 'id': 'popsicles', 'src': '/static/foodstim60/popsicles.jpg', 'key': 'i', 'origWidth': 410, 'origHeight': 410, 'width': 410, 'height': 410, 'widthPercent': 0.45, 'rescaleHeight': False, 'trialN': 61, 'loaded': True, 'loadedTime': 6232.4000000059605, 'positionName': 'RIGHT', 'positionCoords': [665.6, 155], 'bid': 3.98}]",120689.80000001192,1669831202146,bagel plain,popsicles,4.15,3.98,-0.17000000000000037,popsicles,1859.2999999821186,1861,1860.7999999821186,True,i,123058.5,2368.699999988079,1669831204515,2369,HRV,HRV_0150,2022-11-30 18:03:43
62,"[{'imgObject': {}, 'id': 'fried eggs', 'src': '/static/foodstim60/fried eggs.jpg', 'key': 'u', 'origWidth': 410, 'origHeight': 410, 'width': 410, 'height': 410, 'widthPercent': 0.45, 'rescaleHeight': False, 'trialN': 62, 'loaded': True, 'loadedTime': 4945.5999999940395, 'positionName': 'LEFT', 'positionCoords': [204.4, 155], 'bid': 0.53}, {'imgObject': {}, 'id': 'sweetpotato', 'src': '/static/foodstim60/sweetpotato.jpg', 'key': 'i', 'origWidth': 410, 'origHeight': 410, 'width': 410, 'height': 410, 'widthPercent': 0.45, 'rescaleHeight': False, 'trialN': 62, 'loaded': True, 'loadedTime': 5573.4000000059605, 'positionName': 'RIGHT', 'positionCoords': [665.6, 155], 'bid': 0.32}]",123059.0,1669831204515,fried eggs,sweetpotato,0.53,0.32,-0.21000000000000002,sweetpotato,1494.5,1497,1496.0999999940395,True,i,125076.30000001192,2017.300000011921,1669831206533,2018,HRV,HRV_0150,2022-11-30 18:03:43
63,"[{'imgObject': {}, 'id': 'chicken nuggets2', 'src': '/static/foodstim60/chicken nuggets2.jpg', 'key': 'u', 'origWidth': 410, 'origHeight': 409, 'width': 410, 'height': 409, 'widthPercent': 0.45, 'rescaleHeight': False, 'trialN': 63, 'loaded': True, 'loadedTime': 6302.5999999940395, 'positionName': 'LEFT', 'positionCoords': [204.4, 155.5], 'bid': 9.15}, {'imgObject': {}, 'id': 'rigatoni and sauce', 'src': '/static/foodstim60/rigatoni and sauce.jpg', 'key': 'i', 'origWidth': 410, 'origHeight': 411, 'width': 410, 'height': 411, 'widthPercent': 0.45, 'rescaleHeight': False, 'trialN': 63, 'loaded': True, 'loadedTime': 6130.0999999940395, 'positionName': 'RIGHT', 'positionCoords': [665.6, 154.5], 'bid': 6.48}]",125076.40000000596,1669831206533,chicken nuggets2,rigatoni and sauce,9.15,6.48,-2.67,chicken nuggets2,967.5,969,969.5,True,u,126567.40000000596,1491.0,1669831208024,1491,HRV,HRV_0150,2022-11-30 18:03:43
64,"[{'imgObject': {}, 'id': 'cherry tomato', 'src': '/static/foodstim60/cherry tomato.jpg', 'key': 'u', 'origWidth': 410, 'origHeight': 410, 'width': 410, 'height': 410, 'widthPercent': 0.45, 'rescaleHeight': False, 'trialN': 64, 'loaded': True, 'loadedTime': 5994.0999999940395, 'positionName': 'LEFT', 'positionCoords': [204.4, 155], 'bid': 0.31}, {'imgObject': {}, 'id': 'baked potato', 'src': '/static/foodstim60/baked potato.jpg', 'key': 'i', 'origWidth': 409, 'origHeight': 410, 'width': 409, 'height': 410, 'widthPercent': 0.45, 'rescaleHeight': False, 'trialN': 64, 'loaded': True, 'loadedTime': 5254.5, 'positionName': 'RIGHT', 'positionCoords': [665.6, 155], 'bid': 0.53}]",126567.80000001192,1669831208024,cherry tomato,baked potato,0.31,0.53,0.22000000000000003,baked potato,1784.7999999821186,1830,1829.2999999821186,True,i,128901.40000000596,2333.5999999940395,1669831210358,2334,HRV,HRV_0150,2022-11-30 18:03:43
65,"[{'imgObject': {}, 'id': 'salmon', 'src': '/static/foodstim60/salmon.jpg', 'key': 'u', 'origWidth': 410, 'origHeight': 409, 'width': 410, 'height': 409, 'widthPercent': 0.45, 'rescaleHeight': False, 'trialN': 65, 'loaded': True, 'loadedTime': 6289.5999999940395, 'positionName': 'LEFT', 'positionCoords': [204.4, 155.5], 'bid': 7.95}, {'imgObject': {}, 'id': 'turkeysandwich', 'src': '/static/foodstim60/turkeysandwich.jpg', 'key': 'i', 'origWidth': 409, 'origHeight': 409, 'width': 409, 'height': 409, 'widthPercent': 0.45, 'rescaleHeight': False, 'trialN': 65, 'loaded': True, 'loadedTime': 6134.4000000059605, 'positionName': 'RIGHT', 'positionCoords': [665.6, 155.5], 'bid': 6.43}]",128902.30000001192,1669831210359,salmon,turkeysandwich,7.95,6.43,-1.5200000000000005,turkeysandwich,1581.5,1584,1584.199999988079,True,i,130995.59999999404,2093.2999999821186,1669831212452,2093,HRV,HRV_0150,2022-11-30 18:03:43
66,"[{'imgObject': {}, 'id': 'corn cob', 'src': '/static/foodstim60/corn cob.jpg', 'key': 'u', 'origWidth': 411, 'origHeight': 411, 'width': 411, 'height': 411, 'widthPercent': 0.45, 'rescaleHeight': False, 'trialN': 66, 'loaded': True, 'loadedTime': 5020.300000011921, 'positionName': 'LEFT', 'positionCoords': [203.4, 154.5], 'bid': 2.37}, {'imgObject': {}, 'id': 'apple slices', 'src': '/static/foodstim60/apple slices.jpg', 'key': 'i', 'origWidth': 409, 'origHeight': 410, 'width': 409, 'height': 410, 'widthPercent': 0.45, 'rescaleHeight': False, 'trialN': 66, 'loaded': True, 'loadedTime': 6226.4000000059605, 'positionName': 'RIGHT', 'positionCoords': [665.6, 155], 'bid': 2.23}]",130996.09999999404,1669831212453,corn cob,apple slices,2.37,2.23,-0.14000000000000012,corn cob,1683.5,1689,1689.5,True,u,133197.59999999404,2201.5,1669831214654,2201,HRV,HRV_0150,2022-11-30 18:03:43
67,"[{'imgObject': {}, 'id': 'baked potato', 'src': '/static/foodstim60/baked potato.jpg', 'key': 'u', 'origWidth': 409, 'origHeight': 410, 'width': 409, 'height': 410, 'widthPercent': 0.45, 'rescaleHeight': False, 'trialN': 67, 'loaded': True, 'loadedTime': 5254.800000011921, 'positionName': 'LEFT', 'positionCoords': [205.4, 155], 'bid': 0.53}, {'imgObject': {}, 'id': 'pear', 'src': '/static/foodstim60/pear.jpg', 'key': 'i', 'origWidth': 411, 'origHeight': 410, 'width': 411, 'height': 410, 'widthPercent': 0.45, 'rescaleHeight': False, 'trialN': 67, 'loaded': True, 'loadedTime': 6314.4000000059605, 'positionName': 'RIGHT', 'positionCoords': [665.6, 155], 'bid': 2.31}]",133198.59999999404,1669831214655,baked potato,pear,0.53,2.31,1.78,baked potato,1428.9000000059605,1431,1430.5,True,u,135143.19999998808,1944.5999999940395,1669831216600,1945,HRV,HRV_0150,2022-11-30 18:03:43
68,"[{'imgObject': {}, 'id': 'strawberries', 'src': '/static/foodstim60/strawberries.jpg', 'key': 'u', 'origWidth': 410, 'origHeight': 410, 'width': 410, 'height': 410, 'widthPercent': 0.45, 'rescaleHeight': False, 'trialN': 68, 'loaded': True, 'loadedTime': 6059.0999999940395, 'positionName': 'LEFT', 'positionCoords': [204.4, 155], 'bid': 7.34}, {'imgObject': {}, 'id': 'chickenfingers', 'src': '/static/foodstim60/chickenfingers.jpg', 'key': 'i', 'origWidth': 410, 'origHeight': 410, 'width': 410, 'height': 410, 'widthPercent': 0.45, 'rescaleHeight': False, 'trialN': 68, 'loaded': True, 'loadedTime': 5381.5999999940395, 'positionName': 'RIGHT', 'positionCoords': [665.6, 155], 'bid': 9.7}]",135143.40000000596,1669831216600,strawberries,chickenfingers,7.34,9.7,2.3599999999999994,chickenfingers,723.1999999880791,727,727.4000000059605,True,i,136380.40000000596,1237.0,1669831217837,1237,HRV,HRV_0150,2022-11-30 18:03:43
69,"[{'imgObject': {}, 'id': 'avocado', 'src': '/static/foodstim60/avocado.jpg', 'key': 'u', 'origWidth': 409, 'origHeight': 409, 'width': 409, 'height': 409, 'widthPercent': 0.45, 'rescaleHeight': False, 'trialN': 69, 'loaded': True, 'loadedTime': 5452.4000000059605, 'positionName': 'LEFT', 'positionCoords': [205.4, 155.5], 'bid': 7.54}, {'imgObject': {}, 'id': 'steak', 'src': '/static/foodstim60/steak.jpg', 'key': 'i', 'origWidth': 410, 'origHeight': 410, 'width': 410, 'height': 410, 'widthPercent': 0.45, 'rescaleHeight': False, 'trialN': 69, 'loaded': True, 'loadedTime': 6314.5999999940395, 'positionName': 'RIGHT', 'positionCoords': [665.6, 155], 'bid': 9.7}]",136380.80000001192,1669831217837,avocado,steak,7.54,9.7,2.1599999999999993,steak,961.6999999880791,965,964.5999999940395,True,i,137857.09999999404,1476.2999999821186,1669831219314,1477,HRV,HRV_0150,2022-11-30 18:03:43
70,"[{'imgObject': {}, 'id': 'bagel plain', 'src': '/static/foodstim60/bagel plain.jpg', 'key': 'u', 'origWidth': 410, 'origHeight': 410, 'width': 410, 'height': 410, 'widthPercent': 0.45, 'rescaleHeight': False, 'trialN': 70, 'loaded': True, 'loadedTime': 6063.0999999940395, 'positionName': 'LEFT', 'positionCoords': [204.4, 155], 'bid': 4.15}, {'imgObject': {}, 'id': 'blackbeanswithrice', 'src': '/static/foodstim60/blackbeanswithrice.jpg', 'key': 'i', 'origWidth': 410, 'origHeight': 410, 'width': 410, 'height': 410, 'widthPercent': 0.45, 'rescaleHeight': False, 'trialN': 70, 'loaded': True, 'loadedTime': 5929.5, 'positionName': 'RIGHT', 'positionCoords': [665.6, 155], 'bid': 6.0600000000000005}]",137857.5,1669831219314,bagel plain,blackbeanswithrice,4.15,6.0600000000000005,1.9100000000000001,blackbeanswithrice,890.3000000119209,892,892.0999999940395,True,i,139264.09999999404,1406.5999999940395,1669831220721,1407,HRV,HRV_0150,2022-11-30 18:03:43
71,"[{'imgObject': {}, 'id': 'luckycharms', 'src': '/static/foodstim60/luckycharms.jpg', 'key': 'u', 'origWidth': 410, 'origHeight': 409, 'width': 410, 'height': 409, 'widthPercent': 0.45, 'rescaleHeight': False, 'trialN': 71, 'loaded': True, 'loadedTime': 6138.5, 'positionName': 'LEFT', 'positionCoords': [204.4, 155.5], 'bid': 0.51}, {'imgObject': {}, 'id': 'yogurt no spoon', 'src': '/static/foodstim60/yogurt no spoon.jpg', 'key': 'i', 'origWidth': 411, 'origHeight': 410, 'width': 411, 'height': 410, 'widthPercent': 0.45, 'rescaleHeight': False, 'trialN': 71, 'loaded': True, 'loadedTime': 5388, 'positionName': 'RIGHT', 'positionCoords': [665.6, 155], 'bid': 1.43}]",139264.30000001192,1669831220721,luckycharms,yogurt no spoon,0.51,1.43,0.9199999999999999,yogurt no spoon,1266.7999999821186,1282,1282.3999999761581,True,i,141061.40000000596,1797.0999999940395,1669831222518,1797,HRV,HRV_0150,2022-11-30 18:03:43
72,"[{'imgObject': {}, 'id': 'salmon', 'src': '/static/foodstim60/salmon.jpg', 'key': 'u', 'origWidth': 410, 'origHeight': 409, 'width': 410, 'height': 409, 'widthPercent': 0.45, 'rescaleHeight': False, 'trialN': 72, 'loaded': True, 'loadedTime': 6290.300000011921, 'positionName': 'LEFT', 'positionCoords': [204.4, 155.5], 'bid': 7.95}, {'imgObject': {}, 'id': 'cocktailshrimp', 'src': '/static/foodstim60/cocktailshrimp.jpg', 'key': 'i', 'origWidth': 410, 'origHeight': 410, 'width': 410, 'height': 410, 'widthPercent': 0.45, 'rescaleHeight': False, 'trialN': 72, 'loaded': True, 'loadedTime': 6318.699999988079, 'positionName': 'RIGHT', 'positionCoords': [665.6, 155], 'bid': 7.75}]",141061.90000000596,1669831222518,salmon,cocktailshrimp,7.95,7.75,-0.20000000000000018,cocktailshrimp,1956.199999988079,1960,1959.5,True,i,143536.09999999404,2474.199999988079,1669831224993,2475,HRV,HRV_0150,2022-11-30 18:03:43
73,"[{'imgObject': {}, 'id': 'Tribe humus pita', 'src': '/static/foodstim60/Tribe humus pita.jpg', 'key': 'u', 'origWidth': 411, 'origHeight': 411, 'width': 411, 'height': 411, 'widthPercent': 0.45, 'rescaleHeight': False, 'trialN': 73, 'loaded': True, 'loadedTime': 6328.5999999940395, 'positionName': 'LEFT', 'positionCoords': [203.4, 154.5], 'bid': 2.78}, {'imgObject': {}, 'id': 'blueberries', 'src': '/static/foodstim60/blueberries.jpg', 'key': 'i', 'origWidth': 411, 'origHeight': 411, 'width': 411, 'height': 411, 'widthPercent': 0.45, 'rescaleHeight': False, 'trialN': 73, 'loaded': True, 'loadedTime': 5753.0999999940395, 'positionName': 'RIGHT', 'positionCoords': [665.6, 154.5], 'bid': 2.93}]",143536.5,1669831224993,Tribe humus pita,blueberries,2.78,2.93,0.15000000000000036,Tribe humus pita,1525.5999999940395,1527,1527.300000011921,True,u,145573.5,2037.0,1669831227030,2037,HRV,HRV_0150,2022-11-30 18:03:43
74,"[{'imgObject': {}, 'id': 'sushi w_condiments', 'src': '/static/foodstim60/sushi w_condiments.jpg', 'key': 'u', 'origWidth': 410, 'origHeight': 410, 'width': 410, 'height': 410, 'widthPercent': 0.45, 'rescaleHeight': False, 'trialN': 74, 'loaded': True, 'loadedTime': 5689.0999999940395, 'positionName': 'LEFT', 'positionCoords': [204.4, 155], 'bid': 7.87}, {'imgObject': {}, 'id': 'chicken nuggets2', 'src': '/static/foodstim60/chicken nuggets2.jpg', 'key': 'i', 'origWidth': 410, 'origHeight': 409, 'width': 410, 'height': 409, 'widthPercent': 0.45, 'rescaleHeight': False, 'trialN': 74, 'loaded': True, 'loadedTime': 6302.300000011921, 'positionName': 'RIGHT', 'positionCoords': [665.6, 155.5], 'bid': 9.15}]",145574.40000000596,1669831227031,sushi w_condiments,chicken nuggets2,7.87,9.15,1.2800000000000002,chicken nuggets2,795.5999999940395,800,799.6999999880791,True,i,146938.40000000596,1364.0,1669831228395,1364,HRV,HRV_0150,2022-11-30 18:03:43
75,"[{'imgObject': {}, 'id': 'Tribe humus pita', 'src': '/static/foodstim60/Tribe humus pita.jpg', 'key': 'u', 'origWidth': 411, 'origHeight': 411, 'width': 411, 'height': 411, 'widthPercent': 0.45, 'rescaleHeight': False, 'trialN': 75, 'loaded': True, 'loadedTime': 6328.300000011921, 'positionName': 'LEFT', 'positionCoords': [203.4, 154.5], 'bid': 2.78}, {'imgObject': {}, 'id': 'kiwi', 'src': '/static/foodstim60/kiwi.jpg', 'key': 'i', 'origWidth': 410, 'origHeight': 410, 'width': 410, 'height': 410, 'widthPercent': 0.45, 'rescaleHeight': False, 'trialN': 75, 'loaded': True, 'loadedTime': 6169.300000011921, 'positionName': 'RIGHT', 'positionCoords': [665.6, 155], 'bid': 3.15}]",146938.59999999404,1669831228395,Tribe humus pita,kiwi,2.78,3.15,0.3700000000000001,kiwi,2174.2000000178814,2177,2177.4000000059605,True,i,149627.5,2688.9000000059605,1669831231084,2689,HRV,HRV_0150,2022-11-30 18:03:43
76,"[{'imgObject': {}, 'id': 'orange slices', 'src': '/static/foodstim60/orange slices.jpg', 'key': 'u', 'origWidth': 409, 'origHeight': 410, 'width': 409, 'height': 410, 'widthPercent': 0.45, 'rescaleHeight': False, 'trialN': 76, 'loaded': True, 'loadedTime': 5144.300000011921, 'positionName': 'LEFT', 'positionCoords': [205.4, 155], 'bid': 0.8200000000000001}, {'imgObject': {}, 'id': 'mac & cheese', 'src': '/static/foodstim60/mac & cheese.jpg', 'key': 'i', 'origWidth': 410, 'origHeight': 410, 'width': 410, 'height': 410, 'widthPercent': 0.45, 'rescaleHeight': False, 'trialN': 76, 'loaded': True, 'loadedTime': 5629.800000011921, 'positionName': 'RIGHT', 'positionCoords': [665.6, 155], 'bid': 6.76}]",149627.90000000596,1669831231084,orange slices,mac & cheese,0.8200000000000001,6.76,5.9399999999999995,mac & cheese,1665.5999999940395,1669,1668.7999999821186,True,i,151807.19999998808,2179.2999999821186,1669831233264,2180,HRV,HRV_0150,2022-11-30 18:03:43
77,"[{'imgObject': {}, 'id': 'ice cream sundae 002', 'src': '/static/foodstim60/ice cream sundae 002.jpg', 'key': 'u', 'origWidth': 409, 'origHeight': 409, 'width': 409, 'height': 409, 'widthPercent': 0.45, 'rescaleHeight': False, 'trialN': 77, 'loaded': True, 'loadedTime': 5084.5, 'positionName': 'LEFT', 'positionCoords': [205.4, 155.5], 'bid': 6.2}, {'imgObject': {}, 'id': 'cherries', 'src': '/static/foodstim60/cherries.jpg', 'key': 'i', 'origWidth': 410, 'origHeight': 411, 'width': 410, 'height': 411, 'widthPercent': 0.45, 'rescaleHeight': False, 'trialN': 77, 'loaded': True, 'loadedTime': 4887.0999999940395, 'positionName': 'RIGHT', 'positionCoords': [665.6, 154.5], 'bid': 6.62}]",151807.59999999404,1669831233264,ice cream sundae 002,cherries,6.2,6.62,0.41999999999999993,ice cream sundae 002,1453.5999999940395,1455,1455.0999999940395,True,u,153771.30000001192,1963.7000000178814,1669831235228,1964,HRV,HRV_0150,2022-11-30 18:03:43
78,"[{'imgObject': {}, 'id': 'fruitsalad', 'src': '/static/foodstim60/fruitsalad.jpg', 'key': 'u', 'origWidth': 410, 'origHeight': 410, 'width': 410, 'height': 410, 'widthPercent': 0.45, 'rescaleHeight': False, 'trialN': 78, 'loaded': True, 'loadedTime': 6064.800000011921, 'positionName': 'LEFT', 'positionCoords': [204.4, 155], 'bid': 3.96}, {'imgObject': {}, 'id': 'cherry tomato', 'src': '/static/foodstim60/cherry tomato.jpg', 'key': 'i', 'origWidth': 410, 'origHeight': 410, 'width': 410, 'height': 410, 'widthPercent': 0.45, 'rescaleHeight': False, 'trialN': 78, 'loaded': True, 'loadedTime': 5994.0999999940395, 'positionName': 'RIGHT', 'positionCoords': [665.6, 155], 'bid': 0.31}]",153771.69999998808,1669831235228,fruitsalad,cherry tomato,3.96,0.31,-3.65,fruitsalad,801,802,802.6000000238419,True,u,155085.0,1313.300000011921,1669831236541,1313,HRV,HRV_0150,2022-11-30 18:03:43
79,"[{'imgObject': {}, 'id': 'Tribe humus pita', 'src': '/static/foodstim60/Tribe humus pita.jpg', 'key': 'u', 'origWidth': 411, 'origHeight': 411, 'width': 411, 'height': 411, 'widthPercent': 0.45, 'rescaleHeight': False, 'trialN': 79, 'loaded': True, 'loadedTime': 6327.800000011921, 'positionName': 'LEFT', 'positionCoords': [203.4, 154.5], 'bid': 2.78}, {'imgObject': {}, 'id': 'raspberries', 'src': '/static/foodstim60/raspberries.jpg', 'key': 'i', 'origWidth': 411, 'origHeight': 411, 'width': 411, 'height': 411, 'widthPercent': 0.45, 'rescaleHeight': False, 'trialN': 79, 'loaded': True, 'loadedTime': 6122.800000011921, 'positionName': 'RIGHT', 'positionCoords': [665.6, 154.5], 'bid': 3.81}]",155085.40000000596,1669831236541,Tribe humus pita,raspberries,2.78,3.81,1.0300000000000002,Tribe humus pita,1126.199999988079,1128,1127.7999999821186,True,u,156746.90000000596,1661.5,1669831238203,1662,HRV,HRV_0150,2022-11-30 18:03:43
80,"[{'imgObject': {}, 'id': 'eggsalad', 'src': '/static/foodstim60/eggsalad.jpg', 'key': 'u', 'origWidth': 410, 'origHeight': 409, 'width': 410, 'height': 409, 'widthPercent': 0.45, 'rescaleHeight': False, 'trialN': 80, 'loaded': True, 'loadedTime': 5913.699999988079, 'positionName': 'LEFT', 'positionCoords': [204.4, 155.5], 'bid': 0.46}, {'imgObject': {}, 'id': 'froot loops w milk', 'src': '/static/foodstim60/froot loops w milk.jpg', 'key': 'i', 'origWidth': 410, 'origHeight': 410, 'width': 410, 'height': 410, 'widthPercent': 0.45, 'rescaleHeight': False, 'trialN': 80, 'loaded': True, 'loadedTime': 6275.9000000059605, 'positionName': 'RIGHT', 'positionCoords': [665.6, 155], 'bid': 0.75}]",156747.19999998808,1669831238203,eggsalad,froot loops w milk,0.46,0.75,0.29,froot loops w milk,683.1000000238419,686,686.2000000178814,True,i,157948.69999998808,1201.5,1669831239405,1202,HRV,HRV_0150,2022-11-30 18:03:43
81,"[{'imgObject': {}, 'id': 'luckycharms', 'src': '/static/foodstim60/luckycharms.jpg', 'key': 'u', 'origWidth': 410, 'origHeight': 409, 'width': 410, 'height': 409, 'widthPercent': 0.45, 'rescaleHeight': False, 'trialN': 81, 'loaded': True, 'loadedTime': 6137.5999999940395, 'positionName': 'LEFT', 'positionCoords': [204.4, 155.5], 'bid': 0.51}, {'imgObject': {}, 'id': 'baked potato', 'src': '/static/foodstim60/baked potato.jpg', 'key': 'i', 'origWidth': 409, 'origHeight': 410, 'width': 409, 'height': 410, 'widthPercent': 0.45, 'rescaleHeight': False, 'trialN': 81, 'loaded': True, 'loadedTime': 5254.9000000059605, 'positionName': 'RIGHT', 'positionCoords': [665.6, 155], 'bid': 0.53}]",157949.09999999404,1669831239405,luckycharms,baked potato,0.51,0.53,0.020000000000000018,baked potato,740.4000000059605,742,742.0,True,i,159196.5,1247.4000000059605,1669831240652,1247,HRV,HRV_0150,2022-11-30 18:03:43
82,"[{'imgObject': {}, 'id': 'hotdog w must', 'src': '/static/foodstim60/hotdog w must.jpg', 'key': 'u', 'origWidth': 409, 'origHeight': 409, 'width': 409, 'height': 409, 'widthPercent': 0.45, 'rescaleHeight': False, 'trialN': 82, 'loaded': True, 'loadedTime': 6124.699999988079, 'positionName': 'LEFT', 'positionCoords': [205.4, 155.5], 'bid': 0.68}, {'imgObject': {}, 'id': 'fried eggs', 'src': '/static/foodstim60/fried eggs.jpg', 'key': 'i', 'origWidth': 410, 'origHeight': 410, 'width': 410, 'height': 410, 'widthPercent': 0.45, 'rescaleHeight': False, 'trialN': 82, 'loaded': True, 'loadedTime': 4955.199999988079, 'positionName': 'RIGHT', 'positionCoords': [665.6, 155], 'bid': 0.53}]",159196.90000000596,1669831240653,hotdog w must,fried eggs,0.68,0.53,-0.15000000000000002,hotdog w must,1255.2999999821186,1258,1257.699999988079,True,u,160968.80000001192,1771.9000000059605,1669831242425,1772,HRV,HRV_0150,2022-11-30 18:03:43
83,"[{'imgObject': {}, 'id': 'seaweed', 'src': '/static/foodstim60/seaweed.jpg', 'key': 'u', 'origWidth': 410, 'origHeight': 410, 'width': 410, 'height': 410, 'widthPercent': 0.45, 'rescaleHeight': False, 'trialN': 83, 'loaded': True, 'loadedTime': 5635.199999988079, 'positionName': 'LEFT', 'positionCoords': [204.4, 155], 'bid': 0.12}, {'imgObject': {}, 'id': 'luckycharms', 'src': '/static/foodstim60/luckycharms.jpg', 'key': 'i', 'origWidth': 410, 'origHeight': 409, 'width': 410, 'height': 409, 'widthPercent': 0.45, 'rescaleHeight': False, 'trialN': 83, 'loaded': True, 'loadedTime': 6138.5999999940395, 'positionName': 'RIGHT', 'positionCoords': [665.6, 155.5], 'bid': 0.51}]",160969.19999998808,1669831242425,seaweed,luckycharms,0.12,0.51,0.39,luckycharms,1737.2000000178814,1740,1739.7000000178814,True,i,163225.09999999404,2255.9000000059605,1669831244681,2256,HRV,HRV_0150,2022-11-30 18:03:43
84,"[{'imgObject': {}, 'id': 'granola w milk', 'src': '/static/foodstim60/granola w milk.jpg', 'key': 'u', 'origWidth': 410, 'origHeight': 410, 'width': 410, 'height': 410, 'widthPercent': 0.45, 'rescaleHeight': False, 'trialN': 84, 'loaded': True, 'loadedTime': 6285, 'positionName': 'LEFT', 'positionCoords': [204.4, 155], 'bid': 0.81}, {'imgObject': {}, 'id': 'roastedpotatoes', 'src': '/static/foodstim60/roastedpotatoes.jpg', 'key': 'i', 'origWidth': 409, 'origHeight': 410, 'width': 409, 'height': 410, 'widthPercent': 0.45, 'rescaleHeight': False, 'trialN': 84, 'loaded': True, 'loadedTime': 6126.199999988079, 'positionName': 'RIGHT', 'positionCoords': [665.6, 155], 'bid': 1.75}]",163225.5,1669831244682,granola w milk,roastedpotatoes,0.81,1.75,0.94,granola w milk,1558.199999988079,1559,1559.800000011921,True,u,165300.59999999404,2075.0999999940395,1669831246757,2075,HRV,HRV_0150,2022-11-30 18:03:43
85,"[{'imgObject': {}, 'id': 'raspberries', 'src': '/static/foodstim60/raspberries.jpg', 'key': 'u', 'origWidth': 411, 'origHeight': 411, 'width': 411, 'height': 411, 'widthPercent': 0.45, 'rescaleHeight': False, 'trialN': 85, 'loaded': True, 'loadedTime': 6123, 'positionName': 'LEFT', 'positionCoords': [203.4, 154.5], 'bid': 3.81}, {'imgObject': {}, 'id': 'seaweed', 'src': '/static/foodstim60/seaweed.jpg', 'key': 'i', 'origWidth': 410, 'origHeight': 410, 'width': 410, 'height': 410, 'widthPercent': 0.45, 'rescaleHeight': False, 'trialN': 85, 'loaded': True, 'loadedTime': 5633.5, 'positionName': 'RIGHT', 'positionCoords': [665.6, 155], 'bid': 0.12}]",165300.90000000596,1669831246757,raspberries,seaweed,3.81,0.12,-3.69,raspberries,776.0999999940395,779,779.1999999880791,True,u,166598.30000001192,1297.4000000059605,1669831248054,1297,HRV,HRV_0150,2022-11-30 18:03:43
86,"[{'imgObject': {}, 'id': 'sushi w_condiments', 'src': '/static/foodstim60/sushi w_condiments.jpg', 'key': 'u', 'origWidth': 410, 'origHeight': 410, 'width': 410, 'height': 410, 'widthPercent': 0.45, 'rescaleHeight': False, 'trialN': 86, 'loaded': True, 'loadedTime': 5689.9000000059605, 'positionName': 'LEFT', 'positionCoords': [204.4, 155], 'bid': 7.87}, {'imgObject': {}, 'id': 'lox', 'src': '/static/foodstim60/lox.jpg', 'key': 'i', 'origWidth': 410, 'origHeight': 411, 'width': 410, 'height': 411, 'widthPercent': 0.45, 'rescaleHeight': False, 'trialN': 86, 'loaded': True, 'loadedTime': 4800.199999988079, 'positionName': 'RIGHT', 'positionCoords': [665.6, 154.5], 'bid': 6.3100000000000005}]",166598.69999998808,1669831248055,sushi w_condiments,lox,7.87,6.3100000000000005,-1.5599999999999996,sushi w_condiments,933.7000000178814,935,935.4000000059605,True,u,168041.5,1442.800000011921,1669831249497,1442,HRV,HRV_0150,2022-11-30 18:03:43
87,"[{'imgObject': {}, 'id': 'mango', 'src': '/static/foodstim60/mango.jpg', 'key': 'u', 'origWidth': 411, 'origHeight': 411, 'width': 411, 'height': 411, 'widthPercent': 0.45, 'rescaleHeight': False, 'trialN': 87, 'loaded': True, 'loadedTime': 5756.5, 'positionName': 'LEFT', 'positionCoords': [203.4, 154.5], 'bid': 7.26}, {'imgObject': {}, 'id': 'rigatoni and sauce', 'src': '/static/foodstim60/rigatoni and sauce.jpg', 'key': 'i', 'origWidth': 410, 'origHeight': 411, 'width': 410, 'height': 411, 'widthPercent': 0.45, 'rescaleHeight': False, 'trialN': 87, 'loaded': True, 'loadedTime': 6130, 'positionName': 'RIGHT', 'positionCoords': [665.6, 154.5], 'bid': 6.48}]",168042.30000001192,1669831249498,mango,rigatoni and sauce,7.26,6.48,-0.7799999999999994,mango,1421.2999999821186,1423,1423.0999999940395,True,u,169980.40000000596,1938.0999999940395,1669831251437,1939,HRV,HRV_0150,2022-11-30 18:03:43
88,"[{'imgObject': {}, 'id': 'corn cob', 'src': '/static/foodstim60/corn cob.jpg', 'key': 'u', 'origWidth': 411, 'origHeight': 411, 'width': 411, 'height': 411, 'widthPercent': 0.45, 'rescaleHeight': False, 'trialN': 88, 'loaded': True, 'loadedTime': 5020.699999988079, 'positionName': 'LEFT', 'positionCoords': [203.4, 154.5], 'bid': 2.37}, {'imgObject': {}, 'id': 'bagel plain', 'src': '/static/foodstim60/bagel plain.jpg', 'key': 'i', 'origWidth': 410, 'origHeight': 410, 'width': 410, 'height': 410, 'widthPercent': 0.45, 'rescaleHeight': False, 'trialN': 88, 'loaded': True, 'loadedTime': 6060, 'positionName': 'RIGHT', 'positionCoords': [665.6, 155], 'bid': 4.15}]",169980.90000000596,1669831251437,corn cob,bagel plain,2.37,4.15,1.7800000000000002,bagel plain,2179.0999999940395,2181,2181.0,True,i,172712.0,2731.0999999940395,1669831254168,2731,HRV,HRV_0150,2022-11-30 18:03:43
89,"[{'imgObject': {}, 'id': 'mashed potato', 'src': '/static/foodstim60/mashed potato.jpg', 'key': 'u', 'origWidth': 409, 'origHeight': 409, 'width': 409, 'height': 409, 'widthPercent': 0.45, 'rescaleHeight': False, 'trialN': 89, 'loaded': True, 'loadedTime': 6273.0999999940395, 'positionName': 'LEFT', 'positionCoords': [205.4, 155.5], 'bid': 6.21}, {'imgObject': {}, 'id': 'Grapes', 'src': '/static/foodstim60/Grapes.jpg', 'key': 'i', 'origWidth': 411, 'origHeight': 411, 'width': 411, 'height': 411, 'widthPercent': 0.45, 'rescaleHeight': False, 'trialN': 89, 'loaded': True, 'loadedTime': 6299.4000000059605, 'positionName': 'RIGHT', 'positionCoords': [665.6, 154.5], 'bid': 3.43}]",172712.19999998808,1669831254168,mashed potato,Grapes,6.21,3.43,-2.78,mashed potato,723.2000000178814,730,729.7000000178814,True,u,173947.59999999404,1235.4000000059605,1669831255404,1236,HRV,HRV_0150,2022-11-30 18:03:43
90,"[{'imgObject': {}, 'id': 'kiwi', 'src': '/static/foodstim60/kiwi.jpg', 'key': 'u', 'origWidth': 410, 'origHeight': 410, 'width': 410, 'height': 410, 'widthPercent': 0.45, 'rescaleHeight': False, 'trialN': 90, 'loaded': True, 'loadedTime': 6168.199999988079, 'positionName': 'LEFT', 'positionCoords': [204.4, 155], 'bid': 3.15}, {'imgObject': {}, 'id': 'ice cream sundae 002', 'src': '/static/foodstim60/ice cream sundae 002.jpg', 'key': 'i', 'origWidth': 409, 'origHeight': 409, 'width': 409, 'height': 409, 'widthPercent': 0.45, 'rescaleHeight': False, 'trialN': 90, 'loaded': True, 'loadedTime': 5085.199999988079, 'positionName': 'RIGHT', 'positionCoords': [665.6, 155.5], 'bid': 6.2}]",176902.59999999404,1669831258359,kiwi,ice cream sundae 002,3.15,6.2,3.0500000000000003,ice cream sundae 002,1454,1456,1456.4000000059605,True,i,178876.0,1973.4000000059605,1669831260332,1973,HRV,HRV_0150,2022-11-30 18:03:43
91,"[{'imgObject': {}, 'id': 'corn cob', 'src': '/static/foodstim60/corn cob.jpg', 'key': 'u', 'origWidth': 411, 'origHeight': 411, 'width': 411, 'height': 411, 'widthPercent': 0.45, 'rescaleHeight': False, 'trialN': 91, 'loaded': True, 'loadedTime': 5017.199999988079, 'positionName': 'LEFT', 'positionCoords': [203.4, 154.5], 'bid': 2.37}, {'imgObject': {}, 'id': 'sushi w_condiments', 'src': '/static/foodstim60/sushi w_condiments.jpg', 'key': 'i', 'origWidth': 410, 'origHeight': 410, 'width': 410, 'height': 410, 'widthPercent': 0.45, 'rescaleHeight': False, 'trialN': 91, 'loaded': True, 'loadedTime': 5687.4000000059605, 'positionName': 'RIGHT', 'positionCoords': [665.6, 155], 'bid': 7.87}]",178876.59999999404,1669831260333,corn cob,sushi w_condiments,2.37,7.87,5.5,sushi w_condiments,739.5,741,741.0,True,i,180135.5,1258.9000000059605,1669831261591,1258,HRV,HRV_0150,2022-11-30 18:03:43
92,"[{'imgObject': {}, 'id': 'omelette', 'src': '/static/foodstim60/omelette.jpg', 'key': 'u', 'origWidth': 410, 'origHeight': 409, 'width': 410, 'height': 409, 'widthPercent': 0.45, 'rescaleHeight': False, 'trialN': 92, 'loaded': True, 'loadedTime': 5197.800000011921, 'positionName': 'LEFT', 'positionCoords': [204.4, 155.5], 'bid': 0.32}, {'imgObject': {}, 'id': 'roastedpotatoes', 'src': '/static/foodstim60/roastedpotatoes.jpg', 'key': 'i', 'origWidth': 409, 'origHeight': 410, 'width': 409, 'height': 410, 'widthPercent': 0.45, 'rescaleHeight': False, 'trialN': 92, 'loaded': True, 'loadedTime': 6128.0999999940395, 'positionName': 'RIGHT', 'positionCoords': [665.6, 155], 'bid': 1.75}]",180136.0,1669831261592,omelette,roastedpotatoes,0.32,1.75,1.43,roastedpotatoes,939.4000000059605,941,940.9000000059605,True,i,181596.5,1460.5,1669831263052,1460,HRV,HRV_0150,2022-11-30 18:03:43
93,"[{'imgObject': {}, 'id': 'pear', 'src': '/static/foodstim60/pear.jpg', 'key': 'u', 'origWidth': 411, 'origHeight': 410, 'width': 411, 'height': 410, 'widthPercent': 0.45, 'rescaleHeight': False, 'trialN': 93, 'loaded': True, 'loadedTime': 6305.699999988079, 'positionName': 'LEFT', 'positionCoords': [203.4, 155], 'bid': 2.31}, {'imgObject': {}, 'id': 'banana', 'src': '/static/foodstim60/banana.jpg', 'key': 'i', 'origWidth': 410, 'origHeight': 410, 'width': 410, 'height': 410, 'widthPercent': 0.45, 'rescaleHeight': False, 'trialN': 93, 'loaded': True, 'loadedTime': 6242.5999999940395, 'positionName': 'RIGHT', 'positionCoords': [665.6, 155], 'bid': 1.79}]",181596.80000001192,1669831263053,pear,banana,2.31,1.79,-0.52,banana,972.8999999761581,974,974.3999999761581,True,i,183089.5,1492.699999988079,1669831264546,1493,HRV,HRV_0150,2022-11-30 18:03:43
94,"[{'imgObject': {}, 'id': 'cocktailshrimp', 'src': '/static/foodstim60/cocktailshrimp.jpg', 'key': 'u', 'origWidth': 410, 'origHeight': 410, 'width': 410, 'height': 410, 'widthPercent': 0.45, 'rescaleHeight': False, 'trialN': 94, 'loaded': True, 'loadedTime': 6317.300000011921, 'positionName': 'LEFT', 'positionCoords': [204.4, 155], 'bid': 7.75}, {'imgObject': {}, 'id': 'sushi w_condiments', 'src': '/static/foodstim60/sushi w_condiments.jpg', 'key': 'i', 'origWidth': 410, 'origHeight': 410, 'width': 410, 'height': 410, 'widthPercent': 0.45, 'rescaleHeight': False, 'trialN': 94, 'loaded': True, 'loadedTime': 5690.4000000059605, 'positionName': 'RIGHT', 'positionCoords': [665.6, 155], 'bid': 7.87}]",183089.90000000596,1669831264546,cocktailshrimp,sushi w_condiments,7.75,7.87,0.1200000000000001,cocktailshrimp,1826.7999999821186,1829,1829.0,True,u,185429.59999999404,2339.699999988079,1669831266886,2340,HRV,HRV_0150,2022-11-30 18:03:43
95,"[{'imgObject': {}, 'id': 'rigatoni and sauce', 'src': '/static/foodstim60/rigatoni and sauce.jpg', 'key': 'u', 'origWidth': 410, 'origHeight': 411, 'width': 410, 'height': 411, 'widthPercent': 0.45, 'rescaleHeight': False, 'trialN': 95, 'loaded': True, 'loadedTime': 6131.9000000059605, 'positionName': 'LEFT', 'positionCoords': [204.4, 154.5], 'bid': 6.48}, {'imgObject': {}, 'id': 'olives', 'src': '/static/foodstim60/olives.jpg', 'key': 'i', 'origWidth': 410, 'origHeight': 410, 'width': 410, 'height': 410, 'widthPercent': 0.45, 'rescaleHeight': False, 'trialN': 95, 'loaded': True, 'loadedTime': 5992, 'positionName': 'RIGHT', 'positionCoords': [665.6, 155], 'bid': 6.5600000000000005}]",185430.09999999404,1669831266886,rigatoni and sauce,olives,6.48,6.5600000000000005,0.08000000000000007,olives,1212.7000000178814,1214,1214.2000000178814,True,i,187164.80000001192,1734.7000000178814,1669831268621,1735,HRV,HRV_0150,2022-11-30 18:03:43
96,"[{'imgObject': {}, 'id': 'hashbrowns', 'src': '/static/foodstim60/hashbrowns.jpg', 'key': 'u', 'origWidth': 411, 'origHeight': 410, 'width': 411, 'height': 410, 'widthPercent': 0.45, 'rescaleHeight': False, 'trialN': 96, 'loaded': True, 'loadedTime': 5902.5, 'positionName': 'LEFT', 'positionCoords': [203.4, 155], 'bid': 0.35}, {'imgObject': {}, 'id': 'cheerios', 'src': '/static/foodstim60/cheerios.jpg', 'key': 'i', 'origWidth': 409, 'origHeight': 410, 'width': 409, 'height': 410, 'widthPercent': 0.45, 'rescaleHeight': False, 'trialN': 96, 'loaded': True, 'loadedTime': 5944.5, 'positionName': 'RIGHT', 'positionCoords': [665.6, 155], 'bid': 1.78}]",187165.30000001192,1669831268621,hashbrowns,cheerios,0.35,1.78,1.4300000000000002,cheerios,1263.2999999821186,1265,1264.8999999761581,True,i,188939.0,1773.699999988079,1669831270395,1774,HRV,HRV_0150,2022-11-30 18:03:43
97,"[{'imgObject': {}, 'id': 'veggieswithdip', 'src': '/static/foodstim60/veggieswithdip.jpg', 'key': 'u', 'origWidth': 409, 'origHeight': 409, 'width': 409, 'height': 409, 'widthPercent': 0.45, 'rescaleHeight': False, 'trialN': 97, 'loaded': True, 'loadedTime': 5510.300000011921, 'positionName': 'LEFT', 'positionCoords': [205.4, 155.5], 'bid': 7.43}, {'imgObject': {}, 'id': 'strawberries', 'src': '/static/foodstim60/strawberries.jpg', 'key': 'i', 'origWidth': 410, 'origHeight': 410, 'width': 410, 'height': 410, 'widthPercent': 0.45, 'rescaleHeight': False, 'trialN': 97, 'loaded': True, 'loadedTime': 6058.5, 'positionName': 'RIGHT', 'positionCoords': [665.6, 155], 'bid': 7.34}]",188940.30000001192,1669831270396,veggieswithdip,strawberries,7.43,7.34,-0.08999999999999986,veggieswithdip,724.6999999880791,727,726.2999999821186,True,u,190181.5,1241.199999988079,1669831271637,1241,HRV,HRV_0150,2022-11-30 18:03:43
98,"[{'imgObject': {}, 'id': 'shreddedwheatwithmilk', 'src': '/static/foodstim60/shreddedwheatwithmilk.jpg', 'key': 'u', 'origWidth': 410, 'origHeight': 410, 'width': 410, 'height': 410, 'widthPercent': 0.45, 'rescaleHeight': False, 'trialN': 98, 'loaded': True, 'loadedTime': 5148, 'positionName': 'LEFT', 'positionCoords': [204.4, 155], 'bid': 1.01}, {'imgObject': {}, 'id': 'rigatoni', 'src': '/static/foodstim60/rigatoni.jpg', 'key': 'i', 'origWidth': 411, 'origHeight': 411, 'width': 411, 'height': 411, 'widthPercent': 0.45, 'rescaleHeight': False, 'trialN': 98, 'loaded': True, 'loadedTime': 5905.5999999940395, 'positionName': 'RIGHT', 'positionCoords': [665.6, 154.5], 'bid': 0.92}]",190181.80000001192,1669831271638,shreddedwheatwithmilk,rigatoni,1.01,0.92,-0.08999999999999997,shreddedwheatwithmilk,1467.5,1469,1469.0999999940395,True,u,192155.69999998808,1973.8999999761581,1669831273612,1974,HRV,HRV_0150,2022-11-30 18:03:43
99,"[{'imgObject': {}, 'id': 'rigatoni', 'src': '/static/foodstim60/rigatoni.jpg', 'key': 'u', 'origWidth': 411, 'origHeight': 411, 'width': 411, 'height': 411, 'widthPercent': 0.45, 'rescaleHeight': False, 'trialN': 99, 'loaded': True, 'loadedTime': 5902.800000011921, 'positionName': 'LEFT', 'positionCoords': [203.4, 154.5], 'bid': 0.92}, {'imgObject': {}, 'id': 'cantaloupe', 'src': '/static/foodstim60/cantaloupe.jpg', 'key': 'i', 'origWidth': 409, 'origHeight': 409, 'width': 409, 'height': 409, 'widthPercent': 0.45, 'rescaleHeight': False, 'trialN': 99, 'loaded': True, 'loadedTime': 6294.800000011921, 'positionName': 'RIGHT', 'positionCoords': [665.6, 155.5], 'bid': 3.81}]",192156.09999999404,1669831273612,rigatoni,cantaloupe,0.92,3.81,2.89,cantaloupe,949.0999999940395,954,953.5999999940395,True,i,193642.80000001192,1486.7000000178814,1669831275099,1487,HRV,HRV_0150,2022-11-30 18:03:43
100,"[{'imgObject': {}, 'id': 'tacos', 'src': '/static/foodstim60/tacos.jpg', 'key': 'u', 'origWidth': 411, 'origHeight': 411, 'width': 411, 'height': 411, 'widthPercent': 0.45, 'rescaleHeight': False, 'trialN': 100, 'loaded': True, 'loadedTime': 6144.0999999940395, 'positionName': 'LEFT', 'positionCoords': [203.4, 154.5], 'bid': 7.03}, {'imgObject': {}, 'id': 'turkeysandwich', 'src': '/static/foodstim60/turkeysandwich.jpg', 'key': 'i', 'origWidth': 409, 'origHeight': 409, 'width': 409, 'height': 409, 'widthPercent': 0.45, 'rescaleHeight': False, 'trialN': 100, 'loaded': True, 'loadedTime': 6132.0999999940395, 'positionName': 'RIGHT', 'positionCoords': [665.6, 155.5], 'bid': 6.43}]",193656.90000000596,1669831275113,tacos,turkeysandwich,7.03,6.43,-0.6000000000000005,turkeysandwich,1380.5999999940395,1382,1382.199999988079,True,i,195548.59999999404,1891.699999988079,1669831277005,1892,HRV,HRV_0150,2022-11-30 18:03:43
101,"[{'imgObject': {}, 'id': 'apple slices', 'src': '/static/foodstim60/apple slices.jpg', 'key': 'u', 'origWidth': 409, 'origHeight': 410, 'width': 409, 'height': 410, 'widthPercent': 0.45, 'rescaleHeight': False, 'trialN': 101, 'loaded': True, 'loadedTime': 6229, 'positionName': 'LEFT', 'positionCoords': [205.4, 155], 'bid': 2.23}, {'imgObject': {}, 'id': 'shreddedwheatwithmilk', 'src': '/static/foodstim60/shreddedwheatwithmilk.jpg', 'key': 'i', 'origWidth': 410, 'origHeight': 410, 'width': 410, 'height': 410, 'widthPercent': 0.45, 'rescaleHeight': False, 'trialN': 101, 'loaded': True, 'loadedTime': 5151.699999988079, 'positionName': 'RIGHT', 'positionCoords': [665.6, 155], 'bid': 1.01}]",195549.0,1669831277005,apple slices,shreddedwheatwithmilk,2.23,1.01,-1.22,apple slices,1669.0999999940395,1671,1670.699999988079,True,u,197738.59999999404,2189.5999999940395,1669831279195,2190,HRV,HRV_0150,2022-11-30 18:03:43
102,"[{'imgObject': {}, 'id': 'ice cream sundae 002', 'src': '/static/foodstim60/ice cream sundae 002.jpg', 'key': 'u', 'origWidth': 409, 'origHeight': 409, 'width': 409, 'height': 409, 'widthPercent': 0.45, 'rescaleHeight': False, 'trialN': 102, 'loaded': True, 'loadedTime': 5086.300000011921, 'positionName': 'LEFT', 'positionCoords': [205.4, 155.5], 'bid': 6.2}, {'imgObject': {}, 'id': 'avocado', 'src': '/static/foodstim60/avocado.jpg', 'key': 'i', 'origWidth': 409, 'origHeight': 409, 'width': 409, 'height': 409, 'widthPercent': 0.45, 'rescaleHeight': False, 'trialN': 102, 'loaded': True, 'loadedTime': 5506.9000000059605, 'positionName': 'RIGHT', 'positionCoords': [665.6, 155.5], 'bid': 7.54}]",197740.19999998808,1669831279196,ice cream sundae 002,avocado,6.2,7.54,1.3399999999999999,avocado,1424.7000000178814,1426,1426.300000011921,True,i,199679.09999999404,1938.9000000059605,1669831281135,1939,HRV,HRV_0150,2022-11-30 18:03:43
103,"[{'imgObject': {}, 'id': 'banana', 'src': '/static/foodstim60/banana.jpg', 'key': 'u', 'origWidth': 410, 'origHeight': 410, 'width': 410, 'height': 410, 'widthPercent': 0.45, 'rescaleHeight': False, 'trialN': 103, 'loaded': True, 'loadedTime': 6242.199999988079, 'positionName': 'LEFT', 'positionCoords': [204.4, 155], 'bid': 1.79}, {'imgObject': {}, 'id': 'apple slices', 'src': '/static/foodstim60/apple slices.jpg', 'key': 'i', 'origWidth': 409, 'origHeight': 410, 'width': 409, 'height': 410, 'widthPercent': 0.45, 'rescaleHeight': False, 'trialN': 103, 'loaded': True, 'loadedTime': 6229.0999999940395, 'positionName': 'RIGHT', 'positionCoords': [665.6, 155], 'bid': 2.23}]",199679.5,1669831281135,banana,apple slices,1.79,2.23,0.43999999999999995,banana,2285.5,2288,2287.0,True,u,202485.5,2806.0,1669831283942,2807,HRV,HRV_0150,2022-11-30 18:03:43
104,"[{'imgObject': {}, 'id': 'cheerios', 'src': '/static/foodstim60/cheerios.jpg', 'key': 'u', 'origWidth': 409, 'origHeight': 410, 'width': 409, 'height': 410, 'widthPercent': 0.45, 'rescaleHeight': False, 'trialN': 104, 'loaded': True, 'loadedTime': 5945, 'positionName': 'LEFT', 'positionCoords': [205.4, 155], 'bid': 1.78}, {'imgObject': {}, 'id': 'hotdog w must', 'src': '/static/foodstim60/hotdog w must.jpg', 'key': 'i', 'origWidth': 409, 'origHeight': 409, 'width': 409, 'height': 409, 'widthPercent': 0.45, 'rescaleHeight': False, 'trialN': 104, 'loaded': True, 'loadedTime': 6125, 'positionName': 'RIGHT', 'positionCoords': [665.6, 155.5], 'bid': 0.68}]",202486.09999999404,1669831283942,cheerios,hotdog w must,1.78,0.68,-1.1,cheerios,1170.0999999940395,1172,1171.7000000178814,True,u,204164.09999999404,1678.0,1669831285620,1678,HRV,HRV_0150,2022-11-30 18:03:43
105,"[{'imgObject': {}, 'id': 'veggieswithdip', 'src': '/static/foodstim60/veggieswithdip.jpg', 'key': 'u', 'origWidth': 409, 'origHeight': 409, 'width': 409, 'height': 409, 'widthPercent': 0.45, 'rescaleHeight': False, 'trialN': 105, 'loaded': True, 'loadedTime': 5512.199999988079, 'positionName': 'LEFT', 'positionCoords': [205.4, 155.5], 'bid': 7.43}, {'imgObject': {}, 'id': 'rigatoni and sauce', 'src': '/static/foodstim60/rigatoni and sauce.jpg', 'key': 'i', 'origWidth': 410, 'origHeight': 411, 'width': 410, 'height': 411, 'widthPercent': 0.45, 'rescaleHeight': False, 'trialN': 105, 'loaded': True, 'loadedTime': 6128.800000011921, 'positionName': 'RIGHT', 'positionCoords': [665.6, 154.5], 'bid': 6.48}]",204164.40000000596,1669831285620,veggieswithdip,rigatoni and sauce,7.43,6.48,-0.9499999999999993,NaN,NaN,NaN,,False,NaN,208187.80000001192,4023.4000000059605,1669831289644,4024,HRV,HRV_0150,2022-11-30 18:03:43
106,"[{'imgObject': {}, 'id': 'sweetpotato', 'src': '/static/foodstim60/sweetpotato.jpg', 'key': 'u', 'origWidth': 410, 'origHeight': 410, 'width': 410, 'height': 410, 'widthPercent': 0.45, 'rescaleHeight': False, 'trialN': 106, 'loaded': True, 'loadedTime': 5573.5999999940395, 'positionName': 'LEFT', 'positionCoords': [204.4, 155], 'bid': 0.32}, {'imgObject': {}, 'id': 'popsicles', 'src': '/static/foodstim60/popsicles.jpg', 'key': 'i', 'origWidth': 410, 'origHeight': 410, 'width': 410, 'height': 410, 'widthPercent': 0.45, 'rescaleHeight': False, 'trialN': 106, 'loaded': True, 'loadedTime': 6230.0999999940395, 'positionName': 'RIGHT', 'positionCoords': [665.6, 155], 'bid': 3.98}]",208188.19999998808,1669831289644,sweetpotato,popsicles,0.32,3.98,3.66,popsicles,1045.1000000238419,1048,1047.6000000238419,True,i,209744.80000001192,1556.6000000238419,1669831291201,1557,HRV,HRV_0150,2022-11-30 18:03:43
107,"[{'imgObject': {}, 'id': 'granola w milk', 'src': '/static/foodstim60/granola w milk.jpg', 'key': 'u', 'origWidth': 410, 'origHeight': 410, 'width': 410, 'height': 410, 'widthPercent': 0.45, 'rescaleHeight': False, 'trialN': 107, 'loaded': True, 'loadedTime': 6280, 'positionName': 'LEFT', 'positionCoords': [204.4, 155], 'bid': 0.81}, {'imgObject': {}, 'id': 'cherries', 'src': '/static/foodstim60/cherries.jpg', 'key': 'i', 'origWidth': 410, 'origHeight': 411, 'width': 410, 'height': 411, 'widthPercent': 0.45, 'rescaleHeight': False, 'trialN': 107, 'loaded': True, 'loadedTime': 4882.699999988079, 'positionName': 'RIGHT', 'positionCoords': [665.6, 154.5], 'bid': 6.62}]",209745.09999999404,1669831291201,granola w milk,cherries,0.81,6.62,5.8100000000000005,cherries,1747.4000000059605,1749,1749.2000000178814,True,i,212000.40000000596,2255.300000011921,1669831293456,2255,HRV,HRV_0150,2022-11-30 18:03:43
108,"[{'imgObject': {}, 'id': 'burger', 'src': '/static/foodstim60/burger.jpg', 'key': 'u', 'origWidth': 409, 'origHeight': 409, 'width': 409, 'height': 409, 'widthPercent': 0.45, 'rescaleHeight': False, 'trialN': 108, 'loaded': True, 'loadedTime': 5807.9000000059605, 'positionName': 'LEFT', 'positionCoords': [205.4, 155.5], 'bid': 3.5}, {'imgObject': {}, 'id': 'lox', 'src': '/static/foodstim60/lox.jpg', 'key': 'i', 'origWidth': 410, 'origHeight': 411, 'width': 410, 'height': 411, 'widthPercent': 0.45, 'rescaleHeight': False, 'trialN': 108, 'loaded': True, 'loadedTime': 4806.199999988079, 'positionName': 'RIGHT', 'positionCoords': [665.6, 154.5], 'bid': 6.3100000000000005}]",212000.80000001192,1669831293457,burger,lox,3.5,6.3100000000000005,2.8100000000000005,burger,1525.699999988079,1528,1528.3999999761581,True,u,214040.40000000596,2039.5999999940395,1669831295496,2039,HRV,HRV_0150,2022-11-30 18:03:43
