success,trial_type,trial_index,time_elapsed,internal_node_id,missTrial,missTrialMsg,Block,TrialNumber,TrialTime,trialTimeDiff,FPS_avg,FPS_med,FPS_mode,TrialDur,winResizeTime,rt,block,button_pressed,MotCoh,MotDir,ColCoh,Color,ChoiceKey,Choice,Accuracy,RT,nFrames,FPS,PPD,onsetDelay,fullScreenExitTime,canvCenter,TrialType,Score,BlockTrial,stimulus,button_labels,exp,subjectId,date
True,fullscreen,0,10540,0.0-0.0,True,undefinedblurEvent ,0.0,0.0,,,,,,,,,,,,,,,,,,,,,,,,,,,,,,HRV,HRV_0150,2022-11-30 18:32:22
,wl-check-fps,1,15609,0.0-1.0,,,0.0,1.0,"[12189, 12215.1, 12220.8, 12222.5, 12236.9, 12253.2, 12270.2, 12287.1, 12303.7, 12319, 12336.4, 12359, 12412, 12443.9, 12455.4, 12471.3, 12487.7, 12504.3, 12521.6, 12538, 12555.6, 12571.5, 12587.8, 12604.9, 12621.7, 12638.2, 12654.3, 12671.6, 12687.9, 12704.7, 12722, 12737.8, 12754.6, 12771.8, 12788.4, 12806.5, 12822.5, 12837.9, 12854.6, 12871.8, 12917.1, 12921.7, 12950, 12955.7, 12971, 13004.7, 13010.3, 13019.8, 13049, 13055.7, 13072.3, 13086.3, 13104, 13119.6, 13136.8, 13153.3, 13170, 13186.6, 13203.4, 13220, 13236.7, 13253.4, 13270, 13286.8, 13304.1, 13320.7, 13336.8, 13353.9, 13371.3, 13387.3, 13404.7, 13422.1, 13437.4, 13454, 13471.5, 13487.4, 13504.2, 13521.6, 13536.9, 13553.8, 13571, 13587.5, 13603.6, 13620, 13637, 13653.8, 13670.2, 13688.1, 13704.9, 13722.2, 13738.3, 13755, 13772.1, 13788.4, 13805.8, 13823.2, 13839, 13855.3, 13872, 13888.4, 13904.9, 13922.1, 13938.5, 13955.9, 13972.3, 13988.7, 14005, 14022.2, 14039.1, 14055.9, 14072.2, 14088.4, 14107.4, 14122.4, 14139.4, 14155.3, 14172.3, 14188.8, 14205.5, 14222.4, 14239.9, 14255.8, 14273, 14289, 14306.1, 14322.8, 14340.2, 14355.7, 14372.5, 14389, 14405.8, 14422.8, 14439.1, 14455.9, 14472.7, 14489.6, 14506.3, 14524, 14539.5, 14555.9, 14572.6, 14589.2, 14606.3, 14622.8, 14639.6, 14656, 14672.8, 14689.9, 14706.5, 14724.1, 14740, 14756, 14772.8, 14789.4, 14806.4, 14822.9, 14839.5, 14856.3, 14872.7, 14902.8, 14905.9, 14934.6, 14944.5, 14955.9, 14986.3, 14989.3, 15016.1, 15024.4, 15039.9, 15057.6, 15075.1, 15089.9, 15106.8, 15123.1, 15140.2, 15156.5, 15173.1, 15191, 15207.2, 15223.1, 15240, 15256.6, 15274.1, 15293.3, 15307.2, 15323.1, 15340.1, 15356.6, 15373.2, 15390.1, 15406.8, 15424, 15441.5, 15457.1, 15473.6, 15491.4, 15509.1, 15523.4, 15540.2, 15556.9, 15573.4, 15590.3, 15607.1, 15623.5, 15641.4, 15658.4, 15674, 15690.3, 15707.1, 15724.2, 15740.7, 15757.1, 15773.7, 15791, 15808, 15824.8, 15844.5, 15858.1, 15874, 15893.2, 15910.3, 15928.3, 15943.3, 15958.3, 15975.6, 15993, 16009.2, 16025.9, 16044, 16059.1, 16076.1, 16092.2, 16109.4, 16125.8, 16148.1, 16162.9, 16174.4, 16192.5, 16211.3, 16226.8, 16242, 16259.2, 16275.6, 16294.8, 16310.4, 16324.9, 16343.4, 16359.4, 16378.1, 16395.2, 16409.5, 16425.5, 16442.4, 16459.4, 16475.8, 16496.5, 16510.2, 16525, 16541.6, 16558, 16574.7, 16591.9, 16608.1, 16624.8, 16642.2, 16658.8, 16676.2, 16696.6, 16708.1, 16724.7, 16742.1, 16758.2, 16775, 16792.2, 16808.3, 16825, 16842.1, 16860.2, 16874.9, 16907.9, 16909.9, 16936.8, 16945.3, 16958, 16987.4, 16993.3, 17007.6, 17037.7, 17046, 17061.3, 17076.3, 17093.4, 17108.8, 17126.3, 17142.3, 17158.7, 17175.4, 17192.3, 17208.7, 17225.5]","[6.5, 26.1, 5.7, 1.7, 14.4, 16.3, 17, 16.9, 16.6, 15.3, 17.4, 22.6, 53, 31.9, 11.5, 15.9, 16.4, 16.6, 17.3, 16.4, 17.6, 15.9, 16.3, 17.1, 16.8, 16.5, 16.1, 17.3, 16.3, 16.8, 17.3, 15.8, 16.8, 17.2, 16.6, 18.1, 16, 15.4, 16.7, 17.2, 45.3, 4.6, 28.3, 5.7, 15.3, 33.7, 5.6, 9.5, 29.2, 6.7, 16.6, 14, 17.7, 15.6, 17.2, 16.5, 16.7, 16.6, 16.8, 16.6, 16.7, 16.7, 16.6, 16.8, 17.3, 16.6, 16.1, 17.1, 17.4, 16, 17.4, 17.4, 15.3, 16.6, 17.5, 15.9, 16.8, 17.4, 15.3, 16.9, 17.2, 16.5, 16.1, 16.4, 17, 16.8, 16.4, 17.9, 16.8, 17.3, 16.1, 16.7, 17.1, 16.3, 17.4, 17.4, 15.8, 16.3, 16.7, 16.4, 16.5, 17.2, 16.4, 17.4, 16.4, 16.4, 16.3, 17.2, 16.9, 16.8, 16.3, 16.2, 19, 15, 17, 15.9, 17, 16.5, 16.7, 16.9, 17.5, 15.9, 17.2, 16, 17.1, 16.7, 17.4, 15.5, 16.8, 16.5, 16.8, 17, 16.3, 16.8, 16.8, 16.9, 16.7, 17.7, 15.5, 16.4, 16.7, 16.6, 17.1, 16.5, 16.8, 16.4, 16.8, 17.1, 16.6, 17.6, 15.9, 16, 16.8, 16.6, 17, 16.5, 16.6, 16.8, 16.4, 30.1, 3.1, 28.7, 9.9, 11.4, 30.4, 3, 26.8, 8.3, 15.5, 17.7, 17.5, 14.8, 16.9, 16.3, 17.1, 16.3, 16.6, 17.9, 16.2, 15.9, 16.9, 16.6, 17.5, 19.2, 13.9, 15.9, 17, 16.5, 16.6, 16.9, 16.7, 17.2, 17.5, 15.6, 16.5, 17.8, 17.7, 14.3, 16.8, 16.7, 16.5, 16.9, 16.8, 16.4, 17.9, 17, 15.6, 16.3, 16.8, 17.1, 16.5, 16.4, 16.6, 17.3, 17, 16.8, 19.7, 13.6, 15.9, 19.2, 17.1, 18, 15, 15, 17.3, 17.4, 16.2, 16.7, 18.1, 15.1, 17, 16.1, 17.2, 16.4, 22.3, 14.8, 11.5, 18.1, 18.8, 15.5, 15.2, 17.2, 16.4, 19.2, 15.6, 14.5, 18.5, 16, 18.7, 17.1, 14.3, 16, 16.9, 17, 16.4, 20.7, 13.7, 14.8, 16.6, 16.4, 16.7, 17.2, 16.2, 16.7, 17.4, 16.6, 17.4, 20.4, 11.5, 16.6, 17.4, 16.1, 16.8, 17.2, 16.1, 16.7, 17.1, 18.1, 14.7, 33, 2, 26.9, 8.5, 12.7, 29.4, 5.9, 14.3, 30.1, 8.3, 15.3, 15, 17.1, 15.4, 17.5, 16, 16.4, 16.7, 16.9, 16.4, 16.8]",59.0,60.0,60.0,5059.9,[],,,,,,,,,,,,,,,,,,,,,,,HRV,HRV_0150,2022-11-30 18:32:22
,wl-html-keyboard-response,2,30865,0.0-2.0-0.0,,,0.0,2.0,,,,,,,,13238.199999988079,0.0,0,,,,,,,,,,,,,,,,,,,,HRV,HRV_0150,2022-11-30 18:32:22
,wl-rdm,3,39815,0.0-3.0-0.0,False,,0.0,3.0,,,,,,,[],,,,0.0,0.0,87.9,0.0,u,0.0,True,3307.2999999821186,198.0,60.0,40.0,3000.0,[],"[640, 360]",ColorTask_Demo,,,,,HRV,HRV_0150,2022-11-30 18:32:22
,wl-rdm,4,45320,0.0-3.0-1.0,False,,0.0,4.0,,,,,,,[],,,,0.0,0.0,87.9,1.0,i,1.0,True,1424.9000000357628,86.0,60.0,40.0,2000.0,[],"[640, 360]",ColorTask_Demo,,,,,HRV,HRV_0150,2022-11-30 18:32:22
,wl-html-keyboard-response,5,50049,0.0-3.0-2.0,,,0.0,5.0,,,,,,,,2723.899999976158,0.0,1,,,,,,,,,,,,,,,,,,,,HRV,HRV_0150,2022-11-30 18:32:22
,wl-html-keyboard-response,6,60069,0.0-4.0-0.0,,,0.0,6.0,,,,,,,,8013.5,0.0,0,,,,,,,,,,,,,,,,,,,,HRV,HRV_0150,2022-11-30 18:32:22
,wl-html-keyboard-response,7,85472,0.0-5.0-0.0,,,0.0,7.0,,,,,,,,23391.5,0.0,0,,,,,,,,,,,,,,,,,,,,HRV,HRV_0150,2022-11-30 18:32:22
,wl-rdm,8,88186,0.0-6.0-0.0,False,,0.0,8.0,,,,,,,[],,,,,,87.9,0.0,u,0.0,True,1362.4000000357628,82.0,60.0,40.0,284.3764193649853,[],"[640, 360]",ColorTask,1.0,1.0,,,HRV,HRV_0150,2022-11-30 18:32:22
,wl-rdm,9,90452,0.0-6.1-0.1,False,,0.0,9.0,,,,,,,[],,,,,,50.0,1.0,i,1.0,True,997.5,59.0,60.0,40.0,214.2887600141416,[],"[640, 360]",ColorTask,2.0,2.0,,,HRV,HRV_0150,2022-11-30 18:32:22
,wl-rdm,10,92622,0.0-6.2-0.2,False,,0.0,10.0,,,,,,,[],,,,,,73.6,1.0,i,1.0,True,749.2999999821186,43.0,60.0,40.0,336.9611662670941,[],"[640, 360]",ColorTask,3.0,3.0,,,HRV,HRV_0150,2022-11-30 18:32:22
,wl-rdm,11,95192,0.0-6.3-0.3,False,,0.0,11.0,,,,,,,[],,,,,,73.6,1.0,i,1.0,True,1124.5999999940395,68.0,60.0,40.0,377.1992252971778,[],"[640, 360]",ColorTask,4.0,4.0,,,HRV,HRV_0150,2022-11-30 18:32:22
,wl-rdm,12,97644,0.0-6.4-0.4,False,,0.0,12.0,,,,,,,[],,,,,,50.0,1.0,i,1.0,True,1147.800000011921,69.0,60.0,40.0,246.69366920605802,[],"[640, 360]",ColorTask,5.0,5.0,,,HRV,HRV_0150,2022-11-30 18:32:22
,wl-rdm,13,99880,0.0-6.5-0.5,False,,0.0,13.0,,,,,,,[],,,,,,73.6,1.0,i,1.0,True,909.7000000178814,55.0,60.0,40.0,252.16517707175944,[],"[640, 360]",ColorTask,6.0,6.0,,,HRV,HRV_0150,2022-11-30 18:32:22
,wl-rdm,14,102219,0.0-6.6-0.6,False,,0.0,14.0,,,,,,,[],,,,,,87.9,1.0,i,1.0,True,1036.5000000298023,63.0,60.0,40.0,221.02813118449643,[],"[640, 360]",ColorTask,7.0,7.0,,,HRV,HRV_0150,2022-11-30 18:32:22
,wl-rdm,15,104602,0.0-6.7-0.7,False,,0.0,15.0,,,,,,,[],,,,,,62.5,1.0,i,1.0,True,997.3000000119209,58.0,60.0,40.0,312.15121508733665,[],"[640, 360]",ColorTask,8.0,8.0,,,HRV,HRV_0150,2022-11-30 18:32:22
,wl-rdm,16,106938,0.0-6.8-0.8,False,,0.0,16.0,,,,,,,[],,,,,,56.4,0.0,u,0.0,True,911.6999999880791,55.0,60.0,40.0,363.9067489171905,[],"[640, 360]",ColorTask,9.0,9.0,,,HRV,HRV_0150,2022-11-30 18:32:22
,wl-rdm,17,109476,0.0-6.9-0.9,False,,0.0,17.0,,,,,,,[],,,,,,50.0,1.0,u,0.0,False,1093.0,66.0,60.0,40.0,359.3680433086252,[],"[640, 360]",ColorTask,8.0,10.0,,,HRV,HRV_0150,2022-11-30 18:32:22
,wl-rdm,18,111877,0.0-6.10-0.10,False,,0.0,18.0,,,,,,,[],,,,,,53.2,0.0,i,1.0,False,1127.5,66.0,60.0,40.0,211.6679343646905,[],"[640, 360]",ColorTask,7.0,11.0,,,HRV,HRV_0150,2022-11-30 18:32:22
,wl-rdm,19,114530,0.0-6.11-0.11,False,,0.0,19.0,,,,,,,[],,,,,,62.5,0.0,u,0.0,True,1278.699999988079,76.0,60.0,40.0,294.3514832135805,[],"[640, 360]",ColorTask,8.0,12.0,,,HRV,HRV_0150,2022-11-30 18:32:22
,wl-rdm,20,116749,0.0-6.12-0.12,False,,0.0,20.0,,,,,,,[],,,,,,56.4,1.0,i,1.0,True,925.7000000178814,56.0,60.0,40.0,226.87522612067542,[],"[640, 360]",ColorTask,9.0,13.0,,,HRV,HRV_0150,2022-11-30 18:32:22
,wl-rdm,21,118850,0.0-6.13-0.13,False,,0.0,21.0,,,,,,,[],,,,,,87.9,0.0,u,0.0,True,800.9000000059605,48.0,60.0,40.0,227.04909086897004,[],"[640, 360]",ColorTask,10.0,14.0,,,HRV,HRV_0150,2022-11-30 18:32:22
,wl-rdm,22,121299,0.0-6.14-0.14,False,,0.0,22.0,,,,,,,[],,,,,,53.2,0.0,i,1.0,False,1139.5,69.0,60.0,40.0,223.34511199144887,[],"[640, 360]",ColorTask,9.0,15.0,,,HRV,HRV_0150,2022-11-30 18:32:22
,wl-rdm,23,123690,0.0-6.15-0.15,False,,0.0,23.0,,,,,,,[],,,,,,56.4,0.0,u,0.0,True,1070.199999988079,63.0,60.0,40.0,244.57876303235923,[],"[640, 360]",ColorTask,10.0,16.0,,,HRV,HRV_0150,2022-11-30 18:32:22
,wl-rdm,24,125759,0.0-6.16-0.16,False,,0.0,24.0,,,,,,,[],,,,,,87.9,1.0,i,1.0,True,698.5999999940395,42.0,60.0,40.0,309.3627712901583,[],"[640, 360]",ColorTask,11.0,17.0,,,HRV,HRV_0150,2022-11-30 18:32:22
,wl-rdm,25,128646,0.0-6.17-0.17,False,,0.0,25.0,,,,,,,[],,,,,,56.4,1.0,i,1.0,True,1496.9000000059605,88.0,60.0,40.0,322.31640151893896,[],"[640, 360]",ColorTask,12.0,18.0,,,HRV,HRV_0150,2022-11-30 18:32:22
,wl-rdm,26,130765,0.0-6.18-0.18,False,,0.0,26.0,,,,,,,[],,,,,,53.2,0.0,u,0.0,True,846.5,50.0,60.0,40.0,206.0217745135111,[],"[640, 360]",ColorTask,13.0,19.0,,,HRV,HRV_0150,2022-11-30 18:32:22
,wl-rdm,27,133083,0.0-6.19-0.19,False,,0.0,27.0,,,,,,,[],,,,,,56.4,0.0,u,0.0,True,954.0,57.0,60.0,40.0,291.6630688163718,[],"[640, 360]",ColorTask,14.0,20.0,,,HRV,HRV_0150,2022-11-30 18:32:22
,wl-rdm,28,135636,0.0-6.20-0.20,False,,0.0,28.0,,,,,,,[],,,,,,50.0,0.0,i,1.0,False,1209.5999999940395,71.0,60.0,40.0,270.626037773357,[],"[640, 360]",ColorTask,13.0,21.0,,,HRV,HRV_0150,2022-11-30 18:32:22
,wl-rdm,29,137822,0.0-6.21-0.21,False,,0.0,29.0,,,,,,,[],,,,,,73.6,1.0,i,1.0,True,853.9000000059605,52.0,60.0,40.0,261.69908316502995,[],"[640, 360]",ColorTask,14.0,22.0,,,HRV,HRV_0150,2022-11-30 18:32:22
,wl-rdm,30,140025,0.0-6.22-0.22,False,,0.0,30.0,,,,,,,[],,,,,,87.9,0.0,u,0.0,True,921.1999999880791,54.0,60.0,40.0,216.31856786345296,[],"[640, 360]",ColorTask,15.0,23.0,,,HRV,HRV_0150,2022-11-30 18:32:22
,wl-rdm,31,142627,0.0-6.23-0.23,False,,0.0,31.0,,,,,,,[],,,,,,53.2,1.0,u,0.0,False,1232.2999999821186,74.0,60.0,40.0,289.1504909261451,[],"[640, 360]",ColorTask,14.0,24.0,,,HRV,HRV_0150,2022-11-30 18:32:22
,wl-rdm,32,144965,0.0-6.24-0.24,False,,0.0,32.0,,,,,,,[],,,,,,73.6,1.0,i,1.0,True,990.0999999940395,60.0,60.0,40.0,281.5754996049253,[],"[640, 360]",ColorTask,15.0,25.0,,,HRV,HRV_0150,2022-11-30 18:32:22
,wl-rdm,33,147016,0.0-6.25-0.25,False,,0.0,33.0,,,,,,,[],,,,,,53.2,0.0,u,0.0,True,758.9999999701977,45.0,60.0,40.0,212.77948226940234,[],"[640, 360]",ColorTask,16.0,26.0,,,HRV,HRV_0150,2022-11-30 18:32:22
,wl-rdm,34,149802,0.0-6.26-0.26,False,,0.0,34.0,,,,,,,[],,,,,,62.5,1.0,i,1.0,True,1457.0,87.0,60.0,40.0,256.7255145689108,[],"[640, 360]",ColorTask,17.0,27.0,,,HRV,HRV_0150,2022-11-30 18:32:22
,wl-rdm,35,152055,0.0-6.27-0.27,False,,0.0,35.0,,,,,,,[],,,,,,87.9,1.0,i,1.0,True,975.9000000059605,59.0,60.0,40.0,212.96556099802638,[],"[640, 360]",ColorTask,18.0,28.0,,,HRV,HRV_0150,2022-11-30 18:32:22
,wl-rdm,36,154424,0.0-6.28-0.28,False,,0.0,36.0,,,,,,,[],,,,,,73.6,1.0,i,1.0,True,929.6000000238419,56.0,60.0,40.0,383.6122295817696,[],"[640, 360]",ColorTask,19.0,29.0,,,HRV,HRV_0150,2022-11-30 18:32:22
,wl-rdm,37,156810,0.0-6.29-0.29,False,,0.0,37.0,,,,,,,[],,,,,,50.0,0.0,u,0.0,True,1091.0,66.0,60.0,40.0,232.40713789293918,[],"[640, 360]",ColorTask,20.0,30.0,,,HRV,HRV_0150,2022-11-30 18:32:22
,wl-rdm,38,159230,0.0-6.30-0.30,False,,0.0,38.0,,,,,,,[],,,,,,62.5,0.0,u,0.0,True,1141.2999999821186,69.0,60.0,40.0,200.3358621014412,[],"[640, 360]",ColorTask,21.0,31.0,,,HRV,HRV_0150,2022-11-30 18:32:22
,wl-rdm,39,161782,0.0-6.31-0.31,False,,0.0,39.0,,,,,,,[],,,,,,50.0,0.0,u,0.0,True,1196.4000000059605,72.0,60.0,40.0,292.3002864728834,[],"[640, 360]",ColorTask,22.0,32.0,,,HRV,HRV_0150,2022-11-30 18:32:22
,wl-rdm,40,164053,0.0-6.32-0.32,False,,0.0,40.0,,,,,,,[],,,,,,73.6,1.0,i,1.0,True,985.1999999880791,58.0,60.0,40.0,220.58985751765508,[],"[640, 360]",ColorTask,23.0,33.0,,,HRV,HRV_0150,2022-11-30 18:32:22
,wl-rdm,41,166388,0.0-6.33-0.33,False,,0.0,41.0,,,,,,,[],,,,,,73.6,0.0,u,0.0,True,946.1999999880791,57.0,60.0,40.0,324.98552505277144,[],"[640, 360]",ColorTask,24.0,34.0,,,HRV,HRV_0150,2022-11-30 18:32:22
,wl-rdm,42,169089,0.0-6.34-0.34,False,,0.0,42.0,,,,,,,[],,,,,,87.9,1.0,i,1.0,True,1298.2999999821186,78.0,60.0,40.0,330.31906673822334,[],"[640, 360]",ColorTask,25.0,35.0,,,HRV,HRV_0150,2022-11-30 18:32:22
,wl-rdm,43,171943,0.0-6.35-0.35,False,,0.0,43.0,,,,,,,[],,,,,,62.5,1.0,i,1.0,True,1522.4999999701977,91.0,60.0,40.0,253.9701103050968,[],"[640, 360]",ColorTask,26.0,36.0,,,HRV,HRV_0150,2022-11-30 18:32:22
,wl-rdm,44,174612,0.0-6.36-0.36,False,,0.0,44.0,,,,,,,[],,,,,,87.9,1.0,i,1.0,True,1274.699999988079,76.0,60.0,40.0,332.0837732231149,[],"[640, 360]",ColorTask,27.0,37.0,,,HRV,HRV_0150,2022-11-30 18:32:22
,wl-rdm,45,177283,0.0-6.37-0.37,False,,0.0,45.0,,,,,,,[],,,,,,56.4,0.0,u,0.0,True,1322.7000000178814,77.0,60.0,40.0,280.1798960620107,[],"[640, 360]",ColorTask,28.0,38.0,,,HRV,HRV_0150,2022-11-30 18:32:22
,wl-rdm,46,179718,0.0-6.38-0.38,False,,0.0,46.0,,,,,,,[],,,,,,87.9,0.0,u,0.0,True,1016.1000000238419,61.0,60.0,40.0,361.47590319175094,[],"[640, 360]",ColorTask,29.0,39.0,,,HRV,HRV_0150,2022-11-30 18:32:22
,wl-rdm,47,182871,0.0-6.39-0.39,False,,0.0,47.0,,,,,,,[],,,,,,56.4,0.0,i,1.0,False,1746.199999988079,102.0,60.0,40.0,336.60202785449223,[],"[640, 360]",ColorTask,28.0,40.0,,,HRV,HRV_0150,2022-11-30 18:32:22
,wl-rdm,48,185007,0.0-6.40-0.40,False,,0.0,48.0,,,,,,,[],,,,,,73.6,0.0,u,0.0,True,837.3000000119209,50.0,60.0,40.0,223.33465324840785,[],"[640, 360]",ColorTask,29.0,41.0,,,HRV,HRV_0150,2022-11-30 18:32:22
,wl-rdm,49,187626,0.0-6.41-0.41,False,,0.0,49.0,,,,,,,[],,,,,,62.5,1.0,i,1.0,True,1282.0,77.0,60.0,40.0,224.6036688346169,[],"[640, 360]",ColorTask,30.0,42.0,,,HRV,HRV_0150,2022-11-30 18:32:22
,wl-rdm,50,189778,0.0-6.42-0.42,False,,0.0,50.0,,,,,,,[],,,,,,62.5,0.0,u,0.0,True,863.4000000059605,52.0,60.0,40.0,220.6161179228214,[],"[640, 360]",ColorTask,31.0,43.0,,,HRV,HRV_0150,2022-11-30 18:32:22
,wl-rdm,51,191997,0.0-6.43-0.43,False,,0.0,51.0,,,,,,,[],,,,,,73.6,0.0,u,0.0,True,895.3000000417233,54.0,60.0,40.0,266.11094384269995,[],"[640, 360]",ColorTask,32.0,44.0,,,HRV,HRV_0150,2022-11-30 18:32:22
,wl-rdm,52,194318,0.0-6.44-0.44,False,,0.0,52.0,,,,,,,[],,,,,,87.9,0.0,u,0.0,True,952.9999999701977,57.0,60.0,40.0,287.43685584529715,[],"[640, 360]",ColorTask,33.0,45.0,,,HRV,HRV_0150,2022-11-30 18:32:22
,wl-rdm,53,196636,0.0-6.45-0.45,False,,0.0,53.0,,,,,,,[],,,,,,62.5,1.0,i,1.0,True,1011.1000000238419,61.0,60.0,40.0,231.6378458437356,[],"[640, 360]",ColorTask,34.0,46.0,,,HRV,HRV_0150,2022-11-30 18:32:22
,wl-rdm,54,198822,0.0-6.46-0.46,False,,0.0,54.0,,,,,,,[],,,,,,53.2,0.0,u,0.0,True,859.2000000178814,51.0,60.0,40.0,255.34403312947296,[],"[640, 360]",ColorTask,35.0,47.0,,,HRV,HRV_0150,2022-11-30 18:32:22
,wl-rdm,55,201325,0.0-6.47-0.47,False,,0.0,55.0,,,,,,,[],,,,,,53.2,1.0,i,1.0,True,1148.5999999940395,67.0,60.0,40.0,267.7148752055722,[],"[640, 360]",ColorTask,36.0,48.0,,,HRV,HRV_0150,2022-11-30 18:32:22
,wl-rdm,56,203895,0.0-6.48-0.48,False,,0.0,56.0,,,,,,,[],,,,,,50.0,1.0,u,0.0,False,1122.0999999940395,68.0,60.0,40.0,372.51243256390575,[],"[640, 360]",ColorTask,35.0,49.0,,,HRV,HRV_0150,2022-11-30 18:32:22
,wl-rdm,57,206320,0.0-6.49-0.49,False,,0.0,57.0,,,,,,,[],,,,,,56.4,1.0,u,0.0,False,1123.0000000298023,68.0,60.0,40.0,231.85604618757083,[],"[640, 360]",ColorTask,34.0,50.0,,,HRV,HRV_0150,2022-11-30 18:32:22
,wl-rdm,58,208849,0.0-6.50-0.50,False,,0.0,58.0,,,,,,,[],,,,,,50.0,1.0,u,0.0,False,1089.5,65.0,60.0,40.0,375.3115810683962,[],"[640, 360]",ColorTask,33.0,51.0,,,HRV,HRV_0150,2022-11-30 18:32:22
,wl-rdm,59,211201,0.0-6.51-0.51,False,,0.0,59.0,,,,,,,[],,,,,,73.6,1.0,i,1.0,True,908.8999999761581,55.0,60.0,40.0,354.8017013440144,[],"[640, 360]",ColorTask,34.0,52.0,,,HRV,HRV_0150,2022-11-30 18:32:22
,wl-rdm,60,213528,0.0-6.52-0.52,False,,0.0,60.0,,,,,,,[],,,,,,73.6,1.0,i,1.0,True,1037.5,63.0,60.0,40.0,212.5042521355542,[],"[640, 360]",ColorTask,35.0,53.0,,,HRV,HRV_0150,2022-11-30 18:32:22
,wl-rdm,61,216057,0.0-6.53-0.53,False,,0.0,61.0,,,,,,,[],,,,,,50.0,0.0,u,0.0,True,1206.199999988079,73.0,60.0,40.0,260.04320426592795,[],"[640, 360]",ColorTask,36.0,54.0,,,HRV,HRV_0150,2022-11-30 18:32:22
,wl-rdm,62,218343,0.0-6.54-0.54,False,,0.0,62.0,,,,,,,[],,,,,,62.5,0.0,u,0.0,True,1015.1000000238419,61.0,60.0,40.0,200.67462484848318,[],"[640, 360]",ColorTask,37.0,55.0,,,HRV,HRV_0150,2022-11-30 18:32:22
,wl-rdm,63,220796,0.0-6.55-0.55,False,,0.0,63.0,,,,,,,[],,,,,,56.4,0.0,u,0.0,True,1148.8999999761581,69.0,60.0,40.0,246.03623991341854,[],"[640, 360]",ColorTask,38.0,56.0,,,HRV,HRV_0150,2022-11-30 18:32:22
,wl-rdm,64,223466,0.0-6.56-0.56,False,,0.0,64.0,,,,,,,[],,,,,,53.2,1.0,u,0.0,False,1383.300000011921,83.0,60.0,40.0,231.96195577989164,[],"[640, 360]",ColorTask,37.0,57.0,,,HRV,HRV_0150,2022-11-30 18:32:22
,wl-rdm,65,225751,0.0-6.57-0.57,False,,0.0,65.0,,,,,,,[],,,,,,62.5,0.0,u,0.0,True,964.5999999940395,56.0,60.0,40.0,266.3820651019422,[],"[640, 360]",ColorTask,38.0,58.0,,,HRV,HRV_0150,2022-11-30 18:32:22
,wl-rdm,66,228121,0.0-6.58-0.58,False,,0.0,66.0,,,,,,,[],,,,,,56.4,1.0,i,1.0,True,1062.0999999940395,64.0,60.0,40.0,242.54992377899947,[],"[640, 360]",ColorTask,39.0,59.0,,,HRV,HRV_0150,2022-11-30 18:32:22
,wl-rdm,67,230707,0.0-6.59-0.59,False,,0.0,67.0,,,,,,,[],,,,,,53.2,1.0,i,1.0,True,1204.699999988079,72.0,60.0,40.0,306.7464570888108,[],"[640, 360]",ColorTask,40.0,60.0,,,HRV,HRV_0150,2022-11-30 18:32:22
,wl-rdm,68,233711,0.0-6.60-0.60,False,,0.0,68.0,,,,,,,[],,,,,,50.0,1.0,u,0.0,False,1643.2999999821186,99.0,60.0,40.0,292.67767491555026,[],"[640, 360]",ColorTask,39.0,61.0,,,HRV,HRV_0150,2022-11-30 18:32:22
,wl-rdm,69,235846,0.0-6.61-0.61,False,,0.0,69.0,,,,,,,[],,,,,,53.2,1.0,i,1.0,True,795.6000000238419,48.0,60.0,40.0,283.1014909739464,[],"[640, 360]",ColorTask,40.0,62.0,,,HRV,HRV_0150,2022-11-30 18:32:22
,wl-rdm,70,238366,0.0-6.62-0.62,False,,0.0,70.0,,,,,,,[],,,,,,50.0,1.0,i,1.0,True,1182.2000000178814,70.0,60.0,40.0,268.70280502867905,[],"[640, 360]",ColorTask,41.0,63.0,,,HRV,HRV_0150,2022-11-30 18:32:22
,wl-rdm,71,241019,0.0-6.63-0.63,False,,0.0,71.0,,,,,,,[],,,,,,50.0,0.0,u,0.0,True,1298.4000000357628,77.0,60.0,40.0,287.7705300869615,[],"[640, 360]",ColorTask,42.0,64.0,,,HRV,HRV_0150,2022-11-30 18:32:22
,wl-rdm,72,243521,0.0-6.64-0.64,False,,0.0,72.0,,,,,,,[],,,,,,53.2,0.0,i,1.0,False,1065.0000000298023,64.0,60.0,40.0,374.0423501356496,[],"[640, 360]",ColorTask,41.0,65.0,,,HRV,HRV_0150,2022-11-30 18:32:22
,wl-rdm,73,245957,0.0-6.65-0.65,False,,0.0,73.0,,,,,,,[],,,,,,50.0,1.0,i,1.0,True,1156.2999999821186,69.0,60.0,40.0,212.13479559003784,[],"[640, 360]",ColorTask,42.0,66.0,,,HRV,HRV_0150,2022-11-30 18:32:22
,wl-rdm,74,248360,0.0-6.66-0.66,False,,0.0,74.0,,,,,,,[],,,,,,62.5,1.0,i,1.0,True,1005.5999999940395,60.0,60.0,40.0,331.448430000023,[],"[640, 360]",ColorTask,43.0,67.0,,,HRV,HRV_0150,2022-11-30 18:32:22
,wl-rdm,75,250964,0.0-6.67-0.67,False,,0.0,75.0,,,,,,,[],,,,,,62.5,0.0,i,1.0,False,1145.199999988079,68.0,60.0,40.0,388.9558821964697,[],"[640, 360]",ColorTask,42.0,68.0,,,HRV,HRV_0150,2022-11-30 18:32:22
,wl-rdm,76,253284,0.0-6.68-0.68,False,,0.0,76.0,,,,,,,[],,,,,,62.5,1.0,i,1.0,True,952.3999999761581,57.0,60.0,40.0,287.9612638908283,[],"[640, 360]",ColorTask,43.0,69.0,,,HRV,HRV_0150,2022-11-30 18:32:22
,wl-rdm,77,255602,0.0-6.69-0.69,False,,0.0,77.0,,,,,,,[],,,,,,56.4,0.0,u,0.0,True,909.5999999940395,55.0,60.0,40.0,344.60964302896974,[],"[640, 360]",ColorTask,44.0,70.0,,,HRV,HRV_0150,2022-11-30 18:32:22
,wl-rdm,78,257688,0.0-6.70-0.70,False,,0.0,78.0,,,,,,,[],,,,,,56.4,1.0,i,1.0,True,786.5999999940395,47.0,60.0,40.0,220.8562273737163,[],"[640, 360]",ColorTask,45.0,71.0,,,HRV,HRV_0150,2022-11-30 18:32:22
,wl-rdm,79,260174,0.0-6.71-0.71,False,,0.0,79.0,,,,,,,[],,,,,,53.2,1.0,u,0.0,False,1114.9000000059605,66.0,60.0,40.0,303.60528818625323,[],"[640, 360]",ColorTask,44.0,72.0,,,HRV,HRV_0150,2022-11-30 18:32:22
,wl-rdm,80,262409,0.0-6.72-0.72,False,,0.0,80.0,,,,,,,[],,,,,,62.5,0.0,u,0.0,True,879.3000000119209,53.0,60.0,40.0,285.1771502285314,[],"[640, 360]",ColorTask,45.0,73.0,,,HRV,HRV_0150,2022-11-30 18:32:22
,wl-rdm,81,264795,0.0-6.73-0.73,False,,0.0,81.0,,,,,,,[],,,,,,56.4,1.0,u,0.0,False,1010.6999999880791,61.0,60.0,40.0,308.4852511121551,[],"[640, 360]",ColorTask,44.0,74.0,,,HRV,HRV_0150,2022-11-30 18:32:22
,wl-rdm,82,267198,0.0-6.74-0.74,False,,0.0,82.0,,,,,,,[],,,,,,50.0,0.0,u,0.0,True,994.5,60.0,60.0,40.0,300.4731660136034,[],"[640, 360]",ColorTask,45.0,75.0,,,HRV,HRV_0150,2022-11-30 18:32:22
,wl-rdm,83,269350,0.0-6.75-0.75,False,,0.0,83.0,,,,,,,[],,,,,,87.9,0.0,u,0.0,True,813.5999999940395,47.0,60.0,40.0,272.1998768944294,[],"[640, 360]",ColorTask,46.0,76.0,,,HRV,HRV_0150,2022-11-30 18:32:22
,wl-rdm,84,271553,0.0-6.76-0.76,False,,0.0,84.0,,,,,,,[],,,,,,53.2,1.0,u,0.0,False,906.0999999940395,52.0,60.0,40.0,224.38525857188858,[],"[640, 360]",ColorTask,45.0,77.0,,,HRV,HRV_0150,2022-11-30 18:32:22
,wl-rdm,85,273772,0.0-6.77-0.77,False,,0.0,85.0,,,,,,,[],,,,,,56.4,1.0,u,0.0,False,866.5,52.0,60.0,40.0,293.6239627388446,[],"[640, 360]",ColorTask,44.0,78.0,,,HRV,HRV_0150,2022-11-30 18:32:22
,wl-rdm,86,276024,0.0-6.78-0.78,False,,0.0,86.0,,,,,,,[],,,,,,62.5,1.0,i,1.0,True,931.0000000298023,55.0,60.0,40.0,250.7780760310429,[],"[640, 360]",ColorTask,45.0,79.0,,,HRV,HRV_0150,2022-11-30 18:32:22
,wl-rdm,87,278293,0.0-6.79-0.79,False,,0.0,87.0,,,,,,,[],,,,,,62.5,1.0,i,1.0,True,995.7000000178814,60.0,60.0,40.0,208.18859423366658,[],"[640, 360]",ColorTask,46.0,80.0,,,HRV,HRV_0150,2022-11-30 18:32:22
,wl-rdm,88,280496,0.0-6.80-0.80,False,,0.0,88.0,,,,,,,[],,,,,,73.6,0.0,u,0.0,True,857.0999999940395,48.0,60.0,40.0,280.9311925230129,[],"[640, 360]",ColorTask,47.0,81.0,,,HRV,HRV_0150,2022-11-30 18:32:22
,wl-rdm,89,282818,0.0-6.81-0.81,False,,0.0,89.0,,,,,,,[],,,,,,73.6,0.0,u,0.0,True,897.0999999940395,54.0,60.0,40.0,345.8531199264296,[],"[640, 360]",ColorTask,48.0,82.0,,,HRV,HRV_0150,2022-11-30 18:32:22
,wl-rdm,90,285186,0.0-6.82-0.82,False,,0.0,90.0,,,,,,,[],,,,,,62.5,0.0,u,0.0,True,944.4000000059605,56.0,60.0,40.0,346.3907703952275,[],"[640, 360]",ColorTask,49.0,83.0,,,HRV,HRV_0150,2022-11-30 18:32:22
,wl-rdm,91,287621,0.0-6.83-0.83,False,,0.0,91.0,,,,,,,[],,,,,,73.6,0.0,u,0.0,True,1063.0,62.0,60.0,40.0,301.7266499005574,[],"[640, 360]",ColorTask,50.0,84.0,,,HRV,HRV_0150,2022-11-30 18:32:22
,wl-rdm,92,289939,0.0-6.84-0.84,False,,0.0,92.0,,,,,,,[],,,,,,73.6,0.0,u,0.0,True,987.6999999880791,60.0,60.0,40.0,259.0676135566394,[],"[640, 360]",ColorTask,51.0,85.0,,,HRV,HRV_0150,2022-11-30 18:32:22
,wl-rdm,93,292293,0.0-6.85-0.85,False,,0.0,93.0,,,,,,,[],,,,,,62.5,0.0,u,0.0,True,1057.8000000417233,64.0,60.0,40.0,201.2211240596585,[],"[640, 360]",ColorTask,52.0,86.0,,,HRV,HRV_0150,2022-11-30 18:32:22
,wl-rdm,94,294528,0.0-6.86-0.86,False,,0.0,94.0,,,,,,,[],,,,,,56.4,0.0,u,0.0,True,895.2999999821186,54.0,60.0,40.0,275.8428767716589,[],"[640, 360]",ColorTask,53.0,87.0,,,HRV,HRV_0150,2022-11-30 18:32:22
,wl-rdm,95,296847,0.0-6.87-0.87,False,,0.0,95.0,,,,,,,[],,,,,,50.0,0.0,u,0.0,True,971.0,58.0,60.0,40.0,282.37127026508887,[],"[640, 360]",ColorTask,54.0,88.0,,,HRV,HRV_0150,2022-11-30 18:32:22
,wl-rdm,96,299249,0.0-6.88-0.88,False,,0.0,96.0,,,,,,,[],,,,,,53.2,0.0,i,1.0,False,1067.800000011921,64.0,60.0,40.0,249.89181288757015,[],"[640, 360]",ColorTask,53.0,89.0,,,HRV,HRV_0150,2022-11-30 18:32:22
,wl-rdm,97,301318,0.0-6.89-0.89,False,,0.0,97.0,,,,,,,[],,,,,,87.9,1.0,i,1.0,True,776.3000000119209,47.0,60.0,40.0,216.50528876315303,[],"[640, 360]",ColorTask,54.0,90.0,,,HRV,HRV_0150,2022-11-30 18:32:22
,wl-rdm,98,303658,0.0-6.90-0.90,False,,0.0,98.0,,,,,,,[],,,,,,50.0,0.0,u,0.0,True,1042.5,63.0,60.0,40.0,233.13283279213323,[],"[640, 360]",ColorTask,55.0,91.0,,,HRV,HRV_0150,2022-11-30 18:32:22
,wl-rdm,99,305723,0.0-6.91-0.91,False,,0.0,99.0,,,,,,,[],,,,,,87.9,0.0,u,0.0,True,788.8000000119209,48.0,60.0,40.0,219.04390723077884,[],"[640, 360]",ColorTask,56.0,92.0,,,HRV,HRV_0150,2022-11-30 18:32:22
,wl-rdm,100,308093,0.0-6.92-0.92,False,,0.0,100.0,,,,,,,[],,,,,,53.2,1.0,i,1.0,True,995.7999999821186,60.0,60.0,40.0,313.5154474355912,[],"[640, 360]",ColorTask,57.0,93.0,,,HRV,HRV_0150,2022-11-30 18:32:22
,wl-rdm,101,310211,0.0-6.93-0.93,False,,0.0,101.0,,,,,,,[],,,,,,87.9,1.0,i,1.0,True,714.0999999940395,43.0,60.0,40.0,332.39471953567545,[],"[640, 360]",ColorTask,58.0,94.0,,,HRV,HRV_0150,2022-11-30 18:32:22
,wl-rdm,102,312380,0.0-6.94-0.94,False,,0.0,102.0,,,,,,,[],,,,,,56.4,0.0,u,0.0,True,841.9000000059605,49.0,60.0,40.0,251.21044531668556,[],"[640, 360]",ColorTask,59.0,95.0,,,HRV,HRV_0150,2022-11-30 18:32:22
,wl-rdm,103,314449,0.0-6.95-0.95,False,,0.0,103.0,,,,,,,[],,,,,,87.9,0.0,u,0.0,True,678.3999999761581,41.0,60.0,40.0,335.2038592928483,[],"[640, 360]",ColorTask,60.0,96.0,,,HRV,HRV_0150,2022-11-30 18:32:22
,wl-rdm,104,317387,0.0-6.96-0.96,False,,0.0,104.0,,,,,,,[],,,,,,53.2,0.0,u,0.0,True,1498.9000000059605,88.0,60.0,40.0,381.54554571395477,[],"[640, 360]",ColorTask,61.0,97.0,,,HRV,HRV_0150,2022-11-30 18:32:22
,wl-rdm,105,319639,0.0-6.97-0.97,False,,0.0,105.0,,,,,,,[],,,,,,73.6,0.0,u,0.0,True,897.4000000059605,54.0,60.0,40.0,297.7759504444799,[],"[640, 360]",ColorTask,62.0,98.0,,,HRV,HRV_0150,2022-11-30 18:32:22
,wl-rdm,106,322108,0.0-6.98-0.98,False,,0.0,106.0,,,,,,,[],,,,,,73.6,0.0,u,0.0,True,1005.6999999880791,60.0,60.0,40.0,388.12378286288686,[],"[640, 360]",ColorTask,63.0,99.0,,,HRV,HRV_0150,2022-11-30 18:32:22
,wl-rdm,107,324494,0.0-6.99-0.99,False,,0.0,107.0,,,,,,,[],,,,,,53.2,0.0,i,1.0,False,929.9000000059605,56.0,60.0,40.0,387.8448865280734,[],"[640, 360]",ColorTask,62.0,100.0,,,HRV,HRV_0150,2022-11-30 18:32:22
,wl-rdm,108,326546,0.0-6.100-0.100,False,,0.0,108.0,,,,,,,[],,,,,,53.2,1.0,i,1.0,True,724.6999999880791,44.0,60.0,40.0,265.5723553942971,[],"[640, 360]",ColorTask,63.0,101.0,,,HRV,HRV_0150,2022-11-30 18:32:22
,wl-rdm,109,329252,0.0-6.101-0.101,False,,0.0,109.0,,,,,,,[],,,,,,56.4,1.0,i,1.0,True,1359.300000011921,80.0,60.0,40.0,234.84243757766285,[],"[640, 360]",ColorTask,64.0,102.0,,,HRV,HRV_0150,2022-11-30 18:32:22
,wl-rdm,110,331702,0.0-6.102-0.102,False,,0.0,110.0,,,,,,,[],,,,,,87.9,1.0,i,1.0,True,1007.8000000119209,61.0,60.0,40.0,383.2009085525781,[],"[640, 360]",ColorTask,65.0,103.0,,,HRV,HRV_0150,2022-11-30 18:32:22
,wl-rdm,111,334190,0.0-6.103-0.103,False,,0.0,111.0,,,,,,,[],,,,,,56.4,1.0,i,1.0,True,1162.7000000178814,70.0,60.0,40.0,268.1182809256053,[],"[640, 360]",ColorTask,66.0,104.0,,,HRV,HRV_0150,2022-11-30 18:32:22
,wl-rdm,112,336640,0.0-6.104-0.104,False,,0.0,112.0,,,,,,,[],,,,,,50.0,1.0,u,0.0,False,1041.5,63.0,60.0,40.0,345.98027883049275,[],"[640, 360]",ColorTask,65.0,105.0,,,HRV,HRV_0150,2022-11-30 18:32:22
,wl-rdm,113,338676,0.0-6.105-0.105,False,,0.0,113.0,,,,,,,[],,,,,,87.9,0.0,u,0.0,True,762.3000000119209,46.0,60.0,40.0,209.14868501183608,[],"[640, 360]",ColorTask,66.0,106.0,,,HRV,HRV_0150,2022-11-30 18:32:22
,wl-rdm,114,340815,0.0-6.106-0.106,False,,0.0,114.0,,,,,,,[],,,,,,87.9,1.0,i,1.0,True,748.1999999880791,45.0,60.0,40.0,328.99619340147774,[],"[640, 360]",ColorTask,67.0,107.0,,,HRV,HRV_0150,2022-11-30 18:32:22
,wl-rdm,115,343849,0.0-6.107-0.107,False,,0.0,115.0,,,,,,,[],,,,,,50.0,0.0,i,1.0,False,1650.699999988079,98.0,60.0,40.0,319.18976481681455,[],"[640, 360]",ColorTask,66.0,108.0,,,HRV,HRV_0150,2022-11-30 18:32:22
,wl-html-keyboard-response,116,408657,0.0-7.0-0.0,,,1.0,116.0,,,,,,,,62787.09999999404,1.0,0,,,,,,,,,,,,,,,,,,,,HRV,HRV_0150,2022-11-30 18:32:22
,wl-rdm,117,411356,0.0-8.0-0.0,False,,1.0,117.0,,,,,,,[],,,,,,56.4,0.0,i,1.0,False,1306.3999999761581,78.0,60.0,40.0,319.33498116057643,[],"[640, 360]",ColorTask,65.0,1.0,,,HRV,HRV_0150,2022-11-30 18:32:22
,wl-rdm,118,414342,0.0-8.1-0.1,False,,1.0,118.0,,,,,,,[],,,,,,53.2,0.0,i,1.0,False,1606.7999999821186,96.0,60.0,40.0,304.3213902426196,[],"[640, 360]",ColorTask,64.0,2.0,,,HRV,HRV_0150,2022-11-30 18:32:22
,wl-rdm,119,416529,0.0-8.2-0.2,False,,1.0,119.0,,,,,,,[],,,,,,56.4,0.0,u,0.0,True,728.1999999880791,44.0,60.0,40.0,388.1684200090792,[],"[640, 360]",ColorTask,65.0,3.0,,,HRV,HRV_0150,2022-11-30 18:32:22
,wl-rdm,120,418581,0.0-8.3-0.3,False,,1.0,120.0,,,,,,,[],,,,,,87.9,0.0,u,0.0,True,748.9000000059605,45.0,60.0,40.0,242.65310486682606,[],"[640, 360]",ColorTask,66.0,4.0,,,HRV,HRV_0150,2022-11-30 18:32:22
,wl-rdm,121,421168,0.0-8.4-0.4,False,,1.0,121.0,,,,,,,[],,,,,,56.4,0.0,i,1.0,False,1301.8999999761581,77.0,60.0,40.0,209.49755503833137,[],"[640, 360]",ColorTask,65.0,5.0,,,HRV,HRV_0150,2022-11-30 18:32:22
,wl-rdm,122,423436,0.0-8.5-0.5,False,,1.0,122.0,,,,,,,[],,,,,,50.0,1.0,i,1.0,True,893.1999999880791,54.0,60.0,40.0,303.63669911398017,[],"[640, 360]",ColorTask,66.0,6.0,,,HRV,HRV_0150,2022-11-30 18:32:22
,wl-rdm,123,425856,0.0-8.6-0.6,False,,1.0,123.0,,,,,,,[],,,,,,73.6,0.0,u,0.0,True,1026.800000011921,63.0,60.0,40.0,278.30622632515906,[],"[640, 360]",ColorTask,67.0,7.0,,,HRV,HRV_0150,2022-11-30 18:32:22
,wl-rdm,124,428461,0.0-8.7-0.7,False,,1.0,124.0,,,,,,,[],,,,,,50.0,0.0,i,1.0,False,1141.4000000059605,69.0,60.0,40.0,387.79167912572404,[],"[640, 360]",ColorTask,66.0,8.0,,,HRV,HRV_0150,2022-11-30 18:32:22
,wl-rdm,125,430894,0.0-8.8-0.8,False,,1.0,125.0,,,,,,,[],,,,,,50.0,1.0,u,0.0,False,1074.0,65.0,60.0,40.0,266.1638323523613,[],"[640, 360]",ColorTask,65.0,9.0,,,HRV,HRV_0150,2022-11-30 18:32:22
,wl-rdm,126,433731,0.0-8.9-0.9,False,,1.0,126.0,,,,,,,[],,,,,,56.4,0.0,u,0.0,True,1408.8000000417233,83.0,60.0,40.0,366.65839333315716,[],"[640, 360]",ColorTask,66.0,10.0,,,HRV,HRV_0150,2022-11-30 18:32:22
,wl-rdm,127,435983,0.0-8.10-0.10,False,,1.0,127.0,,,,,,,[],,,,,,73.6,1.0,i,1.0,True,888.4000000059605,54.0,60.0,40.0,274.6859519132337,[],"[640, 360]",ColorTask,67.0,11.0,,,HRV,HRV_0150,2022-11-30 18:32:22
,wl-rdm,128,438269,0.0-8.11-0.11,False,,1.0,128.0,,,,,,,[],,,,,,62.5,1.0,i,1.0,True,909.6000000238419,52.0,60.0,40.0,312.02015773084787,[],"[640, 360]",ColorTask,68.0,12.0,,,HRV,HRV_0150,2022-11-30 18:32:22
,wl-rdm,129,441039,0.0-8.12-0.12,False,,1.0,129.0,,,,,,,[],,,,,,53.2,0.0,i,1.0,False,1488.0,88.0,60.0,40.0,208.77347852019076,[],"[640, 360]",ColorTask,67.0,13.0,,,HRV,HRV_0150,2022-11-30 18:32:22
,wl-rdm,130,443357,0.0-8.13-0.13,False,,1.0,130.0,,,,,,,[],,,,,,50.0,1.0,u,0.0,False,961.9000000059605,58.0,60.0,40.0,298.5268875977951,[],"[640, 360]",ColorTask,66.0,14.0,,,HRV,HRV_0150,2022-11-30 18:32:22
,wl-rdm,131,445944,0.0-8.14-0.14,False,,1.0,131.0,,,,,,,[],,,,,,56.4,1.0,u,0.0,False,1273.0,76.0,60.0,40.0,241.8826743504059,[],"[640, 360]",ColorTask,65.0,15.0,,,HRV,HRV_0150,2022-11-30 18:32:22
,wl-rdm,132,448064,0.0-8.15-0.15,False,,1.0,132.0,,,,,,,[],,,,,,53.2,1.0,i,1.0,True,786.6999999880791,47.0,60.0,40.0,258.02235099450024,[],"[640, 360]",ColorTask,66.0,16.0,,,HRV,HRV_0150,2022-11-30 18:32:22
,wl-rdm,133,450483,0.0-8.16-0.16,False,,1.0,133.0,,,,,,,[],,,,,,56.4,0.0,u,0.0,True,1051.7999999821186,63.0,60.0,40.0,297.8099422125937,[],"[640, 360]",ColorTask,67.0,17.0,,,HRV,HRV_0150,2022-11-30 18:32:22
,wl-rdm,134,453274,0.0-8.17-0.17,False,,1.0,134.0,,,,,,,[],,,,,,56.4,1.0,i,1.0,True,1398.800000011921,82.0,60.0,40.0,324.129655452817,[],"[640, 360]",ColorTask,68.0,18.0,,,HRV,HRV_0150,2022-11-30 18:32:22
,wl-rdm,135,456092,0.0-8.18-0.18,False,,1.0,135.0,,,,,,,[],,,,,,62.5,0.0,u,0.0,True,1406.199999988079,84.0,60.0,40.0,324.41161618427145,[],"[640, 360]",ColorTask,69.0,19.0,,,HRV,HRV_0150,2022-11-30 18:32:22
,wl-rdm,136,458625,0.0-8.19-0.19,False,,1.0,136.0,,,,,,,[],,,,,,62.5,0.0,u,0.0,True,1245.0999999940395,74.0,60.0,40.0,219.90758990188084,[],"[640, 360]",ColorTask,70.0,20.0,,,HRV,HRV_0150,2022-11-30 18:32:22
,wl-rdm,137,460911,0.0-8.20-0.20,False,,1.0,137.0,,,,,,,[],,,,,,87.9,1.0,i,1.0,True,963.0999999940395,56.0,60.0,40.0,250.40430963169922,[],"[640, 360]",ColorTask,71.0,21.0,,,HRV,HRV_0150,2022-11-30 18:32:22
,wl-rdm,138,463497,0.0-8.21-0.21,False,,1.0,138.0,,,,,,,[],,,,,,62.5,1.0,i,1.0,True,1138.0,68.0,60.0,40.0,381.7645878486111,[],"[640, 360]",ColorTask,72.0,22.0,,,HRV,HRV_0150,2022-11-30 18:32:22
,wl-rdm,139,465666,0.0-8.22-0.22,False,,1.0,139.0,,,,,,,[],,,,,,87.9,0.0,u,0.0,True,871.1999999880791,52.0,60.0,40.0,217.941349576864,[],"[640, 360]",ColorTask,73.0,23.0,,,HRV,HRV_0150,2022-11-30 18:32:22
,wl-rdm,140,468252,0.0-8.23-0.23,False,,1.0,140.0,,,,,,,[],,,,,,50.0,0.0,u,0.0,True,1203.4000000059605,72.0,60.0,40.0,327.5500600984731,[],"[640, 360]",ColorTask,74.0,24.0,,,HRV,HRV_0150,2022-11-30 18:32:22
,wl-rdm,141,470738,0.0-8.24-0.24,False,,1.0,141.0,,,,,,,[],,,,,,50.0,1.0,i,1.0,True,1157.7999999821186,69.0,60.0,40.0,266.07250363345696,[],"[640, 360]",ColorTask,75.0,25.0,,,HRV,HRV_0150,2022-11-30 18:32:22
,wl-rdm,142,472840,0.0-8.25-0.25,False,,1.0,142.0,,,,,,,[],,,,,,87.9,1.0,i,1.0,True,825.4000000059605,50.0,60.0,40.0,204.92579919346292,[],"[640, 360]",ColorTask,76.0,26.0,,,HRV,HRV_0150,2022-11-30 18:32:22
,wl-rdm,143,475093,0.0-8.26-0.26,False,,1.0,143.0,,,,,,,[],,,,,,73.6,0.0,u,0.0,True,928.8000000119209,56.0,60.0,40.0,248.6087957517144,[],"[640, 360]",ColorTask,77.0,27.0,,,HRV,HRV_0150,2022-11-30 18:32:22
,wl-rdm,144,477385,0.0-8.27-0.27,False,,1.0,144.0,,,,,,,[],,,,,,56.4,1.0,i,1.0,True,937.0999999940395,54.0,60.0,40.0,278.6452483876834,[],"[640, 360]",ColorTask,78.0,28.0,,,HRV,HRV_0150,2022-11-30 18:32:22
,wl-rdm,145,480065,0.0-8.28-0.28,False,,1.0,145.0,,,,,,,[],,,,,,53.2,0.0,u,0.0,True,1295.0999999940395,78.0,60.0,40.0,323.8238649292588,[],"[640, 360]",ColorTask,79.0,29.0,,,HRV,HRV_0150,2022-11-30 18:32:22
,wl-rdm,146,482484,0.0-8.29-0.29,False,,1.0,146.0,,,,,,,[],,,,,,56.4,0.0,u,0.0,True,1116.199999988079,64.0,60.0,40.0,241.21328152573034,[],"[640, 360]",ColorTask,80.0,30.0,,,HRV,HRV_0150,2022-11-30 18:32:22
,wl-rdm,147,484806,0.0-8.30-0.30,False,,1.0,147.0,,,,,,,[],,,,,,62.5,1.0,i,1.0,True,1010.8999999761581,60.0,60.0,40.0,233.4595181481423,[],"[640, 360]",ColorTask,81.0,31.0,,,HRV,HRV_0150,2022-11-30 18:32:22
,wl-rdm,148,487374,0.0-8.31-0.31,False,,1.0,148.0,,,,,,,[],,,,,,53.2,0.0,u,0.0,True,1141.7000000178814,69.0,60.0,40.0,368.5462343000272,[],"[640, 360]",ColorTask,82.0,32.0,,,HRV,HRV_0150,2022-11-30 18:32:22
,wl-rdm,149,489809,0.0-8.32-0.32,False,,1.0,149.0,,,,,,,[],,,,,,56.4,0.0,i,1.0,False,1127.0999999642372,66.0,60.0,40.0,217.6326172452128,[],"[640, 360]",ColorTask,81.0,33.0,,,HRV,HRV_0150,2022-11-30 18:32:22
,wl-rdm,150,491895,0.0-8.33-0.33,False,,1.0,150.0,,,,,,,[],,,,,,87.9,0.0,u,0.0,True,789.5999999940395,47.0,60.0,40.0,220.36580789147627,[],"[640, 360]",ColorTask,82.0,34.0,,,HRV,HRV_0150,2022-11-30 18:32:22
,wl-rdm,151,494298,0.0-8.34-0.34,False,,1.0,151.0,,,,,,,[],,,,,,87.9,1.0,i,1.0,True,1058.699999988079,64.0,60.0,40.0,269.7774420562729,[],"[640, 360]",ColorTask,83.0,35.0,,,HRV,HRV_0150,2022-11-30 18:32:22
,wl-rdm,152,496802,0.0-8.35-0.35,False,,1.0,152.0,,,,,,,[],,,,,,50.0,1.0,u,0.0,False,1210.5000000298023,72.0,60.0,40.0,220.5975630441975,[],"[640, 360]",ColorTask,82.0,36.0,,,HRV,HRV_0150,2022-11-30 18:32:22
,wl-rdm,153,499153,0.0-8.36-0.36,False,,1.0,153.0,,,,,,,[],,,,,,87.9,1.0,i,1.0,True,1077.3999999761581,64.0,60.0,40.0,209.80039804910703,[],"[640, 360]",ColorTask,83.0,37.0,,,HRV,HRV_0150,2022-11-30 18:32:22
,wl-rdm,154,502056,0.0-8.37-0.37,False,,1.0,154.0,,,,,,,[],,,,,,62.5,0.0,u,0.0,True,1500.0999999940395,90.0,60.0,40.0,343.54160336140774,[],"[640, 360]",ColorTask,84.0,38.0,,,HRV,HRV_0150,2022-11-30 18:32:22
,wl-rdm,155,505326,0.0-8.38-0.38,False,,1.0,155.0,,,,,,,[],,,,,,50.0,1.0,i,1.0,True,1967.5,118.0,60.0,40.0,246.88259041238678,[],"[640, 360]",ColorTask,85.0,39.0,,,HRV,HRV_0150,2022-11-30 18:32:22
,wl-rdm,156,507862,0.0-8.39-0.39,False,,1.0,156.0,,,,,,,[],,,,,,50.0,1.0,i,1.0,True,1211.5,73.0,60.0,40.0,256.18999748236007,[],"[640, 360]",ColorTask,86.0,40.0,,,HRV,HRV_0150,2022-11-30 18:32:22
,wl-rdm,157,510532,0.0-8.40-0.40,False,,1.0,157.0,,,,,,,[],,,,,,56.4,1.0,i,1.0,True,1278.8999999761581,77.0,60.0,40.0,313.7143823066665,[],"[640, 360]",ColorTask,87.0,41.0,,,HRV,HRV_0150,2022-11-30 18:32:22
,wl-rdm,158,513168,0.0-8.41-0.41,False,,1.0,158.0,,,,,,,[],,,,,,56.4,1.0,i,1.0,True,1309.0,78.0,60.0,40.0,234.09714452789763,[],"[640, 360]",ColorTask,88.0,42.0,,,HRV,HRV_0150,2022-11-30 18:32:22
,wl-rdm,159,515588,0.0-8.42-0.42,False,,1.0,159.0,,,,,,,[],,,,,,62.5,1.0,i,1.0,True,1080.2999999821186,63.0,60.0,40.0,278.33546870686257,[],"[640, 360]",ColorTask,89.0,43.0,,,HRV,HRV_0150,2022-11-30 18:32:22
,wl-rdm,160,518090,0.0-8.43-0.43,False,,1.0,160.0,,,,,,,[],,,,,,62.5,1.0,i,1.0,True,1107.9000000059605,65.0,60.0,40.0,303.39710030832435,[],"[640, 360]",ColorTask,90.0,44.0,,,HRV,HRV_0150,2022-11-30 18:32:22
,wl-rdm,161,520359,0.0-8.44-0.44,False,,1.0,161.0,,,,,,,[],,,,,,87.9,0.0,u,0.0,True,943.3999999761581,57.0,60.0,40.0,242.53389990716767,[],"[640, 360]",ColorTask,91.0,45.0,,,HRV,HRV_0150,2022-11-30 18:32:22
,wl-rdm,162,522879,0.0-8.45-0.45,False,,1.0,162.0,,,,,,,[],,,,,,50.0,0.0,i,1.0,False,1227.800000011921,73.0,60.0,40.0,230.44757307015888,[],"[640, 360]",ColorTask,90.0,46.0,,,HRV,HRV_0150,2022-11-30 18:32:22
,wl-rdm,163,525248,0.0-8.46-0.46,False,,1.0,163.0,,,,,,,[],,,,,,73.6,1.0,i,1.0,True,1041.699999988079,62.0,60.0,40.0,252.4468292345407,[],"[640, 360]",ColorTask,91.0,47.0,,,HRV,HRV_0150,2022-11-30 18:32:22
,wl-rdm,164,527348,0.0-8.47-0.47,False,,1.0,164.0,,,,,,,[],,,,,,50.0,0.0,i,1.0,False,778.9000000059605,47.0,60.0,40.0,206.35211294595143,[],"[640, 360]",ColorTask,90.0,48.0,,,HRV,HRV_0150,2022-11-30 18:32:22
,wl-rdm,165,529670,0.0-8.48-0.48,False,,1.0,165.0,,,,,,,[],,,,,,62.5,0.0,u,0.0,True,1029.8999999761581,62.0,60.0,40.0,233.27650777944274,[],"[640, 360]",ColorTask,91.0,49.0,,,HRV,HRV_0150,2022-11-30 18:32:22
,wl-rdm,166,531894,0.0-8.49-0.49,False,,1.0,166.0,,,,,,,[],,,,,,73.6,0.0,u,0.0,True,906.4000000357628,55.0,60.0,40.0,248.64951172692963,[],"[640, 360]",ColorTask,92.0,50.0,,,HRV,HRV_0150,2022-11-30 18:32:22
,wl-rdm,167,534275,0.0-8.50-0.50,False,,1.0,167.0,,,,,,,[],,,,,,62.5,1.0,i,1.0,True,1071.9000000059605,64.0,60.0,40.0,218.7389848396489,[],"[640, 360]",ColorTask,93.0,51.0,,,HRV,HRV_0150,2022-11-30 18:32:22
,wl-rdm,168,536777,0.0-8.51-0.51,False,,1.0,168.0,,,,,,,[],,,,,,73.6,1.0,i,1.0,True,1217.6000000238419,69.0,60.0,40.0,217.1737747223449,[],"[640, 360]",ColorTask,94.0,52.0,,,HRV,HRV_0150,2022-11-30 18:32:22
,wl-rdm,169,539580,0.0-8.52-0.52,False,,1.0,169.0,,,,,,,[],,,,,,56.4,1.0,i,1.0,True,1391.699999988079,82.0,60.0,40.0,340.9461409896836,[],"[640, 360]",ColorTask,95.0,53.0,,,HRV,HRV_0150,2022-11-30 18:32:22
,wl-rdm,170,541949,0.0-8.53-0.53,False,,1.0,170.0,,,,,,,[],,,,,,73.6,1.0,i,1.0,True,975.5999999940395,59.0,60.0,40.0,331.7748312087798,[],"[640, 360]",ColorTask,96.0,54.0,,,HRV,HRV_0150,2022-11-30 18:32:22
,wl-rdm,171,544869,0.0-8.54-0.54,False,,1.0,171.0,,,,,,,[],,,,,,53.2,1.0,u,0.0,False,1593.3999999761581,96.0,60.0,40.0,264.19835408732655,[],"[640, 360]",ColorTask,95.0,55.0,,,HRV,HRV_0150,2022-11-30 18:32:22
,wl-rdm,172,547639,0.0-8.55-0.55,False,,1.0,172.0,,,,,,,[],,,,,,53.2,1.0,i,1.0,True,1353.5,81.0,60.0,40.0,350.1365624730579,[],"[640, 360]",ColorTask,96.0,56.0,,,HRV,HRV_0150,2022-11-30 18:32:22
,wl-rdm,173,550276,0.0-8.56-0.56,False,,1.0,173.0,,,,,,,[],,,,,,53.2,0.0,u,0.0,True,1272.800000011921,77.0,60.0,40.0,277.47337631698525,[],"[640, 360]",ColorTask,97.0,57.0,,,HRV,HRV_0150,2022-11-30 18:32:22
,wl-rdm,174,553313,0.0-8.57-0.57,False,,1.0,174.0,,,,,,,[],,,,,,62.5,1.0,i,1.0,True,1614.5,96.0,60.0,40.0,356.6964696961044,[],"[640, 360]",ColorTask,98.0,58.0,,,HRV,HRV_0150,2022-11-30 18:32:22
,wl-rdm,175,556282,0.0-8.58-0.58,False,,1.0,175.0,,,,,,,[],,,,,,53.2,1.0,i,1.0,True,1564.9999999701977,92.0,60.0,40.0,322.5164354580096,[],"[640, 360]",ColorTask,99.0,59.0,,,HRV,HRV_0150,2022-11-30 18:32:22
,wl-rdm,176,558735,0.0-8.59-0.59,False,,1.0,176.0,,,,,,,[],,,,,,87.9,0.0,u,0.0,True,1005.2999999821186,61.0,60.0,40.0,373.12875587228973,[],"[640, 360]",ColorTask,100.0,60.0,,,HRV,HRV_0150,2022-11-30 18:32:22
,wl-rdm,177,561221,0.0-8.60-0.60,False,,1.0,177.0,,,,,,,[],,,,,,56.4,1.0,u,0.0,False,1105.4000000059605,66.0,60.0,40.0,305.78166451492604,[],"[640, 360]",ColorTask,99.0,61.0,,,HRV,HRV_0150,2022-11-30 18:32:22
,wl-rdm,178,563490,0.0-8.61-0.61,False,,1.0,178.0,,,,,,,[],,,,,,73.6,0.0,u,0.0,True,990.0999999940395,60.0,60.0,40.0,204.86571487537898,[],"[640, 360]",ColorTask,100.0,62.0,,,HRV,HRV_0150,2022-11-30 18:32:22
,wl-rdm,179,565960,0.0-8.62-0.62,False,,1.0,179.0,,,,,,,[],,,,,,73.6,0.0,u,0.0,True,1053.8999999761581,61.0,60.0,40.0,346.55458970621754,[],"[640, 360]",ColorTask,101.0,63.0,,,HRV,HRV_0150,2022-11-30 18:32:22
,wl-rdm,180,568329,0.0-8.63-0.63,False,,1.0,180.0,,,,,,,[],,,,,,73.6,1.0,i,1.0,True,1062.699999988079,64.0,60.0,40.0,242.13042034942896,[],"[640, 360]",ColorTask,102.0,64.0,,,HRV,HRV_0150,2022-11-30 18:32:22
,wl-rdm,181,571167,0.0-8.64-0.64,False,,1.0,181.0,,,,,,,[],,,,,,53.2,1.0,u,0.0,False,1448.4000000059605,87.0,60.0,40.0,335.8714665609517,[],"[640, 360]",ColorTask,101.0,65.0,,,HRV,HRV_0150,2022-11-30 18:32:22
,wl-rdm,182,573501,0.0-8.65-0.65,False,,1.0,182.0,,,,,,,[],,,,,,73.6,1.0,i,1.0,True,1057.5,63.0,60.0,40.0,219.1961884256318,[],"[640, 360]",ColorTask,102.0,66.0,,,HRV,HRV_0150,2022-11-30 18:32:22
,wl-rdm,183,576455,0.0-8.66-0.66,False,,1.0,183.0,,,,,,,[],,,,,,53.2,0.0,i,1.0,False,1566.2000000178814,94.0,60.0,40.0,321.597419512842,[],"[640, 360]",ColorTask,101.0,67.0,,,HRV,HRV_0150,2022-11-30 18:32:22
,wl-rdm,184,578940,0.0-8.67-0.67,False,,1.0,184.0,,,,,,,[],,,,,,73.6,0.0,u,0.0,True,1044.5999999940395,61.0,60.0,40.0,382.7278128035697,[],"[640, 360]",ColorTask,102.0,68.0,,,HRV,HRV_0150,2022-11-30 18:32:22
,wl-rdm,185,581760,0.0-8.68-0.68,False,,1.0,185.0,,,,,,,[],,,,,,73.6,1.0,i,1.0,True,1530.9000000059605,92.0,60.0,40.0,224.13820038374834,[],"[640, 360]",ColorTask,103.0,69.0,,,HRV,HRV_0150,2022-11-30 18:32:22
,wl-rdm,186,584296,0.0-8.69-0.69,False,,1.0,186.0,,,,,,,[],,,,,,56.4,1.0,i,1.0,True,1196.5,72.0,60.0,40.0,278.7618540389529,[],"[640, 360]",ColorTask,104.0,70.0,,,HRV,HRV_0150,2022-11-30 18:32:22
,wl-rdm,187,587351,0.0-8.70-0.70,False,,1.0,187.0,,,,,,,[],,,,,,53.2,0.0,i,1.0,False,1581.300000011921,93.0,60.0,40.0,395.8256224960718,[],"[640, 360]",ColorTask,103.0,71.0,,,HRV,HRV_0150,2022-11-30 18:32:22
,wl-rdm,188,590053,0.0-8.71-0.71,False,,1.0,188.0,,,,,,,[],,,,,,50.0,0.0,i,1.0,False,1255.9000000059605,74.0,60.0,40.0,363.12378002657346,[],"[640, 360]",ColorTask,102.0,72.0,,,HRV,HRV_0150,2022-11-30 18:32:22
,wl-rdm,189,592655,0.0-8.72-0.72,False,,1.0,189.0,,,,,,,[],,,,,,62.5,0.0,u,0.0,True,1231.5999999940395,73.0,60.0,40.0,315.8292785317992,[],"[640, 360]",ColorTask,103.0,73.0,,,HRV,HRV_0150,2022-11-30 18:32:22
,wl-rdm,190,595242,0.0-8.73-0.73,False,,1.0,190.0,,,,,,,[],,,,,,53.2,0.0,u,0.0,True,1294.4000000357628,77.0,60.0,40.0,227.78832900216713,[],"[640, 360]",ColorTask,104.0,74.0,,,HRV,HRV_0150,2022-11-30 18:32:22
,wl-rdm,191,597811,0.0-8.74-0.74,False,,1.0,191.0,,,,,,,[],,,,,,50.0,0.0,u,0.0,True,1247.0,75.0,60.0,40.0,217.6360660214669,[],"[640, 360]",ColorTask,105.0,75.0,,,HRV,HRV_0150,2022-11-30 18:32:22
,wl-rdm,192,600197,0.0-8.75-0.75,False,,1.0,192.0,,,,,,,[],,,,,,87.9,0.0,u,0.0,True,1115.5999999940395,67.0,60.0,40.0,211.83573099033757,[],"[640, 360]",ColorTask,106.0,76.0,,,HRV,HRV_0150,2022-11-30 18:32:22
,wl-rdm,193,602834,0.0-8.76-0.76,False,,1.0,193.0,,,,,,,[],,,,,,87.9,0.0,u,0.0,True,1261.0,76.0,60.0,40.0,289.45224664124237,[],"[640, 360]",ColorTask,107.0,77.0,,,HRV,HRV_0150,2022-11-30 18:32:22
,wl-rdm,194,605353,0.0-8.77-0.77,False,,1.0,194.0,,,,,,,[],,,,,,53.2,1.0,i,1.0,True,1224.9000000059605,70.0,60.0,40.0,221.12340550392332,[],"[640, 360]",ColorTask,108.0,78.0,,,HRV,HRV_0150,2022-11-30 18:32:22
,wl-rdm,195,607472,0.0-8.78-0.78,False,,1.0,195.0,,,,,,,[],,,,,,50.0,1.0,i,1.0,True,832.1999999880791,50.0,60.0,40.0,217.88969360783193,[],"[640, 360]",ColorTask,109.0,79.0,,,HRV,HRV_0150,2022-11-30 18:32:22
,wl-rdm,196,610258,0.0-8.79-0.79,False,,1.0,196.0,,,,,,,[],,,,,,53.2,0.0,u,0.0,True,1482.699999988079,89.0,60.0,40.0,265.0066598246455,[],"[640, 360]",ColorTask,110.0,80.0,,,HRV,HRV_0150,2022-11-30 18:32:22
,wl-rdm,197,612611,0.0-8.80-0.80,False,,1.0,197.0,,,,,,,[],,,,,,53.2,1.0,i,1.0,True,1076.0,64.0,60.0,40.0,201.12018534755293,[],"[640, 360]",ColorTask,111.0,81.0,,,HRV,HRV_0150,2022-11-30 18:32:22
,wl-rdm,198,615285,0.0-8.81-0.81,False,,1.0,198.0,,,,,,,[],,,,,,53.2,1.0,i,1.0,True,1376.0000000298023,83.0,60.0,40.0,216.74651583119757,[],"[640, 360]",ColorTask,112.0,82.0,,,HRV,HRV_0150,2022-11-30 18:32:22
,wl-rdm,199,618568,0.0-8.82-0.82,False,,1.0,199.0,,,,,,,[],,,,,,62.5,0.0,u,0.0,True,1855.2999999821186,112.0,60.0,40.0,354.2267263624377,[],"[640, 360]",ColorTask,113.0,83.0,,,HRV,HRV_0150,2022-11-30 18:32:22
,wl-rdm,200,621055,0.0-8.83-0.83,False,,1.0,200.0,,,,,,,[],,,,,,56.4,0.0,u,0.0,True,1172.2999999821186,70.0,60.0,40.0,233.42261491539384,[],"[640, 360]",ColorTask,114.0,84.0,,,HRV,HRV_0150,2022-11-30 18:32:22
,wl-rdm,201,623492,0.0-8.84-0.84,False,,1.0,201.0,,,,,,,[],,,,,,73.6,0.0,u,0.0,True,1137.7999999821186,69.0,60.0,40.0,222.70938467170896,[],"[640, 360]",ColorTask,115.0,85.0,,,HRV,HRV_0150,2022-11-30 18:32:22
,wl-rdm,202,626210,0.0-8.85-0.85,False,,1.0,202.0,,,,,,,[],,,,,,62.5,1.0,i,1.0,True,1279.5999999940395,77.0,60.0,40.0,381.49391036671796,[],"[640, 360]",ColorTask,116.0,86.0,,,HRV,HRV_0150,2022-11-30 18:32:22
,wl-rdm,203,628913,0.0-8.86-0.86,False,,1.0,203.0,,,,,,,[],,,,,,50.0,1.0,i,1.0,True,1427.2000000178814,85.0,60.0,40.0,201.23773053936455,[],"[640, 360]",ColorTask,117.0,87.0,,,HRV,HRV_0150,2022-11-30 18:32:22
,wl-rdm,204,631515,0.0-8.87-0.87,False,,1.0,204.0,,,,,,,[],,,,,,50.0,0.0,i,1.0,False,1329.7999999821186,80.0,60.0,40.0,201.68192458628738,[],"[640, 360]",ColorTask,116.0,88.0,,,HRV,HRV_0150,2022-11-30 18:32:22
,wl-rdm,205,634602,0.0-8.88-0.88,False,,1.0,205.0,,,,,,,[],,,,,,50.0,0.0,u,0.0,True,1653.1000000238419,97.0,60.0,40.0,355.6636380108679,[],"[640, 360]",ColorTask,117.0,89.0,,,HRV,HRV_0150,2022-11-30 18:32:22
,wl-rdm,206,637423,0.0-8.89-0.89,False,,1.0,206.0,,,,,,,[],,,,,,62.5,1.0,i,1.0,True,1414.5999999940395,85.0,60.0,40.0,346.8064142046421,[],"[640, 360]",ColorTask,118.0,90.0,,,HRV,HRV_0150,2022-11-30 18:32:22
,wl-rdm,207,639875,0.0-8.90-0.90,False,,1.0,207.0,,,,,,,[],,,,,,73.6,0.0,u,0.0,True,1066.699999988079,64.0,60.0,40.0,318.0095699382964,[],"[640, 360]",ColorTask,119.0,91.0,,,HRV,HRV_0150,2022-11-30 18:32:22
,wl-rdm,208,642561,0.0-8.91-0.91,False,,1.0,208.0,,,,,,,[],,,,,,53.2,1.0,u,0.0,False,1383.199999988079,82.0,60.0,40.0,218.9573426369069,[],"[640, 360]",ColorTask,118.0,92.0,,,HRV,HRV_0150,2022-11-30 18:32:22
,wl-rdm,209,645330,0.0-8.92-0.92,False,,1.0,209.0,,,,,,,[],,,,,,56.4,1.0,i,1.0,True,1480.7999999821186,88.0,60.0,40.0,217.2900089751075,[],"[640, 360]",ColorTask,119.0,93.0,,,HRV,HRV_0150,2022-11-30 18:32:22
,wl-rdm,210,647700,0.0-8.93-0.93,False,,1.0,210.0,,,,,,,[],,,,,,87.9,1.0,i,1.0,True,977.8000000119209,59.0,60.0,40.0,302.59385186319736,[],"[640, 360]",ColorTask,120.0,94.0,,,HRV,HRV_0150,2022-11-30 18:32:22
,wl-rdm,211,650169,0.0-8.94-0.94,False,,1.0,211.0,,,,,,,[],,,,,,87.9,1.0,i,1.0,True,1190.800000011921,72.0,60.0,40.0,208.0604285408002,[],"[640, 360]",ColorTask,121.0,95.0,,,HRV,HRV_0150,2022-11-30 18:32:22
,wl-rdm,212,652589,0.0-8.95-0.95,False,,1.0,212.0,,,,,,,[],,,,,,87.9,0.0,u,0.0,True,1032.9999999701977,62.0,60.0,40.0,307.1128315237297,[],"[640, 360]",ColorTask,122.0,96.0,,,HRV,HRV_0150,2022-11-30 18:32:22
,wl-rdm,213,655609,0.0-8.96-0.96,False,,1.0,213.0,,,,,,,[],,,,,,50.0,0.0,u,0.0,True,1705.300000011921,102.0,60.0,40.0,248.07560447391134,[],"[640, 360]",ColorTask,123.0,97.0,,,HRV,HRV_0150,2022-11-30 18:32:22
,wl-rdm,214,658011,0.0-8.97-0.97,False,,1.0,214.0,,,,,,,[],,,,,,87.9,0.0,u,0.0,True,997.5,60.0,60.0,40.0,347.13192441939196,[],"[640, 360]",ColorTask,124.0,98.0,,,HRV,HRV_0150,2022-11-30 18:32:22
,wl-rdm,215,660431,0.0-8.98-0.98,False,,1.0,215.0,,,,,,,[],,,,,,87.9,1.0,i,1.0,True,1091.9999999701977,66.0,60.0,40.0,251.05607826890272,[],"[640, 360]",ColorTask,125.0,99.0,,,HRV,HRV_0150,2022-11-30 18:32:22
,wl-rdm,216,663150,0.0-8.99-0.99,False,,1.0,216.0,,,,,,,[],,,,,,73.6,1.0,i,1.0,True,1402.5999999940395,84.0,60.0,40.0,234.8745843324212,[],"[640, 360]",ColorTask,126.0,100.0,,,HRV,HRV_0150,2022-11-30 18:32:22
,wl-rdm,217,665586,0.0-8.100-0.100,False,,1.0,217.0,,,,,,,[],,,,,,87.9,1.0,i,1.0,True,1126.4000000059605,68.0,60.0,40.0,241.83962695369854,[],"[640, 360]",ColorTask,127.0,101.0,,,HRV,HRV_0150,2022-11-30 18:32:22
,wl-rdm,218,668857,0.0-8.101-0.101,False,,1.0,218.0,,,,,,,[],,,,,,62.5,0.0,i,1.0,False,1976.5999999940395,119.0,60.0,40.0,233.0521139612208,[],"[640, 360]",ColorTask,126.0,102.0,,,HRV,HRV_0150,2022-11-30 18:32:22
,wl-rdm,219,671326,0.0-8.102-0.102,False,,1.0,219.0,,,,,,,[],,,,,,62.5,0.0,i,1.0,False,1061.699999988079,63.0,60.0,40.0,349.8633509349107,[],"[640, 360]",ColorTask,125.0,103.0,,,HRV,HRV_0150,2022-11-30 18:32:22
,wl-rdm,220,674580,0.0-8.103-0.103,False,,1.0,220.0,,,,,,,[],,,,,,56.4,0.0,u,0.0,True,1929.7999999821186,115.0,60.0,40.0,252.29282207881292,[],"[640, 360]",ColorTask,126.0,104.0,,,HRV,HRV_0150,2022-11-30 18:32:22
,wl-rdm,221,677366,0.0-8.104-0.104,False,,1.0,221.0,,,,,,,[],,,,,,62.5,0.0,i,1.0,False,1514.0,91.0,60.0,40.0,213.09359297679305,[],"[640, 360]",ColorTask,125.0,105.0,,,HRV,HRV_0150,2022-11-30 18:32:22
,wl-rdm,222,679518,0.0-8.105-0.105,False,,1.0,222.0,,,,,,,[],,,,,,73.6,0.0,u,0.0,True,859.7999999821186,51.0,60.0,40.0,228.59709445071965,[],"[640, 360]",ColorTask,126.0,106.0,,,HRV,HRV_0150,2022-11-30 18:32:22
,wl-rdm,223,681841,0.0-8.106-0.106,False,,1.0,223.0,,,,,,,[],,,,,,87.9,1.0,i,1.0,True,1036.1000000238419,62.0,60.0,40.0,214.0230837916296,[],"[640, 360]",ColorTask,127.0,107.0,,,HRV,HRV_0150,2022-11-30 18:32:22
,wl-rdm,224,684224,0.0-8.107-0.107,False,,1.0,224.0,,,,,,,[],,,,,,73.6,1.0,i,1.0,True,964.4000000059605,58.0,60.0,40.0,364.4664838092286,[],"[640, 360]",ColorTask,128.0,108.0,,,HRV,HRV_0150,2022-11-30 18:32:22
,wl-html-button-response,225,687512,0.0-9.0-0.0,,,,,,,,,,,,3277.2000000178814,,0,,,,,,,,,,,,,,,,,,<h3>End of this session. Thank you!</h3><br>,['Close window'],HRV,HRV_0150,2022-11-30 18:32:22
