success,trial_type,trial_index,time_elapsed,internal_node_id,Block,TrialNumber,TrialTime,trialTimeDiff,FPS_avg,FPS_med,FPS_mode,TrialDur,winResizeTime,rt,block,button_pressed,MotCoh,MotDir,ColCoh,Color,ChoiceKey,Choice,Accuracy,RT,nFrames,FPS,PPD,missTrial,missTrialMsg,onsetDelay,fullScreenExitTime,canvCenter,TrialType,Score,BlockTrial,stimulus,button_labels,exp,subjectId,date
True,fullscreen,0,3267,0.0-0.0,0.0,1.0,,,,,,,,,,,,,,,,,,,,,,,,,,,,,,,,HRV,HRV_0244,2022-11-30 19:38:23
,wl-check-fps,1,8514,0.0-1.0,0.0,2.0,"[5297, 5317.3, 5333.6, 5376.1, 5390.3, 5394, 5410.7, 5425.3, 5445.5, 5459.6, 5475.8, 5486.7, 5504.6, 5520.1, 5537.4, 5554.9, 5571.2, 5587.7, 5610, 5625.8, 5640.1, 5659.7, 5675.3, 5689.4, 5709.5, 5725.1, 5741.9, 5759.9, 5774.7, 5792.4, 5808.2, 5825.1, 5842, 5857.7, 5875.1, 5892, 5905.7, 5924.8, 5937.8, 5954.8, 5971, 5994.3, 6004.6, 6020.9, 6038.1, 6054.5, 6069.9, 6087.2, 6104.4, 6119.3, 6138.3, 6155.1, 6171.2, 6186.6, 6204.3, 6225.2, 6236.4, 6254.7, 6272, 6287.2, 6304.5, 6321.7, 6340.7, 6360.1, 6404.1, 6421.1, 6436.8, 6454.4, 6471.2, 6491.8, 6508.4, 6526.2, 6540.9, 6558.2, 6575.4, 6591.4, 6608.7, 6627, 6642.2, 6658.9, 6677, 6692.7, 6709.1, 6724.7, 6737.7, 6755.7, 6771.8, 6787.6, 6804.7, 6820.4, 6837.5, 6855.1, 6871.3, 6894.3, 6905.3, 6920.9, 6940.8, 6954.4, 6974.7, 6998.7, 7008.7, 7025, 7041.3, 7059.1, 7071.2, 7087.9, 7105, 7125.4, 7137.7, 7155.1, 7170.7, 7187.7, 7204.5, 7221.2, 7237.5, 7254.8, 7270.8, 7288, 7304.5, 7321.3, 7337.8, 7357.3, 7369.9, 7387.5, 7422.6, 7426.7, 7437.5, 7454.7, 7470, 7487.3, 7505.1, 7518.7, 7537.1, 7555.4, 7571.8, 7587.5, 7605, 7620.2, 7643.6, 7654.8, 7670.8, 7687.5, 7704.5, 7720.7, 7737.8, 7754.9, 7771.2, 7787.4, 7804.5, 7820.8, 7837.4, 7854.8, 7871.2, 7887.3, 7905.4, 7921.2, 7937.5, 7955, 7970.9, 7997.3, 8011.8, 8020.1, 8036.5, 8054.5, 8070.6, 8087.5, 8104.3, 8120.9, 8137.5, 8154.5, 8170.8, 8187.5, 8204.5, 8220.9, 8237.5, 8255.2, 8271.4, 8287.8, 8305.1, 8320.9, 8337.5, 8354.5, 8370.8, 8387.5, 8404.5, 8420.8, 8437.5, 8454.6, 8470.9, 8487.5, 8504.5, 8521.2, 8537.6, 8554.5, 8571.1, 8587.6, 8604.6, 8620.9, 8638, 8654.9, 8670.6, 8686.7, 8704.5, 8720.7, 8737.5, 8754.9, 8770.7, 8787.4, 8804.5, 8821, 8837.5, 8854.9, 8871.3, 8890.3, 8904.6, 8920.8, 8942.2, 8954.3, 8976.5, 8997.9, 9009.8, 9025, 9041.1, 9058, 9076.3, 9092.1, 9108.5, 9120.1, 9136.7, 9159.2, 9169.9, 9188.7, 9204.9, 9220.3, 9244.9, 9259.9, 9278.1, 9294.1, 9308.9, 9325.7, 9339.5, 9364.2, 9377.6, 9391.4, 9404.4, 9420.1, 9439.5, 9455.2, 9475, 9491.8, 9509.6, 9578.1, 9664, 9690.2, 9704.2, 9724.2, 9740.5, 9759.3, 9802.2, 9805.1, 9818.7, 9839.7, 9851.9, 9868.4, 9885, 9901.8, 9918.4, 9935.1, 9956.8, 9973.9, 9993.8, 10008.5, 10025.2, 10035.5, 10057.8, 10074.4, 10086.4, 10118.5, 10124.3, 10135.1, 10151.8, 10168.5, 10185.2, 10201.9, 10218.4, 10235.1, 10251.7, 10271, 10344.2, 10351.8, 10356.5, 10385.6, 10398.6, 10407.7, 10424.9, 10440.9, 10458.2, 10475.8, 10485.6, 10502.3]","[4.9, 20.3, 16.3, 42.5, 14.2, 3.7, 16.7, 14.6, 20.2, 14.1, 16.2, 10.9, 17.9, 15.5, 17.3, 17.5, 16.3, 16.5, 22.3, 15.8, 14.3, 19.6, 15.6, 14.1, 20.1, 15.6, 16.8, 18, 14.8, 17.7, 15.8, 16.9, 16.9, 15.7, 17.4, 16.9, 13.7, 19.1, 13, 17, 16.2, 23.3, 10.3, 16.3, 17.2, 16.4, 15.4, 17.3, 17.2, 14.9, 19, 16.8, 16.1, 15.4, 17.7, 20.9, 11.2, 18.3, 17.3, 15.2, 17.3, 17.2, 19, 19.4, 44, 17, 15.7, 17.6, 16.8, 20.6, 16.6, 17.8, 14.7, 17.3, 17.2, 16, 17.3, 18.3, 15.2, 16.7, 18.1, 15.7, 16.4, 15.6, 13, 18, 16.1, 15.8, 17.1, 15.7, 17.1, 17.6, 16.2, 23, 11, 15.6, 19.9, 13.6, 20.3, 24, 10, 16.3, 16.3, 17.8, 12.1, 16.7, 17.1, 20.4, 12.3, 17.4, 15.6, 17, 16.8, 16.7, 16.3, 17.3, 16, 17.2, 16.5, 16.8, 16.5, 19.5, 12.6, 17.6, 35.1, 4.1, 10.8, 17.2, 15.3, 17.3, 17.8, 13.6, 18.4, 18.3, 16.4, 15.7, 17.5, 15.2, 23.4, 11.2, 16, 16.7, 17, 16.2, 17.1, 17.1, 16.3, 16.2, 17.1, 16.3, 16.6, 17.4, 16.4, 16.1, 18.1, 15.8, 16.3, 17.5, 15.9, 26.4, 14.5, 8.3, 16.4, 18, 16.1, 16.9, 16.8, 16.6, 16.6, 17, 16.3, 16.7, 17, 16.4, 16.6, 17.7, 16.2, 16.4, 17.3, 15.8, 16.6, 17, 16.3, 16.7, 17, 16.3, 16.7, 17.1, 16.3, 16.6, 17, 16.7, 16.4, 16.9, 16.6, 16.5, 17, 16.3, 17.1, 16.9, 15.7, 16.1, 17.8, 16.2, 16.8, 17.4, 15.8, 16.7, 17.1, 16.5, 16.5, 17.4, 16.4, 19, 14.3, 16.2, 21.4, 12.1, 22.2, 21.4, 11.9, 15.2, 16.1, 16.9, 18.3, 15.8, 16.4, 11.6, 16.6, 22.5, 10.7, 18.8, 16.2, 15.4, 24.6, 15, 18.2, 16, 14.8, 16.8, 13.8, 24.7, 13.4, 13.8, 13, 15.7, 19.4, 15.7, 19.8, 16.8, 17.8, 68.5, 85.9, 26.2, 14, 20, 16.3, 18.8, 42.9, 2.9, 13.6, 21, 12.2, 16.5, 16.6, 16.8, 16.6, 16.7, 21.7, 17.1, 19.9, 14.7, 16.7, 10.3, 22.3, 16.6, 12, 32.1, 5.8, 10.8, 16.7, 16.7, 16.7, 16.7, 16.5, 16.7, 16.6, 19.3, 73.2, 7.6, 4.7, 29.1, 13, 9.1, 17.2, 16, 17.3, 17.6, 9.8, 16.7]",58.0,61.0,60.0,5229.0,[],,,,,,,,,,,,,,,,,,,,,,,,,HRV,HRV_0244,2022-11-30 19:38:23
,wl-html-keyboard-response,2,21377,0.0-2.0-0.0,0.0,3.0,,,,,,,,10836.70000000298,0.0,0,,,,,,,,,,,,,,,,,,,,,,HRV,HRV_0244,2022-11-30 19:38:23
,wl-rdm,3,28862,0.0-3.0-0.0,0.0,4.0,,,,,,,[],,,,0.0,0.0,87.9,0.0,u,0.0,True,1748.5,103.0,60.0,40.0,False,,3000.0,[],"[683, 384]",ColorTask_Demo,,,,,HRV,HRV_0244,2022-11-30 19:38:23
,wl-rdm,4,33677,0.0-3.0-1.0,0.0,5.0,,,,,,,[],,,,0.0,0.0,87.9,1.0,i,1.0,True,722.5999999940395,44.0,60.0,40.0,False,,2000.0,[],"[683, 384]",ColorTask_Demo,,,,,HRV,HRV_0244,2022-11-30 19:38:23
,wl-html-keyboard-response,5,41309,0.0-3.0-2.0,0.0,6.0,,,,,,,,5621.0999999940395,0.0,1,,,,,,,,,,,,,,,,,,,,,,HRV,HRV_0244,2022-11-30 19:38:23
,wl-html-keyboard-response,6,53107,0.0-4.0-0.0,0.0,7.0,,,,,,,,9782.20000000298,0.0,0,,,,,,,,,,,,,,,,,,,,,,HRV,HRV_0244,2022-11-30 19:38:23
,wl-html-keyboard-response,7,70461,0.0-5.0-0.0,0.0,8.0,,,,,,,,15337.5,0.0,0,,,,,,,,,,,,,,,,,,,,,,HRV,HRV_0244,2022-11-30 19:38:23
,wl-rdm,8,72681,0.0-6.0-0.0,0.0,9.0,,,,,,,[],,,,,,56.4,1.0,i,1.0,True,845.0999999940395,51.0,60.0,40.0,False,,296.5427204631597,[],"[683, 384]",ColorTask,1.0,1.0,,,HRV,HRV_0244,2022-11-30 19:38:23
,wl-rdm,9,75044,0.0-6.1-0.1,0.0,10.0,,,,,,,[],,,,,,53.2,1.0,u,0.0,False,1071.0999999940395,63.0,60.0,40.0,False,,216.5031976482255,[],"[683, 384]",ColorTask,0.0,2.0,,,HRV,HRV_0244,2022-11-30 19:38:23
,wl-rdm,10,77132,0.0-6.2-0.2,0.0,11.0,,,,,,,[],,,,,,53.2,1.0,u,0.0,False,785.2999999970198,47.0,60.0,40.0,False,,225.60681682679515,[],"[683, 384]",ColorTask,-1.0,3.0,,,HRV,HRV_0244,2022-11-30 19:38:23
,wl-rdm,11,79212,0.0-6.3-0.3,0.0,12.0,,,,,,,[],,,,,,73.6,1.0,i,1.0,True,753.4000000059605,44.0,60.0,40.0,False,,240.06329502524105,[],"[683, 384]",ColorTask,0.0,4.0,,,HRV,HRV_0244,2022-11-30 19:38:23
,wl-rdm,12,81583,0.0-6.4-0.4,0.0,13.0,,,,,,,[],,,,,,62.5,0.0,u,0.0,True,1072.0999999940395,63.0,60.0,40.0,False,,231.30129615749306,[],"[683, 384]",ColorTask,1.0,5.0,,,HRV,HRV_0244,2022-11-30 19:38:23
,wl-rdm,13,83799,0.0-6.5-0.5,0.0,14.0,,,,,,,[],,,,,,53.2,1.0,i,1.0,True,815.5,49.0,60.0,40.0,False,,319.8250692438457,[],"[683, 384]",ColorTask,2.0,6.0,,,HRV,HRV_0244,2022-11-30 19:38:23
,wl-rdm,14,85929,0.0-6.6-0.6,0.0,15.0,,,,,,,[],,,,,,73.6,0.0,u,0.0,True,796.4000000059605,46.0,60.0,40.0,False,,261.64902573258456,[],"[683, 384]",ColorTask,3.0,7.0,,,HRV,HRV_0244,2022-11-30 19:38:23
,wl-rdm,15,87944,0.0-6.7-0.7,0.0,16.0,,,,,,,[],,,,,,73.6,1.0,i,1.0,True,692.0999999940395,42.0,60.0,40.0,False,,227.66142301711278,[],"[683, 384]",ColorTask,4.0,8.0,,,HRV,HRV_0244,2022-11-30 19:38:23
,wl-rdm,16,90228,0.0-6.8-0.8,0.0,17.0,,,,,,,[],,,,,,56.4,1.0,i,1.0,True,857.6999999880791,49.0,60.0,40.0,False,,350.43737876205614,[],"[683, 384]",ColorTask,5.0,9.0,,,HRV,HRV_0244,2022-11-30 19:38:23
,wl-rdm,17,92388,0.0-6.9-0.9,0.0,18.0,,,,,,,[],,,,,,53.2,1.0,i,1.0,True,826.5999999940395,50.0,60.0,40.0,False,,242.57706884829042,[],"[683, 384]",ColorTask,6.0,10.0,,,HRV,HRV_0244,2022-11-30 19:38:23
,wl-rdm,18,94329,0.0-6.10-0.10,0.0,19.0,,,,,,,[],,,,,,53.2,0.0,u,0.0,True,594.2000000029802,36.0,60.0,40.0,False,,257.0457863094166,[],"[683, 384]",ColorTask,7.0,11.0,,,HRV,HRV_0244,2022-11-30 19:38:23
,wl-rdm,19,96329,0.0-6.11-0.11,0.0,20.0,,,,,,,[],,,,,,87.9,1.0,i,1.0,True,560.6000000089407,34.0,60.0,40.0,False,,350.32316687749307,[],"[683, 384]",ColorTask,8.0,12.0,,,HRV,HRV_0244,2022-11-30 19:38:23
,wl-rdm,20,98310,0.0-6.12-0.12,0.0,21.0,,,,,,,[],,,,,,50.0,0.0,u,0.0,True,638.5,38.0,60.0,40.0,False,,209.9861377785,[],"[683, 384]",ColorTask,9.0,13.0,,,HRV,HRV_0244,2022-11-30 19:38:23
,wl-rdm,21,100361,0.0-6.13-0.13,0.0,22.0,,,,,,,[],,,,,,53.2,0.0,u,0.0,True,702.4000000059605,39.0,60.0,40.0,False,,277.5802138116753,[],"[683, 384]",ColorTask,10.0,14.0,,,HRV,HRV_0244,2022-11-30 19:38:23
,wl-rdm,22,102377,0.0-6.14-0.14,0.0,23.0,,,,,,,[],,,,,,87.9,0.0,u,0.0,True,649.1999999880791,39.0,60.0,40.0,False,,297.5003336440559,[],"[683, 384]",ColorTask,11.0,15.0,,,HRV,HRV_0244,2022-11-30 19:38:23
,wl-rdm,23,104761,0.0-6.15-0.15,0.0,24.0,,,,,,,[],,,,,,53.2,0.0,i,1.0,False,969.8999999910593,58.0,60.0,40.0,False,,317.2916451711412,[],"[683, 384]",ColorTask,10.0,16.0,,,HRV,HRV_0244,2022-11-30 19:38:23
,wl-rdm,24,106845,0.0-6.16-0.16,0.0,25.0,,,,,,,[],,,,,,87.9,0.0,u,0.0,True,659.1999999880791,39.0,60.0,40.0,False,,345.4948466173721,[],"[683, 384]",ColorTask,11.0,17.0,,,HRV,HRV_0244,2022-11-30 19:38:23
,wl-rdm,25,108795,0.0-6.17-0.17,0.0,26.0,,,,,,,[],,,,,,56.4,0.0,i,1.0,False,607.8000000119209,38.0,60.0,40.0,False,,225.2379567664621,[],"[683, 384]",ColorTask,10.0,18.0,,,HRV,HRV_0244,2022-11-30 19:38:23
,wl-rdm,26,110728,0.0-6.18-0.18,0.0,27.0,,,,,,,[],,,,,,62.5,1.0,u,0.0,False,553.1999999880791,33.0,60.0,40.0,False,,298.4737893161573,[],"[683, 384]",ColorTask,9.0,19.0,,,HRV,HRV_0244,2022-11-30 19:38:23
,wl-rdm,27,113268,0.0-6.19-0.19,0.0,28.0,,,,,,,[],,,,,,50.0,1.0,u,0.0,False,1027.3999999910593,62.0,60.0,40.0,False,,378.71811169244677,[],"[683, 384]",ColorTask,8.0,20.0,,,HRV,HRV_0244,2022-11-30 19:38:23
,wl-rdm,28,115334,0.0-6.20-0.20,0.0,29.0,,,,,,,[],,,,,,87.9,1.0,i,1.0,True,642.0999999940395,38.0,60.0,40.0,False,,338.89841913443615,[],"[683, 384]",ColorTask,9.0,21.0,,,HRV,HRV_0244,2022-11-30 19:38:23
,wl-rdm,29,117661,0.0-6.21-0.21,0.0,30.0,,,,,,,[],,,,,,62.5,1.0,i,1.0,True,867.7000000029802,52.0,60.0,40.0,False,,343.7594187858905,[],"[683, 384]",ColorTask,10.0,22.0,,,HRV,HRV_0244,2022-11-30 19:38:23
,wl-rdm,30,119596,0.0-6.22-0.22,0.0,31.0,,,,,,,[],,,,,,73.6,1.0,i,1.0,True,642.3999999910593,39.0,60.0,40.0,False,,211.054749135218,[],"[683, 384]",ColorTask,11.0,23.0,,,HRV,HRV_0244,2022-11-30 19:38:23
,wl-rdm,31,121633,0.0-6.23-0.23,0.0,32.0,,,,,,,[],,,,,,50.0,0.0,i,1.0,False,713.7999999821186,43.0,60.0,40.0,False,,263.9691815674556,[],"[683, 384]",ColorTask,10.0,24.0,,,HRV,HRV_0244,2022-11-30 19:38:23
,wl-rdm,32,123862,0.0-6.24-0.24,0.0,33.0,,,,,,,[],,,,,,50.0,0.0,i,1.0,False,794.0000000149012,48.0,60.0,40.0,False,,371.4448120297411,[],"[683, 384]",ColorTask,9.0,25.0,,,HRV,HRV_0244,2022-11-30 19:38:23
,wl-rdm,33,126064,0.0-6.25-0.25,0.0,34.0,,,,,,,[],,,,,,62.5,0.0,u,0.0,True,901.6999999880791,52.0,60.0,40.0,False,,204.07069649682342,[],"[683, 384]",ColorTask,10.0,26.0,,,HRV,HRV_0244,2022-11-30 19:38:23
,wl-rdm,34,128029,0.0-6.26-0.26,0.0,35.0,,,,,,,[],,,,,,87.9,0.0,u,0.0,True,640.1999999880791,37.0,60.0,40.0,False,,262.84336805311864,[],"[683, 384]",ColorTask,11.0,27.0,,,HRV,HRV_0244,2022-11-30 19:38:23
,wl-rdm,35,130216,0.0-6.27-0.27,0.0,36.0,,,,,,,[],,,,,,56.4,1.0,i,1.0,True,805.0000000149012,42.0,60.0,40.0,False,,274.2165889936106,[],"[683, 384]",ColorTask,12.0,28.0,,,HRV,HRV_0244,2022-11-30 19:38:23
,wl-rdm,36,132347,0.0-6.28-0.28,0.0,37.0,,,,,,,[],,,,,,53.2,0.0,u,0.0,True,789.2000000178814,44.0,60.0,40.0,False,,239.10753035801497,[],"[683, 384]",ColorTask,13.0,29.0,,,HRV,HRV_0244,2022-11-30 19:38:23
,wl-rdm,37,134451,0.0-6.29-0.29,0.0,38.0,,,,,,,[],,,,,,73.6,0.0,u,0.0,True,800.5,41.0,60.0,40.0,False,,231.23379372273806,[],"[683, 384]",ColorTask,14.0,30.0,,,HRV,HRV_0244,2022-11-30 19:38:23
,wl-rdm,38,136995,0.0-6.30-0.30,0.0,39.0,,,,,,,[],,,,,,50.0,0.0,i,1.0,False,1177.0999999940395,70.0,60.0,40.0,False,,211.5780852842338,[],"[683, 384]",ColorTask,13.0,31.0,,,HRV,HRV_0244,2022-11-30 19:38:23
,wl-rdm,39,139083,0.0-6.31-0.31,0.0,40.0,,,,,,,[],,,,,,62.5,1.0,i,1.0,True,684.9000000059605,41.0,60.0,40.0,False,,276.2127732691295,[],"[683, 384]",ColorTask,14.0,32.0,,,HRV,HRV_0244,2022-11-30 19:38:23
,wl-rdm,40,141046,0.0-6.32-0.32,0.0,41.0,,,,,,,[],,,,,,73.6,0.0,u,0.0,True,573.5999999791384,34.0,60.0,40.0,False,,325.2088919212656,[],"[683, 384]",ColorTask,15.0,33.0,,,HRV,HRV_0244,2022-11-30 19:38:23
,wl-rdm,41,143174,0.0-6.33-0.33,0.0,42.0,,,,,,,[],,,,,,53.2,1.0,u,0.0,False,709.2000000029802,43.0,60.0,40.0,False,,303.2246798120013,[],"[683, 384]",ColorTask,14.0,34.0,,,HRV,HRV_0244,2022-11-30 19:38:23
,wl-rdm,42,145417,0.0-6.34-0.34,0.0,43.0,,,,,,,[],,,,,,50.0,1.0,i,1.0,True,824.8000000119209,50.0,60.0,40.0,False,,337.0847133277452,[],"[683, 384]",ColorTask,15.0,35.0,,,HRV,HRV_0244,2022-11-30 19:38:23
,wl-rdm,43,147445,0.0-6.35-0.35,0.0,44.0,,,,,,,[],,,,,,50.0,0.0,u,0.0,True,672.2999999821186,40.0,60.0,40.0,False,,279.9929547620038,[],"[683, 384]",ColorTask,16.0,36.0,,,HRV,HRV_0244,2022-11-30 19:38:23
,wl-rdm,44,149534,0.0-6.36-0.36,0.0,45.0,,,,,,,[],,,,,,62.5,1.0,i,1.0,True,781.0,45.0,60.0,40.0,False,,204.18079988487133,[],"[683, 384]",ColorTask,17.0,37.0,,,HRV,HRV_0244,2022-11-30 19:38:23
,wl-rdm,45,151645,0.0-6.37-0.37,0.0,46.0,,,,,,,[],,,,,,50.0,1.0,i,1.0,True,749.5999999940395,45.0,60.0,40.0,False,,271.1462821850893,[],"[683, 384]",ColorTask,18.0,38.0,,,HRV,HRV_0244,2022-11-30 19:38:23
,wl-rdm,46,153584,0.0-6.38-0.38,0.0,47.0,,,,,,,[],,,,,,73.6,0.0,u,0.0,True,609.5999999940395,37.0,60.0,40.0,False,,207.13516791901284,[],"[683, 384]",ColorTask,19.0,39.0,,,HRV,HRV_0244,2022-11-30 19:38:23
,wl-rdm,47,155645,0.0-6.39-0.39,0.0,48.0,,,,,,,[],,,,,,73.6,0.0,u,0.0,True,770.7999999970198,45.0,60.0,40.0,False,,222.61256723548865,[],"[683, 384]",ColorTask,20.0,40.0,,,HRV,HRV_0244,2022-11-30 19:38:23
,wl-rdm,48,157679,0.0-6.40-0.40,0.0,49.0,,,,,,,[],,,,,,50.0,0.0,i,1.0,False,742.1000000089407,45.0,60.0,40.0,False,,212.95832029230564,[],"[683, 384]",ColorTask,19.0,41.0,,,HRV,HRV_0244,2022-11-30 19:38:23
,wl-rdm,49,159779,0.0-6.41-0.41,0.0,50.0,,,,,,,[],,,,,,56.4,0.0,u,0.0,True,788.0,46.0,60.0,40.0,False,,226.12526685139983,[],"[683, 384]",ColorTask,20.0,42.0,,,HRV,HRV_0244,2022-11-30 19:38:23
,wl-rdm,50,161946,0.0-6.42-0.42,0.0,51.0,,,,,,,[],,,,,,62.5,1.0,i,1.0,True,882.0,50.0,60.0,40.0,False,,229.1722670880544,[],"[683, 384]",ColorTask,21.0,43.0,,,HRV,HRV_0244,2022-11-30 19:38:23
,wl-rdm,51,164279,0.0-6.43-0.43,0.0,52.0,,,,,,,[],,,,,,50.0,1.0,u,0.0,False,1044.9000000059605,60.0,60.0,40.0,False,,222.83791708653766,[],"[683, 384]",ColorTask,20.0,44.0,,,HRV,HRV_0244,2022-11-30 19:38:23
,wl-rdm,52,166279,0.0-6.44-0.44,0.0,53.0,,,,,,,[],,,,,,53.2,1.0,i,1.0,True,675.8000000119209,41.0,60.0,40.0,False,,241.21097673128327,[],"[683, 384]",ColorTask,21.0,45.0,,,HRV,HRV_0244,2022-11-30 19:38:23
,wl-rdm,53,168680,0.0-6.45-0.45,0.0,54.0,,,,,,,[],,,,,,50.0,1.0,i,1.0,True,975.2999999970198,59.0,60.0,40.0,False,,334.51735072377585,[],"[683, 384]",ColorTask,22.0,46.0,,,HRV,HRV_0244,2022-11-30 19:38:23
,wl-rdm,54,170829,0.0-6.46-0.46,0.0,55.0,,,,,,,[],,,,,,53.2,0.0,u,0.0,True,728.3000000119209,42.0,60.0,40.0,False,,336.08412954198,[],"[683, 384]",ColorTask,23.0,47.0,,,HRV,HRV_0244,2022-11-30 19:38:23
,wl-rdm,55,172981,0.0-6.47-0.47,0.0,56.0,,,,,,,[],,,,,,56.4,0.0,i,1.0,False,716.7000000029802,43.0,60.0,40.0,False,,351.72853871878874,[],"[683, 384]",ColorTask,22.0,48.0,,,HRV,HRV_0244,2022-11-30 19:38:23
,wl-rdm,56,175130,0.0-6.48-0.48,0.0,57.0,,,,,,,[],,,,,,53.2,1.0,i,1.0,True,741.3000000119209,45.0,60.0,40.0,False,,317.33973105868245,[],"[683, 384]",ColorTask,23.0,49.0,,,HRV,HRV_0244,2022-11-30 19:38:23
,wl-rdm,57,177131,0.0-6.49-0.49,0.0,58.0,,,,,,,[],,,,,,87.9,1.0,i,1.0,True,708.0,43.0,60.0,40.0,False,,228.88944932971359,[],"[683, 384]",ColorTask,24.0,50.0,,,HRV,HRV_0244,2022-11-30 19:38:23
,wl-rdm,58,179364,0.0-6.50-0.50,0.0,59.0,,,,,,,[],,,,,,56.4,0.0,i,1.0,False,806.5999999940395,49.0,60.0,40.0,False,,289.8669651918677,[],"[683, 384]",ColorTask,23.0,51.0,,,HRV,HRV_0244,2022-11-30 19:38:23
,wl-rdm,59,181315,0.0-6.51-0.51,0.0,60.0,,,,,,,[],,,,,,87.9,0.0,u,0.0,True,609.2000000029802,37.0,60.0,40.0,False,,269.2269801609798,[],"[683, 384]",ColorTask,24.0,52.0,,,HRV,HRV_0244,2022-11-30 19:38:23
,wl-rdm,60,183434,0.0-6.52-0.52,0.0,61.0,,,,,,,[],,,,,,50.0,1.0,i,1.0,True,651.5999999940395,39.0,60.0,40.0,False,,372.98685770975726,[],"[683, 384]",ColorTask,25.0,53.0,,,HRV,HRV_0244,2022-11-30 19:38:23
,wl-rdm,61,185485,0.0-6.53-0.53,0.0,62.0,,,,,,,[],,,,,,53.2,0.0,i,1.0,False,709.0,43.0,60.0,40.0,False,,231.79340278152466,[],"[683, 384]",ColorTask,24.0,54.0,,,HRV,HRV_0244,2022-11-30 19:38:23
,wl-rdm,62,187735,0.0-6.54-0.54,0.0,63.0,,,,,,,[],,,,,,62.5,1.0,u,0.0,False,809.1999999880791,49.0,60.0,40.0,False,,339.9432351401961,[],"[683, 384]",ColorTask,23.0,55.0,,,HRV,HRV_0244,2022-11-30 19:38:23
,wl-rdm,63,190313,0.0-6.55-0.55,0.0,64.0,,,,,,,[],,,,,,56.4,1.0,u,0.0,False,1228.7000000029802,71.0,60.0,40.0,False,,240.51336949316567,[],"[683, 384]",ColorTask,22.0,56.0,,,HRV,HRV_0244,2022-11-30 19:38:23
,wl-rdm,64,192380,0.0-6.56-0.56,0.0,65.0,,,,,,,[],,,,,,87.9,0.0,u,0.0,True,703.3000000119209,42.0,60.0,40.0,False,,297.8626065422804,[],"[683, 384]",ColorTask,23.0,57.0,,,HRV,HRV_0244,2022-11-30 19:38:23
,wl-rdm,65,194647,0.0-6.57-0.57,0.0,66.0,,,,,,,[],,,,,,73.6,0.0,u,0.0,True,880.4000000059605,53.0,60.0,40.0,False,,283.6493235297453,[],"[683, 384]",ColorTask,24.0,58.0,,,HRV,HRV_0244,2022-11-30 19:38:23
,wl-rdm,66,196847,0.0-6.58-0.58,0.0,67.0,,,,,,,[],,,,,,56.4,0.0,u,0.0,True,905.2999999970198,53.0,60.0,40.0,False,,207.83914680651668,[],"[683, 384]",ColorTask,25.0,59.0,,,HRV,HRV_0244,2022-11-30 19:38:23
,wl-rdm,67,198914,0.0-6.59-0.59,0.0,68.0,,,,,,,[],,,,,,50.0,1.0,i,1.0,True,727.1999999880791,44.0,60.0,40.0,False,,257.5921326511767,[],"[683, 384]",ColorTask,26.0,60.0,,,HRV,HRV_0244,2022-11-30 19:38:23
,wl-rdm,68,201088,0.0-6.60-0.60,0.0,69.0,,,,,,,[],,,,,,62.5,0.0,i,1.0,False,859.2999999970198,50.0,60.0,40.0,False,,232.22234242300016,[],"[683, 384]",ColorTask,25.0,61.0,,,HRV,HRV_0244,2022-11-30 19:38:23
,wl-rdm,69,203198,0.0-6.61-0.61,0.0,70.0,,,,,,,[],,,,,,87.9,0.0,u,0.0,True,805.4000000059605,49.0,60.0,40.0,False,,245.74837572028392,[],"[683, 384]",ColorTask,26.0,62.0,,,HRV,HRV_0244,2022-11-30 19:38:23
,wl-rdm,70,205264,0.0-6.62-0.62,0.0,71.0,,,,,,,[],,,,,,87.9,1.0,i,1.0,True,568.4000000059605,34.0,60.0,40.0,False,,375.82306085880964,[],"[683, 384]",ColorTask,27.0,63.0,,,HRV,HRV_0244,2022-11-30 19:38:23
,wl-rdm,71,207338,0.0-6.63-0.63,0.0,72.0,,,,,,,[],,,,,,56.4,0.0,i,1.0,False,792.8999999910593,47.0,60.0,40.0,False,,204.8298453629457,[],"[683, 384]",ColorTask,26.0,64.0,,,HRV,HRV_0244,2022-11-30 19:38:23
,wl-rdm,72,209536,0.0-6.64-0.64,0.0,73.0,,,,,,,[],,,,,,73.6,1.0,i,1.0,True,879.7999999970198,52.0,60.0,40.0,False,,231.87239110673363,[],"[683, 384]",ColorTask,27.0,65.0,,,HRV,HRV_0244,2022-11-30 19:38:23
,wl-rdm,73,211632,0.0-6.65-0.65,0.0,74.0,,,,,,,[],,,,,,73.6,0.0,u,0.0,True,744.2000000029802,45.0,60.0,40.0,False,,239.07079637464764,[],"[683, 384]",ColorTask,28.0,66.0,,,HRV,HRV_0244,2022-11-30 19:38:23
,wl-rdm,74,213619,0.0-6.66-0.66,0.0,75.0,,,,,,,[],,,,,,56.4,1.0,i,1.0,True,669.5000000149012,37.0,60.0,40.0,False,,247.60305785382678,[],"[683, 384]",ColorTask,29.0,67.0,,,HRV,HRV_0244,2022-11-30 19:38:23
,wl-rdm,75,215570,0.0-6.67-0.67,0.0,76.0,,,,,,,[],,,,,,56.4,1.0,i,1.0,True,665.2999999970198,40.0,60.0,40.0,False,,215.34955481963632,[],"[683, 384]",ColorTask,30.0,68.0,,,HRV,HRV_0244,2022-11-30 19:38:23
,wl-rdm,76,217699,0.0-6.68-0.68,0.0,77.0,,,,,,,[],,,,,,62.5,1.0,i,1.0,True,725.3999999910593,44.0,60.0,40.0,False,,320.6870071074232,[],"[683, 384]",ColorTask,31.0,69.0,,,HRV,HRV_0244,2022-11-30 19:38:23
,wl-rdm,77,219653,0.0-6.69-0.69,0.0,78.0,,,,,,,[],,,,,,87.9,0.0,u,0.0,True,648.0999999940395,37.0,60.0,40.0,False,,244.96211937092528,[],"[683, 384]",ColorTask,32.0,70.0,,,HRV,HRV_0244,2022-11-30 19:38:23
,wl-rdm,78,221948,0.0-6.70-0.70,0.0,79.0,,,,,,,[],,,,,,62.5,0.0,u,0.0,True,978.6000000089407,59.0,60.0,40.0,False,,242.33156970357066,[],"[683, 384]",ColorTask,33.0,71.0,,,HRV,HRV_0244,2022-11-30 19:38:23
,wl-rdm,79,224281,0.0-6.71-0.71,0.0,80.0,,,,,,,[],,,,,,53.2,0.0,u,0.0,True,992.0999999940395,60.0,60.0,40.0,False,,252.31672667911812,[],"[683, 384]",ColorTask,34.0,72.0,,,HRV,HRV_0244,2022-11-30 19:38:23
,wl-rdm,80,226599,0.0-6.72-0.72,0.0,81.0,,,,,,,[],,,,,,73.6,0.0,u,0.0,True,974.9000000059605,57.0,60.0,40.0,False,,253.74985096695403,[],"[683, 384]",ColorTask,35.0,73.0,,,HRV,HRV_0244,2022-11-30 19:38:23
,wl-rdm,81,228516,0.0-6.73-0.73,0.0,82.0,,,,,,,[],,,,,,53.2,0.0,i,1.0,False,636.1999999880791,37.0,60.0,40.0,False,,220.79576213646746,[],"[683, 384]",ColorTask,34.0,74.0,,,HRV,HRV_0244,2022-11-30 19:38:23
,wl-rdm,82,231182,0.0-6.74-0.74,0.0,83.0,,,,,,,[],,,,,,62.5,0.0,u,0.0,True,1157.5,70.0,60.0,40.0,False,,386.66243870797643,[],"[683, 384]",ColorTask,35.0,75.0,,,HRV,HRV_0244,2022-11-30 19:38:23
,wl-rdm,83,233366,0.0-6.75-0.75,0.0,84.0,,,,,,,[],,,,,,62.5,0.0,u,0.0,True,741.2999999970198,45.0,60.0,40.0,False,,374.98865994183325,[],"[683, 384]",ColorTask,36.0,76.0,,,HRV,HRV_0244,2022-11-30 19:38:23
,wl-rdm,84,235536,0.0-6.76-0.76,0.0,85.0,,,,,,,[],,,,,,56.4,1.0,i,1.0,True,717.2999999970198,43.0,60.0,40.0,False,,392.3887818009805,[],"[683, 384]",ColorTask,37.0,77.0,,,HRV,HRV_0244,2022-11-30 19:38:23
,wl-rdm,85,237537,0.0-6.77-0.77,0.0,86.0,,,,,,,[],,,,,,87.9,1.0,i,1.0,True,611.8999999910593,37.0,60.0,40.0,False,,258.4903724307236,[],"[683, 384]",ColorTask,38.0,78.0,,,HRV,HRV_0244,2022-11-30 19:38:23
,wl-rdm,86,239883,0.0-6.78-0.78,0.0,87.0,,,,,,,[],,,,,,50.0,0.0,u,0.0,True,989.7999999821186,58.0,60.0,40.0,False,,281.5595427149377,[],"[683, 384]",ColorTask,39.0,79.0,,,HRV,HRV_0244,2022-11-30 19:38:23
,wl-rdm,87,242033,0.0-6.79-0.79,0.0,88.0,,,,,,,[],,,,,,50.0,0.0,u,0.0,True,778.8000000119209,47.0,60.0,40.0,False,,296.7352863103072,[],"[683, 384]",ColorTask,40.0,80.0,,,HRV,HRV_0244,2022-11-30 19:38:23
,wl-rdm,88,244532,0.0-6.80-0.80,0.0,89.0,,,,,,,[],,,,,,50.0,0.0,u,0.0,True,1176.4000000059605,68.0,60.0,40.0,False,,246.64536399582204,[],"[683, 384]",ColorTask,41.0,81.0,,,HRV,HRV_0244,2022-11-30 19:38:23
,wl-rdm,89,246833,0.0-6.81-0.81,0.0,90.0,,,,,,,[],,,,,,62.5,0.0,u,0.0,True,887.8000000119209,54.0,60.0,40.0,False,,326.75488547143846,[],"[683, 384]",ColorTask,42.0,82.0,,,HRV,HRV_0244,2022-11-30 19:38:23
,wl-rdm,90,248899,0.0-6.82-0.82,0.0,91.0,,,,,,,[],,,,,,56.4,0.0,u,0.0,True,779.2999999970198,47.0,60.0,40.0,False,,216.1975008936731,[],"[683, 384]",ColorTask,43.0,83.0,,,HRV,HRV_0244,2022-11-30 19:38:23
,wl-rdm,91,250949,0.0-6.83-0.83,0.0,92.0,,,,,,,[],,,,,,87.9,1.0,i,1.0,True,688.5999999940395,40.0,60.0,40.0,False,,267.7374603075707,[],"[683, 384]",ColorTask,44.0,84.0,,,HRV,HRV_0244,2022-11-30 19:38:23
,wl-rdm,92,253086,0.0-6.84-0.84,0.0,93.0,,,,,,,[],,,,,,50.0,1.0,i,1.0,True,815.1000000089407,50.0,60.0,40.0,False,,242.08807425947714,[],"[683, 384]",ColorTask,45.0,85.0,,,HRV,HRV_0244,2022-11-30 19:38:23
,wl-rdm,93,255454,0.0-6.85-0.85,0.0,94.0,,,,,,,[],,,,,,56.4,1.0,i,1.0,True,937.8000000119209,56.0,60.0,40.0,False,,331.1496024574574,[],"[683, 384]",ColorTask,46.0,86.0,,,HRV,HRV_0244,2022-11-30 19:38:23
,wl-rdm,94,257769,0.0-6.86-0.86,0.0,95.0,,,,,,,[],,,,,,73.6,1.0,i,1.0,True,910.2000000029802,55.0,60.0,40.0,False,,329.0781624426302,[],"[683, 384]",ColorTask,47.0,87.0,,,HRV,HRV_0244,2022-11-30 19:38:23
,wl-rdm,95,259916,0.0-6.87-0.87,0.0,96.0,,,,,,,[],,,,,,87.9,1.0,i,1.0,True,707.7000000029802,42.0,60.0,40.0,False,,369.91342329012,[],"[683, 384]",ColorTask,48.0,88.0,,,HRV,HRV_0244,2022-11-30 19:38:23
,wl-rdm,96,261803,0.0-6.88-0.88,0.0,97.0,,,,,,,[],,,,,,87.9,0.0,u,0.0,True,620.5999999940395,37.0,60.0,40.0,False,,201.38515549409652,[],"[683, 384]",ColorTask,49.0,89.0,,,HRV,HRV_0244,2022-11-30 19:38:23
,wl-rdm,97,263971,0.0-6.89-0.89,0.0,98.0,,,,,,,[],,,,,,56.4,0.0,u,0.0,True,802.1999999880791,48.0,60.0,40.0,False,,289.5366237007255,[],"[683, 384]",ColorTask,50.0,90.0,,,HRV,HRV_0244,2022-11-30 19:38:23
,wl-rdm,98,266251,0.0-6.90-0.90,0.0,99.0,,,,,,,[],,,,,,53.2,0.0,u,0.0,True,840.2999999970198,44.0,60.0,40.0,False,,360.87240469678187,[],"[683, 384]",ColorTask,51.0,91.0,,,HRV,HRV_0244,2022-11-30 19:38:23
,wl-rdm,99,268333,0.0-6.91-0.91,0.0,100.0,,,,,,,[],,,,,,62.5,1.0,i,1.0,True,718.5999999940395,43.0,60.0,40.0,False,,290.4717783966553,[],"[683, 384]",ColorTask,52.0,92.0,,,HRV,HRV_0244,2022-11-30 19:38:23
,wl-rdm,100,270257,0.0-6.92-0.92,0.0,101.0,,,,,,,[],,,,,,87.9,1.0,i,1.0,True,642.9999999850988,39.0,60.0,40.0,False,,205.78423904351084,[],"[683, 384]",ColorTask,53.0,93.0,,,HRV,HRV_0244,2022-11-30 19:38:23
,wl-rdm,101,272420,0.0-6.93-0.93,0.0,102.0,,,,,,,[],,,,,,73.6,1.0,i,1.0,True,875.1000000089407,53.0,60.0,40.0,False,,214.55801969052183,[],"[683, 384]",ColorTask,54.0,94.0,,,HRV,HRV_0244,2022-11-30 19:38:23
,wl-rdm,102,275355,0.0-6.94-0.94,0.0,103.0,,,,,,,[],,,,,,56.4,1.0,i,1.0,True,1474.0,86.0,60.0,40.0,False,,386.88420132774115,[],"[683, 384]",ColorTask,55.0,95.0,,,HRV,HRV_0244,2022-11-30 19:38:23
,wl-rdm,103,277811,0.0-6.95-0.95,0.0,104.0,,,,,,,[],,,,,,56.4,0.0,u,0.0,True,1106.199999988079,66.0,60.0,40.0,False,,270.86364329522064,[],"[683, 384]",ColorTask,56.0,96.0,,,HRV,HRV_0244,2022-11-30 19:38:23
,wl-rdm,104,280017,0.0-6.96-0.96,0.0,105.0,,,,,,,[],,,,,,87.9,1.0,i,1.0,True,893.1999999880791,54.0,60.0,40.0,False,,201.98545645328082,[],"[683, 384]",ColorTask,57.0,97.0,,,HRV,HRV_0244,2022-11-30 19:38:23
,wl-rdm,105,282218,0.0-6.97-0.97,0.0,106.0,,,,,,,[],,,,,,50.0,1.0,u,0.0,False,864.1999999880791,52.0,60.0,40.0,False,,253.81640069019556,[],"[683, 384]",ColorTask,56.0,98.0,,,HRV,HRV_0244,2022-11-30 19:38:23
,wl-rdm,106,284284,0.0-6.98-0.98,0.0,107.0,,,,,,,[],,,,,,73.6,1.0,i,1.0,True,742.7999999970198,45.0,60.0,40.0,False,,213.63439020209006,[],"[683, 384]",ColorTask,57.0,99.0,,,HRV,HRV_0244,2022-11-30 19:38:23
,wl-rdm,107,286951,0.0-6.99-0.99,0.0,108.0,,,,,,,[],,,,,,53.2,1.0,i,1.0,True,1225.7999999821186,70.0,60.0,40.0,False,,367.0429168112804,[],"[683, 384]",ColorTask,58.0,100.0,,,HRV,HRV_0244,2022-11-30 19:38:23
,wl-rdm,108,289002,0.0-6.100-0.100,0.0,109.0,,,,,,,[],,,,,,73.6,0.0,u,0.0,True,703.5,43.0,60.0,40.0,False,,250.90512097810006,[],"[683, 384]",ColorTask,59.0,101.0,,,HRV,HRV_0244,2022-11-30 19:38:23
,wl-rdm,109,291101,0.0-6.101-0.101,0.0,110.0,,,,,,,[],,,,,,73.6,1.0,i,1.0,True,691.7999999970198,42.0,60.0,40.0,False,,323.43760371503515,[],"[683, 384]",ColorTask,60.0,102.0,,,HRV,HRV_0244,2022-11-30 19:38:23
,wl-rdm,110,293234,0.0-6.102-0.102,0.0,111.0,,,,,,,[],,,,,,62.5,0.0,u,0.0,True,858.9000000059605,50.0,60.0,40.0,False,,216.55749475205215,[],"[683, 384]",ColorTask,61.0,103.0,,,HRV,HRV_0244,2022-11-30 19:38:23
,wl-rdm,111,295251,0.0-6.103-0.103,0.0,112.0,,,,,,,[],,,,,,87.9,0.0,u,0.0,True,717.1999999880791,43.0,60.0,40.0,False,,219.563451298183,[],"[683, 384]",ColorTask,62.0,104.0,,,HRV,HRV_0244,2022-11-30 19:38:23
,wl-rdm,112,297385,0.0-6.104-0.104,0.0,113.0,,,,,,,[],,,,,,62.5,1.0,i,1.0,True,769.6999999880791,47.0,60.0,40.0,False,,283.4939801282401,[],"[683, 384]",ColorTask,63.0,105.0,,,HRV,HRV_0244,2022-11-30 19:38:23
,wl-rdm,113,299589,0.0-6.105-0.105,0.0,114.0,,,,,,,[],,,,,,53.2,1.0,i,1.0,True,851.0999999940395,49.0,60.0,40.0,False,,274.09256036348177,[],"[683, 384]",ColorTask,64.0,106.0,,,HRV,HRV_0244,2022-11-30 19:38:23
,wl-rdm,114,301702,0.0-6.106-0.106,0.0,115.0,,,,,,,[],,,,,,62.5,0.0,i,1.0,False,693.0,42.0,60.0,40.0,False,,307.9044312421314,[],"[683, 384]",ColorTask,63.0,107.0,,,HRV,HRV_0244,2022-11-30 19:38:23
,wl-rdm,115,303806,0.0-6.107-0.107,0.0,116.0,,,,,,,[],,,,,,73.6,1.0,i,1.0,True,683.7999999970198,41.0,60.0,40.0,False,,285.142055584239,[],"[683, 384]",ColorTask,64.0,108.0,,,HRV,HRV_0244,2022-11-30 19:38:23
,wl-html-keyboard-response,116,312322,0.0-7.0-0.0,1.0,117.0,,,,,,,,6483.29999999702,1.0,0,,,,,,,,,,,,,,,,,,,,,,HRV,HRV_0244,2022-11-30 19:38:23
,wl-rdm,117,314401,0.0-8.0-0.0,1.0,118.0,,,,,,,[],,,,,,87.9,1.0,i,1.0,True,696.5999999791384,40.0,60.0,40.0,False,,295.4241625506009,[],"[683, 384]",ColorTask,65.0,1.0,,,HRV,HRV_0244,2022-11-30 19:38:23
,wl-rdm,118,316618,0.0-8.1-0.1,1.0,119.0,,,,,,,[],,,,,,56.4,0.0,u,0.0,True,859.0999999791384,50.0,60.0,40.0,False,,273.81774152582886,[],"[683, 384]",ColorTask,66.0,2.0,,,HRV,HRV_0244,2022-11-30 19:38:23
,wl-rdm,119,318884,0.0-8.2-0.2,1.0,120.0,,,,,,,[],,,,,,53.2,1.0,u,0.0,False,965.7999999970198,59.0,60.0,40.0,False,,214.19774830127395,[],"[683, 384]",ColorTask,65.0,3.0,,,HRV,HRV_0244,2022-11-30 19:38:23
,wl-rdm,120,321185,0.0-8.3-0.3,1.0,121.0,,,,,,,[],,,,,,87.9,0.0,u,0.0,True,914.1000000089407,54.0,60.0,40.0,False,,303.8692332222585,[],"[683, 384]",ColorTask,66.0,4.0,,,HRV,HRV_0244,2022-11-30 19:38:23
,wl-rdm,121,323220,0.0-8.4-0.4,1.0,122.0,,,,,,,[],,,,,,50.0,1.0,i,1.0,True,738.5999999940395,43.0,60.0,40.0,False,,231.69763607866292,[],"[683, 384]",ColorTask,67.0,5.0,,,HRV,HRV_0244,2022-11-30 19:38:23
,wl-rdm,122,325456,0.0-8.5-0.5,1.0,123.0,,,,,,,[],,,,,,53.2,0.0,u,0.0,True,926.2999999970198,56.0,60.0,40.0,False,,220.81168474383472,[],"[683, 384]",ColorTask,68.0,6.0,,,HRV,HRV_0244,2022-11-30 19:38:23
,wl-rdm,123,327736,0.0-8.6-0.6,1.0,124.0,,,,,,,[],,,,,,73.6,1.0,i,1.0,True,909.0,55.0,60.0,40.0,False,,288.6429634278385,[],"[683, 384]",ColorTask,69.0,7.0,,,HRV,HRV_0244,2022-11-30 19:38:23
,wl-rdm,124,330020,0.0-8.7-0.7,1.0,125.0,,,,,,,[],,,,,,50.0,1.0,i,1.0,True,930.0999999940395,52.0,60.0,40.0,False,,274.91800592103993,[],"[683, 384]",ColorTask,70.0,8.0,,,HRV,HRV_0244,2022-11-30 19:38:23
,wl-rdm,125,332085,0.0-8.8-0.8,1.0,126.0,,,,,,,[],,,,,,87.9,0.0,u,0.0,True,679.5999999940395,41.0,60.0,40.0,False,,318.30357721503464,[],"[683, 384]",ColorTask,71.0,9.0,,,HRV,HRV_0244,2022-11-30 19:38:23
,wl-rdm,126,334768,0.0-8.9-0.9,1.0,127.0,,,,,,,[],,,,,,50.0,0.0,i,1.0,False,1391.2000000029802,82.0,60.0,40.0,False,,208.07909631332382,[],"[683, 384]",ColorTask,70.0,10.0,,,HRV,HRV_0244,2022-11-30 19:38:23
,wl-rdm,127,336869,0.0-8.10-0.10,1.0,128.0,,,,,,,[],,,,,,87.9,1.0,i,1.0,True,636.2000000029802,38.0,60.0,40.0,False,,336.6996420663847,[],"[683, 384]",ColorTask,71.0,11.0,,,HRV,HRV_0244,2022-11-30 19:38:23
,wl-rdm,128,338952,0.0-8.11-0.11,1.0,129.0,,,,,,,[],,,,,,87.9,0.0,u,0.0,True,683.0000000149012,41.0,60.0,40.0,False,,307.6314257250467,[],"[683, 384]",ColorTask,72.0,12.0,,,HRV,HRV_0244,2022-11-30 19:38:23
,wl-rdm,129,341335,0.0-8.12-0.12,1.0,130.0,,,,,,,[],,,,,,62.5,1.0,i,1.0,True,1008.7000000029802,61.0,60.0,40.0,False,,281.69708632626464,[],"[683, 384]",ColorTask,73.0,13.0,,,HRV,HRV_0244,2022-11-30 19:38:23
,wl-rdm,130,343652,0.0-8.13-0.13,1.0,131.0,,,,,,,[],,,,,,62.5,0.0,u,0.0,True,908.6000000089407,53.0,60.0,40.0,False,,315.5669600104027,[],"[683, 384]",ColorTask,74.0,14.0,,,HRV,HRV_0244,2022-11-30 19:38:23
,wl-rdm,131,346020,0.0-8.14-0.14,1.0,132.0,,,,,,,[],,,,,,50.0,1.0,i,1.0,True,1038.699999988079,62.0,60.0,40.0,False,,252.08746615211157,[],"[683, 384]",ColorTask,75.0,15.0,,,HRV,HRV_0244,2022-11-30 19:38:23
,wl-rdm,132,348771,0.0-8.15-0.15,1.0,133.0,,,,,,,[],,,,,,53.2,0.0,u,0.0,True,1427.9000000059605,84.0,60.0,40.0,False,,246.61661539771768,[],"[683, 384]",ColorTask,76.0,16.0,,,HRV,HRV_0244,2022-11-30 19:38:23
,wl-rdm,133,351253,0.0-8.16-0.16,1.0,134.0,,,,,,,[],,,,,,56.4,0.0,u,0.0,True,1178.5,71.0,60.0,40.0,False,,236.3630682662654,[],"[683, 384]",ColorTask,77.0,17.0,,,HRV,HRV_0244,2022-11-30 19:38:23
,wl-rdm,134,353374,0.0-8.17-0.17,1.0,135.0,,,,,,,[],,,,,,56.4,1.0,i,1.0,True,723.7000000029802,44.0,60.0,40.0,False,,308.8648347442364,[],"[683, 384]",ColorTask,78.0,18.0,,,HRV,HRV_0244,2022-11-30 19:38:23
,wl-rdm,135,356339,0.0-8.18-0.18,1.0,136.0,,,,,,,[],,,,,,62.5,1.0,i,1.0,True,1632.1000000089407,97.0,60.0,40.0,False,,239.8665491284584,[],"[683, 384]",ColorTask,79.0,19.0,,,HRV,HRV_0244,2022-11-30 19:38:23
,wl-rdm,136,359590,0.0-8.19-0.19,1.0,137.0,,,,,,,[],,,,,,56.4,1.0,i,1.0,True,1856.300000011921,109.0,60.0,40.0,False,,318.3733094466106,[],"[683, 384]",ColorTask,80.0,20.0,,,HRV,HRV_0244,2022-11-30 19:38:23
,wl-rdm,137,361836,0.0-8.20-0.20,1.0,138.0,,,,,,,[],,,,,,50.0,1.0,i,1.0,True,905.9999999850988,51.0,60.0,40.0,False,,239.48524215592005,[],"[683, 384]",ColorTask,81.0,21.0,,,HRV,HRV_0244,2022-11-30 19:38:23
,wl-rdm,138,364070,0.0-8.21-0.21,1.0,139.0,,,,,,,[],,,,,,62.5,1.0,i,1.0,True,835.9000000059605,50.0,60.0,40.0,False,,286.6052827357587,[],"[683, 384]",ColorTask,82.0,22.0,,,HRV,HRV_0244,2022-11-30 19:38:23
,wl-rdm,139,366286,0.0-8.22-0.22,1.0,140.0,,,,,,,[],,,,,,50.0,0.0,i,1.0,False,845.7999999970198,51.0,60.0,40.0,False,,290.82501648594655,[],"[683, 384]",ColorTask,81.0,23.0,,,HRV,HRV_0244,2022-11-30 19:38:23
,wl-rdm,140,368586,0.0-8.23-0.23,1.0,141.0,,,,,,,[],,,,,,56.4,1.0,i,1.0,True,963.5,54.0,60.0,40.0,False,,254.0106041913371,[],"[683, 384]",ColorTask,82.0,24.0,,,HRV,HRV_0244,2022-11-30 19:38:23
,wl-rdm,141,370772,0.0-8.24-0.24,1.0,142.0,,,,,,,[],,,,,,73.6,1.0,i,1.0,True,723.6999999880791,43.0,60.0,40.0,False,,380.81124236277293,[],"[683, 384]",ColorTask,83.0,25.0,,,HRV,HRV_0244,2022-11-30 19:38:23
,wl-rdm,142,373121,0.0-8.25-0.25,1.0,143.0,,,,,,,[],,,,,,73.6,1.0,i,1.0,True,918.0999999940395,52.0,60.0,40.0,False,,303.0242555803119,[],"[683, 384]",ColorTask,84.0,26.0,,,HRV,HRV_0244,2022-11-30 19:38:23
,wl-rdm,143,375237,0.0-8.26-0.26,1.0,144.0,,,,,,,[],,,,,,87.9,0.0,u,0.0,True,663.7000000029802,35.0,60.0,40.0,False,,378.1405350270976,[],"[683, 384]",ColorTask,85.0,27.0,,,HRV,HRV_0244,2022-11-30 19:38:23
,wl-rdm,144,377357,0.0-8.27-0.27,1.0,145.0,,,,,,,[],,,,,,87.9,1.0,i,1.0,True,756.6999999880791,46.0,60.0,40.0,False,,294.96714275769114,[],"[683, 384]",ColorTask,86.0,28.0,,,HRV,HRV_0244,2022-11-30 19:38:23
,wl-rdm,145,379492,0.0-8.28-0.28,1.0,146.0,,,,,,,[],,,,,,73.6,0.0,u,0.0,True,836.3000000119209,50.0,60.0,40.0,False,,226.2166498132287,[],"[683, 384]",ColorTask,87.0,29.0,,,HRV,HRV_0244,2022-11-30 19:38:23
,wl-rdm,146,381754,0.0-8.29-0.29,1.0,147.0,,,,,,,[],,,,,,62.5,0.0,u,0.0,True,891.5000000149012,53.0,60.0,40.0,False,,309.34767504939214,[],"[683, 384]",ColorTask,88.0,30.0,,,HRV,HRV_0244,2022-11-30 19:38:23
,wl-rdm,147,384340,0.0-8.30-0.30,1.0,148.0,,,,,,,[],,,,,,53.2,0.0,u,0.0,True,1226.2999999970198,74.0,60.0,40.0,False,,265.1235588595276,[],"[683, 384]",ColorTask,89.0,31.0,,,HRV,HRV_0244,2022-11-30 19:38:23
,wl-rdm,148,387122,0.0-8.31-0.31,1.0,149.0,,,,,,,[],,,,,,62.5,0.0,u,0.0,True,1408.300000011921,84.0,60.0,40.0,False,,286.9693821892017,[],"[683, 384]",ColorTask,90.0,32.0,,,HRV,HRV_0244,2022-11-30 19:38:23
,wl-rdm,149,389121,0.0-8.32-0.32,1.0,150.0,,,,,,,[],,,,,,87.9,0.0,u,0.0,True,707.4000000059605,43.0,60.0,40.0,False,,212.16308956541656,[],"[683, 384]",ColorTask,91.0,33.0,,,HRV,HRV_0244,2022-11-30 19:38:23
,wl-rdm,150,391525,0.0-8.33-0.33,1.0,151.0,,,,,,,[],,,,,,53.2,1.0,i,1.0,True,1080.699999988079,64.0,60.0,40.0,False,,239.1106282059511,[],"[683, 384]",ColorTask,92.0,34.0,,,HRV,HRV_0244,2022-11-30 19:38:23
,wl-rdm,151,393739,0.0-8.34-0.34,1.0,152.0,,,,,,,[],,,,,,53.2,0.0,u,0.0,True,890.9000000059605,53.0,60.0,40.0,False,,241.5541449915705,[],"[683, 384]",ColorTask,93.0,35.0,,,HRV,HRV_0244,2022-11-30 19:38:23
,wl-rdm,152,395871,0.0-8.35-0.35,1.0,153.0,,,,,,,[],,,,,,56.4,0.0,i,1.0,False,855.7000000029802,51.0,60.0,40.0,False,,207.3137944394862,[],"[683, 384]",ColorTask,92.0,36.0,,,HRV,HRV_0244,2022-11-30 19:38:23
,wl-rdm,153,398554,0.0-8.36-0.36,1.0,154.0,,,,,,,[],,,,,,50.0,1.0,i,1.0,True,1372.9000000059605,78.0,60.0,40.0,False,,243.85619186797715,[],"[683, 384]",ColorTask,93.0,37.0,,,HRV,HRV_0244,2022-11-30 19:38:23
,wl-rdm,154,400939,0.0-8.37-0.37,1.0,155.0,,,,,,,[],,,,,,50.0,0.0,u,0.0,True,983.2000000029802,59.0,60.0,40.0,False,,335.2795034771124,[],"[683, 384]",ColorTask,94.0,38.0,,,HRV,HRV_0244,2022-11-30 19:38:23
,wl-rdm,155,402938,0.0-8.38-0.38,1.0,156.0,,,,,,,[],,,,,,87.9,1.0,i,1.0,True,692.0,41.0,60.0,40.0,False,,232.30183862131062,[],"[683, 384]",ColorTask,95.0,39.0,,,HRV,HRV_0244,2022-11-30 19:38:23
,wl-rdm,156,405669,0.0-8.39-0.39,1.0,157.0,,,,,,,[],,,,,,56.4,1.0,i,1.0,True,1358.0,82.0,60.0,40.0,False,,283.68858186067985,[],"[683, 384]",ColorTask,96.0,40.0,,,HRV,HRV_0244,2022-11-30 19:38:23
,wl-rdm,157,408673,0.0-8.40-0.40,1.0,158.0,,,,,,,[],,,,,,53.2,1.0,u,0.0,False,1643.1000000089407,98.0,60.0,40.0,False,,268.8752098067482,[],"[683, 384]",ColorTask,95.0,41.0,,,HRV,HRV_0244,2022-11-30 19:38:23
,wl-rdm,158,411088,0.0-8.41-0.41,1.0,159.0,,,,,,,[],,,,,,56.4,0.0,u,0.0,True,1081.5,63.0,60.0,40.0,False,,257.61011008760653,[],"[683, 384]",ColorTask,96.0,42.0,,,HRV,HRV_0244,2022-11-30 19:38:23
,wl-rdm,159,413123,0.0-8.42-0.42,1.0,160.0,,,,,,,[],,,,,,87.9,1.0,i,1.0,True,721.8999999910593,44.0,60.0,40.0,False,,226.28339653481746,[],"[683, 384]",ColorTask,97.0,43.0,,,HRV,HRV_0244,2022-11-30 19:38:23
,wl-rdm,160,415493,0.0-8.43-0.43,1.0,161.0,,,,,,,[],,,,,,53.2,1.0,i,1.0,True,999.3000000119209,58.0,60.0,40.0,False,,284.12140869734975,[],"[683, 384]",ColorTask,98.0,44.0,,,HRV,HRV_0244,2022-11-30 19:38:23
,wl-rdm,161,418238,0.0-8.44-0.44,1.0,162.0,,,,,,,[],,,,,,56.4,1.0,i,1.0,True,1377.0,83.0,60.0,40.0,False,,266.9364527952692,[],"[683, 384]",ColorTask,99.0,45.0,,,HRV,HRV_0244,2022-11-30 19:38:23
,wl-rdm,162,420522,0.0-8.45-0.45,1.0,163.0,,,,,,,[],,,,,,73.6,1.0,i,1.0,True,874.5,50.0,60.0,40.0,False,,343.167247887023,[],"[683, 384]",ColorTask,100.0,46.0,,,HRV,HRV_0244,2022-11-30 19:38:23
,wl-rdm,163,422493,0.0-8.46-0.46,1.0,164.0,,,,,,,[],,,,,,62.5,0.0,u,0.0,True,660.9000000059605,39.0,60.0,40.0,False,,229.3697557738055,[],"[683, 384]",ColorTask,101.0,47.0,,,HRV,HRV_0244,2022-11-30 19:38:23
,wl-rdm,164,424922,0.0-8.47-0.47,1.0,165.0,,,,,,,[],,,,,,56.4,1.0,u,0.0,False,1131.7999999970198,68.0,60.0,40.0,False,,200.09359506913177,[],"[683, 384]",ColorTask,100.0,48.0,,,HRV,HRV_0244,2022-11-30 19:38:23
,wl-rdm,165,427289,0.0-8.48-0.48,1.0,166.0,,,,,,,[],,,,,,56.4,1.0,u,0.0,False,1082.0999999940395,64.0,60.0,40.0,False,,212.76381482738935,[],"[683, 384]",ColorTask,99.0,49.0,,,HRV,HRV_0244,2022-11-30 19:38:23
,wl-rdm,166,429228,0.0-8.49-0.49,1.0,167.0,,,,,,,[],,,,,,87.9,1.0,i,1.0,True,617.6000000089407,36.0,60.0,40.0,False,,245.01301317797075,[],"[683, 384]",ColorTask,100.0,50.0,,,HRV,HRV_0244,2022-11-30 19:38:23
,wl-rdm,167,431926,0.0-8.50-0.50,1.0,168.0,,,,,,,[],,,,,,53.2,0.0,u,0.0,True,1281.300000011921,75.0,60.0,40.0,False,,212.1802123570162,[],"[683, 384]",ColorTask,101.0,51.0,,,HRV,HRV_0244,2022-11-30 19:38:23
,wl-rdm,168,434557,0.0-8.51-0.51,1.0,169.0,,,,,,,[],,,,,,56.4,0.0,u,0.0,True,1291.0,72.0,60.0,40.0,False,,225.84789357281755,[],"[683, 384]",ColorTask,102.0,52.0,,,HRV,HRV_0244,2022-11-30 19:38:23
,wl-rdm,169,436640,0.0-8.52-0.52,1.0,170.0,,,,,,,[],,,,,,73.6,1.0,i,1.0,True,693.7999999970198,42.0,60.0,40.0,False,,317.0062135465124,[],"[683, 384]",ColorTask,103.0,53.0,,,HRV,HRV_0244,2022-11-30 19:38:23
,wl-rdm,170,438690,0.0-8.53-0.53,1.0,171.0,,,,,,,[],,,,,,87.9,1.0,i,1.0,True,653.3999999910593,37.0,60.0,40.0,False,,335.6328200575582,[],"[683, 384]",ColorTask,104.0,54.0,,,HRV,HRV_0244,2022-11-30 19:38:23
,wl-rdm,171,441362,0.0-8.54-0.54,1.0,172.0,,,,,,,[],,,,,,50.0,1.0,u,0.0,False,1303.9000000059605,77.0,60.0,40.0,False,,287.1647160496587,[],"[683, 384]",ColorTask,103.0,55.0,,,HRV,HRV_0244,2022-11-30 19:38:23
,wl-rdm,172,443798,0.0-8.55-0.55,1.0,173.0,,,,,,,[],,,,,,53.2,0.0,u,0.0,True,1092.6000000089407,65.0,60.0,40.0,False,,250.08511648651685,[],"[683, 384]",ColorTask,104.0,56.0,,,HRV,HRV_0244,2022-11-30 19:38:23
,wl-rdm,173,446162,0.0-8.56-0.56,1.0,174.0,,,,,,,[],,,,,,56.4,1.0,u,0.0,False,944.7999999970198,57.0,60.0,40.0,False,,341.3037448740261,[],"[683, 384]",ColorTask,103.0,57.0,,,HRV,HRV_0244,2022-11-30 19:38:23
,wl-rdm,174,448792,0.0-8.57-0.57,1.0,175.0,,,,,,,[],,,,,,56.4,0.0,i,1.0,False,1203.5999999940395,67.0,60.0,40.0,False,,356.42981678479373,[],"[683, 384]",ColorTask,102.0,58.0,,,HRV,HRV_0244,2022-11-30 19:38:23
,wl-rdm,175,450941,0.0-8.58-0.58,1.0,176.0,,,,,,,[],,,,,,73.6,0.0,u,0.0,True,798.3999999910593,48.0,60.0,40.0,False,,282.9853715262659,[],"[683, 384]",ColorTask,103.0,59.0,,,HRV,HRV_0244,2022-11-30 19:38:23
,wl-rdm,176,453478,0.0-8.59-0.59,1.0,177.0,,,,,,,[],,,,,,50.0,1.0,u,0.0,False,1182.2000000029802,69.0,60.0,40.0,False,,265.9734563173136,[],"[683, 384]",ColorTask,102.0,60.0,,,HRV,HRV_0244,2022-11-30 19:38:23
,wl-rdm,177,455808,0.0-8.60-0.60,1.0,178.0,,,,,,,[],,,,,,87.9,0.0,u,0.0,True,972.0,58.0,60.0,40.0,False,,278.0255663802471,[],"[683, 384]",ColorTask,103.0,61.0,,,HRV,HRV_0244,2022-11-30 19:38:23
,wl-rdm,178,457830,0.0-8.61-0.61,1.0,179.0,,,,,,,[],,,,,,87.9,1.0,i,1.0,True,681.8000000119209,40.0,60.0,40.0,False,,251.28584014658065,[],"[683, 384]",ColorTask,104.0,62.0,,,HRV,HRV_0244,2022-11-30 19:38:23
,wl-rdm,179,460359,0.0-8.62-0.62,1.0,180.0,,,,,,,[],,,,,,50.0,0.0,i,1.0,False,1236.4000000059605,70.0,60.0,40.0,False,,212.41962709724973,[],"[683, 384]",ColorTask,103.0,63.0,,,HRV,HRV_0244,2022-11-30 19:38:23
,wl-rdm,180,462607,0.0-8.63-0.63,1.0,181.0,,,,,,,[],,,,,,53.2,0.0,u,0.0,True,858.1999999880791,52.0,60.0,40.0,False,,300.9085340519582,[],"[683, 384]",ColorTask,104.0,64.0,,,HRV,HRV_0244,2022-11-30 19:38:23
,wl-rdm,181,464774,0.0-8.64-0.64,1.0,182.0,,,,,,,[],,,,,,53.2,1.0,i,1.0,True,796.4000000208616,46.0,60.0,40.0,False,,312.84546349645075,[],"[683, 384]",ColorTask,105.0,65.0,,,HRV,HRV_0244,2022-11-30 19:38:23
,wl-rdm,182,466991,0.0-8.65-0.65,1.0,183.0,,,,,,,[],,,,,,62.5,0.0,u,0.0,True,859.9000000059605,52.0,60.0,40.0,False,,281.2656339293422,[],"[683, 384]",ColorTask,106.0,66.0,,,HRV,HRV_0244,2022-11-30 19:38:23
,wl-rdm,183,469375,0.0-8.66-0.66,1.0,184.0,,,,,,,[],,,,,,56.4,0.0,i,1.0,False,998.6000000089407,60.0,60.0,40.0,False,,305.2779941777848,[],"[683, 384]",ColorTask,105.0,67.0,,,HRV,HRV_0244,2022-11-30 19:38:23
,wl-rdm,184,471494,0.0-8.67-0.67,1.0,185.0,,,,,,,[],,,,,,87.9,0.0,u,0.0,True,822.4000000059605,46.0,60.0,40.0,False,,207.04534451498662,[],"[683, 384]",ColorTask,106.0,68.0,,,HRV,HRV_0244,2022-11-30 19:38:23
,wl-rdm,185,473848,0.0-8.68-0.68,1.0,186.0,,,,,,,[],,,,,,53.2,1.0,u,0.0,False,876.1999999880791,53.0,60.0,40.0,False,,386.35924038728535,[],"[683, 384]",ColorTask,105.0,69.0,,,HRV,HRV_0244,2022-11-30 19:38:23
,wl-rdm,186,476441,0.0-8.69-0.69,1.0,187.0,,,,,,,[],,,,,,62.5,1.0,i,1.0,True,1282.699999988079,75.0,60.0,40.0,False,,240.06668895753248,[],"[683, 384]",ColorTask,106.0,70.0,,,HRV,HRV_0244,2022-11-30 19:38:23
,wl-rdm,187,479059,0.0-8.70-0.70,1.0,188.0,,,,,,,[],,,,,,56.4,0.0,u,0.0,True,1307.0999999940395,79.0,60.0,40.0,False,,243.29502628146594,[],"[683, 384]",ColorTask,107.0,71.0,,,HRV,HRV_0244,2022-11-30 19:38:23
,wl-rdm,188,481625,0.0-8.71-0.71,1.0,189.0,,,,,,,[],,,,,,62.5,0.0,u,0.0,True,1263.7999999970198,77.0,60.0,40.0,False,,212.1094941968784,[],"[683, 384]",ColorTask,108.0,72.0,,,HRV,HRV_0244,2022-11-30 19:38:23
,wl-rdm,189,483709,0.0-8.72-0.72,1.0,190.0,,,,,,,[],,,,,,87.9,1.0,i,1.0,True,677.6000000089407,41.0,60.0,40.0,False,,328.77508501677426,[],"[683, 384]",ColorTask,109.0,73.0,,,HRV,HRV_0244,2022-11-30 19:38:23
,wl-rdm,190,485976,0.0-8.73-0.73,1.0,191.0,,,,,,,[],,,,,,62.5,0.0,u,0.0,True,920.7000000029802,55.0,60.0,40.0,False,,211.4607867687879,[],"[683, 384]",ColorTask,110.0,74.0,,,HRV,HRV_0244,2022-11-30 19:38:23
,wl-rdm,191,488008,0.0-8.74-0.74,1.0,192.0,,,,,,,[],,,,,,56.4,1.0,i,1.0,True,753.1999999880791,45.0,60.0,40.0,False,,208.44106603570006,[],"[683, 384]",ColorTask,111.0,75.0,,,HRV,HRV_0244,2022-11-30 19:38:23
,wl-rdm,192,490292,0.0-8.75-0.75,1.0,193.0,,,,,,,[],,,,,,50.0,0.0,i,1.0,False,969.0999999940395,58.0,60.0,40.0,False,,237.14342514455225,[],"[683, 384]",ColorTask,110.0,76.0,,,HRV,HRV_0244,2022-11-30 19:38:23
,wl-rdm,193,492392,0.0-8.76-0.76,1.0,194.0,,,,,,,[],,,,,,73.6,0.0,u,0.0,True,803.0999999791384,48.0,60.0,40.0,False,,223.16878117633433,[],"[683, 384]",ColorTask,111.0,77.0,,,HRV,HRV_0244,2022-11-30 19:38:23
,wl-rdm,194,494613,0.0-8.77-0.77,1.0,195.0,,,,,,,[],,,,,,62.5,1.0,i,1.0,True,810.0999999940395,48.0,60.0,40.0,False,,346.860011716391,[],"[683, 384]",ColorTask,112.0,78.0,,,HRV,HRV_0244,2022-11-30 19:38:23
,wl-rdm,195,496748,0.0-8.78-0.78,1.0,196.0,,,,,,,[],,,,,,87.9,0.0,u,0.0,True,747.5999999940395,43.0,60.0,40.0,False,,269.8400544140842,[],"[683, 384]",ColorTask,113.0,79.0,,,HRV,HRV_0244,2022-11-30 19:38:23
,wl-rdm,196,498926,0.0-8.79-0.79,1.0,197.0,,,,,,,[],,,,,,53.2,0.0,i,1.0,False,824.2000000029802,50.0,60.0,40.0,False,,255.95634036686795,[],"[683, 384]",ColorTask,112.0,80.0,,,HRV,HRV_0244,2022-11-30 19:38:23
,wl-rdm,197,501758,0.0-8.80-0.80,1.0,198.0,,,,,,,[],,,,,,53.2,1.0,i,1.0,True,1391.8999999910593,84.0,60.0,40.0,False,,351.1799659213543,[],"[683, 384]",ColorTask,113.0,81.0,,,HRV,HRV_0244,2022-11-30 19:38:23
,wl-rdm,198,503875,0.0-8.81-0.81,1.0,199.0,,,,,,,[],,,,,,73.6,1.0,i,1.0,True,712.0000000149012,41.0,60.0,40.0,False,,319.37293218358275,[],"[683, 384]",ColorTask,114.0,82.0,,,HRV,HRV_0244,2022-11-30 19:38:23
,wl-rdm,199,506180,0.0-8.82-0.82,1.0,200.0,,,,,,,[],,,,,,62.5,0.0,u,0.0,True,892.2000000029802,54.0,60.0,40.0,False,,321.8667180415581,[],"[683, 384]",ColorTask,115.0,83.0,,,HRV,HRV_0244,2022-11-30 19:38:23
,wl-rdm,200,508675,0.0-8.83-0.83,1.0,201.0,,,,,,,[],,,,,,50.0,0.0,i,1.0,False,1096.5999999940395,64.0,60.0,40.0,False,,326.6518570146875,[],"[683, 384]",ColorTask,114.0,84.0,,,HRV,HRV_0244,2022-11-30 19:38:23
,wl-rdm,201,510761,0.0-8.84-0.84,1.0,202.0,,,,,,,[],,,,,,73.6,0.0,u,0.0,True,774.7000000029802,46.0,60.0,40.0,False,,245.56404733543718,[],"[683, 384]",ColorTask,115.0,85.0,,,HRV,HRV_0244,2022-11-30 19:38:23
,wl-rdm,202,512976,0.0-8.85-0.85,1.0,203.0,,,,,,,[],,,,,,50.0,1.0,i,1.0,True,875.2000000029802,52.0,60.0,40.0,False,,262.93033020206923,[],"[683, 384]",ColorTask,116.0,86.0,,,HRV,HRV_0244,2022-11-30 19:38:23
,wl-rdm,203,515460,0.0-8.86-0.86,1.0,204.0,,,,,,,[],,,,,,53.2,1.0,u,0.0,False,1179.7000000029802,69.0,60.0,40.0,False,,236.53271592403263,[],"[683, 384]",ColorTask,115.0,87.0,,,HRV,HRV_0244,2022-11-30 19:38:23
,wl-rdm,204,518226,0.0-8.87-0.87,1.0,205.0,,,,,,,[],,,,,,62.5,1.0,i,1.0,True,1322.6000000089407,77.0,60.0,40.0,False,,369.52123639860685,[],"[683, 384]",ColorTask,116.0,88.0,,,HRV,HRV_0244,2022-11-30 19:38:23
,wl-rdm,205,520226,0.0-8.88-0.88,1.0,206.0,,,,,,,[],,,,,,53.2,0.0,i,1.0,False,706.2999999821186,43.0,60.0,40.0,False,,233.2381176834621,[],"[683, 384]",ColorTask,115.0,89.0,,,HRV,HRV_0244,2022-11-30 19:38:23
,wl-rdm,206,522398,0.0-8.89-0.89,1.0,207.0,,,,,,,[],,,,,,73.6,0.0,u,0.0,True,742.2999999970198,45.0,60.0,40.0,False,,334.2340121320612,[],"[683, 384]",ColorTask,116.0,90.0,,,HRV,HRV_0244,2022-11-30 19:38:23
,wl-rdm,207,524529,0.0-8.90-0.90,1.0,208.0,,,,,,,[],,,,,,73.6,1.0,i,1.0,True,791.5,48.0,60.0,40.0,False,,245.6336562616203,[],"[683, 384]",ColorTask,117.0,91.0,,,HRV,HRV_0244,2022-11-30 19:38:23
,wl-rdm,208,526699,0.0-8.91-0.91,1.0,209.0,,,,,,,[],,,,,,73.6,0.0,u,0.0,True,892.8000000119209,54.0,60.0,40.0,False,,202.3934973628657,[],"[683, 384]",ColorTask,118.0,92.0,,,HRV,HRV_0244,2022-11-30 19:38:23
,wl-rdm,209,528744,0.0-8.92-0.92,1.0,210.0,,,,,,,[],,,,,,73.6,0.0,u,0.0,True,753.9999999850988,43.0,60.0,40.0,False,,208.88249981447868,[],"[683, 384]",ColorTask,119.0,93.0,,,HRV,HRV_0244,2022-11-30 19:38:23
,wl-rdm,210,530815,0.0-8.93-0.93,1.0,211.0,,,,,,,[],,,,,,62.5,1.0,i,1.0,True,764.5,44.0,60.0,40.0,False,,224.86380413320816,[],"[683, 384]",ColorTask,120.0,94.0,,,HRV,HRV_0244,2022-11-30 19:38:23
,wl-rdm,211,532876,0.0-8.94-0.94,1.0,212.0,,,,,,,[],,,,,,73.6,1.0,i,1.0,True,713.3000000119209,43.0,60.0,40.0,False,,274.4388884061585,[],"[683, 384]",ColorTask,121.0,95.0,,,HRV,HRV_0244,2022-11-30 19:38:23
,wl-rdm,212,535778,0.0-8.95-0.95,1.0,213.0,,,,,,,[],,,,,,50.0,1.0,i,1.0,True,1612.7000000029802,97.0,60.0,40.0,False,,210.6950429004967,[],"[683, 384]",ColorTask,122.0,96.0,,,HRV,HRV_0244,2022-11-30 19:38:23
,wl-rdm,213,538027,0.0-8.96-0.96,1.0,214.0,,,,,,,[],,,,,,53.2,1.0,u,0.0,False,963.7000000029802,56.0,60.0,40.0,False,,213.28801856212675,[],"[683, 384]",ColorTask,121.0,97.0,,,HRV,HRV_0244,2022-11-30 19:38:23
,wl-rdm,214,540381,0.0-8.97-0.97,1.0,215.0,,,,,,,[],,,,,,56.4,0.0,u,0.0,True,981.0,59.0,60.0,40.0,False,,289.1365558078746,[],"[683, 384]",ColorTask,122.0,98.0,,,HRV,HRV_0244,2022-11-30 19:38:23
,wl-rdm,215,542693,0.0-8.98-0.98,1.0,216.0,,,,,,,[],,,,,,50.0,0.0,i,1.0,False,959.7000000029802,58.0,60.0,40.0,False,,255.41418332368926,[],"[683, 384]",ColorTask,121.0,99.0,,,HRV,HRV_0244,2022-11-30 19:38:23
,wl-rdm,216,544760,0.0-8.99-0.99,1.0,217.0,,,,,,,[],,,,,,87.9,0.0,u,0.0,True,728.2999999970198,45.0,60.0,40.0,False,,226.80321391366058,[],"[683, 384]",ColorTask,122.0,100.0,,,HRV,HRV_0244,2022-11-30 19:38:23
,wl-rdm,217,547064,0.0-8.100-0.100,1.0,218.0,,,,,,,[],,,,,,73.6,0.0,u,0.0,True,973.2000000029802,58.0,60.0,40.0,False,,262.57203768028177,[],"[683, 384]",ColorTask,123.0,101.0,,,HRV,HRV_0244,2022-11-30 19:38:23
,wl-rdm,218,549094,0.0-8.101-0.101,1.0,219.0,,,,,,,[],,,,,,62.5,1.0,i,1.0,True,690.1000000089407,41.0,60.0,40.0,False,,276.02758305240525,[],"[683, 384]",ColorTask,124.0,102.0,,,HRV,HRV_0244,2022-11-30 19:38:23
,wl-rdm,219,551044,0.0-8.102-0.102,1.0,220.0,,,,,,,[],,,,,,73.6,1.0,i,1.0,True,533.2000000029802,32.0,60.0,40.0,False,,354.1071758327861,[],"[683, 384]",ColorTask,125.0,103.0,,,HRV,HRV_0244,2022-11-30 19:38:23
,wl-rdm,220,553544,0.0-8.103-0.103,1.0,221.0,,,,,,,[],,,,,,62.5,1.0,i,1.0,True,1158.5,70.0,60.0,40.0,False,,263.90887870909376,[],"[683, 384]",ColorTask,126.0,104.0,,,HRV,HRV_0244,2022-11-30 19:38:23
,wl-rdm,221,556243,0.0-8.104-0.104,1.0,222.0,,,,,,,[],,,,,,50.0,0.0,u,0.0,True,1385.2000000029802,82.0,60.0,40.0,False,,245.35634886732637,[],"[683, 384]",ColorTask,127.0,105.0,,,HRV,HRV_0244,2022-11-30 19:38:23
,wl-rdm,222,558683,0.0-8.105-0.105,1.0,223.0,,,,,,,[],,,,,,73.6,0.0,u,0.0,True,1109.4000000059605,67.0,60.0,40.0,False,,237.02350546244477,[],"[683, 384]",ColorTask,128.0,106.0,,,HRV,HRV_0244,2022-11-30 19:38:23
,wl-rdm,223,560713,0.0-8.106-0.106,1.0,224.0,,,,,,,[],,,,,,62.5,0.0,u,0.0,True,655.9000000059605,40.0,60.0,40.0,False,,264.71018641288435,[],"[683, 384]",ColorTask,129.0,107.0,,,HRV,HRV_0244,2022-11-30 19:38:23
,wl-rdm,224,563077,0.0-8.107-0.107,1.0,225.0,,,,,,,[],,,,,,50.0,0.0,u,0.0,True,1057.5999999940395,62.0,60.0,40.0,False,,232.02004714804326,[],"[683, 384]",ColorTask,130.0,108.0,,,HRV,HRV_0244,2022-11-30 19:38:23
,wl-html-button-response,225,565802,0.0-9.0-0.0,,,,,,,,,,2708.2999999970198,,0,,,,,,,,,,,,,,,,,,,,<h3>End of this session. Thank you!</h3><br>,['Close window'],HRV,HRV_0244,2022-11-30 19:38:23
