trialN,stimuli,trialStartTime,trialStartTime_UNIX,stimulus1,stimulus2,stimulus1Bid,stimulus2Bid,delta,selected,rt,rt_UNIX,rt_perfnow,receivedResponse,rsp,trialEndTime,trialDuration,trialEndTime_UNIX,trialDuration_UNIX,exp,subjectId,date
0,"[{'imgObject': {}, 'id': 'chicken nuggets2', 'src': '/static/foodstim60/chicken nuggets2.jpg', 'key': 'u', 'origWidth': 410, 'origHeight': 409, 'width': 410, 'height': 409, 'widthPercent': 0.45, 'rescaleHeight': False, 'trialN': 0, 'loaded': True, 'loadedTime': 5204.20000000298, 'positionName': 'LEFT', 'positionCoords': [245.68, 179.5], 'bid': 0.84}, {'imgObject': {}, 'id': 'turkey sandwich', 'src': '/static/foodstim60/turkey sandwich.jpg', 'key': 'i', 'origWidth': 409, 'origHeight': 409, 'width': 409, 'height': 409, 'widthPercent': 0.45, 'rescaleHeight': False, 'trialN': 0, 'loaded': True, 'loadedTime': 5294.70000000298, 'positionName': 'RIGHT', 'positionCoords': [710.32, 179.5], 'bid': 5.26}]",9111.09999999404,1669835306588,chicken nuggets2,turkey sandwich,0.84,5.26,4.42,turkey sandwich,981.4000000059605,984,983.7000000029802,True,i,10617.20000000298,1506.1000000089407,1669835308094,1506,HRV,HRV_0244,2022-11-30 19:13:55
1,"[{'imgObject': {}, 'id': 'blackbeanswithrice', 'src': '/static/foodstim60/blackbeanswithrice.jpg', 'key': 'u', 'origWidth': 410, 'origHeight': 410, 'width': 410, 'height': 410, 'widthPercent': 0.45, 'rescaleHeight': False, 'trialN': 1, 'loaded': True, 'loadedTime': 5316.79999999702, 'positionName': 'LEFT', 'positionCoords': [245.68, 179], 'bid': 5.7700000000000005}, {'imgObject': {}, 'id': 'cherry tomato', 'src': '/static/foodstim60/cherry tomato.jpg', 'key': 'i', 'origWidth': 410, 'origHeight': 410, 'width': 410, 'height': 410, 'widthPercent': 0.45, 'rescaleHeight': False, 'trialN': 1, 'loaded': True, 'loadedTime': 5483.5999999940395, 'positionName': 'RIGHT', 'positionCoords': [710.32, 179], 'bid': 1.28}]",10617.79999999702,1669835308095,blackbeanswithrice,cherry tomato,5.7700000000000005,1.28,-4.49,blackbeanswithrice,1133.6000000089407,1135,1135.6000000089407,True,u,12282.29999999702,1664.5,1669835309759,1664,HRV,HRV_0244,2022-11-30 19:13:55
2,"[{'imgObject': {}, 'id': 'blackbeanswithrice', 'src': '/static/foodstim60/blackbeanswithrice.jpg', 'key': 'u', 'origWidth': 410, 'origHeight': 410, 'width': 410, 'height': 410, 'widthPercent': 0.45, 'rescaleHeight': False, 'trialN': 2, 'loaded': True, 'loadedTime': 5341.70000000298, 'positionName': 'LEFT', 'positionCoords': [245.68, 179], 'bid': 5.7700000000000005}, {'imgObject': {}, 'id': 'apple slices', 'src': '/static/foodstim60/apple slices.jpg', 'key': 'i', 'origWidth': 409, 'origHeight': 410, 'width': 409, 'height': 410, 'widthPercent': 0.45, 'rescaleHeight': False, 'trialN': 2, 'loaded': True, 'loadedTime': 5490, 'positionName': 'RIGHT', 'positionCoords': [710.32, 179], 'bid': 5.87}]",12283.29999999702,1669835309760,blackbeanswithrice,apple slices,5.7700000000000005,5.87,0.09999999999999964,apple slices,1089.5,1092,1091.7000000029802,True,i,13894.79999999702,1611.5,1669835311371,1611,HRV,HRV_0244,2022-11-30 19:13:55
3,"[{'imgObject': {}, 'id': 'Grapes', 'src': '/static/foodstim60/Grapes.jpg', 'key': 'u', 'origWidth': 411, 'origHeight': 411, 'width': 411, 'height': 411, 'widthPercent': 0.45, 'rescaleHeight': False, 'trialN': 3, 'loaded': True, 'loadedTime': 5545.5, 'positionName': 'LEFT', 'positionCoords': [244.68, 178.5], 'bid': 7.86}, {'imgObject': {}, 'id': 'salmon', 'src': '/static/foodstim60/salmon.jpg', 'key': 'i', 'origWidth': 410, 'origHeight': 409, 'width': 410, 'height': 409, 'widthPercent': 0.45, 'rescaleHeight': False, 'trialN': 3, 'loaded': True, 'loadedTime': 5627.0999999940395, 'positionName': 'RIGHT', 'positionCoords': [710.32, 179.5], 'bid': 8.13}]",13895.20000000298,1669835311372,Grapes,salmon,7.86,8.13,0.27000000000000046,Grapes,1251.3999999910593,1255,1254.7000000029802,True,u,15660.70000000298,1765.5,1669835313137,1765,HRV,HRV_0244,2022-11-30 19:13:55
4,"[{'imgObject': {}, 'id': 'hotdog w must', 'src': '/static/foodstim60/hotdog w must.jpg', 'key': 'u', 'origWidth': 409, 'origHeight': 409, 'width': 409, 'height': 409, 'widthPercent': 0.45, 'rescaleHeight': False, 'trialN': 4, 'loaded': True, 'loadedTime': 5635.0999999940395, 'positionName': 'LEFT', 'positionCoords': [246.68, 179.5], 'bid': 3.19}, {'imgObject': {}, 'id': 'popsicles', 'src': '/static/foodstim60/popsicles.jpg', 'key': 'i', 'origWidth': 410, 'origHeight': 410, 'width': 410, 'height': 410, 'widthPercent': 0.45, 'rescaleHeight': False, 'trialN': 4, 'loaded': True, 'loadedTime': 6199.20000000298, 'positionName': 'RIGHT', 'positionCoords': [710.32, 179], 'bid': 0.22}]",15661.90000000596,1669835313139,hotdog w must,popsicles,3.19,0.22,-2.9699999999999998,hotdog w must,919.5999999940395,923,923.8999999910593,True,u,17103.5,1441.5999999940395,1669835314580,1441,HRV,HRV_0244,2022-11-30 19:13:55
5,"[{'imgObject': {}, 'id': 'bagel plain', 'src': '/static/foodstim60/bagel plain.jpg', 'key': 'u', 'origWidth': 410, 'origHeight': 410, 'width': 410, 'height': 410, 'widthPercent': 0.45, 'rescaleHeight': False, 'trialN': 5, 'loaded': True, 'loadedTime': 5871.20000000298, 'positionName': 'LEFT', 'positionCoords': [245.68, 179], 'bid': 3.75}, {'imgObject': {}, 'id': 'rigatoni', 'src': '/static/foodstim60/rigatoni.jpg', 'key': 'i', 'origWidth': 411, 'origHeight': 411, 'width': 411, 'height': 411, 'widthPercent': 0.45, 'rescaleHeight': False, 'trialN': 5, 'loaded': True, 'loadedTime': 5988.79999999702, 'positionName': 'RIGHT', 'positionCoords': [710.32, 178.5], 'bid': 2.29}]",17104.09999999404,1669835314581,bagel plain,rigatoni,3.75,2.29,-1.46,bagel plain,1227.6000000089407,1231,1230.800000011921,True,u,18861.20000000298,1757.1000000089407,1669835316338,1757,HRV,HRV_0244,2022-11-30 19:13:55
6,"[{'imgObject': {}, 'id': 'olives', 'src': '/static/foodstim60/olives.jpg', 'key': 'u', 'origWidth': 410, 'origHeight': 410, 'width': 410, 'height': 410, 'widthPercent': 0.45, 'rescaleHeight': False, 'trialN': 6, 'loaded': True, 'loadedTime': 6081.20000000298, 'positionName': 'LEFT', 'positionCoords': [245.68, 179], 'bid': 7.24}, {'imgObject': {}, 'id': 'corn cob', 'src': '/static/foodstim60/corn cob.jpg', 'key': 'i', 'origWidth': 411, 'origHeight': 411, 'width': 411, 'height': 411, 'widthPercent': 0.45, 'rescaleHeight': False, 'trialN': 6, 'loaded': True, 'loadedTime': 6314.5999999940395, 'positionName': 'RIGHT', 'positionCoords': [710.32, 178.5], 'bid': 7.19}]",18862.5,1669835316339,olives,corn cob,7.24,7.19,-0.04999999999999982,olives,1286.5,1291,1290.2000000029802,True,u,20658.5,1796.0,1669835318135,1796,HRV,HRV_0244,2022-11-30 19:13:55
7,"[{'imgObject': {}, 'id': 'mango', 'src': '/static/foodstim60/mango.jpg', 'key': 'u', 'origWidth': 411, 'origHeight': 411, 'width': 411, 'height': 411, 'widthPercent': 0.45, 'rescaleHeight': False, 'trialN': 7, 'loaded': True, 'loadedTime': 6333.29999999702, 'positionName': 'LEFT', 'positionCoords': [244.68, 178.5], 'bid': 3.56}, {'imgObject': {}, 'id': 'edamame', 'src': '/static/foodstim60/edamame.jpg', 'key': 'i', 'origWidth': 409, 'origHeight': 410, 'width': 409, 'height': 410, 'widthPercent': 0.45, 'rescaleHeight': False, 'trialN': 7, 'loaded': True, 'loadedTime': 6423.9000000059605, 'positionName': 'RIGHT', 'positionCoords': [710.32, 179], 'bid': 0.27}]",20660.59999999404,1669835318137,mango,edamame,3.56,0.27,-3.29,mango,1035.800000011921,1040,1039.9000000059605,True,u,22203.5,1542.9000000059605,1669835319680,1543,HRV,HRV_0244,2022-11-30 19:13:55
8,"[{'imgObject': {}, 'id': 'raisin bran w milk', 'src': '/static/foodstim60/raisin bran w milk.jpg', 'key': 'u', 'origWidth': 411, 'origHeight': 411, 'width': 411, 'height': 411, 'widthPercent': 0.45, 'rescaleHeight': False, 'trialN': 8, 'loaded': True, 'loadedTime': 6575.70000000298, 'positionName': 'LEFT', 'positionCoords': [244.68, 178.5], 'bid': 6.44}, {'imgObject': {}, 'id': 'strawberries', 'src': '/static/foodstim60/strawberries.jpg', 'key': 'i', 'origWidth': 410, 'origHeight': 410, 'width': 410, 'height': 410, 'widthPercent': 0.45, 'rescaleHeight': False, 'trialN': 8, 'loaded': True, 'loadedTime': 6693.79999999702, 'positionName': 'RIGHT', 'positionCoords': [710.32, 179], 'bid': 6.140000000000001}]",22204.29999999702,1669835319681,raisin bran w milk,strawberries,6.44,6.140000000000001,-0.2999999999999998,strawberries,1415.4000000059605,1418,1417.7999999970198,True,i,24139.29999999702,1935.0,1669835321616,1935,HRV,HRV_0244,2022-11-30 19:13:55
9,"[{'imgObject': {}, 'id': 'chicken nuggets2', 'src': '/static/foodstim60/chicken nuggets2.jpg', 'key': 'u', 'origWidth': 410, 'origHeight': 409, 'width': 410, 'height': 409, 'widthPercent': 0.45, 'rescaleHeight': False, 'trialN': 9, 'loaded': True, 'loadedTime': 5206.79999999702, 'positionName': 'LEFT', 'positionCoords': [245.68, 179.5], 'bid': 0.84}, {'imgObject': {}, 'id': 'granola w milk', 'src': '/static/foodstim60/granola w milk.jpg', 'key': 'i', 'origWidth': 410, 'origHeight': 410, 'width': 410, 'height': 410, 'widthPercent': 0.45, 'rescaleHeight': False, 'trialN': 9, 'loaded': True, 'loadedTime': 6811.5, 'positionName': 'RIGHT', 'positionCoords': [710.32, 179], 'bid': 1.09}]",24140.0,1669835321617,chicken nuggets2,granola w milk,0.84,1.09,0.2500000000000001,chicken nuggets2,1418.5,1421,1421.7000000029802,True,u,26078.90000000596,1938.9000000059605,1669835323556,1939,HRV,HRV_0244,2022-11-30 19:13:55
10,"[{'imgObject': {}, 'id': 'lox', 'src': '/static/foodstim60/lox.jpg', 'key': 'u', 'origWidth': 410, 'origHeight': 411, 'width': 410, 'height': 411, 'widthPercent': 0.45, 'rescaleHeight': False, 'trialN': 10, 'loaded': True, 'loadedTime': 6860.0999999940395, 'positionName': 'LEFT', 'positionCoords': [245.68, 178.5], 'bid': 2.56}, {'imgObject': {}, 'id': 'seaweed', 'src': '/static/foodstim60/seaweed.jpg', 'key': 'i', 'origWidth': 410, 'origHeight': 410, 'width': 410, 'height': 410, 'widthPercent': 0.45, 'rescaleHeight': False, 'trialN': 10, 'loaded': True, 'loadedTime': 6966, 'positionName': 'RIGHT', 'positionCoords': [710.32, 179], 'bid': 0.03}]",26079.79999999702,1669835323557,lox,seaweed,2.56,0.03,-2.5300000000000002,lox,1611.5,1615,1615.1000000089407,True,u,28200.29999999702,2120.5,1669835325677,2120,HRV,HRV_0244,2022-11-30 19:13:55
11,"[{'imgObject': {}, 'id': 'eggsalad', 'src': '/static/foodstim60/eggsalad.jpg', 'key': 'u', 'origWidth': 410, 'origHeight': 409, 'width': 410, 'height': 409, 'widthPercent': 0.45, 'rescaleHeight': False, 'trialN': 11, 'loaded': True, 'loadedTime': 7091.0999999940395, 'positionName': 'LEFT', 'positionCoords': [245.68, 179.5], 'bid': 4.25}, {'imgObject': {}, 'id': 'chickenfingers', 'src': '/static/foodstim60/chickenfingers.jpg', 'key': 'i', 'origWidth': 410, 'origHeight': 410, 'width': 410, 'height': 410, 'widthPercent': 0.45, 'rescaleHeight': False, 'trialN': 11, 'loaded': True, 'loadedTime': 7106.70000000298, 'positionName': 'RIGHT', 'positionCoords': [710.32, 179], 'bid': 4.88}]",28201.20000000298,1669835325678,eggsalad,chickenfingers,4.25,4.88,0.6299999999999999,chickenfingers,1436.7999999970198,1438,1438.0,True,i,30157.5,1956.2999999970198,1669835327634,1956,HRV,HRV_0244,2022-11-30 19:13:55
12,"[{'imgObject': {}, 'id': 'pear', 'src': '/static/foodstim60/pear.jpg', 'key': 'u', 'origWidth': 411, 'origHeight': 410, 'width': 411, 'height': 410, 'widthPercent': 0.45, 'rescaleHeight': False, 'trialN': 12, 'loaded': True, 'loadedTime': 7199.9000000059605, 'positionName': 'LEFT', 'positionCoords': [244.68, 179], 'bid': 3.78}, {'imgObject': {}, 'id': 'hashbrowns', 'src': '/static/foodstim60/hashbrowns.jpg', 'key': 'i', 'origWidth': 411, 'origHeight': 410, 'width': 411, 'height': 410, 'widthPercent': 0.45, 'rescaleHeight': False, 'trialN': 12, 'loaded': True, 'loadedTime': 7341.70000000298, 'positionName': 'RIGHT', 'positionCoords': [710.32, 179], 'bid': 2.36}]",30159.5,1669835327636,pear,hashbrowns,3.78,2.36,-1.42,pear,1060.2000000029802,1064,1063.5,True,u,31734.79999999702,1575.2999999970198,1669835329213,1577,HRV,HRV_0244,2022-11-30 19:13:55
13,"[{'imgObject': {}, 'id': 'burrito', 'src': '/static/foodstim60/burrito.jpg', 'key': 'u', 'origWidth': 410, 'origHeight': 410, 'width': 410, 'height': 410, 'widthPercent': 0.45, 'rescaleHeight': False, 'trialN': 13, 'loaded': True, 'loadedTime': 7360.5, 'positionName': 'LEFT', 'positionCoords': [245.68, 179], 'bid': 4.94}, {'imgObject': {}, 'id': 'eggs', 'src': '/static/foodstim60/eggs.jpg', 'key': 'i', 'origWidth': 409, 'origHeight': 409, 'width': 409, 'height': 409, 'widthPercent': 0.45, 'rescaleHeight': False, 'trialN': 13, 'loaded': True, 'loadedTime': 7369.70000000298, 'positionName': 'RIGHT', 'positionCoords': [710.32, 179.5], 'bid': 2.21}]",31736.29999999702,1669835329213,burrito,eggs,4.94,2.21,-2.7300000000000004,burrito,1260.2999999970198,1262,1262.2999999970198,True,u,33514.0,1777.7000000029802,1669835330991,1778,HRV,HRV_0244,2022-11-30 19:13:55
14,"[{'imgObject': {}, 'id': 'grilled chicken strips', 'src': '/static/foodstim60/grilled chicken strips.jpg', 'key': 'u', 'origWidth': 410, 'origHeight': 411, 'width': 410, 'height': 411, 'widthPercent': 0.45, 'rescaleHeight': False, 'trialN': 14, 'loaded': True, 'loadedTime': 7440.4000000059605, 'positionName': 'LEFT', 'positionCoords': [245.68, 178.5], 'bid': 5.33}, {'imgObject': {}, 'id': 'strawberries', 'src': '/static/foodstim60/strawberries.jpg', 'key': 'i', 'origWidth': 410, 'origHeight': 410, 'width': 410, 'height': 410, 'widthPercent': 0.45, 'rescaleHeight': False, 'trialN': 14, 'loaded': True, 'loadedTime': 6599.0999999940395, 'positionName': 'RIGHT', 'positionCoords': [710.32, 179], 'bid': 6.140000000000001}]",33517.0,1669835330994,grilled chicken strips,strawberries,5.33,6.140000000000001,0.8100000000000005,grilled chicken strips,1784.2999999970198,1792,1791.9000000059605,True,u,35819.70000000298,2302.7000000029802,1669835333296,2302,HRV,HRV_0244,2022-11-30 19:13:55
15,"[{'imgObject': {}, 'id': 'mashed potato', 'src': '/static/foodstim60/mashed potato.jpg', 'key': 'u', 'origWidth': 409, 'origHeight': 409, 'width': 409, 'height': 409, 'widthPercent': 0.45, 'rescaleHeight': False, 'trialN': 15, 'loaded': True, 'loadedTime': 7444.29999999702, 'positionName': 'LEFT', 'positionCoords': [246.68, 179.5], 'bid': 5.45}, {'imgObject': {}, 'id': 'corn cob', 'src': '/static/foodstim60/corn cob.jpg', 'key': 'i', 'origWidth': 411, 'origHeight': 411, 'width': 411, 'height': 411, 'widthPercent': 0.45, 'rescaleHeight': False, 'trialN': 15, 'loaded': True, 'loadedTime': 6227.4000000059605, 'positionName': 'RIGHT', 'positionCoords': [710.32, 178.5], 'bid': 7.19}]",35822.0,1669835333299,mashed potato,corn cob,5.45,7.19,1.7400000000000002,corn cob,1315.2999999970198,1316,1316.5999999940395,True,i,37655.90000000596,1833.9000000059605,1669835335133,1834,HRV,HRV_0244,2022-11-30 19:13:55
16,"[{'imgObject': {}, 'id': 'rigatoni', 'src': '/static/foodstim60/rigatoni.jpg', 'key': 'u', 'origWidth': 411, 'origHeight': 411, 'width': 411, 'height': 411, 'widthPercent': 0.45, 'rescaleHeight': False, 'trialN': 16, 'loaded': True, 'loadedTime': 5985.5999999940395, 'positionName': 'LEFT', 'positionCoords': [244.68, 178.5], 'bid': 2.29}, {'imgObject': {}, 'id': 'baked potato', 'src': '/static/foodstim60/baked potato.jpg', 'key': 'i', 'origWidth': 409, 'origHeight': 410, 'width': 409, 'height': 410, 'widthPercent': 0.45, 'rescaleHeight': False, 'trialN': 16, 'loaded': True, 'loadedTime': 7465.20000000298, 'positionName': 'RIGHT', 'positionCoords': [710.32, 179], 'bid': 4.97}]",37657.79999999702,1669835335134,rigatoni,baked potato,2.29,4.97,2.6799999999999997,baked potato,1069.6000000089407,1076,1075.0,True,i,39244.29999999702,1586.5,1669835336721,1587,HRV,HRV_0244,2022-11-30 19:13:55
17,"[{'imgObject': {}, 'id': 'shreddedwheatwithmilk', 'src': '/static/foodstim60/shreddedwheatwithmilk.jpg', 'key': 'u', 'origWidth': 410, 'origHeight': 410, 'width': 410, 'height': 410, 'widthPercent': 0.45, 'rescaleHeight': False, 'trialN': 17, 'loaded': True, 'loadedTime': 7615.79999999702, 'positionName': 'LEFT', 'positionCoords': [245.68, 179], 'bid': 2.08}, {'imgObject': {}, 'id': 'yogurt no spoon', 'src': '/static/foodstim60/yogurt no spoon.jpg', 'key': 'i', 'origWidth': 411, 'origHeight': 410, 'width': 411, 'height': 410, 'widthPercent': 0.45, 'rescaleHeight': False, 'trialN': 17, 'loaded': True, 'loadedTime': 7630, 'positionName': 'RIGHT', 'positionCoords': [710.32, 179], 'bid': 6.03}]",39246.20000000298,1669835336723,shreddedwheatwithmilk,yogurt no spoon,2.08,6.03,3.95,yogurt no spoon,1169.2000000029802,1171,1170.7999999970198,True,i,40956.5,1710.2999999970198,1669835338433,1710,HRV,HRV_0244,2022-11-30 19:13:55
18,"[{'imgObject': {}, 'id': 'mac & cheese', 'src': '/static/foodstim60/mac & cheese.jpg', 'key': 'u', 'origWidth': 410, 'origHeight': 410, 'width': 410, 'height': 410, 'widthPercent': 0.45, 'rescaleHeight': False, 'trialN': 18, 'loaded': True, 'loadedTime': 7759.5999999940395, 'positionName': 'LEFT', 'positionCoords': [245.68, 179], 'bid': 2.21}, {'imgObject': {}, 'id': 'rigatoni', 'src': '/static/foodstim60/rigatoni.jpg', 'key': 'i', 'origWidth': 411, 'origHeight': 411, 'width': 411, 'height': 411, 'widthPercent': 0.45, 'rescaleHeight': False, 'trialN': 18, 'loaded': True, 'loadedTime': 5981, 'positionName': 'RIGHT', 'positionCoords': [710.32, 178.5], 'bid': 2.29}]",40957.09999999404,1669835338434,mac & cheese,rigatoni,2.21,2.29,0.08000000000000007,mac & cheese,1398.6000000089407,1403,1402.6000000089407,True,u,42877.40000000596,1920.300000011921,1669835340354,1920,HRV,HRV_0244,2022-11-30 19:13:55
19,"[{'imgObject': {}, 'id': 'fried eggs', 'src': '/static/foodstim60/fried eggs.jpg', 'key': 'u', 'origWidth': 410, 'origHeight': 410, 'width': 410, 'height': 410, 'widthPercent': 0.45, 'rescaleHeight': False, 'trialN': 19, 'loaded': True, 'loadedTime': 7775.5, 'positionName': 'LEFT', 'positionCoords': [245.68, 179], 'bid': 4.89}, {'imgObject': {}, 'id': 'mashed potato', 'src': '/static/foodstim60/mashed potato.jpg', 'key': 'i', 'origWidth': 409, 'origHeight': 409, 'width': 409, 'height': 409, 'widthPercent': 0.45, 'rescaleHeight': False, 'trialN': 19, 'loaded': True, 'loadedTime': 7449.20000000298, 'positionName': 'RIGHT', 'positionCoords': [710.32, 179.5], 'bid': 5.45}]",42877.70000000298,1669835340354,fried eggs,mashed potato,4.89,5.45,0.5600000000000005,fried eggs,1555.5,1559,1558.5999999940395,True,u,44969.40000000596,2091.7000000029802,1669835342446,2092,HRV,HRV_0244,2022-11-30 19:13:55
20,"[{'imgObject': {}, 'id': 'seaweed', 'src': '/static/foodstim60/seaweed.jpg', 'key': 'u', 'origWidth': 410, 'origHeight': 410, 'width': 410, 'height': 410, 'widthPercent': 0.45, 'rescaleHeight': False, 'trialN': 20, 'loaded': True, 'loadedTime': 6971.79999999702, 'positionName': 'LEFT', 'positionCoords': [245.68, 179], 'bid': 0.03}, {'imgObject': {}, 'id': 'omelette', 'src': '/static/foodstim60/omelette.jpg', 'key': 'i', 'origWidth': 410, 'origHeight': 409, 'width': 410, 'height': 409, 'widthPercent': 0.45, 'rescaleHeight': False, 'trialN': 20, 'loaded': True, 'loadedTime': 7794.9000000059605, 'positionName': 'RIGHT', 'positionCoords': [710.32, 179.5], 'bid': 5.0200000000000005}]",44970.09999999404,1669835342447,seaweed,omelette,0.03,5.0200000000000005,4.99,omelette,959.3000000119209,963,963.2000000029802,True,i,46449.59999999404,1479.5,1669835343926,1479,HRV,HRV_0244,2022-11-30 19:13:55
21,"[{'imgObject': {}, 'id': 'lox', 'src': '/static/foodstim60/lox.jpg', 'key': 'u', 'origWidth': 410, 'origHeight': 411, 'width': 410, 'height': 411, 'widthPercent': 0.45, 'rescaleHeight': False, 'trialN': 21, 'loaded': True, 'loadedTime': 6842.4000000059605, 'positionName': 'LEFT', 'positionCoords': [245.68, 178.5], 'bid': 2.56}, {'imgObject': {}, 'id': 'froot loops w milk', 'src': '/static/foodstim60/froot loops w milk.jpg', 'key': 'i', 'origWidth': 410, 'origHeight': 410, 'width': 410, 'height': 410, 'widthPercent': 0.45, 'rescaleHeight': False, 'trialN': 21, 'loaded': True, 'loadedTime': 7899.70000000298, 'positionName': 'RIGHT', 'positionCoords': [710.32, 179], 'bid': 6.63}]",46450.29999999702,1669835343927,lox,froot loops w milk,2.56,6.63,4.07,froot loops w milk,1091.9000000059605,1094,1094.4000000059605,True,i,48064.09999999404,1613.7999999970198,1669835345541,1614,HRV,HRV_0244,2022-11-30 19:13:55
22,"[{'imgObject': {}, 'id': 'froot loops w milk', 'src': '/static/foodstim60/froot loops w milk.jpg', 'key': 'u', 'origWidth': 410, 'origHeight': 410, 'width': 410, 'height': 410, 'widthPercent': 0.45, 'rescaleHeight': False, 'trialN': 22, 'loaded': True, 'loadedTime': 7925.5, 'positionName': 'LEFT', 'positionCoords': [245.68, 179], 'bid': 6.63}, {'imgObject': {}, 'id': 'Grapes', 'src': '/static/foodstim60/Grapes.jpg', 'key': 'i', 'origWidth': 411, 'origHeight': 411, 'width': 411, 'height': 411, 'widthPercent': 0.45, 'rescaleHeight': False, 'trialN': 22, 'loaded': True, 'loadedTime': 5517.4000000059605, 'positionName': 'RIGHT', 'positionCoords': [710.32, 178.5], 'bid': 7.86}]",48065.90000000596,1669835345543,froot loops w milk,Grapes,6.63,7.86,1.2300000000000004,froot loops w milk,1368.8999999910593,1374,1374.0,True,u,49954.20000000298,1888.2999999970198,1669835347431,1888,HRV,HRV_0244,2022-11-30 19:13:55
23,"[{'imgObject': {}, 'id': 'cherries', 'src': '/static/foodstim60/cherries.jpg', 'key': 'u', 'origWidth': 410, 'origHeight': 411, 'width': 410, 'height': 411, 'widthPercent': 0.45, 'rescaleHeight': False, 'trialN': 23, 'loaded': True, 'loadedTime': 8098.70000000298, 'positionName': 'LEFT', 'positionCoords': [245.68, 178.5], 'bid': 0.38}, {'imgObject': {}, 'id': 'blueberries', 'src': '/static/foodstim60/blueberries.jpg', 'key': 'i', 'origWidth': 411, 'origHeight': 411, 'width': 411, 'height': 411, 'widthPercent': 0.45, 'rescaleHeight': False, 'trialN': 23, 'loaded': True, 'loadedTime': 8076.20000000298, 'positionName': 'RIGHT', 'positionCoords': [710.32, 178.5], 'bid': 1.57}]",49954.90000000596,1669835347432,cherries,blueberries,0.38,1.57,1.19,blueberries,1637.0,1640,1640.2999999970198,True,i,52104.70000000298,2149.7999999970198,1669835349581,2149,HRV,HRV_0244,2022-11-30 19:13:55
24,"[{'imgObject': {}, 'id': 'sushi w_condiments', 'src': '/static/foodstim60/sushi w_condiments.jpg', 'key': 'u', 'origWidth': 410, 'origHeight': 410, 'width': 410, 'height': 410, 'widthPercent': 0.45, 'rescaleHeight': False, 'trialN': 24, 'loaded': True, 'loadedTime': 8222.20000000298, 'positionName': 'LEFT', 'positionCoords': [245.68, 179], 'bid': 7.76}, {'imgObject': {}, 'id': 'orange slices', 'src': '/static/foodstim60/orange slices.jpg', 'key': 'i', 'origWidth': 409, 'origHeight': 410, 'width': 409, 'height': 410, 'widthPercent': 0.45, 'rescaleHeight': False, 'trialN': 24, 'loaded': True, 'loadedTime': 8236.29999999702, 'positionName': 'RIGHT', 'positionCoords': [710.32, 179], 'bid': 4.8}]",52105.40000000596,1669835349582,sushi w_condiments,orange slices,7.76,4.8,-2.96,sushi w_condiments,885.5,891,890.8999999910593,True,u,53508.79999999702,1403.3999999910593,1669835350986,1404,HRV,HRV_0244,2022-11-30 19:13:55
25,"[{'imgObject': {}, 'id': 'hotdog w must', 'src': '/static/foodstim60/hotdog w must.jpg', 'key': 'u', 'origWidth': 409, 'origHeight': 409, 'width': 409, 'height': 409, 'widthPercent': 0.45, 'rescaleHeight': False, 'trialN': 25, 'loaded': True, 'loadedTime': 5747.0999999940395, 'positionName': 'LEFT', 'positionCoords': [246.68, 179.5], 'bid': 3.19}, {'imgObject': {}, 'id': 'banana', 'src': '/static/foodstim60/banana.jpg', 'key': 'i', 'origWidth': 410, 'origHeight': 410, 'width': 410, 'height': 410, 'widthPercent': 0.45, 'rescaleHeight': False, 'trialN': 25, 'loaded': True, 'loadedTime': 8243.09999999404, 'positionName': 'RIGHT', 'positionCoords': [710.32, 179], 'bid': 4.2}]",53512.0,1669835350989,hotdog w must,banana,3.19,4.2,1.0100000000000002,hotdog w must,1615.5,1622,1624.5999999940395,True,u,55652.09999999404,2140.0999999940395,1669835353127,2138,HRV,HRV_0244,2022-11-30 19:13:55
26,"[{'imgObject': {}, 'id': 'raisin bran w milk', 'src': '/static/foodstim60/raisin bran w milk.jpg', 'key': 'u', 'origWidth': 411, 'origHeight': 411, 'width': 411, 'height': 411, 'widthPercent': 0.45, 'rescaleHeight': False, 'trialN': 26, 'loaded': True, 'loadedTime': 6432.20000000298, 'positionName': 'LEFT', 'positionCoords': [244.68, 178.5], 'bid': 6.44}, {'imgObject': {}, 'id': 'eggs', 'src': '/static/foodstim60/eggs.jpg', 'key': 'i', 'origWidth': 409, 'origHeight': 409, 'width': 409, 'height': 409, 'widthPercent': 0.45, 'rescaleHeight': False, 'trialN': 26, 'loaded': True, 'loadedTime': 7374.9000000059605, 'positionName': 'RIGHT', 'positionCoords': [710.32, 179.5], 'bid': 2.21}]",55653.40000000596,1669835353128,raisin bran w milk,eggs,6.44,2.21,-4.23,raisin bran w milk,1189.7999999970198,1193,1193.699999988079,True,u,57356.70000000298,1703.2999999970198,1669835354831,1703,HRV,HRV_0244,2022-11-30 19:13:55
27,"[{'imgObject': {}, 'id': 'sweetpotato', 'src': '/static/foodstim60/sweetpotato.jpg', 'key': 'u', 'origWidth': 410, 'origHeight': 410, 'width': 410, 'height': 410, 'widthPercent': 0.45, 'rescaleHeight': False, 'trialN': 27, 'loaded': True, 'loadedTime': 8272.40000000596, 'positionName': 'LEFT', 'positionCoords': [245.68, 179], 'bid': 0.92}, {'imgObject': {}, 'id': 'lox', 'src': '/static/foodstim60/lox.jpg', 'key': 'i', 'origWidth': 410, 'origHeight': 411, 'width': 410, 'height': 411, 'widthPercent': 0.45, 'rescaleHeight': False, 'trialN': 27, 'loaded': True, 'loadedTime': 6853.70000000298, 'positionName': 'RIGHT', 'positionCoords': [710.32, 178.5], 'bid': 2.56}]",57358.59999999404,1669835354833,sweetpotato,lox,0.92,2.56,1.6400000000000001,lox,1587.7000000029802,1593,1592.5,True,i,59462.59999999404,2104.0,1669835356937,2104,HRV,HRV_0244,2022-11-30 19:13:55
28,"[{'imgObject': {}, 'id': 'blackbeanswithrice', 'src': '/static/foodstim60/blackbeanswithrice.jpg', 'key': 'u', 'origWidth': 410, 'origHeight': 410, 'width': 410, 'height': 410, 'widthPercent': 0.45, 'rescaleHeight': False, 'trialN': 28, 'loaded': True, 'loadedTime': 5351.20000000298, 'positionName': 'LEFT', 'positionCoords': [245.68, 179], 'bid': 5.7700000000000005}, {'imgObject': {}, 'id': 'olives', 'src': '/static/foodstim60/olives.jpg', 'key': 'i', 'origWidth': 410, 'origHeight': 410, 'width': 410, 'height': 410, 'widthPercent': 0.45, 'rescaleHeight': False, 'trialN': 28, 'loaded': True, 'loadedTime': 6052.5, 'positionName': 'RIGHT', 'positionCoords': [710.32, 179], 'bid': 7.24}]",59465.20000000298,1669835356940,blackbeanswithrice,olives,5.7700000000000005,7.24,1.4699999999999998,olives,934.7000000029802,935,935.8999999910593,True,i,60914.29999999702,1449.0999999940395,1669835358389,1449,HRV,HRV_0244,2022-11-30 19:13:55
29,"[{'imgObject': {}, 'id': 'burger', 'src': '/static/foodstim60/burger.jpg', 'key': 'u', 'origWidth': 409, 'origHeight': 409, 'width': 409, 'height': 409, 'widthPercent': 0.45, 'rescaleHeight': False, 'trialN': 29, 'loaded': True, 'loadedTime': 8460.59999999404, 'positionName': 'LEFT', 'positionCoords': [246.68, 179.5], 'bid': 6.8}, {'imgObject': {}, 'id': 'salad w chicken', 'src': '/static/foodstim60/salad w chicken.jpg', 'key': 'i', 'origWidth': 411, 'origHeight': 411, 'width': 411, 'height': 411, 'widthPercent': 0.45, 'rescaleHeight': False, 'trialN': 29, 'loaded': True, 'loadedTime': 8495.5, 'positionName': 'RIGHT', 'positionCoords': [710.32, 178.5], 'bid': 7}]",60915.20000000298,1669835358390,burger,salad w chicken,6.8,7.0,0.20000000000000018,burger,1324.7000000029802,1329,1329.3999999910593,True,u,62756.90000000596,1841.7000000029802,1669835360231,1841,HRV,HRV_0244,2022-11-30 19:13:55
30,"[{'imgObject': {}, 'id': 'chicken nuggets2', 'src': '/static/foodstim60/chicken nuggets2.jpg', 'key': 'u', 'origWidth': 410, 'origHeight': 409, 'width': 410, 'height': 409, 'widthPercent': 0.45, 'rescaleHeight': False, 'trialN': 30, 'loaded': True, 'loadedTime': 5196.5999999940395, 'positionName': 'LEFT', 'positionCoords': [245.68, 179.5], 'bid': 0.84}, {'imgObject': {}, 'id': 'bagel plain', 'src': '/static/foodstim60/bagel plain.jpg', 'key': 'i', 'origWidth': 410, 'origHeight': 410, 'width': 410, 'height': 410, 'widthPercent': 0.45, 'rescaleHeight': False, 'trialN': 30, 'loaded': True, 'loadedTime': 5759, 'positionName': 'RIGHT', 'positionCoords': [710.32, 179], 'bid': 3.75}]",62758.29999999702,1669835360233,chicken nuggets2,bagel plain,0.84,3.75,2.91,bagel plain,1292.6000000089407,1294,1293.7999999970198,True,i,64561.40000000596,1803.1000000089407,1669835362036,1803,HRV,HRV_0244,2022-11-30 19:13:55
31,"[{'imgObject': {}, 'id': 'hotdog w must', 'src': '/static/foodstim60/hotdog w must.jpg', 'key': 'u', 'origWidth': 409, 'origHeight': 409, 'width': 409, 'height': 409, 'widthPercent': 0.45, 'rescaleHeight': False, 'trialN': 31, 'loaded': True, 'loadedTime': 5754.0999999940395, 'positionName': 'LEFT', 'positionCoords': [246.68, 179.5], 'bid': 3.19}, {'imgObject': {}, 'id': 'lox', 'src': '/static/foodstim60/lox.jpg', 'key': 'i', 'origWidth': 410, 'origHeight': 411, 'width': 410, 'height': 411, 'widthPercent': 0.45, 'rescaleHeight': False, 'trialN': 31, 'loaded': True, 'loadedTime': 6834.4000000059605, 'positionName': 'RIGHT', 'positionCoords': [710.32, 178.5], 'bid': 2.56}]",64563.40000000596,1669835362038,hotdog w must,lox,3.19,2.56,-0.6299999999999999,hotdog w must,1623.8999999910593,1627,1627.5,True,u,66697.09999999404,2133.699999988079,1669835364172,2134,HRV,HRV_0244,2022-11-30 19:13:55
32,"[{'imgObject': {}, 'id': 'popsicles', 'src': '/static/foodstim60/popsicles.jpg', 'key': 'u', 'origWidth': 410, 'origHeight': 410, 'width': 410, 'height': 410, 'widthPercent': 0.45, 'rescaleHeight': False, 'trialN': 32, 'loaded': True, 'loadedTime': 6199.9000000059605, 'positionName': 'LEFT', 'positionCoords': [245.68, 179], 'bid': 0.22}, {'imgObject': {}, 'id': 'mac & cheese', 'src': '/static/foodstim60/mac & cheese.jpg', 'key': 'i', 'origWidth': 410, 'origHeight': 410, 'width': 410, 'height': 410, 'widthPercent': 0.45, 'rescaleHeight': False, 'trialN': 32, 'loaded': True, 'loadedTime': 7765.5, 'positionName': 'RIGHT', 'positionCoords': [710.32, 179], 'bid': 2.21}]",66698.79999999702,1669835364173,popsicles,mac & cheese,0.22,2.21,1.99,mac & cheese,952.7000000029802,955,955.0,True,i,68169.70000000298,1470.9000000059605,1669835365644,1471,HRV,HRV_0244,2022-11-30 19:13:55
33,"[{'imgObject': {}, 'id': 'bagel and cc', 'src': '/static/foodstim60/bagel and cc.jpg', 'key': 'u', 'origWidth': 410, 'origHeight': 410, 'width': 410, 'height': 410, 'widthPercent': 0.45, 'rescaleHeight': False, 'trialN': 33, 'loaded': True, 'loadedTime': 8610.5, 'positionName': 'LEFT', 'positionCoords': [245.68, 179], 'bid': 5.0200000000000005}, {'imgObject': {}, 'id': 'chickenfingers', 'src': '/static/foodstim60/chickenfingers.jpg', 'key': 'i', 'origWidth': 410, 'origHeight': 410, 'width': 410, 'height': 410, 'widthPercent': 0.45, 'rescaleHeight': False, 'trialN': 33, 'loaded': True, 'loadedTime': 7108.0999999940395, 'positionName': 'RIGHT', 'positionCoords': [710.32, 179], 'bid': 4.88}]",68169.90000000596,1669835365644,bagel and cc,chickenfingers,5.0200000000000005,4.88,-0.14000000000000057,chickenfingers,1591.7999999970198,1595,1595.0,True,i,70275.09999999404,2105.199999988079,1669835367750,2106,HRV,HRV_0244,2022-11-30 19:13:55
34,"[{'imgObject': {}, 'id': 'shreddedwheatwithmilk', 'src': '/static/foodstim60/shreddedwheatwithmilk.jpg', 'key': 'u', 'origWidth': 410, 'origHeight': 410, 'width': 410, 'height': 410, 'widthPercent': 0.45, 'rescaleHeight': False, 'trialN': 34, 'loaded': True, 'loadedTime': 7621.79999999702, 'positionName': 'LEFT', 'positionCoords': [245.68, 179], 'bid': 2.08}, {'imgObject': {}, 'id': 'avocado', 'src': '/static/foodstim60/avocado.jpg', 'key': 'i', 'origWidth': 409, 'origHeight': 409, 'width': 409, 'height': 409, 'widthPercent': 0.45, 'rescaleHeight': False, 'trialN': 34, 'loaded': True, 'loadedTime': 8621, 'positionName': 'RIGHT', 'positionCoords': [710.32, 179.5], 'bid': 1.42}]",70276.90000000596,1669835367751,shreddedwheatwithmilk,avocado,2.08,1.42,-0.6600000000000001,shreddedwheatwithmilk,1244.699999988079,1251,1250.7999999970198,True,u,72042.5,1765.5999999940395,1669835369517,1766,HRV,HRV_0244,2022-11-30 19:13:55
35,"[{'imgObject': {}, 'id': 'Grapes', 'src': '/static/foodstim60/Grapes.jpg', 'key': 'u', 'origWidth': 411, 'origHeight': 411, 'width': 411, 'height': 411, 'widthPercent': 0.45, 'rescaleHeight': False, 'trialN': 35, 'loaded': True, 'loadedTime': 5554.79999999702, 'positionName': 'LEFT', 'positionCoords': [244.68, 178.5], 'bid': 7.86}, {'imgObject': {}, 'id': 'cocktailshrimp', 'src': '/static/foodstim60/cocktailshrimp.jpg', 'key': 'i', 'origWidth': 410, 'origHeight': 410, 'width': 410, 'height': 410, 'widthPercent': 0.45, 'rescaleHeight': False, 'trialN': 35, 'loaded': True, 'loadedTime': 8621.59999999404, 'positionName': 'RIGHT', 'positionCoords': [710.32, 179], 'bid': 7}]",72042.79999999702,1669835369517,Grapes,cocktailshrimp,7.86,7.0,-0.8600000000000003,cocktailshrimp,1315.7000000029802,1320,1319.4000000059605,True,i,73883.90000000596,1841.1000000089407,1669835371358,1841,HRV,HRV_0244,2022-11-30 19:13:55
36,"[{'imgObject': {}, 'id': 'eggs', 'src': '/static/foodstim60/eggs.jpg', 'key': 'u', 'origWidth': 409, 'origHeight': 409, 'width': 409, 'height': 409, 'widthPercent': 0.45, 'rescaleHeight': False, 'trialN': 36, 'loaded': True, 'loadedTime': 7386.29999999702, 'positionName': 'LEFT', 'positionCoords': [246.68, 179.5], 'bid': 2.21}, {'imgObject': {}, 'id': 'kiwi', 'src': '/static/foodstim60/kiwi.jpg', 'key': 'i', 'origWidth': 410, 'origHeight': 410, 'width': 410, 'height': 410, 'widthPercent': 0.45, 'rescaleHeight': False, 'trialN': 36, 'loaded': True, 'loadedTime': 8737, 'positionName': 'RIGHT', 'positionCoords': [710.32, 179], 'bid': 3.6}]",73885.70000000298,1669835371360,eggs,kiwi,2.21,3.6,1.3900000000000001,kiwi,1113.8999999910593,1117,1117.2999999970198,True,i,75518.5,1632.7999999970198,1669835372993,1633,HRV,HRV_0244,2022-11-30 19:13:55
37,"[{'imgObject': {}, 'id': 'ice cream sundae 002', 'src': '/static/foodstim60/ice cream sundae 002.jpg', 'key': 'u', 'origWidth': 409, 'origHeight': 409, 'width': 409, 'height': 409, 'widthPercent': 0.45, 'rescaleHeight': False, 'trialN': 37, 'loaded': True, 'loadedTime': 8763.5, 'positionName': 'LEFT', 'positionCoords': [246.68, 179.5], 'bid': 4.04}, {'imgObject': {}, 'id': 'granola w milk', 'src': '/static/foodstim60/granola w milk.jpg', 'key': 'i', 'origWidth': 410, 'origHeight': 410, 'width': 410, 'height': 410, 'widthPercent': 0.45, 'rescaleHeight': False, 'trialN': 37, 'loaded': True, 'loadedTime': 6812.20000000298, 'positionName': 'RIGHT', 'positionCoords': [710.32, 179], 'bid': 1.09}]",75520.70000000298,1669835372995,ice cream sundae 002,granola w milk,4.04,1.09,-2.95,ice cream sundae 002,1409.0,1413,1412.2999999970198,True,u,77441.29999999702,1920.5999999940395,1669835374916,1921,HRV,HRV_0244,2022-11-30 19:13:55
38,"[{'imgObject': {}, 'id': 'eggs', 'src': '/static/foodstim60/eggs.jpg', 'key': 'u', 'origWidth': 409, 'origHeight': 409, 'width': 409, 'height': 409, 'widthPercent': 0.45, 'rescaleHeight': False, 'trialN': 38, 'loaded': True, 'loadedTime': 7376.5999999940395, 'positionName': 'LEFT', 'positionCoords': [246.68, 179.5], 'bid': 2.21}, {'imgObject': {}, 'id': 'edamame', 'src': '/static/foodstim60/edamame.jpg', 'key': 'i', 'origWidth': 409, 'origHeight': 410, 'width': 409, 'height': 410, 'widthPercent': 0.45, 'rescaleHeight': False, 'trialN': 38, 'loaded': True, 'loadedTime': 6429.4000000059605, 'positionName': 'RIGHT', 'positionCoords': [710.32, 179], 'bid': 0.27}]",77442.09999999404,1669835374917,eggs,edamame,2.21,0.27,-1.94,eggs,1317.300000011921,1319,1319.6000000089407,True,u,79269.59999999404,1827.5,1669835376744,1827,HRV,HRV_0244,2022-11-30 19:13:55
39,"[{'imgObject': {}, 'id': 'banana', 'src': '/static/foodstim60/banana.jpg', 'key': 'u', 'origWidth': 410, 'origHeight': 410, 'width': 410, 'height': 410, 'widthPercent': 0.45, 'rescaleHeight': False, 'trialN': 39, 'loaded': True, 'loadedTime': 8252.90000000596, 'positionName': 'LEFT', 'positionCoords': [245.68, 179], 'bid': 4.2}, {'imgObject': {}, 'id': 'pear', 'src': '/static/foodstim60/pear.jpg', 'key': 'i', 'origWidth': 411, 'origHeight': 410, 'width': 411, 'height': 410, 'widthPercent': 0.45, 'rescaleHeight': False, 'trialN': 39, 'loaded': True, 'loadedTime': 7185.5999999940395, 'positionName': 'RIGHT', 'positionCoords': [710.32, 179], 'bid': 3.78}]",79271.40000000596,1669835376746,banana,pear,4.2,3.78,-0.4200000000000004,banana,1592.2999999970198,1596,1596.3999999910593,True,u,81376.0,2104.5999999940395,1669835378850,2104,HRV,HRV_0244,2022-11-30 19:13:55
40,"[{'imgObject': {}, 'id': 'rigatoni and sauce', 'src': '/static/foodstim60/rigatoni and sauce.jpg', 'key': 'u', 'origWidth': 410, 'origHeight': 411, 'width': 410, 'height': 411, 'widthPercent': 0.45, 'rescaleHeight': False, 'trialN': 40, 'loaded': True, 'loadedTime': 8780, 'positionName': 'LEFT', 'positionCoords': [245.68, 178.5], 'bid': 6.74}, {'imgObject': {}, 'id': 'burger', 'src': '/static/foodstim60/burger.jpg', 'key': 'i', 'origWidth': 409, 'origHeight': 409, 'width': 409, 'height': 409, 'widthPercent': 0.45, 'rescaleHeight': False, 'trialN': 40, 'loaded': True, 'loadedTime': 8444.5, 'positionName': 'RIGHT', 'positionCoords': [710.32, 179.5], 'bid': 6.8}]",81377.90000000596,1669835378852,rigatoni and sauce,burger,6.74,6.8,0.05999999999999961,rigatoni and sauce,1721.8999999910593,1726,1726.0,True,u,83615.0,2237.0999999940395,1669835381089,2237,HRV,HRV_0244,2022-11-30 19:13:55
41,"[{'imgObject': {}, 'id': 'sweetpotato', 'src': '/static/foodstim60/sweetpotato.jpg', 'key': 'u', 'origWidth': 410, 'origHeight': 410, 'width': 410, 'height': 410, 'widthPercent': 0.45, 'rescaleHeight': False, 'trialN': 41, 'loaded': True, 'loadedTime': 8291.90000000596, 'positionName': 'LEFT', 'positionCoords': [245.68, 179], 'bid': 0.92}, {'imgObject': {}, 'id': 'cantaloupe', 'src': '/static/foodstim60/cantaloupe.jpg', 'key': 'i', 'origWidth': 409, 'origHeight': 409, 'width': 409, 'height': 409, 'widthPercent': 0.45, 'rescaleHeight': False, 'trialN': 41, 'loaded': True, 'loadedTime': 8798.09999999404, 'positionName': 'RIGHT', 'positionCoords': [710.32, 179.5], 'bid': 0}]",83615.29999999702,1669835381090,sweetpotato,cantaloupe,0.92,0.0,-0.92,cantaloupe,1017.1000000089407,1021,1021.2999999970198,True,i,85146.0,1530.7000000029802,1669835382620,1530,HRV,HRV_0244,2022-11-30 19:13:55
42,"[{'imgObject': {}, 'id': 'orange slices', 'src': '/static/foodstim60/orange slices.jpg', 'key': 'u', 'origWidth': 409, 'origHeight': 410, 'width': 409, 'height': 410, 'widthPercent': 0.45, 'rescaleHeight': False, 'trialN': 42, 'loaded': True, 'loadedTime': 8240.79999999702, 'positionName': 'LEFT', 'positionCoords': [246.68, 179], 'bid': 4.8}, {'imgObject': {}, 'id': 'omelette', 'src': '/static/foodstim60/omelette.jpg', 'key': 'i', 'origWidth': 410, 'origHeight': 409, 'width': 410, 'height': 409, 'widthPercent': 0.45, 'rescaleHeight': False, 'trialN': 42, 'loaded': True, 'loadedTime': 7787.29999999702, 'positionName': 'RIGHT', 'positionCoords': [710.32, 179.5], 'bid': 5.0200000000000005}]",85147.79999999702,1669835382622,orange slices,omelette,4.8,5.0200000000000005,0.22000000000000064,orange slices,1705.6000000089407,1710,1709.7999999970198,True,u,87367.0,2219.2000000029802,1669835384841,2219,HRV,HRV_0244,2022-11-30 19:13:55
43,"[{'imgObject': {}, 'id': 'seaweed', 'src': '/static/foodstim60/seaweed.jpg', 'key': 'u', 'origWidth': 410, 'origHeight': 410, 'width': 410, 'height': 410, 'widthPercent': 0.45, 'rescaleHeight': False, 'trialN': 43, 'loaded': True, 'loadedTime': 6970.4000000059605, 'positionName': 'LEFT', 'positionCoords': [245.68, 179], 'bid': 0.03}, {'imgObject': {}, 'id': 'shreddedwheatwithmilk', 'src': '/static/foodstim60/shreddedwheatwithmilk.jpg', 'key': 'i', 'origWidth': 410, 'origHeight': 410, 'width': 410, 'height': 410, 'widthPercent': 0.45, 'rescaleHeight': False, 'trialN': 43, 'loaded': True, 'loadedTime': 7616.70000000298, 'positionName': 'RIGHT', 'positionCoords': [710.32, 179], 'bid': 2.08}]",87367.70000000298,1669835384842,seaweed,shreddedwheatwithmilk,0.03,2.08,2.0500000000000003,shreddedwheatwithmilk,1167.7000000029802,1173,1172.5,True,i,89058.40000000596,1690.7000000029802,1669835386533,1691,HRV,HRV_0244,2022-11-30 19:13:55
44,"[{'imgObject': {}, 'id': 'raspberries', 'src': '/static/foodstim60/raspberries.jpg', 'key': 'u', 'origWidth': 411, 'origHeight': 411, 'width': 411, 'height': 411, 'widthPercent': 0.45, 'rescaleHeight': False, 'trialN': 44, 'loaded': True, 'loadedTime': 8809.90000000596, 'positionName': 'LEFT', 'positionCoords': [244.68, 178.5], 'bid': 5.96}, {'imgObject': {}, 'id': 'blueberries', 'src': '/static/foodstim60/blueberries.jpg', 'key': 'i', 'origWidth': 411, 'origHeight': 411, 'width': 411, 'height': 411, 'widthPercent': 0.45, 'rescaleHeight': False, 'trialN': 44, 'loaded': True, 'loadedTime': 7976, 'positionName': 'RIGHT', 'positionCoords': [710.32, 178.5], 'bid': 1.57}]",89059.20000000298,1669835386534,raspberries,blueberries,5.96,1.57,-4.39,raspberries,1060.2000000029802,1061,1061.7999999970198,True,u,90629.40000000596,1570.2000000029802,1669835388104,1570,HRV,HRV_0244,2022-11-30 19:13:55
45,"[{'imgObject': {}, 'id': 'rigatoni', 'src': '/static/foodstim60/rigatoni.jpg', 'key': 'u', 'origWidth': 411, 'origHeight': 411, 'width': 411, 'height': 411, 'widthPercent': 0.45, 'rescaleHeight': False, 'trialN': 45, 'loaded': True, 'loadedTime': 5882.5, 'positionName': 'LEFT', 'positionCoords': [244.68, 178.5], 'bid': 2.29}, {'imgObject': {}, 'id': 'cheerios', 'src': '/static/foodstim60/cheerios.jpg', 'key': 'i', 'origWidth': 409, 'origHeight': 410, 'width': 409, 'height': 410, 'widthPercent': 0.45, 'rescaleHeight': False, 'trialN': 45, 'loaded': True, 'loadedTime': 8903.5, 'positionName': 'RIGHT', 'positionCoords': [710.32, 179], 'bid': 6.49}]",90630.70000000298,1669835388105,rigatoni,cheerios,2.29,6.49,4.2,cheerios,1036.2000000029802,1038,1037.5,True,i,92180.90000000596,1550.2000000029802,1669835389655,1550,HRV,HRV_0244,2022-11-30 19:13:55
46,"[{'imgObject': {}, 'id': 'rigatoni and sauce', 'src': '/static/foodstim60/rigatoni and sauce.jpg', 'key': 'u', 'origWidth': 410, 'origHeight': 411, 'width': 410, 'height': 411, 'widthPercent': 0.45, 'rescaleHeight': False, 'trialN': 46, 'loaded': True, 'loadedTime': 8783.59999999404, 'positionName': 'LEFT', 'positionCoords': [245.68, 178.5], 'bid': 6.74}, {'imgObject': {}, 'id': 'veggieswithdip', 'src': '/static/foodstim60/veggieswithdip.jpg', 'key': 'i', 'origWidth': 409, 'origHeight': 409, 'width': 409, 'height': 409, 'widthPercent': 0.45, 'rescaleHeight': False, 'trialN': 46, 'loaded': True, 'loadedTime': 8914.79999999702, 'positionName': 'RIGHT', 'positionCoords': [710.32, 179.5], 'bid': 7.32}]",92181.5,1669835389656,rigatoni and sauce,veggieswithdip,6.74,7.32,0.5800000000000001,veggieswithdip,1043.7999999970198,1047,1047.2000000029802,True,i,93736.90000000596,1555.4000000059605,1669835391211,1555,HRV,HRV_0244,2022-11-30 19:13:55
47,"[{'imgObject': {}, 'id': 'veggieswithdip', 'src': '/static/foodstim60/veggieswithdip.jpg', 'key': 'u', 'origWidth': 409, 'origHeight': 409, 'width': 409, 'height': 409, 'widthPercent': 0.45, 'rescaleHeight': False, 'trialN': 47, 'loaded': True, 'loadedTime': 8913, 'positionName': 'LEFT', 'positionCoords': [246.68, 179.5], 'bid': 7.32}, {'imgObject': {}, 'id': 'cheerios', 'src': '/static/foodstim60/cheerios.jpg', 'key': 'i', 'origWidth': 409, 'origHeight': 410, 'width': 409, 'height': 410, 'widthPercent': 0.45, 'rescaleHeight': False, 'trialN': 47, 'loaded': True, 'loadedTime': 8902.40000000596, 'positionName': 'RIGHT', 'positionCoords': [710.32, 179], 'bid': 6.49}]",93738.5,1669835391213,veggieswithdip,cheerios,7.32,6.49,-0.8300000000000001,veggieswithdip,1459.0999999940395,1464,1463.7999999970198,True,u,95711.20000000298,1972.7000000029802,1669835393186,1973,HRV,HRV_0244,2022-11-30 19:13:55
48,"[{'imgObject': {}, 'id': 'kiwi', 'src': '/static/foodstim60/kiwi.jpg', 'key': 'u', 'origWidth': 410, 'origHeight': 410, 'width': 410, 'height': 410, 'widthPercent': 0.45, 'rescaleHeight': False, 'trialN': 48, 'loaded': True, 'loadedTime': 8732.5, 'positionName': 'LEFT', 'positionCoords': [245.68, 179], 'bid': 3.6}, {'imgObject': {}, 'id': 'avocado', 'src': '/static/foodstim60/avocado.jpg', 'key': 'i', 'origWidth': 409, 'origHeight': 409, 'width': 409, 'height': 409, 'widthPercent': 0.45, 'rescaleHeight': False, 'trialN': 48, 'loaded': True, 'loadedTime': 8617.70000000298, 'positionName': 'RIGHT', 'positionCoords': [710.32, 179.5], 'bid': 1.42}]",95712.79999999702,1669835393187,kiwi,avocado,3.6,1.42,-2.18,kiwi,1051.4000000059605,1061,1060.7000000029802,True,u,97278.0,1565.2000000029802,1669835394752,1565,HRV,HRV_0244,2022-11-30 19:13:55
49,"[{'imgObject': {}, 'id': 'rigatoni and sauce', 'src': '/static/foodstim60/rigatoni and sauce.jpg', 'key': 'u', 'origWidth': 410, 'origHeight': 411, 'width': 410, 'height': 411, 'widthPercent': 0.45, 'rescaleHeight': False, 'trialN': 49, 'loaded': True, 'loadedTime': 8782.20000000298, 'positionName': 'LEFT', 'positionCoords': [245.68, 178.5], 'bid': 6.74}, {'imgObject': {}, 'id': 'tacos', 'src': '/static/foodstim60/tacos.jpg', 'key': 'i', 'origWidth': 411, 'origHeight': 411, 'width': 411, 'height': 411, 'widthPercent': 0.45, 'rescaleHeight': False, 'trialN': 49, 'loaded': True, 'loadedTime': 8915.40000000596, 'positionName': 'RIGHT', 'positionCoords': [710.32, 178.5], 'bid': 9.96}]",97279.79999999702,1669835394754,rigatoni and sauce,tacos,6.74,9.96,3.2200000000000006,tacos,911.4000000059605,913,912.9000000059605,True,i,98697.90000000596,1418.1000000089407,1669835396172,1418,HRV,HRV_0244,2022-11-30 19:13:55
50,"[{'imgObject': {}, 'id': 'salad w chicken', 'src': '/static/foodstim60/salad w chicken.jpg', 'key': 'u', 'origWidth': 411, 'origHeight': 411, 'width': 411, 'height': 411, 'widthPercent': 0.45, 'rescaleHeight': False, 'trialN': 50, 'loaded': True, 'loadedTime': 8496.09999999404, 'positionName': 'LEFT', 'positionCoords': [244.68, 178.5], 'bid': 7}, {'imgObject': {}, 'id': 'salmon', 'src': '/static/foodstim60/salmon.jpg', 'key': 'i', 'origWidth': 410, 'origHeight': 409, 'width': 410, 'height': 409, 'widthPercent': 0.45, 'rescaleHeight': False, 'trialN': 50, 'loaded': True, 'loadedTime': 5631.5, 'positionName': 'RIGHT', 'positionCoords': [710.32, 179.5], 'bid': 8.13}]",98698.79999999702,1669835396173,salad w chicken,salmon,7.0,8.13,1.1300000000000008,salad w chicken,1762.6000000089407,1764,1763.7999999970198,True,u,100971.90000000596,2273.1000000089407,1669835398446,2273,HRV,HRV_0244,2022-11-30 19:13:55
51,"[{'imgObject': {}, 'id': 'ice cream sundae 002', 'src': '/static/foodstim60/ice cream sundae 002.jpg', 'key': 'u', 'origWidth': 409, 'origHeight': 409, 'width': 409, 'height': 409, 'widthPercent': 0.45, 'rescaleHeight': False, 'trialN': 51, 'loaded': True, 'loadedTime': 8764.90000000596, 'positionName': 'LEFT', 'positionCoords': [246.68, 179.5], 'bid': 4.04}, {'imgObject': {}, 'id': 'banana', 'src': '/static/foodstim60/banana.jpg', 'key': 'i', 'origWidth': 410, 'origHeight': 410, 'width': 410, 'height': 410, 'widthPercent': 0.45, 'rescaleHeight': False, 'trialN': 51, 'loaded': True, 'loadedTime': 8265.40000000596, 'positionName': 'RIGHT', 'positionCoords': [710.32, 179], 'bid': 4.2}]",100973.90000000596,1669835398448,ice cream sundae 002,banana,4.04,4.2,0.16000000000000014,ice cream sundae 002,1251.8999999910593,1254,1253.7999999970198,True,u,102746.09999999404,1772.199999988079,1669835400220,1772,HRV,HRV_0244,2022-11-30 19:13:55
52,"[{'imgObject': {}, 'id': 'veggieswithdip', 'src': '/static/foodstim60/veggieswithdip.jpg', 'key': 'u', 'origWidth': 409, 'origHeight': 409, 'width': 409, 'height': 409, 'widthPercent': 0.45, 'rescaleHeight': False, 'trialN': 52, 'loaded': True, 'loadedTime': 8905.29999999702, 'positionName': 'LEFT', 'positionCoords': [246.68, 179.5], 'bid': 7.32}, {'imgObject': {}, 'id': 'corn cob', 'src': '/static/foodstim60/corn cob.jpg', 'key': 'i', 'origWidth': 411, 'origHeight': 411, 'width': 411, 'height': 411, 'widthPercent': 0.45, 'rescaleHeight': False, 'trialN': 52, 'loaded': True, 'loadedTime': 6312.5999999940395, 'positionName': 'RIGHT', 'positionCoords': [710.32, 178.5], 'bid': 7.19}]",102747.0,1669835400221,veggieswithdip,corn cob,7.32,7.19,-0.1299999999999999,veggieswithdip,1271.7999999970198,1275,1274.9000000059605,True,u,104534.20000000298,1787.2000000029802,1669835402009,1788,HRV,HRV_0244,2022-11-30 19:13:55
53,"[{'imgObject': {}, 'id': 'raisin bran w milk', 'src': '/static/foodstim60/raisin bran w milk.jpg', 'key': 'u', 'origWidth': 411, 'origHeight': 411, 'width': 411, 'height': 411, 'widthPercent': 0.45, 'rescaleHeight': False, 'trialN': 53, 'loaded': True, 'loadedTime': 6583.29999999702, 'positionName': 'LEFT', 'positionCoords': [244.68, 178.5], 'bid': 6.44}, {'imgObject': {}, 'id': 'olives', 'src': '/static/foodstim60/olives.jpg', 'key': 'i', 'origWidth': 410, 'origHeight': 410, 'width': 410, 'height': 410, 'widthPercent': 0.45, 'rescaleHeight': False, 'trialN': 53, 'loaded': True, 'loadedTime': 6087.79999999702, 'positionName': 'RIGHT', 'positionCoords': [710.32, 179], 'bid': 7.24}]",104535.79999999702,1669835402010,raisin bran w milk,olives,6.44,7.24,0.7999999999999998,olives,941.6000000089407,946,945.0,True,i,105997.5,1461.7000000029802,1669835403472,1462,HRV,HRV_0244,2022-11-30 19:13:55
54,"[{'imgObject': {}, 'id': 'burger', 'src': '/static/foodstim60/burger.jpg', 'key': 'u', 'origWidth': 409, 'origHeight': 409, 'width': 409, 'height': 409, 'widthPercent': 0.45, 'rescaleHeight': False, 'trialN': 54, 'loaded': True, 'loadedTime': 8448.59999999404, 'positionName': 'LEFT', 'positionCoords': [246.68, 179.5], 'bid': 6.8}, {'imgObject': {}, 'id': 'steak', 'src': '/static/foodstim60/steak.jpg', 'key': 'i', 'origWidth': 410, 'origHeight': 410, 'width': 410, 'height': 410, 'widthPercent': 0.45, 'rescaleHeight': False, 'trialN': 54, 'loaded': True, 'loadedTime': 8921.20000000298, 'positionName': 'RIGHT', 'positionCoords': [710.32, 179], 'bid': 10}]",105999.09999999404,1669835403473,burger,steak,6.8,10.0,3.2,steak,797.5,801,800.9000000059605,True,i,107319.09999999404,1320.0,1669835404794,1321,HRV,HRV_0244,2022-11-30 19:13:55
55,"[{'imgObject': {}, 'id': 'fried eggs', 'src': '/static/foodstim60/fried eggs.jpg', 'key': 'u', 'origWidth': 410, 'origHeight': 410, 'width': 410, 'height': 410, 'widthPercent': 0.45, 'rescaleHeight': False, 'trialN': 55, 'loaded': True, 'loadedTime': 7776.0999999940395, 'positionName': 'LEFT', 'positionCoords': [245.68, 179], 'bid': 4.89}, {'imgObject': {}, 'id': 'chickenfingers', 'src': '/static/foodstim60/chickenfingers.jpg', 'key': 'i', 'origWidth': 410, 'origHeight': 410, 'width': 410, 'height': 410, 'widthPercent': 0.45, 'rescaleHeight': False, 'trialN': 55, 'loaded': True, 'loadedTime': 7099.70000000298, 'positionName': 'RIGHT', 'positionCoords': [710.32, 179], 'bid': 4.88}]",107322.0,1669835404796,fried eggs,chickenfingers,4.89,4.88,-0.009999999999999787,chickenfingers,1553.2999999970198,1556,1555.2000000029802,True,i,109394.29999999702,2072.2999999970198,1669835406869,2073,HRV,HRV_0244,2022-11-30 19:13:55
56,"[{'imgObject': {}, 'id': 'blueberries', 'src': '/static/foodstim60/blueberries.jpg', 'key': 'u', 'origWidth': 411, 'origHeight': 411, 'width': 411, 'height': 411, 'widthPercent': 0.45, 'rescaleHeight': False, 'trialN': 56, 'loaded': True, 'loadedTime': 7975.4000000059605, 'positionName': 'LEFT', 'positionCoords': [244.68, 178.5], 'bid': 1.57}, {'imgObject': {}, 'id': 'shreddedwheatwithmilk', 'src': '/static/foodstim60/shreddedwheatwithmilk.jpg', 'key': 'i', 'origWidth': 410, 'origHeight': 410, 'width': 410, 'height': 410, 'widthPercent': 0.45, 'rescaleHeight': False, 'trialN': 56, 'loaded': True, 'loadedTime': 7618, 'positionName': 'RIGHT', 'positionCoords': [710.32, 179], 'bid': 2.08}]",109394.59999999404,1669835406869,blueberries,shreddedwheatwithmilk,1.57,2.08,0.51,shreddedwheatwithmilk,1157.800000011921,1161,1161.2000000029802,True,i,111070.09999999404,1675.5,1669835408545,1676,HRV,HRV_0244,2022-11-30 19:13:55
57,"[{'imgObject': {}, 'id': 'chickenfingers', 'src': '/static/foodstim60/chickenfingers.jpg', 'key': 'u', 'origWidth': 410, 'origHeight': 410, 'width': 410, 'height': 410, 'widthPercent': 0.45, 'rescaleHeight': False, 'trialN': 57, 'loaded': True, 'loadedTime': 7103.5999999940395, 'positionName': 'LEFT', 'positionCoords': [245.68, 179], 'bid': 4.88}, {'imgObject': {}, 'id': 'shreddedwheatwithmilk', 'src': '/static/foodstim60/shreddedwheatwithmilk.jpg', 'key': 'i', 'origWidth': 410, 'origHeight': 410, 'width': 410, 'height': 410, 'widthPercent': 0.45, 'rescaleHeight': False, 'trialN': 57, 'loaded': True, 'loadedTime': 7619, 'positionName': 'RIGHT', 'positionCoords': [710.32, 179], 'bid': 2.08}]",111070.5,1669835408545,chickenfingers,shreddedwheatwithmilk,4.88,2.08,-2.8,chickenfingers,836.7999999970198,842,841.9000000059605,True,u,112432.70000000298,1362.2000000029802,1669835409907,1362,HRV,HRV_0244,2022-11-30 19:13:55
58,"[{'imgObject': {}, 'id': 'Tribe humus pita', 'src': '/static/foodstim60/Tribe humus pita.jpg', 'key': 'u', 'origWidth': 411, 'origHeight': 411, 'width': 411, 'height': 411, 'widthPercent': 0.45, 'rescaleHeight': False, 'trialN': 58, 'loaded': True, 'loadedTime': 8934.59999999404, 'positionName': 'LEFT', 'positionCoords': [244.68, 178.5], 'bid': 6.55}, {'imgObject': {}, 'id': 'apple slices', 'src': '/static/foodstim60/apple slices.jpg', 'key': 'i', 'origWidth': 409, 'origHeight': 410, 'width': 409, 'height': 410, 'widthPercent': 0.45, 'rescaleHeight': False, 'trialN': 58, 'loaded': True, 'loadedTime': 5484.29999999702, 'positionName': 'RIGHT', 'positionCoords': [710.32, 179], 'bid': 5.87}]",112434.59999999404,1669835409909,Tribe humus pita,apple slices,6.55,5.87,-0.6799999999999997,Tribe humus pita,1366.9000000059605,1375,1375.0,True,u,114322.59999999404,1888.0,1669835411797,1888,HRV,HRV_0244,2022-11-30 19:13:55
59,"[{'imgObject': {}, 'id': 'raisin bran w milk', 'src': '/static/foodstim60/raisin bran w milk.jpg', 'key': 'u', 'origWidth': 411, 'origHeight': 411, 'width': 411, 'height': 411, 'widthPercent': 0.45, 'rescaleHeight': False, 'trialN': 59, 'loaded': True, 'loadedTime': 6584.5, 'positionName': 'LEFT', 'positionCoords': [244.68, 178.5], 'bid': 6.44}, {'imgObject': {}, 'id': 'mashed potato', 'src': '/static/foodstim60/mashed potato.jpg', 'key': 'i', 'origWidth': 409, 'origHeight': 409, 'width': 409, 'height': 409, 'widthPercent': 0.45, 'rescaleHeight': False, 'trialN': 59, 'loaded': True, 'loadedTime': 7441.0999999940395, 'positionName': 'RIGHT', 'positionCoords': [710.32, 179.5], 'bid': 5.45}]",114323.09999999404,1669835411798,raisin bran w milk,mashed potato,6.44,5.45,-0.9900000000000002,mashed potato,1301.9000000059605,1309,1307.1000000089407,True,i,116147.59999999404,1824.5,1669835413624,1826,HRV,HRV_0244,2022-11-30 19:13:55
60,"[{'imgObject': {}, 'id': 'luckycharms', 'src': '/static/foodstim60/luckycharms.jpg', 'key': 'u', 'origWidth': 410, 'origHeight': 409, 'width': 410, 'height': 409, 'widthPercent': 0.45, 'rescaleHeight': False, 'trialN': 60, 'loaded': True, 'loadedTime': 8944.20000000298, 'positionName': 'LEFT', 'positionCoords': [245.68, 179.5], 'bid': 5.01}, {'imgObject': {}, 'id': 'eggsalad', 'src': '/static/foodstim60/eggsalad.jpg', 'key': 'i', 'origWidth': 410, 'origHeight': 409, 'width': 410, 'height': 409, 'widthPercent': 0.45, 'rescaleHeight': False, 'trialN': 60, 'loaded': True, 'loadedTime': 6980.5999999940395, 'positionName': 'RIGHT', 'positionCoords': [710.32, 179.5], 'bid': 4.25}]",116148.20000000298,1669835413625,luckycharms,eggsalad,5.01,4.25,-0.7599999999999998,luckycharms,1334.5,1336,1336.0,True,u,118006.5,1858.2999999970198,1669835415483,1858,HRV,HRV_0244,2022-11-30 19:13:55
61,"[{'imgObject': {}, 'id': 'corn cob', 'src': '/static/foodstim60/corn cob.jpg', 'key': 'u', 'origWidth': 411, 'origHeight': 411, 'width': 411, 'height': 411, 'widthPercent': 0.45, 'rescaleHeight': False, 'trialN': 61, 'loaded': True, 'loadedTime': 6313.5, 'positionName': 'LEFT', 'positionCoords': [244.68, 178.5], 'bid': 7.19}, {'imgObject': {}, 'id': 'ice cream sundae 002', 'src': '/static/foodstim60/ice cream sundae 002.jpg', 'key': 'i', 'origWidth': 409, 'origHeight': 409, 'width': 409, 'height': 409, 'widthPercent': 0.45, 'rescaleHeight': False, 'trialN': 61, 'loaded': True, 'loadedTime': 8766, 'positionName': 'RIGHT', 'positionCoords': [710.32, 179.5], 'bid': 4.04}]",118006.79999999702,1669835415483,corn cob,ice cream sundae 002,7.19,4.04,-3.1500000000000004,ice cream sundae 002,1319.0,1324,1323.2999999970198,True,i,119835.90000000596,1829.1000000089407,1669835417312,1829,HRV,HRV_0244,2022-11-30 19:13:55
62,"[{'imgObject': {}, 'id': 'raspberries', 'src': '/static/foodstim60/raspberries.jpg', 'key': 'u', 'origWidth': 411, 'origHeight': 411, 'width': 411, 'height': 411, 'widthPercent': 0.45, 'rescaleHeight': False, 'trialN': 62, 'loaded': True, 'loadedTime': 8814.90000000596, 'positionName': 'LEFT', 'positionCoords': [244.68, 178.5], 'bid': 5.96}, {'imgObject': {}, 'id': 'cocktailshrimp', 'src': '/static/foodstim60/cocktailshrimp.jpg', 'key': 'i', 'origWidth': 410, 'origHeight': 410, 'width': 410, 'height': 410, 'widthPercent': 0.45, 'rescaleHeight': False, 'trialN': 62, 'loaded': True, 'loadedTime': 8628.20000000298, 'positionName': 'RIGHT', 'positionCoords': [710.32, 179], 'bid': 7}]",119836.5,1669835417313,raspberries,cocktailshrimp,5.96,7.0,1.04,cocktailshrimp,1399.4000000059605,1403,1403.2000000029802,True,i,121754.70000000298,1918.2000000029802,1669835419231,1918,HRV,HRV_0244,2022-11-30 19:13:55
63,"[{'imgObject': {}, 'id': 'raisin bran w milk', 'src': '/static/foodstim60/raisin bran w milk.jpg', 'key': 'u', 'origWidth': 411, 'origHeight': 411, 'width': 411, 'height': 411, 'widthPercent': 0.45, 'rescaleHeight': False, 'trialN': 63, 'loaded': True, 'loadedTime': 6589.5999999940395, 'positionName': 'LEFT', 'positionCoords': [244.68, 178.5], 'bid': 6.44}, {'imgObject': {}, 'id': 'yogurt no spoon', 'src': '/static/foodstim60/yogurt no spoon.jpg', 'key': 'i', 'origWidth': 411, 'origHeight': 410, 'width': 411, 'height': 410, 'widthPercent': 0.45, 'rescaleHeight': False, 'trialN': 63, 'loaded': True, 'loadedTime': 7710.20000000298, 'positionName': 'RIGHT', 'positionCoords': [710.32, 179], 'bid': 6.03}]",121756.90000000596,1669835419234,raisin bran w milk,yogurt no spoon,6.44,6.03,-0.41000000000000014,yogurt no spoon,1062.5999999940395,1067,1067.199999988079,True,i,123348.20000000298,1591.2999999970198,1669835420825,1591,HRV,HRV_0244,2022-11-30 19:13:55
64,"[{'imgObject': {}, 'id': 'eggsalad', 'src': '/static/foodstim60/eggsalad.jpg', 'key': 'u', 'origWidth': 410, 'origHeight': 409, 'width': 410, 'height': 409, 'widthPercent': 0.45, 'rescaleHeight': False, 'trialN': 64, 'loaded': True, 'loadedTime': 7092, 'positionName': 'LEFT', 'positionCoords': [245.68, 179.5], 'bid': 4.25}, {'imgObject': {}, 'id': 'fruitsalad', 'src': '/static/foodstim60/fruitsalad.jpg', 'key': 'i', 'origWidth': 410, 'origHeight': 410, 'width': 410, 'height': 410, 'widthPercent': 0.45, 'rescaleHeight': False, 'trialN': 64, 'loaded': True, 'loadedTime': 8945.79999999702, 'positionName': 'RIGHT', 'positionCoords': [710.32, 179], 'bid': 5.16}]",123348.90000000596,1669835420826,eggsalad,fruitsalad,4.25,5.16,0.9100000000000001,fruitsalad,1017.5999999940395,1018,1018.8999999910593,True,i,124886.29999999702,1537.3999999910593,1669835422363,1537,HRV,HRV_0244,2022-11-30 19:13:55
65,"[{'imgObject': {}, 'id': 'eggsalad', 'src': '/static/foodstim60/eggsalad.jpg', 'key': 'u', 'origWidth': 410, 'origHeight': 409, 'width': 410, 'height': 409, 'widthPercent': 0.45, 'rescaleHeight': False, 'trialN': 65, 'loaded': True, 'loadedTime': 6975.20000000298, 'positionName': 'LEFT', 'positionCoords': [245.68, 179.5], 'bid': 4.25}, {'imgObject': {}, 'id': 'veggieswithdip', 'src': '/static/foodstim60/veggieswithdip.jpg', 'key': 'i', 'origWidth': 409, 'origHeight': 409, 'width': 409, 'height': 409, 'widthPercent': 0.45, 'rescaleHeight': False, 'trialN': 65, 'loaded': True, 'loadedTime': 8913.90000000596, 'positionName': 'RIGHT', 'positionCoords': [710.32, 179.5], 'bid': 7.32}]",124889.59999999404,1669835422366,eggsalad,veggieswithdip,4.25,7.32,3.0700000000000003,veggieswithdip,1596.5,1598,1597.6000000089407,True,i,127005.09999999404,2115.5,1669835424482,2116,HRV,HRV_0244,2022-11-30 19:13:55
66,"[{'imgObject': {}, 'id': 'kiwi', 'src': '/static/foodstim60/kiwi.jpg', 'key': 'u', 'origWidth': 410, 'origHeight': 410, 'width': 410, 'height': 410, 'widthPercent': 0.45, 'rescaleHeight': False, 'trialN': 66, 'loaded': True, 'loadedTime': 8751, 'positionName': 'LEFT', 'positionCoords': [245.68, 179], 'bid': 3.6}, {'imgObject': {}, 'id': 'burger', 'src': '/static/foodstim60/burger.jpg', 'key': 'i', 'origWidth': 409, 'origHeight': 409, 'width': 409, 'height': 409, 'widthPercent': 0.45, 'rescaleHeight': False, 'trialN': 66, 'loaded': True, 'loadedTime': 8450.20000000298, 'positionName': 'RIGHT', 'positionCoords': [710.32, 179.5], 'bid': 6.8}]",127007.0,1669835424484,kiwi,burger,3.6,6.8,3.1999999999999997,burger,988.9000000059605,992,992.4000000059605,True,i,128543.0,1536.0,1669835426020,1536,HRV,HRV_0244,2022-11-30 19:13:55
67,"[{'imgObject': {}, 'id': 'roastedpotatoes', 'src': '/static/foodstim60/roastedpotatoes.jpg', 'key': 'u', 'origWidth': 409, 'origHeight': 410, 'width': 409, 'height': 410, 'widthPercent': 0.45, 'rescaleHeight': False, 'trialN': 67, 'loaded': True, 'loadedTime': 9040.40000000596, 'positionName': 'LEFT', 'positionCoords': [246.68, 179], 'bid': 6.72}, {'imgObject': {}, 'id': 'Tribe humus pita', 'src': '/static/foodstim60/Tribe humus pita.jpg', 'key': 'i', 'origWidth': 411, 'origHeight': 411, 'width': 411, 'height': 411, 'widthPercent': 0.45, 'rescaleHeight': False, 'trialN': 67, 'loaded': True, 'loadedTime': 8933.70000000298, 'positionName': 'RIGHT', 'positionCoords': [710.32, 178.5], 'bid': 6.55}]",128543.29999999702,1669835426020,roastedpotatoes,Tribe humus pita,6.72,6.55,-0.16999999999999993,roastedpotatoes,983.7999999970198,1006,1006.0,True,u,130060.29999999702,1517.0,1669835427537,1517,HRV,HRV_0244,2022-11-30 19:13:55
68,"[{'imgObject': {}, 'id': 'cheerios', 'src': '/static/foodstim60/cheerios.jpg', 'key': 'u', 'origWidth': 409, 'origHeight': 410, 'width': 409, 'height': 410, 'widthPercent': 0.45, 'rescaleHeight': False, 'trialN': 68, 'loaded': True, 'loadedTime': 8903.90000000596, 'positionName': 'LEFT', 'positionCoords': [246.68, 179], 'bid': 6.49}, {'imgObject': {}, 'id': 'blackbeanswithrice', 'src': '/static/foodstim60/blackbeanswithrice.jpg', 'key': 'i', 'origWidth': 410, 'origHeight': 410, 'width': 410, 'height': 410, 'widthPercent': 0.45, 'rescaleHeight': False, 'trialN': 68, 'loaded': True, 'loadedTime': 5338.29999999702, 'positionName': 'RIGHT', 'positionCoords': [710.32, 179], 'bid': 5.7700000000000005}]",130061.70000000298,1669835427538,cheerios,blackbeanswithrice,6.49,5.7700000000000005,-0.7199999999999998,cheerios,1470.0999999940395,1480,1479.7999999970198,True,u,132049.79999999702,1988.0999999940395,1669835429526,1988,HRV,HRV_0244,2022-11-30 19:13:55
69,"[{'imgObject': {}, 'id': 'bagel plain', 'src': '/static/foodstim60/bagel plain.jpg', 'key': 'u', 'origWidth': 410, 'origHeight': 410, 'width': 410, 'height': 410, 'widthPercent': 0.45, 'rescaleHeight': False, 'trialN': 69, 'loaded': True, 'loadedTime': 5869.9000000059605, 'positionName': 'LEFT', 'positionCoords': [245.68, 179], 'bid': 3.75}, {'imgObject': {}, 'id': 'ice cream sundae 002', 'src': '/static/foodstim60/ice cream sundae 002.jpg', 'key': 'i', 'origWidth': 409, 'origHeight': 409, 'width': 409, 'height': 409, 'widthPercent': 0.45, 'rescaleHeight': False, 'trialN': 69, 'loaded': True, 'loadedTime': 8760.09999999404, 'positionName': 'RIGHT', 'positionCoords': [710.32, 179.5], 'bid': 4.04}]",132050.09999999404,1669835429527,bagel plain,ice cream sundae 002,3.75,4.04,0.29000000000000004,ice cream sundae 002,1765.5,1769,1769.1000000089407,True,i,134325.59999999404,2275.5,1669835431802,2275,HRV,HRV_0244,2022-11-30 19:13:55
70,"[{'imgObject': {}, 'id': 'tacos', 'src': '/static/foodstim60/tacos.jpg', 'key': 'u', 'origWidth': 411, 'origHeight': 411, 'width': 411, 'height': 411, 'widthPercent': 0.45, 'rescaleHeight': False, 'trialN': 70, 'loaded': True, 'loadedTime': 8918.20000000298, 'positionName': 'LEFT', 'positionCoords': [244.68, 178.5], 'bid': 9.96}, {'imgObject': {}, 'id': 'raisin bran w milk', 'src': '/static/foodstim60/raisin bran w milk.jpg', 'key': 'i', 'origWidth': 411, 'origHeight': 411, 'width': 411, 'height': 411, 'widthPercent': 0.45, 'rescaleHeight': False, 'trialN': 70, 'loaded': True, 'loadedTime': 6588.9000000059605, 'positionName': 'RIGHT', 'positionCoords': [710.32, 178.5], 'bid': 6.44}]",134326.0,1669835431803,tacos,raisin bran w milk,9.96,6.44,-3.5200000000000005,tacos,825.2999999970198,835,835.0999999940395,True,u,135678.90000000596,1352.9000000059605,1669835433156,1353,HRV,HRV_0244,2022-11-30 19:13:55
71,"[{'imgObject': {}, 'id': 'tacos', 'src': '/static/foodstim60/tacos.jpg', 'key': 'u', 'origWidth': 411, 'origHeight': 411, 'width': 411, 'height': 411, 'widthPercent': 0.45, 'rescaleHeight': False, 'trialN': 71, 'loaded': True, 'loadedTime': 8918.70000000298, 'positionName': 'LEFT', 'positionCoords': [244.68, 178.5], 'bid': 9.96}, {'imgObject': {}, 'id': 'burrito', 'src': '/static/foodstim60/burrito.jpg', 'key': 'i', 'origWidth': 410, 'origHeight': 410, 'width': 410, 'height': 410, 'widthPercent': 0.45, 'rescaleHeight': False, 'trialN': 71, 'loaded': True, 'loadedTime': 7343, 'positionName': 'RIGHT', 'positionCoords': [710.32, 179], 'bid': 4.94}]",135679.59999999404,1669835433156,tacos,burrito,9.96,4.94,-5.0200000000000005,tacos,1031.7000000029802,1038,1038.2000000029802,True,u,137231.5,1551.9000000059605,1669835434708,1552,HRV,HRV_0244,2022-11-30 19:13:55
72,"[{'imgObject': {}, 'id': 'turkeysandwich', 'src': '/static/foodstim60/turkeysandwich.jpg', 'key': 'u', 'origWidth': 409, 'origHeight': 409, 'width': 409, 'height': 409, 'widthPercent': 0.45, 'rescaleHeight': False, 'trialN': 72, 'loaded': True, 'loadedTime': 9067.59999999404, 'positionName': 'LEFT', 'positionCoords': [246.68, 179.5], 'bid': 5.08}, {'imgObject': {}, 'id': 'turkey sandwich', 'src': '/static/foodstim60/turkey sandwich.jpg', 'key': 'i', 'origWidth': 409, 'origHeight': 409, 'width': 409, 'height': 409, 'widthPercent': 0.45, 'rescaleHeight': False, 'trialN': 72, 'loaded': True, 'loadedTime': 5302.9000000059605, 'positionName': 'RIGHT', 'positionCoords': [710.32, 179.5], 'bid': 5.26}]",137234.20000000298,1669835434711,turkeysandwich,turkey sandwich,5.08,5.26,0.17999999999999972,turkey sandwich,1023.3999999910593,1024,1024.5,True,i,138770.29999999702,1536.0999999940395,1669835436247,1536,HRV,HRV_0244,2022-11-30 19:13:55
73,"[{'imgObject': {}, 'id': 'yogurt no spoon', 'src': '/static/foodstim60/yogurt no spoon.jpg', 'key': 'u', 'origWidth': 411, 'origHeight': 410, 'width': 411, 'height': 410, 'widthPercent': 0.45, 'rescaleHeight': False, 'trialN': 73, 'loaded': True, 'loadedTime': 7630.70000000298, 'positionName': 'LEFT', 'positionCoords': [244.68, 179], 'bid': 6.03}, {'imgObject': {}, 'id': 'roastedpotatoes', 'src': '/static/foodstim60/roastedpotatoes.jpg', 'key': 'i', 'origWidth': 409, 'origHeight': 410, 'width': 409, 'height': 410, 'widthPercent': 0.45, 'rescaleHeight': False, 'trialN': 73, 'loaded': True, 'loadedTime': 9040.09999999404, 'positionName': 'RIGHT', 'positionCoords': [710.32, 179], 'bid': 6.72}]",138770.90000000596,1669835436248,yogurt no spoon,roastedpotatoes,6.03,6.72,0.6899999999999995,roastedpotatoes,1594.2999999970198,1595,1595.7999999970198,True,i,140887.0,2116.0999999940395,1669835438364,2116,HRV,HRV_0244,2022-11-30 19:13:55
74,"[{'imgObject': {}, 'id': 'cocktailshrimp', 'src': '/static/foodstim60/cocktailshrimp.jpg', 'key': 'u', 'origWidth': 410, 'origHeight': 410, 'width': 410, 'height': 410, 'widthPercent': 0.45, 'rescaleHeight': False, 'trialN': 74, 'loaded': True, 'loadedTime': 8722.20000000298, 'positionName': 'LEFT', 'positionCoords': [245.68, 179], 'bid': 7}, {'imgObject': {}, 'id': 'rigatoni and sauce', 'src': '/static/foodstim60/rigatoni and sauce.jpg', 'key': 'i', 'origWidth': 410, 'origHeight': 411, 'width': 410, 'height': 411, 'widthPercent': 0.45, 'rescaleHeight': False, 'trialN': 74, 'loaded': True, 'loadedTime': 8779.20000000298, 'positionName': 'RIGHT', 'positionCoords': [710.32, 178.5], 'bid': 6.74}]",140887.70000000298,1669835438364,cocktailshrimp,rigatoni and sauce,7.0,6.74,-0.2599999999999998,cocktailshrimp,1203.5999999940395,1209,1208.2000000029802,True,u,142607.90000000596,1720.2000000029802,1669835440085,1721,HRV,HRV_0244,2022-11-30 19:13:55
75,"[{'imgObject': {}, 'id': 'cherries', 'src': '/static/foodstim60/cherries.jpg', 'key': 'u', 'origWidth': 410, 'origHeight': 411, 'width': 410, 'height': 411, 'widthPercent': 0.45, 'rescaleHeight': False, 'trialN': 75, 'loaded': True, 'loadedTime': 8100.20000000298, 'positionName': 'LEFT', 'positionCoords': [245.68, 178.5], 'bid': 0.38}, {'imgObject': {}, 'id': 'chicken nuggets2', 'src': '/static/foodstim60/chicken nuggets2.jpg', 'key': 'i', 'origWidth': 410, 'origHeight': 409, 'width': 410, 'height': 409, 'widthPercent': 0.45, 'rescaleHeight': False, 'trialN': 75, 'loaded': True, 'loadedTime': 5190.70000000298, 'positionName': 'RIGHT', 'positionCoords': [710.32, 179.5], 'bid': 0.84}]",142608.40000000596,1669835440085,cherries,chicken nuggets2,0.38,0.84,0.45999999999999996,chicken nuggets2,1687.2999999970198,1691,1690.5999999940395,True,i,144813.40000000596,2205.0,1669835442290,2205,HRV,HRV_0244,2022-11-30 19:13:55
76,"[{'imgObject': {}, 'id': 'hotdog w must', 'src': '/static/foodstim60/hotdog w must.jpg', 'key': 'u', 'origWidth': 409, 'origHeight': 409, 'width': 409, 'height': 409, 'widthPercent': 0.45, 'rescaleHeight': False, 'trialN': 76, 'loaded': True, 'loadedTime': 5751.4000000059605, 'positionName': 'LEFT', 'positionCoords': [246.68, 179.5], 'bid': 3.19}, {'imgObject': {}, 'id': 'roastedpotatoes', 'src': '/static/foodstim60/roastedpotatoes.jpg', 'key': 'i', 'origWidth': 409, 'origHeight': 410, 'width': 409, 'height': 410, 'widthPercent': 0.45, 'rescaleHeight': False, 'trialN': 76, 'loaded': True, 'loadedTime': 9035.70000000298, 'positionName': 'RIGHT', 'positionCoords': [710.32, 179], 'bid': 6.72}]",144813.79999999702,1669835442290,hotdog w must,roastedpotatoes,3.19,6.72,3.53,roastedpotatoes,1082.1000000089407,1087,1086.7000000029802,True,i,146418.09999999404,1604.2999999970198,1669835443895,1605,HRV,HRV_0244,2022-11-30 19:13:55
77,"[{'imgObject': {}, 'id': 'baked potato', 'src': '/static/foodstim60/baked potato.jpg', 'key': 'u', 'origWidth': 409, 'origHeight': 410, 'width': 409, 'height': 410, 'widthPercent': 0.45, 'rescaleHeight': False, 'trialN': 77, 'loaded': True, 'loadedTime': 7467.9000000059605, 'positionName': 'LEFT', 'positionCoords': [246.68, 179], 'bid': 4.97}, {'imgObject': {}, 'id': 'burrito', 'src': '/static/foodstim60/burrito.jpg', 'key': 'i', 'origWidth': 410, 'origHeight': 410, 'width': 410, 'height': 410, 'widthPercent': 0.45, 'rescaleHeight': False, 'trialN': 77, 'loaded': True, 'loadedTime': 7349.5999999940395, 'positionName': 'RIGHT', 'positionCoords': [710.32, 179], 'bid': 4.94}]",146418.79999999702,1669835443895,baked potato,burrito,4.97,4.94,-0.02999999999999936,baked potato,1463.4000000059605,1469,1468.7000000029802,True,u,148407.20000000298,1988.4000000059605,1669835445884,1989,HRV,HRV_0244,2022-11-30 19:13:55
78,"[{'imgObject': {}, 'id': 'fruitsalad', 'src': '/static/foodstim60/fruitsalad.jpg', 'key': 'u', 'origWidth': 410, 'origHeight': 410, 'width': 410, 'height': 410, 'widthPercent': 0.45, 'rescaleHeight': False, 'trialN': 78, 'loaded': True, 'loadedTime': 8950, 'positionName': 'LEFT', 'positionCoords': [245.68, 179], 'bid': 5.16}, {'imgObject': {}, 'id': 'turkey sandwich', 'src': '/static/foodstim60/turkey sandwich.jpg', 'key': 'i', 'origWidth': 409, 'origHeight': 409, 'width': 409, 'height': 409, 'widthPercent': 0.45, 'rescaleHeight': False, 'trialN': 78, 'loaded': True, 'loadedTime': 5286.4000000059605, 'positionName': 'RIGHT', 'positionCoords': [710.32, 179.5], 'bid': 5.26}]",148409.0,1669835445886,fruitsalad,turkey sandwich,5.16,5.26,0.09999999999999964,fruitsalad,1708.5,1710,1710.0,True,u,150628.09999999404,2219.0999999940395,1669835448105,2219,HRV,HRV_0244,2022-11-30 19:13:55
79,"[{'imgObject': {}, 'id': 'bagel and cc', 'src': '/static/foodstim60/bagel and cc.jpg', 'key': 'u', 'origWidth': 410, 'origHeight': 410, 'width': 410, 'height': 410, 'widthPercent': 0.45, 'rescaleHeight': False, 'trialN': 79, 'loaded': True, 'loadedTime': 8586.70000000298, 'positionName': 'LEFT', 'positionCoords': [245.68, 179], 'bid': 5.0200000000000005}, {'imgObject': {}, 'id': 'ice cream sundae 002', 'src': '/static/foodstim60/ice cream sundae 002.jpg', 'key': 'i', 'origWidth': 409, 'origHeight': 409, 'width': 409, 'height': 409, 'widthPercent': 0.45, 'rescaleHeight': False, 'trialN': 79, 'loaded': True, 'loadedTime': 8753.79999999702, 'positionName': 'RIGHT', 'positionCoords': [710.32, 179.5], 'bid': 4.04}]",150628.70000000298,1669835448105,bagel and cc,ice cream sundae 002,5.0200000000000005,4.04,-0.9800000000000004,bagel and cc,1274.2999999970198,1279,1278.3999999910593,True,u,152417.90000000596,1789.2000000029802,1669835449894,1789,HRV,HRV_0244,2022-11-30 19:13:55
80,"[{'imgObject': {}, 'id': 'mac & cheese', 'src': '/static/foodstim60/mac & cheese.jpg', 'key': 'u', 'origWidth': 410, 'origHeight': 410, 'width': 410, 'height': 410, 'widthPercent': 0.45, 'rescaleHeight': False, 'trialN': 80, 'loaded': True, 'loadedTime': 7766.0999999940395, 'positionName': 'LEFT', 'positionCoords': [245.68, 179], 'bid': 2.21}, {'imgObject': {}, 'id': 'strawberries', 'src': '/static/foodstim60/strawberries.jpg', 'key': 'i', 'origWidth': 410, 'origHeight': 410, 'width': 410, 'height': 410, 'widthPercent': 0.45, 'rescaleHeight': False, 'trialN': 80, 'loaded': True, 'loadedTime': 6590.5999999940395, 'positionName': 'RIGHT', 'positionCoords': [710.32, 179], 'bid': 6.140000000000001}]",152418.29999999702,1669835449895,mac & cheese,strawberries,2.21,6.140000000000001,3.9300000000000006,strawberries,1133.9000000059605,1139,1138.7000000029802,True,i,154060.79999999702,1642.5,1669835451537,1642,HRV,HRV_0244,2022-11-30 19:13:55
81,"[{'imgObject': {}, 'id': 'eggs', 'src': '/static/foodstim60/eggs.jpg', 'key': 'u', 'origWidth': 409, 'origHeight': 409, 'width': 409, 'height': 409, 'widthPercent': 0.45, 'rescaleHeight': False, 'trialN': 81, 'loaded': True, 'loadedTime': 7374.4000000059605, 'positionName': 'LEFT', 'positionCoords': [246.68, 179.5], 'bid': 2.21}, {'imgObject': {}, 'id': 'hashbrowns', 'src': '/static/foodstim60/hashbrowns.jpg', 'key': 'i', 'origWidth': 411, 'origHeight': 410, 'width': 411, 'height': 410, 'widthPercent': 0.45, 'rescaleHeight': False, 'trialN': 81, 'loaded': True, 'loadedTime': 7203, 'positionName': 'RIGHT', 'positionCoords': [710.32, 179], 'bid': 2.36}]",154061.20000000298,1669835451538,eggs,hashbrowns,2.21,2.36,0.1499999999999999,eggs,1888.5999999940395,1890,1890.0999999940395,True,u,156465.29999999702,2404.0999999940395,1669835453942,2404,HRV,HRV_0244,2022-11-30 19:13:55
82,"[{'imgObject': {}, 'id': 'popsicles', 'src': '/static/foodstim60/popsicles.jpg', 'key': 'u', 'origWidth': 410, 'origHeight': 410, 'width': 410, 'height': 410, 'widthPercent': 0.45, 'rescaleHeight': False, 'trialN': 82, 'loaded': True, 'loadedTime': 6143.0999999940395, 'positionName': 'LEFT', 'positionCoords': [245.68, 179], 'bid': 0.22}, {'imgObject': {}, 'id': 'bagel and cc', 'src': '/static/foodstim60/bagel and cc.jpg', 'key': 'i', 'origWidth': 410, 'origHeight': 410, 'width': 410, 'height': 410, 'widthPercent': 0.45, 'rescaleHeight': False, 'trialN': 82, 'loaded': True, 'loadedTime': 8587.5, 'positionName': 'RIGHT', 'positionCoords': [710.32, 179], 'bid': 5.0200000000000005}]",156466.59999999404,1669835453943,popsicles,bagel and cc,0.22,5.0200000000000005,4.800000000000001,bagel and cc,1137.0,1148,1147.4000000059605,True,i,158145.0,1678.4000000059605,1669835455622,1679,HRV,HRV_0244,2022-11-30 19:13:55
83,"[{'imgObject': {}, 'id': 'burger', 'src': '/static/foodstim60/burger.jpg', 'key': 'u', 'origWidth': 409, 'origHeight': 409, 'width': 409, 'height': 409, 'widthPercent': 0.45, 'rescaleHeight': False, 'trialN': 83, 'loaded': True, 'loadedTime': 8459.40000000596, 'positionName': 'LEFT', 'positionCoords': [246.68, 179.5], 'bid': 6.8}, {'imgObject': {}, 'id': 'sushi w_condiments', 'src': '/static/foodstim60/sushi w_condiments.jpg', 'key': 'i', 'origWidth': 410, 'origHeight': 410, 'width': 410, 'height': 410, 'widthPercent': 0.45, 'rescaleHeight': False, 'trialN': 83, 'loaded': True, 'loadedTime': 8108, 'positionName': 'RIGHT', 'positionCoords': [710.32, 179], 'bid': 7.76}]",158145.5,1669835455622,burger,sushi w_condiments,6.8,7.76,0.96,sushi w_condiments,1879.5,1881,1880.9000000059605,True,i,160535.29999999702,2389.7999999970198,1669835458012,2390,HRV,HRV_0244,2022-11-30 19:13:55
84,"[{'imgObject': {}, 'id': 'kiwi', 'src': '/static/foodstim60/kiwi.jpg', 'key': 'u', 'origWidth': 410, 'origHeight': 410, 'width': 410, 'height': 410, 'widthPercent': 0.45, 'rescaleHeight': False, 'trialN': 84, 'loaded': True, 'loadedTime': 8752.20000000298, 'positionName': 'LEFT', 'positionCoords': [245.68, 179], 'bid': 3.6}, {'imgObject': {}, 'id': 'mango', 'src': '/static/foodstim60/mango.jpg', 'key': 'i', 'origWidth': 411, 'origHeight': 411, 'width': 411, 'height': 411, 'widthPercent': 0.45, 'rescaleHeight': False, 'trialN': 84, 'loaded': True, 'loadedTime': 6334.0999999940395, 'positionName': 'RIGHT', 'positionCoords': [710.32, 178.5], 'bid': 3.56}]",160536.70000000298,1669835458013,kiwi,mango,3.6,3.56,-0.040000000000000036,mango,1780.7999999970198,1785,1785.0999999940395,True,i,162834.59999999404,2297.8999999910593,1669835460311,2298,HRV,HRV_0244,2022-11-30 19:13:55
85,"[{'imgObject': {}, 'id': 'bagel plain', 'src': '/static/foodstim60/bagel plain.jpg', 'key': 'u', 'origWidth': 410, 'origHeight': 410, 'width': 410, 'height': 410, 'widthPercent': 0.45, 'rescaleHeight': False, 'trialN': 85, 'loaded': True, 'loadedTime': 5873.4000000059605, 'positionName': 'LEFT', 'positionCoords': [245.68, 179], 'bid': 3.75}, {'imgObject': {}, 'id': 'cocktailshrimp', 'src': '/static/foodstim60/cocktailshrimp.jpg', 'key': 'i', 'origWidth': 410, 'origHeight': 410, 'width': 410, 'height': 410, 'widthPercent': 0.45, 'rescaleHeight': False, 'trialN': 85, 'loaded': True, 'loadedTime': 8727.79999999702, 'positionName': 'RIGHT', 'positionCoords': [710.32, 179], 'bid': 7}]",162835.09999999404,1669835460312,bagel plain,cocktailshrimp,3.75,7.0,3.25,cocktailshrimp,1085.800000011921,1090,1089.9000000059605,True,i,164436.40000000596,1601.300000011921,1669835461913,1601,HRV,HRV_0244,2022-11-30 19:13:55
86,"[{'imgObject': {}, 'id': 'orange slices', 'src': '/static/foodstim60/orange slices.jpg', 'key': 'u', 'origWidth': 409, 'origHeight': 410, 'width': 409, 'height': 410, 'widthPercent': 0.45, 'rescaleHeight': False, 'trialN': 86, 'loaded': True, 'loadedTime': 8229.40000000596, 'positionName': 'LEFT', 'positionCoords': [246.68, 179], 'bid': 4.8}, {'imgObject': {}, 'id': 'blueberries', 'src': '/static/foodstim60/blueberries.jpg', 'key': 'i', 'origWidth': 411, 'origHeight': 411, 'width': 411, 'height': 411, 'widthPercent': 0.45, 'rescaleHeight': False, 'trialN': 86, 'loaded': True, 'loadedTime': 7976.9000000059605, 'positionName': 'RIGHT', 'positionCoords': [710.32, 178.5], 'bid': 1.57}]",164436.90000000596,1669835461914,orange slices,blueberries,4.8,1.57,-3.2299999999999995,orange slices,1051.5999999940395,1059,1059.699999988079,True,u,166009.29999999702,1572.3999999910593,1669835463486,1572,HRV,HRV_0244,2022-11-30 19:13:55
87,"[{'imgObject': {}, 'id': 'chickenfingers', 'src': '/static/foodstim60/chickenfingers.jpg', 'key': 'u', 'origWidth': 410, 'origHeight': 410, 'width': 410, 'height': 410, 'widthPercent': 0.45, 'rescaleHeight': False, 'trialN': 87, 'loaded': True, 'loadedTime': 7174.79999999702, 'positionName': 'LEFT', 'positionCoords': [245.68, 179], 'bid': 4.88}, {'imgObject': {}, 'id': 'grilled chicken strips', 'src': '/static/foodstim60/grilled chicken strips.jpg', 'key': 'i', 'origWidth': 410, 'origHeight': 411, 'width': 410, 'height': 411, 'widthPercent': 0.45, 'rescaleHeight': False, 'trialN': 87, 'loaded': True, 'loadedTime': 7388.0999999940395, 'positionName': 'RIGHT', 'positionCoords': [710.32, 178.5], 'bid': 5.33}]",166009.79999999702,1669835463486,chickenfingers,grilled chicken strips,4.88,5.33,0.4500000000000002,chickenfingers,1331.1000000089407,1341,1340.1000000089407,True,u,167873.59999999404,1863.7999999970198,1669835465350,1864,HRV,HRV_0244,2022-11-30 19:13:55
88,"[{'imgObject': {}, 'id': 'yogurt no spoon', 'src': '/static/foodstim60/yogurt no spoon.jpg', 'key': 'u', 'origWidth': 411, 'origHeight': 410, 'width': 411, 'height': 410, 'widthPercent': 0.45, 'rescaleHeight': False, 'trialN': 88, 'loaded': True, 'loadedTime': 7626.70000000298, 'positionName': 'LEFT', 'positionCoords': [244.68, 179], 'bid': 6.03}, {'imgObject': {}, 'id': 'salad w chicken', 'src': '/static/foodstim60/salad w chicken.jpg', 'key': 'i', 'origWidth': 411, 'origHeight': 411, 'width': 411, 'height': 411, 'widthPercent': 0.45, 'rescaleHeight': False, 'trialN': 88, 'loaded': True, 'loadedTime': 8465.40000000596, 'positionName': 'RIGHT', 'positionCoords': [710.32, 178.5], 'bid': 7}]",167874.59999999404,1669835465351,yogurt no spoon,salad w chicken,6.03,7.0,0.9699999999999998,yogurt no spoon,1756.0,1758,1757.9000000059605,True,u,170168.79999999702,2294.2000000029802,1669835467645,2294,HRV,HRV_0244,2022-11-30 19:13:55
89,"[{'imgObject': {}, 'id': 'mango', 'src': '/static/foodstim60/mango.jpg', 'key': 'u', 'origWidth': 411, 'origHeight': 411, 'width': 411, 'height': 411, 'widthPercent': 0.45, 'rescaleHeight': False, 'trialN': 89, 'loaded': True, 'loadedTime': 6315.20000000298, 'positionName': 'LEFT', 'positionCoords': [244.68, 178.5], 'bid': 3.56}, {'imgObject': {}, 'id': 'mac & cheese', 'src': '/static/foodstim60/mac & cheese.jpg', 'key': 'i', 'origWidth': 410, 'origHeight': 410, 'width': 410, 'height': 410, 'widthPercent': 0.45, 'rescaleHeight': False, 'trialN': 89, 'loaded': True, 'loadedTime': 7771, 'positionName': 'RIGHT', 'positionCoords': [710.32, 179], 'bid': 2.21}]",170169.09999999404,1669835467646,mango,mac & cheese,3.56,2.21,-1.35,mango,1438.7000000029802,1441,1441.1000000089407,True,u,172126.59999999404,1957.5,1669835469603,1957,HRV,HRV_0244,2022-11-30 19:13:55
90,"[{'imgObject': {}, 'id': 'fruitsalad', 'src': '/static/foodstim60/fruitsalad.jpg', 'key': 'u', 'origWidth': 410, 'origHeight': 410, 'width': 410, 'height': 410, 'widthPercent': 0.45, 'rescaleHeight': False, 'trialN': 90, 'loaded': True, 'loadedTime': 8951.59999999404, 'positionName': 'LEFT', 'positionCoords': [245.68, 179], 'bid': 5.16}, {'imgObject': {}, 'id': 'cherries', 'src': '/static/foodstim60/cherries.jpg', 'key': 'i', 'origWidth': 410, 'origHeight': 411, 'width': 410, 'height': 411, 'widthPercent': 0.45, 'rescaleHeight': False, 'trialN': 90, 'loaded': True, 'loadedTime': 8099.0999999940395, 'positionName': 'RIGHT', 'positionCoords': [710.32, 178.5], 'bid': 0.38}]",176907.59999999404,1669835474384,fruitsalad,cherries,5.16,0.38,-4.78,fruitsalad,1385.300000011921,1390,1390.5,True,u,178815.90000000596,1908.300000011921,1669835476292,1908,HRV,HRV_0244,2022-11-30 19:13:55
91,"[{'imgObject': {}, 'id': 'cherries', 'src': '/static/foodstim60/cherries.jpg', 'key': 'u', 'origWidth': 410, 'origHeight': 411, 'width': 410, 'height': 411, 'widthPercent': 0.45, 'rescaleHeight': False, 'trialN': 91, 'loaded': True, 'loadedTime': 8077.29999999702, 'positionName': 'LEFT', 'positionCoords': [245.68, 178.5], 'bid': 0.38}, {'imgObject': {}, 'id': 'rigatoni', 'src': '/static/foodstim60/rigatoni.jpg', 'key': 'i', 'origWidth': 411, 'origHeight': 411, 'width': 411, 'height': 411, 'widthPercent': 0.45, 'rescaleHeight': False, 'trialN': 91, 'loaded': True, 'loadedTime': 5875.5, 'positionName': 'RIGHT', 'positionCoords': [710.32, 178.5], 'bid': 2.29}]",178816.20000000298,1669835476292,cherries,rigatoni,0.38,2.29,1.9100000000000001,cherries,1317.5,1321,1321.0999999940395,True,u,180650.09999999404,1833.8999999910593,1669835478126,1834,HRV,HRV_0244,2022-11-30 19:13:55
92,"[{'imgObject': {}, 'id': 'corn cob', 'src': '/static/foodstim60/corn cob.jpg', 'key': 'u', 'origWidth': 411, 'origHeight': 411, 'width': 411, 'height': 411, 'widthPercent': 0.45, 'rescaleHeight': False, 'trialN': 92, 'loaded': True, 'loadedTime': 6230.5999999940395, 'positionName': 'LEFT', 'positionCoords': [244.68, 178.5], 'bid': 7.19}, {'imgObject': {}, 'id': 'strawberries', 'src': '/static/foodstim60/strawberries.jpg', 'key': 'i', 'origWidth': 410, 'origHeight': 410, 'width': 410, 'height': 410, 'widthPercent': 0.45, 'rescaleHeight': False, 'trialN': 92, 'loaded': True, 'loadedTime': 6597.79999999702, 'positionName': 'RIGHT', 'positionCoords': [710.32, 179], 'bid': 6.140000000000001}]",180650.90000000596,1669835478127,corn cob,strawberries,7.19,6.140000000000001,-1.0499999999999998,strawberries,1094.0999999940395,1098,1098.199999988079,True,i,182254.29999999702,1603.3999999910593,1669835479730,1603,HRV,HRV_0244,2022-11-30 19:13:55
93,"[{'imgObject': {}, 'id': 'fruitsalad', 'src': '/static/foodstim60/fruitsalad.jpg', 'key': 'u', 'origWidth': 410, 'origHeight': 410, 'width': 410, 'height': 410, 'widthPercent': 0.45, 'rescaleHeight': False, 'trialN': 93, 'loaded': True, 'loadedTime': 8949.20000000298, 'positionName': 'LEFT', 'positionCoords': [245.68, 179], 'bid': 5.16}, {'imgObject': {}, 'id': 'burrito', 'src': '/static/foodstim60/burrito.jpg', 'key': 'i', 'origWidth': 410, 'origHeight': 410, 'width': 410, 'height': 410, 'widthPercent': 0.45, 'rescaleHeight': False, 'trialN': 93, 'loaded': True, 'loadedTime': 7358.4000000059605, 'positionName': 'RIGHT', 'positionCoords': [710.32, 179], 'bid': 4.94}]",182254.90000000596,1669835479731,fruitsalad,burrito,5.16,4.94,-0.21999999999999975,fruitsalad,1393.699999988079,1396,1395.699999988079,True,u,184158.70000000298,1903.7999999970198,1669835481635,1904,HRV,HRV_0244,2022-11-30 19:13:55
94,"[{'imgObject': {}, 'id': 'blueberries', 'src': '/static/foodstim60/blueberries.jpg', 'key': 'u', 'origWidth': 411, 'origHeight': 411, 'width': 411, 'height': 411, 'widthPercent': 0.45, 'rescaleHeight': False, 'trialN': 94, 'loaded': True, 'loadedTime': 7977.9000000059605, 'positionName': 'LEFT', 'positionCoords': [244.68, 178.5], 'bid': 1.57}, {'imgObject': {}, 'id': 'cantaloupe', 'src': '/static/foodstim60/cantaloupe.jpg', 'key': 'i', 'origWidth': 409, 'origHeight': 409, 'width': 409, 'height': 409, 'widthPercent': 0.45, 'rescaleHeight': False, 'trialN': 94, 'loaded': True, 'loadedTime': 8797.5, 'positionName': 'RIGHT', 'positionCoords': [710.32, 179.5], 'bid': 0}]",184160.40000000596,1669835481636,blueberries,cantaloupe,1.57,0.0,-1.57,blueberries,966.5,968,967.8999999910593,True,u,185649.40000000596,1489.0,1669835483126,1490,HRV,HRV_0244,2022-11-30 19:13:55
95,"[{'imgObject': {}, 'id': 'salad w chicken', 'src': '/static/foodstim60/salad w chicken.jpg', 'key': 'u', 'origWidth': 411, 'origHeight': 411, 'width': 411, 'height': 411, 'widthPercent': 0.45, 'rescaleHeight': False, 'trialN': 95, 'loaded': True, 'loadedTime': 8497.20000000298, 'positionName': 'LEFT', 'positionCoords': [244.68, 178.5], 'bid': 7}, {'imgObject': {}, 'id': 'cocktailshrimp', 'src': '/static/foodstim60/cocktailshrimp.jpg', 'key': 'i', 'origWidth': 410, 'origHeight': 410, 'width': 410, 'height': 410, 'widthPercent': 0.45, 'rescaleHeight': False, 'trialN': 95, 'loaded': True, 'loadedTime': 8722.90000000596, 'positionName': 'RIGHT', 'positionCoords': [710.32, 179], 'bid': 7}]",185650.20000000298,1669835483126,salad w chicken,cocktailshrimp,7.0,7.0,0.0,cocktailshrimp,1045.2000000029802,1059,1058.8999999910593,True,i,187219.90000000596,1569.7000000029802,1669835484696,1570,HRV,HRV_0244,2022-11-30 19:13:55
96,"[{'imgObject': {}, 'id': 'veggieswithdip', 'src': '/static/foodstim60/veggieswithdip.jpg', 'key': 'u', 'origWidth': 409, 'origHeight': 409, 'width': 409, 'height': 409, 'widthPercent': 0.45, 'rescaleHeight': False, 'trialN': 96, 'loaded': True, 'loadedTime': 8909.29999999702, 'positionName': 'LEFT', 'positionCoords': [246.68, 179.5], 'bid': 7.32}, {'imgObject': {}, 'id': 'sushi w_condiments', 'src': '/static/foodstim60/sushi w_condiments.jpg', 'key': 'i', 'origWidth': 410, 'origHeight': 410, 'width': 410, 'height': 410, 'widthPercent': 0.45, 'rescaleHeight': False, 'trialN': 96, 'loaded': True, 'loadedTime': 8225.09999999404, 'positionName': 'RIGHT', 'positionCoords': [710.32, 179], 'bid': 7.76}]",187221.0,1669835484697,veggieswithdip,sushi w_condiments,7.32,7.76,0.4399999999999995,sushi w_condiments,1216.0999999940395,1218,1218.4000000059605,True,i,188956.29999999702,1735.2999999970198,1669835486432,1735,HRV,HRV_0244,2022-11-30 19:13:55
97,"[{'imgObject': {}, 'id': 'banana', 'src': '/static/foodstim60/banana.jpg', 'key': 'u', 'origWidth': 410, 'origHeight': 410, 'width': 410, 'height': 410, 'widthPercent': 0.45, 'rescaleHeight': False, 'trialN': 97, 'loaded': True, 'loadedTime': 8264.79999999702, 'positionName': 'LEFT', 'positionCoords': [245.68, 179], 'bid': 4.2}, {'imgObject': {}, 'id': 'cherry tomato', 'src': '/static/foodstim60/cherry tomato.jpg', 'key': 'i', 'origWidth': 410, 'origHeight': 410, 'width': 410, 'height': 410, 'widthPercent': 0.45, 'rescaleHeight': False, 'trialN': 97, 'loaded': True, 'loadedTime': 5423.79999999702, 'positionName': 'RIGHT', 'positionCoords': [710.32, 179], 'bid': 1.28}]",188957.0,1669835486433,banana,cherry tomato,4.2,1.28,-2.92,banana,1354.0,1357,1356.7999999970198,True,u,190828.0,1871.0,1669835488304,1871,HRV,HRV_0244,2022-11-30 19:13:55
98,"[{'imgObject': {}, 'id': 'chickenfingers', 'src': '/static/foodstim60/chickenfingers.jpg', 'key': 'u', 'origWidth': 410, 'origHeight': 410, 'width': 410, 'height': 410, 'widthPercent': 0.45, 'rescaleHeight': False, 'trialN': 98, 'loaded': True, 'loadedTime': 7102.9000000059605, 'positionName': 'LEFT', 'positionCoords': [245.68, 179], 'bid': 4.88}, {'imgObject': {}, 'id': 'Grapes', 'src': '/static/foodstim60/Grapes.jpg', 'key': 'i', 'origWidth': 411, 'origHeight': 411, 'width': 411, 'height': 411, 'widthPercent': 0.45, 'rescaleHeight': False, 'trialN': 98, 'loaded': True, 'loadedTime': 5511.4000000059605, 'positionName': 'RIGHT', 'positionCoords': [710.32, 178.5], 'bid': 7.86}]",190829.09999999404,1669835488305,chickenfingers,Grapes,4.88,7.86,2.9800000000000004,chickenfingers,1599.800000011921,1602,1601.800000011921,True,u,192949.5,2120.4000000059605,1669835490426,2121,HRV,HRV_0244,2022-11-30 19:13:55
99,"[{'imgObject': {}, 'id': 'edamame', 'src': '/static/foodstim60/edamame.jpg', 'key': 'u', 'origWidth': 409, 'origHeight': 410, 'width': 409, 'height': 410, 'widthPercent': 0.45, 'rescaleHeight': False, 'trialN': 99, 'loaded': True, 'loadedTime': 6431, 'positionName': 'LEFT', 'positionCoords': [246.68, 179], 'bid': 0.27}, {'imgObject': {}, 'id': 'popsicles', 'src': '/static/foodstim60/popsicles.jpg', 'key': 'i', 'origWidth': 410, 'origHeight': 410, 'width': 410, 'height': 410, 'widthPercent': 0.45, 'rescaleHeight': False, 'trialN': 99, 'loaded': True, 'loadedTime': 6190.20000000298, 'positionName': 'RIGHT', 'positionCoords': [710.32, 179], 'bid': 0.22}]",192951.29999999702,1669835490427,edamame,popsicles,0.27,0.22,-0.05000000000000002,popsicles,717.9000000059605,720,719.2000000029802,True,i,194183.20000000298,1231.9000000059605,1669835491659,1232,HRV,HRV_0244,2022-11-30 19:13:55
100,"[{'imgObject': {}, 'id': 'cantaloupe', 'src': '/static/foodstim60/cantaloupe.jpg', 'key': 'u', 'origWidth': 409, 'origHeight': 409, 'width': 409, 'height': 409, 'widthPercent': 0.45, 'rescaleHeight': False, 'trialN': 100, 'loaded': True, 'loadedTime': 8798.40000000596, 'positionName': 'LEFT', 'positionCoords': [246.68, 179.5], 'bid': 0}, {'imgObject': {}, 'id': 'luckycharms', 'src': '/static/foodstim60/luckycharms.jpg', 'key': 'i', 'origWidth': 410, 'origHeight': 409, 'width': 410, 'height': 409, 'widthPercent': 0.45, 'rescaleHeight': False, 'trialN': 100, 'loaded': True, 'loadedTime': 8945.29999999702, 'positionName': 'RIGHT', 'positionCoords': [710.32, 179.5], 'bid': 5.01}]",194184.0,1669835491660,cantaloupe,luckycharms,0.0,5.01,5.01,luckycharms,1190.7999999970198,1192,1192.0,True,i,195891.29999999702,1707.2999999970198,1669835493367,1707,HRV,HRV_0244,2022-11-30 19:13:55
101,"[{'imgObject': {}, 'id': 'orange slices', 'src': '/static/foodstim60/orange slices.jpg', 'key': 'u', 'origWidth': 409, 'origHeight': 410, 'width': 409, 'height': 410, 'widthPercent': 0.45, 'rescaleHeight': False, 'trialN': 101, 'loaded': True, 'loadedTime': 8240.5, 'positionName': 'LEFT', 'positionCoords': [246.68, 179], 'bid': 4.8}, {'imgObject': {}, 'id': 'turkey sandwich', 'src': '/static/foodstim60/turkey sandwich.jpg', 'key': 'i', 'origWidth': 409, 'origHeight': 409, 'width': 409, 'height': 409, 'widthPercent': 0.45, 'rescaleHeight': False, 'trialN': 101, 'loaded': True, 'loadedTime': 5298.9000000059605, 'positionName': 'RIGHT', 'positionCoords': [710.32, 179.5], 'bid': 5.26}]",195891.70000000298,1669835493368,orange slices,turkey sandwich,4.8,5.26,0.45999999999999996,turkey sandwich,1243.2000000029802,1247,1246.7999999970198,True,i,197645.29999999702,1753.5999999940395,1669835495121,1753,HRV,HRV_0244,2022-11-30 19:13:55
102,"[{'imgObject': {}, 'id': 'bagel and cc', 'src': '/static/foodstim60/bagel and cc.jpg', 'key': 'u', 'origWidth': 410, 'origHeight': 410, 'width': 410, 'height': 410, 'widthPercent': 0.45, 'rescaleHeight': False, 'trialN': 102, 'loaded': True, 'loadedTime': 8608.40000000596, 'positionName': 'LEFT', 'positionCoords': [245.68, 179], 'bid': 5.0200000000000005}, {'imgObject': {}, 'id': 'turkeysandwich', 'src': '/static/foodstim60/turkeysandwich.jpg', 'key': 'i', 'origWidth': 409, 'origHeight': 409, 'width': 409, 'height': 409, 'widthPercent': 0.45, 'rescaleHeight': False, 'trialN': 102, 'loaded': True, 'loadedTime': 9041.59999999404, 'positionName': 'RIGHT', 'positionCoords': [710.32, 179.5], 'bid': 5.08}]",197646.70000000298,1669835495123,bagel and cc,turkeysandwich,5.0200000000000005,5.08,0.05999999999999961,bagel and cc,1440.2999999970198,1442,1442.3999999910593,True,u,199602.29999999702,1955.5999999940395,1669835497078,1955,HRV,HRV_0244,2022-11-30 19:13:55
103,"[{'imgObject': {}, 'id': 'banana', 'src': '/static/foodstim60/banana.jpg', 'key': 'u', 'origWidth': 410, 'origHeight': 410, 'width': 410, 'height': 410, 'widthPercent': 0.45, 'rescaleHeight': False, 'trialN': 103, 'loaded': True, 'loadedTime': 8271.70000000298, 'positionName': 'LEFT', 'positionCoords': [245.68, 179], 'bid': 4.2}, {'imgObject': {}, 'id': 'olives', 'src': '/static/foodstim60/olives.jpg', 'key': 'i', 'origWidth': 410, 'origHeight': 410, 'width': 410, 'height': 410, 'widthPercent': 0.45, 'rescaleHeight': False, 'trialN': 103, 'loaded': True, 'loadedTime': 6126.9000000059605, 'positionName': 'RIGHT', 'positionCoords': [710.32, 179], 'bid': 7.24}]",199602.70000000298,1669835497079,banana,olives,4.2,7.24,3.04,olives,1339.5,1343,1342.7999999970198,True,i,201455.90000000596,1853.2000000029802,1669835498932,1853,HRV,HRV_0244,2022-11-30 19:13:55
104,"[{'imgObject': {}, 'id': 'pear', 'src': '/static/foodstim60/pear.jpg', 'key': 'u', 'origWidth': 411, 'origHeight': 410, 'width': 411, 'height': 410, 'widthPercent': 0.45, 'rescaleHeight': False, 'trialN': 104, 'loaded': True, 'loadedTime': 7195.0999999940395, 'positionName': 'LEFT', 'positionCoords': [244.68, 179], 'bid': 3.78}, {'imgObject': {}, 'id': 'omelette', 'src': '/static/foodstim60/omelette.jpg', 'key': 'i', 'origWidth': 410, 'origHeight': 409, 'width': 410, 'height': 409, 'widthPercent': 0.45, 'rescaleHeight': False, 'trialN': 104, 'loaded': True, 'loadedTime': 7892.70000000298, 'positionName': 'RIGHT', 'positionCoords': [710.32, 179.5], 'bid': 5.0200000000000005}]",201456.29999999702,1669835498932,pear,omelette,3.78,5.0200000000000005,1.2400000000000007,pear,1452.2999999970198,1460,1460.2000000029802,True,u,203436.20000000298,1979.9000000059605,1669835500912,1980,HRV,HRV_0244,2022-11-30 19:13:55
105,"[{'imgObject': {}, 'id': 'apple slices', 'src': '/static/foodstim60/apple slices.jpg', 'key': 'u', 'origWidth': 409, 'origHeight': 410, 'width': 409, 'height': 410, 'widthPercent': 0.45, 'rescaleHeight': False, 'trialN': 105, 'loaded': True, 'loadedTime': 5488.70000000298, 'positionName': 'LEFT', 'positionCoords': [246.68, 179], 'bid': 5.87}, {'imgObject': {}, 'id': 'avocado', 'src': '/static/foodstim60/avocado.jpg', 'key': 'i', 'origWidth': 409, 'origHeight': 409, 'width': 409, 'height': 409, 'widthPercent': 0.45, 'rescaleHeight': False, 'trialN': 105, 'loaded': True, 'loadedTime': 8618.70000000298, 'positionName': 'RIGHT', 'positionCoords': [710.32, 179.5], 'bid': 1.42}]",203436.79999999702,1669835500913,apple slices,avocado,5.87,1.42,-4.45,apple slices,917.2999999970198,919,919.0,True,u,204867.09999999404,1430.2999999970198,1669835502343,1430,HRV,HRV_0244,2022-11-30 19:13:55
106,"[{'imgObject': {}, 'id': 'froot loops w milk', 'src': '/static/foodstim60/froot loops w milk.jpg', 'key': 'u', 'origWidth': 410, 'origHeight': 410, 'width': 410, 'height': 410, 'widthPercent': 0.45, 'rescaleHeight': False, 'trialN': 106, 'loaded': True, 'loadedTime': 7895.70000000298, 'positionName': 'LEFT', 'positionCoords': [245.68, 179], 'bid': 6.63}, {'imgObject': {}, 'id': 'omelette', 'src': '/static/foodstim60/omelette.jpg', 'key': 'i', 'origWidth': 410, 'origHeight': 409, 'width': 410, 'height': 409, 'widthPercent': 0.45, 'rescaleHeight': False, 'trialN': 106, 'loaded': True, 'loadedTime': 7793.5, 'positionName': 'RIGHT', 'positionCoords': [710.32, 179.5], 'bid': 5.0200000000000005}]",204868.40000000596,1669835502344,froot loops w milk,omelette,6.63,5.0200000000000005,-1.6099999999999994,froot loops w milk,1302.5999999940395,1306,1305.3999999910593,True,u,206686.0,1817.5999999940395,1669835504162,1818,HRV,HRV_0244,2022-11-30 19:13:55
107,"[{'imgObject': {}, 'id': 'apple slices', 'src': '/static/foodstim60/apple slices.jpg', 'key': 'u', 'origWidth': 409, 'origHeight': 410, 'width': 409, 'height': 410, 'widthPercent': 0.45, 'rescaleHeight': False, 'trialN': 107, 'loaded': True, 'loadedTime': 5509.0999999940395, 'positionName': 'LEFT', 'positionCoords': [246.68, 179], 'bid': 5.87}, {'imgObject': {}, 'id': 'veggieswithdip', 'src': '/static/foodstim60/veggieswithdip.jpg', 'key': 'i', 'origWidth': 409, 'origHeight': 409, 'width': 409, 'height': 409, 'widthPercent': 0.45, 'rescaleHeight': False, 'trialN': 107, 'loaded': True, 'loadedTime': 8913.5, 'positionName': 'RIGHT', 'positionCoords': [710.32, 179.5], 'bid': 7.32}]",206686.79999999702,1669835504163,apple slices,veggieswithdip,5.87,7.32,1.4500000000000002,veggieswithdip,1046.2000000029802,1049,1048.7999999970198,True,i,208262.70000000298,1575.9000000059605,1669835505739,1576,HRV,HRV_0244,2022-11-30 19:13:55
108,"[{'imgObject': {}, 'id': 'edamame', 'src': '/static/foodstim60/edamame.jpg', 'key': 'u', 'origWidth': 409, 'origHeight': 410, 'width': 409, 'height': 410, 'widthPercent': 0.45, 'rescaleHeight': False, 'trialN': 108, 'loaded': True, 'loadedTime': 6424.5999999940395, 'positionName': 'LEFT', 'positionCoords': [246.68, 179], 'bid': 0.27}, {'imgObject': {}, 'id': 'seaweed', 'src': '/static/foodstim60/seaweed.jpg', 'key': 'i', 'origWidth': 410, 'origHeight': 410, 'width': 410, 'height': 410, 'widthPercent': 0.45, 'rescaleHeight': False, 'trialN': 108, 'loaded': True, 'loadedTime': 6969.79999999702, 'positionName': 'RIGHT', 'positionCoords': [710.32, 179], 'bid': 0.03}]",208263.09999999404,1669835505739,edamame,seaweed,0.27,0.03,-0.24000000000000002,edamame,1430.7000000029802,1441,1440.7000000029802,True,u,210209.20000000298,1946.1000000089407,1669835507685,1946,HRV,HRV_0244,2022-11-30 19:13:55
