trialN,stimuli,trialStartTime,trialStartTime_UNIX,stimulus1,stimulus2,stimulus1Bid,stimulus2Bid,delta,selected,rt,rt_UNIX,rt_perfnow,receivedResponse,rsp,trialEndTime,trialDuration,trialEndTime_UNIX,trialDuration_UNIX,exp,subjectId,date
0,"[{'imgObject': {}, 'id': 'pear', 'src': '/static/foodstim60/pear.jpg', 'key': 'u', 'origWidth': 411, 'origHeight': 410, 'width': 411, 'height': 410, 'widthPercent': 0.45, 'rescaleHeight': False, 'trialN': 0, 'loaded': True, 'loadedTime': 3988.199999988079, 'positionName': 'LEFT', 'positionCoords': [244.68, 179], 'bid': 5.1000000000000005}, {'imgObject': {}, 'id': 'olives', 'src': '/static/foodstim60/olives.jpg', 'key': 'i', 'origWidth': 410, 'origHeight': 410, 'width': 410, 'height': 410, 'widthPercent': 0.45, 'rescaleHeight': False, 'trialN': 0, 'loaded': True, 'loadedTime': 4058.5, 'positionName': 'RIGHT', 'positionCoords': [710.32, 179], 'bid': 4.91}]",5411.5,1669831409888,pear,olives,5.1000000000000005,4.91,-0.1900000000000004,pear,1342.699999988079,1347,1346.9000000059605,True,u,7264.300000011921,1852.800000011921,1669831411741,1853,HRV,HRV_0174,2022-11-30 18:08:39
1,"[{'imgObject': {}, 'id': 'rigatoni and sauce', 'src': '/static/foodstim60/rigatoni and sauce.jpg', 'key': 'u', 'origWidth': 410, 'origHeight': 411, 'width': 410, 'height': 411, 'widthPercent': 0.45, 'rescaleHeight': False, 'trialN': 1, 'loaded': True, 'loadedTime': 4074.5999999940395, 'positionName': 'LEFT', 'positionCoords': [245.68, 178.5], 'bid': 4.1}, {'imgObject': {}, 'id': 'blueberries', 'src': '/static/foodstim60/blueberries.jpg', 'key': 'i', 'origWidth': 411, 'origHeight': 411, 'width': 411, 'height': 411, 'widthPercent': 0.45, 'rescaleHeight': False, 'trialN': 1, 'loaded': True, 'loadedTime': 4082.9000000059605, 'positionName': 'RIGHT', 'positionCoords': [710.32, 178.5], 'bid': 2.77}]",7264.800000011921,1669831411741,rigatoni and sauce,blueberries,4.1,2.77,-1.3299999999999996,rigatoni and sauce,1078.5999999940395,1080,1079.199999988079,True,u,8857.699999988079,1592.8999999761581,1669831413334,1593,HRV,HRV_0174,2022-11-30 18:08:39
2,"[{'imgObject': {}, 'id': 'mac & cheese', 'src': '/static/foodstim60/mac & cheese.jpg', 'key': 'u', 'origWidth': 410, 'origHeight': 410, 'width': 410, 'height': 410, 'widthPercent': 0.45, 'rescaleHeight': False, 'trialN': 2, 'loaded': True, 'loadedTime': 4127.5, 'positionName': 'LEFT', 'positionCoords': [245.68, 179], 'bid': 1.8}, {'imgObject': {}, 'id': 'avocado', 'src': '/static/foodstim60/avocado.jpg', 'key': 'i', 'origWidth': 409, 'origHeight': 409, 'width': 409, 'height': 409, 'widthPercent': 0.45, 'rescaleHeight': False, 'trialN': 2, 'loaded': True, 'loadedTime': 4186.5, 'positionName': 'RIGHT', 'positionCoords': [710.32, 179.5], 'bid': 0.13}]",8858.09999999404,1669831413335,mac & cheese,avocado,1.8,0.13,-1.67,mac & cheese,958.5,959,958.9000000059605,True,u,10324.40000000596,1466.300000011921,1669831414801,1466,HRV,HRV_0174,2022-11-30 18:08:39
3,"[{'imgObject': {}, 'id': 'ice cream sundae 002', 'src': '/static/foodstim60/ice cream sundae 002.jpg', 'key': 'u', 'origWidth': 409, 'origHeight': 409, 'width': 409, 'height': 409, 'widthPercent': 0.45, 'rescaleHeight': False, 'trialN': 3, 'loaded': True, 'loadedTime': 4189.800000011921, 'positionName': 'LEFT', 'positionCoords': [246.68, 179.5], 'bid': 6.25}, {'imgObject': {}, 'id': 'luckycharms', 'src': '/static/foodstim60/luckycharms.jpg', 'key': 'i', 'origWidth': 410, 'origHeight': 409, 'width': 410, 'height': 409, 'widthPercent': 0.45, 'rescaleHeight': False, 'trialN': 3, 'loaded': True, 'loadedTime': 4258.699999988079, 'positionName': 'RIGHT', 'positionCoords': [710.32, 179.5], 'bid': 6.18}]",10324.90000000596,1669831414801,ice cream sundae 002,luckycharms,6.25,6.18,-0.07000000000000028,luckycharms,996.6999999880791,998,997.4000000059605,True,i,11826.300000011921,1501.4000000059605,1669831416303,1502,HRV,HRV_0174,2022-11-30 18:08:39
4,"[{'imgObject': {}, 'id': 'cheerios', 'src': '/static/foodstim60/cheerios.jpg', 'key': 'u', 'origWidth': 409, 'origHeight': 410, 'width': 409, 'height': 410, 'widthPercent': 0.45, 'rescaleHeight': False, 'trialN': 4, 'loaded': True, 'loadedTime': 4310.5999999940395, 'positionName': 'LEFT', 'positionCoords': [246.68, 179], 'bid': 5.33}, {'imgObject': {}, 'id': 'sweetpotato', 'src': '/static/foodstim60/sweetpotato.jpg', 'key': 'i', 'origWidth': 410, 'origHeight': 410, 'width': 410, 'height': 410, 'widthPercent': 0.45, 'rescaleHeight': False, 'trialN': 4, 'loaded': True, 'loadedTime': 4354.9000000059605, 'positionName': 'RIGHT', 'positionCoords': [710.32, 179], 'bid': 6.97}]",11826.59999999404,1669831416303,cheerios,sweetpotato,5.33,6.97,1.6399999999999997,sweetpotato,887.9000000059605,889,888.3000000119209,True,i,13231.40000000596,1404.800000011921,1669831417708,1405,HRV,HRV_0174,2022-11-30 18:08:39
5,"[{'imgObject': {}, 'id': 'salmon', 'src': '/static/foodstim60/salmon.jpg', 'key': 'u', 'origWidth': 410, 'origHeight': 409, 'width': 410, 'height': 409, 'widthPercent': 0.45, 'rescaleHeight': False, 'trialN': 5, 'loaded': True, 'loadedTime': 4409.199999988079, 'positionName': 'LEFT', 'positionCoords': [245.68, 179.5], 'bid': 7.75}, {'imgObject': {}, 'id': 'ice cream sundae 002', 'src': '/static/foodstim60/ice cream sundae 002.jpg', 'key': 'i', 'origWidth': 409, 'origHeight': 409, 'width': 409, 'height': 409, 'widthPercent': 0.45, 'rescaleHeight': False, 'trialN': 5, 'loaded': True, 'loadedTime': 4250, 'positionName': 'RIGHT', 'positionCoords': [710.32, 179.5], 'bid': 6.25}]",13231.800000011921,1669831417708,salmon,ice cream sundae 002,7.75,6.25,-1.5,salmon,920.6999999880791,922,921.5,True,u,14669.09999999404,1437.2999999821186,1669831419146,1438,HRV,HRV_0174,2022-11-30 18:08:39
6,"[{'imgObject': {}, 'id': 'chickenfingers', 'src': '/static/foodstim60/chickenfingers.jpg', 'key': 'u', 'origWidth': 410, 'origHeight': 410, 'width': 410, 'height': 410, 'widthPercent': 0.45, 'rescaleHeight': False, 'trialN': 6, 'loaded': True, 'loadedTime': 4461.0999999940395, 'positionName': 'LEFT', 'positionCoords': [245.68, 179], 'bid': 5.8100000000000005}, {'imgObject': {}, 'id': 'olives', 'src': '/static/foodstim60/olives.jpg', 'key': 'i', 'origWidth': 410, 'origHeight': 410, 'width': 410, 'height': 410, 'widthPercent': 0.45, 'rescaleHeight': False, 'trialN': 6, 'loaded': True, 'loadedTime': 4057, 'positionName': 'RIGHT', 'positionCoords': [710.32, 179], 'bid': 4.91}]",14669.300000011921,1669831419146,chickenfingers,olives,5.8100000000000005,4.91,-0.9000000000000004,chickenfingers,907.0999999940395,907,907.5,True,u,16087.199999988079,1417.8999999761581,1669831420564,1418,HRV,HRV_0174,2022-11-30 18:08:39
7,"[{'imgObject': {}, 'id': 'pear', 'src': '/static/foodstim60/pear.jpg', 'key': 'u', 'origWidth': 411, 'origHeight': 410, 'width': 411, 'height': 410, 'widthPercent': 0.45, 'rescaleHeight': False, 'trialN': 7, 'loaded': True, 'loadedTime': 3988, 'positionName': 'LEFT', 'positionCoords': [244.68, 179], 'bid': 5.1000000000000005}, {'imgObject': {}, 'id': 'luckycharms', 'src': '/static/foodstim60/luckycharms.jpg', 'key': 'i', 'origWidth': 410, 'origHeight': 409, 'width': 410, 'height': 409, 'widthPercent': 0.45, 'rescaleHeight': False, 'trialN': 7, 'loaded': True, 'loadedTime': 4251.199999988079, 'positionName': 'RIGHT', 'positionCoords': [710.32, 179.5], 'bid': 6.18}]",16087.40000000596,1669831420564,pear,luckycharms,5.1000000000000005,6.18,1.0799999999999992,luckycharms,782.0,783,782.6999999880791,True,i,17382.80000001192,1295.4000000059605,1669831421859,1295,HRV,HRV_0174,2022-11-30 18:08:39
8,"[{'imgObject': {}, 'id': 'fried eggs', 'src': '/static/foodstim60/fried eggs.jpg', 'key': 'u', 'origWidth': 410, 'origHeight': 410, 'width': 410, 'height': 410, 'widthPercent': 0.45, 'rescaleHeight': False, 'trialN': 8, 'loaded': True, 'loadedTime': 4463.9000000059605, 'positionName': 'LEFT', 'positionCoords': [245.68, 179], 'bid': 4.91}, {'imgObject': {}, 'id': 'salmon', 'src': '/static/foodstim60/salmon.jpg', 'key': 'i', 'origWidth': 410, 'origHeight': 409, 'width': 410, 'height': 409, 'widthPercent': 0.45, 'rescaleHeight': False, 'trialN': 8, 'loaded': True, 'loadedTime': 4408.300000011921, 'positionName': 'RIGHT', 'positionCoords': [710.32, 179.5], 'bid': 7.75}]",17383.09999999404,1669831421860,fried eggs,salmon,4.91,7.75,2.84,salmon,981.0,981,981.4000000059605,True,i,18885.19999998808,1502.0999999940395,1669831423362,1502,HRV,HRV_0174,2022-11-30 18:08:39
9,"[{'imgObject': {}, 'id': 'cherry tomato', 'src': '/static/foodstim60/cherry tomato.jpg', 'key': 'u', 'origWidth': 410, 'origHeight': 410, 'width': 410, 'height': 410, 'widthPercent': 0.45, 'rescaleHeight': False, 'trialN': 9, 'loaded': True, 'loadedTime': 4511.199999988079, 'positionName': 'LEFT', 'positionCoords': [245.68, 179], 'bid': 6.140000000000001}, {'imgObject': {}, 'id': 'luckycharms', 'src': '/static/foodstim60/luckycharms.jpg', 'key': 'i', 'origWidth': 410, 'origHeight': 409, 'width': 410, 'height': 409, 'widthPercent': 0.45, 'rescaleHeight': False, 'trialN': 9, 'loaded': True, 'loadedTime': 4259, 'positionName': 'RIGHT', 'positionCoords': [710.32, 179.5], 'bid': 6.18}]",18885.59999999404,1669831423362,cherry tomato,luckycharms,6.140000000000001,6.18,0.03999999999999915,luckycharms,891.8000000119209,893,892.4000000059605,True,i,20286.40000000596,1400.800000011921,1669831424763,1401,HRV,HRV_0174,2022-11-30 18:08:39
10,"[{'imgObject': {}, 'id': 'shreddedwheatwithmilk', 'src': '/static/foodstim60/shreddedwheatwithmilk.jpg', 'key': 'u', 'origWidth': 410, 'origHeight': 410, 'width': 410, 'height': 410, 'widthPercent': 0.45, 'rescaleHeight': False, 'trialN': 10, 'loaded': True, 'loadedTime': 4513.199999988079, 'positionName': 'LEFT', 'positionCoords': [245.68, 179], 'bid': 5.19}, {'imgObject': {}, 'id': 'ice cream sundae 002', 'src': '/static/foodstim60/ice cream sundae 002.jpg', 'key': 'i', 'origWidth': 409, 'origHeight': 409, 'width': 409, 'height': 409, 'widthPercent': 0.45, 'rescaleHeight': False, 'trialN': 10, 'loaded': True, 'loadedTime': 4250.800000011921, 'positionName': 'RIGHT', 'positionCoords': [710.32, 179.5], 'bid': 6.25}]",20286.69999998808,1669831424763,shreddedwheatwithmilk,ice cream sundae 002,5.19,6.25,1.0599999999999996,shreddedwheatwithmilk,1140.0,1141,1140.5,True,u,21936.69999998808,1650.0,1669831426413,1650,HRV,HRV_0174,2022-11-30 18:08:39
11,"[{'imgObject': {}, 'id': 'blackbeanswithrice', 'src': '/static/foodstim60/blackbeanswithrice.jpg', 'key': 'u', 'origWidth': 410, 'origHeight': 410, 'width': 410, 'height': 410, 'widthPercent': 0.45, 'rescaleHeight': False, 'trialN': 11, 'loaded': True, 'loadedTime': 4618.5, 'positionName': 'LEFT', 'positionCoords': [245.68, 179], 'bid': 3.6}, {'imgObject': {}, 'id': 'roastedpotatoes', 'src': '/static/foodstim60/roastedpotatoes.jpg', 'key': 'i', 'origWidth': 409, 'origHeight': 410, 'width': 409, 'height': 410, 'widthPercent': 0.45, 'rescaleHeight': False, 'trialN': 11, 'loaded': True, 'loadedTime': 4670.199999988079, 'positionName': 'RIGHT', 'positionCoords': [710.32, 179], 'bid': 3.38}]",21937.19999998808,1669831426414,blackbeanswithrice,roastedpotatoes,3.6,3.38,-0.2200000000000002,roastedpotatoes,918.1000000238419,918,918.6000000238419,True,i,23369.19999998808,1432.0,1669831427846,1432,HRV,HRV_0174,2022-11-30 18:08:39
12,"[{'imgObject': {}, 'id': 'pear', 'src': '/static/foodstim60/pear.jpg', 'key': 'u', 'origWidth': 411, 'origHeight': 410, 'width': 411, 'height': 410, 'widthPercent': 0.45, 'rescaleHeight': False, 'trialN': 12, 'loaded': True, 'loadedTime': 3988.300000011921, 'positionName': 'LEFT', 'positionCoords': [244.68, 179], 'bid': 5.1000000000000005}, {'imgObject': {}, 'id': 'fruitsalad', 'src': '/static/foodstim60/fruitsalad.jpg', 'key': 'i', 'origWidth': 410, 'origHeight': 410, 'width': 410, 'height': 410, 'widthPercent': 0.45, 'rescaleHeight': False, 'trialN': 12, 'loaded': True, 'loadedTime': 4724.4000000059605, 'positionName': 'RIGHT', 'positionCoords': [710.32, 179], 'bid': 5.1000000000000005}]",23369.40000000596,1669831427846,pear,fruitsalad,5.1000000000000005,5.1000000000000005,0.0,pear,1099.5,1100,1100.0999999940395,True,u,24986.69999998808,1617.2999999821186,1669831429463,1617,HRV,HRV_0174,2022-11-30 18:08:39
13,"[{'imgObject': {}, 'id': 'apple slices', 'src': '/static/foodstim60/apple slices.jpg', 'key': 'u', 'origWidth': 409, 'origHeight': 410, 'width': 409, 'height': 410, 'widthPercent': 0.45, 'rescaleHeight': False, 'trialN': 13, 'loaded': True, 'loadedTime': 4771.5, 'positionName': 'LEFT', 'positionCoords': [246.68, 179], 'bid': 6.46}, {'imgObject': {}, 'id': 'Grapes', 'src': '/static/foodstim60/Grapes.jpg', 'key': 'i', 'origWidth': 411, 'origHeight': 411, 'width': 411, 'height': 411, 'widthPercent': 0.45, 'rescaleHeight': False, 'trialN': 13, 'loaded': True, 'loadedTime': 4774.699999988079, 'positionName': 'RIGHT', 'positionCoords': [710.32, 178.5], 'bid': 6.47}]",24987.09999999404,1669831429464,apple slices,Grapes,6.46,6.47,0.009999999999999787,Grapes,1472.7000000178814,1473,1473.4000000059605,True,i,26969.40000000596,1982.300000011921,1669831431446,1982,HRV,HRV_0174,2022-11-30 18:08:39
14,"[{'imgObject': {}, 'id': 'eggs', 'src': '/static/foodstim60/eggs.jpg', 'key': 'u', 'origWidth': 409, 'origHeight': 409, 'width': 409, 'height': 409, 'widthPercent': 0.45, 'rescaleHeight': False, 'trialN': 14, 'loaded': True, 'loadedTime': 4789.4000000059605, 'positionName': 'LEFT', 'positionCoords': [246.68, 179.5], 'bid': 4.8500000000000005}, {'imgObject': {}, 'id': 'omelette', 'src': '/static/foodstim60/omelette.jpg', 'key': 'i', 'origWidth': 410, 'origHeight': 409, 'width': 410, 'height': 409, 'widthPercent': 0.45, 'rescaleHeight': False, 'trialN': 14, 'loaded': True, 'loadedTime': 4796, 'positionName': 'RIGHT', 'positionCoords': [710.32, 179.5], 'bid': 4.5}]",26969.69999998808,1669831431446,eggs,omelette,4.8500000000000005,4.5,-0.35000000000000053,omelette,998.0,999,998.4000000059605,True,i,28486.0,1516.300000011921,1669831432963,1517,HRV,HRV_0174,2022-11-30 18:08:39
15,"[{'imgObject': {}, 'id': 'cantaloupe', 'src': '/static/foodstim60/cantaloupe.jpg', 'key': 'u', 'origWidth': 409, 'origHeight': 409, 'width': 409, 'height': 409, 'widthPercent': 0.45, 'rescaleHeight': False, 'trialN': 15, 'loaded': True, 'loadedTime': 4796.800000011921, 'positionName': 'LEFT', 'positionCoords': [246.68, 179.5], 'bid': 0.19}, {'imgObject': {}, 'id': 'cheerios', 'src': '/static/foodstim60/cheerios.jpg', 'key': 'i', 'origWidth': 409, 'origHeight': 410, 'width': 409, 'height': 410, 'widthPercent': 0.45, 'rescaleHeight': False, 'trialN': 15, 'loaded': True, 'loadedTime': 4308.5, 'positionName': 'RIGHT', 'positionCoords': [710.32, 179], 'bid': 5.33}]",28486.30000001192,1669831432963,cantaloupe,cheerios,0.19,5.33,5.14,cheerios,1025.3999999761581,1026,1025.8999999761581,True,i,30018.80000001192,1532.5,1669831434495,1532,HRV,HRV_0174,2022-11-30 18:08:39
16,"[{'imgObject': {}, 'id': 'chicken nuggets2', 'src': '/static/foodstim60/chicken nuggets2.jpg', 'key': 'u', 'origWidth': 410, 'origHeight': 409, 'width': 410, 'height': 409, 'widthPercent': 0.45, 'rescaleHeight': False, 'trialN': 16, 'loaded': True, 'loadedTime': 4801, 'positionName': 'LEFT', 'positionCoords': [245.68, 179.5], 'bid': 1.5}, {'imgObject': {}, 'id': 'omelette', 'src': '/static/foodstim60/omelette.jpg', 'key': 'i', 'origWidth': 410, 'origHeight': 409, 'width': 410, 'height': 409, 'widthPercent': 0.45, 'rescaleHeight': False, 'trialN': 16, 'loaded': True, 'loadedTime': 4794.199999988079, 'positionName': 'RIGHT', 'positionCoords': [710.32, 179.5], 'bid': 4.5}]",30019.0,1669831434496,chicken nuggets2,omelette,1.5,4.5,3.0,omelette,1052.4000000059605,1053,1053.199999988079,True,i,31591.0,1572.0,1669831436068,1572,HRV,HRV_0174,2022-11-30 18:08:39
17,"[{'imgObject': {}, 'id': 'raspberries', 'src': '/static/foodstim60/raspberries.jpg', 'key': 'u', 'origWidth': 411, 'origHeight': 411, 'width': 411, 'height': 411, 'widthPercent': 0.45, 'rescaleHeight': False, 'trialN': 17, 'loaded': True, 'loadedTime': 4808.300000011921, 'positionName': 'LEFT', 'positionCoords': [244.68, 178.5], 'bid': 2.17}, {'imgObject': {}, 'id': 'apple slices', 'src': '/static/foodstim60/apple slices.jpg', 'key': 'i', 'origWidth': 409, 'origHeight': 410, 'width': 409, 'height': 410, 'widthPercent': 0.45, 'rescaleHeight': False, 'trialN': 17, 'loaded': True, 'loadedTime': 4772.199999988079, 'positionName': 'RIGHT', 'positionCoords': [710.32, 179], 'bid': 6.46}]",31591.30000001192,1669831436068,raspberries,apple slices,2.17,6.46,4.29,apple slices,1064.199999988079,1065,1064.699999988079,True,i,33170.5,1579.199999988079,1669831437647,1579,HRV,HRV_0174,2022-11-30 18:08:39
18,"[{'imgObject': {}, 'id': 'rigatoni and sauce', 'src': '/static/foodstim60/rigatoni and sauce.jpg', 'key': 'u', 'origWidth': 410, 'origHeight': 411, 'width': 410, 'height': 411, 'widthPercent': 0.45, 'rescaleHeight': False, 'trialN': 18, 'loaded': True, 'loadedTime': 4077.699999988079, 'positionName': 'LEFT', 'positionCoords': [245.68, 178.5], 'bid': 4.1}, {'imgObject': {}, 'id': 'seaweed', 'src': '/static/foodstim60/seaweed.jpg', 'key': 'i', 'origWidth': 410, 'origHeight': 410, 'width': 410, 'height': 410, 'widthPercent': 0.45, 'rescaleHeight': False, 'trialN': 18, 'loaded': True, 'loadedTime': 4845.5, 'positionName': 'RIGHT', 'positionCoords': [710.32, 179], 'bid': 1.36}]",33171.0,1669831437648,rigatoni and sauce,seaweed,4.1,1.36,-2.7399999999999993,rigatoni and sauce,907.5,908,908.0999999940395,True,u,34586.19999998808,1415.199999988079,1669831439063,1415,HRV,HRV_0174,2022-11-30 18:08:39
19,"[{'imgObject': {}, 'id': 'olives', 'src': '/static/foodstim60/olives.jpg', 'key': 'u', 'origWidth': 410, 'origHeight': 410, 'width': 410, 'height': 410, 'widthPercent': 0.45, 'rescaleHeight': False, 'trialN': 19, 'loaded': True, 'loadedTime': 4057.699999988079, 'positionName': 'LEFT', 'positionCoords': [245.68, 179], 'bid': 4.91}, {'imgObject': {}, 'id': 'cheerios', 'src': '/static/foodstim60/cheerios.jpg', 'key': 'i', 'origWidth': 409, 'origHeight': 410, 'width': 409, 'height': 410, 'widthPercent': 0.45, 'rescaleHeight': False, 'trialN': 19, 'loaded': True, 'loadedTime': 4311.699999988079, 'positionName': 'RIGHT', 'positionCoords': [710.32, 179], 'bid': 5.33}]",34586.40000000596,1669831439063,olives,cheerios,4.91,5.33,0.41999999999999993,cheerios,825.5,826,826.0,True,i,35934.30000001192,1347.9000000059605,1669831440411,1348,HRV,HRV_0174,2022-11-30 18:08:39
20,"[{'imgObject': {}, 'id': 'roastedpotatoes', 'src': '/static/foodstim60/roastedpotatoes.jpg', 'key': 'u', 'origWidth': 409, 'origHeight': 410, 'width': 409, 'height': 410, 'widthPercent': 0.45, 'rescaleHeight': False, 'trialN': 20, 'loaded': True, 'loadedTime': 4677.199999988079, 'positionName': 'LEFT', 'positionCoords': [246.68, 179], 'bid': 3.38}, {'imgObject': {}, 'id': 'eggs', 'src': '/static/foodstim60/eggs.jpg', 'key': 'i', 'origWidth': 409, 'origHeight': 409, 'width': 409, 'height': 409, 'widthPercent': 0.45, 'rescaleHeight': False, 'trialN': 20, 'loaded': True, 'loadedTime': 4791.300000011921, 'positionName': 'RIGHT', 'positionCoords': [710.32, 179.5], 'bid': 4.8500000000000005}]",35934.69999998808,1669831440412,roastedpotatoes,eggs,3.38,4.8500000000000005,1.4700000000000006,roastedpotatoes,1267.2000000178814,1267,1267.6000000238419,True,u,37716.5,1781.800000011921,1669831442194,1782,HRV,HRV_0174,2022-11-30 18:08:39
21,"[{'imgObject': {}, 'id': 'apple slices', 'src': '/static/foodstim60/apple slices.jpg', 'key': 'u', 'origWidth': 409, 'origHeight': 410, 'width': 409, 'height': 410, 'widthPercent': 0.45, 'rescaleHeight': False, 'trialN': 21, 'loaded': True, 'loadedTime': 4762.9000000059605, 'positionName': 'LEFT', 'positionCoords': [246.68, 179], 'bid': 6.46}, {'imgObject': {}, 'id': 'corn cob', 'src': '/static/foodstim60/corn cob.jpg', 'key': 'i', 'origWidth': 411, 'origHeight': 411, 'width': 411, 'height': 411, 'widthPercent': 0.45, 'rescaleHeight': False, 'trialN': 21, 'loaded': True, 'loadedTime': 4850.9000000059605, 'positionName': 'RIGHT', 'positionCoords': [710.32, 178.5], 'bid': 6.99}]",37716.90000000596,1669831442194,apple slices,corn cob,6.46,6.99,0.5300000000000002,corn cob,869.2999999821186,870,869.5999999940395,True,i,39102.30000001192,1385.4000000059605,1669831443579,1385,HRV,HRV_0174,2022-11-30 18:08:39
22,"[{'imgObject': {}, 'id': 'blueberries', 'src': '/static/foodstim60/blueberries.jpg', 'key': 'u', 'origWidth': 411, 'origHeight': 411, 'width': 411, 'height': 411, 'widthPercent': 0.45, 'rescaleHeight': False, 'trialN': 22, 'loaded': True, 'loadedTime': 4082.4000000059605, 'positionName': 'LEFT', 'positionCoords': [244.68, 178.5], 'bid': 2.77}, {'imgObject': {}, 'id': 'hashbrowns', 'src': '/static/foodstim60/hashbrowns.jpg', 'key': 'i', 'origWidth': 411, 'origHeight': 410, 'width': 411, 'height': 410, 'widthPercent': 0.45, 'rescaleHeight': False, 'trialN': 22, 'loaded': True, 'loadedTime': 4914.199999988079, 'positionName': 'RIGHT', 'positionCoords': [710.32, 179], 'bid': 3.37}]",39102.59999999404,1669831443580,blueberries,hashbrowns,2.77,3.37,0.6000000000000001,hashbrowns,755.7000000178814,756,756.0,True,i,40362.30000001192,1259.7000000178814,1669831444839,1259,HRV,HRV_0174,2022-11-30 18:08:39
23,"[{'imgObject': {}, 'id': 'bagel plain', 'src': '/static/foodstim60/bagel plain.jpg', 'key': 'u', 'origWidth': 410, 'origHeight': 410, 'width': 410, 'height': 410, 'widthPercent': 0.45, 'rescaleHeight': False, 'trialN': 23, 'loaded': True, 'loadedTime': 4914.699999988079, 'positionName': 'LEFT', 'positionCoords': [245.68, 179], 'bid': 5.13}, {'imgObject': {}, 'id': 'kiwi', 'src': '/static/foodstim60/kiwi.jpg', 'key': 'i', 'origWidth': 410, 'origHeight': 410, 'width': 410, 'height': 410, 'widthPercent': 0.45, 'rescaleHeight': False, 'trialN': 23, 'loaded': True, 'loadedTime': 4963.199999988079, 'positionName': 'RIGHT', 'positionCoords': [710.32, 179], 'bid': 5.49}]",40362.5,1669831444840,bagel plain,kiwi,5.13,5.49,0.3600000000000003,bagel plain,1014.3000000119209,1014,1014.5999999940395,True,u,41889.30000001192,1526.800000011921,1669831446366,1526,HRV,HRV_0174,2022-11-30 18:08:39
24,"[{'imgObject': {}, 'id': 'salad w chicken', 'src': '/static/foodstim60/salad w chicken.jpg', 'key': 'u', 'origWidth': 411, 'origHeight': 411, 'width': 411, 'height': 411, 'widthPercent': 0.45, 'rescaleHeight': False, 'trialN': 24, 'loaded': True, 'loadedTime': 4963.300000011921, 'positionName': 'LEFT', 'positionCoords': [244.68, 178.5], 'bid': 7.44}, {'imgObject': {}, 'id': 'luckycharms', 'src': '/static/foodstim60/luckycharms.jpg', 'key': 'i', 'origWidth': 410, 'origHeight': 409, 'width': 410, 'height': 409, 'widthPercent': 0.45, 'rescaleHeight': False, 'trialN': 24, 'loaded': True, 'loadedTime': 4254.9000000059605, 'positionName': 'RIGHT', 'positionCoords': [710.32, 179.5], 'bid': 6.18}]",41889.59999999404,1669831446367,salad w chicken,luckycharms,7.44,6.18,-1.2600000000000007,salad w chicken,1133.0,1133,1133.4000000059605,True,u,43528.0,1638.4000000059605,1669831448005,1638,HRV,HRV_0174,2022-11-30 18:08:39
25,"[{'imgObject': {}, 'id': 'grilled chicken strips', 'src': '/static/foodstim60/grilled chicken strips.jpg', 'key': 'u', 'origWidth': 410, 'origHeight': 411, 'width': 410, 'height': 411, 'widthPercent': 0.45, 'rescaleHeight': False, 'trialN': 25, 'loaded': True, 'loadedTime': 5022.5999999940395, 'positionName': 'LEFT', 'positionCoords': [245.68, 178.5], 'bid': 7.19}, {'imgObject': {}, 'id': 'lox', 'src': '/static/foodstim60/lox.jpg', 'key': 'i', 'origWidth': 410, 'origHeight': 411, 'width': 410, 'height': 411, 'widthPercent': 0.45, 'rescaleHeight': False, 'trialN': 25, 'loaded': True, 'loadedTime': 5027.4000000059605, 'positionName': 'RIGHT', 'positionCoords': [710.32, 178.5], 'bid': 6.36}]",43528.30000001192,1669831448005,grilled chicken strips,lox,7.19,6.36,-0.8300000000000001,grilled chicken strips,1107.0999999940395,1108,1107.7999999821186,True,u,45151.69999998808,1623.3999999761581,1669831449629,1624,HRV,HRV_0174,2022-11-30 18:08:39
26,"[{'imgObject': {}, 'id': 'grilled chicken strips', 'src': '/static/foodstim60/grilled chicken strips.jpg', 'key': 'u', 'origWidth': 410, 'origHeight': 411, 'width': 410, 'height': 411, 'widthPercent': 0.45, 'rescaleHeight': False, 'trialN': 26, 'loaded': True, 'loadedTime': 5022.0999999940395, 'positionName': 'LEFT', 'positionCoords': [245.68, 178.5], 'bid': 7.19}, {'imgObject': {}, 'id': 'chickenfingers', 'src': '/static/foodstim60/chickenfingers.jpg', 'key': 'i', 'origWidth': 410, 'origHeight': 410, 'width': 410, 'height': 410, 'widthPercent': 0.45, 'rescaleHeight': False, 'trialN': 26, 'loaded': True, 'loadedTime': 4462.5, 'positionName': 'RIGHT', 'positionCoords': [710.32, 179], 'bid': 5.8100000000000005}]",45152.0,1669831449629,grilled chicken strips,chickenfingers,7.19,5.8100000000000005,-1.38,grilled chicken strips,1058.0999999940395,1059,1058.5999999940395,True,u,46726.09999999404,1574.0999999940395,1669831451203,1574,HRV,HRV_0174,2022-11-30 18:08:39
27,"[{'imgObject': {}, 'id': 'hashbrowns', 'src': '/static/foodstim60/hashbrowns.jpg', 'key': 'u', 'origWidth': 411, 'origHeight': 410, 'width': 411, 'height': 410, 'widthPercent': 0.45, 'rescaleHeight': False, 'trialN': 27, 'loaded': True, 'loadedTime': 4856.199999988079, 'positionName': 'LEFT', 'positionCoords': [244.68, 179], 'bid': 3.37}, {'imgObject': {}, 'id': 'burrito', 'src': '/static/foodstim60/burrito.jpg', 'key': 'i', 'origWidth': 410, 'origHeight': 410, 'width': 410, 'height': 410, 'widthPercent': 0.45, 'rescaleHeight': False, 'trialN': 27, 'loaded': True, 'loadedTime': 5085.4000000059605, 'positionName': 'RIGHT', 'positionCoords': [710.32, 179], 'bid': 6.96}]",46726.40000000596,1669831451203,hashbrowns,burrito,3.37,6.96,3.59,burrito,951.4000000059605,952,951.9000000059605,True,i,48184.90000000596,1458.5,1669831452662,1459,HRV,HRV_0174,2022-11-30 18:08:39
28,"[{'imgObject': {}, 'id': 'salmon', 'src': '/static/foodstim60/salmon.jpg', 'key': 'u', 'origWidth': 410, 'origHeight': 409, 'width': 410, 'height': 409, 'widthPercent': 0.45, 'rescaleHeight': False, 'trialN': 28, 'loaded': True, 'loadedTime': 4357.300000011921, 'positionName': 'LEFT', 'positionCoords': [245.68, 179.5], 'bid': 7.75}, {'imgObject': {}, 'id': 'turkey sandwich', 'src': '/static/foodstim60/turkey sandwich.jpg', 'key': 'i', 'origWidth': 409, 'origHeight': 409, 'width': 409, 'height': 409, 'widthPercent': 0.45, 'rescaleHeight': False, 'trialN': 28, 'loaded': True, 'loadedTime': 5092.5999999940395, 'positionName': 'RIGHT', 'positionCoords': [710.32, 179.5], 'bid': 7.84}]",48185.30000001192,1669831452662,salmon,turkey sandwich,7.75,7.84,0.08999999999999986,salmon,1037.5,1038,1037.8999999761581,True,u,49731.30000001192,1546.0,1669831454208,1546,HRV,HRV_0174,2022-11-30 18:08:39
29,"[{'imgObject': {}, 'id': 'strawberries', 'src': '/static/foodstim60/strawberries.jpg', 'key': 'u', 'origWidth': 410, 'origHeight': 410, 'width': 410, 'height': 410, 'widthPercent': 0.45, 'rescaleHeight': False, 'trialN': 29, 'loaded': True, 'loadedTime': 5092.9000000059605, 'positionName': 'LEFT', 'positionCoords': [245.68, 179], 'bid': 9.71}, {'imgObject': {}, 'id': 'Grapes', 'src': '/static/foodstim60/Grapes.jpg', 'key': 'i', 'origWidth': 411, 'origHeight': 411, 'width': 411, 'height': 411, 'widthPercent': 0.45, 'rescaleHeight': False, 'trialN': 29, 'loaded': True, 'loadedTime': 4772.5999999940395, 'positionName': 'RIGHT', 'positionCoords': [710.32, 178.5], 'bid': 6.47}]",49731.5,1669831454209,strawberries,Grapes,9.71,6.47,-3.240000000000001,strawberries,699.0,699,699.6999999880791,True,u,50937.19999998808,1205.699999988079,1669831455414,1205,HRV,HRV_0174,2022-11-30 18:08:39
30,"[{'imgObject': {}, 'id': 'ice cream sundae 002', 'src': '/static/foodstim60/ice cream sundae 002.jpg', 'key': 'u', 'origWidth': 409, 'origHeight': 409, 'width': 409, 'height': 409, 'widthPercent': 0.45, 'rescaleHeight': False, 'trialN': 30, 'loaded': True, 'loadedTime': 4186.699999988079, 'positionName': 'LEFT', 'positionCoords': [246.68, 179.5], 'bid': 6.25}, {'imgObject': {}, 'id': 'burrito', 'src': '/static/foodstim60/burrito.jpg', 'key': 'i', 'origWidth': 410, 'origHeight': 410, 'width': 410, 'height': 410, 'widthPercent': 0.45, 'rescaleHeight': False, 'trialN': 30, 'loaded': True, 'loadedTime': 5028, 'positionName': 'RIGHT', 'positionCoords': [710.32, 179], 'bid': 6.96}]",50937.69999998808,1669831455415,ice cream sundae 002,burrito,6.25,6.96,0.71,burrito,832.0,832,832.4000000059605,True,i,52284.90000000596,1347.2000000178814,1669831456762,1347,HRV,HRV_0174,2022-11-30 18:08:39
31,"[{'imgObject': {}, 'id': 'mashed potato', 'src': '/static/foodstim60/mashed potato.jpg', 'key': 'u', 'origWidth': 409, 'origHeight': 409, 'width': 409, 'height': 409, 'widthPercent': 0.45, 'rescaleHeight': False, 'trialN': 31, 'loaded': True, 'loadedTime': 5160.0999999940395, 'positionName': 'LEFT', 'positionCoords': [246.68, 179.5], 'bid': 3.31}, {'imgObject': {}, 'id': 'turkeysandwich', 'src': '/static/foodstim60/turkeysandwich.jpg', 'key': 'i', 'origWidth': 409, 'origHeight': 409, 'width': 409, 'height': 409, 'widthPercent': 0.45, 'rescaleHeight': False, 'trialN': 31, 'loaded': True, 'loadedTime': 5163.800000011921, 'positionName': 'RIGHT', 'positionCoords': [710.32, 179.5], 'bid': 6.53}]",52285.19999998808,1669831456762,mashed potato,turkeysandwich,3.31,6.53,3.22,turkeysandwich,881.6000000238419,882,882.0,True,i,53685.19999998808,1400.0,1669831458162,1400,HRV,HRV_0174,2022-11-30 18:08:39
32,"[{'imgObject': {}, 'id': 'cantaloupe', 'src': '/static/foodstim60/cantaloupe.jpg', 'key': 'u', 'origWidth': 409, 'origHeight': 409, 'width': 409, 'height': 409, 'widthPercent': 0.45, 'rescaleHeight': False, 'trialN': 32, 'loaded': True, 'loadedTime': 4800.5999999940395, 'positionName': 'LEFT', 'positionCoords': [246.68, 179.5], 'bid': 0.19}, {'imgObject': {}, 'id': 'raspberries', 'src': '/static/foodstim60/raspberries.jpg', 'key': 'i', 'origWidth': 411, 'origHeight': 411, 'width': 411, 'height': 411, 'widthPercent': 0.45, 'rescaleHeight': False, 'trialN': 32, 'loaded': True, 'loadedTime': 4808.5999999940395, 'positionName': 'RIGHT', 'positionCoords': [710.32, 178.5], 'bid': 2.17}]",53685.59999999404,1669831458163,cantaloupe,raspberries,0.19,2.17,1.98,raspberries,859.7000000178814,860,860.2000000178814,True,i,55051.09999999404,1365.5,1669831459528,1365,HRV,HRV_0174,2022-11-30 18:08:39
33,"[{'imgObject': {}, 'id': 'granola w milk', 'src': '/static/foodstim60/granola w milk.jpg', 'key': 'u', 'origWidth': 410, 'origHeight': 410, 'width': 410, 'height': 410, 'widthPercent': 0.45, 'rescaleHeight': False, 'trialN': 33, 'loaded': True, 'loadedTime': 5166.699999988079, 'positionName': 'LEFT', 'positionCoords': [245.68, 179], 'bid': 5.2700000000000005}, {'imgObject': {}, 'id': 'omelette', 'src': '/static/foodstim60/omelette.jpg', 'key': 'i', 'origWidth': 410, 'origHeight': 409, 'width': 410, 'height': 409, 'widthPercent': 0.45, 'rescaleHeight': False, 'trialN': 33, 'loaded': True, 'loadedTime': 4795, 'positionName': 'RIGHT', 'positionCoords': [710.32, 179.5], 'bid': 4.5}]",55051.30000001192,1669831459528,granola w milk,omelette,5.2700000000000005,4.5,-0.7700000000000005,granola w milk,1249.199999988079,1250,1249.7999999821186,True,u,56819.0,1767.699999988079,1669831461296,1768,HRV,HRV_0174,2022-11-30 18:08:39
34,"[{'imgObject': {}, 'id': 'raisin bran w milk', 'src': '/static/foodstim60/raisin bran w milk.jpg', 'key': 'u', 'origWidth': 411, 'origHeight': 411, 'width': 411, 'height': 411, 'widthPercent': 0.45, 'rescaleHeight': False, 'trialN': 34, 'loaded': True, 'loadedTime': 5173.300000011921, 'positionName': 'LEFT', 'positionCoords': [244.68, 178.5], 'bid': 5.36}, {'imgObject': {}, 'id': 'kiwi', 'src': '/static/foodstim60/kiwi.jpg', 'key': 'i', 'origWidth': 410, 'origHeight': 410, 'width': 410, 'height': 410, 'widthPercent': 0.45, 'rescaleHeight': False, 'trialN': 34, 'loaded': True, 'loadedTime': 4920.5, 'positionName': 'RIGHT', 'positionCoords': [710.32, 179], 'bid': 5.49}]",56819.30000001192,1669831461296,raisin bran w milk,kiwi,5.36,5.49,0.1299999999999999,kiwi,1240.8999999761581,1242,1241.3999999761581,True,i,58583.09999999404,1763.7999999821186,1669831463060,1764,HRV,HRV_0174,2022-11-30 18:08:39
35,"[{'imgObject': {}, 'id': 'hotdog w must', 'src': '/static/foodstim60/hotdog w must.jpg', 'key': 'u', 'origWidth': 409, 'origHeight': 409, 'width': 409, 'height': 409, 'widthPercent': 0.45, 'rescaleHeight': False, 'trialN': 35, 'loaded': True, 'loadedTime': 5230.800000011921, 'positionName': 'LEFT', 'positionCoords': [246.68, 179.5], 'bid': 5.48}, {'imgObject': {}, 'id': 'popsicles', 'src': '/static/foodstim60/popsicles.jpg', 'key': 'i', 'origWidth': 410, 'origHeight': 410, 'width': 410, 'height': 410, 'widthPercent': 0.45, 'rescaleHeight': False, 'trialN': 35, 'loaded': True, 'loadedTime': 5409.9000000059605, 'positionName': 'RIGHT', 'positionCoords': [710.32, 179], 'bid': 7.0200000000000005}]",58583.5,1669831463061,hotdog w must,popsicles,5.48,7.0200000000000005,1.54,popsicles,1200.5999999940395,1201,1201.0999999940395,True,i,60300.40000000596,1716.9000000059605,1669831464777,1716,HRV,HRV_0174,2022-11-30 18:08:39
36,"[{'imgObject': {}, 'id': 'bagel plain', 'src': '/static/foodstim60/bagel plain.jpg', 'key': 'u', 'origWidth': 410, 'origHeight': 410, 'width': 410, 'height': 410, 'widthPercent': 0.45, 'rescaleHeight': False, 'trialN': 36, 'loaded': True, 'loadedTime': 4916.5999999940395, 'positionName': 'LEFT', 'positionCoords': [245.68, 179], 'bid': 5.13}, {'imgObject': {}, 'id': 'bagel and cc', 'src': '/static/foodstim60/bagel and cc.jpg', 'key': 'i', 'origWidth': 410, 'origHeight': 410, 'width': 410, 'height': 410, 'widthPercent': 0.45, 'rescaleHeight': False, 'trialN': 36, 'loaded': True, 'loadedTime': 5234.5, 'positionName': 'RIGHT', 'positionCoords': [710.32, 179], 'bid': 6.18}]",60300.69999998808,1669831464778,bagel plain,bagel and cc,5.13,6.18,1.0499999999999998,bagel and cc,1247.800000011921,1248,1248.6000000238419,True,i,62069.69999998808,1769.0,1669831466547,1769,HRV,HRV_0174,2022-11-30 18:08:39
37,"[{'imgObject': {}, 'id': 'veggieswithdip', 'src': '/static/foodstim60/veggieswithdip.jpg', 'key': 'u', 'origWidth': 409, 'origHeight': 409, 'width': 409, 'height': 409, 'widthPercent': 0.45, 'rescaleHeight': False, 'trialN': 37, 'loaded': True, 'loadedTime': 5243.199999988079, 'positionName': 'LEFT', 'positionCoords': [246.68, 179.5], 'bid': 7.09}, {'imgObject': {}, 'id': 'steak', 'src': '/static/foodstim60/steak.jpg', 'key': 'i', 'origWidth': 410, 'origHeight': 410, 'width': 410, 'height': 410, 'widthPercent': 0.45, 'rescaleHeight': False, 'trialN': 37, 'loaded': True, 'loadedTime': 5251.0999999940395, 'positionName': 'RIGHT', 'positionCoords': [710.32, 179], 'bid': 9.89}]",62070.0,1669831466547,veggieswithdip,steak,7.09,9.89,2.8000000000000007,steak,1177.699999988079,1178,1178.0999999940395,True,i,63760.80000001192,1690.800000011921,1669831468238,1691,HRV,HRV_0174,2022-11-30 18:08:39
38,"[{'imgObject': {}, 'id': 'lox', 'src': '/static/foodstim60/lox.jpg', 'key': 'u', 'origWidth': 410, 'origHeight': 411, 'width': 410, 'height': 411, 'widthPercent': 0.45, 'rescaleHeight': False, 'trialN': 38, 'loaded': True, 'loadedTime': 5026.9000000059605, 'positionName': 'LEFT', 'positionCoords': [245.68, 178.5], 'bid': 6.36}, {'imgObject': {}, 'id': 'burger', 'src': '/static/foodstim60/burger.jpg', 'key': 'i', 'origWidth': 409, 'origHeight': 409, 'width': 409, 'height': 409, 'widthPercent': 0.45, 'rescaleHeight': False, 'trialN': 38, 'loaded': True, 'loadedTime': 5254.800000011921, 'positionName': 'RIGHT', 'positionCoords': [710.32, 179.5], 'bid': 6.47}]",63761.19999998808,1669831468238,lox,burger,6.36,6.47,0.10999999999999943,burger,1200.9000000059605,1202,1201.7000000178814,True,i,65464.80000001192,1703.6000000238419,1669831469942,1704,HRV,HRV_0174,2022-11-30 18:08:39
39,"[{'imgObject': {}, 'id': 'sushi w_condiments', 'src': '/static/foodstim60/sushi w_condiments.jpg', 'key': 'u', 'origWidth': 410, 'origHeight': 410, 'width': 410, 'height': 410, 'widthPercent': 0.45, 'rescaleHeight': False, 'trialN': 39, 'loaded': True, 'loadedTime': 5265.9000000059605, 'positionName': 'LEFT', 'positionCoords': [245.68, 179], 'bid': 7.65}, {'imgObject': {}, 'id': 'Grapes', 'src': '/static/foodstim60/Grapes.jpg', 'key': 'i', 'origWidth': 411, 'origHeight': 411, 'width': 411, 'height': 411, 'widthPercent': 0.45, 'rescaleHeight': False, 'trialN': 39, 'loaded': True, 'loadedTime': 4775.0999999940395, 'positionName': 'RIGHT', 'positionCoords': [710.32, 178.5], 'bid': 6.47}]",65465.09999999404,1669831469942,sushi w_condiments,Grapes,7.65,6.47,-1.1800000000000006,sushi w_condiments,1592.2000000178814,1593,1592.5999999940395,True,u,67571.80000001192,2106.7000000178814,1669831472049,2107,HRV,HRV_0174,2022-11-30 18:08:39
40,"[{'imgObject': {}, 'id': 'strawberries', 'src': '/static/foodstim60/strawberries.jpg', 'key': 'u', 'origWidth': 410, 'origHeight': 410, 'width': 410, 'height': 410, 'widthPercent': 0.45, 'rescaleHeight': False, 'trialN': 40, 'loaded': True, 'loadedTime': 5098.800000011921, 'positionName': 'LEFT', 'positionCoords': [245.68, 179], 'bid': 9.71}, {'imgObject': {}, 'id': 'salad w chicken', 'src': '/static/foodstim60/salad w chicken.jpg', 'key': 'i', 'origWidth': 411, 'origHeight': 411, 'width': 411, 'height': 411, 'widthPercent': 0.45, 'rescaleHeight': False, 'trialN': 40, 'loaded': True, 'loadedTime': 4968.800000011921, 'positionName': 'RIGHT', 'positionCoords': [710.32, 178.5], 'bid': 7.44}]",67572.09999999404,1669831472049,strawberries,salad w chicken,9.71,7.44,-2.2700000000000005,strawberries,803.4000000059605,804,803.9000000059605,True,u,68883.90000000596,1311.800000011921,1669831473361,1312,HRV,HRV_0174,2022-11-30 18:08:39
41,"[{'imgObject': {}, 'id': 'strawberries', 'src': '/static/foodstim60/strawberries.jpg', 'key': 'u', 'origWidth': 410, 'origHeight': 410, 'width': 410, 'height': 410, 'widthPercent': 0.45, 'rescaleHeight': False, 'trialN': 41, 'loaded': True, 'loadedTime': 5100.4000000059605, 'positionName': 'LEFT', 'positionCoords': [245.68, 179], 'bid': 9.71}, {'imgObject': {}, 'id': 'steak', 'src': '/static/foodstim60/steak.jpg', 'key': 'i', 'origWidth': 410, 'origHeight': 410, 'width': 410, 'height': 410, 'widthPercent': 0.45, 'rescaleHeight': False, 'trialN': 41, 'loaded': True, 'loadedTime': 5248, 'positionName': 'RIGHT', 'positionCoords': [710.32, 179], 'bid': 9.89}]",68884.19999998808,1669831473361,strawberries,steak,9.71,9.89,0.17999999999999972,strawberries,664.3000000119209,665,665.0,True,u,70067.09999999404,1182.9000000059605,1669831474544,1183,HRV,HRV_0174,2022-11-30 18:08:39
42,"[{'imgObject': {}, 'id': 'yogurt no spoon', 'src': '/static/foodstim60/yogurt no spoon.jpg', 'key': 'u', 'origWidth': 411, 'origHeight': 410, 'width': 411, 'height': 410, 'widthPercent': 0.45, 'rescaleHeight': False, 'trialN': 42, 'loaded': True, 'loadedTime': 5297.5, 'positionName': 'LEFT', 'positionCoords': [244.68, 179], 'bid': 3.84}, {'imgObject': {}, 'id': 'popsicles', 'src': '/static/foodstim60/popsicles.jpg', 'key': 'i', 'origWidth': 410, 'origHeight': 410, 'width': 410, 'height': 410, 'widthPercent': 0.45, 'rescaleHeight': False, 'trialN': 42, 'loaded': True, 'loadedTime': 5409.5999999940395, 'positionName': 'RIGHT', 'positionCoords': [710.32, 179], 'bid': 7.0200000000000005}]",70067.5,1669831474545,yogurt no spoon,popsicles,3.84,7.0200000000000005,3.1800000000000006,popsicles,1932.800000011921,1933,1933.199999988079,True,i,72518.0,2450.5,1669831476995,2450,HRV,HRV_0174,2022-11-30 18:08:39
43,"[{'imgObject': {}, 'id': 'raisin bran w milk', 'src': '/static/foodstim60/raisin bran w milk.jpg', 'key': 'u', 'origWidth': 411, 'origHeight': 411, 'width': 411, 'height': 411, 'widthPercent': 0.45, 'rescaleHeight': False, 'trialN': 43, 'loaded': True, 'loadedTime': 5173.199999988079, 'positionName': 'LEFT', 'positionCoords': [244.68, 178.5], 'bid': 5.36}, {'imgObject': {}, 'id': 'eggs', 'src': '/static/foodstim60/eggs.jpg', 'key': 'i', 'origWidth': 409, 'origHeight': 409, 'width': 409, 'height': 409, 'widthPercent': 0.45, 'rescaleHeight': False, 'trialN': 43, 'loaded': True, 'loadedTime': 4790, 'positionName': 'RIGHT', 'positionCoords': [710.32, 179.5], 'bid': 4.8500000000000005}]",72518.19999998808,1669831476995,raisin bran w milk,eggs,5.36,4.8500000000000005,-0.5099999999999998,raisin bran w milk,1867.7000000178814,1869,1868.4000000059605,True,u,74899.5,2381.300000011921,1669831479377,2382,HRV,HRV_0174,2022-11-30 18:08:39
44,"[{'imgObject': {}, 'id': 'chicken nuggets2', 'src': '/static/foodstim60/chicken nuggets2.jpg', 'key': 'u', 'origWidth': 410, 'origHeight': 409, 'width': 410, 'height': 409, 'widthPercent': 0.45, 'rescaleHeight': False, 'trialN': 44, 'loaded': True, 'loadedTime': 4803, 'positionName': 'LEFT', 'positionCoords': [245.68, 179.5], 'bid': 1.5}, {'imgObject': {}, 'id': 'raspberries', 'src': '/static/foodstim60/raspberries.jpg', 'key': 'i', 'origWidth': 411, 'origHeight': 411, 'width': 411, 'height': 411, 'widthPercent': 0.45, 'rescaleHeight': False, 'trialN': 44, 'loaded': True, 'loadedTime': 4809.9000000059605, 'positionName': 'RIGHT', 'positionCoords': [710.32, 178.5], 'bid': 2.17}]",74899.90000000596,1669831479377,chicken nuggets2,raspberries,1.5,2.17,0.6699999999999999,chicken nuggets2,1080.0999999940395,1081,1080.7999999821186,True,u,76500.40000000596,1600.5,1669831480977,1600,HRV,HRV_0174,2022-11-30 18:08:39
45,"[{'imgObject': {}, 'id': 'roastedpotatoes', 'src': '/static/foodstim60/roastedpotatoes.jpg', 'key': 'u', 'origWidth': 409, 'origHeight': 410, 'width': 409, 'height': 410, 'widthPercent': 0.45, 'rescaleHeight': False, 'trialN': 45, 'loaded': True, 'loadedTime': 4671, 'positionName': 'LEFT', 'positionCoords': [246.68, 179], 'bid': 3.38}, {'imgObject': {}, 'id': 'yogurt no spoon', 'src': '/static/foodstim60/yogurt no spoon.jpg', 'key': 'i', 'origWidth': 411, 'origHeight': 410, 'width': 411, 'height': 410, 'widthPercent': 0.45, 'rescaleHeight': False, 'trialN': 45, 'loaded': True, 'loadedTime': 5296.5, 'positionName': 'RIGHT', 'positionCoords': [710.32, 179], 'bid': 3.84}]",76500.69999998808,1669831480978,roastedpotatoes,yogurt no spoon,3.38,3.84,0.45999999999999996,yogurt no spoon,1895.2000000178814,1896,1895.800000011921,True,i,78916.19999998808,2415.5,1669831483393,2415,HRV,HRV_0174,2022-11-30 18:08:39
46,"[{'imgObject': {}, 'id': 'blackbeanswithrice', 'src': '/static/foodstim60/blackbeanswithrice.jpg', 'key': 'u', 'origWidth': 410, 'origHeight': 410, 'width': 410, 'height': 410, 'widthPercent': 0.45, 'rescaleHeight': False, 'trialN': 46, 'loaded': True, 'loadedTime': 4658.0999999940395, 'positionName': 'LEFT', 'positionCoords': [245.68, 179], 'bid': 3.6}, {'imgObject': {}, 'id': 'froot loops w milk', 'src': '/static/foodstim60/froot loops w milk.jpg', 'key': 'i', 'origWidth': 410, 'origHeight': 410, 'width': 410, 'height': 410, 'widthPercent': 0.45, 'rescaleHeight': False, 'trialN': 46, 'loaded': True, 'loadedTime': 5305.0999999940395, 'positionName': 'RIGHT', 'positionCoords': [710.32, 179], 'bid': 4.8500000000000005}]",78916.59999999404,1669831483394,blackbeanswithrice,froot loops w milk,3.6,4.8500000000000005,1.2500000000000004,froot loops w milk,837.5999999940395,838,838.0999999940395,True,i,80266.69999998808,1350.0999999940395,1669831484744,1350,HRV,HRV_0174,2022-11-30 18:08:39
47,"[{'imgObject': {}, 'id': 'seaweed', 'src': '/static/foodstim60/seaweed.jpg', 'key': 'u', 'origWidth': 410, 'origHeight': 410, 'width': 410, 'height': 410, 'widthPercent': 0.45, 'rescaleHeight': False, 'trialN': 47, 'loaded': True, 'loadedTime': 4846, 'positionName': 'LEFT', 'positionCoords': [245.68, 179], 'bid': 1.36}, {'imgObject': {}, 'id': 'mac & cheese', 'src': '/static/foodstim60/mac & cheese.jpg', 'key': 'i', 'origWidth': 410, 'origHeight': 410, 'width': 410, 'height': 410, 'widthPercent': 0.45, 'rescaleHeight': False, 'trialN': 47, 'loaded': True, 'loadedTime': 4089.0999999940395, 'positionName': 'RIGHT', 'positionCoords': [710.32, 179], 'bid': 1.8}]",80266.90000000596,1669831484744,seaweed,mac & cheese,1.36,1.8,0.43999999999999995,mac & cheese,941.0999999940395,942,941.7999999821186,True,i,81714.30000001192,1447.4000000059605,1669831486191,1447,HRV,HRV_0174,2022-11-30 18:08:39
48,"[{'imgObject': {}, 'id': 'eggs', 'src': '/static/foodstim60/eggs.jpg', 'key': 'u', 'origWidth': 409, 'origHeight': 409, 'width': 409, 'height': 409, 'widthPercent': 0.45, 'rescaleHeight': False, 'trialN': 48, 'loaded': True, 'loadedTime': 4788, 'positionName': 'LEFT', 'positionCoords': [246.68, 179.5], 'bid': 4.8500000000000005}, {'imgObject': {}, 'id': 'froot loops w milk', 'src': '/static/foodstim60/froot loops w milk.jpg', 'key': 'i', 'origWidth': 410, 'origHeight': 410, 'width': 410, 'height': 410, 'widthPercent': 0.45, 'rescaleHeight': False, 'trialN': 48, 'loaded': True, 'loadedTime': 5305, 'positionName': 'RIGHT', 'positionCoords': [710.32, 179], 'bid': 4.8500000000000005}]",81714.69999998808,1669831486192,eggs,froot loops w milk,4.8500000000000005,4.8500000000000005,0.0,froot loops w milk,1568.9000000059605,1569,1569.7000000178814,True,i,83791.59999999404,2076.9000000059605,1669831488269,2077,HRV,HRV_0174,2022-11-30 18:08:39
49,"[{'imgObject': {}, 'id': 'kiwi', 'src': '/static/foodstim60/kiwi.jpg', 'key': 'u', 'origWidth': 410, 'origHeight': 410, 'width': 410, 'height': 410, 'widthPercent': 0.45, 'rescaleHeight': False, 'trialN': 49, 'loaded': True, 'loadedTime': 4954.300000011921, 'positionName': 'LEFT', 'positionCoords': [245.68, 179], 'bid': 5.49}, {'imgObject': {}, 'id': 'chickenfingers', 'src': '/static/foodstim60/chickenfingers.jpg', 'key': 'i', 'origWidth': 410, 'origHeight': 410, 'width': 410, 'height': 410, 'widthPercent': 0.45, 'rescaleHeight': False, 'trialN': 49, 'loaded': True, 'loadedTime': 4412.199999988079, 'positionName': 'RIGHT', 'positionCoords': [710.32, 179], 'bid': 5.8100000000000005}]",83792.19999998808,1669831488269,kiwi,chickenfingers,5.49,5.8100000000000005,0.3200000000000003,chickenfingers,1315.6000000238419,1316,1316.1000000238419,True,i,85618.59999999404,1826.4000000059605,1669831490096,1827,HRV,HRV_0174,2022-11-30 18:08:39
50,"[{'imgObject': {}, 'id': 'popsicles', 'src': '/static/foodstim60/popsicles.jpg', 'key': 'u', 'origWidth': 410, 'origHeight': 410, 'width': 410, 'height': 410, 'widthPercent': 0.45, 'rescaleHeight': False, 'trialN': 50, 'loaded': True, 'loadedTime': 5410.300000011921, 'positionName': 'LEFT', 'positionCoords': [245.68, 179], 'bid': 7.0200000000000005}, {'imgObject': {}, 'id': 'strawberries', 'src': '/static/foodstim60/strawberries.jpg', 'key': 'i', 'origWidth': 410, 'origHeight': 410, 'width': 410, 'height': 410, 'widthPercent': 0.45, 'rescaleHeight': False, 'trialN': 50, 'loaded': True, 'loadedTime': 5099.0999999940395, 'positionName': 'RIGHT', 'positionCoords': [710.32, 179], 'bid': 9.71}]",85618.90000000596,1669831490096,popsicles,strawberries,7.0200000000000005,9.71,2.6900000000000004,strawberries,858.0999999940395,858,858.5,True,i,86998.19999998808,1379.2999999821186,1669831491475,1379,HRV,HRV_0174,2022-11-30 18:08:39
51,"[{'imgObject': {}, 'id': 'grilled chicken strips', 'src': '/static/foodstim60/grilled chicken strips.jpg', 'key': 'u', 'origWidth': 410, 'origHeight': 411, 'width': 410, 'height': 411, 'widthPercent': 0.45, 'rescaleHeight': False, 'trialN': 51, 'loaded': True, 'loadedTime': 4973.4000000059605, 'positionName': 'LEFT', 'positionCoords': [245.68, 178.5], 'bid': 7.19}, {'imgObject': {}, 'id': 'popsicles', 'src': '/static/foodstim60/popsicles.jpg', 'key': 'i', 'origWidth': 410, 'origHeight': 410, 'width': 410, 'height': 410, 'widthPercent': 0.45, 'rescaleHeight': False, 'trialN': 51, 'loaded': True, 'loadedTime': 5410.0999999940395, 'positionName': 'RIGHT', 'positionCoords': [710.32, 179], 'bid': 7.0200000000000005}]",86998.80000001192,1669831491476,grilled chicken strips,popsicles,7.19,7.0200000000000005,-0.16999999999999993,popsicles,1138.199999988079,1139,1138.8999999761581,True,i,88648.80000001192,1650.0,1669831493126,1650,HRV,HRV_0174,2022-11-30 18:08:39
52,"[{'imgObject': {}, 'id': 'burger', 'src': '/static/foodstim60/burger.jpg', 'key': 'u', 'origWidth': 409, 'origHeight': 409, 'width': 409, 'height': 409, 'widthPercent': 0.45, 'rescaleHeight': False, 'trialN': 52, 'loaded': True, 'loadedTime': 5258.199999988079, 'positionName': 'LEFT', 'positionCoords': [246.68, 179.5], 'bid': 6.47}, {'imgObject': {}, 'id': 'salad w chicken', 'src': '/static/foodstim60/salad w chicken.jpg', 'key': 'i', 'origWidth': 411, 'origHeight': 411, 'width': 411, 'height': 411, 'widthPercent': 0.45, 'rescaleHeight': False, 'trialN': 52, 'loaded': True, 'loadedTime': 4969.5999999940395, 'positionName': 'RIGHT', 'positionCoords': [710.32, 178.5], 'bid': 7.44}]",88649.19999998808,1669831493126,burger,salad w chicken,6.47,7.44,0.9700000000000006,salad w chicken,1132.5,1133,1133.2000000178814,True,i,90294.90000000596,1645.7000000178814,1669831494772,1646,HRV,HRV_0174,2022-11-30 18:08:39
53,"[{'imgObject': {}, 'id': 'cherry tomato', 'src': '/static/foodstim60/cherry tomato.jpg', 'key': 'u', 'origWidth': 410, 'origHeight': 410, 'width': 410, 'height': 410, 'widthPercent': 0.45, 'rescaleHeight': False, 'trialN': 53, 'loaded': True, 'loadedTime': 4510.5999999940395, 'positionName': 'LEFT', 'positionCoords': [245.68, 179], 'bid': 6.140000000000001}, {'imgObject': {}, 'id': 'burger', 'src': '/static/foodstim60/burger.jpg', 'key': 'i', 'origWidth': 409, 'origHeight': 409, 'width': 409, 'height': 409, 'widthPercent': 0.45, 'rescaleHeight': False, 'trialN': 53, 'loaded': True, 'loadedTime': 5255.4000000059605, 'positionName': 'RIGHT', 'positionCoords': [710.32, 179.5], 'bid': 6.47}]",90295.5,1669831494773,cherry tomato,burger,6.140000000000001,6.47,0.3299999999999992,burger,1095.9000000059605,1096,1096.5,True,i,91900.80000001192,1605.300000011921,1669831496378,1605,HRV,HRV_0174,2022-11-30 18:08:39
54,"[{'imgObject': {}, 'id': 'chicken nuggets2', 'src': '/static/foodstim60/chicken nuggets2.jpg', 'key': 'u', 'origWidth': 410, 'origHeight': 409, 'width': 410, 'height': 409, 'widthPercent': 0.45, 'rescaleHeight': False, 'trialN': 54, 'loaded': True, 'loadedTime': 4804, 'positionName': 'LEFT', 'positionCoords': [245.68, 179.5], 'bid': 1.5}, {'imgObject': {}, 'id': 'edamame', 'src': '/static/foodstim60/edamame.jpg', 'key': 'i', 'origWidth': 409, 'origHeight': 410, 'width': 409, 'height': 410, 'widthPercent': 0.45, 'rescaleHeight': False, 'trialN': 54, 'loaded': True, 'loadedTime': 5308.699999988079, 'positionName': 'RIGHT', 'positionCoords': [710.32, 179], 'bid': 1.99}]",91901.19999998808,1669831496378,chicken nuggets2,edamame,1.5,1.99,0.49,edamame,1353.1000000238419,1354,1353.5,True,i,93760.0,1858.800000011921,1669831498237,1859,HRV,HRV_0174,2022-11-30 18:08:39
55,"[{'imgObject': {}, 'id': 'blueberries', 'src': '/static/foodstim60/blueberries.jpg', 'key': 'u', 'origWidth': 411, 'origHeight': 411, 'width': 411, 'height': 411, 'widthPercent': 0.45, 'rescaleHeight': False, 'trialN': 55, 'loaded': True, 'loadedTime': 4081.4000000059605, 'positionName': 'LEFT', 'positionCoords': [244.68, 178.5], 'bid': 2.77}, {'imgObject': {}, 'id': 'Grapes', 'src': '/static/foodstim60/Grapes.jpg', 'key': 'i', 'origWidth': 411, 'origHeight': 411, 'width': 411, 'height': 411, 'widthPercent': 0.45, 'rescaleHeight': False, 'trialN': 55, 'loaded': True, 'loadedTime': 4774.800000011921, 'positionName': 'RIGHT', 'positionCoords': [710.32, 178.5], 'bid': 6.47}]",93760.40000000596,1669831498237,blueberries,Grapes,2.77,6.47,3.6999999999999997,Grapes,1052.199999988079,1053,1052.699999988079,True,i,95330.90000000596,1570.5,1669831499808,1571,HRV,HRV_0174,2022-11-30 18:08:39
56,"[{'imgObject': {}, 'id': 'mac & cheese', 'src': '/static/foodstim60/mac & cheese.jpg', 'key': 'u', 'origWidth': 410, 'origHeight': 410, 'width': 410, 'height': 410, 'widthPercent': 0.45, 'rescaleHeight': False, 'trialN': 56, 'loaded': True, 'loadedTime': 4084.199999988079, 'positionName': 'LEFT', 'positionCoords': [245.68, 179], 'bid': 1.8}, {'imgObject': {}, 'id': 'cherry tomato', 'src': '/static/foodstim60/cherry tomato.jpg', 'key': 'i', 'origWidth': 410, 'origHeight': 410, 'width': 410, 'height': 410, 'widthPercent': 0.45, 'rescaleHeight': False, 'trialN': 56, 'loaded': True, 'loadedTime': 4510.5, 'positionName': 'RIGHT', 'positionCoords': [710.32, 179], 'bid': 6.140000000000001}]",95331.30000001192,1669831499808,mac & cheese,cherry tomato,1.8,6.140000000000001,4.340000000000001,cherry tomato,1070.699999988079,1070,1071.2999999821186,True,i,96915.19999998808,1583.8999999761581,1669831501391,1583,HRV,HRV_0174,2022-11-30 18:08:39
57,"[{'imgObject': {}, 'id': 'lox', 'src': '/static/foodstim60/lox.jpg', 'key': 'u', 'origWidth': 410, 'origHeight': 411, 'width': 410, 'height': 411, 'widthPercent': 0.45, 'rescaleHeight': False, 'trialN': 57, 'loaded': True, 'loadedTime': 5026.300000011921, 'positionName': 'LEFT', 'positionCoords': [245.68, 178.5], 'bid': 6.36}, {'imgObject': {}, 'id': 'apple slices', 'src': '/static/foodstim60/apple slices.jpg', 'key': 'i', 'origWidth': 409, 'origHeight': 410, 'width': 409, 'height': 410, 'widthPercent': 0.45, 'rescaleHeight': False, 'trialN': 57, 'loaded': True, 'loadedTime': 4729.300000011921, 'positionName': 'RIGHT', 'positionCoords': [710.32, 179], 'bid': 6.46}]",96915.59999999404,1669831501391,lox,apple slices,6.36,6.46,0.09999999999999964,apple slices,1802.800000011921,1803,1803.4000000059605,True,i,99231.30000001192,2315.7000000178814,1669831503707,2316,HRV,HRV_0174,2022-11-30 18:08:39
58,"[{'imgObject': {}, 'id': 'rigatoni', 'src': '/static/foodstim60/rigatoni.jpg', 'key': 'u', 'origWidth': 411, 'origHeight': 411, 'width': 411, 'height': 411, 'widthPercent': 0.45, 'rescaleHeight': False, 'trialN': 58, 'loaded': True, 'loadedTime': 5311.5, 'positionName': 'LEFT', 'positionCoords': [244.68, 178.5], 'bid': 2.1}, {'imgObject': {}, 'id': 'raspberries', 'src': '/static/foodstim60/raspberries.jpg', 'key': 'i', 'origWidth': 411, 'origHeight': 411, 'width': 411, 'height': 411, 'widthPercent': 0.45, 'rescaleHeight': False, 'trialN': 58, 'loaded': True, 'loadedTime': 4808.9000000059605, 'positionName': 'RIGHT', 'positionCoords': [710.32, 178.5], 'bid': 2.17}]",99231.40000000596,1669831503707,rigatoni,raspberries,2.1,2.17,0.06999999999999984,rigatoni,960.5999999940395,961,961.4000000059605,True,u,100697.90000000596,1466.5,1669831505173,1466,HRV,HRV_0174,2022-11-30 18:08:39
59,"[{'imgObject': {}, 'id': 'olives', 'src': '/static/foodstim60/olives.jpg', 'key': 'u', 'origWidth': 410, 'origHeight': 410, 'width': 410, 'height': 410, 'widthPercent': 0.45, 'rescaleHeight': False, 'trialN': 59, 'loaded': True, 'loadedTime': 4055.9000000059605, 'positionName': 'LEFT', 'positionCoords': [245.68, 179], 'bid': 4.91}, {'imgObject': {}, 'id': 'banana', 'src': '/static/foodstim60/banana.jpg', 'key': 'i', 'origWidth': 410, 'origHeight': 410, 'width': 410, 'height': 410, 'widthPercent': 0.45, 'rescaleHeight': False, 'trialN': 59, 'loaded': True, 'loadedTime': 5311.800000011921, 'positionName': 'RIGHT', 'positionCoords': [710.32, 179], 'bid': 2.15}]",100698.19999998808,1669831505174,olives,banana,4.91,2.15,-2.7600000000000002,olives,1604.0,1604,1604.6000000238419,True,u,102812.90000000596,2114.7000000178814,1669831507288,2114,HRV,HRV_0174,2022-11-30 18:08:39
60,"[{'imgObject': {}, 'id': 'hotdog w must', 'src': '/static/foodstim60/hotdog w must.jpg', 'key': 'u', 'origWidth': 409, 'origHeight': 409, 'width': 409, 'height': 409, 'widthPercent': 0.45, 'rescaleHeight': False, 'trialN': 60, 'loaded': True, 'loadedTime': 5228.199999988079, 'positionName': 'LEFT', 'positionCoords': [246.68, 179.5], 'bid': 5.48}, {'imgObject': {}, 'id': 'froot loops w milk', 'src': '/static/foodstim60/froot loops w milk.jpg', 'key': 'i', 'origWidth': 410, 'origHeight': 410, 'width': 410, 'height': 410, 'widthPercent': 0.45, 'rescaleHeight': False, 'trialN': 60, 'loaded': True, 'loadedTime': 5302.800000011921, 'positionName': 'RIGHT', 'positionCoords': [710.32, 179], 'bid': 4.8500000000000005}]",102813.09999999404,1669831507288,hotdog w must,froot loops w milk,5.48,4.8500000000000005,-0.6299999999999999,hotdog w must,1401.800000011921,1403,1402.2000000178814,True,u,104732.59999999404,1919.5,1669831509208,1920,HRV,HRV_0174,2022-11-30 18:08:39
61,"[{'imgObject': {}, 'id': 'turkey sandwich', 'src': '/static/foodstim60/turkey sandwich.jpg', 'key': 'u', 'origWidth': 409, 'origHeight': 409, 'width': 409, 'height': 409, 'widthPercent': 0.45, 'rescaleHeight': False, 'trialN': 61, 'loaded': True, 'loadedTime': 5092.4000000059605, 'positionName': 'LEFT', 'positionCoords': [246.68, 179.5], 'bid': 7.84}, {'imgObject': {}, 'id': 'veggieswithdip', 'src': '/static/foodstim60/veggieswithdip.jpg', 'key': 'i', 'origWidth': 409, 'origHeight': 409, 'width': 409, 'height': 409, 'widthPercent': 0.45, 'rescaleHeight': False, 'trialN': 61, 'loaded': True, 'loadedTime': 5247.0999999940395, 'positionName': 'RIGHT', 'positionCoords': [710.32, 179.5], 'bid': 7.09}]",104733.19999998808,1669831509209,turkey sandwich,veggieswithdip,7.84,7.09,-0.75,turkey sandwich,1157.6000000238419,1158,1158.2000000178814,True,u,106413.19999998808,1680.0,1669831510889,1680,HRV,HRV_0174,2022-11-30 18:08:39
62,"[{'imgObject': {}, 'id': 'sushi w_condiments', 'src': '/static/foodstim60/sushi w_condiments.jpg', 'key': 'u', 'origWidth': 410, 'origHeight': 410, 'width': 410, 'height': 410, 'widthPercent': 0.45, 'rescaleHeight': False, 'trialN': 62, 'loaded': True, 'loadedTime': 5262, 'positionName': 'LEFT', 'positionCoords': [245.68, 179], 'bid': 7.65}, {'imgObject': {}, 'id': 'turkey sandwich', 'src': '/static/foodstim60/turkey sandwich.jpg', 'key': 'i', 'origWidth': 409, 'origHeight': 409, 'width': 409, 'height': 409, 'widthPercent': 0.45, 'rescaleHeight': False, 'trialN': 62, 'loaded': True, 'loadedTime': 5092.699999988079, 'positionName': 'RIGHT', 'positionCoords': [710.32, 179.5], 'bid': 7.84}]",106413.5,1669831510889,sushi w_condiments,turkey sandwich,7.65,7.84,0.1899999999999995,sushi w_condiments,961.3000000119209,962,962.0,True,u,107884.30000001192,1470.800000011921,1669831512360,1471,HRV,HRV_0174,2022-11-30 18:08:39
63,"[{'imgObject': {}, 'id': 'tacos', 'src': '/static/foodstim60/tacos.jpg', 'key': 'u', 'origWidth': 411, 'origHeight': 411, 'width': 411, 'height': 411, 'widthPercent': 0.45, 'rescaleHeight': False, 'trialN': 63, 'loaded': True, 'loadedTime': 5353.300000011921, 'positionName': 'LEFT', 'positionCoords': [244.68, 178.5], 'bid': 8.63}, {'imgObject': {}, 'id': 'pear', 'src': '/static/foodstim60/pear.jpg', 'key': 'i', 'origWidth': 411, 'origHeight': 410, 'width': 411, 'height': 410, 'widthPercent': 0.45, 'rescaleHeight': False, 'trialN': 63, 'loaded': True, 'loadedTime': 3987.5999999940395, 'positionName': 'RIGHT', 'positionCoords': [710.32, 179], 'bid': 5.1000000000000005}]",107884.5,1669831512360,tacos,pear,8.63,5.1000000000000005,-3.5300000000000002,tacos,819.4000000059605,820,820.0999999940395,True,u,109214.09999999404,1329.5999999940395,1669831513690,1330,HRV,HRV_0174,2022-11-30 18:08:39
64,"[{'imgObject': {}, 'id': 'raisin bran w milk', 'src': '/static/foodstim60/raisin bran w milk.jpg', 'key': 'u', 'origWidth': 411, 'origHeight': 411, 'width': 411, 'height': 411, 'widthPercent': 0.45, 'rescaleHeight': False, 'trialN': 64, 'loaded': True, 'loadedTime': 5173.800000011921, 'positionName': 'LEFT', 'positionCoords': [244.68, 178.5], 'bid': 5.36}, {'imgObject': {}, 'id': 'mango', 'src': '/static/foodstim60/mango.jpg', 'key': 'i', 'origWidth': 411, 'origHeight': 411, 'width': 411, 'height': 411, 'widthPercent': 0.45, 'rescaleHeight': False, 'trialN': 64, 'loaded': True, 'loadedTime': 5357.4000000059605, 'positionName': 'RIGHT', 'positionCoords': [710.32, 178.5], 'bid': 0.22}]",109214.80000001192,1669831513690,raisin bran w milk,mango,5.36,0.22,-5.140000000000001,raisin bran w milk,1167.2999999821186,1168,1167.7999999821186,True,u,110897.90000000596,1683.0999999940395,1669831515373,1683,HRV,HRV_0174,2022-11-30 18:08:39
65,"[{'imgObject': {}, 'id': 'salad w chicken', 'src': '/static/foodstim60/salad w chicken.jpg', 'key': 'u', 'origWidth': 411, 'origHeight': 411, 'width': 411, 'height': 411, 'widthPercent': 0.45, 'rescaleHeight': False, 'trialN': 65, 'loaded': True, 'loadedTime': 4969.4000000059605, 'positionName': 'LEFT', 'positionCoords': [244.68, 178.5], 'bid': 7.44}, {'imgObject': {}, 'id': 'eggs', 'src': '/static/foodstim60/eggs.jpg', 'key': 'i', 'origWidth': 409, 'origHeight': 409, 'width': 409, 'height': 409, 'widthPercent': 0.45, 'rescaleHeight': False, 'trialN': 65, 'loaded': True, 'loadedTime': 4776.699999988079, 'positionName': 'RIGHT', 'positionCoords': [710.32, 179.5], 'bid': 4.8500000000000005}]",110898.19999998808,1669831515374,salad w chicken,eggs,7.44,4.8500000000000005,-2.59,salad w chicken,1318.4000000059605,1318,1318.800000011921,True,u,112731.09999999404,1832.9000000059605,1669831517206,1832,HRV,HRV_0174,2022-11-30 18:08:39
66,"[{'imgObject': {}, 'id': 'fried eggs', 'src': '/static/foodstim60/fried eggs.jpg', 'key': 'u', 'origWidth': 410, 'origHeight': 410, 'width': 410, 'height': 410, 'widthPercent': 0.45, 'rescaleHeight': False, 'trialN': 66, 'loaded': True, 'loadedTime': 4466.699999988079, 'positionName': 'LEFT', 'positionCoords': [245.68, 179], 'bid': 4.91}, {'imgObject': {}, 'id': 'kiwi', 'src': '/static/foodstim60/kiwi.jpg', 'key': 'i', 'origWidth': 410, 'origHeight': 410, 'width': 410, 'height': 410, 'widthPercent': 0.45, 'rescaleHeight': False, 'trialN': 66, 'loaded': True, 'loadedTime': 4963, 'positionName': 'RIGHT', 'positionCoords': [710.32, 179], 'bid': 5.49}]",112731.40000000596,1669831517207,fried eggs,kiwi,4.91,5.49,0.5800000000000001,fried eggs,1229.9000000059605,1230,1230.5,True,u,114475.80000001192,1744.4000000059605,1669831518951,1744,HRV,HRV_0174,2022-11-30 18:08:39
67,"[{'imgObject': {}, 'id': 'chicken nuggets2', 'src': '/static/foodstim60/chicken nuggets2.jpg', 'key': 'u', 'origWidth': 410, 'origHeight': 409, 'width': 410, 'height': 409, 'widthPercent': 0.45, 'rescaleHeight': False, 'trialN': 67, 'loaded': True, 'loadedTime': 4803.5, 'positionName': 'LEFT', 'positionCoords': [245.68, 179.5], 'bid': 1.5}, {'imgObject': {}, 'id': 'hashbrowns', 'src': '/static/foodstim60/hashbrowns.jpg', 'key': 'i', 'origWidth': 411, 'origHeight': 410, 'width': 411, 'height': 410, 'widthPercent': 0.45, 'rescaleHeight': False, 'trialN': 67, 'loaded': True, 'loadedTime': 4912.699999988079, 'positionName': 'RIGHT', 'positionCoords': [710.32, 179], 'bid': 3.37}]",114476.30000001192,1669831518952,chicken nuggets2,hashbrowns,1.5,3.37,1.87,hashbrowns,874.0999999940395,874,874.6999999880791,True,i,115868.0,1391.699999988079,1669831520343,1391,HRV,HRV_0174,2022-11-30 18:08:39
68,"[{'imgObject': {}, 'id': 'shreddedwheatwithmilk', 'src': '/static/foodstim60/shreddedwheatwithmilk.jpg', 'key': 'u', 'origWidth': 410, 'origHeight': 410, 'width': 410, 'height': 410, 'widthPercent': 0.45, 'rescaleHeight': False, 'trialN': 68, 'loaded': True, 'loadedTime': 4513.699999988079, 'positionName': 'LEFT', 'positionCoords': [245.68, 179], 'bid': 5.19}, {'imgObject': {}, 'id': 'cheerios', 'src': '/static/foodstim60/cheerios.jpg', 'key': 'i', 'origWidth': 409, 'origHeight': 410, 'width': 409, 'height': 410, 'widthPercent': 0.45, 'rescaleHeight': False, 'trialN': 68, 'loaded': True, 'loadedTime': 4311.0999999940395, 'positionName': 'RIGHT', 'positionCoords': [710.32, 179], 'bid': 5.33}]",115868.09999999404,1669831520343,shreddedwheatwithmilk,cheerios,5.19,5.33,0.13999999999999968,shreddedwheatwithmilk,1587.800000011921,1589,1588.9000000059605,True,u,117963.69999998808,2095.5999999940395,1669831522439,2096,HRV,HRV_0174,2022-11-30 18:08:39
69,"[{'imgObject': {}, 'id': 'turkey sandwich', 'src': '/static/foodstim60/turkey sandwich.jpg', 'key': 'u', 'origWidth': 409, 'origHeight': 409, 'width': 409, 'height': 409, 'widthPercent': 0.45, 'rescaleHeight': False, 'trialN': 69, 'loaded': True, 'loadedTime': 5090.9000000059605, 'positionName': 'LEFT', 'positionCoords': [246.68, 179.5], 'bid': 7.84}, {'imgObject': {}, 'id': 'burrito', 'src': '/static/foodstim60/burrito.jpg', 'key': 'i', 'origWidth': 410, 'origHeight': 410, 'width': 410, 'height': 410, 'widthPercent': 0.45, 'rescaleHeight': False, 'trialN': 69, 'loaded': True, 'loadedTime': 5032.699999988079, 'positionName': 'RIGHT', 'positionCoords': [710.32, 179], 'bid': 6.96}]",117964.19999998808,1669831522440,turkey sandwich,burrito,7.84,6.96,-0.8799999999999999,burrito,1039.800000011921,1040,1040.300000011921,True,i,119523.69999998808,1559.5,1669831523999,1559,HRV,HRV_0174,2022-11-30 18:08:39
70,"[{'imgObject': {}, 'id': 'olives', 'src': '/static/foodstim60/olives.jpg', 'key': 'u', 'origWidth': 410, 'origHeight': 410, 'width': 410, 'height': 410, 'widthPercent': 0.45, 'rescaleHeight': False, 'trialN': 70, 'loaded': True, 'loadedTime': 4056.4000000059605, 'positionName': 'LEFT', 'positionCoords': [245.68, 179], 'bid': 4.91}, {'imgObject': {}, 'id': 'fried eggs', 'src': '/static/foodstim60/fried eggs.jpg', 'key': 'i', 'origWidth': 410, 'origHeight': 410, 'width': 410, 'height': 410, 'widthPercent': 0.45, 'rescaleHeight': False, 'trialN': 70, 'loaded': True, 'loadedTime': 4466.0999999940395, 'positionName': 'RIGHT', 'positionCoords': [710.32, 179], 'bid': 4.91}]",119524.0,1669831523999,olives,fried eggs,4.91,4.91,0.0,fried eggs,1360.800000011921,1362,1361.300000011921,True,i,121396.0,1872.0,1669831525871,1872,HRV,HRV_0174,2022-11-30 18:08:39
71,"[{'imgObject': {}, 'id': 'corn cob', 'src': '/static/foodstim60/corn cob.jpg', 'key': 'u', 'origWidth': 411, 'origHeight': 411, 'width': 411, 'height': 411, 'widthPercent': 0.45, 'rescaleHeight': False, 'trialN': 71, 'loaded': True, 'loadedTime': 4846.300000011921, 'positionName': 'LEFT', 'positionCoords': [244.68, 178.5], 'bid': 6.99}, {'imgObject': {}, 'id': 'burrito', 'src': '/static/foodstim60/burrito.jpg', 'key': 'i', 'origWidth': 410, 'origHeight': 410, 'width': 410, 'height': 410, 'widthPercent': 0.45, 'rescaleHeight': False, 'trialN': 71, 'loaded': True, 'loadedTime': 5032.0999999940395, 'positionName': 'RIGHT', 'positionCoords': [710.32, 179], 'bid': 6.96}]",121396.59999999404,1669831525872,corn cob,burrito,6.99,6.96,-0.03000000000000025,burrito,993.3000000119209,994,993.8000000119209,True,i,122896.59999999404,1500.0,1669831527372,1500,HRV,HRV_0174,2022-11-30 18:08:39
72,"[{'imgObject': {}, 'id': 'bagel plain', 'src': '/static/foodstim60/bagel plain.jpg', 'key': 'u', 'origWidth': 410, 'origHeight': 410, 'width': 410, 'height': 410, 'widthPercent': 0.45, 'rescaleHeight': False, 'trialN': 72, 'loaded': True, 'loadedTime': 4917.9000000059605, 'positionName': 'LEFT', 'positionCoords': [245.68, 179], 'bid': 5.13}, {'imgObject': {}, 'id': 'blueberries', 'src': '/static/foodstim60/blueberries.jpg', 'key': 'i', 'origWidth': 411, 'origHeight': 411, 'width': 411, 'height': 411, 'widthPercent': 0.45, 'rescaleHeight': False, 'trialN': 72, 'loaded': True, 'loadedTime': 4083.0999999940395, 'positionName': 'RIGHT', 'positionCoords': [710.32, 178.5], 'bid': 2.77}]",122896.80000001192,1669831527372,bagel plain,blueberries,5.13,2.77,-2.36,bagel plain,904.5999999940395,905,905.0,True,u,124313.09999999404,1416.2999999821186,1669831528788,1416,HRV,HRV_0174,2022-11-30 18:08:39
73,"[{'imgObject': {}, 'id': 'cherry tomato', 'src': '/static/foodstim60/cherry tomato.jpg', 'key': 'u', 'origWidth': 410, 'origHeight': 410, 'width': 410, 'height': 410, 'widthPercent': 0.45, 'rescaleHeight': False, 'trialN': 73, 'loaded': True, 'loadedTime': 4507.0999999940395, 'positionName': 'LEFT', 'positionCoords': [245.68, 179], 'bid': 6.140000000000001}, {'imgObject': {}, 'id': 'fruitsalad', 'src': '/static/foodstim60/fruitsalad.jpg', 'key': 'i', 'origWidth': 410, 'origHeight': 410, 'width': 410, 'height': 410, 'widthPercent': 0.45, 'rescaleHeight': False, 'trialN': 73, 'loaded': True, 'loadedTime': 4727.4000000059605, 'positionName': 'RIGHT', 'positionCoords': [710.32, 179], 'bid': 5.1000000000000005}]",124313.19999998808,1669831528789,cherry tomato,fruitsalad,6.140000000000001,5.1000000000000005,-1.04,cherry tomato,1007.4000000059605,1007,1007.8000000119209,True,u,125834.69999998808,1521.5,1669831530310,1521,HRV,HRV_0174,2022-11-30 18:08:39
74,"[{'imgObject': {}, 'id': 'mashed potato', 'src': '/static/foodstim60/mashed potato.jpg', 'key': 'u', 'origWidth': 409, 'origHeight': 409, 'width': 409, 'height': 409, 'widthPercent': 0.45, 'rescaleHeight': False, 'trialN': 74, 'loaded': True, 'loadedTime': 5160.699999988079, 'positionName': 'LEFT', 'positionCoords': [246.68, 179.5], 'bid': 3.31}, {'imgObject': {}, 'id': 'omelette', 'src': '/static/foodstim60/omelette.jpg', 'key': 'i', 'origWidth': 410, 'origHeight': 409, 'width': 410, 'height': 409, 'widthPercent': 0.45, 'rescaleHeight': False, 'trialN': 74, 'loaded': True, 'loadedTime': 4796.0999999940395, 'positionName': 'RIGHT', 'positionCoords': [710.32, 179.5], 'bid': 4.5}]",125834.80000001192,1669831530310,mashed potato,omelette,3.31,4.5,1.19,omelette,1140.2999999821186,1141,1140.5999999940395,True,i,127491.40000000596,1656.5999999940395,1669831531967,1657,HRV,HRV_0174,2022-11-30 18:08:39
75,"[{'imgObject': {}, 'id': 'lox', 'src': '/static/foodstim60/lox.jpg', 'key': 'u', 'origWidth': 410, 'origHeight': 411, 'width': 410, 'height': 411, 'widthPercent': 0.45, 'rescaleHeight': False, 'trialN': 75, 'loaded': True, 'loadedTime': 5024.300000011921, 'positionName': 'LEFT', 'positionCoords': [245.68, 178.5], 'bid': 6.36}, {'imgObject': {}, 'id': 'banana', 'src': '/static/foodstim60/banana.jpg', 'key': 'i', 'origWidth': 410, 'origHeight': 410, 'width': 410, 'height': 410, 'widthPercent': 0.45, 'rescaleHeight': False, 'trialN': 75, 'loaded': True, 'loadedTime': 5312.800000011921, 'positionName': 'RIGHT', 'positionCoords': [710.32, 179], 'bid': 2.15}]",127491.59999999404,1669831531967,lox,banana,6.36,2.15,-4.210000000000001,banana,902.7000000178814,903,903.3000000119209,True,i,128897.30000001192,1405.7000000178814,1669831533373,1406,HRV,HRV_0174,2022-11-30 18:08:39
76,"[{'imgObject': {}, 'id': 'mac & cheese', 'src': '/static/foodstim60/mac & cheese.jpg', 'key': 'u', 'origWidth': 410, 'origHeight': 410, 'width': 410, 'height': 410, 'widthPercent': 0.45, 'rescaleHeight': False, 'trialN': 76, 'loaded': True, 'loadedTime': 4128.199999988079, 'positionName': 'LEFT', 'positionCoords': [245.68, 179], 'bid': 1.8}, {'imgObject': {}, 'id': 'edamame', 'src': '/static/foodstim60/edamame.jpg', 'key': 'i', 'origWidth': 409, 'origHeight': 410, 'width': 409, 'height': 410, 'widthPercent': 0.45, 'rescaleHeight': False, 'trialN': 76, 'loaded': True, 'loadedTime': 5308.199999988079, 'positionName': 'RIGHT', 'positionCoords': [710.32, 179], 'bid': 1.99}]",128897.5,1669831533373,mac & cheese,edamame,1.8,1.99,0.18999999999999995,mac & cheese,969.9000000059605,971,970.6999999880791,True,u,130387.30000001192,1489.800000011921,1669831534863,1490,HRV,HRV_0174,2022-11-30 18:08:39
77,"[{'imgObject': {}, 'id': 'Tribe humus pita', 'src': '/static/foodstim60/Tribe humus pita.jpg', 'key': 'u', 'origWidth': 411, 'origHeight': 411, 'width': 411, 'height': 411, 'widthPercent': 0.45, 'rescaleHeight': False, 'trialN': 77, 'loaded': True, 'loadedTime': 5365.300000011921, 'positionName': 'LEFT', 'positionCoords': [244.68, 178.5], 'bid': 7.35}, {'imgObject': {}, 'id': 'apple slices', 'src': '/static/foodstim60/apple slices.jpg', 'key': 'i', 'origWidth': 409, 'origHeight': 410, 'width': 409, 'height': 410, 'widthPercent': 0.45, 'rescaleHeight': False, 'trialN': 77, 'loaded': True, 'loadedTime': 4729, 'positionName': 'RIGHT', 'positionCoords': [710.32, 179], 'bid': 6.46}]",130387.69999998808,1669831534863,Tribe humus pita,apple slices,7.35,6.46,-0.8899999999999997,apple slices,1295.0,1296,1295.5,True,i,132196.0,1808.300000011921,1669831536671,1808,HRV,HRV_0174,2022-11-30 18:08:39
78,"[{'imgObject': {}, 'id': 'cocktailshrimp', 'src': '/static/foodstim60/cocktailshrimp.jpg', 'key': 'u', 'origWidth': 410, 'origHeight': 410, 'width': 410, 'height': 410, 'widthPercent': 0.45, 'rescaleHeight': False, 'trialN': 78, 'loaded': True, 'loadedTime': 5370.0999999940395, 'positionName': 'LEFT', 'positionCoords': [245.68, 179], 'bid': 8.01}, {'imgObject': {}, 'id': 'grilled chicken strips', 'src': '/static/foodstim60/grilled chicken strips.jpg', 'key': 'i', 'origWidth': 410, 'origHeight': 411, 'width': 410, 'height': 411, 'widthPercent': 0.45, 'rescaleHeight': False, 'trialN': 78, 'loaded': True, 'loadedTime': 5023.4000000059605, 'positionName': 'RIGHT', 'positionCoords': [710.32, 178.5], 'bid': 7.19}]",132196.19999998808,1669831536672,cocktailshrimp,grilled chicken strips,8.01,7.19,-0.8199999999999994,grilled chicken strips,1876.6000000238419,1877,1877.1000000238419,True,i,134579.69999998808,2383.5,1669831539055,2383,HRV,HRV_0174,2022-11-30 18:08:39
79,"[{'imgObject': {}, 'id': 'mashed potato', 'src': '/static/foodstim60/mashed potato.jpg', 'key': 'u', 'origWidth': 409, 'origHeight': 409, 'width': 409, 'height': 409, 'widthPercent': 0.45, 'rescaleHeight': False, 'trialN': 79, 'loaded': True, 'loadedTime': 5161.0999999940395, 'positionName': 'LEFT', 'positionCoords': [246.68, 179.5], 'bid': 3.31}, {'imgObject': {}, 'id': 'hashbrowns', 'src': '/static/foodstim60/hashbrowns.jpg', 'key': 'i', 'origWidth': 411, 'origHeight': 410, 'width': 411, 'height': 410, 'widthPercent': 0.45, 'rescaleHeight': False, 'trialN': 79, 'loaded': True, 'loadedTime': 4913.300000011921, 'positionName': 'RIGHT', 'positionCoords': [710.32, 179], 'bid': 3.37}]",134580.0,1669831539055,mashed potato,hashbrowns,3.31,3.37,0.06000000000000005,hashbrowns,881.8000000119209,883,882.3000000119209,True,i,135979.69999998808,1399.699999988079,1669831540455,1400,HRV,HRV_0174,2022-11-30 18:08:39
80,"[{'imgObject': {}, 'id': 'burger', 'src': '/static/foodstim60/burger.jpg', 'key': 'u', 'origWidth': 409, 'origHeight': 409, 'width': 409, 'height': 409, 'widthPercent': 0.45, 'rescaleHeight': False, 'trialN': 80, 'loaded': True, 'loadedTime': 5260.5, 'positionName': 'LEFT', 'positionCoords': [246.68, 179.5], 'bid': 6.47}, {'imgObject': {}, 'id': 'Grapes', 'src': '/static/foodstim60/Grapes.jpg', 'key': 'i', 'origWidth': 411, 'origHeight': 411, 'width': 411, 'height': 411, 'widthPercent': 0.45, 'rescaleHeight': False, 'trialN': 80, 'loaded': True, 'loadedTime': 4774.9000000059605, 'positionName': 'RIGHT', 'positionCoords': [710.32, 178.5], 'bid': 6.47}]",135980.09999999404,1669831540455,burger,Grapes,6.47,6.47,0.0,Grapes,1471.7000000178814,1473,1472.0999999940395,True,i,137962.30000001192,1982.2000000178814,1669831542438,1983,HRV,HRV_0174,2022-11-30 18:08:39
81,"[{'imgObject': {}, 'id': 'hotdog w must', 'src': '/static/foodstim60/hotdog w must.jpg', 'key': 'u', 'origWidth': 409, 'origHeight': 409, 'width': 409, 'height': 409, 'widthPercent': 0.45, 'rescaleHeight': False, 'trialN': 81, 'loaded': True, 'loadedTime': 5231.300000011921, 'positionName': 'LEFT', 'positionCoords': [246.68, 179.5], 'bid': 5.48}, {'imgObject': {}, 'id': 'raisin bran w milk', 'src': '/static/foodstim60/raisin bran w milk.jpg', 'key': 'i', 'origWidth': 411, 'origHeight': 411, 'width': 411, 'height': 411, 'widthPercent': 0.45, 'rescaleHeight': False, 'trialN': 81, 'loaded': True, 'loadedTime': 5172.699999988079, 'positionName': 'RIGHT', 'positionCoords': [710.32, 178.5], 'bid': 5.36}]",137962.69999998808,1669831542438,hotdog w must,raisin bran w milk,5.48,5.36,-0.1200000000000001,raisin bran w milk,1208.7000000178814,1209,1209.1000000238419,True,i,139694.5,1731.800000011921,1669831544170,1732,HRV,HRV_0174,2022-11-30 18:08:39
82,"[{'imgObject': {}, 'id': 'eggsalad', 'src': '/static/foodstim60/eggsalad.jpg', 'key': 'u', 'origWidth': 410, 'origHeight': 409, 'width': 410, 'height': 409, 'widthPercent': 0.45, 'rescaleHeight': False, 'trialN': 82, 'loaded': True, 'loadedTime': 5374.699999988079, 'positionName': 'LEFT', 'positionCoords': [245.68, 179.5], 'bid': 2.08}, {'imgObject': {}, 'id': 'yogurt no spoon', 'src': '/static/foodstim60/yogurt no spoon.jpg', 'key': 'i', 'origWidth': 411, 'origHeight': 410, 'width': 411, 'height': 410, 'widthPercent': 0.45, 'rescaleHeight': False, 'trialN': 82, 'loaded': True, 'loadedTime': 5299.699999988079, 'positionName': 'RIGHT', 'positionCoords': [710.32, 179], 'bid': 3.84}]",139694.80000001192,1669831544170,eggsalad,yogurt no spoon,2.08,3.84,1.7599999999999998,yogurt no spoon,1052.0,1053,1052.2999999821186,True,i,141262.09999999404,1567.2999999821186,1669831545737,1567,HRV,HRV_0174,2022-11-30 18:08:39
83,"[{'imgObject': {}, 'id': 'grilled chicken strips', 'src': '/static/foodstim60/grilled chicken strips.jpg', 'key': 'u', 'origWidth': 410, 'origHeight': 411, 'width': 410, 'height': 411, 'widthPercent': 0.45, 'rescaleHeight': False, 'trialN': 83, 'loaded': True, 'loadedTime': 4970.5, 'positionName': 'LEFT', 'positionCoords': [245.68, 178.5], 'bid': 7.19}, {'imgObject': {}, 'id': 'Tribe humus pita', 'src': '/static/foodstim60/Tribe humus pita.jpg', 'key': 'i', 'origWidth': 411, 'origHeight': 411, 'width': 411, 'height': 411, 'widthPercent': 0.45, 'rescaleHeight': False, 'trialN': 83, 'loaded': True, 'loadedTime': 5365.5, 'positionName': 'RIGHT', 'positionCoords': [710.32, 178.5], 'bid': 7.35}]",141262.5,1669831545738,grilled chicken strips,Tribe humus pita,7.19,7.35,0.15999999999999925,grilled chicken strips,1072.300000011921,1073,1072.9000000059605,True,u,142845.80000001192,1583.300000011921,1669831547321,1583,HRV,HRV_0174,2022-11-30 18:08:39
84,"[{'imgObject': {}, 'id': 'mango', 'src': '/static/foodstim60/mango.jpg', 'key': 'u', 'origWidth': 411, 'origHeight': 411, 'width': 411, 'height': 411, 'widthPercent': 0.45, 'rescaleHeight': False, 'trialN': 84, 'loaded': True, 'loadedTime': 5353.699999988079, 'positionName': 'LEFT', 'positionCoords': [244.68, 178.5], 'bid': 0.22}, {'imgObject': {}, 'id': 'blackbeanswithrice', 'src': '/static/foodstim60/blackbeanswithrice.jpg', 'key': 'i', 'origWidth': 410, 'origHeight': 410, 'width': 410, 'height': 410, 'widthPercent': 0.45, 'rescaleHeight': False, 'trialN': 84, 'loaded': True, 'loadedTime': 4660.800000011921, 'positionName': 'RIGHT', 'positionCoords': [710.32, 179], 'bid': 3.6}]",142846.0,1669831547321,mango,blackbeanswithrice,0.22,3.6,3.38,mango,1243.5,1244,1243.9000000059605,True,u,144595.69999998808,1749.699999988079,1669831549071,1750,HRV,HRV_0174,2022-11-30 18:08:39
85,"[{'imgObject': {}, 'id': 'baked potato', 'src': '/static/foodstim60/baked potato.jpg', 'key': 'u', 'origWidth': 409, 'origHeight': 410, 'width': 409, 'height': 410, 'widthPercent': 0.45, 'rescaleHeight': False, 'trialN': 85, 'loaded': True, 'loadedTime': 4008.199999988079, 'positionName': 'LEFT', 'positionCoords': [246.68, 179], 'bid': 2.77}, {'imgObject': {}, 'id': 'pear', 'src': '/static/foodstim60/pear.jpg', 'key': 'i', 'origWidth': 411, 'origHeight': 410, 'width': 411, 'height': 410, 'widthPercent': 0.45, 'rescaleHeight': False, 'trialN': 85, 'loaded': True, 'loadedTime': 3987.9000000059605, 'positionName': 'RIGHT', 'positionCoords': [710.32, 179], 'bid': 5.1000000000000005}]",144595.90000000596,1669831549071,baked potato,pear,2.77,5.1000000000000005,2.3300000000000005,pear,1759.199999988079,1760,1759.9000000059605,True,i,146877.30000001192,2281.4000000059605,1669831551353,2282,HRV,HRV_0174,2022-11-30 18:08:39
86,"[{'imgObject': {}, 'id': 'roastedpotatoes', 'src': '/static/foodstim60/roastedpotatoes.jpg', 'key': 'u', 'origWidth': 409, 'origHeight': 410, 'width': 409, 'height': 410, 'widthPercent': 0.45, 'rescaleHeight': False, 'trialN': 86, 'loaded': True, 'loadedTime': 4673.9000000059605, 'positionName': 'LEFT', 'positionCoords': [246.68, 179], 'bid': 3.38}, {'imgObject': {}, 'id': 'mac & cheese', 'src': '/static/foodstim60/mac & cheese.jpg', 'key': 'i', 'origWidth': 410, 'origHeight': 410, 'width': 410, 'height': 410, 'widthPercent': 0.45, 'rescaleHeight': False, 'trialN': 86, 'loaded': True, 'loadedTime': 4126.5, 'positionName': 'RIGHT', 'positionCoords': [710.32, 179], 'bid': 1.8}]",146877.90000000596,1669831551353,roastedpotatoes,mac & cheese,3.38,1.8,-1.5799999999999998,mac & cheese,1237.5,1239,1238.2999999821186,True,i,148628.30000001192,1750.4000000059605,1669831553104,1751,HRV,HRV_0174,2022-11-30 18:08:39
87,"[{'imgObject': {}, 'id': 'bagel and cc', 'src': '/static/foodstim60/bagel and cc.jpg', 'key': 'u', 'origWidth': 410, 'origHeight': 410, 'width': 410, 'height': 410, 'widthPercent': 0.45, 'rescaleHeight': False, 'trialN': 87, 'loaded': True, 'loadedTime': 5236.9000000059605, 'positionName': 'LEFT', 'positionCoords': [245.68, 179], 'bid': 6.18}, {'imgObject': {}, 'id': 'cherry tomato', 'src': '/static/foodstim60/cherry tomato.jpg', 'key': 'i', 'origWidth': 410, 'origHeight': 410, 'width': 410, 'height': 410, 'widthPercent': 0.45, 'rescaleHeight': False, 'trialN': 87, 'loaded': True, 'loadedTime': 4510.0999999940395, 'positionName': 'RIGHT', 'positionCoords': [710.32, 179], 'bid': 6.140000000000001}]",148628.69999998808,1669831553104,bagel and cc,cherry tomato,6.18,6.140000000000001,-0.03999999999999915,bagel and cc,1561.6000000238419,1562,1562.2000000178814,True,u,150695.19999998808,2066.5,1669831555171,2067,HRV,HRV_0174,2022-11-30 18:08:39
88,"[{'imgObject': {}, 'id': 'burrito', 'src': '/static/foodstim60/burrito.jpg', 'key': 'u', 'origWidth': 410, 'origHeight': 410, 'width': 410, 'height': 410, 'widthPercent': 0.45, 'rescaleHeight': False, 'trialN': 88, 'loaded': True, 'loadedTime': 5083.5, 'positionName': 'LEFT', 'positionCoords': [245.68, 179], 'bid': 6.96}, {'imgObject': {}, 'id': 'granola w milk', 'src': '/static/foodstim60/granola w milk.jpg', 'key': 'i', 'origWidth': 410, 'origHeight': 410, 'width': 410, 'height': 410, 'widthPercent': 0.45, 'rescaleHeight': False, 'trialN': 88, 'loaded': True, 'loadedTime': 5169.5, 'positionName': 'RIGHT', 'positionCoords': [710.32, 179], 'bid': 5.2700000000000005}]",150695.59999999404,1669831555171,burrito,granola w milk,6.96,5.2700000000000005,-1.6899999999999995,burrito,917.7000000178814,918,918.0999999940395,True,u,152128.0,1432.4000000059605,1669831556603,1432,HRV,HRV_0174,2022-11-30 18:08:39
89,"[{'imgObject': {}, 'id': 'bagel and cc', 'src': '/static/foodstim60/bagel and cc.jpg', 'key': 'u', 'origWidth': 410, 'origHeight': 410, 'width': 410, 'height': 410, 'widthPercent': 0.45, 'rescaleHeight': False, 'trialN': 89, 'loaded': True, 'loadedTime': 5236.5, 'positionName': 'LEFT', 'positionCoords': [245.68, 179], 'bid': 6.18}, {'imgObject': {}, 'id': 'eggsalad', 'src': '/static/foodstim60/eggsalad.jpg', 'key': 'i', 'origWidth': 410, 'origHeight': 409, 'width': 410, 'height': 409, 'widthPercent': 0.45, 'rescaleHeight': False, 'trialN': 89, 'loaded': True, 'loadedTime': 5370.300000011921, 'positionName': 'RIGHT', 'positionCoords': [710.32, 179.5], 'bid': 2.08}]",152128.19999998808,1669831556604,bagel and cc,eggsalad,6.18,2.08,-4.1,bagel and cc,1155.0,1155,1155.7000000178814,True,u,153802.0,1673.800000011921,1669831558277,1673,HRV,HRV_0174,2022-11-30 18:08:39
90,"[{'imgObject': {}, 'id': 'granola w milk', 'src': '/static/foodstim60/granola w milk.jpg', 'key': 'u', 'origWidth': 410, 'origHeight': 410, 'width': 410, 'height': 410, 'widthPercent': 0.45, 'rescaleHeight': False, 'trialN': 90, 'loaded': True, 'loadedTime': 5170.0999999940395, 'positionName': 'LEFT', 'positionCoords': [245.68, 179], 'bid': 5.2700000000000005}, {'imgObject': {}, 'id': 'fried eggs', 'src': '/static/foodstim60/fried eggs.jpg', 'key': 'i', 'origWidth': 410, 'origHeight': 410, 'width': 410, 'height': 410, 'widthPercent': 0.45, 'rescaleHeight': False, 'trialN': 90, 'loaded': True, 'loadedTime': 4465.4000000059605, 'positionName': 'RIGHT', 'positionCoords': [710.32, 179], 'bid': 4.91}]",160555.19999998808,1669831565032,granola w milk,fried eggs,5.2700000000000005,4.91,-0.3600000000000003,fried eggs,3160.100000023842,3161,3160.800000011921,True,i,164227.90000000596,3672.7000000178814,1669831568705,3673,HRV,HRV_0174,2022-11-30 18:08:39
91,"[{'imgObject': {}, 'id': 'orange slices', 'src': '/static/foodstim60/orange slices.jpg', 'key': 'u', 'origWidth': 409, 'origHeight': 410, 'width': 409, 'height': 410, 'widthPercent': 0.45, 'rescaleHeight': False, 'trialN': 91, 'loaded': True, 'loadedTime': 4615.0999999940395, 'positionName': 'LEFT', 'positionCoords': [246.68, 179], 'bid': 4.69}, {'imgObject': {}, 'id': 'mac & cheese', 'src': '/static/foodstim60/mac & cheese.jpg', 'key': 'i', 'origWidth': 410, 'origHeight': 410, 'width': 410, 'height': 410, 'widthPercent': 0.45, 'rescaleHeight': False, 'trialN': 91, 'loaded': True, 'loadedTime': 4091.199999988079, 'positionName': 'RIGHT', 'positionCoords': [710.32, 179], 'bid': 1.8}]",164228.30000001192,1669831568705,orange slices,mac & cheese,4.69,1.8,-2.8900000000000006,orange slices,2769.399999976158,2770,2770.0,True,u,167505.5,3277.199999988079,1669831571982,3277,HRV,HRV_0174,2022-11-30 18:08:39
92,"[{'imgObject': {}, 'id': 'cherries', 'src': '/static/foodstim60/cherries.jpg', 'key': 'u', 'origWidth': 410, 'origHeight': 411, 'width': 410, 'height': 411, 'widthPercent': 0.45, 'rescaleHeight': False, 'trialN': 92, 'loaded': True, 'loadedTime': 4567.300000011921, 'positionName': 'LEFT', 'positionCoords': [245.68, 178.5], 'bid': 1.33}, {'imgObject': {}, 'id': 'rigatoni', 'src': '/static/foodstim60/rigatoni.jpg', 'key': 'i', 'origWidth': 411, 'origHeight': 411, 'width': 411, 'height': 411, 'widthPercent': 0.45, 'rescaleHeight': False, 'trialN': 92, 'loaded': True, 'loadedTime': 5309.199999988079, 'positionName': 'RIGHT', 'positionCoords': [710.32, 178.5], 'bid': 2.1}]",167505.90000000596,1669831571983,cherries,rigatoni,1.33,2.1,0.77,rigatoni,855.2999999821186,856,855.9000000059605,True,i,168870.30000001192,1364.4000000059605,1669831573347,1364,HRV,HRV_0174,2022-11-30 18:08:39
93,"[{'imgObject': {}, 'id': 'Grapes', 'src': '/static/foodstim60/Grapes.jpg', 'key': 'u', 'origWidth': 411, 'origHeight': 411, 'width': 411, 'height': 411, 'widthPercent': 0.45, 'rescaleHeight': False, 'trialN': 93, 'loaded': True, 'loadedTime': 4776.300000011921, 'positionName': 'LEFT', 'positionCoords': [244.68, 178.5], 'bid': 6.47}, {'imgObject': {}, 'id': 'luckycharms', 'src': '/static/foodstim60/luckycharms.jpg', 'key': 'i', 'origWidth': 410, 'origHeight': 409, 'width': 410, 'height': 409, 'widthPercent': 0.45, 'rescaleHeight': False, 'trialN': 93, 'loaded': True, 'loadedTime': 4257.5, 'positionName': 'RIGHT', 'positionCoords': [710.32, 179.5], 'bid': 6.18}]",168870.40000000596,1669831573347,Grapes,luckycharms,6.47,6.18,-0.29000000000000004,luckycharms,648.7999999821186,650,649.5,True,i,170027.5,1157.0999999940395,1669831574505,1158,HRV,HRV_0174,2022-11-30 18:08:39
94,"[{'imgObject': {}, 'id': 'bagel plain', 'src': '/static/foodstim60/bagel plain.jpg', 'key': 'u', 'origWidth': 410, 'origHeight': 410, 'width': 410, 'height': 410, 'widthPercent': 0.45, 'rescaleHeight': False, 'trialN': 94, 'loaded': True, 'loadedTime': 4919.4000000059605, 'positionName': 'LEFT', 'positionCoords': [245.68, 179], 'bid': 5.13}, {'imgObject': {}, 'id': 'strawberries', 'src': '/static/foodstim60/strawberries.jpg', 'key': 'i', 'origWidth': 410, 'origHeight': 410, 'width': 410, 'height': 410, 'widthPercent': 0.45, 'rescaleHeight': False, 'trialN': 94, 'loaded': True, 'loadedTime': 5099.800000011921, 'positionName': 'RIGHT', 'positionCoords': [710.32, 179], 'bid': 9.71}]",170028.0,1669831574505,bagel plain,strawberries,5.13,9.71,4.580000000000001,strawberries,600.4000000059605,601,601.0,True,i,171144.30000001192,1116.300000011921,1669831575621,1116,HRV,HRV_0174,2022-11-30 18:08:39
95,"[{'imgObject': {}, 'id': 'turkeysandwich', 'src': '/static/foodstim60/turkeysandwich.jpg', 'key': 'u', 'origWidth': 409, 'origHeight': 409, 'width': 409, 'height': 409, 'widthPercent': 0.45, 'rescaleHeight': False, 'trialN': 95, 'loaded': True, 'loadedTime': 5162.9000000059605, 'positionName': 'LEFT', 'positionCoords': [246.68, 179.5], 'bid': 6.53}, {'imgObject': {}, 'id': 'steak', 'src': '/static/foodstim60/steak.jpg', 'key': 'i', 'origWidth': 410, 'origHeight': 410, 'width': 410, 'height': 410, 'widthPercent': 0.45, 'rescaleHeight': False, 'trialN': 95, 'loaded': True, 'loadedTime': 5251.800000011921, 'positionName': 'RIGHT', 'positionCoords': [710.32, 179], 'bid': 9.89}]",171144.80000001192,1669831575622,turkeysandwich,steak,6.53,9.89,3.3600000000000003,steak,770.3999999761581,771,771.0999999940395,True,i,172426.90000000596,1282.0999999940395,1669831576904,1282,HRV,HRV_0174,2022-11-30 18:08:39
96,"[{'imgObject': {}, 'id': 'salmon', 'src': '/static/foodstim60/salmon.jpg', 'key': 'u', 'origWidth': 410, 'origHeight': 409, 'width': 410, 'height': 409, 'widthPercent': 0.45, 'rescaleHeight': False, 'trialN': 96, 'loaded': True, 'loadedTime': 4410.5, 'positionName': 'LEFT', 'positionCoords': [245.68, 179.5], 'bid': 7.75}, {'imgObject': {}, 'id': 'salad w chicken', 'src': '/static/foodstim60/salad w chicken.jpg', 'key': 'i', 'origWidth': 411, 'origHeight': 411, 'width': 411, 'height': 411, 'widthPercent': 0.45, 'rescaleHeight': False, 'trialN': 96, 'loaded': True, 'loadedTime': 4970.199999988079, 'positionName': 'RIGHT', 'positionCoords': [710.32, 178.5], 'bid': 7.44}]",172427.19999998808,1669831576904,salmon,salad w chicken,7.75,7.44,-0.3099999999999996,salad w chicken,667.0,668,667.6000000238419,True,i,173598.90000000596,1171.7000000178814,1669831578076,1172,HRV,HRV_0174,2022-11-30 18:08:39
97,"[{'imgObject': {}, 'id': 'yogurt no spoon', 'src': '/static/foodstim60/yogurt no spoon.jpg', 'key': 'u', 'origWidth': 411, 'origHeight': 410, 'width': 411, 'height': 410, 'widthPercent': 0.45, 'rescaleHeight': False, 'trialN': 97, 'loaded': True, 'loadedTime': 5302.4000000059605, 'positionName': 'LEFT', 'positionCoords': [244.68, 179], 'bid': 3.84}, {'imgObject': {}, 'id': 'rigatoni and sauce', 'src': '/static/foodstim60/rigatoni and sauce.jpg', 'key': 'i', 'origWidth': 410, 'origHeight': 411, 'width': 410, 'height': 411, 'widthPercent': 0.45, 'rescaleHeight': False, 'trialN': 97, 'loaded': True, 'loadedTime': 4058.699999988079, 'positionName': 'RIGHT', 'positionCoords': [710.32, 178.5], 'bid': 4.1}]",173599.30000001192,1669831578076,yogurt no spoon,rigatoni and sauce,3.84,4.1,0.2599999999999998,rigatoni and sauce,1018.2999999821186,1019,1019.0,True,i,175126.5,1527.199999988079,1669831579604,1528,HRV,HRV_0174,2022-11-30 18:08:39
98,"[{'imgObject': {}, 'id': 'veggieswithdip', 'src': '/static/foodstim60/veggieswithdip.jpg', 'key': 'u', 'origWidth': 409, 'origHeight': 409, 'width': 409, 'height': 409, 'widthPercent': 0.45, 'rescaleHeight': False, 'trialN': 98, 'loaded': True, 'loadedTime': 5243, 'positionName': 'LEFT', 'positionCoords': [246.68, 179.5], 'bid': 7.09}, {'imgObject': {}, 'id': 'kiwi', 'src': '/static/foodstim60/kiwi.jpg', 'key': 'i', 'origWidth': 410, 'origHeight': 410, 'width': 410, 'height': 410, 'widthPercent': 0.45, 'rescaleHeight': False, 'trialN': 98, 'loaded': True, 'loadedTime': 4956.699999988079, 'positionName': 'RIGHT', 'positionCoords': [710.32, 179], 'bid': 5.49}]",175126.80000001192,1669831579604,veggieswithdip,kiwi,7.09,5.49,-1.5999999999999996,veggieswithdip,1351.5999999940395,1352,1352.5,True,u,176994.19999998808,1867.3999999761581,1669831581471,1867,HRV,HRV_0174,2022-11-30 18:08:39
99,"[{'imgObject': {}, 'id': 'tacos', 'src': '/static/foodstim60/tacos.jpg', 'key': 'u', 'origWidth': 411, 'origHeight': 411, 'width': 411, 'height': 411, 'widthPercent': 0.45, 'rescaleHeight': False, 'trialN': 99, 'loaded': True, 'loadedTime': 5352.4000000059605, 'positionName': 'LEFT', 'positionCoords': [244.68, 178.5], 'bid': 8.63}, {'imgObject': {}, 'id': 'burger', 'src': '/static/foodstim60/burger.jpg', 'key': 'i', 'origWidth': 409, 'origHeight': 409, 'width': 409, 'height': 409, 'widthPercent': 0.45, 'rescaleHeight': False, 'trialN': 99, 'loaded': True, 'loadedTime': 5255.699999988079, 'positionName': 'RIGHT', 'positionCoords': [710.32, 179.5], 'bid': 6.47}]",176994.69999998808,1669831581472,tacos,burger,8.63,6.47,-2.160000000000001,burger,872.0,872,872.4000000059605,True,i,178376.59999999404,1381.9000000059605,1669831582854,1382,HRV,HRV_0174,2022-11-30 18:08:39
100,"[{'imgObject': {}, 'id': 'grilled chicken strips', 'src': '/static/foodstim60/grilled chicken strips.jpg', 'key': 'u', 'origWidth': 410, 'origHeight': 411, 'width': 410, 'height': 411, 'widthPercent': 0.45, 'rescaleHeight': False, 'trialN': 100, 'loaded': True, 'loadedTime': 5024.0999999940395, 'positionName': 'LEFT', 'positionCoords': [245.68, 178.5], 'bid': 7.19}, {'imgObject': {}, 'id': 'omelette', 'src': '/static/foodstim60/omelette.jpg', 'key': 'i', 'origWidth': 410, 'origHeight': 409, 'width': 410, 'height': 409, 'widthPercent': 0.45, 'rescaleHeight': False, 'trialN': 100, 'loaded': True, 'loadedTime': 4795.5999999940395, 'positionName': 'RIGHT', 'positionCoords': [710.32, 179.5], 'bid': 4.5}]",178376.80000001192,1669831582854,grilled chicken strips,omelette,7.19,4.5,-2.6900000000000004,grilled chicken strips,1320.3999999761581,1321,1320.8999999761581,True,u,180209.69999998808,1832.8999999761581,1669831584687,1833,HRV,HRV_0174,2022-11-30 18:08:39
101,"[{'imgObject': {}, 'id': 'corn cob', 'src': '/static/foodstim60/corn cob.jpg', 'key': 'u', 'origWidth': 411, 'origHeight': 411, 'width': 411, 'height': 411, 'widthPercent': 0.45, 'rescaleHeight': False, 'trialN': 101, 'loaded': True, 'loadedTime': 4852.4000000059605, 'positionName': 'LEFT', 'positionCoords': [244.68, 178.5], 'bid': 6.99}, {'imgObject': {}, 'id': 'tacos', 'src': '/static/foodstim60/tacos.jpg', 'key': 'i', 'origWidth': 411, 'origHeight': 411, 'width': 411, 'height': 411, 'widthPercent': 0.45, 'rescaleHeight': False, 'trialN': 101, 'loaded': True, 'loadedTime': 5352.5, 'positionName': 'RIGHT', 'positionCoords': [710.32, 178.5], 'bid': 8.63}]",180210.0,1669831584687,corn cob,tacos,6.99,8.63,1.6400000000000006,tacos,689.3000000119209,690,690.0,True,i,181419.90000000596,1209.9000000059605,1669831585897,1210,HRV,HRV_0174,2022-11-30 18:08:39
102,"[{'imgObject': {}, 'id': 'cherry tomato', 'src': '/static/foodstim60/cherry tomato.jpg', 'key': 'u', 'origWidth': 410, 'origHeight': 410, 'width': 410, 'height': 410, 'widthPercent': 0.45, 'rescaleHeight': False, 'trialN': 102, 'loaded': True, 'loadedTime': 4511, 'positionName': 'LEFT', 'positionCoords': [245.68, 179], 'bid': 6.140000000000001}, {'imgObject': {}, 'id': 'Tribe humus pita', 'src': '/static/foodstim60/Tribe humus pita.jpg', 'key': 'i', 'origWidth': 411, 'origHeight': 411, 'width': 411, 'height': 411, 'widthPercent': 0.45, 'rescaleHeight': False, 'trialN': 102, 'loaded': True, 'loadedTime': 5357.800000011921, 'positionName': 'RIGHT', 'positionCoords': [710.32, 178.5], 'bid': 7.35}]",181420.19999998808,1669831585897,cherry tomato,Tribe humus pita,6.140000000000001,7.35,1.209999999999999,Tribe humus pita,1319.0,1320,1320.2000000178814,True,i,183260.59999999404,1840.4000000059605,1669831587738,1841,HRV,HRV_0174,2022-11-30 18:08:39
103,"[{'imgObject': {}, 'id': 'strawberries', 'src': '/static/foodstim60/strawberries.jpg', 'key': 'u', 'origWidth': 410, 'origHeight': 410, 'width': 410, 'height': 410, 'widthPercent': 0.45, 'rescaleHeight': False, 'trialN': 103, 'loaded': True, 'loadedTime': 5156.0999999940395, 'positionName': 'LEFT', 'positionCoords': [245.68, 179], 'bid': 9.71}, {'imgObject': {}, 'id': 'cocktailshrimp', 'src': '/static/foodstim60/cocktailshrimp.jpg', 'key': 'i', 'origWidth': 410, 'origHeight': 410, 'width': 410, 'height': 410, 'widthPercent': 0.45, 'rescaleHeight': False, 'trialN': 103, 'loaded': True, 'loadedTime': 5366.199999988079, 'positionName': 'RIGHT', 'positionCoords': [710.32, 179], 'bid': 8.01}]",183261.0,1669831587738,strawberries,cocktailshrimp,9.71,8.01,-1.700000000000001,cocktailshrimp,921.5,922,921.9000000059605,True,i,184691.80000001192,1430.800000011921,1669831589169,1431,HRV,HRV_0174,2022-11-30 18:08:39
104,"[{'imgObject': {}, 'id': 'rigatoni', 'src': '/static/foodstim60/rigatoni.jpg', 'key': 'u', 'origWidth': 411, 'origHeight': 411, 'width': 411, 'height': 411, 'widthPercent': 0.45, 'rescaleHeight': False, 'trialN': 104, 'loaded': True, 'loadedTime': 5311.699999988079, 'positionName': 'LEFT', 'positionCoords': [244.68, 178.5], 'bid': 2.1}, {'imgObject': {}, 'id': 'ice cream sundae 002', 'src': '/static/foodstim60/ice cream sundae 002.jpg', 'key': 'i', 'origWidth': 409, 'origHeight': 409, 'width': 409, 'height': 409, 'widthPercent': 0.45, 'rescaleHeight': False, 'trialN': 104, 'loaded': True, 'loadedTime': 4189.300000011921, 'positionName': 'RIGHT', 'positionCoords': [710.32, 179.5], 'bid': 6.25}]",184692.5,1669831589169,rigatoni,ice cream sundae 002,2.1,6.25,4.15,rigatoni,2086.199999988079,2087,2086.800000011921,True,u,187294.09999999404,2601.5999999940395,1669831591771,2602,HRV,HRV_0174,2022-11-30 18:08:39
105,"[{'imgObject': {}, 'id': 'granola w milk', 'src': '/static/foodstim60/granola w milk.jpg', 'key': 'u', 'origWidth': 410, 'origHeight': 410, 'width': 410, 'height': 410, 'widthPercent': 0.45, 'rescaleHeight': False, 'trialN': 105, 'loaded': True, 'loadedTime': 5170.199999988079, 'positionName': 'LEFT', 'positionCoords': [245.68, 179], 'bid': 5.2700000000000005}, {'imgObject': {}, 'id': 'bagel plain', 'src': '/static/foodstim60/bagel plain.jpg', 'key': 'i', 'origWidth': 410, 'origHeight': 410, 'width': 410, 'height': 410, 'widthPercent': 0.45, 'rescaleHeight': False, 'trialN': 105, 'loaded': True, 'loadedTime': 4919.199999988079, 'positionName': 'RIGHT', 'positionCoords': [710.32, 179], 'bid': 5.13}]",187294.19999998808,1669831591771,granola w milk,bagel plain,5.2700000000000005,5.13,-0.14000000000000057,bagel plain,1174.6000000238419,1175,1175.0,True,i,188976.40000000596,1682.2000000178814,1669831593453,1682,HRV,HRV_0174,2022-11-30 18:08:39
106,"[{'imgObject': {}, 'id': 'rigatoni and sauce', 'src': '/static/foodstim60/rigatoni and sauce.jpg', 'key': 'u', 'origWidth': 410, 'origHeight': 411, 'width': 410, 'height': 411, 'widthPercent': 0.45, 'rescaleHeight': False, 'trialN': 106, 'loaded': True, 'loadedTime': 4076.5999999940395, 'positionName': 'LEFT', 'positionCoords': [245.68, 178.5], 'bid': 4.1}, {'imgObject': {}, 'id': 'blackbeanswithrice', 'src': '/static/foodstim60/blackbeanswithrice.jpg', 'key': 'i', 'origWidth': 410, 'origHeight': 410, 'width': 410, 'height': 410, 'widthPercent': 0.45, 'rescaleHeight': False, 'trialN': 106, 'loaded': True, 'loadedTime': 4620.300000011921, 'positionName': 'RIGHT', 'positionCoords': [710.32, 179], 'bid': 3.6}]",188976.90000000596,1669831593454,rigatoni and sauce,blackbeanswithrice,4.1,3.6,-0.49999999999999956,rigatoni and sauce,1145.199999988079,1146,1145.9000000059605,True,u,190638.80000001192,1661.9000000059605,1669831595116,1662,HRV,HRV_0174,2022-11-30 18:08:39
107,"[{'imgObject': {}, 'id': 'chickenfingers', 'src': '/static/foodstim60/chickenfingers.jpg', 'key': 'u', 'origWidth': 410, 'origHeight': 410, 'width': 410, 'height': 410, 'widthPercent': 0.45, 'rescaleHeight': False, 'trialN': 107, 'loaded': True, 'loadedTime': 4410.699999988079, 'positionName': 'LEFT', 'positionCoords': [245.68, 179], 'bid': 5.8100000000000005}, {'imgObject': {}, 'id': 'chicken nuggets2', 'src': '/static/foodstim60/chicken nuggets2.jpg', 'key': 'i', 'origWidth': 410, 'origHeight': 409, 'width': 410, 'height': 409, 'widthPercent': 0.45, 'rescaleHeight': False, 'trialN': 107, 'loaded': True, 'loadedTime': 4806.0999999940395, 'positionName': 'RIGHT', 'positionCoords': [710.32, 179.5], 'bid': 1.5}]",190639.30000001192,1669831595116,chickenfingers,chicken nuggets2,5.8100000000000005,1.5,-4.3100000000000005,chickenfingers,1390.5999999940395,1391,1391.0999999940395,True,u,192549.09999999404,1909.7999999821186,1669831597026,1910,HRV,HRV_0174,2022-11-30 18:08:39
