success,trial_type,trial_index,time_elapsed,internal_node_id,Block,TrialNumber,TrialTime,trialTimeDiff,FPS_avg,FPS_med,FPS_mode,TrialDur,winResizeTime,rt,block,button_pressed,MotCoh,MotDir,ColCoh,Color,ChoiceKey,Choice,Accuracy,RT,nFrames,FPS,PPD,missTrial,missTrialMsg,onsetDelay,fullScreenExitTime,canvCenter,TrialType,Score,BlockTrial,stimulus,button_labels,exp,subjectId,date
True,fullscreen,0,2139,0.0-0.0,0.0,1.0,,,,,,,,,,,,,,,,,,,,,,,,,,,,,,,,HRV,HRV_0174,2022-11-30 18:32:18
,wl-check-fps,1,7138,0.0-1.0,0.0,2.0,"[2800.9, 2804.7, 2825.3, 2838.4, 2856.6, 2872.3, 2888.3, 2905, 2921.9, 2938.4, 2955.2, 2972.5, 2988.3, 3005, 3021.6, 3038.4, 3055.3, 3071.6, 3088.1, 3104.8, 3121.8, 3138.1, 3154.8, 3171.9, 3188.3, 3204.8, 3221.7, 3238.3, 3254.9, 3271.7, 3288.1, 3304.7, 3321.9, 3338.1, 3354.8, 3371.6, 3388.2, 3404.9, 3421.6, 3438.3, 3454.8, 3472, 3488.2, 3505, 3521.6, 3538.1, 3554.8, 3571.8, 3588.2, 3604.7, 3621.9, 3638.4, 3654.8, 3671.7, 3688.2, 3704.8, 3721.6, 3738.1, 3755.9, 3772.5, 3788.3, 3805.1, 3821.5, 3838.3, 3854.8, 3872.5, 3888, 3904.7, 3921.9, 3938.3, 3955, 3971.5, 3988.3, 4005.2, 4021.4, 4038, 4054.8, 4071.9, 4088, 4104.7, 4121.4, 4138.3, 4154.8, 4171.5, 4188.1, 4204.7, 4221.4, 4238, 4254.7, 4271.8, 4288.1, 4304.9, 4321.8, 4338.1, 4354.9, 4371.9, 4388.1, 4404.7, 4422.2, 4438.4, 4454.7, 4471.6, 4488, 4505.4, 4521.5, 4538.1, 4554.9, 4572.3, 4588.7, 4604.7, 4621.9, 4638.2, 4655.8, 4671.7, 4688.1, 4704.8, 4723.6, 4738.4, 4755.3, 4771.5, 4789.2, 4804.9, 4821.5, 4838.9, 4854.8, 4871.5, 4888.1, 4904.7, 4921.5, 4938, 4954.7, 4971.4, 4988.3, 5004.7, 5021.5, 5038.3, 5054.7, 5071.4, 5088, 5104.9, 5121.5, 5138.1, 5154.7, 5171.7, 5187.9, 5204.6, 5221.4, 5238.1, 5254.6, 5271.5, 5288.2, 5305, 5321.5, 5338.5, 5354.7, 5371.5, 5388.2, 5405.8, 5422.1, 5438.2, 5454.6, 5471.5, 5488.1, 5504.7, 5521.6, 5538.3, 5554.6, 5571.8, 5588, 5604.6, 5621.5, 5638.1, 5654.7, 5671.5, 5689.1, 5704.7, 5721.6, 5738.3, 5754.7, 5771.8, 5788.1, 5804.6, 5822.3, 5838.1, 5854.9, 5871.4, 5888, 5904.6, 5921.4, 5938, 5954.6, 5971.5, 5988.1, 6004.7, 6023, 6038.2, 6054.7, 6071.3, 6088.1, 6104.6, 6122.2, 6138, 6154.5, 6171.3, 6188, 6204.7, 6221.5, 6237.9, 6254.7, 6271.6, 6287.9, 6304.6, 6323.8, 6338.2, 6354.8, 6372.4, 6388.9, 6404.7, 6422.2, 6438.3, 6454.8, 6472.4, 6488.1, 6504.8, 6521.4, 6538.2, 6554.9, 6572.9, 6588.6, 6604.9, 6622.2, 6638.2, 6654.8, 6672.1, 6688.5, 6704.7, 6721.6, 6737.9, 6755.8, 6772.3, 6788.1, 6804.7, 6822.7, 6839.2, 6855.7, 6872.3, 6888.1, 6904.9, 6922.6, 6939.5, 6954.8, 6972.1, 6988, 7004.9, 7022.5, 7038.4, 7054.8, 7072.1, 7088.2, 7104.8, 7121.5, 7138, 7154.5, 7171.3, 7189.4, 7205.9, 7222.6, 7239.5, 7255.8, 7272.6, 7289.6, 7306.2, 7322.7, 7339.2, 7355.8, 7372.5, 7389.3, 7406, 7422.7, 7439.2, 7455.9, 7472.7, 7489.5, 7506, 7523.3, 7539.3, 7555.7, 7572.5, 7589.3, 7605.8, 7622.6, 7639.3, 7656.1, 7672.5, 7689.1, 7705.9, 7723.1, 7739.1, 7755.7, 7772.6]","[7, 3.8, 20.6, 13.1, 18.2, 15.7, 16, 16.7, 16.9, 16.5, 16.8, 17.3, 15.8, 16.7, 16.6, 16.8, 16.9, 16.3, 16.5, 16.7, 17, 16.3, 16.7, 17.1, 16.4, 16.5, 16.9, 16.6, 16.6, 16.8, 16.4, 16.6, 17.2, 16.2, 16.7, 16.8, 16.6, 16.7, 16.7, 16.7, 16.5, 17.2, 16.2, 16.8, 16.6, 16.5, 16.7, 17, 16.4, 16.5, 17.2, 16.5, 16.4, 16.9, 16.5, 16.6, 16.8, 16.5, 17.8, 16.6, 15.8, 16.8, 16.4, 16.8, 16.5, 17.7, 15.5, 16.7, 17.2, 16.4, 16.7, 16.5, 16.8, 16.9, 16.2, 16.6, 16.8, 17.1, 16.1, 16.7, 16.7, 16.9, 16.5, 16.7, 16.6, 16.6, 16.7, 16.6, 16.7, 17.1, 16.3, 16.8, 16.9, 16.3, 16.8, 17, 16.2, 16.6, 17.5, 16.2, 16.3, 16.9, 16.4, 17.4, 16.1, 16.6, 16.8, 17.4, 16.4, 16, 17.2, 16.3, 17.6, 15.9, 16.4, 16.7, 18.8, 14.8, 16.9, 16.2, 17.7, 15.7, 16.6, 17.4, 15.9, 16.7, 16.6, 16.6, 16.8, 16.5, 16.7, 16.7, 16.9, 16.4, 16.8, 16.8, 16.4, 16.7, 16.6, 16.9, 16.6, 16.6, 16.6, 17, 16.2, 16.7, 16.8, 16.7, 16.5, 16.9, 16.7, 16.8, 16.5, 17, 16.2, 16.8, 16.7, 17.6, 16.3, 16.1, 16.4, 16.9, 16.6, 16.6, 16.9, 16.7, 16.3, 17.2, 16.2, 16.6, 16.9, 16.6, 16.6, 16.8, 17.6, 15.6, 16.9, 16.7, 16.4, 17.1, 16.3, 16.5, 17.7, 15.8, 16.8, 16.5, 16.6, 16.6, 16.8, 16.6, 16.6, 16.9, 16.6, 16.6, 18.3, 15.2, 16.5, 16.6, 16.8, 16.5, 17.6, 15.8, 16.5, 16.8, 16.7, 16.7, 16.8, 16.4, 16.8, 16.9, 16.3, 16.7, 19.2, 14.4, 16.6, 17.6, 16.5, 15.8, 17.5, 16.1, 16.5, 17.6, 15.7, 16.7, 16.6, 16.8, 16.7, 18, 15.7, 16.3, 17.3, 16, 16.6, 17.3, 16.4, 16.2, 16.9, 16.3, 17.9, 16.5, 15.8, 16.6, 18, 16.5, 16.5, 16.6, 15.8, 16.8, 17.7, 16.9, 15.3, 17.3, 15.9, 16.9, 17.6, 15.9, 16.4, 17.3, 16.1, 16.6, 16.7, 16.5, 16.5, 16.8, 18.1, 16.5, 16.7, 16.9, 16.3, 16.8, 17, 16.6, 16.5, 16.5, 16.6, 16.7, 16.8, 16.7, 16.7, 16.5, 16.7, 16.8, 16.8, 16.5, 17.3, 16, 16.4, 16.8, 16.8, 16.5, 16.8, 16.7, 16.8, 16.4, 16.6, 16.8, 17.2, 16, 16.6, 16.9]",60.0,60.0,60.0,4995.3,[],,,,,,,,,,,,,,,,,,,,,,,,,HRV,HRV_0174,2022-11-30 18:32:18
,wl-html-keyboard-response,2,29082,0.0-2.0-0.0,0.0,3.0,,,,,,,,19932.5,0.0,0,,,,,,,,,,,,,,,,,,,,,,HRV,HRV_0174,2022-11-30 18:32:18
,wl-rdm,3,36051,0.0-3.0-0.0,0.0,4.0,,,,,,,[],,,,0.0,0.0,87.9,0.0,u,0.0,True,1376.5000000298023,83.0,60.0,40.0,False,,3000.0,[],"[683, 384]",ColorTask_Demo,,,,,HRV,HRV_0174,2022-11-30 18:32:18
,wl-rdm,4,43684,0.0-3.0-1.0,0.0,5.0,,,,,,,[],,,,0.0,0.0,87.9,1.0,i,1.0,True,795.2999999821186,48.0,60.0,40.0,False,too_early ,2000.0,[],"[683, 384]",ColorTask_Demo,,,,,HRV,HRV_0174,2022-11-30 18:32:18
,wl-html-keyboard-response,5,48392,0.0-3.0-2.0,0.0,6.0,,,,,,,,2700.2000000178814,0.0,1,,,,,,,,,,,,,,,,,,,,,,HRV,HRV_0174,2022-11-30 18:32:18
,wl-html-keyboard-response,6,67785,0.0-4.0-0.0,0.0,7.0,,,,,,,,17381.79999998212,0.0,0,,,,,,,,,,,,,,,,,,,,,,HRV,HRV_0174,2022-11-30 18:32:18
,wl-html-keyboard-response,7,98993,0.0-5.0-0.0,0.0,8.0,,,,,,,,29198.09999999404,0.0,0,,,,,,,,,,,,,,,,,,,,,,HRV,HRV_0174,2022-11-30 18:32:18
,wl-rdm,8,101214,0.0-6.0-0.0,0.0,9.0,,,,,,,[],,,,,,53.2,1.0,i,1.0,True,948.1999999880791,57.0,60.0,40.0,False,,208.304691140018,[],"[683, 384]",ColorTask,1.0,1.0,,,HRV,HRV_0174,2022-11-30 18:32:18
,wl-rdm,9,103180,0.0-6.1-0.1,0.0,10.0,,,,,,,[],,,,,,87.9,1.0,i,1.0,True,639.9000000059605,39.0,60.0,40.0,False,,252.05871935572796,[],"[683, 384]",ColorTask,2.0,2.0,,,HRV,HRV_0174,2022-11-30 18:32:18
,wl-rdm,10,105714,0.0-6.2-0.2,0.0,11.0,,,,,,,[],,,,,,50.0,0.0,i,1.0,False,1226.4000000357628,74.0,60.0,40.0,False,,239.75677946393435,[],"[683, 384]",ColorTask,1.0,3.0,,,HRV,HRV_0174,2022-11-30 18:32:18
,wl-rdm,11,107980,0.0-6.3-0.3,0.0,12.0,,,,,,,[],,,,,,62.5,1.0,i,1.0,True,920.7999999821186,56.0,60.0,40.0,False,,280.8895342129672,[],"[683, 384]",ColorTask,2.0,4.0,,,HRV,HRV_0174,2022-11-30 18:32:18
,wl-rdm,12,109897,0.0-6.4-0.4,0.0,13.0,,,,,,,[],,,,,,62.5,0.0,u,0.0,True,630.5,38.0,60.0,40.0,False,,211.6392982387491,[],"[683, 384]",ColorTask,3.0,5.0,,,HRV,HRV_0174,2022-11-30 18:32:18
,wl-rdm,13,112130,0.0-6.5-0.5,0.0,14.0,,,,,,,[],,,,,,53.2,1.0,i,1.0,True,845.2000000178814,51.0,60.0,40.0,False,,304.3654399375367,[],"[683, 384]",ColorTask,4.0,6.0,,,HRV,HRV_0174,2022-11-30 18:32:18
,wl-rdm,14,114263,0.0-6.6-0.6,0.0,15.0,,,,,,,[],,,,,,56.4,0.0,i,1.0,False,796.9999999701977,48.0,60.0,40.0,False,,255.25607886569944,[],"[683, 384]",ColorTask,3.0,7.0,,,HRV,HRV_0174,2022-11-30 18:32:18
,wl-rdm,15,116330,0.0-6.7-0.7,0.0,16.0,,,,,,,[],,,,,,56.4,1.0,i,1.0,True,740.5,45.0,60.0,40.0,False,,237.58029599402107,[],"[683, 384]",ColorTask,4.0,8.0,,,HRV,HRV_0174,2022-11-30 18:32:18
,wl-rdm,16,118246,0.0-6.8-0.8,0.0,17.0,,,,,,,[],,,,,,50.0,1.0,i,1.0,True,608.0999999940395,37.0,60.0,40.0,False,,230.15568727780936,[],"[683, 384]",ColorTask,5.0,9.0,,,HRV,HRV_0174,2022-11-30 18:32:18
,wl-rdm,17,120096,0.0-6.9-0.9,0.0,18.0,,,,,,,[],,,,,,56.4,0.0,i,1.0,False,532.0000000298023,32.0,60.0,40.0,False,,241.63978504979704,[],"[683, 384]",ColorTask,4.0,10.0,,,HRV,HRV_0174,2022-11-30 18:32:18
,wl-rdm,18,122380,0.0-6.10-0.10,0.0,19.0,,,,,,,[],,,,,,62.5,0.0,i,1.0,False,953.0,58.0,60.0,40.0,False,,248.01089900419424,[],"[683, 384]",ColorTask,3.0,11.0,,,HRV,HRV_0174,2022-11-30 18:32:18
,wl-rdm,19,124330,0.0-6.11-0.11,0.0,20.0,,,,,,,[],,,,,,87.9,1.0,i,1.0,True,561.2999999821186,34.0,60.0,40.0,False,,319.0321845880241,[],"[683, 384]",ColorTask,4.0,12.0,,,HRV,HRV_0174,2022-11-30 18:32:18
,wl-rdm,20,126146,0.0-6.12-0.12,0.0,21.0,,,,,,,[],,,,,,87.9,0.0,u,0.0,True,523.2999999821186,32.0,60.0,40.0,False,,200.7885794700125,[],"[683, 384]",ColorTask,5.0,13.0,,,HRV,HRV_0174,2022-11-30 18:32:18
,wl-rdm,21,128347,0.0-6.13-0.13,0.0,22.0,,,,,,,[],,,,,,50.0,1.0,i,1.0,True,905.5999999940395,55.0,60.0,40.0,False,,221.12889399120814,[],"[683, 384]",ColorTask,6.0,14.0,,,HRV,HRV_0174,2022-11-30 18:32:18
,wl-rdm,22,131346,0.0-6.14-0.14,0.0,23.0,,,,,,,[],,,,,,50.0,0.0,u,0.0,True,1564.9000000059605,80.0,60.0,40.0,False,,356.5334758590707,[],"[683, 384]",ColorTask,7.0,15.0,,,HRV,HRV_0174,2022-11-30 18:32:18
,wl-rdm,23,133712,0.0-6.15-0.15,0.0,24.0,,,,,,,[],,,,,,53.2,1.0,i,1.0,True,908.7999999821186,55.0,60.0,40.0,False,,398.017147846503,[],"[683, 384]",ColorTask,8.0,16.0,,,HRV,HRV_0174,2022-11-30 18:32:18
,wl-rdm,24,135812,0.0-6.16-0.16,0.0,25.0,,,,,,,[],,,,,,73.6,1.0,i,1.0,True,702.5,43.0,60.0,40.0,False,,331.1515213091281,[],"[683, 384]",ColorTask,9.0,17.0,,,HRV,HRV_0174,2022-11-30 18:32:18
,wl-rdm,25,137729,0.0-6.17-0.17,0.0,26.0,,,,,,,[],,,,,,73.6,0.0,u,0.0,True,619.0999999940395,38.0,60.0,40.0,False,,224.9579535473045,[],"[683, 384]",ColorTask,10.0,18.0,,,HRV,HRV_0174,2022-11-30 18:32:18
,wl-rdm,26,139579,0.0-6.18-0.18,0.0,27.0,,,,,,,[],,,,,,87.9,0.0,u,0.0,True,552.2999999821186,34.0,60.0,40.0,False,,224.58477596222744,[],"[683, 384]",ColorTask,11.0,19.0,,,HRV,HRV_0174,2022-11-30 18:32:18
,wl-rdm,27,141628,0.0-6.19-0.19,0.0,28.0,,,,,,,[],,,,,,50.0,1.0,u,0.0,False,768.5999999940395,47.0,60.0,40.0,False,,215.57412951426912,[],"[683, 384]",ColorTask,10.0,20.0,,,HRV,HRV_0174,2022-11-30 18:32:18
,wl-rdm,28,143445,0.0-6.20-0.20,0.0,29.0,,,,,,,[],,,,,,73.6,1.0,i,1.0,True,515.1999999880791,31.0,60.0,40.0,False,,238.5753762748671,[],"[683, 384]",ColorTask,11.0,21.0,,,HRV,HRV_0174,2022-11-30 18:32:18
,wl-rdm,29,145528,0.0-6.21-0.21,0.0,30.0,,,,,,,[],,,,,,87.9,0.0,u,0.0,True,669.5999999940395,41.0,60.0,40.0,False,,332.6945085243451,[],"[683, 384]",ColorTask,12.0,22.0,,,HRV,HRV_0174,2022-11-30 18:32:18
,wl-rdm,30,147528,0.0-6.22-0.22,0.0,31.0,,,,,,,[],,,,,,53.2,0.0,i,1.0,False,708.3999999761581,43.0,60.0,40.0,False,,215.4624047030511,[],"[683, 384]",ColorTask,11.0,23.0,,,HRV,HRV_0174,2022-11-30 18:32:18
,wl-rdm,31,149544,0.0-6.23-0.23,0.0,32.0,,,,,,,[],,,,,,56.4,1.0,i,1.0,True,699.4000000059605,42.0,60.0,40.0,False,,256.0805607973594,[],"[683, 384]",ColorTask,12.0,24.0,,,HRV,HRV_0174,2022-11-30 18:32:18
,wl-rdm,32,151445,0.0-6.24-0.24,0.0,33.0,,,,,,,[],,,,,,73.6,1.0,i,1.0,True,585.9000000059605,36.0,60.0,40.0,False,,224.14401480873292,[],"[683, 384]",ColorTask,13.0,25.0,,,HRV,HRV_0174,2022-11-30 18:32:18
,wl-rdm,33,153978,0.0-6.25-0.25,0.0,34.0,,,,,,,[],,,,,,50.0,1.0,u,0.0,False,1060.699999988079,64.0,60.0,40.0,False,,386.40076245000387,[],"[683, 384]",ColorTask,12.0,26.0,,,HRV,HRV_0174,2022-11-30 18:32:18
,wl-rdm,34,156094,0.0-6.26-0.26,0.0,35.0,,,,,,,[],,,,,,50.0,0.0,i,1.0,False,803.5,49.0,60.0,40.0,False,,217.40475698380374,[],"[683, 384]",ColorTask,11.0,27.0,,,HRV,HRV_0174,2022-11-30 18:32:18
,wl-rdm,35,158194,0.0-6.27-0.27,0.0,36.0,,,,,,,[],,,,,,56.4,1.0,u,0.0,False,686.2000000178814,42.0,60.0,40.0,False,,345.96179180083607,[],"[683, 384]",ColorTask,10.0,28.0,,,HRV,HRV_0174,2022-11-30 18:32:18
,wl-rdm,36,160244,0.0-6.28-0.28,0.0,37.0,,,,,,,[],,,,,,56.4,1.0,i,1.0,True,670.4000000059605,41.0,60.0,40.0,False,,301.09978770826984,[],"[683, 384]",ColorTask,11.0,29.0,,,HRV,HRV_0174,2022-11-30 18:32:18
,wl-rdm,37,162327,0.0-6.29-0.29,0.0,38.0,,,,,,,[],,,,,,50.0,1.0,i,1.0,True,774.3000000417233,47.0,60.0,40.0,False,,228.05723070551596,[],"[683, 384]",ColorTask,12.0,30.0,,,HRV,HRV_0174,2022-11-30 18:32:18
,wl-rdm,38,164727,0.0-6.30-0.30,0.0,39.0,,,,,,,[],,,,,,53.2,1.0,i,1.0,True,941.5,57.0,60.0,40.0,False,,366.8979576739945,[],"[683, 384]",ColorTask,13.0,31.0,,,HRV,HRV_0174,2022-11-30 18:32:18
,wl-rdm,39,166610,0.0-6.31-0.31,0.0,40.0,,,,,,,[],,,,,,56.4,1.0,i,1.0,True,609.2000000178814,37.0,60.0,40.0,False,,213.25131126224224,[],"[683, 384]",ColorTask,14.0,32.0,,,HRV,HRV_0174,2022-11-30 18:32:18
,wl-rdm,40,168727,0.0-6.32-0.32,0.0,41.0,,,,,,,[],,,,,,53.2,1.0,i,1.0,True,687.0,42.0,60.0,40.0,False,,345.9678669533394,[],"[683, 384]",ColorTask,15.0,33.0,,,HRV,HRV_0174,2022-11-30 18:32:18
,wl-rdm,41,171193,0.0-6.33-0.33,0.0,42.0,,,,,,,[],,,,,,62.5,0.0,u,0.0,True,1036.800000011921,63.0,60.0,40.0,False,,340.7050356334041,[],"[683, 384]",ColorTask,16.0,34.0,,,HRV,HRV_0174,2022-11-30 18:32:18
,wl-rdm,42,173676,0.0-6.34-0.34,0.0,43.0,,,,,,,[],,,,,,50.0,0.0,i,1.0,False,1190.0000000298023,72.0,60.0,40.0,False,,213.75748795276425,[],"[683, 384]",ColorTask,15.0,35.0,,,HRV,HRV_0174,2022-11-30 18:32:18
,wl-rdm,43,175776,0.0-6.35-0.35,0.0,44.0,,,,,,,[],,,,,,73.6,1.0,i,1.0,True,701.7999999821186,43.0,60.0,40.0,False,,317.07735954857355,[],"[683, 384]",ColorTask,16.0,36.0,,,HRV,HRV_0174,2022-11-30 18:32:18
,wl-rdm,44,177859,0.0-6.36-0.36,0.0,45.0,,,,,,,[],,,,,,73.6,0.0,u,0.0,True,736.1999999880791,45.0,60.0,40.0,False,,279.143534989964,[],"[683, 384]",ColorTask,17.0,37.0,,,HRV,HRV_0174,2022-11-30 18:32:18
,wl-rdm,45,180259,0.0-6.37-0.37,0.0,46.0,,,,,,,[],,,,,,53.2,0.0,u,0.0,True,1055.300000011921,64.0,60.0,40.0,False,,265.4257007534401,[],"[683, 384]",ColorTask,18.0,38.0,,,HRV,HRV_0174,2022-11-30 18:32:18
,wl-rdm,46,182526,0.0-6.38-0.38,0.0,47.0,,,,,,,[],,,,,,73.6,0.0,u,0.0,True,991.5,60.0,60.0,40.0,False,,205.46942904250136,[],"[683, 384]",ColorTask,19.0,39.0,,,HRV,HRV_0174,2022-11-30 18:32:18
,wl-rdm,47,184592,0.0-6.39-0.39,0.0,48.0,,,,,,,[],,,,,,56.4,0.0,u,0.0,True,708.8000000119209,43.0,60.0,40.0,False,,271.0864704771213,[],"[683, 384]",ColorTask,20.0,40.0,,,HRV,HRV_0174,2022-11-30 18:32:18
,wl-rdm,48,186592,0.0-6.40-0.40,0.0,49.0,,,,,,,[],,,,,,62.5,0.0,u,0.0,True,652.2000000178814,40.0,60.0,40.0,False,,279.94516711124515,[],"[683, 384]",ColorTask,21.0,41.0,,,HRV,HRV_0174,2022-11-30 18:32:18
,wl-rdm,49,188458,0.0-6.41-0.41,0.0,50.0,,,,,,,[],,,,,,87.9,1.0,i,1.0,True,540.0,33.0,60.0,40.0,False,,242.26372209618677,[],"[683, 384]",ColorTask,22.0,42.0,,,HRV,HRV_0174,2022-11-30 18:32:18
,wl-rdm,50,190625,0.0-6.42-0.42,0.0,51.0,,,,,,,[],,,,,,62.5,0.0,i,1.0,False,740.1999999880791,45.0,60.0,40.0,False,,334.7367342831973,[],"[683, 384]",ColorTask,21.0,43.0,,,HRV,HRV_0174,2022-11-30 18:32:18
,wl-rdm,51,192808,0.0-6.43-0.43,0.0,52.0,,,,,,,[],,,,,,87.9,0.0,u,0.0,True,748.5,45.0,60.0,40.0,False,,358.8880400345601,[],"[683, 384]",ColorTask,22.0,44.0,,,HRV,HRV_0174,2022-11-30 18:32:18
,wl-rdm,52,195125,0.0-6.44-0.44,0.0,53.0,,,,,,,[],,,,,,56.4,1.0,i,1.0,True,836.8000000119209,51.0,60.0,40.0,False,,385.0046214370477,[],"[683, 384]",ColorTask,23.0,45.0,,,HRV,HRV_0174,2022-11-30 18:32:18
,wl-rdm,53,197375,0.0-6.45-0.45,0.0,54.0,,,,,,,[],,,,,,50.0,0.0,u,0.0,True,835.0,51.0,60.0,40.0,False,,331.6162712609646,[],"[683, 384]",ColorTask,24.0,46.0,,,HRV,HRV_0174,2022-11-30 18:32:18
,wl-rdm,54,200058,0.0-6.46-0.46,0.0,55.0,,,,,,,[],,,,,,73.6,0.0,i,1.0,False,1218.4000000059605,74.0,60.0,40.0,False,,395.8026984144665,[],"[683, 384]",ColorTask,23.0,47.0,,,HRV,HRV_0174,2022-11-30 18:32:18
,wl-rdm,55,202908,0.0-6.47-0.47,0.0,56.0,,,,,,,[],,,,,,53.2,1.0,u,0.0,False,1371.8999999761581,83.0,60.0,40.0,False,,399.5024112667629,[],"[683, 384]",ColorTask,22.0,48.0,,,HRV,HRV_0174,2022-11-30 18:32:18
,wl-rdm,56,204891,0.0-6.48-0.48,0.0,57.0,,,,,,,[],,,,,,87.9,1.0,i,1.0,True,698.7999999821186,42.0,60.0,40.0,False,,230.0887460145415,[],"[683, 384]",ColorTask,23.0,49.0,,,HRV,HRV_0174,2022-11-30 18:32:18
,wl-rdm,57,207157,0.0-6.49-0.49,0.0,58.0,,,,,,,[],,,,,,56.4,1.0,i,1.0,True,877.6999999880791,53.0,60.0,40.0,False,,301.9867103128902,[],"[683, 384]",ColorTask,24.0,50.0,,,HRV,HRV_0174,2022-11-30 18:32:18
,wl-rdm,58,209390,0.0-6.50-0.50,0.0,59.0,,,,,,,[],,,,,,53.2,0.0,i,1.0,False,928.1999999880791,56.0,60.0,40.0,False,,238.0188901102655,[],"[683, 384]",ColorTask,23.0,51.0,,,HRV,HRV_0174,2022-11-30 18:32:18
,wl-rdm,59,211357,0.0-6.51-0.51,0.0,60.0,,,,,,,[],,,,,,53.2,1.0,i,1.0,True,536.0999999940395,33.0,60.0,40.0,False,,341.26009418442436,[],"[683, 384]",ColorTask,24.0,52.0,,,HRV,HRV_0174,2022-11-30 18:32:18
,wl-rdm,60,213224,0.0-6.52-0.52,0.0,61.0,,,,,,,[],,,,,,62.5,0.0,i,1.0,False,535.4000000059605,33.0,60.0,40.0,False,,238.87397087130063,[],"[683, 384]",ColorTask,23.0,53.0,,,HRV,HRV_0174,2022-11-30 18:32:18
,wl-rdm,61,215524,0.0-6.53-0.53,0.0,62.0,,,,,,,[],,,,,,62.5,0.0,u,0.0,True,881.3000000119209,53.0,60.0,40.0,False,,358.6273537427704,[],"[683, 384]",ColorTask,24.0,54.0,,,HRV,HRV_0174,2022-11-30 18:32:18
,wl-rdm,62,217674,0.0-6.54-0.54,0.0,63.0,,,,,,,[],,,,,,53.2,0.0,u,0.0,True,836.0999999940395,51.0,60.0,40.0,False,,245.49083958110427,[],"[683, 384]",ColorTask,25.0,55.0,,,HRV,HRV_0174,2022-11-30 18:32:18
,wl-rdm,63,219756,0.0-6.55-0.55,0.0,64.0,,,,,,,[],,,,,,73.6,0.0,u,0.0,True,630.7999999821186,38.0,60.0,40.0,False,,369.0548656307368,[],"[683, 384]",ColorTask,26.0,56.0,,,HRV,HRV_0174,2022-11-30 18:32:18
,wl-rdm,64,221807,0.0-6.56-0.56,0.0,65.0,,,,,,,[],,,,,,53.2,0.0,u,0.0,True,621.0,38.0,60.0,40.0,False,,347.7138761922199,[],"[683, 384]",ColorTask,27.0,57.0,,,HRV,HRV_0174,2022-11-30 18:32:18
,wl-rdm,65,223740,0.0-6.57-0.57,0.0,66.0,,,,,,,[],,,,,,73.6,1.0,i,1.0,True,584.9000000059605,35.0,60.0,40.0,False,,277.44076959053376,[],"[683, 384]",ColorTask,28.0,58.0,,,HRV,HRV_0174,2022-11-30 18:32:18
,wl-rdm,66,225573,0.0-6.58-0.58,0.0,67.0,,,,,,,[],,,,,,62.5,1.0,i,1.0,True,519.3000000119209,32.0,60.0,40.0,False,,228.98093246303486,[],"[683, 384]",ColorTask,29.0,59.0,,,HRV,HRV_0174,2022-11-30 18:32:18
,wl-rdm,67,227374,0.0-6.59-0.59,0.0,68.0,,,,,,,[],,,,,,87.9,1.0,i,1.0,True,496.0000000298023,30.0,60.0,40.0,False,,225.35303467905828,[],"[683, 384]",ColorTask,30.0,60.0,,,HRV,HRV_0174,2022-11-30 18:32:18
,wl-rdm,68,229439,0.0-6.60-0.60,0.0,69.0,,,,,,,[],,,,,,73.6,1.0,i,1.0,True,668.8999999761581,41.0,60.0,40.0,False,,308.43484730891066,[],"[683, 384]",ColorTask,31.0,61.0,,,HRV,HRV_0174,2022-11-30 18:32:18
,wl-rdm,69,231406,0.0-6.61-0.61,0.0,70.0,,,,,,,[],,,,,,53.2,0.0,i,1.0,False,560.0,34.0,60.0,40.0,False,,319.859570503158,[],"[683, 384]",ColorTask,30.0,62.0,,,HRV,HRV_0174,2022-11-30 18:32:18
,wl-rdm,70,233423,0.0-6.62-0.62,0.0,71.0,,,,,,,[],,,,,,56.4,0.0,u,0.0,True,696.8000000119209,42.0,60.0,40.0,False,,240.96835765066652,[],"[683, 384]",ColorTask,31.0,63.0,,,HRV,HRV_0174,2022-11-30 18:32:18
,wl-rdm,71,235306,0.0-6.63-0.63,0.0,72.0,,,,,,,[],,,,,,87.9,1.0,i,1.0,True,568.1999999880791,35.0,60.0,40.0,False,,227.49587108552487,[],"[683, 384]",ColorTask,32.0,64.0,,,HRV,HRV_0174,2022-11-30 18:32:18
,wl-rdm,72,237406,0.0-6.64-0.64,0.0,73.0,,,,,,,[],,,,,,50.0,0.0,i,1.0,False,744.0999999940395,45.0,60.0,40.0,False,,266.79684261663033,[],"[683, 384]",ColorTask,31.0,65.0,,,HRV,HRV_0174,2022-11-30 18:32:18
,wl-rdm,73,239805,0.0-6.65-0.65,0.0,74.0,,,,,,,[],,,,,,50.0,1.0,i,1.0,True,1049.5999999940395,63.0,60.0,40.0,False,,294.2377391054105,[],"[683, 384]",ColorTask,32.0,66.0,,,HRV,HRV_0174,2022-11-30 18:32:18
,wl-rdm,74,242022,0.0-6.66-0.66,0.0,75.0,,,,,,,[],,,,,,62.5,1.0,i,1.0,True,869.5,53.0,60.0,40.0,False,,254.87699582980554,[],"[683, 384]",ColorTask,33.0,67.0,,,HRV,HRV_0174,2022-11-30 18:32:18
,wl-rdm,75,244156,0.0-6.67-0.67,0.0,76.0,,,,,,,[],,,,,,73.6,1.0,i,1.0,True,818.9000000357628,50.0,60.0,40.0,False,,248.39338595303252,[],"[683, 384]",ColorTask,34.0,68.0,,,HRV,HRV_0174,2022-11-30 18:32:18
,wl-rdm,76,246305,0.0-6.68-0.68,0.0,77.0,,,,,,,[],,,,,,73.6,0.0,u,0.0,True,779.9000000059605,47.0,60.0,40.0,False,,299.8836628993148,[],"[683, 384]",ColorTask,35.0,69.0,,,HRV,HRV_0174,2022-11-30 18:32:18
,wl-rdm,77,248188,0.0-6.69-0.69,0.0,78.0,,,,,,,[],,,,,,73.6,0.0,u,0.0,True,581.1999999880791,35.0,60.0,40.0,False,,236.96393697904122,[],"[683, 384]",ColorTask,36.0,70.0,,,HRV,HRV_0174,2022-11-30 18:32:18
,wl-rdm,78,250172,0.0-6.70-0.70,0.0,79.0,,,,,,,[],,,,,,87.9,1.0,i,1.0,True,530.5999999940395,32.0,60.0,40.0,False,,374.74299109653094,[],"[683, 384]",ColorTask,37.0,71.0,,,HRV,HRV_0174,2022-11-30 18:32:18
,wl-rdm,79,252188,0.0-6.71-0.71,0.0,80.0,,,,,,,[],,,,,,62.5,1.0,i,1.0,True,573.0,35.0,60.0,40.0,False,,355.41825877634676,[],"[683, 384]",ColorTask,38.0,72.0,,,HRV,HRV_0174,2022-11-30 18:32:18
,wl-rdm,80,254755,0.0-6.72-0.72,0.0,81.0,,,,,,,[],,,,,,62.5,1.0,u,0.0,False,1133.300000011921,68.0,60.0,40.0,False,,364.8783490412504,[],"[683, 384]",ColorTask,37.0,73.0,,,HRV,HRV_0174,2022-11-30 18:32:18
,wl-rdm,81,256638,0.0-6.73-0.73,0.0,82.0,,,,,,,[],,,,,,53.2,0.0,u,0.0,True,569.5999999940395,35.0,60.0,40.0,False,,241.00545934523262,[],"[683, 384]",ColorTask,38.0,74.0,,,HRV,HRV_0174,2022-11-30 18:32:18
,wl-rdm,82,258555,0.0-6.74-0.74,0.0,83.0,,,,,,,[],,,,,,53.2,1.0,i,1.0,True,552.5,34.0,60.0,40.0,False,,267.82075010814526,[],"[683, 384]",ColorTask,39.0,75.0,,,HRV,HRV_0174,2022-11-30 18:32:18
,wl-rdm,83,260404,0.0-6.75-0.75,0.0,84.0,,,,,,,[],,,,,,56.4,0.0,i,1.0,False,523.0999999940395,32.0,60.0,40.0,False,,245.27598581836605,[],"[683, 384]",ColorTask,38.0,76.0,,,HRV,HRV_0174,2022-11-30 18:32:18
,wl-rdm,84,262654,0.0-6.76-0.76,0.0,85.0,,,,,,,[],,,,,,53.2,0.0,u,0.0,True,982.4000000357628,59.0,60.0,40.0,False,,212.4225425183198,[],"[683, 384]",ColorTask,39.0,77.0,,,HRV,HRV_0174,2022-11-30 18:32:18
,wl-rdm,85,264604,0.0-6.77-0.77,0.0,86.0,,,,,,,[],,,,,,56.4,1.0,u,0.0,False,652.7000000178814,40.0,60.0,40.0,False,,211.92373292034395,[],"[683, 384]",ColorTask,38.0,78.0,,,HRV,HRV_0174,2022-11-30 18:32:18
,wl-rdm,86,266438,0.0-6.78-0.78,0.0,87.0,,,,,,,[],,,,,,53.2,1.0,i,1.0,True,429.7000000178814,26.0,60.0,40.0,False,,339.2060815154378,[],"[683, 384]",ColorTask,39.0,79.0,,,HRV,HRV_0174,2022-11-30 18:32:18
,wl-rdm,87,268504,0.0-6.79-0.79,0.0,88.0,,,,,,,[],,,,,,87.9,0.0,u,0.0,True,715.9000000059605,43.0,60.0,40.0,False,,285.31638599118327,[],"[683, 384]",ColorTask,40.0,80.0,,,HRV,HRV_0174,2022-11-30 18:32:18
,wl-rdm,88,270554,0.0-6.80-0.80,0.0,89.0,,,,,,,[],,,,,,87.9,0.0,u,0.0,True,613.3999999761581,37.0,60.0,40.0,False,,356.43514960847415,[],"[683, 384]",ColorTask,41.0,81.0,,,HRV,HRV_0174,2022-11-30 18:32:18
,wl-rdm,89,272787,0.0-6.81-0.81,0.0,90.0,,,,,,,[],,,,,,50.0,1.0,u,0.0,False,944.8999999761581,57.0,60.0,40.0,False,,203.20081907510504,[],"[683, 384]",ColorTask,40.0,82.0,,,HRV,HRV_0174,2022-11-30 18:32:18
,wl-rdm,90,274620,0.0-6.82-0.82,0.0,91.0,,,,,,,[],,,,,,62.5,1.0,i,1.0,True,545.5999999940395,33.0,60.0,40.0,False,,213.15138751184966,[],"[683, 384]",ColorTask,41.0,83.0,,,HRV,HRV_0174,2022-11-30 18:32:18
,wl-rdm,91,276620,0.0-6.83-0.83,0.0,92.0,,,,,,,[],,,,,,56.4,0.0,i,1.0,False,622.0999999940395,38.0,60.0,40.0,False,,300.60928592895607,[],"[683, 384]",ColorTask,40.0,84.0,,,HRV,HRV_0174,2022-11-30 18:32:18
,wl-rdm,92,278953,0.0-6.84-0.84,0.0,93.0,,,,,,,[],,,,,,56.4,0.0,u,0.0,True,939.2999999821186,57.0,60.0,40.0,False,,308.41366264588885,[],"[683, 384]",ColorTask,41.0,85.0,,,HRV,HRV_0174,2022-11-30 18:32:18
,wl-rdm,93,281053,0.0-6.85-0.85,0.0,94.0,,,,,,,[],,,,,,62.5,1.0,i,1.0,True,645.2999999821186,39.0,60.0,40.0,False,,371.7408671889026,[],"[683, 384]",ColorTask,42.0,86.0,,,HRV,HRV_0174,2022-11-30 18:32:18
,wl-rdm,94,283286,0.0-6.86-0.86,0.0,95.0,,,,,,,[],,,,,,62.5,0.0,u,0.0,True,863.5999999642372,52.0,60.0,40.0,False,,303.0647411123183,[],"[683, 384]",ColorTask,43.0,87.0,,,HRV,HRV_0174,2022-11-30 18:32:18
,wl-rdm,95,285070,0.0-6.87-0.87,0.0,96.0,,,,,,,[],,,,,,53.2,0.0,u,0.0,True,498.30000001192093,30.0,60.0,40.0,False,,205.91420858295388,[],"[683, 384]",ColorTask,44.0,88.0,,,HRV,HRV_0174,2022-11-30 18:32:18
,wl-rdm,96,286953,0.0-6.88-0.88,0.0,97.0,,,,,,,[],,,,,,73.6,1.0,i,1.0,True,553.5999999940395,34.0,60.0,40.0,False,,235.92741140631585,[],"[683, 384]",ColorTask,45.0,89.0,,,HRV,HRV_0174,2022-11-30 18:32:18
,wl-rdm,97,288870,0.0-6.89-0.89,0.0,98.0,,,,,,,[],,,,,,87.9,0.0,u,0.0,True,505.09999999403954,31.0,60.0,40.0,False,,321.4556087337413,[],"[683, 384]",ColorTask,46.0,90.0,,,HRV,HRV_0174,2022-11-30 18:32:18
,wl-rdm,98,291019,0.0-6.90-0.90,0.0,99.0,,,,,,,[],,,,,,73.6,0.0,u,0.0,True,761.0999999940395,46.0,60.0,40.0,False,,302.9528179068322,[],"[683, 384]",ColorTask,47.0,91.0,,,HRV,HRV_0174,2022-11-30 18:32:18
,wl-rdm,99,292902,0.0-6.91-0.91,0.0,100.0,,,,,,,[],,,,,,87.9,1.0,i,1.0,True,507.89999997615814,31.0,60.0,40.0,False,,283.5552040011958,[],"[683, 384]",ColorTask,48.0,92.0,,,HRV,HRV_0174,2022-11-30 18:32:18
,wl-rdm,100,295169,0.0-6.92-0.92,0.0,101.0,,,,,,,[],,,,,,73.6,0.0,u,0.0,True,901.9000000059605,55.0,60.0,40.0,False,,295.68283928737657,[],"[683, 384]",ColorTask,49.0,93.0,,,HRV,HRV_0174,2022-11-30 18:32:18
,wl-rdm,101,297019,0.0-6.93-0.93,0.0,102.0,,,,,,,[],,,,,,87.9,0.0,u,0.0,True,523.5999999940395,32.0,60.0,40.0,False,,234.50703109149794,[],"[683, 384]",ColorTask,50.0,94.0,,,HRV,HRV_0174,2022-11-30 18:32:18
,wl-rdm,102,298919,0.0-6.94-0.94,0.0,103.0,,,,,,,[],,,,,,73.6,1.0,i,1.0,True,457.19999998807907,28.0,60.0,40.0,False,,361.72302405935295,[],"[683, 384]",ColorTask,51.0,95.0,,,HRV,HRV_0174,2022-11-30 18:32:18
,wl-rdm,103,301085,0.0-6.95-0.95,0.0,104.0,,,,,,,[],,,,,,56.4,0.0,i,1.0,False,695.5999999940395,42.0,60.0,40.0,False,,389.0425312964589,[],"[683, 384]",ColorTask,50.0,96.0,,,HRV,HRV_0174,2022-11-30 18:32:18
,wl-rdm,104,302968,0.0-6.96-0.96,0.0,105.0,,,,,,,[],,,,,,50.0,0.0,u,0.0,True,574.5999999940395,35.0,60.0,40.0,False,,224.53128253390798,[],"[683, 384]",ColorTask,51.0,97.0,,,HRV,HRV_0174,2022-11-30 18:32:18
,wl-rdm,105,304984,0.0-6.97-0.97,0.0,106.0,,,,,,,[],,,,,,50.0,1.0,u,0.0,False,626.1999999880791,38.0,60.0,40.0,False,,319.14584918725825,[],"[683, 384]",ColorTask,50.0,98.0,,,HRV,HRV_0174,2022-11-30 18:32:18
,wl-rdm,106,306851,0.0-6.98-0.98,0.0,107.0,,,,,,,[],,,,,,50.0,0.0,i,1.0,False,568.8000000119209,35.0,60.0,40.0,False,,214.7665051087904,[],"[683, 384]",ColorTask,49.0,99.0,,,HRV,HRV_0174,2022-11-30 18:32:18
,wl-rdm,107,309001,0.0-6.99-0.99,0.0,108.0,,,,,,,[],,,,,,62.5,1.0,i,1.0,True,728.2999999821186,44.0,60.0,40.0,False,,348.0520332469034,[],"[683, 384]",ColorTask,50.0,100.0,,,HRV,HRV_0174,2022-11-30 18:32:18
,wl-rdm,108,310901,0.0-6.100-0.100,0.0,109.0,,,,,,,[],,,,,,62.5,1.0,i,1.0,True,588.6999999880791,36.0,60.0,40.0,False,,219.67881523216033,[],"[683, 384]",ColorTask,51.0,101.0,,,HRV,HRV_0174,2022-11-30 18:32:18
,wl-rdm,109,312967,0.0-6.101-0.101,0.0,110.0,,,,,,,[],,,,,,56.4,0.0,u,0.0,True,796.5,48.0,60.0,40.0,False,,214.07281177278932,[],"[683, 384]",ColorTask,52.0,102.0,,,HRV,HRV_0174,2022-11-30 18:32:18
,wl-rdm,110,315501,0.0-6.102-0.102,0.0,111.0,,,,,,,[],,,,,,50.0,1.0,u,0.0,False,1224.0999999940395,74.0,60.0,40.0,False,,217.82591981391082,[],"[683, 384]",ColorTask,51.0,103.0,,,HRV,HRV_0174,2022-11-30 18:32:18
,wl-rdm,111,317534,0.0-6.103-0.103,0.0,112.0,,,,,,,[],,,,,,50.0,0.0,u,0.0,True,709.2999999821186,43.0,60.0,40.0,False,,249.88229351285634,[],"[683, 384]",ColorTask,52.0,104.0,,,HRV,HRV_0174,2022-11-30 18:32:18
,wl-rdm,112,319533,0.0-6.104-0.104,0.0,113.0,,,,,,,[],,,,,,87.9,0.0,u,0.0,True,638.1000000238419,39.0,60.0,40.0,False,,267.402301296556,[],"[683, 384]",ColorTask,53.0,105.0,,,HRV,HRV_0174,2022-11-30 18:32:18
,wl-rdm,113,321617,0.0-6.105-0.105,0.0,114.0,,,,,,,[],,,,,,62.5,0.0,i,1.0,False,656.7999999821186,40.0,60.0,40.0,False,,338.8954427230999,[],"[683, 384]",ColorTask,52.0,106.0,,,HRV,HRV_0174,2022-11-30 18:32:18
,wl-rdm,114,323533,0.0-6.106-0.106,0.0,115.0,,,,,,,[],,,,,,87.9,1.0,i,1.0,True,443.90000000596046,27.0,60.0,40.0,False,,392.5867815435221,[],"[683, 384]",ColorTask,53.0,107.0,,,HRV,HRV_0174,2022-11-30 18:32:18
,wl-rdm,115,325783,0.0-6.107-0.107,0.0,116.0,,,,,,,[],,,,,,56.4,1.0,u,0.0,False,804.5999999940395,49.0,60.0,40.0,False,,376.10269588430833,[],"[683, 384]",ColorTask,52.0,108.0,,,HRV,HRV_0174,2022-11-30 18:32:18
,wl-html-keyboard-response,116,359608,0.0-7.0-0.0,1.0,117.0,,,,,,,,31817.09999999404,1.0,0,,,,,,,,,,,,,,,,,,,,,,HRV,HRV_0174,2022-11-30 18:32:18
,wl-rdm,117,361731,0.0-8.0-0.0,1.0,118.0,,,,,,,[],,,,,,50.0,0.0,i,1.0,False,771.1999999880791,47.0,60.0,40.0,False,,290.87564484578337,[],"[683, 384]",ColorTask,51.0,1.0,,,HRV,HRV_0174,2022-11-30 18:32:18
,wl-rdm,118,363698,0.0-8.1-0.1,1.0,119.0,,,,,,,[],,,,,,50.0,1.0,i,1.0,True,697.6999999880791,42.0,60.0,40.0,False,,210.57247422442688,[],"[683, 384]",ColorTask,52.0,2.0,,,HRV,HRV_0174,2022-11-30 18:32:18
,wl-rdm,119,365848,0.0-8.2-0.2,1.0,120.0,,,,,,,[],,,,,,56.4,1.0,i,1.0,True,737.1999999880791,45.0,60.0,40.0,False,,335.1939395555497,[],"[683, 384]",ColorTask,53.0,3.0,,,HRV,HRV_0174,2022-11-30 18:32:18
,wl-rdm,120,367931,0.0-8.3-0.3,1.0,121.0,,,,,,,[],,,,,,53.2,1.0,i,1.0,True,762.5000000298023,46.0,60.0,40.0,False,,237.3467856105102,[],"[683, 384]",ColorTask,54.0,4.0,,,HRV,HRV_0174,2022-11-30 18:32:18
,wl-rdm,121,370148,0.0-8.4-0.4,1.0,122.0,,,,,,,[],,,,,,50.0,1.0,i,1.0,True,819.1999999880791,50.0,60.0,40.0,False,,333.28419047500677,[],"[683, 384]",ColorTask,55.0,5.0,,,HRV,HRV_0174,2022-11-30 18:32:18
,wl-rdm,122,372347,0.0-8.5-0.5,1.0,123.0,,,,,,,[],,,,,,53.2,1.0,i,1.0,True,802.5,49.0,60.0,40.0,False,,325.01099028643887,[],"[683, 384]",ColorTask,56.0,6.0,,,HRV,HRV_0174,2022-11-30 18:32:18
,wl-rdm,123,374164,0.0-8.6-0.6,1.0,124.0,,,,,,,[],,,,,,73.6,1.0,i,1.0,True,528.1999999880791,32.0,60.0,40.0,False,,212.0598081697526,[],"[683, 384]",ColorTask,57.0,7.0,,,HRV,HRV_0174,2022-11-30 18:32:18
,wl-rdm,124,376214,0.0-8.7-0.7,1.0,125.0,,,,,,,[],,,,,,73.6,1.0,i,1.0,True,675.7000000476837,41.0,60.0,40.0,False,,291.7978676583579,[],"[683, 384]",ColorTask,58.0,8.0,,,HRV,HRV_0174,2022-11-30 18:32:18
,wl-rdm,125,378480,0.0-8.8-0.8,1.0,126.0,,,,,,,[],,,,,,53.2,0.0,u,0.0,True,964.4000000059605,58.0,60.0,40.0,False,,239.95476476295195,[],"[683, 384]",ColorTask,59.0,9.0,,,HRV,HRV_0174,2022-11-30 18:32:18
,wl-rdm,126,380630,0.0-8.9-0.9,1.0,127.0,,,,,,,[],,,,,,56.4,0.0,u,0.0,True,669.3000000417233,41.0,60.0,40.0,False,,398.80219830571576,[],"[683, 384]",ColorTask,60.0,10.0,,,HRV,HRV_0174,2022-11-30 18:32:18
,wl-rdm,127,382580,0.0-8.10-0.10,1.0,128.0,,,,,,,[],,,,,,53.2,0.0,i,1.0,False,601.5999999940395,37.0,60.0,40.0,False,,264.38505638197387,[],"[683, 384]",ColorTask,59.0,11.0,,,HRV,HRV_0174,2022-11-30 18:32:18
,wl-rdm,128,384681,0.0-8.11-0.11,1.0,129.0,,,,,,,[],,,,,,87.9,0.0,u,0.0,True,629.0999999940395,38.0,60.0,40.0,False,,394.7728240950248,[],"[683, 384]",ColorTask,60.0,12.0,,,HRV,HRV_0174,2022-11-30 18:32:18
,wl-rdm,129,387046,0.0-8.12-0.12,1.0,130.0,,,,,,,[],,,,,,50.0,0.0,u,0.0,True,1093.0999999940395,66.0,60.0,40.0,False,,209.85583430725433,[],"[683, 384]",ColorTask,61.0,13.0,,,HRV,HRV_0174,2022-11-30 18:32:18
,wl-rdm,130,389146,0.0-8.13-0.13,1.0,131.0,,,,,,,[],,,,,,73.6,0.0,u,0.0,True,744.3999999761581,45.0,60.0,40.0,False,,292.05232741123814,[],"[683, 384]",ColorTask,62.0,14.0,,,HRV,HRV_0174,2022-11-30 18:32:18
,wl-rdm,131,391630,0.0-8.14-0.14,1.0,132.0,,,,,,,[],,,,,,53.2,0.0,i,1.0,False,1088.9000000059605,66.0,60.0,40.0,False,,314.2310083995018,[],"[683, 384]",ColorTask,61.0,15.0,,,HRV,HRV_0174,2022-11-30 18:32:18
,wl-rdm,132,393930,0.0-8.15-0.15,1.0,133.0,,,,,,,[],,,,,,73.6,0.0,u,0.0,True,864.7999999821186,52.0,60.0,40.0,False,,382.60571372864564,[],"[683, 384]",ColorTask,62.0,16.0,,,HRV,HRV_0174,2022-11-30 18:32:18
,wl-rdm,133,396329,0.0-8.16-0.16,1.0,134.0,,,,,,,[],,,,,,53.2,1.0,i,1.0,True,1077.7999999821186,65.0,60.0,40.0,False,,261.4485552336637,[],"[683, 384]",ColorTask,63.0,17.0,,,HRV,HRV_0174,2022-11-30 18:32:18
,wl-rdm,134,398513,0.0-8.17-0.17,1.0,135.0,,,,,,,[],,,,,,50.0,1.0,i,1.0,True,881.9000000059605,53.0,60.0,40.0,False,,226.5217935634123,[],"[683, 384]",ColorTask,64.0,18.0,,,HRV,HRV_0174,2022-11-30 18:32:18
,wl-rdm,135,400396,0.0-8.18-0.18,1.0,136.0,,,,,,,[],,,,,,73.6,1.0,i,1.0,True,468.7999999821186,29.0,60.0,40.0,False,,340.9647365791368,[],"[683, 384]",ColorTask,65.0,19.0,,,HRV,HRV_0174,2022-11-30 18:32:18
,wl-rdm,136,402212,0.0-8.19-0.19,1.0,137.0,,,,,,,[],,,,,,87.9,1.0,i,1.0,True,489.0,30.0,60.0,40.0,False,,248.56907902030463,[],"[683, 384]",ColorTask,66.0,20.0,,,HRV,HRV_0174,2022-11-30 18:32:18
,wl-rdm,137,404629,0.0-8.20-0.20,1.0,138.0,,,,,,,[],,,,,,50.0,1.0,i,1.0,True,965.3000000119209,58.0,60.0,40.0,False,,376.1361963964168,[],"[683, 384]",ColorTask,67.0,21.0,,,HRV,HRV_0174,2022-11-30 18:32:18
,wl-rdm,138,406695,0.0-8.21-0.21,1.0,139.0,,,,,,,[],,,,,,50.0,1.0,u,0.0,False,776.0,47.0,60.0,40.0,False,,206.86271920262965,[],"[683, 384]",ColorTask,66.0,22.0,,,HRV,HRV_0174,2022-11-30 18:32:18
,wl-rdm,139,408478,0.0-8.22-0.22,1.0,140.0,,,,,,,[],,,,,,56.4,1.0,i,1.0,True,430.59999999403954,26.0,60.0,40.0,False,,288.71286340604496,[],"[683, 384]",ColorTask,67.0,23.0,,,HRV,HRV_0174,2022-11-30 18:32:18
,wl-rdm,140,410462,0.0-8.23-0.23,1.0,141.0,,,,,,,[],,,,,,73.6,1.0,i,1.0,True,552.0,34.0,60.0,40.0,False,,338.60560375049135,[],"[683, 384]",ColorTask,68.0,24.0,,,HRV,HRV_0174,2022-11-30 18:32:18
,wl-rdm,141,412628,0.0-8.24-0.24,1.0,142.0,,,,,,,[],,,,,,50.0,0.0,u,0.0,True,894.1999999880791,54.0,60.0,40.0,False,,207.7301316302376,[],"[683, 384]",ColorTask,69.0,25.0,,,HRV,HRV_0174,2022-11-30 18:32:18
,wl-rdm,142,414628,0.0-8.25-0.25,1.0,143.0,,,,,,,[],,,,,,62.5,0.0,u,0.0,True,701.4999999701977,43.0,60.0,40.0,False,,202.6622048309307,[],"[683, 384]",ColorTask,70.0,26.0,,,HRV,HRV_0174,2022-11-30 18:32:18
,wl-rdm,143,417078,0.0-8.26-0.26,1.0,144.0,,,,,,,[],,,,,,53.2,0.0,u,0.0,True,1085.5999999940395,66.0,60.0,40.0,False,,288.4386162839886,[],"[683, 384]",ColorTask,71.0,27.0,,,HRV,HRV_0174,2022-11-30 18:32:18
,wl-rdm,144,419178,0.0-8.27-0.27,1.0,145.0,,,,,,,[],,,,,,62.5,0.0,u,0.0,True,757.5999999940395,46.0,60.0,40.0,False,,279.11697299191667,[],"[683, 384]",ColorTask,72.0,28.0,,,HRV,HRV_0174,2022-11-30 18:32:18
,wl-rdm,145,421278,0.0-8.28-0.28,1.0,146.0,,,,,,,[],,,,,,53.2,0.0,u,0.0,True,759.5,46.0,60.0,40.0,False,,258.77682375267364,[],"[683, 384]",ColorTask,73.0,29.0,,,HRV,HRV_0174,2022-11-30 18:32:18
,wl-rdm,146,423144,0.0-8.29-0.29,1.0,147.0,,,,,,,[],,,,,,87.9,0.0,u,0.0,True,535.6999999880791,33.0,60.0,40.0,False,,258.92910022665353,[],"[683, 384]",ColorTask,74.0,30.0,,,HRV,HRV_0174,2022-11-30 18:32:18
,wl-rdm,147,425161,0.0-8.30-0.30,1.0,148.0,,,,,,,[],,,,,,62.5,0.0,u,0.0,True,672.7999999821186,41.0,60.0,40.0,False,,257.73843745022884,[],"[683, 384]",ColorTask,75.0,31.0,,,HRV,HRV_0174,2022-11-30 18:32:18
,wl-rdm,148,427311,0.0-8.31-0.31,1.0,149.0,,,,,,,[],,,,,,50.0,0.0,u,0.0,True,719.7000000178814,44.0,60.0,40.0,False,,342.73059085621026,[],"[683, 384]",ColorTask,76.0,32.0,,,HRV,HRV_0174,2022-11-30 18:32:18
,wl-rdm,149,429360,0.0-8.32-0.32,1.0,150.0,,,,,,,[],,,,,,56.4,1.0,u,0.0,False,695.5,42.0,60.0,40.0,False,,276.10712271675175,[],"[683, 384]",ColorTask,75.0,33.0,,,HRV,HRV_0174,2022-11-30 18:32:18
,wl-rdm,150,431377,0.0-8.33-0.33,1.0,151.0,,,,,,,[],,,,,,50.0,0.0,i,1.0,False,610.5999999940395,37.0,60.0,40.0,False,,328.0855916471975,[],"[683, 384]",ColorTask,74.0,34.0,,,HRV,HRV_0174,2022-11-30 18:32:18
,wl-rdm,151,433177,0.0-8.34-0.34,1.0,152.0,,,,,,,[],,,,,,56.4,0.0,i,1.0,False,455.90000000596046,28.0,60.0,40.0,False,,266.5821729203197,[],"[683, 384]",ColorTask,73.0,35.0,,,HRV,HRV_0174,2022-11-30 18:32:18
,wl-rdm,152,435144,0.0-8.35-0.35,1.0,153.0,,,,,,,[],,,,,,50.0,0.0,i,1.0,False,676.0,41.0,60.0,40.0,False,,200.43701403017934,[],"[683, 384]",ColorTask,72.0,36.0,,,HRV,HRV_0174,2022-11-30 18:32:18
,wl-rdm,153,437077,0.0-8.36-0.36,1.0,154.0,,,,,,,[],,,,,,62.5,1.0,i,1.0,True,544.6000000238419,33.0,60.0,40.0,False,,309.53374233336183,[],"[683, 384]",ColorTask,73.0,37.0,,,HRV,HRV_0174,2022-11-30 18:32:18
,wl-rdm,154,439127,0.0-8.37-0.37,1.0,155.0,,,,,,,[],,,,,,87.9,0.0,u,0.0,True,780.4000000059605,47.0,60.0,40.0,False,,210.21251785377828,[],"[683, 384]",ColorTask,74.0,38.0,,,HRV,HRV_0174,2022-11-30 18:32:18
,wl-rdm,155,441476,0.0-8.38-0.38,1.0,156.0,,,,,,,[],,,,,,56.4,1.0,u,0.0,False,936.2999999821186,57.0,60.0,40.0,False,,324.8839979484014,[],"[683, 384]",ColorTask,73.0,39.0,,,HRV,HRV_0174,2022-11-30 18:32:18
,wl-rdm,156,443310,0.0-8.39-0.39,1.0,157.0,,,,,,,[],,,,,,87.9,1.0,i,1.0,True,426.5,26.0,60.0,40.0,False,,331.95316763255823,[],"[683, 384]",ColorTask,74.0,40.0,,,HRV,HRV_0174,2022-11-30 18:32:18
,wl-rdm,157,445459,0.0-8.40-0.40,1.0,158.0,,,,,,,[],,,,,,62.5,0.0,u,0.0,True,851.1999999880791,52.0,60.0,40.0,False,,216.41240266487708,[],"[683, 384]",ColorTask,75.0,41.0,,,HRV,HRV_0174,2022-11-30 18:32:18
,wl-rdm,158,447559,0.0-8.41-0.41,1.0,159.0,,,,,,,[],,,,,,62.5,1.0,i,1.0,True,735.2999999821186,45.0,60.0,40.0,False,,274.7007958865665,[],"[683, 384]",ColorTask,76.0,42.0,,,HRV,HRV_0174,2022-11-30 18:32:18
,wl-rdm,159,449493,0.0-8.42-0.42,1.0,160.0,,,,,,,[],,,,,,87.9,1.0,i,1.0,True,497.19999998807907,30.0,60.0,40.0,False,,362.3407189769464,[],"[683, 384]",ColorTask,77.0,43.0,,,HRV,HRV_0174,2022-11-30 18:32:18
,wl-rdm,160,452076,0.0-8.43-0.43,1.0,161.0,,,,,,,[],,,,,,53.2,0.0,u,0.0,True,1221.9000000059605,74.0,60.0,40.0,False,,283.8345824023832,[],"[683, 384]",ColorTask,78.0,44.0,,,HRV,HRV_0174,2022-11-30 18:32:18
,wl-rdm,161,453926,0.0-8.44-0.44,1.0,162.0,,,,,,,[],,,,,,87.9,0.0,u,0.0,True,561.3999999761581,34.0,60.0,40.0,False,,203.81445772713562,[],"[683, 384]",ColorTask,79.0,45.0,,,HRV,HRV_0174,2022-11-30 18:32:18
,wl-rdm,162,456092,0.0-8.45-0.45,1.0,163.0,,,,,,,[],,,,,,53.2,1.0,i,1.0,True,775.5999999940395,47.0,60.0,40.0,False,,314.3058465269396,[],"[683, 384]",ColorTask,80.0,46.0,,,HRV,HRV_0174,2022-11-30 18:32:18
,wl-rdm,163,458009,0.0-8.46-0.46,1.0,164.0,,,,,,,[],,,,,,87.9,1.0,i,1.0,True,541.0999999940395,33.0,60.0,40.0,False,,315.87213558668543,[],"[683, 384]",ColorTask,81.0,47.0,,,HRV,HRV_0174,2022-11-30 18:32:18
,wl-rdm,164,460225,0.0-8.47-0.47,1.0,165.0,,,,,,,[],,,,,,50.0,1.0,u,0.0,False,769.2000000178814,47.0,60.0,40.0,False,,382.68165158118086,[],"[683, 384]",ColorTask,80.0,48.0,,,HRV,HRV_0174,2022-11-30 18:32:18
,wl-rdm,165,462108,0.0-8.48-0.48,1.0,166.0,,,,,,,[],,,,,,87.9,1.0,i,1.0,True,538.9000000059605,33.0,60.0,40.0,False,,250.5362636295656,[],"[683, 384]",ColorTask,81.0,49.0,,,HRV,HRV_0174,2022-11-30 18:32:18
,wl-rdm,166,464508,0.0-8.49-0.49,1.0,167.0,,,,,,,[],,,,,,56.4,0.0,u,0.0,True,952.5,58.0,60.0,40.0,False,,350.39211311487236,[],"[683, 384]",ColorTask,82.0,50.0,,,HRV,HRV_0174,2022-11-30 18:32:18
,wl-rdm,167,466675,0.0-8.50-0.50,1.0,168.0,,,,,,,[],,,,,,62.5,1.0,i,1.0,True,702.3000000119209,43.0,60.0,40.0,False,,373.4648828701404,[],"[683, 384]",ColorTask,83.0,51.0,,,HRV,HRV_0174,2022-11-30 18:32:18
,wl-rdm,168,468808,0.0-8.51-0.51,1.0,169.0,,,,,,,[],,,,,,87.9,0.0,u,0.0,True,726.0999999940395,44.0,60.0,40.0,False,,348.9301055219229,[],"[683, 384]",ColorTask,84.0,52.0,,,HRV,HRV_0174,2022-11-30 18:32:18
,wl-rdm,169,471391,0.0-8.52-0.52,1.0,170.0,,,,,,,[],,,,,,53.2,1.0,i,1.0,True,1276.5,77.0,60.0,40.0,False,,245.85660027606505,[],"[683, 384]",ColorTask,85.0,53.0,,,HRV,HRV_0174,2022-11-30 18:32:18
,wl-rdm,170,473291,0.0-8.53-0.53,1.0,171.0,,,,,,,[],,,,,,87.9,1.0,i,1.0,True,561.2999999821186,34.0,60.0,40.0,False,,253.98214696552822,[],"[683, 384]",ColorTask,86.0,54.0,,,HRV,HRV_0174,2022-11-30 18:32:18
,wl-rdm,171,475424,0.0-8.54-0.54,1.0,172.0,,,,,,,[],,,,,,53.2,0.0,u,0.0,True,810.5000000298023,49.0,60.0,40.0,False,,241.62127349821364,[],"[683, 384]",ColorTask,87.0,55.0,,,HRV,HRV_0174,2022-11-30 18:32:18
,wl-rdm,172,477607,0.0-8.55-0.55,1.0,173.0,,,,,,,[],,,,,,53.2,1.0,u,0.0,False,818.3999999761581,50.0,60.0,40.0,False,,298.4480761685784,[],"[683, 384]",ColorTask,86.0,56.0,,,HRV,HRV_0174,2022-11-30 18:32:18
,wl-rdm,173,479791,0.0-8.56-0.56,1.0,174.0,,,,,,,[],,,,,,53.2,1.0,i,1.0,True,824.0000000298023,50.0,60.0,40.0,False,,298.466253792965,[],"[683, 384]",ColorTask,87.0,57.0,,,HRV,HRV_0174,2022-11-30 18:32:18
,wl-rdm,174,482157,0.0-8.57-0.57,1.0,175.0,,,,,,,[],,,,,,53.2,0.0,u,0.0,True,945.0999999940395,57.0,60.0,40.0,False,,342.3161002784766,[],"[683, 384]",ColorTask,88.0,58.0,,,HRV,HRV_0174,2022-11-30 18:32:18
,wl-rdm,175,484107,0.0-8.58-0.58,1.0,176.0,,,,,,,[],,,,,,62.5,0.0,i,1.0,False,653.7999999821186,40.0,60.0,40.0,False,,214.9476193121524,[],"[683, 384]",ColorTask,87.0,59.0,,,HRV,HRV_0174,2022-11-30 18:32:18
,wl-rdm,176,486257,0.0-8.59-0.59,1.0,177.0,,,,,,,[],,,,,,56.4,0.0,u,0.0,True,809.5999999940395,49.0,60.0,40.0,False,,258.9773725469451,[],"[683, 384]",ColorTask,88.0,60.0,,,HRV,HRV_0174,2022-11-30 18:32:18
,wl-rdm,177,488274,0.0-8.60-0.60,1.0,178.0,,,,,,,[],,,,,,73.6,0.0,u,0.0,True,636.0,39.0,60.0,40.0,False,,292.834989879575,[],"[683, 384]",ColorTask,89.0,61.0,,,HRV,HRV_0174,2022-11-30 18:32:18
,wl-rdm,178,490407,0.0-8.61-0.61,1.0,179.0,,,,,,,[],,,,,,56.4,0.0,u,0.0,True,826.5999999940395,50.0,60.0,40.0,False,,246.08903164113215,[],"[683, 384]",ColorTask,90.0,62.0,,,HRV,HRV_0174,2022-11-30 18:32:18
,wl-rdm,179,492673,0.0-8.62-0.62,1.0,180.0,,,,,,,[],,,,,,73.6,0.0,u,0.0,True,912.8000000119209,55.0,60.0,40.0,False,,287.3210703401581,[],"[683, 384]",ColorTask,91.0,63.0,,,HRV,HRV_0174,2022-11-30 18:32:18
,wl-rdm,180,494807,0.0-8.63-0.63,1.0,181.0,,,,,,,[],,,,,,50.0,0.0,i,1.0,False,756.7999999821186,46.0,60.0,40.0,False,,292.1431511673759,[],"[683, 384]",ColorTask,90.0,64.0,,,HRV,HRV_0174,2022-11-30 18:32:18
,wl-rdm,181,496640,0.0-8.64-0.64,1.0,182.0,,,,,,,[],,,,,,56.4,1.0,i,1.0,True,496.60000002384186,30.0,60.0,40.0,False,,272.81141683648104,[],"[683, 384]",ColorTask,91.0,65.0,,,HRV,HRV_0174,2022-11-30 18:32:18
,wl-rdm,182,498856,0.0-8.65-0.65,1.0,183.0,,,,,,,[],,,,,,62.5,0.0,i,1.0,False,886.4999999701977,54.0,60.0,40.0,False,,237.0387725106323,[],"[683, 384]",ColorTask,90.0,66.0,,,HRV,HRV_0174,2022-11-30 18:32:18
,wl-rdm,183,501273,0.0-8.66-0.66,1.0,184.0,,,,,,,[],,,,,,73.6,0.0,u,0.0,True,1052.5,64.0,60.0,40.0,False,,268.3597705406668,[],"[683, 384]",ColorTask,91.0,67.0,,,HRV,HRV_0174,2022-11-30 18:32:18
,wl-rdm,184,503289,0.0-8.67-0.67,1.0,185.0,,,,,,,[],,,,,,87.9,0.0,u,0.0,True,706.0999999940395,43.0,60.0,40.0,False,,218.1360767888737,[],"[683, 384]",ColorTask,92.0,68.0,,,HRV,HRV_0174,2022-11-30 18:32:18
,wl-rdm,185,505339,0.0-8.68-0.68,1.0,186.0,,,,,,,[],,,,,,56.4,0.0,u,0.0,True,728.1999999880791,44.0,60.0,40.0,False,,244.02484083832667,[],"[683, 384]",ColorTask,93.0,69.0,,,HRV,HRV_0174,2022-11-30 18:32:18
,wl-rdm,186,507606,0.0-8.69-0.69,1.0,187.0,,,,,,,[],,,,,,62.5,0.0,u,0.0,True,850.5999999940395,51.0,60.0,40.0,False,,335.6735425780043,[],"[683, 384]",ColorTask,94.0,70.0,,,HRV,HRV_0174,2022-11-30 18:32:18
,wl-rdm,187,509506,0.0-8.70-0.70,1.0,188.0,,,,,,,[],,,,,,62.5,1.0,i,1.0,True,598.9999999701977,36.0,60.0,40.0,False,,244.15992263701676,[],"[683, 384]",ColorTask,95.0,71.0,,,HRV,HRV_0174,2022-11-30 18:32:18
,wl-rdm,188,511472,0.0-8.71-0.71,1.0,189.0,,,,,,,[],,,,,,87.9,1.0,i,1.0,True,570.1999999880791,35.0,60.0,40.0,False,,332.5430300326816,[],"[683, 384]",ColorTask,96.0,72.0,,,HRV,HRV_0174,2022-11-30 18:32:18
,wl-rdm,189,513539,0.0-8.72-0.72,1.0,190.0,,,,,,,[],,,,,,62.5,0.0,u,0.0,True,725.5,44.0,60.0,40.0,False,,253.87225063052207,[],"[683, 384]",ColorTask,97.0,73.0,,,HRV,HRV_0174,2022-11-30 18:32:18
,wl-rdm,190,515372,0.0-8.73-0.73,1.0,191.0,,,,,,,[],,,,,,73.6,0.0,u,0.0,True,515.6999999880791,31.0,60.0,40.0,False,,243.96970175814192,[],"[683, 384]",ColorTask,98.0,74.0,,,HRV,HRV_0174,2022-11-30 18:32:18
,wl-rdm,191,517072,0.0-8.74-0.74,1.0,192.0,,,,,,,[],,,,,,87.9,0.0,u,0.0,True,408.39999997615814,25.0,60.0,40.0,False,,218.03106418768417,[],"[683, 384]",ColorTask,99.0,75.0,,,HRV,HRV_0174,2022-11-30 18:32:18
,wl-rdm,192,519122,0.0-8.75-0.75,1.0,193.0,,,,,,,[],,,,,,50.0,1.0,i,1.0,True,625.9000000059605,38.0,60.0,40.0,False,,353.3677433335645,[],"[683, 384]",ColorTask,100.0,76.0,,,HRV,HRV_0174,2022-11-30 18:32:18
,wl-rdm,193,520955,0.0-8.76-0.76,1.0,194.0,,,,,,,[],,,,,,62.5,1.0,i,1.0,True,506.59999999403954,31.0,60.0,40.0,False,,235.06298406233645,[],"[683, 384]",ColorTask,101.0,77.0,,,HRV,HRV_0174,2022-11-30 18:32:18
,wl-rdm,194,522672,0.0-8.77-0.77,1.0,195.0,,,,,,,[],,,,,,62.5,1.0,i,1.0,True,404.7999999821186,25.0,60.0,40.0,False,,242.5760816683578,[],"[683, 384]",ColorTask,102.0,78.0,,,HRV,HRV_0174,2022-11-30 18:32:18
,wl-rdm,195,524655,0.0-8.78-0.78,1.0,196.0,,,,,,,[],,,,,,56.4,0.0,i,1.0,False,595.0,36.0,60.0,40.0,False,,300.3469847084007,[],"[683, 384]",ColorTask,101.0,79.0,,,HRV,HRV_0174,2022-11-30 18:32:18
,wl-rdm,196,526605,0.0-8.79-0.79,1.0,197.0,,,,,,,[],,,,,,53.2,1.0,i,1.0,True,586.4000000357628,36.0,60.0,40.0,False,,273.9455806811647,[],"[683, 384]",ColorTask,102.0,80.0,,,HRV,HRV_0174,2022-11-30 18:32:18
,wl-rdm,197,528488,0.0-8.80-0.80,1.0,198.0,,,,,,,[],,,,,,62.5,1.0,i,1.0,True,612.5999999940395,37.0,60.0,40.0,False,,216.12691641192254,[],"[683, 384]",ColorTask,103.0,81.0,,,HRV,HRV_0174,2022-11-30 18:32:18
,wl-rdm,198,530371,0.0-8.81-0.81,1.0,199.0,,,,,,,[],,,,,,53.2,1.0,i,1.0,True,445.19999998807907,27.0,60.0,40.0,False,,351.2900283053302,[],"[683, 384]",ColorTask,104.0,82.0,,,HRV,HRV_0174,2022-11-30 18:32:18
,wl-rdm,199,532571,0.0-8.82-0.82,1.0,200.0,,,,,,,[],,,,,,50.0,0.0,i,1.0,False,763.0,46.0,60.0,40.0,False,,354.74535195798205,[],"[683, 384]",ColorTask,103.0,83.0,,,HRV,HRV_0174,2022-11-30 18:32:18
,wl-rdm,200,534737,0.0-8.83-0.83,1.0,201.0,,,,,,,[],,,,,,56.4,1.0,i,1.0,True,832.0999999940395,50.0,60.0,40.0,False,,266.3974885141619,[],"[683, 384]",ColorTask,104.0,84.0,,,HRV,HRV_0174,2022-11-30 18:32:18
,wl-rdm,201,536754,0.0-8.84-0.84,1.0,202.0,,,,,,,[],,,,,,73.6,1.0,i,1.0,True,712.4000000059605,43.0,60.0,40.0,False,,233.76254610335076,[],"[683, 384]",ColorTask,105.0,85.0,,,HRV,HRV_0174,2022-11-30 18:32:18
,wl-rdm,202,538937,0.0-8.85-0.85,1.0,203.0,,,,,,,[],,,,,,56.4,1.0,u,0.0,False,835.4000000059605,51.0,60.0,40.0,False,,265.5845009393817,[],"[683, 384]",ColorTask,104.0,86.0,,,HRV,HRV_0174,2022-11-30 18:32:18
,wl-rdm,203,540870,0.0-8.86-0.86,1.0,204.0,,,,,,,[],,,,,,73.6,1.0,i,1.0,True,575.4999999701977,35.0,60.0,40.0,False,,280.76132015269377,[],"[683, 384]",ColorTask,105.0,87.0,,,HRV,HRV_0174,2022-11-30 18:32:18
,wl-rdm,204,542937,0.0-8.87-0.87,1.0,205.0,,,,,,,[],,,,,,62.5,0.0,u,0.0,True,655.6999999880791,40.0,60.0,40.0,False,,336.17642858065005,[],"[683, 384]",ColorTask,106.0,88.0,,,HRV,HRV_0174,2022-11-30 18:32:18
,wl-rdm,205,545154,0.0-8.88-0.88,1.0,206.0,,,,,,,[],,,,,,73.6,1.0,i,1.0,True,750.1999999880791,45.0,60.0,40.0,False,,386.46311933653965,[],"[683, 384]",ColorTask,107.0,89.0,,,HRV,HRV_0174,2022-11-30 18:32:18
,wl-rdm,206,547204,0.0-8.89-0.89,1.0,207.0,,,,,,,[],,,,,,50.0,1.0,u,0.0,False,736.1000000238419,45.0,60.0,40.0,False,,227.9526324153462,[],"[683, 384]",ColorTask,106.0,90.0,,,HRV,HRV_0174,2022-11-30 18:32:18
,wl-rdm,207,549104,0.0-8.90-0.90,1.0,208.0,,,,,,,[],,,,,,73.6,0.0,u,0.0,True,536.3000000119209,33.0,60.0,40.0,False,,273.1051890515775,[],"[683, 384]",ColorTask,107.0,91.0,,,HRV,HRV_0174,2022-11-30 18:32:18
,wl-rdm,208,550871,0.0-8.91-0.91,1.0,209.0,,,,,,,[],,,,,,87.9,1.0,i,1.0,True,497.7999999821186,30.0,60.0,40.0,False,,203.25886506060442,[],"[683, 384]",ColorTask,108.0,92.0,,,HRV,HRV_0174,2022-11-30 18:32:18
,wl-rdm,209,552804,0.0-8.92-0.92,1.0,210.0,,,,,,,[],,,,,,87.9,0.0,u,0.0,True,583.0999999940395,35.0,60.0,40.0,False,,299.9720545625277,[],"[683, 384]",ColorTask,109.0,93.0,,,HRV,HRV_0174,2022-11-30 18:32:18
,wl-rdm,210,554754,0.0-8.93-0.93,1.0,211.0,,,,,,,[],,,,,,87.9,0.0,u,0.0,True,615.5999999940395,37.0,60.0,40.0,False,,269.5911380947915,[],"[683, 384]",ColorTask,110.0,94.0,,,HRV,HRV_0174,2022-11-30 18:32:18
,wl-rdm,211,556820,0.0-8.94-0.94,1.0,212.0,,,,,,,[],,,,,,62.5,1.0,i,1.0,True,732.5999999940395,44.0,60.0,40.0,False,,260.00069558612194,[],"[683, 384]",ColorTask,111.0,95.0,,,HRV,HRV_0174,2022-11-30 18:32:18
,wl-rdm,212,558820,0.0-8.95-0.95,1.0,213.0,,,,,,,[],,,,,,56.4,1.0,i,1.0,True,540.2999999821186,33.0,60.0,40.0,False,,382.13411163507067,[],"[683, 384]",ColorTask,112.0,96.0,,,HRV,HRV_0174,2022-11-30 18:32:18
,wl-rdm,213,560836,0.0-8.96-0.96,1.0,214.0,,,,,,,[],,,,,,73.6,0.0,u,0.0,True,605.8000000119209,37.0,60.0,40.0,False,,331.72810327833747,[],"[683, 384]",ColorTask,113.0,97.0,,,HRV,HRV_0174,2022-11-30 18:32:18
,wl-rdm,214,562636,0.0-8.97-0.97,1.0,215.0,,,,,,,[],,,,,,87.9,1.0,i,1.0,True,501.2000000178814,31.0,60.0,40.0,False,,205.46572349306533,[],"[683, 384]",ColorTask,114.0,98.0,,,HRV,HRV_0174,2022-11-30 18:32:18
,wl-rdm,215,564703,0.0-8.98-0.98,1.0,216.0,,,,,,,[],,,,,,53.2,0.0,i,1.0,False,604.5999999940395,37.0,60.0,40.0,False,,374.52140310828713,[],"[683, 384]",ColorTask,113.0,99.0,,,HRV,HRV_0174,2022-11-30 18:32:18
,wl-rdm,216,566536,0.0-8.99-0.99,1.0,217.0,,,,,,,[],,,,,,56.4,1.0,i,1.0,True,554.7999999821186,34.0,60.0,40.0,False,,215.63720761155224,[],"[683, 384]",ColorTask,114.0,100.0,,,HRV,HRV_0174,2022-11-30 18:32:18
,wl-rdm,217,568686,0.0-8.100-0.100,1.0,218.0,,,,,,,[],,,,,,56.4,0.0,u,0.0,True,865.4000000059605,52.0,60.0,40.0,False,,224.16649702758124,[],"[683, 384]",ColorTask,115.0,101.0,,,HRV,HRV_0174,2022-11-30 18:32:18
,wl-rdm,218,570669,0.0-8.101-0.101,1.0,219.0,,,,,,,[],,,,,,73.6,1.0,i,1.0,True,602.0999999940395,37.0,60.0,40.0,False,,314.63670997126064,[],"[683, 384]",ColorTask,116.0,102.0,,,HRV,HRV_0174,2022-11-30 18:32:18
,wl-rdm,219,572952,0.0-8.102-0.102,1.0,220.0,,,,,,,[],,,,,,56.4,0.0,u,0.0,True,839.3000000119209,51.0,60.0,40.0,False,,353.09729589827447,[],"[683, 384]",ColorTask,117.0,103.0,,,HRV,HRV_0174,2022-11-30 18:32:18
,wl-rdm,220,574869,0.0-8.103-0.103,1.0,221.0,,,,,,,[],,,,,,62.5,1.0,i,1.0,True,498.30000001192093,30.0,60.0,40.0,False,,339.28571481995186,[],"[683, 384]",ColorTask,118.0,104.0,,,HRV,HRV_0174,2022-11-30 18:32:18
,wl-rdm,221,576869,0.0-8.104-0.104,1.0,222.0,,,,,,,[],,,,,,73.6,1.0,i,1.0,True,536.3999999761581,33.0,60.0,40.0,False,,384.2898022582461,[],"[683, 384]",ColorTask,119.0,105.0,,,HRV,HRV_0174,2022-11-30 18:32:18
,wl-rdm,222,579102,0.0-8.105-0.105,1.0,223.0,,,,,,,[],,,,,,50.0,0.0,u,0.0,True,865.8000000119209,52.0,60.0,40.0,False,,301.79238193726576,[],"[683, 384]",ColorTask,120.0,106.0,,,HRV,HRV_0174,2022-11-30 18:32:18
,wl-rdm,223,581685,0.0-8.106-0.106,1.0,224.0,,,,,,,[],,,,,,50.0,1.0,i,1.0,True,1195.0999999940395,72.0,60.0,40.0,False,,303.2361427767041,[],"[683, 384]",ColorTask,121.0,107.0,,,HRV,HRV_0174,2022-11-30 18:32:18
,wl-rdm,224,583785,0.0-8.107-0.107,1.0,225.0,,,,,,,[],,,,,,73.6,0.0,u,0.0,True,785.5,48.0,60.0,40.0,False,,215.93933946196802,[],"[683, 384]",ColorTask,122.0,108.0,,,HRV,HRV_0174,2022-11-30 18:32:18
,wl-html-button-response,225,587024,0.0-9.0-0.0,,,,,,,,,,3233.0999999940395,,0,,,,,,,,,,,,,,,,,,,,<h3>End of this session. Thank you!</h3><br>,['Close window'],HRV,HRV_0174,2022-11-30 18:32:18
