trialN,stimuli,question,trialStartTime,trialStartTime_UNIX,stimulus1,rt,receivedResponse,rating,trialEndTime,trialDuration,stimulus1Loaded,exp,subjectId,date
0,"[{'imgObject': {}, 'id': 'olives', 'src': '/static/foodstim60/olives.jpg', 'key': 'NaN', 'origWidth': 410, 'origHeight': 410, 'width': 410, 'height': 410, 'widthPercent': 0.8, 'rescaleHeight': True, 'trialN': 0, 'loaded': True, 'loadedTime': 2176.2999999970198, 'positionName': 'CENTER', 'positionCoords': [435, 307]}]",Rate how much you want to eat this food from 0 (least) to 10 (most).,2297.7000000029802,1669830088154,olives,2703.7000000029802,True,3.2600000000000002,5001.4000000059605,2703.7000000029802,True,HRV,HRV_0051,2022-11-30 17:42:09
1,"[{'imgObject': {}, 'id': 'hotdog w must', 'src': '/static/foodstim60/hotdog w must.jpg', 'key': 'NaN', 'origWidth': 409, 'origHeight': 409, 'width': 409, 'height': 409, 'widthPercent': 0.8, 'rescaleHeight': True, 'trialN': 1, 'loaded': True, 'loadedTime': 2181.2999999970198, 'positionName': 'CENTER', 'positionCoords': [435.5, 307.5]}]",Rate how much you want to eat this food from 0 (least) to 10 (most).,5005.5999999940395,1669830090862,hotdog w must,1251.800000011921,True,3.14,6257.4000000059605,1251.800000011921,True,HRV,HRV_0051,2022-11-30 17:42:09
2,"[{'imgObject': {}, 'id': 'sushi w_condiments', 'src': '/static/foodstim60/sushi w_condiments.jpg', 'key': 'NaN', 'origWidth': 410, 'origHeight': 410, 'width': 410, 'height': 410, 'widthPercent': 0.8, 'rescaleHeight': True, 'trialN': 2, 'loaded': True, 'loadedTime': 2194.0999999940395, 'positionName': 'CENTER', 'positionCoords': [435, 307]}]",Rate how much you want to eat this food from 0 (least) to 10 (most).,6258.79999999702,1669830092115,sushi w_condiments,1484.5,True,6.76,7743.29999999702,1484.5,True,HRV,HRV_0051,2022-11-30 17:42:09
3,"[{'imgObject': {}, 'id': 'Tribe humus pita', 'src': '/static/foodstim60/Tribe humus pita.jpg', 'key': 'NaN', 'origWidth': 411, 'origHeight': 411, 'width': 411, 'height': 411, 'widthPercent': 0.8, 'rescaleHeight': True, 'trialN': 3, 'loaded': True, 'loadedTime': 2201.5, 'positionName': 'CENTER', 'positionCoords': [434.5, 306.5]}]",Rate how much you want to eat this food from 0 (least) to 10 (most).,7744.29999999702,1669830093600,Tribe humus pita,1709.0,True,2.82,9453.29999999702,1709.0,True,HRV,HRV_0051,2022-11-30 17:42:09
4,"[{'imgObject': {}, 'id': 'cheerios', 'src': '/static/foodstim60/cheerios.jpg', 'key': 'NaN', 'origWidth': 409, 'origHeight': 410, 'width': 409, 'height': 410, 'widthPercent': 0.8, 'rescaleHeight': True, 'trialN': 4, 'loaded': True, 'loadedTime': 2206.5999999940395, 'positionName': 'CENTER', 'positionCoords': [435.5, 307]}]",Rate how much you want to eat this food from 0 (least) to 10 (most).,9454.5,1669830095311,cheerios,1410.7000000029802,True,2.15,10865.20000000298,1410.7000000029802,True,HRV,HRV_0051,2022-11-30 17:42:09
5,"[{'imgObject': {}, 'id': 'blueberries', 'src': '/static/foodstim60/blueberries.jpg', 'key': 'NaN', 'origWidth': 411, 'origHeight': 411, 'width': 411, 'height': 411, 'widthPercent': 0.8, 'rescaleHeight': True, 'trialN': 5, 'loaded': True, 'loadedTime': 2216, 'positionName': 'CENTER', 'positionCoords': [434.5, 306.5]}]",Rate how much you want to eat this food from 0 (least) to 10 (most).,10866.59999999404,1669830096723,blueberries,2104.6000000089407,True,9.46,12971.20000000298,2104.6000000089407,True,HRV,HRV_0051,2022-11-30 17:42:09
6,"[{'imgObject': {}, 'id': 'sweetpotato', 'src': '/static/foodstim60/sweetpotato.jpg', 'key': 'NaN', 'origWidth': 410, 'origHeight': 410, 'width': 410, 'height': 410, 'widthPercent': 0.8, 'rescaleHeight': True, 'trialN': 6, 'loaded': True, 'loadedTime': 2219, 'positionName': 'CENTER', 'positionCoords': [435, 307]}]",Rate how much you want to eat this food from 0 (least) to 10 (most).,12972.59999999404,1669830098829,sweetpotato,1320.6000000089407,True,1.78,14293.20000000298,1320.6000000089407,True,HRV,HRV_0051,2022-11-30 17:42:09
7,"[{'imgObject': {}, 'id': 'yogurt no spoon', 'src': '/static/foodstim60/yogurt no spoon.jpg', 'key': 'NaN', 'origWidth': 411, 'origHeight': 410, 'width': 411, 'height': 410, 'widthPercent': 0.8, 'rescaleHeight': True, 'trialN': 7, 'loaded': True, 'loadedTime': 2220.0999999940395, 'positionName': 'CENTER', 'positionCoords': [434.5, 307]}]",Rate how much you want to eat this food from 0 (least) to 10 (most).,14294.5,1669830100151,yogurt no spoon,982.5999999940395,True,2.75,15277.09999999404,982.5999999940395,True,HRV,HRV_0051,2022-11-30 17:42:09
8,"[{'imgObject': {}, 'id': 'cherry tomato', 'src': '/static/foodstim60/cherry tomato.jpg', 'key': 'NaN', 'origWidth': 410, 'origHeight': 410, 'width': 410, 'height': 410, 'widthPercent': 0.8, 'rescaleHeight': True, 'trialN': 8, 'loaded': True, 'loadedTime': 2228.0999999940395, 'positionName': 'CENTER', 'positionCoords': [435, 307]}]",Rate how much you want to eat this food from 0 (least) to 10 (most).,15278.59999999404,1669830101135,cherry tomato,976.5,True,2.7800000000000002,16255.09999999404,976.5,True,HRV,HRV_0051,2022-11-30 17:42:09
9,"[{'imgObject': {}, 'id': 'roastedpotatoes', 'src': '/static/foodstim60/roastedpotatoes.jpg', 'key': 'NaN', 'origWidth': 409, 'origHeight': 410, 'width': 409, 'height': 410, 'widthPercent': 0.8, 'rescaleHeight': True, 'trialN': 9, 'loaded': True, 'loadedTime': 2231.2000000029802, 'positionName': 'CENTER', 'positionCoords': [435.5, 307]}]",Rate how much you want to eat this food from 0 (least) to 10 (most).,16256.5,1669830102113,roastedpotatoes,960.5999999940395,True,2.7800000000000002,17217.09999999404,960.5999999940395,True,HRV,HRV_0051,2022-11-30 17:42:09
10,"[{'imgObject': {}, 'id': 'avocado', 'src': '/static/foodstim60/avocado.jpg', 'key': 'NaN', 'origWidth': 409, 'origHeight': 409, 'width': 409, 'height': 409, 'widthPercent': 0.8, 'rescaleHeight': True, 'trialN': 10, 'loaded': True, 'loadedTime': 2241.5999999940395, 'positionName': 'CENTER', 'positionCoords': [435.5, 307.5]}]",Rate how much you want to eat this food from 0 (least) to 10 (most).,17218.59999999404,1669830103075,avocado,1468.5,True,2.56,18687.09999999404,1468.5,True,HRV,HRV_0051,2022-11-30 17:42:09
11,"[{'imgObject': {}, 'id': 'mashed potato', 'src': '/static/foodstim60/mashed potato.jpg', 'key': 'NaN', 'origWidth': 409, 'origHeight': 409, 'width': 409, 'height': 409, 'widthPercent': 0.8, 'rescaleHeight': True, 'trialN': 11, 'loaded': True, 'loadedTime': 2242.9000000059605, 'positionName': 'CENTER', 'positionCoords': [435.5, 307.5]}]",Rate how much you want to eat this food from 0 (least) to 10 (most).,18688.5,1669830104545,mashed potato,1760.5,True,1.87,20449.0,1760.5,True,HRV,HRV_0051,2022-11-30 17:42:09
12,"[{'imgObject': {}, 'id': 'popsicles', 'src': '/static/foodstim60/popsicles.jpg', 'key': 'NaN', 'origWidth': 410, 'origHeight': 410, 'width': 410, 'height': 410, 'widthPercent': 0.8, 'rescaleHeight': True, 'trialN': 12, 'loaded': True, 'loadedTime': 2248.2000000029802, 'positionName': 'CENTER', 'positionCoords': [435, 307]}]",Rate how much you want to eat this food from 0 (least) to 10 (most).,20450.40000000596,1669830106306,popsicles,1044.5,True,1.67,21494.90000000596,1044.5,True,HRV,HRV_0051,2022-11-30 17:42:09
13,"[{'imgObject': {}, 'id': 'turkeysandwich', 'src': '/static/foodstim60/turkeysandwich.jpg', 'key': 'NaN', 'origWidth': 409, 'origHeight': 409, 'width': 409, 'height': 409, 'widthPercent': 0.8, 'rescaleHeight': True, 'trialN': 13, 'loaded': True, 'loadedTime': 2249.7000000029802, 'positionName': 'CENTER', 'positionCoords': [435.5, 307.5]}]",Rate how much you want to eat this food from 0 (least) to 10 (most).,21496.40000000596,1669830107352,turkeysandwich,1496.5,True,1.82,22992.90000000596,1496.5,True,HRV,HRV_0051,2022-11-30 17:42:09
14,"[{'imgObject': {}, 'id': 'pear', 'src': '/static/foodstim60/pear.jpg', 'key': 'NaN', 'origWidth': 411, 'origHeight': 410, 'width': 411, 'height': 410, 'widthPercent': 0.8, 'rescaleHeight': True, 'trialN': 14, 'loaded': True, 'loadedTime': 2268.7000000029802, 'positionName': 'CENTER', 'positionCoords': [434.5, 307]}]",Rate how much you want to eat this food from 0 (least) to 10 (most).,22994.40000000596,1669830108850,pear,1206.5,True,2.64,24200.90000000596,1206.5,True,HRV,HRV_0051,2022-11-30 17:42:09
15,"[{'imgObject': {}, 'id': 'kiwi', 'src': '/static/foodstim60/kiwi.jpg', 'key': 'NaN', 'origWidth': 410, 'origHeight': 410, 'width': 410, 'height': 410, 'widthPercent': 0.8, 'rescaleHeight': True, 'trialN': 15, 'loaded': True, 'loadedTime': 2221.4000000059605, 'positionName': 'CENTER', 'positionCoords': [435, 307]}]",Rate how much you want to eat this food from 0 (least) to 10 (most).,24202.29999999702,1669830110058,kiwi,2026.5,True,5.32,26228.79999999702,2026.5,True,HRV,HRV_0051,2022-11-30 17:42:09
16,"[{'imgObject': {}, 'id': 'bagel and cc', 'src': '/static/foodstim60/bagel and cc.jpg', 'key': 'NaN', 'origWidth': 410, 'origHeight': 410, 'width': 410, 'height': 410, 'widthPercent': 0.8, 'rescaleHeight': True, 'trialN': 16, 'loaded': True, 'loadedTime': 2224.7000000029802, 'positionName': 'CENTER', 'positionCoords': [435, 307]}]",Rate how much you want to eat this food from 0 (least) to 10 (most).,26230.20000000298,1669830112086,bagel and cc,1596.5999999940395,True,1.18,27826.79999999702,1596.5999999940395,True,HRV,HRV_0051,2022-11-30 17:42:09
17,"[{'imgObject': {}, 'id': 'omelette', 'src': '/static/foodstim60/omelette.jpg', 'key': 'NaN', 'origWidth': 410, 'origHeight': 409, 'width': 410, 'height': 409, 'widthPercent': 0.8, 'rescaleHeight': True, 'trialN': 17, 'loaded': True, 'loadedTime': 2225.7999999970198, 'positionName': 'CENTER', 'positionCoords': [435, 307.5]}]",Rate how much you want to eat this food from 0 (least) to 10 (most).,27828.29999999702,1669830113684,omelette,1576.5,True,1.35,29404.79999999702,1576.5,True,HRV,HRV_0051,2022-11-30 17:42:09
18,"[{'imgObject': {}, 'id': 'hashbrowns', 'src': '/static/foodstim60/hashbrowns.jpg', 'key': 'NaN', 'origWidth': 411, 'origHeight': 410, 'width': 411, 'height': 410, 'widthPercent': 0.8, 'rescaleHeight': True, 'trialN': 18, 'loaded': True, 'loadedTime': 2226.5, 'positionName': 'CENTER', 'positionCoords': [434.5, 307]}]",Rate how much you want to eat this food from 0 (least) to 10 (most).,29406.29999999702,1669830115262,hashbrowns,1878.4000000059605,True,1.4000000000000001,31284.70000000298,1878.4000000059605,True,HRV,HRV_0051,2022-11-30 17:42:09
19,"[{'imgObject': {}, 'id': 'chickenfingers', 'src': '/static/foodstim60/chickenfingers.jpg', 'key': 'NaN', 'origWidth': 410, 'origHeight': 410, 'width': 410, 'height': 410, 'widthPercent': 0.8, 'rescaleHeight': True, 'trialN': 19, 'loaded': True, 'loadedTime': 2227.2999999970198, 'positionName': 'CENTER', 'positionCoords': [435, 307]}]",Rate how much you want to eat this food from 0 (least) to 10 (most).,31286.20000000298,1669830117142,chickenfingers,1784.3999999910593,True,5.3500000000000005,33070.59999999404,1784.3999999910593,True,HRV,HRV_0051,2022-11-30 17:42:09
20,"[{'imgObject': {}, 'id': 'cherries', 'src': '/static/foodstim60/cherries.jpg', 'key': 'NaN', 'origWidth': 410, 'origHeight': 411, 'width': 410, 'height': 411, 'widthPercent': 0.8, 'rescaleHeight': True, 'trialN': 20, 'loaded': True, 'loadedTime': 2232.2000000029802, 'positionName': 'CENTER', 'positionCoords': [435, 306.5]}]",Rate how much you want to eat this food from 0 (least) to 10 (most).,33072.20000000298,1669830118928,cherries,1244.3999999910593,True,7.390000000000001,34316.59999999404,1244.3999999910593,True,HRV,HRV_0051,2022-11-30 17:42:09
21,"[{'imgObject': {}, 'id': 'froot loops w milk', 'src': '/static/foodstim60/froot loops w milk.jpg', 'key': 'NaN', 'origWidth': 410, 'origHeight': 410, 'width': 410, 'height': 410, 'widthPercent': 0.8, 'rescaleHeight': True, 'trialN': 21, 'loaded': True, 'loadedTime': 2233.5999999940395, 'positionName': 'CENTER', 'positionCoords': [435, 307]}]",Rate how much you want to eat this food from 0 (least) to 10 (most).,34318.20000000298,1669830120174,froot loops w milk,1836.3999999910593,True,0.14,36154.59999999404,1836.3999999910593,True,HRV,HRV_0051,2022-11-30 17:42:09
22,"[{'imgObject': {}, 'id': 'eggsalad', 'src': '/static/foodstim60/eggsalad.jpg', 'key': 'NaN', 'origWidth': 410, 'origHeight': 409, 'width': 410, 'height': 409, 'widthPercent': 0.8, 'rescaleHeight': True, 'trialN': 22, 'loaded': True, 'loadedTime': 2234.4000000059605, 'positionName': 'CENTER', 'positionCoords': [435, 307.5]}]",Rate how much you want to eat this food from 0 (least) to 10 (most).,36155.90000000596,1669830122012,eggsalad,2024.5999999940395,True,2.07,38180.5,2024.5999999940395,True,HRV,HRV_0051,2022-11-30 17:42:09
23,"[{'imgObject': {}, 'id': 'ice cream sundae 002', 'src': '/static/foodstim60/ice cream sundae 002.jpg', 'key': 'NaN', 'origWidth': 409, 'origHeight': 409, 'width': 409, 'height': 409, 'widthPercent': 0.8, 'rescaleHeight': True, 'trialN': 23, 'loaded': True, 'loadedTime': 2235.2999999970198, 'positionName': 'CENTER', 'positionCoords': [435.5, 307.5]}]",Rate how much you want to eat this food from 0 (least) to 10 (most).,38181.79999999702,1669830124038,ice cream sundae 002,896.7000000029802,True,2.09,39078.5,896.7000000029802,True,HRV,HRV_0051,2022-11-30 17:42:09
24,"[{'imgObject': {}, 'id': 'raspberries', 'src': '/static/foodstim60/raspberries.jpg', 'key': 'NaN', 'origWidth': 411, 'origHeight': 411, 'width': 411, 'height': 411, 'widthPercent': 0.8, 'rescaleHeight': True, 'trialN': 24, 'loaded': True, 'loadedTime': 2238.7000000029802, 'positionName': 'CENTER', 'positionCoords': [434.5, 306.5]}]",Rate how much you want to eat this food from 0 (least) to 10 (most).,39079.79999999702,1669830124936,raspberries,1480.6000000089407,True,8.2,40560.40000000596,1480.6000000089407,True,HRV,HRV_0051,2022-11-30 17:42:09
25,"[{'imgObject': {}, 'id': 'fried eggs', 'src': '/static/foodstim60/fried eggs.jpg', 'key': 'NaN', 'origWidth': 410, 'origHeight': 410, 'width': 410, 'height': 410, 'widthPercent': 0.8, 'rescaleHeight': True, 'trialN': 25, 'loaded': True, 'loadedTime': 2239.5999999940395, 'positionName': 'CENTER', 'positionCoords': [435, 307]}]",Rate how much you want to eat this food from 0 (least) to 10 (most).,40561.40000000596,1669830126417,fried eggs,950.8999999910593,True,3.73,41512.29999999702,950.8999999910593,True,HRV,HRV_0051,2022-11-30 17:42:09
26,"[{'imgObject': {}, 'id': 'seaweed', 'src': '/static/foodstim60/seaweed.jpg', 'key': 'NaN', 'origWidth': 410, 'origHeight': 410, 'width': 410, 'height': 410, 'widthPercent': 0.8, 'rescaleHeight': True, 'trialN': 26, 'loaded': True, 'loadedTime': 2240.2999999970198, 'positionName': 'CENTER', 'positionCoords': [435, 307]}]",Rate how much you want to eat this food from 0 (least) to 10 (most).,41513.09999999404,1669830127369,seaweed,1565.300000011921,True,2.1,43078.40000000596,1565.300000011921,True,HRV,HRV_0051,2022-11-30 17:42:09
27,"[{'imgObject': {}, 'id': 'turkey sandwich', 'src': '/static/foodstim60/turkey sandwich.jpg', 'key': 'NaN', 'origWidth': 409, 'origHeight': 409, 'width': 409, 'height': 409, 'widthPercent': 0.8, 'rescaleHeight': True, 'trialN': 27, 'loaded': True, 'loadedTime': 2246.2000000029802, 'positionName': 'CENTER', 'positionCoords': [435.5, 307.5]}]",Rate how much you want to eat this food from 0 (least) to 10 (most).,43079.79999999702,1669830128936,turkey sandwich,1536.6000000089407,True,2.29,44616.40000000596,1536.6000000089407,True,HRV,HRV_0051,2022-11-30 17:42:09
28,"[{'imgObject': {}, 'id': 'rigatoni and sauce', 'src': '/static/foodstim60/rigatoni and sauce.jpg', 'key': 'NaN', 'origWidth': 410, 'origHeight': 411, 'width': 410, 'height': 411, 'widthPercent': 0.8, 'rescaleHeight': True, 'trialN': 28, 'loaded': True, 'loadedTime': 2247.2000000029802, 'positionName': 'CENTER', 'positionCoords': [435, 306.5]}]",Rate how much you want to eat this food from 0 (least) to 10 (most).,44617.59999999404,1669830130474,rigatoni and sauce,2214.7000000029802,True,0.6,46832.29999999702,2214.7000000029802,True,HRV,HRV_0051,2022-11-30 17:42:09
29,"[{'imgObject': {}, 'id': 'burrito', 'src': '/static/foodstim60/burrito.jpg', 'key': 'NaN', 'origWidth': 410, 'origHeight': 410, 'width': 410, 'height': 410, 'widthPercent': 0.8, 'rescaleHeight': True, 'trialN': 29, 'loaded': True, 'loadedTime': 2248.9000000059605, 'positionName': 'CENTER', 'positionCoords': [435, 307]}]",Rate how much you want to eat this food from 0 (least) to 10 (most).,46833.79999999702,1669830132690,burrito,1616.5,True,0.48,48450.29999999702,1616.5,True,HRV,HRV_0051,2022-11-30 17:42:09
30,"[{'imgObject': {}, 'id': 'edamame', 'src': '/static/foodstim60/edamame.jpg', 'key': 'NaN', 'origWidth': 409, 'origHeight': 410, 'width': 409, 'height': 410, 'widthPercent': 0.8, 'rescaleHeight': True, 'trialN': 30, 'loaded': True, 'loadedTime': 2252.7999999970198, 'positionName': 'CENTER', 'positionCoords': [435.5, 307]}]",Rate how much you want to eat this food from 0 (least) to 10 (most).,48451.59999999404,1669830134308,edamame,1724.6000000089407,True,1.76,50176.20000000298,1724.6000000089407,True,HRV,HRV_0051,2022-11-30 17:42:09
31,"[{'imgObject': {}, 'id': 'mac & cheese', 'src': '/static/foodstim60/mac & cheese.jpg', 'key': 'NaN', 'origWidth': 410, 'origHeight': 410, 'width': 410, 'height': 410, 'widthPercent': 0.8, 'rescaleHeight': True, 'trialN': 31, 'loaded': True, 'loadedTime': 2254, 'positionName': 'CENTER', 'positionCoords': [435, 307]}]",Rate how much you want to eat this food from 0 (least) to 10 (most).,50177.70000000298,1669830136034,mac & cheese,1340.5,True,0.5700000000000001,51518.20000000298,1340.5,True,HRV,HRV_0051,2022-11-30 17:42:09
32,"[{'imgObject': {}, 'id': 'veggieswithdip', 'src': '/static/foodstim60/veggieswithdip.jpg', 'key': 'NaN', 'origWidth': 409, 'origHeight': 409, 'width': 409, 'height': 409, 'widthPercent': 0.8, 'rescaleHeight': True, 'trialN': 32, 'loaded': True, 'loadedTime': 2254.9000000059605, 'positionName': 'CENTER', 'positionCoords': [435.5, 307.5]}]",Rate how much you want to eat this food from 0 (least) to 10 (most).,51519.59999999404,1669830137376,veggieswithdip,1508.5,True,5.14,53028.09999999404,1508.5,True,HRV,HRV_0051,2022-11-30 17:42:09
33,"[{'imgObject': {}, 'id': 'banana', 'src': '/static/foodstim60/banana.jpg', 'key': 'NaN', 'origWidth': 410, 'origHeight': 410, 'width': 410, 'height': 410, 'widthPercent': 0.8, 'rescaleHeight': True, 'trialN': 33, 'loaded': True, 'loadedTime': 2255.7999999970198, 'positionName': 'CENTER', 'positionCoords': [435, 307]}]",Rate how much you want to eat this food from 0 (least) to 10 (most).,53029.59999999404,1669830138886,banana,1376.5,True,7.1000000000000005,54406.09999999404,1376.5,True,HRV,HRV_0051,2022-11-30 17:42:09
34,"[{'imgObject': {}, 'id': 'salad w chicken', 'src': '/static/foodstim60/salad w chicken.jpg', 'key': 'NaN', 'origWidth': 411, 'origHeight': 411, 'width': 411, 'height': 411, 'widthPercent': 0.8, 'rescaleHeight': True, 'trialN': 34, 'loaded': True, 'loadedTime': 2256.5, 'positionName': 'CENTER', 'positionCoords': [434.5, 306.5]}]",Rate how much you want to eat this food from 0 (least) to 10 (most).,54407.5,1669830140264,salad w chicken,1636.5999999940395,True,4.5600000000000005,56044.09999999404,1636.5999999940395,True,HRV,HRV_0051,2022-11-30 17:42:09
35,"[{'imgObject': {}, 'id': 'Grapes', 'src': '/static/foodstim60/Grapes.jpg', 'key': 'NaN', 'origWidth': 411, 'origHeight': 411, 'width': 411, 'height': 411, 'widthPercent': 0.8, 'rescaleHeight': True, 'trialN': 35, 'loaded': True, 'loadedTime': 2259.5999999940395, 'positionName': 'CENTER', 'positionCoords': [434.5, 306.5]}]",Rate how much you want to eat this food from 0 (least) to 10 (most).,56045.59999999404,1669830141906,Grapes,1104.4000000059605,True,4.75,57150.0,1104.4000000059605,True,HRV,HRV_0051,2022-11-30 17:42:09
36,"[{'imgObject': {}, 'id': 'tacos', 'src': '/static/foodstim60/tacos.jpg', 'key': 'NaN', 'origWidth': 411, 'origHeight': 411, 'width': 411, 'height': 411, 'widthPercent': 0.8, 'rescaleHeight': True, 'trialN': 36, 'loaded': True, 'loadedTime': 2260.7000000029802, 'positionName': 'CENTER', 'positionCoords': [434.5, 306.5]}]",Rate how much you want to eat this food from 0 (least) to 10 (most).,57151.59999999404,1669830143012,tacos,1288.4000000059605,True,2.0,58440.0,1288.4000000059605,True,HRV,HRV_0051,2022-11-30 17:42:09
37,"[{'imgObject': {}, 'id': 'steak', 'src': '/static/foodstim60/steak.jpg', 'key': 'NaN', 'origWidth': 410, 'origHeight': 410, 'width': 410, 'height': 410, 'widthPercent': 0.8, 'rescaleHeight': True, 'trialN': 37, 'loaded': True, 'loadedTime': 2261.5999999940395, 'positionName': 'CENTER', 'positionCoords': [435, 307]}]",Rate how much you want to eat this food from 0 (least) to 10 (most).,58441.5,1669830144302,steak,1296.5,True,5.0600000000000005,59738.0,1296.5,True,HRV,HRV_0051,2022-11-30 17:42:09
38,"[{'imgObject': {}, 'id': 'cocktailshrimp', 'src': '/static/foodstim60/cocktailshrimp.jpg', 'key': 'NaN', 'origWidth': 410, 'origHeight': 410, 'width': 410, 'height': 410, 'widthPercent': 0.8, 'rescaleHeight': True, 'trialN': 38, 'loaded': True, 'loadedTime': 2262.5999999940395, 'positionName': 'CENTER', 'positionCoords': [435, 307]}]",Rate how much you want to eat this food from 0 (least) to 10 (most).,59739.70000000298,1669830145600,cocktailshrimp,1130.2000000029802,True,3.89,60869.90000000596,1130.2000000029802,True,HRV,HRV_0051,2022-11-30 17:42:09
39,"[{'imgObject': {}, 'id': 'apple slices', 'src': '/static/foodstim60/apple slices.jpg', 'key': 'NaN', 'origWidth': 409, 'origHeight': 410, 'width': 409, 'height': 410, 'widthPercent': 0.8, 'rescaleHeight': True, 'trialN': 39, 'loaded': True, 'loadedTime': 2263.4000000059605, 'positionName': 'CENTER', 'positionCoords': [435.5, 307]}]",Rate how much you want to eat this food from 0 (least) to 10 (most).,60871.5,1669830146732,apple slices,1612.4000000059605,True,6.75,62483.90000000596,1612.4000000059605,True,HRV,HRV_0051,2022-11-30 17:42:09
40,"[{'imgObject': {}, 'id': 'baked potato', 'src': '/static/foodstim60/baked potato.jpg', 'key': 'NaN', 'origWidth': 409, 'origHeight': 410, 'width': 409, 'height': 410, 'widthPercent': 0.8, 'rescaleHeight': True, 'trialN': 40, 'loaded': True, 'loadedTime': 2266.5, 'positionName': 'CENTER', 'positionCoords': [435.5, 307]}]",Rate how much you want to eat this food from 0 (least) to 10 (most).,62485.59999999404,1669830148346,baked potato,1040.300000011921,True,3.7,63525.90000000596,1040.300000011921,True,HRV,HRV_0051,2022-11-30 17:42:09
41,"[{'imgObject': {}, 'id': 'salmon', 'src': '/static/foodstim60/salmon.jpg', 'key': 'NaN', 'origWidth': 410, 'origHeight': 409, 'width': 410, 'height': 409, 'widthPercent': 0.8, 'rescaleHeight': True, 'trialN': 41, 'loaded': True, 'loadedTime': 2267.7000000029802, 'positionName': 'CENTER', 'positionCoords': [435, 307.5]}]",Rate how much you want to eat this food from 0 (least) to 10 (most).,63527.5,1669830149388,salmon,1560.2999999970198,True,5.8500000000000005,65087.79999999702,1560.2999999970198,True,HRV,HRV_0051,2022-11-30 17:42:09
42,"[{'imgObject': {}, 'id': 'cantaloupe', 'src': '/static/foodstim60/cantaloupe.jpg', 'key': 'NaN', 'origWidth': 409, 'origHeight': 409, 'width': 409, 'height': 409, 'widthPercent': 0.8, 'rescaleHeight': True, 'trialN': 42, 'loaded': True, 'loadedTime': 2269.5999999940395, 'positionName': 'CENTER', 'positionCoords': [435.5, 307.5]}]",Rate how much you want to eat this food from 0 (least) to 10 (most).,65089.59999999404,1669830150950,cantaloupe,1248.2000000029802,True,4.29,66337.79999999702,1248.2000000029802,True,HRV,HRV_0051,2022-11-30 17:42:09
43,"[{'imgObject': {}, 'id': 'eggs', 'src': '/static/foodstim60/eggs.jpg', 'key': 'NaN', 'origWidth': 409, 'origHeight': 409, 'width': 409, 'height': 409, 'widthPercent': 0.8, 'rescaleHeight': True, 'trialN': 43, 'loaded': True, 'loadedTime': 2270.5999999940395, 'positionName': 'CENTER', 'positionCoords': [435.5, 307.5]}]",Rate how much you want to eat this food from 0 (least) to 10 (most).,66339.5,1669830152200,eggs,1712.2000000029802,True,4.28,68051.70000000298,1712.2000000029802,True,HRV,HRV_0051,2022-11-30 17:42:09
44,"[{'imgObject': {}, 'id': 'orange slices', 'src': '/static/foodstim60/orange slices.jpg', 'key': 'NaN', 'origWidth': 409, 'origHeight': 410, 'width': 409, 'height': 410, 'widthPercent': 0.8, 'rescaleHeight': True, 'trialN': 44, 'loaded': True, 'loadedTime': 2274.5, 'positionName': 'CENTER', 'positionCoords': [435.5, 307]}]",Rate how much you want to eat this food from 0 (least) to 10 (most).,68053.5,1669830153914,orange slices,2362.2000000029802,True,0.68,70415.70000000298,2362.2000000029802,True,HRV,HRV_0051,2022-11-30 17:42:09
45,"[{'imgObject': {}, 'id': 'luckycharms', 'src': '/static/foodstim60/luckycharms.jpg', 'key': 'NaN', 'origWidth': 410, 'origHeight': 409, 'width': 410, 'height': 409, 'widthPercent': 0.8, 'rescaleHeight': True, 'trialN': 45, 'loaded': True, 'loadedTime': 2275.9000000059605, 'positionName': 'CENTER', 'positionCoords': [435, 307.5]}]",Rate how much you want to eat this food from 0 (least) to 10 (most).,70417.5,1669830156278,luckycharms,1472.0999999940395,True,0.2,71889.59999999404,1472.0999999940395,True,HRV,HRV_0051,2022-11-30 17:42:09
46,"[{'imgObject': {}, 'id': 'corn cob', 'src': '/static/foodstim60/corn cob.jpg', 'key': 'NaN', 'origWidth': 411, 'origHeight': 411, 'width': 411, 'height': 411, 'widthPercent': 0.8, 'rescaleHeight': True, 'trialN': 46, 'loaded': True, 'loadedTime': 2277.0999999940395, 'positionName': 'CENTER', 'positionCoords': [434.5, 306.5]}]",Rate how much you want to eat this food from 0 (least) to 10 (most).,71891.5,1669830157752,corn cob,1896.0999999940395,True,8.34,73787.59999999404,1896.0999999940395,True,HRV,HRV_0051,2022-11-30 17:42:09
47,"[{'imgObject': {}, 'id': 'strawberries', 'src': '/static/foodstim60/strawberries.jpg', 'key': 'NaN', 'origWidth': 410, 'origHeight': 410, 'width': 410, 'height': 410, 'widthPercent': 0.8, 'rescaleHeight': True, 'trialN': 47, 'loaded': True, 'loadedTime': 2278.2999999970198, 'positionName': 'CENTER', 'positionCoords': [435, 307]}]",Rate how much you want to eat this food from 0 (least) to 10 (most).,73789.0,1669830159649,strawberries,1288.5999999940395,True,3.14,75077.59999999404,1288.5999999940395,True,HRV,HRV_0051,2022-11-30 17:42:09
48,"[{'imgObject': {}, 'id': 'blackbeanswithrice', 'src': '/static/foodstim60/blackbeanswithrice.jpg', 'key': 'NaN', 'origWidth': 410, 'origHeight': 410, 'width': 410, 'height': 410, 'widthPercent': 0.8, 'rescaleHeight': True, 'trialN': 48, 'loaded': True, 'loadedTime': 2279.5, 'positionName': 'CENTER', 'positionCoords': [435, 307]}]",Rate how much you want to eat this food from 0 (least) to 10 (most).,75078.79999999702,1669830160939,blackbeanswithrice,1374.7000000029802,True,5.8500000000000005,76453.5,1374.7000000029802,True,HRV,HRV_0051,2022-11-30 17:42:09
49,"[{'imgObject': {}, 'id': 'fruitsalad', 'src': '/static/foodstim60/fruitsalad.jpg', 'key': 'NaN', 'origWidth': 410, 'origHeight': 410, 'width': 410, 'height': 410, 'widthPercent': 0.8, 'rescaleHeight': True, 'trialN': 49, 'loaded': True, 'loadedTime': 2282.4000000059605, 'positionName': 'CENTER', 'positionCoords': [435, 307]}]",Rate how much you want to eat this food from 0 (least) to 10 (most).,76454.70000000298,1669830162315,fruitsalad,1320.7999999970198,True,5.01,77775.5,1320.7999999970198,True,HRV,HRV_0051,2022-11-30 17:42:09
50,"[{'imgObject': {}, 'id': 'raisin bran w milk', 'src': '/static/foodstim60/raisin bran w milk.jpg', 'key': 'NaN', 'origWidth': 411, 'origHeight': 411, 'width': 411, 'height': 411, 'widthPercent': 0.8, 'rescaleHeight': True, 'trialN': 50, 'loaded': True, 'loadedTime': 2283.7000000029802, 'positionName': 'CENTER', 'positionCoords': [434.5, 306.5]}]",Rate how much you want to eat this food from 0 (least) to 10 (most).,77776.79999999702,1669830163637,raisin bran w milk,1080.6000000089407,True,3.9,78857.40000000596,1080.6000000089407,True,HRV,HRV_0051,2022-11-30 17:42:09
51,"[{'imgObject': {}, 'id': 'burger', 'src': '/static/foodstim60/burger.jpg', 'key': 'NaN', 'origWidth': 409, 'origHeight': 409, 'width': 409, 'height': 409, 'widthPercent': 0.8, 'rescaleHeight': True, 'trialN': 51, 'loaded': True, 'loadedTime': 2284.7999999970198, 'positionName': 'CENTER', 'positionCoords': [435.5, 307.5]}]",Rate how much you want to eat this food from 0 (least) to 10 (most).,78858.70000000298,1669830164719,burger,976.7999999970198,True,3.2,79835.5,976.7999999970198,True,HRV,HRV_0051,2022-11-30 17:42:09
52,"[{'imgObject': {}, 'id': 'grilled chicken strips', 'src': '/static/foodstim60/grilled chicken strips.jpg', 'key': 'NaN', 'origWidth': 410, 'origHeight': 411, 'width': 410, 'height': 411, 'widthPercent': 0.8, 'rescaleHeight': True, 'trialN': 52, 'loaded': True, 'loadedTime': 2285.7000000029802, 'positionName': 'CENTER', 'positionCoords': [435, 306.5]}]",Rate how much you want to eat this food from 0 (least) to 10 (most).,79836.79999999702,1669830165697,grilled chicken strips,1328.6000000089407,True,5.51,81165.40000000596,1328.6000000089407,True,HRV,HRV_0051,2022-11-30 17:42:09
53,"[{'imgObject': {}, 'id': 'bagel plain', 'src': '/static/foodstim60/bagel plain.jpg', 'key': 'NaN', 'origWidth': 410, 'origHeight': 410, 'width': 410, 'height': 410, 'widthPercent': 0.8, 'rescaleHeight': True, 'trialN': 53, 'loaded': True, 'loadedTime': 2287.4000000059605, 'positionName': 'CENTER', 'positionCoords': [435, 307]}]",Rate how much you want to eat this food from 0 (least) to 10 (most).,81166.79999999702,1669830167027,bagel plain,1454.5,True,0.15,82621.29999999702,1454.5,True,HRV,HRV_0051,2022-11-30 17:42:09
54,"[{'imgObject': {}, 'id': 'shreddedwheatwithmilk', 'src': '/static/foodstim60/shreddedwheatwithmilk.jpg', 'key': 'NaN', 'origWidth': 410, 'origHeight': 410, 'width': 410, 'height': 410, 'widthPercent': 0.8, 'rescaleHeight': True, 'trialN': 54, 'loaded': True, 'loadedTime': 2290.2000000029802, 'positionName': 'CENTER', 'positionCoords': [435, 307]}]",Rate how much you want to eat this food from 0 (least) to 10 (most).,82622.79999999702,1669830168483,shreddedwheatwithmilk,1152.4000000059605,True,2.5300000000000002,83775.20000000298,1152.4000000059605,True,HRV,HRV_0051,2022-11-30 17:42:09
55,"[{'imgObject': {}, 'id': 'rigatoni', 'src': '/static/foodstim60/rigatoni.jpg', 'key': 'NaN', 'origWidth': 411, 'origHeight': 411, 'width': 411, 'height': 411, 'widthPercent': 0.8, 'rescaleHeight': True, 'trialN': 55, 'loaded': True, 'loadedTime': 2291.4000000059605, 'positionName': 'CENTER', 'positionCoords': [434.5, 306.5]}]",Rate how much you want to eat this food from 0 (least) to 10 (most).,83776.70000000298,1669830169637,rigatoni,1816.5,True,0.42,85593.20000000298,1816.5,True,HRV,HRV_0051,2022-11-30 17:42:09
56,"[{'imgObject': {}, 'id': 'lox', 'src': '/static/foodstim60/lox.jpg', 'key': 'NaN', 'origWidth': 410, 'origHeight': 411, 'width': 410, 'height': 411, 'widthPercent': 0.8, 'rescaleHeight': True, 'trialN': 56, 'loaded': True, 'loadedTime': 2292.5, 'positionName': 'CENTER', 'positionCoords': [435, 306.5]}]",Rate how much you want to eat this food from 0 (least) to 10 (most).,85594.79999999702,1669830171455,lox,1088.4000000059605,True,0.26,86683.20000000298,1088.4000000059605,True,HRV,HRV_0051,2022-11-30 17:42:09
57,"[{'imgObject': {}, 'id': 'chicken nuggets2', 'src': '/static/foodstim60/chicken nuggets2.jpg', 'key': 'NaN', 'origWidth': 410, 'origHeight': 409, 'width': 410, 'height': 409, 'widthPercent': 0.8, 'rescaleHeight': True, 'trialN': 57, 'loaded': True, 'loadedTime': 2293.4000000059605, 'positionName': 'CENTER', 'positionCoords': [435, 307.5]}]",Rate how much you want to eat this food from 0 (least) to 10 (most).,86684.70000000298,1669830172545,chicken nuggets2,1240.5,True,0.64,87925.20000000298,1240.5,True,HRV,HRV_0051,2022-11-30 17:42:09
58,"[{'imgObject': {}, 'id': 'mango', 'src': '/static/foodstim60/mango.jpg', 'key': 'NaN', 'origWidth': 411, 'origHeight': 411, 'width': 411, 'height': 411, 'widthPercent': 0.8, 'rescaleHeight': True, 'trialN': 58, 'loaded': True, 'loadedTime': 2294.5, 'positionName': 'CENTER', 'positionCoords': [434.5, 306.5]}]",Rate how much you want to eat this food from 0 (least) to 10 (most).,87926.70000000298,1669830173787,mango,1616.5,True,2.21,89543.20000000298,1616.5,True,HRV,HRV_0051,2022-11-30 17:42:09
59,"[{'imgObject': {}, 'id': 'granola w milk', 'src': '/static/foodstim60/granola w milk.jpg', 'key': 'NaN', 'origWidth': 410, 'origHeight': 410, 'width': 410, 'height': 410, 'widthPercent': 0.8, 'rescaleHeight': True, 'trialN': 59, 'loaded': True, 'loadedTime': 2297.2000000029802, 'positionName': 'CENTER', 'positionCoords': [435, 307]}]",Rate how much you want to eat this food from 0 (least) to 10 (most).,89544.79999999702,1669830175405,granola w milk,1644.2999999970198,True,1.76,91189.09999999404,1644.2999999970198,True,HRV,HRV_0051,2022-11-30 17:42:09
