trialN,stimuli,trialStartTime,trialStartTime_UNIX,stimulus1,stimulus2,stimulus1Bid,stimulus2Bid,delta,selected,rt,rt_UNIX,rt_perfnow,receivedResponse,rsp,trialEndTime,trialDuration,trialEndTime_UNIX,trialDuration_UNIX,exp,subjectId,date
0,"[{'imgObject': {}, 'id': 'turkey sandwich', 'src': '/static/foodstim60/turkey sandwich.jpg', 'key': 'u', 'origWidth': 409, 'origHeight': 409, 'width': 409, 'height': 409, 'widthPercent': 0.45, 'rescaleHeight': False, 'trialN': 0, 'loaded': True, 'loadedTime': 2284.1000000089407, 'positionName': 'LEFT', 'positionCoords': [205.4, 307.5], 'bid': 2.29}, {'imgObject': {}, 'id': 'mango', 'src': '/static/foodstim60/mango.jpg', 'key': 'i', 'origWidth': 411, 'origHeight': 411, 'width': 411, 'height': 411, 'widthPercent': 0.45, 'rescaleHeight': False, 'trialN': 0, 'loaded': True, 'loadedTime': 2312.7000000029802, 'positionName': 'RIGHT', 'positionCoords': [665.6, 306.5], 'bid': 2.21}]",2630.5,1669830222822,turkey sandwich,mango,2.29,2.21,-0.08000000000000007,turkey sandwich,2849.4000000059605,2850,2849.9000000059605,True,u,5989.0,3358.5,1669830226181,3359,HRV,HRV_0051,2022-11-30 17:48:10
1,"[{'imgObject': {}, 'id': 'baked potato', 'src': '/static/foodstim60/baked potato.jpg', 'key': 'u', 'origWidth': 409, 'origHeight': 410, 'width': 409, 'height': 410, 'widthPercent': 0.45, 'rescaleHeight': False, 'trialN': 1, 'loaded': True, 'loadedTime': 2361.9000000059605, 'positionName': 'LEFT', 'positionCoords': [205.4, 307], 'bid': 3.7}, {'imgObject': {}, 'id': 'avocado', 'src': '/static/foodstim60/avocado.jpg', 'key': 'i', 'origWidth': 409, 'origHeight': 409, 'width': 409, 'height': 409, 'widthPercent': 0.45, 'rescaleHeight': False, 'trialN': 1, 'loaded': True, 'loadedTime': 2381.2000000029802, 'positionName': 'RIGHT', 'positionCoords': [665.6, 307.5], 'bid': 2.56}]",5989.29999999702,1669830226181,baked potato,avocado,3.7,2.56,-1.1400000000000001,baked potato,1210.5,1211,1211.0,True,u,7701.0,1711.7000000029802,1669830227893,1712,HRV,HRV_0051,2022-11-30 17:48:10
2,"[{'imgObject': {}, 'id': 'bagel plain', 'src': '/static/foodstim60/bagel plain.jpg', 'key': 'u', 'origWidth': 410, 'origHeight': 410, 'width': 410, 'height': 410, 'widthPercent': 0.45, 'rescaleHeight': False, 'trialN': 2, 'loaded': True, 'loadedTime': 2383.9000000059605, 'positionName': 'LEFT', 'positionCoords': [204.4, 307], 'bid': 0.15}, {'imgObject': {}, 'id': 'omelette', 'src': '/static/foodstim60/omelette.jpg', 'key': 'i', 'origWidth': 410, 'origHeight': 409, 'width': 410, 'height': 409, 'widthPercent': 0.45, 'rescaleHeight': False, 'trialN': 2, 'loaded': True, 'loadedTime': 2413.2000000029802, 'positionName': 'RIGHT', 'positionCoords': [665.6, 307.5], 'bid': 1.35}]",7701.29999999702,1669830227893,bagel plain,omelette,0.15,1.35,1.2000000000000002,omelette,1098.5,1099,1098.9000000059605,True,i,9301.10000000894,1599.800000011921,1669830229493,1600,HRV,HRV_0051,2022-11-30 17:48:10
3,"[{'imgObject': {}, 'id': 'salad w chicken', 'src': '/static/foodstim60/salad w chicken.jpg', 'key': 'u', 'origWidth': 411, 'origHeight': 411, 'width': 411, 'height': 411, 'widthPercent': 0.45, 'rescaleHeight': False, 'trialN': 3, 'loaded': True, 'loadedTime': 2424.7000000029802, 'positionName': 'LEFT', 'positionCoords': [203.4, 306.5], 'bid': 4.5600000000000005}, {'imgObject': {}, 'id': 'cantaloupe', 'src': '/static/foodstim60/cantaloupe.jpg', 'key': 'i', 'origWidth': 409, 'origHeight': 409, 'width': 409, 'height': 409, 'widthPercent': 0.45, 'rescaleHeight': False, 'trialN': 3, 'loaded': True, 'loadedTime': 2501.4000000059605, 'positionName': 'RIGHT', 'positionCoords': [665.6, 307.5], 'bid': 4.29}]",9301.29999999702,1669830229493,salad w chicken,cantaloupe,4.5600000000000005,4.29,-0.27000000000000046,cantaloupe,1130.9000000059605,1132,1131.300000011921,True,i,10933.20000000298,1631.9000000059605,1669830231125,1632,HRV,HRV_0051,2022-11-30 17:48:10
4,"[{'imgObject': {}, 'id': 'granola w milk', 'src': '/static/foodstim60/granola w milk.jpg', 'key': 'u', 'origWidth': 410, 'origHeight': 410, 'width': 410, 'height': 410, 'widthPercent': 0.45, 'rescaleHeight': False, 'trialN': 4, 'loaded': True, 'loadedTime': 2314.5, 'positionName': 'LEFT', 'positionCoords': [204.4, 307], 'bid': 1.76}, {'imgObject': {}, 'id': 'burrito', 'src': '/static/foodstim60/burrito.jpg', 'key': 'i', 'origWidth': 410, 'origHeight': 410, 'width': 410, 'height': 410, 'widthPercent': 0.45, 'rescaleHeight': False, 'trialN': 4, 'loaded': True, 'loadedTime': 2323.7999999970198, 'positionName': 'RIGHT', 'positionCoords': [665.6, 307], 'bid': 0.48}]",10933.29999999702,1669830231125,granola w milk,burrito,1.76,0.48,-1.28,granola w milk,1530.300000011921,1531,1530.7000000029802,True,u,12965.20000000298,2031.9000000059605,1669830233157,2032,HRV,HRV_0051,2022-11-30 17:48:10
5,"[{'imgObject': {}, 'id': 'cantaloupe', 'src': '/static/foodstim60/cantaloupe.jpg', 'key': 'u', 'origWidth': 409, 'origHeight': 409, 'width': 409, 'height': 409, 'widthPercent': 0.45, 'rescaleHeight': False, 'trialN': 5, 'loaded': True, 'loadedTime': 2501.6000000089407, 'positionName': 'LEFT', 'positionCoords': [205.4, 307.5], 'bid': 4.29}, {'imgObject': {}, 'id': 'raisin bran w milk', 'src': '/static/foodstim60/raisin bran w milk.jpg', 'key': 'i', 'origWidth': 411, 'origHeight': 411, 'width': 411, 'height': 411, 'widthPercent': 0.45, 'rescaleHeight': False, 'trialN': 5, 'loaded': True, 'loadedTime': 2328.7999999970198, 'positionName': 'RIGHT', 'positionCoords': [665.6, 306.5], 'bid': 3.9}]",12965.40000000596,1669830233157,cantaloupe,raisin bran w milk,4.29,3.9,-0.3900000000000001,cantaloupe,994.0999999940395,995,994.5,True,u,14461.29999999702,1495.8999999910593,1669830234653,1496,HRV,HRV_0051,2022-11-30 17:48:10
6,"[{'imgObject': {}, 'id': 'yogurt no spoon', 'src': '/static/foodstim60/yogurt no spoon.jpg', 'key': 'u', 'origWidth': 411, 'origHeight': 410, 'width': 411, 'height': 410, 'widthPercent': 0.45, 'rescaleHeight': False, 'trialN': 6, 'loaded': True, 'loadedTime': 2329.7000000029802, 'positionName': 'LEFT', 'positionCoords': [203.4, 307], 'bid': 2.75}, {'imgObject': {}, 'id': 'burger', 'src': '/static/foodstim60/burger.jpg', 'key': 'i', 'origWidth': 409, 'origHeight': 409, 'width': 409, 'height': 409, 'widthPercent': 0.45, 'rescaleHeight': False, 'trialN': 6, 'loaded': True, 'loadedTime': 2340.7000000029802, 'positionName': 'RIGHT', 'positionCoords': [665.6, 307.5], 'bid': 3.2}]",14461.5,1669830234653,yogurt no spoon,burger,2.75,3.2,0.4500000000000002,yogurt no spoon,1178,1179,1178.2999999970198,True,u,16141.40000000596,1679.9000000059605,1669830236333,1680,HRV,HRV_0051,2022-11-30 17:48:10
7,"[{'imgObject': {}, 'id': 'cherries', 'src': '/static/foodstim60/cherries.jpg', 'key': 'u', 'origWidth': 410, 'origHeight': 411, 'width': 410, 'height': 411, 'widthPercent': 0.45, 'rescaleHeight': False, 'trialN': 7, 'loaded': True, 'loadedTime': 2343.1000000089407, 'positionName': 'LEFT', 'positionCoords': [204.4, 306.5], 'bid': 7.390000000000001}, {'imgObject': {}, 'id': 'eggs', 'src': '/static/foodstim60/eggs.jpg', 'key': 'i', 'origWidth': 409, 'origHeight': 409, 'width': 409, 'height': 409, 'widthPercent': 0.45, 'rescaleHeight': False, 'trialN': 7, 'loaded': True, 'loadedTime': 2371.5, 'positionName': 'RIGHT', 'positionCoords': [665.6, 307.5], 'bid': 4.28}]",16141.60000000894,1669830236334,cherries,eggs,7.390000000000001,4.28,-3.1100000000000003,eggs,1209.8999999910593,1210,1210.2999999970198,True,i,17853.40000000596,1711.7999999970198,1669830238045,1711,HRV,HRV_0051,2022-11-30 17:48:10
8,"[{'imgObject': {}, 'id': 'tacos', 'src': '/static/foodstim60/tacos.jpg', 'key': 'u', 'origWidth': 411, 'origHeight': 411, 'width': 411, 'height': 411, 'widthPercent': 0.45, 'rescaleHeight': False, 'trialN': 8, 'loaded': True, 'loadedTime': 2393.7999999970198, 'positionName': 'LEFT', 'positionCoords': [203.4, 306.5], 'bid': 2}, {'imgObject': {}, 'id': 'popsicles', 'src': '/static/foodstim60/popsicles.jpg', 'key': 'i', 'origWidth': 410, 'origHeight': 410, 'width': 410, 'height': 410, 'widthPercent': 0.45, 'rescaleHeight': False, 'trialN': 8, 'loaded': True, 'loadedTime': 2410.7999999970198, 'positionName': 'RIGHT', 'positionCoords': [665.6, 307], 'bid': 1.67}]",17853.60000000894,1669830238046,tacos,popsicles,2.0,1.67,-0.33000000000000007,popsicles,1265.8999999910593,1266,1266.2999999970198,True,i,19621.5,1767.8999999910593,1669830239814,1768,HRV,HRV_0051,2022-11-30 17:48:10
9,"[{'imgObject': {}, 'id': 'chickenfingers', 'src': '/static/foodstim60/chickenfingers.jpg', 'key': 'u', 'origWidth': 410, 'origHeight': 410, 'width': 410, 'height': 410, 'widthPercent': 0.45, 'rescaleHeight': False, 'trialN': 9, 'loaded': True, 'loadedTime': 2435.5, 'positionName': 'LEFT', 'positionCoords': [204.4, 307], 'bid': 5.3500000000000005}, {'imgObject': {}, 'id': 'kiwi', 'src': '/static/foodstim60/kiwi.jpg', 'key': 'i', 'origWidth': 410, 'origHeight': 410, 'width': 410, 'height': 410, 'widthPercent': 0.45, 'rescaleHeight': False, 'trialN': 9, 'loaded': True, 'loadedTime': 2446, 'positionName': 'RIGHT', 'positionCoords': [665.6, 307], 'bid': 5.32}]",19621.79999999702,1669830239814,chickenfingers,kiwi,5.3500000000000005,5.32,-0.03000000000000025,chickenfingers,1666.4000000059605,1667,1666.800000011921,True,u,21789.5,2167.7000000029802,1669830241982,2168,HRV,HRV_0051,2022-11-30 17:48:10
10,"[{'imgObject': {}, 'id': 'Tribe humus pita', 'src': '/static/foodstim60/Tribe humus pita.jpg', 'key': 'u', 'origWidth': 411, 'origHeight': 411, 'width': 411, 'height': 411, 'widthPercent': 0.45, 'rescaleHeight': False, 'trialN': 10, 'loaded': True, 'loadedTime': 2456.5, 'positionName': 'LEFT', 'positionCoords': [203.4, 306.5], 'bid': 2.82}, {'imgObject': {}, 'id': 'hotdog w must', 'src': '/static/foodstim60/hotdog w must.jpg', 'key': 'i', 'origWidth': 409, 'origHeight': 409, 'width': 409, 'height': 409, 'widthPercent': 0.45, 'rescaleHeight': False, 'trialN': 10, 'loaded': True, 'loadedTime': 2465.7000000029802, 'positionName': 'RIGHT', 'positionCoords': [665.6, 307.5], 'bid': 3.14}]",21789.79999999702,1669830241982,Tribe humus pita,hotdog w must,2.82,3.14,0.3200000000000003,Tribe humus pita,1185.6000000089407,1186,1186.0,True,u,23477.60000000894,1687.800000011921,1669830243670,1688,HRV,HRV_0051,2022-11-30 17:48:10
11,"[{'imgObject': {}, 'id': 'salmon', 'src': '/static/foodstim60/salmon.jpg', 'key': 'u', 'origWidth': 410, 'origHeight': 409, 'width': 410, 'height': 409, 'widthPercent': 0.45, 'rescaleHeight': False, 'trialN': 11, 'loaded': True, 'loadedTime': 2469, 'positionName': 'LEFT', 'positionCoords': [204.4, 307.5], 'bid': 5.8500000000000005}, {'imgObject': {}, 'id': 'ice cream sundae 002', 'src': '/static/foodstim60/ice cream sundae 002.jpg', 'key': 'i', 'origWidth': 409, 'origHeight': 409, 'width': 409, 'height': 409, 'widthPercent': 0.45, 'rescaleHeight': False, 'trialN': 11, 'loaded': True, 'loadedTime': 2478.1000000089407, 'positionName': 'RIGHT', 'positionCoords': [665.6, 307.5], 'bid': 2.09}]",23477.90000000596,1669830243670,salmon,ice cream sundae 002,5.8500000000000005,2.09,-3.7600000000000007,salmon,817.3999999910593,818,817.7999999970198,True,u,24797.70000000298,1319.7999999970198,1669830244990,1320,HRV,HRV_0051,2022-11-30 17:48:10
12,"[{'imgObject': {}, 'id': 'corn cob', 'src': '/static/foodstim60/corn cob.jpg', 'key': 'u', 'origWidth': 411, 'origHeight': 411, 'width': 411, 'height': 411, 'widthPercent': 0.45, 'rescaleHeight': False, 'trialN': 12, 'loaded': True, 'loadedTime': 2489.4000000059605, 'positionName': 'LEFT', 'positionCoords': [203.4, 306.5], 'bid': 8.34}, {'imgObject': {}, 'id': 'pear', 'src': '/static/foodstim60/pear.jpg', 'key': 'i', 'origWidth': 411, 'origHeight': 410, 'width': 411, 'height': 410, 'widthPercent': 0.45, 'rescaleHeight': False, 'trialN': 12, 'loaded': True, 'loadedTime': 2491.6000000089407, 'positionName': 'RIGHT', 'positionCoords': [665.6, 307], 'bid': 2.64}]",24797.90000000596,1669830244990,corn cob,pear,8.34,2.64,-5.699999999999999,corn cob,673.3999999910593,674,673.7000000029802,True,u,25973.70000000298,1175.7999999970198,1669830246166,1176,HRV,HRV_0051,2022-11-30 17:48:10
13,"[{'imgObject': {}, 'id': 'cheerios', 'src': '/static/foodstim60/cheerios.jpg', 'key': 'u', 'origWidth': 409, 'origHeight': 410, 'width': 409, 'height': 410, 'widthPercent': 0.45, 'rescaleHeight': False, 'trialN': 13, 'loaded': True, 'loadedTime': 2503.9000000059605, 'positionName': 'LEFT', 'positionCoords': [205.4, 307], 'bid': 2.15}, {'imgObject': {}, 'id': 'turkeysandwich', 'src': '/static/foodstim60/turkeysandwich.jpg', 'key': 'i', 'origWidth': 409, 'origHeight': 409, 'width': 409, 'height': 409, 'widthPercent': 0.45, 'rescaleHeight': False, 'trialN': 13, 'loaded': True, 'loadedTime': 2522.2999999970198, 'positionName': 'RIGHT', 'positionCoords': [665.6, 307.5], 'bid': 1.82}]",25974.0,1669830246166,cheerios,turkeysandwich,2.15,1.82,-0.32999999999999985,cheerios,1921.2000000029802,1922,1921.7000000029802,True,u,28397.79999999702,2423.7999999970198,1669830248590,2424,HRV,HRV_0051,2022-11-30 17:48:10
14,"[{'imgObject': {}, 'id': 'eggsalad', 'src': '/static/foodstim60/eggsalad.jpg', 'key': 'u', 'origWidth': 410, 'origHeight': 409, 'width': 410, 'height': 409, 'widthPercent': 0.45, 'rescaleHeight': False, 'trialN': 14, 'loaded': True, 'loadedTime': 2524.2999999970198, 'positionName': 'LEFT', 'positionCoords': [204.4, 307.5], 'bid': 2.07}, {'imgObject': {}, 'id': 'burrito', 'src': '/static/foodstim60/burrito.jpg', 'key': 'i', 'origWidth': 410, 'origHeight': 410, 'width': 410, 'height': 410, 'widthPercent': 0.45, 'rescaleHeight': False, 'trialN': 14, 'loaded': True, 'loadedTime': 2323.2999999970198, 'positionName': 'RIGHT', 'positionCoords': [665.6, 307], 'bid': 0.48}]",28398.10000000894,1669830248590,eggsalad,burrito,2.07,0.48,-1.5899999999999999,eggsalad,1417.0999999940395,1418,1417.3999999910593,True,u,30316.90000000596,1918.7999999970198,1669830250509,1919,HRV,HRV_0051,2022-11-30 17:48:10
15,"[{'imgObject': {}, 'id': 'hotdog w must', 'src': '/static/foodstim60/hotdog w must.jpg', 'key': 'u', 'origWidth': 409, 'origHeight': 409, 'width': 409, 'height': 409, 'widthPercent': 0.45, 'rescaleHeight': False, 'trialN': 15, 'loaded': True, 'loadedTime': 2466.2000000029802, 'positionName': 'LEFT', 'positionCoords': [205.4, 307.5], 'bid': 3.14}, {'imgObject': {}, 'id': 'avocado', 'src': '/static/foodstim60/avocado.jpg', 'key': 'i', 'origWidth': 409, 'origHeight': 409, 'width': 409, 'height': 409, 'widthPercent': 0.45, 'rescaleHeight': False, 'trialN': 15, 'loaded': True, 'loadedTime': 2373.9000000059605, 'positionName': 'RIGHT', 'positionCoords': [665.6, 307.5], 'bid': 2.56}]",30317.10000000894,1669830250509,hotdog w must,avocado,3.14,2.56,-0.5800000000000001,avocado,970.0999999940395,971,970.5,True,i,31789.0,1471.8999999910593,1669830251981,1472,HRV,HRV_0051,2022-11-30 17:48:10
16,"[{'imgObject': {}, 'id': 'luckycharms', 'src': '/static/foodstim60/luckycharms.jpg', 'key': 'u', 'origWidth': 410, 'origHeight': 409, 'width': 410, 'height': 409, 'widthPercent': 0.45, 'rescaleHeight': False, 'trialN': 16, 'loaded': True, 'loadedTime': 2530.6000000089407, 'positionName': 'LEFT', 'positionCoords': [204.4, 307.5], 'bid': 0.2}, {'imgObject': {}, 'id': 'chicken nuggets2', 'src': '/static/foodstim60/chicken nuggets2.jpg', 'key': 'i', 'origWidth': 410, 'origHeight': 409, 'width': 410, 'height': 409, 'widthPercent': 0.45, 'rescaleHeight': False, 'trialN': 16, 'loaded': True, 'loadedTime': 2535.6000000089407, 'positionName': 'RIGHT', 'positionCoords': [665.6, 307.5], 'bid': 0.64}]",31789.20000000298,1669830251981,luckycharms,chicken nuggets2,0.2,0.64,0.44,chicken nuggets2,1250.7000000029802,1251,1251.0999999940395,True,i,33541.10000000894,1751.9000000059605,1669830253733,1752,HRV,HRV_0051,2022-11-30 17:48:10
17,"[{'imgObject': {}, 'id': 'froot loops w milk', 'src': '/static/foodstim60/froot loops w milk.jpg', 'key': 'u', 'origWidth': 410, 'origHeight': 410, 'width': 410, 'height': 410, 'widthPercent': 0.45, 'rescaleHeight': False, 'trialN': 17, 'loaded': True, 'loadedTime': 2540.5, 'positionName': 'LEFT', 'positionCoords': [204.4, 307], 'bid': 0.14}, {'imgObject': {}, 'id': 'granola w milk', 'src': '/static/foodstim60/granola w milk.jpg', 'key': 'i', 'origWidth': 410, 'origHeight': 410, 'width': 410, 'height': 410, 'widthPercent': 0.45, 'rescaleHeight': False, 'trialN': 17, 'loaded': True, 'loadedTime': 2314.2000000029802, 'positionName': 'RIGHT', 'positionCoords': [665.6, 307], 'bid': 1.76}]",33541.29999999702,1669830253733,froot loops w milk,granola w milk,0.14,1.76,1.62,granola w milk,1329.7000000029802,1330,1330.1000000089407,True,i,35373.10000000894,1831.800000011921,1669830255565,1832,HRV,HRV_0051,2022-11-30 17:48:10
18,"[{'imgObject': {}, 'id': 'lox', 'src': '/static/foodstim60/lox.jpg', 'key': 'u', 'origWidth': 410, 'origHeight': 411, 'width': 410, 'height': 411, 'widthPercent': 0.45, 'rescaleHeight': False, 'trialN': 18, 'loaded': True, 'loadedTime': 2541.1000000089407, 'positionName': 'LEFT', 'positionCoords': [204.4, 306.5], 'bid': 0.26}, {'imgObject': {}, 'id': 'mashed potato', 'src': '/static/foodstim60/mashed potato.jpg', 'key': 'i', 'origWidth': 409, 'origHeight': 409, 'width': 409, 'height': 409, 'widthPercent': 0.45, 'rescaleHeight': False, 'trialN': 18, 'loaded': True, 'loadedTime': 2546.9000000059605, 'positionName': 'RIGHT', 'positionCoords': [665.6, 307.5], 'bid': 1.87}]",35373.40000000596,1669830255565,lox,mashed potato,0.26,1.87,1.61,mashed potato,1481.5,1482,1481.8999999910593,True,i,37357.10000000894,1983.7000000029802,1669830257549,1984,HRV,HRV_0051,2022-11-30 17:48:10
19,"[{'imgObject': {}, 'id': 'shreddedwheatwithmilk', 'src': '/static/foodstim60/shreddedwheatwithmilk.jpg', 'key': 'u', 'origWidth': 410, 'origHeight': 410, 'width': 410, 'height': 410, 'widthPercent': 0.45, 'rescaleHeight': False, 'trialN': 19, 'loaded': True, 'loadedTime': 2547.1000000089407, 'positionName': 'LEFT', 'positionCoords': [204.4, 307], 'bid': 2.53}, {'imgObject': {}, 'id': 'omelette', 'src': '/static/foodstim60/omelette.jpg', 'key': 'i', 'origWidth': 410, 'origHeight': 409, 'width': 410, 'height': 409, 'widthPercent': 0.45, 'rescaleHeight': False, 'trialN': 19, 'loaded': True, 'loadedTime': 2411.5, 'positionName': 'RIGHT', 'positionCoords': [665.6, 307.5], 'bid': 1.35}]",37357.40000000596,1669830257549,shreddedwheatwithmilk,omelette,2.53,1.35,-1.1799999999999997,omelette,1145.5,1146,1145.8999999910593,True,i,39005.20000000298,1647.7999999970198,1669830259197,1648,HRV,HRV_0051,2022-11-30 17:48:10
20,"[{'imgObject': {}, 'id': 'orange slices', 'src': '/static/foodstim60/orange slices.jpg', 'key': 'u', 'origWidth': 409, 'origHeight': 410, 'width': 409, 'height': 410, 'widthPercent': 0.45, 'rescaleHeight': False, 'trialN': 20, 'loaded': True, 'loadedTime': 2549.7999999970198, 'positionName': 'LEFT', 'positionCoords': [205.4, 307], 'bid': 0.68}, {'imgObject': {}, 'id': 'lox', 'src': '/static/foodstim60/lox.jpg', 'key': 'i', 'origWidth': 410, 'origHeight': 411, 'width': 410, 'height': 411, 'widthPercent': 0.45, 'rescaleHeight': False, 'trialN': 20, 'loaded': True, 'loadedTime': 2542.1000000089407, 'positionName': 'RIGHT', 'positionCoords': [665.6, 306.5], 'bid': 0.26}]",39005.40000000596,1669830259197,orange slices,lox,0.68,0.26,-0.42000000000000004,orange slices,1145.5,1146,1145.8999999910593,True,u,40653.29999999702,1647.8999999910593,1669830260845,1648,HRV,HRV_0051,2022-11-30 17:48:10
21,"[{'imgObject': {}, 'id': 'veggieswithdip', 'src': '/static/foodstim60/veggieswithdip.jpg', 'key': 'u', 'origWidth': 409, 'origHeight': 409, 'width': 409, 'height': 409, 'widthPercent': 0.45, 'rescaleHeight': False, 'trialN': 21, 'loaded': True, 'loadedTime': 2549.7999999970198, 'positionName': 'LEFT', 'positionCoords': [205.4, 307.5], 'bid': 5.14}, {'imgObject': {}, 'id': 'steak', 'src': '/static/foodstim60/steak.jpg', 'key': 'i', 'origWidth': 410, 'origHeight': 410, 'width': 410, 'height': 410, 'widthPercent': 0.45, 'rescaleHeight': False, 'trialN': 21, 'loaded': True, 'loadedTime': 2556.1000000089407, 'positionName': 'RIGHT', 'positionCoords': [665.6, 307], 'bid': 5.0600000000000005}]",40653.5,1669830260845,veggieswithdip,steak,5.14,5.0600000000000005,-0.07999999999999918,veggieswithdip,1177.4000000059605,1178,1177.7000000029802,True,u,42333.29999999702,1679.7999999970198,1669830262525,1680,HRV,HRV_0051,2022-11-30 17:48:10
22,"[{'imgObject': {}, 'id': 'bagel plain', 'src': '/static/foodstim60/bagel plain.jpg', 'key': 'u', 'origWidth': 410, 'origHeight': 410, 'width': 410, 'height': 410, 'widthPercent': 0.45, 'rescaleHeight': False, 'trialN': 22, 'loaded': True, 'loadedTime': 2382.4000000059605, 'positionName': 'LEFT', 'positionCoords': [204.4, 307], 'bid': 0.15}, {'imgObject': {}, 'id': 'sweetpotato', 'src': '/static/foodstim60/sweetpotato.jpg', 'key': 'i', 'origWidth': 410, 'origHeight': 410, 'width': 410, 'height': 410, 'widthPercent': 0.45, 'rescaleHeight': False, 'trialN': 22, 'loaded': True, 'loadedTime': 2561, 'positionName': 'RIGHT', 'positionCoords': [665.6, 307], 'bid': 1.78}]",42333.5,1669830262526,bagel plain,sweetpotato,0.15,1.78,1.6300000000000001,bagel plain,1682,1685,1682.4000000059605,True,u,44517.40000000596,2183.9000000059605,1669830264713,2187,HRV,HRV_0051,2022-11-30 17:48:10
23,"[{'imgObject': {}, 'id': 'rigatoni', 'src': '/static/foodstim60/rigatoni.jpg', 'key': 'u', 'origWidth': 411, 'origHeight': 411, 'width': 411, 'height': 411, 'widthPercent': 0.45, 'rescaleHeight': False, 'trialN': 23, 'loaded': True, 'loadedTime': 2562.6000000089407, 'positionName': 'LEFT', 'positionCoords': [203.4, 306.5], 'bid': 0.42}, {'imgObject': {}, 'id': 'bagel and cc', 'src': '/static/foodstim60/bagel and cc.jpg', 'key': 'i', 'origWidth': 410, 'origHeight': 410, 'width': 410, 'height': 410, 'widthPercent': 0.45, 'rescaleHeight': False, 'trialN': 23, 'loaded': True, 'loadedTime': 2567.2999999970198, 'positionName': 'RIGHT', 'positionCoords': [665.6, 307], 'bid': 1.18}]",44517.70000000298,1669830264713,rigatoni,bagel and cc,0.42,1.18,0.76,bagel and cc,1337.0999999940395,1338,1337.4000000059605,True,i,46357.5,1839.7999999970198,1669830266553,1840,HRV,HRV_0051,2022-11-30 17:48:10
24,"[{'imgObject': {}, 'id': 'cherry tomato', 'src': '/static/foodstim60/cherry tomato.jpg', 'key': 'u', 'origWidth': 410, 'origHeight': 410, 'width': 410, 'height': 410, 'widthPercent': 0.45, 'rescaleHeight': False, 'trialN': 24, 'loaded': True, 'loadedTime': 2568.6000000089407, 'positionName': 'LEFT', 'positionCoords': [204.4, 307], 'bid': 2.78}, {'imgObject': {}, 'id': 'steak', 'src': '/static/foodstim60/steak.jpg', 'key': 'i', 'origWidth': 410, 'origHeight': 410, 'width': 410, 'height': 410, 'widthPercent': 0.45, 'rescaleHeight': False, 'trialN': 24, 'loaded': True, 'loadedTime': 2556.2999999970198, 'positionName': 'RIGHT', 'positionCoords': [665.6, 307], 'bid': 5.0600000000000005}]",46357.70000000298,1669830266553,cherry tomato,steak,2.78,5.0600000000000005,2.2800000000000007,steak,1881.0999999940395,1882,1881.4000000059605,True,i,48741.60000000894,2383.9000000059605,1669830268937,2384,HRV,HRV_0051,2022-11-30 17:48:10
25,"[{'imgObject': {}, 'id': 'strawberries', 'src': '/static/foodstim60/strawberries.jpg', 'key': 'u', 'origWidth': 410, 'origHeight': 410, 'width': 410, 'height': 410, 'widthPercent': 0.45, 'rescaleHeight': False, 'trialN': 25, 'loaded': True, 'loadedTime': 2570, 'positionName': 'LEFT', 'positionCoords': [204.4, 307], 'bid': 3.14}, {'imgObject': {}, 'id': 'burger', 'src': '/static/foodstim60/burger.jpg', 'key': 'i', 'origWidth': 409, 'origHeight': 409, 'width': 409, 'height': 409, 'widthPercent': 0.45, 'rescaleHeight': False, 'trialN': 25, 'loaded': True, 'loadedTime': 2334.6000000089407, 'positionName': 'RIGHT', 'positionCoords': [665.6, 307.5], 'bid': 3.2}]",48741.79999999702,1669830268937,strawberries,burger,3.14,3.2,0.06000000000000005,strawberries,968.9000000059605,970,969.2000000029802,True,u,50213.60000000894,1471.800000011921,1669830270409,1472,HRV,HRV_0051,2022-11-30 17:48:10
26,"[{'imgObject': {}, 'id': 'seaweed', 'src': '/static/foodstim60/seaweed.jpg', 'key': 'u', 'origWidth': 410, 'origHeight': 410, 'width': 410, 'height': 410, 'widthPercent': 0.45, 'rescaleHeight': False, 'trialN': 26, 'loaded': True, 'loadedTime': 2571.6000000089407, 'positionName': 'LEFT', 'positionCoords': [204.4, 307], 'bid': 2.1}, {'imgObject': {}, 'id': 'cheerios', 'src': '/static/foodstim60/cheerios.jpg', 'key': 'i', 'origWidth': 409, 'origHeight': 410, 'width': 409, 'height': 410, 'widthPercent': 0.45, 'rescaleHeight': False, 'trialN': 26, 'loaded': True, 'loadedTime': 2512.6000000089407, 'positionName': 'RIGHT', 'positionCoords': [665.6, 307], 'bid': 2.15}]",50213.79999999702,1669830270409,seaweed,cheerios,2.1,2.15,0.04999999999999982,seaweed,1296.9000000059605,1298,1297.300000011921,True,u,52013.70000000298,1799.9000000059605,1669830272209,1800,HRV,HRV_0051,2022-11-30 17:48:10
27,"[{'imgObject': {}, 'id': 'sushi w_condiments', 'src': '/static/foodstim60/sushi w_condiments.jpg', 'key': 'u', 'origWidth': 410, 'origHeight': 410, 'width': 410, 'height': 410, 'widthPercent': 0.45, 'rescaleHeight': False, 'trialN': 27, 'loaded': True, 'loadedTime': 2572.6000000089407, 'positionName': 'LEFT', 'positionCoords': [204.4, 307], 'bid': 6.76}, {'imgObject': {}, 'id': 'mango', 'src': '/static/foodstim60/mango.jpg', 'key': 'i', 'origWidth': 411, 'origHeight': 411, 'width': 411, 'height': 411, 'widthPercent': 0.45, 'rescaleHeight': False, 'trialN': 27, 'loaded': True, 'loadedTime': 2307.7999999970198, 'positionName': 'RIGHT', 'positionCoords': [665.6, 306.5], 'bid': 2.21}]",52013.90000000596,1669830272209,sushi w_condiments,mango,6.76,2.21,-4.55,sushi w_condiments,952.7000000029802,953,953.0,True,u,53469.70000000298,1455.7999999970198,1669830273665,1456,HRV,HRV_0051,2022-11-30 17:48:10
28,"[{'imgObject': {}, 'id': 'chicken nuggets2', 'src': '/static/foodstim60/chicken nuggets2.jpg', 'key': 'u', 'origWidth': 410, 'origHeight': 409, 'width': 410, 'height': 409, 'widthPercent': 0.45, 'rescaleHeight': False, 'trialN': 28, 'loaded': True, 'loadedTime': 2535.5, 'positionName': 'LEFT', 'positionCoords': [204.4, 307.5], 'bid': 0.64}, {'imgObject': {}, 'id': 'orange slices', 'src': '/static/foodstim60/orange slices.jpg', 'key': 'i', 'origWidth': 409, 'origHeight': 410, 'width': 409, 'height': 410, 'widthPercent': 0.45, 'rescaleHeight': False, 'trialN': 28, 'loaded': True, 'loadedTime': 2549.2999999970198, 'positionName': 'RIGHT', 'positionCoords': [665.6, 307], 'bid': 0.68}]",53469.90000000596,1669830273665,chicken nuggets2,orange slices,0.64,0.68,0.040000000000000036,orange slices,1241.0999999940395,1242,1241.5,True,i,55212.79999999702,1742.8999999910593,1669830275408,1743,HRV,HRV_0051,2022-11-30 17:48:10
29,"[{'imgObject': {}, 'id': 'bagel and cc', 'src': '/static/foodstim60/bagel and cc.jpg', 'key': 'u', 'origWidth': 410, 'origHeight': 410, 'width': 410, 'height': 410, 'widthPercent': 0.45, 'rescaleHeight': False, 'trialN': 29, 'loaded': True, 'loadedTime': 2566.1000000089407, 'positionName': 'LEFT', 'positionCoords': [204.4, 307], 'bid': 1.18}, {'imgObject': {}, 'id': 'omelette', 'src': '/static/foodstim60/omelette.jpg', 'key': 'i', 'origWidth': 410, 'origHeight': 409, 'width': 410, 'height': 409, 'widthPercent': 0.45, 'rescaleHeight': False, 'trialN': 29, 'loaded': True, 'loadedTime': 2414, 'positionName': 'RIGHT', 'positionCoords': [665.6, 307.5], 'bid': 1.35}]",55213.10000000894,1669830275409,bagel and cc,omelette,1.18,1.35,0.17000000000000015,bagel and cc,857.3999999910593,857,857.7999999970198,True,u,56572.90000000596,1359.7999999970198,1669830276768,1359,HRV,HRV_0051,2022-11-30 17:48:10
30,"[{'imgObject': {}, 'id': 'granola w milk', 'src': '/static/foodstim60/granola w milk.jpg', 'key': 'u', 'origWidth': 410, 'origHeight': 410, 'width': 410, 'height': 410, 'widthPercent': 0.45, 'rescaleHeight': False, 'trialN': 30, 'loaded': True, 'loadedTime': 2314.4000000059605, 'positionName': 'LEFT', 'positionCoords': [204.4, 307], 'bid': 1.76}, {'imgObject': {}, 'id': 'popsicles', 'src': '/static/foodstim60/popsicles.jpg', 'key': 'i', 'origWidth': 410, 'origHeight': 410, 'width': 410, 'height': 410, 'widthPercent': 0.45, 'rescaleHeight': False, 'trialN': 30, 'loaded': True, 'loadedTime': 2402, 'positionName': 'RIGHT', 'positionCoords': [665.6, 307], 'bid': 1.67}]",56573.10000000894,1669830276769,granola w milk,popsicles,1.76,1.67,-0.09000000000000008,popsicles,729.3999999910593,729,729.6999999880791,True,i,57804.79999999702,1231.699999988079,1669830278000,1231,HRV,HRV_0051,2022-11-30 17:48:10
31,"[{'imgObject': {}, 'id': 'granola w milk', 'src': '/static/foodstim60/granola w milk.jpg', 'key': 'u', 'origWidth': 410, 'origHeight': 410, 'width': 410, 'height': 410, 'widthPercent': 0.45, 'rescaleHeight': False, 'trialN': 31, 'loaded': True, 'loadedTime': 2313.1000000089407, 'positionName': 'LEFT', 'positionCoords': [204.4, 307], 'bid': 1.76}, {'imgObject': {}, 'id': 'edamame', 'src': '/static/foodstim60/edamame.jpg', 'key': 'i', 'origWidth': 409, 'origHeight': 410, 'width': 409, 'height': 410, 'widthPercent': 0.45, 'rescaleHeight': False, 'trialN': 31, 'loaded': True, 'loadedTime': 2578.2000000029802, 'positionName': 'RIGHT', 'positionCoords': [665.6, 307], 'bid': 1.76}]",57805.10000000894,1669830278001,granola w milk,edamame,1.76,1.76,0.0,granola w milk,1201.2999999970198,1201,1201.7999999970198,True,u,59509.0,1703.8999999910593,1669830279705,1704,HRV,HRV_0051,2022-11-30 17:48:10
32,"[{'imgObject': {}, 'id': 'sushi w_condiments', 'src': '/static/foodstim60/sushi w_condiments.jpg', 'key': 'u', 'origWidth': 410, 'origHeight': 410, 'width': 410, 'height': 410, 'widthPercent': 0.45, 'rescaleHeight': False, 'trialN': 32, 'loaded': True, 'loadedTime': 2572.7999999970198, 'positionName': 'LEFT', 'positionCoords': [204.4, 307], 'bid': 6.76}, {'imgObject': {}, 'id': 'blackbeanswithrice', 'src': '/static/foodstim60/blackbeanswithrice.jpg', 'key': 'i', 'origWidth': 410, 'origHeight': 410, 'width': 410, 'height': 410, 'widthPercent': 0.45, 'rescaleHeight': False, 'trialN': 32, 'loaded': True, 'loadedTime': 2579.1000000089407, 'positionName': 'RIGHT', 'positionCoords': [665.6, 307], 'bid': 5.8500000000000005}]",59509.20000000298,1669830279705,sushi w_condiments,blackbeanswithrice,6.76,5.8500000000000005,-0.9099999999999993,sushi w_condiments,1153.2000000029802,1153,1153.5,True,u,61165.0,1655.7999999970198,1669830281361,1656,HRV,HRV_0051,2022-11-30 17:48:10
33,"[{'imgObject': {}, 'id': 'olives', 'src': '/static/foodstim60/olives.jpg', 'key': 'u', 'origWidth': 410, 'origHeight': 410, 'width': 410, 'height': 410, 'widthPercent': 0.45, 'rescaleHeight': False, 'trialN': 33, 'loaded': True, 'loadedTime': 2583.7000000029802, 'positionName': 'LEFT', 'positionCoords': [204.4, 307], 'bid': 3.26}, {'imgObject': {}, 'id': 'salmon', 'src': '/static/foodstim60/salmon.jpg', 'key': 'i', 'origWidth': 410, 'origHeight': 409, 'width': 410, 'height': 409, 'widthPercent': 0.45, 'rescaleHeight': False, 'trialN': 33, 'loaded': True, 'loadedTime': 2467, 'positionName': 'RIGHT', 'positionCoords': [665.6, 307.5], 'bid': 5.8500000000000005}]",61165.20000000298,1669830281361,olives,salmon,3.26,5.8500000000000005,2.5900000000000007,salmon,1097.0999999940395,1097,1097.4000000059605,True,i,62765.20000000298,1600.0,1669830282961,1600,HRV,HRV_0051,2022-11-30 17:48:10
34,"[{'imgObject': {}, 'id': 'blackbeanswithrice', 'src': '/static/foodstim60/blackbeanswithrice.jpg', 'key': 'u', 'origWidth': 410, 'origHeight': 410, 'width': 410, 'height': 410, 'widthPercent': 0.45, 'rescaleHeight': False, 'trialN': 34, 'loaded': True, 'loadedTime': 2579.2000000029802, 'positionName': 'LEFT', 'positionCoords': [204.4, 307], 'bid': 5.8500000000000005}, {'imgObject': {}, 'id': 'corn cob', 'src': '/static/foodstim60/corn cob.jpg', 'key': 'i', 'origWidth': 411, 'origHeight': 411, 'width': 411, 'height': 411, 'widthPercent': 0.45, 'rescaleHeight': False, 'trialN': 34, 'loaded': True, 'loadedTime': 2488.4000000059605, 'positionName': 'RIGHT', 'positionCoords': [665.6, 306.5], 'bid': 8.34}]",62765.29999999702,1669830282961,blackbeanswithrice,corn cob,5.8500000000000005,8.34,2.4899999999999993,corn cob,937.1000000089407,937,937.4000000059605,True,i,64205.20000000298,1439.9000000059605,1669830284401,1440,HRV,HRV_0051,2022-11-30 17:48:10
35,"[{'imgObject': {}, 'id': 'steak', 'src': '/static/foodstim60/steak.jpg', 'key': 'u', 'origWidth': 410, 'origHeight': 410, 'width': 410, 'height': 410, 'widthPercent': 0.45, 'rescaleHeight': False, 'trialN': 35, 'loaded': True, 'loadedTime': 2555.1000000089407, 'positionName': 'LEFT', 'positionCoords': [204.4, 307], 'bid': 5.0600000000000005}, {'imgObject': {}, 'id': 'sweetpotato', 'src': '/static/foodstim60/sweetpotato.jpg', 'key': 'i', 'origWidth': 410, 'origHeight': 410, 'width': 410, 'height': 410, 'widthPercent': 0.45, 'rescaleHeight': False, 'trialN': 35, 'loaded': True, 'loadedTime': 2560.7999999970198, 'positionName': 'RIGHT', 'positionCoords': [665.6, 307], 'bid': 1.78}]",64205.40000000596,1669830284401,steak,sweetpotato,5.0600000000000005,1.78,-3.2800000000000002,steak,745.7000000029802,746,746.0,True,u,65453.29999999702,1247.8999999910593,1669830285649,1248,HRV,HRV_0051,2022-11-30 17:48:10
36,"[{'imgObject': {}, 'id': 'raisin bran w milk', 'src': '/static/foodstim60/raisin bran w milk.jpg', 'key': 'u', 'origWidth': 411, 'origHeight': 411, 'width': 411, 'height': 411, 'widthPercent': 0.45, 'rescaleHeight': False, 'trialN': 36, 'loaded': True, 'loadedTime': 2328.4000000059605, 'positionName': 'LEFT', 'positionCoords': [203.4, 306.5], 'bid': 3.9}, {'imgObject': {}, 'id': 'banana', 'src': '/static/foodstim60/banana.jpg', 'key': 'i', 'origWidth': 410, 'origHeight': 410, 'width': 410, 'height': 410, 'widthPercent': 0.45, 'rescaleHeight': False, 'trialN': 36, 'loaded': True, 'loadedTime': 2586, 'positionName': 'RIGHT', 'positionCoords': [665.6, 307], 'bid': 7.1000000000000005}]",65453.40000000596,1669830285649,raisin bran w milk,banana,3.9,7.1000000000000005,3.2000000000000006,banana,1696.8999999910593,1697,1697.2999999970198,True,i,67653.29999999702,2199.8999999910593,1669830287849,2200,HRV,HRV_0051,2022-11-30 17:48:10
37,"[{'imgObject': {}, 'id': 'blackbeanswithrice', 'src': '/static/foodstim60/blackbeanswithrice.jpg', 'key': 'u', 'origWidth': 410, 'origHeight': 410, 'width': 410, 'height': 410, 'widthPercent': 0.45, 'rescaleHeight': False, 'trialN': 37, 'loaded': True, 'loadedTime': 2583.2000000029802, 'positionName': 'LEFT', 'positionCoords': [204.4, 307], 'bid': 5.8500000000000005}, {'imgObject': {}, 'id': 'baked potato', 'src': '/static/foodstim60/baked potato.jpg', 'key': 'i', 'origWidth': 409, 'origHeight': 410, 'width': 409, 'height': 410, 'widthPercent': 0.45, 'rescaleHeight': False, 'trialN': 37, 'loaded': True, 'loadedTime': 2361.5, 'positionName': 'RIGHT', 'positionCoords': [665.6, 307], 'bid': 3.7}]",67653.5,1669830287849,blackbeanswithrice,baked potato,5.8500000000000005,3.7,-2.1500000000000004,baked potato,1896.6000000089407,1897,1897.0,True,i,70053.40000000596,2399.9000000059605,1669830290249,2400,HRV,HRV_0051,2022-11-30 17:48:10
38,"[{'imgObject': {}, 'id': 'edamame', 'src': '/static/foodstim60/edamame.jpg', 'key': 'u', 'origWidth': 409, 'origHeight': 410, 'width': 409, 'height': 410, 'widthPercent': 0.45, 'rescaleHeight': False, 'trialN': 38, 'loaded': True, 'loadedTime': 2577.9000000059605, 'positionName': 'LEFT', 'positionCoords': [205.4, 307], 'bid': 1.76}, {'imgObject': {}, 'id': 'hashbrowns', 'src': '/static/foodstim60/hashbrowns.jpg', 'key': 'i', 'origWidth': 411, 'origHeight': 410, 'width': 411, 'height': 410, 'widthPercent': 0.45, 'rescaleHeight': False, 'trialN': 38, 'loaded': True, 'loadedTime': 2588.7000000029802, 'positionName': 'RIGHT', 'positionCoords': [665.6, 307], 'bid': 1.4}]",70053.70000000298,1669830290249,edamame,hashbrowns,1.76,1.4,-0.3600000000000001,hashbrowns,1096.4000000059605,1097,1096.7999999970198,True,i,71653.40000000596,1599.7000000029802,1669830291849,1600,HRV,HRV_0051,2022-11-30 17:48:10
39,"[{'imgObject': {}, 'id': 'Tribe humus pita', 'src': '/static/foodstim60/Tribe humus pita.jpg', 'key': 'u', 'origWidth': 411, 'origHeight': 411, 'width': 411, 'height': 411, 'widthPercent': 0.45, 'rescaleHeight': False, 'trialN': 39, 'loaded': True, 'loadedTime': 2455.9000000059605, 'positionName': 'LEFT', 'positionCoords': [203.4, 306.5], 'bid': 2.82}, {'imgObject': {}, 'id': 'luckycharms', 'src': '/static/foodstim60/luckycharms.jpg', 'key': 'i', 'origWidth': 410, 'origHeight': 409, 'width': 410, 'height': 409, 'widthPercent': 0.45, 'rescaleHeight': False, 'trialN': 39, 'loaded': True, 'loadedTime': 2530.2999999970198, 'positionName': 'RIGHT', 'positionCoords': [665.6, 307.5], 'bid': 0.2}]",71653.70000000298,1669830291849,Tribe humus pita,luckycharms,2.82,0.2,-2.6199999999999997,Tribe humus pita,1288.2999999970198,1289,1288.5999999940395,True,u,73445.5,1791.7999999970198,1669830293641,1792,HRV,HRV_0051,2022-11-30 17:48:10
40,"[{'imgObject': {}, 'id': 'Grapes', 'src': '/static/foodstim60/Grapes.jpg', 'key': 'u', 'origWidth': 411, 'origHeight': 411, 'width': 411, 'height': 411, 'widthPercent': 0.45, 'rescaleHeight': False, 'trialN': 40, 'loaded': True, 'loadedTime': 2599.1000000089407, 'positionName': 'LEFT', 'positionCoords': [203.4, 306.5], 'bid': 4.75}, {'imgObject': {}, 'id': 'sushi w_condiments', 'src': '/static/foodstim60/sushi w_condiments.jpg', 'key': 'i', 'origWidth': 410, 'origHeight': 410, 'width': 410, 'height': 410, 'widthPercent': 0.45, 'rescaleHeight': False, 'trialN': 40, 'loaded': True, 'loadedTime': 2576.7000000029802, 'positionName': 'RIGHT', 'positionCoords': [665.6, 307], 'bid': 6.76}]",73445.60000000894,1669830293641,Grapes,sushi w_condiments,4.75,6.76,2.01,sushi w_condiments,1176.3999999910593,1177,1176.7999999970198,True,i,75125.60000000894,1680.0,1669830295321,1680,HRV,HRV_0051,2022-11-30 17:48:10
41,"[{'imgObject': {}, 'id': 'blackbeanswithrice', 'src': '/static/foodstim60/blackbeanswithrice.jpg', 'key': 'u', 'origWidth': 410, 'origHeight': 410, 'width': 410, 'height': 410, 'widthPercent': 0.45, 'rescaleHeight': False, 'trialN': 41, 'loaded': True, 'loadedTime': 2578.4000000059605, 'positionName': 'LEFT', 'positionCoords': [204.4, 307], 'bid': 5.8500000000000005}, {'imgObject': {}, 'id': 'cantaloupe', 'src': '/static/foodstim60/cantaloupe.jpg', 'key': 'i', 'origWidth': 409, 'origHeight': 409, 'width': 409, 'height': 409, 'widthPercent': 0.45, 'rescaleHeight': False, 'trialN': 41, 'loaded': True, 'loadedTime': 2499.5, 'positionName': 'RIGHT', 'positionCoords': [665.6, 307.5], 'bid': 4.29}]",75125.70000000298,1669830295321,blackbeanswithrice,cantaloupe,5.8500000000000005,4.29,-1.5600000000000005,cantaloupe,1329.0999999940395,1330,1329.4000000059605,True,i,76957.60000000894,1831.9000000059605,1669830297153,1832,HRV,HRV_0051,2022-11-30 17:48:10
42,"[{'imgObject': {}, 'id': 'olives', 'src': '/static/foodstim60/olives.jpg', 'key': 'u', 'origWidth': 410, 'origHeight': 410, 'width': 410, 'height': 410, 'widthPercent': 0.45, 'rescaleHeight': False, 'trialN': 42, 'loaded': True, 'loadedTime': 2584.7000000029802, 'positionName': 'LEFT', 'positionCoords': [204.4, 307], 'bid': 3.26}, {'imgObject': {}, 'id': 'cantaloupe', 'src': '/static/foodstim60/cantaloupe.jpg', 'key': 'i', 'origWidth': 409, 'origHeight': 409, 'width': 409, 'height': 409, 'widthPercent': 0.45, 'rescaleHeight': False, 'trialN': 42, 'loaded': True, 'loadedTime': 2502.2000000029802, 'positionName': 'RIGHT', 'positionCoords': [665.6, 307.5], 'bid': 4.29}]",76957.79999999702,1669830297153,olives,cantaloupe,3.26,4.29,1.0300000000000002,cantaloupe,976.1000000089407,977,976.4000000059605,True,i,78437.70000000298,1479.9000000059605,1669830298633,1480,HRV,HRV_0051,2022-11-30 17:48:10
43,"[{'imgObject': {}, 'id': 'avocado', 'src': '/static/foodstim60/avocado.jpg', 'key': 'u', 'origWidth': 409, 'origHeight': 409, 'width': 409, 'height': 409, 'widthPercent': 0.45, 'rescaleHeight': False, 'trialN': 43, 'loaded': True, 'loadedTime': 2381.7000000029802, 'positionName': 'LEFT', 'positionCoords': [205.4, 307.5], 'bid': 2.56}, {'imgObject': {}, 'id': 'turkey sandwich', 'src': '/static/foodstim60/turkey sandwich.jpg', 'key': 'i', 'origWidth': 409, 'origHeight': 409, 'width': 409, 'height': 409, 'widthPercent': 0.45, 'rescaleHeight': False, 'trialN': 43, 'loaded': True, 'loadedTime': 2284.1000000089407, 'positionName': 'RIGHT', 'positionCoords': [665.6, 307.5], 'bid': 2.29}]",78437.90000000596,1669830298633,avocado,turkey sandwich,2.56,2.29,-0.27,avocado,832,833,832.3999999910593,True,u,79773.70000000298,1335.7999999970198,1669830299969,1336,HRV,HRV_0051,2022-11-30 17:48:10
44,"[{'imgObject': {}, 'id': 'rigatoni and sauce', 'src': '/static/foodstim60/rigatoni and sauce.jpg', 'key': 'u', 'origWidth': 410, 'origHeight': 411, 'width': 410, 'height': 411, 'widthPercent': 0.45, 'rescaleHeight': False, 'trialN': 44, 'loaded': True, 'loadedTime': 2601.6000000089407, 'positionName': 'LEFT', 'positionCoords': [204.4, 306.5], 'bid': 0.6}, {'imgObject': {}, 'id': 'seaweed', 'src': '/static/foodstim60/seaweed.jpg', 'key': 'i', 'origWidth': 410, 'origHeight': 410, 'width': 410, 'height': 410, 'widthPercent': 0.45, 'rescaleHeight': False, 'trialN': 44, 'loaded': True, 'loadedTime': 2570.2999999970198, 'positionName': 'RIGHT', 'positionCoords': [665.6, 307], 'bid': 2.1}]",79773.90000000596,1669830299969,rigatoni and sauce,seaweed,0.6,2.1,1.5,seaweed,1175.8999999910593,1177,1176.2999999970198,True,i,81453.79999999702,1679.8999999910593,1669830301649,1680,HRV,HRV_0051,2022-11-30 17:48:10
45,"[{'imgObject': {}, 'id': 'bagel plain', 'src': '/static/foodstim60/bagel plain.jpg', 'key': 'u', 'origWidth': 410, 'origHeight': 410, 'width': 410, 'height': 410, 'widthPercent': 0.45, 'rescaleHeight': False, 'trialN': 45, 'loaded': True, 'loadedTime': 2383.6000000089407, 'positionName': 'LEFT', 'positionCoords': [204.4, 307], 'bid': 0.15}, {'imgObject': {}, 'id': 'rigatoni and sauce', 'src': '/static/foodstim60/rigatoni and sauce.jpg', 'key': 'i', 'origWidth': 410, 'origHeight': 411, 'width': 410, 'height': 411, 'widthPercent': 0.45, 'rescaleHeight': False, 'trialN': 45, 'loaded': True, 'loadedTime': 2601.7999999970198, 'positionName': 'RIGHT', 'positionCoords': [665.6, 306.5], 'bid': 0.6}]",81454.10000000894,1669830301650,bagel plain,rigatoni and sauce,0.15,0.6,0.44999999999999996,bagel plain,1007.6999999880791,1008,1008.0999999940395,True,u,82964.79999999702,1510.699999988079,1669830303160,1510,HRV,HRV_0051,2022-11-30 17:48:10
46,"[{'imgObject': {}, 'id': 'lox', 'src': '/static/foodstim60/lox.jpg', 'key': 'u', 'origWidth': 410, 'origHeight': 411, 'width': 410, 'height': 411, 'widthPercent': 0.45, 'rescaleHeight': False, 'trialN': 46, 'loaded': True, 'loadedTime': 2542.2999999970198, 'positionName': 'LEFT', 'positionCoords': [204.4, 306.5], 'bid': 0.26}, {'imgObject': {}, 'id': 'luckycharms', 'src': '/static/foodstim60/luckycharms.jpg', 'key': 'i', 'origWidth': 410, 'origHeight': 409, 'width': 410, 'height': 409, 'widthPercent': 0.45, 'rescaleHeight': False, 'trialN': 46, 'loaded': True, 'loadedTime': 2530.2000000029802, 'positionName': 'RIGHT', 'positionCoords': [665.6, 307.5], 'bid': 0.2}]",82965.0,1669830303161,lox,luckycharms,0.26,0.2,-0.06,luckycharms,760.7999999970198,761,761.2000000029802,True,i,84228.90000000596,1263.9000000059605,1669830304424,1263,HRV,HRV_0051,2022-11-30 17:48:10
47,"[{'imgObject': {}, 'id': 'Tribe humus pita', 'src': '/static/foodstim60/Tribe humus pita.jpg', 'key': 'u', 'origWidth': 411, 'origHeight': 411, 'width': 411, 'height': 411, 'widthPercent': 0.45, 'rescaleHeight': False, 'trialN': 47, 'loaded': True, 'loadedTime': 2447.9000000059605, 'positionName': 'LEFT', 'positionCoords': [203.4, 306.5], 'bid': 2.82}, {'imgObject': {}, 'id': 'strawberries', 'src': '/static/foodstim60/strawberries.jpg', 'key': 'i', 'origWidth': 410, 'origHeight': 410, 'width': 410, 'height': 410, 'widthPercent': 0.45, 'rescaleHeight': False, 'trialN': 47, 'loaded': True, 'loadedTime': 2568.9000000059605, 'positionName': 'RIGHT', 'positionCoords': [665.6, 307], 'bid': 3.14}]",84229.10000000894,1669830304425,Tribe humus pita,strawberries,2.82,3.14,0.3200000000000003,strawberries,1840.3999999910593,1840,1840.699999988079,True,i,86572.90000000596,2343.7999999970198,1669830306768,2343,HRV,HRV_0051,2022-11-30 17:48:10
48,"[{'imgObject': {}, 'id': 'cherry tomato', 'src': '/static/foodstim60/cherry tomato.jpg', 'key': 'u', 'origWidth': 410, 'origHeight': 410, 'width': 410, 'height': 410, 'widthPercent': 0.45, 'rescaleHeight': False, 'trialN': 48, 'loaded': True, 'loadedTime': 2568.7000000029802, 'positionName': 'LEFT', 'positionCoords': [204.4, 307], 'bid': 2.78}, {'imgObject': {}, 'id': 'yogurt no spoon', 'src': '/static/foodstim60/yogurt no spoon.jpg', 'key': 'i', 'origWidth': 411, 'origHeight': 410, 'width': 411, 'height': 410, 'widthPercent': 0.45, 'rescaleHeight': False, 'trialN': 48, 'loaded': True, 'loadedTime': 2329, 'positionName': 'RIGHT', 'positionCoords': [665.6, 307], 'bid': 2.75}]",86573.0,1669830306769,cherry tomato,yogurt no spoon,2.78,2.75,-0.029999999999999805,yogurt no spoon,969.2000000029802,969,969.6000000089407,True,i,88045.0,1472.0,1669830308241,1472,HRV,HRV_0051,2022-11-30 17:48:10
49,"[{'imgObject': {}, 'id': 'raisin bran w milk', 'src': '/static/foodstim60/raisin bran w milk.jpg', 'key': 'u', 'origWidth': 411, 'origHeight': 411, 'width': 411, 'height': 411, 'widthPercent': 0.45, 'rescaleHeight': False, 'trialN': 49, 'loaded': True, 'loadedTime': 2324.7000000029802, 'positionName': 'LEFT', 'positionCoords': [203.4, 306.5], 'bid': 3.9}, {'imgObject': {}, 'id': 'steak', 'src': '/static/foodstim60/steak.jpg', 'key': 'i', 'origWidth': 410, 'origHeight': 410, 'width': 410, 'height': 410, 'widthPercent': 0.45, 'rescaleHeight': False, 'trialN': 49, 'loaded': True, 'loadedTime': 2556.5, 'positionName': 'RIGHT', 'positionCoords': [665.6, 307], 'bid': 5.0600000000000005}]",88045.20000000298,1669830308241,raisin bran w milk,steak,3.9,5.0600000000000005,1.1600000000000006,steak,848.5999999940395,849,848.9000000059605,True,i,89397.10000000894,1351.9000000059605,1669830309593,1352,HRV,HRV_0051,2022-11-30 17:48:10
50,"[{'imgObject': {}, 'id': 'luckycharms', 'src': '/static/foodstim60/luckycharms.jpg', 'key': 'u', 'origWidth': 410, 'origHeight': 409, 'width': 410, 'height': 409, 'widthPercent': 0.45, 'rescaleHeight': False, 'trialN': 50, 'loaded': True, 'loadedTime': 2529.2000000029802, 'positionName': 'LEFT', 'positionCoords': [204.4, 307.5], 'bid': 0.2}, {'imgObject': {}, 'id': 'turkeysandwich', 'src': '/static/foodstim60/turkeysandwich.jpg', 'key': 'i', 'origWidth': 409, 'origHeight': 409, 'width': 409, 'height': 409, 'widthPercent': 0.45, 'rescaleHeight': False, 'trialN': 50, 'loaded': True, 'loadedTime': 2513, 'positionName': 'RIGHT', 'positionCoords': [665.6, 307.5], 'bid': 1.82}]",89397.29999999702,1669830309593,luckycharms,turkeysandwich,0.2,1.82,1.62,turkeysandwich,744.2000000029802,744,744.6000000089407,True,i,90645.20000000298,1247.9000000059605,1669830310841,1248,HRV,HRV_0051,2022-11-30 17:48:10
51,"[{'imgObject': {}, 'id': 'rigatoni', 'src': '/static/foodstim60/rigatoni.jpg', 'key': 'u', 'origWidth': 411, 'origHeight': 411, 'width': 411, 'height': 411, 'widthPercent': 0.45, 'rescaleHeight': False, 'trialN': 51, 'loaded': True, 'loadedTime': 2562.1000000089407, 'positionName': 'LEFT', 'positionCoords': [203.4, 306.5], 'bid': 0.42}, {'imgObject': {}, 'id': 'edamame', 'src': '/static/foodstim60/edamame.jpg', 'key': 'i', 'origWidth': 409, 'origHeight': 410, 'width': 409, 'height': 410, 'widthPercent': 0.45, 'rescaleHeight': False, 'trialN': 51, 'loaded': True, 'loadedTime': 2578, 'positionName': 'RIGHT', 'positionCoords': [665.6, 307], 'bid': 1.76}]",90645.29999999702,1669830310841,rigatoni,edamame,0.42,1.76,1.34,edamame,1504.300000011921,1504,1504.6000000089407,True,i,92653.20000000298,2007.9000000059605,1669830312849,2008,HRV,HRV_0051,2022-11-30 17:48:10
52,"[{'imgObject': {}, 'id': 'kiwi', 'src': '/static/foodstim60/kiwi.jpg', 'key': 'u', 'origWidth': 410, 'origHeight': 410, 'width': 410, 'height': 410, 'widthPercent': 0.45, 'rescaleHeight': False, 'trialN': 52, 'loaded': True, 'loadedTime': 2435.7999999970198, 'positionName': 'LEFT', 'positionCoords': [204.4, 307], 'bid': 5.32}, {'imgObject': {}, 'id': 'mashed potato', 'src': '/static/foodstim60/mashed potato.jpg', 'key': 'i', 'origWidth': 409, 'origHeight': 409, 'width': 409, 'height': 409, 'widthPercent': 0.45, 'rescaleHeight': False, 'trialN': 52, 'loaded': True, 'loadedTime': 2547, 'positionName': 'RIGHT', 'positionCoords': [665.6, 307.5], 'bid': 1.87}]",92653.29999999702,1669830312849,kiwi,mashed potato,5.32,1.87,-3.45,kiwi,984,984,984.2000000029802,True,u,94141.29999999702,1488.0,1669830314337,1488,HRV,HRV_0051,2022-11-30 17:48:10
53,"[{'imgObject': {}, 'id': 'mac & cheese', 'src': '/static/foodstim60/mac & cheese.jpg', 'key': 'u', 'origWidth': 410, 'origHeight': 410, 'width': 410, 'height': 410, 'widthPercent': 0.45, 'rescaleHeight': False, 'trialN': 53, 'loaded': True, 'loadedTime': 2603.2000000029802, 'positionName': 'LEFT', 'positionCoords': [204.4, 307], 'bid': 0.5700000000000001}, {'imgObject': {}, 'id': 'sweetpotato', 'src': '/static/foodstim60/sweetpotato.jpg', 'key': 'i', 'origWidth': 410, 'origHeight': 410, 'width': 410, 'height': 410, 'widthPercent': 0.45, 'rescaleHeight': False, 'trialN': 53, 'loaded': True, 'loadedTime': 2560.7999999970198, 'positionName': 'RIGHT', 'positionCoords': [665.6, 307], 'bid': 1.78}]",94141.5,1669830314337,mac & cheese,sweetpotato,0.5700000000000001,1.78,1.21,sweetpotato,824.1000000089407,824,824.4000000059605,True,i,95469.40000000596,1327.9000000059605,1669830315665,1328,HRV,HRV_0051,2022-11-30 17:48:10
54,"[{'imgObject': {}, 'id': 'raspberries', 'src': '/static/foodstim60/raspberries.jpg', 'key': 'u', 'origWidth': 411, 'origHeight': 411, 'width': 411, 'height': 411, 'widthPercent': 0.45, 'rescaleHeight': False, 'trialN': 54, 'loaded': True, 'loadedTime': 2606.1000000089407, 'positionName': 'LEFT', 'positionCoords': [203.4, 306.5], 'bid': 8.2}, {'imgObject': {}, 'id': 'cherries', 'src': '/static/foodstim60/cherries.jpg', 'key': 'i', 'origWidth': 410, 'origHeight': 411, 'width': 410, 'height': 411, 'widthPercent': 0.45, 'rescaleHeight': False, 'trialN': 54, 'loaded': True, 'loadedTime': 2341.6000000089407, 'positionName': 'RIGHT', 'positionCoords': [665.6, 306.5], 'bid': 7.390000000000001}]",95469.5,1669830315665,raspberries,cherries,8.2,7.390000000000001,-0.8099999999999987,raspberries,1839.7999999970198,1840,1840.2000000029802,True,u,97813.5,2344.0,1669830318009,2344,HRV,HRV_0051,2022-11-30 17:48:10
55,"[{'imgObject': {}, 'id': 'bagel plain', 'src': '/static/foodstim60/bagel plain.jpg', 'key': 'u', 'origWidth': 410, 'origHeight': 410, 'width': 410, 'height': 410, 'widthPercent': 0.45, 'rescaleHeight': False, 'trialN': 55, 'loaded': True, 'loadedTime': 2391.6000000089407, 'positionName': 'LEFT', 'positionCoords': [204.4, 307], 'bid': 0.15}, {'imgObject': {}, 'id': 'froot loops w milk', 'src': '/static/foodstim60/froot loops w milk.jpg', 'key': 'i', 'origWidth': 410, 'origHeight': 410, 'width': 410, 'height': 410, 'widthPercent': 0.45, 'rescaleHeight': False, 'trialN': 55, 'loaded': True, 'loadedTime': 2535.9000000059605, 'positionName': 'RIGHT', 'positionCoords': [665.6, 307], 'bid': 0.14}]",97813.60000000894,1669830318009,bagel plain,froot loops w milk,0.15,0.14,-0.009999999999999981,bagel plain,1168.5999999940395,1169,1169.0,True,u,99485.5,1671.8999999910593,1669830319681,1672,HRV,HRV_0051,2022-11-30 17:48:10
56,"[{'imgObject': {}, 'id': 'apple slices', 'src': '/static/foodstim60/apple slices.jpg', 'key': 'u', 'origWidth': 409, 'origHeight': 410, 'width': 409, 'height': 410, 'widthPercent': 0.45, 'rescaleHeight': False, 'trialN': 56, 'loaded': True, 'loadedTime': 2606.6000000089407, 'positionName': 'LEFT', 'positionCoords': [205.4, 307], 'bid': 6.75}, {'imgObject': {}, 'id': 'blackbeanswithrice', 'src': '/static/foodstim60/blackbeanswithrice.jpg', 'key': 'i', 'origWidth': 410, 'origHeight': 410, 'width': 410, 'height': 410, 'widthPercent': 0.45, 'rescaleHeight': False, 'trialN': 56, 'loaded': True, 'loadedTime': 2579.4000000059605, 'positionName': 'RIGHT', 'positionCoords': [665.6, 307], 'bid': 5.8500000000000005}]",99485.70000000298,1669830319681,apple slices,blackbeanswithrice,6.75,5.8500000000000005,-0.8999999999999995,apple slices,1223.5,1224,1223.9000000059605,True,u,101213.5,1727.7999999970198,1669830321409,1728,HRV,HRV_0051,2022-11-30 17:48:10
57,"[{'imgObject': {}, 'id': 'sushi w_condiments', 'src': '/static/foodstim60/sushi w_condiments.jpg', 'key': 'u', 'origWidth': 410, 'origHeight': 410, 'width': 410, 'height': 410, 'widthPercent': 0.45, 'rescaleHeight': False, 'trialN': 57, 'loaded': True, 'loadedTime': 2572.9000000059605, 'positionName': 'LEFT', 'positionCoords': [204.4, 307], 'bid': 6.76}, {'imgObject': {}, 'id': 'cocktailshrimp', 'src': '/static/foodstim60/cocktailshrimp.jpg', 'key': 'i', 'origWidth': 410, 'origHeight': 410, 'width': 410, 'height': 410, 'widthPercent': 0.45, 'rescaleHeight': False, 'trialN': 57, 'loaded': True, 'loadedTime': 2618.2999999970198, 'positionName': 'RIGHT', 'positionCoords': [665.6, 307], 'bid': 3.89}]",101213.70000000298,1669830321409,sushi w_condiments,cocktailshrimp,6.76,3.89,-2.8699999999999997,sushi w_condiments,1095.5999999940395,1096,1095.9000000059605,True,u,102813.70000000298,1600.0,1669830323009,1600,HRV,HRV_0051,2022-11-30 17:48:10
58,"[{'imgObject': {}, 'id': 'pear', 'src': '/static/foodstim60/pear.jpg', 'key': 'u', 'origWidth': 411, 'origHeight': 410, 'width': 411, 'height': 410, 'widthPercent': 0.45, 'rescaleHeight': False, 'trialN': 58, 'loaded': True, 'loadedTime': 2491.4000000059605, 'positionName': 'LEFT', 'positionCoords': [203.4, 307], 'bid': 2.64}, {'imgObject': {}, 'id': 'yogurt no spoon', 'src': '/static/foodstim60/yogurt no spoon.jpg', 'key': 'i', 'origWidth': 411, 'origHeight': 410, 'width': 411, 'height': 410, 'widthPercent': 0.45, 'rescaleHeight': False, 'trialN': 58, 'loaded': True, 'loadedTime': 2333.7000000029802, 'positionName': 'RIGHT', 'positionCoords': [665.6, 307], 'bid': 2.75}]",102813.79999999702,1669830323009,pear,yogurt no spoon,2.64,2.75,0.10999999999999988,yogurt no spoon,1295.5,1300,1295.9000000059605,True,i,104613.70000000298,1799.9000000059605,1669830324813,1804,HRV,HRV_0051,2022-11-30 17:48:10
59,"[{'imgObject': {}, 'id': 'salad w chicken', 'src': '/static/foodstim60/salad w chicken.jpg', 'key': 'u', 'origWidth': 411, 'origHeight': 411, 'width': 411, 'height': 411, 'widthPercent': 0.45, 'rescaleHeight': False, 'trialN': 59, 'loaded': True, 'loadedTime': 2425, 'positionName': 'LEFT', 'positionCoords': [203.4, 306.5], 'bid': 4.5600000000000005}, {'imgObject': {}, 'id': 'corn cob', 'src': '/static/foodstim60/corn cob.jpg', 'key': 'i', 'origWidth': 411, 'origHeight': 411, 'width': 411, 'height': 411, 'widthPercent': 0.45, 'rescaleHeight': False, 'trialN': 59, 'loaded': True, 'loadedTime': 2489.2000000029802, 'positionName': 'RIGHT', 'positionCoords': [665.6, 306.5], 'bid': 8.34}]",104613.90000000596,1669830324814,salad w chicken,corn cob,4.5600000000000005,8.34,3.7799999999999994,corn cob,863.2999999970198,863,863.5999999940395,True,i,105981.70000000298,1367.7999999970198,1669830326181,1367,HRV,HRV_0051,2022-11-30 17:48:10
60,"[{'imgObject': {}, 'id': 'tacos', 'src': '/static/foodstim60/tacos.jpg', 'key': 'u', 'origWidth': 411, 'origHeight': 411, 'width': 411, 'height': 411, 'widthPercent': 0.45, 'rescaleHeight': False, 'trialN': 60, 'loaded': True, 'loadedTime': 2392, 'positionName': 'LEFT', 'positionCoords': [203.4, 306.5], 'bid': 2}, {'imgObject': {}, 'id': 'mashed potato', 'src': '/static/foodstim60/mashed potato.jpg', 'key': 'i', 'origWidth': 409, 'origHeight': 409, 'width': 409, 'height': 409, 'widthPercent': 0.45, 'rescaleHeight': False, 'trialN': 60, 'loaded': True, 'loadedTime': 2546.2999999970198, 'positionName': 'RIGHT', 'positionCoords': [665.6, 307.5], 'bid': 1.87}]",105981.90000000596,1669830326182,tacos,mashed potato,2.0,1.87,-0.1299999999999999,tacos,1543.2999999970198,1543,1543.7999999970198,True,u,108029.90000000596,2048.0,1669830328230,2048,HRV,HRV_0051,2022-11-30 17:48:10
61,"[{'imgObject': {}, 'id': 'roastedpotatoes', 'src': '/static/foodstim60/roastedpotatoes.jpg', 'key': 'u', 'origWidth': 409, 'origHeight': 410, 'width': 409, 'height': 410, 'widthPercent': 0.45, 'rescaleHeight': False, 'trialN': 61, 'loaded': True, 'loadedTime': 2620.6000000089407, 'positionName': 'LEFT', 'positionCoords': [205.4, 307], 'bid': 2.78}, {'imgObject': {}, 'id': 'fruitsalad', 'src': '/static/foodstim60/fruitsalad.jpg', 'key': 'i', 'origWidth': 410, 'origHeight': 410, 'width': 410, 'height': 410, 'widthPercent': 0.45, 'rescaleHeight': False, 'trialN': 61, 'loaded': True, 'loadedTime': 2623, 'positionName': 'RIGHT', 'positionCoords': [665.6, 307], 'bid': 5.01}]",108030.0,1669830328230,roastedpotatoes,fruitsalad,2.78,5.01,2.23,roastedpotatoes,1487.9000000059605,1488,1488.2000000029802,True,u,110020.90000000596,1990.9000000059605,1669830330221,1991,HRV,HRV_0051,2022-11-30 17:48:10
62,"[{'imgObject': {}, 'id': 'cherry tomato', 'src': '/static/foodstim60/cherry tomato.jpg', 'key': 'u', 'origWidth': 410, 'origHeight': 410, 'width': 410, 'height': 410, 'widthPercent': 0.45, 'rescaleHeight': False, 'trialN': 62, 'loaded': True, 'loadedTime': 2568.6000000089407, 'positionName': 'LEFT', 'positionCoords': [204.4, 307], 'bid': 2.78}, {'imgObject': {}, 'id': 'bagel plain', 'src': '/static/foodstim60/bagel plain.jpg', 'key': 'i', 'origWidth': 410, 'origHeight': 410, 'width': 410, 'height': 410, 'widthPercent': 0.45, 'rescaleHeight': False, 'trialN': 62, 'loaded': True, 'loadedTime': 2390.9000000059605, 'positionName': 'RIGHT', 'positionCoords': [665.6, 307], 'bid': 0.15}]",110021.0,1669830330221,cherry tomato,bagel plain,2.78,0.15,-2.63,bagel plain,1504.1000000089407,1504,1504.5,True,i,112029.0,2008.0,1669830332229,2008,HRV,HRV_0051,2022-11-30 17:48:10
63,"[{'imgObject': {}, 'id': 'olives', 'src': '/static/foodstim60/olives.jpg', 'key': 'u', 'origWidth': 410, 'origHeight': 410, 'width': 410, 'height': 410, 'widthPercent': 0.45, 'rescaleHeight': False, 'trialN': 63, 'loaded': True, 'loadedTime': 2584.9000000059605, 'positionName': 'LEFT', 'positionCoords': [204.4, 307], 'bid': 3.26}, {'imgObject': {}, 'id': 'baked potato', 'src': '/static/foodstim60/baked potato.jpg', 'key': 'i', 'origWidth': 409, 'origHeight': 410, 'width': 409, 'height': 410, 'widthPercent': 0.45, 'rescaleHeight': False, 'trialN': 63, 'loaded': True, 'loadedTime': 2362, 'positionName': 'RIGHT', 'positionCoords': [665.6, 307], 'bid': 3.7}]",112029.20000000298,1669830332229,olives,baked potato,3.26,3.7,0.4400000000000004,baked potato,1071.7999999970198,1072,1072.0999999940395,True,i,113605.0,1575.7999999970198,1669830333805,1576,HRV,HRV_0051,2022-11-30 17:48:10
64,"[{'imgObject': {}, 'id': 'roastedpotatoes', 'src': '/static/foodstim60/roastedpotatoes.jpg', 'key': 'u', 'origWidth': 409, 'origHeight': 410, 'width': 409, 'height': 410, 'widthPercent': 0.45, 'rescaleHeight': False, 'trialN': 64, 'loaded': True, 'loadedTime': 2620.2000000029802, 'positionName': 'LEFT', 'positionCoords': [205.4, 307], 'bid': 2.78}, {'imgObject': {}, 'id': 'cherry tomato', 'src': '/static/foodstim60/cherry tomato.jpg', 'key': 'i', 'origWidth': 410, 'origHeight': 410, 'width': 410, 'height': 410, 'widthPercent': 0.45, 'rescaleHeight': False, 'trialN': 64, 'loaded': True, 'loadedTime': 2568.4000000059605, 'positionName': 'RIGHT', 'positionCoords': [665.6, 307], 'bid': 2.78}]",113605.79999999702,1669830333805,roastedpotatoes,cherry tomato,2.78,2.78,0.0,roastedpotatoes,1167.1000000089407,1168,1167.5,True,u,115277.0,1671.2000000029802,1669830335477,1672,HRV,HRV_0051,2022-11-30 17:48:10
65,"[{'imgObject': {}, 'id': 'luckycharms', 'src': '/static/foodstim60/luckycharms.jpg', 'key': 'u', 'origWidth': 410, 'origHeight': 409, 'width': 410, 'height': 409, 'widthPercent': 0.45, 'rescaleHeight': False, 'trialN': 65, 'loaded': True, 'loadedTime': 2530.1000000089407, 'positionName': 'LEFT', 'positionCoords': [204.4, 307.5], 'bid': 0.2}, {'imgObject': {}, 'id': 'hashbrowns', 'src': '/static/foodstim60/hashbrowns.jpg', 'key': 'i', 'origWidth': 411, 'origHeight': 410, 'width': 411, 'height': 410, 'widthPercent': 0.45, 'rescaleHeight': False, 'trialN': 65, 'loaded': True, 'loadedTime': 2588.5, 'positionName': 'RIGHT', 'positionCoords': [665.6, 307], 'bid': 1.4}]",115277.20000000298,1669830335477,luckycharms,hashbrowns,0.2,1.4,1.2,hashbrowns,1239.5999999940395,1240,1240.0,True,i,117021.10000000894,1743.9000000059605,1669830337221,1744,HRV,HRV_0051,2022-11-30 17:48:10
66,"[{'imgObject': {}, 'id': 'mango', 'src': '/static/foodstim60/mango.jpg', 'key': 'u', 'origWidth': 411, 'origHeight': 411, 'width': 411, 'height': 411, 'widthPercent': 0.45, 'rescaleHeight': False, 'trialN': 66, 'loaded': True, 'loadedTime': 2307.2999999970198, 'positionName': 'LEFT', 'positionCoords': [203.4, 306.5], 'bid': 2.21}, {'imgObject': {}, 'id': 'roastedpotatoes', 'src': '/static/foodstim60/roastedpotatoes.jpg', 'key': 'i', 'origWidth': 409, 'origHeight': 410, 'width': 409, 'height': 410, 'widthPercent': 0.45, 'rescaleHeight': False, 'trialN': 66, 'loaded': True, 'loadedTime': 2620, 'positionName': 'RIGHT', 'positionCoords': [665.6, 307], 'bid': 2.78}]",117021.29999999702,1669830337221,mango,roastedpotatoes,2.21,2.78,0.5699999999999998,roastedpotatoes,1271.5,1272,1271.800000011921,True,i,118797.20000000298,1775.9000000059605,1669830338997,1776,HRV,HRV_0051,2022-11-30 17:48:10
67,"[{'imgObject': {}, 'id': 'cherries', 'src': '/static/foodstim60/cherries.jpg', 'key': 'u', 'origWidth': 410, 'origHeight': 411, 'width': 410, 'height': 411, 'widthPercent': 0.45, 'rescaleHeight': False, 'trialN': 67, 'loaded': True, 'loadedTime': 2343.5, 'positionName': 'LEFT', 'positionCoords': [204.4, 306.5], 'bid': 7.390000000000001}, {'imgObject': {}, 'id': 'shreddedwheatwithmilk', 'src': '/static/foodstim60/shreddedwheatwithmilk.jpg', 'key': 'i', 'origWidth': 410, 'origHeight': 410, 'width': 410, 'height': 410, 'widthPercent': 0.45, 'rescaleHeight': False, 'trialN': 67, 'loaded': True, 'loadedTime': 2548.1000000089407, 'positionName': 'RIGHT', 'positionCoords': [665.6, 307], 'bid': 2.53}]",118797.40000000596,1669830338997,cherries,shreddedwheatwithmilk,7.390000000000001,2.53,-4.860000000000001,cherries,912,913,912.3999999910593,True,u,120213.29999999702,1415.8999999910593,1669830340413,1416,HRV,HRV_0051,2022-11-30 17:48:10
68,"[{'imgObject': {}, 'id': 'mac & cheese', 'src': '/static/foodstim60/mac & cheese.jpg', 'key': 'u', 'origWidth': 410, 'origHeight': 410, 'width': 410, 'height': 410, 'widthPercent': 0.45, 'rescaleHeight': False, 'trialN': 68, 'loaded': True, 'loadedTime': 2603.6000000089407, 'positionName': 'LEFT', 'positionCoords': [204.4, 307], 'bid': 0.5700000000000001}, {'imgObject': {}, 'id': 'olives', 'src': '/static/foodstim60/olives.jpg', 'key': 'i', 'origWidth': 410, 'origHeight': 410, 'width': 410, 'height': 410, 'widthPercent': 0.45, 'rescaleHeight': False, 'trialN': 68, 'loaded': True, 'loadedTime': 2584.6000000089407, 'positionName': 'RIGHT', 'positionCoords': [665.6, 307], 'bid': 3.26}]",120213.5,1669830340413,mac & cheese,olives,0.5700000000000001,3.26,2.6899999999999995,olives,751.2000000029802,752,751.6000000089407,True,i,121469.29999999702,1255.7999999970198,1669830341669,1256,HRV,HRV_0051,2022-11-30 17:48:10
69,"[{'imgObject': {}, 'id': 'cherries', 'src': '/static/foodstim60/cherries.jpg', 'key': 'u', 'origWidth': 410, 'origHeight': 411, 'width': 410, 'height': 411, 'widthPercent': 0.45, 'rescaleHeight': False, 'trialN': 69, 'loaded': True, 'loadedTime': 2351, 'positionName': 'LEFT', 'positionCoords': [204.4, 306.5], 'bid': 7.390000000000001}, {'imgObject': {}, 'id': 'corn cob', 'src': '/static/foodstim60/corn cob.jpg', 'key': 'i', 'origWidth': 411, 'origHeight': 411, 'width': 411, 'height': 411, 'widthPercent': 0.45, 'rescaleHeight': False, 'trialN': 69, 'loaded': True, 'loadedTime': 2489, 'positionName': 'RIGHT', 'positionCoords': [665.6, 306.5], 'bid': 8.34}]",121469.60000000894,1669830341669,cherries,corn cob,7.390000000000001,8.34,0.9499999999999993,corn cob,1183.0999999940395,1184,1183.5,True,i,123157.40000000596,1687.7999999970198,1669830343357,1688,HRV,HRV_0051,2022-11-30 17:48:10
70,"[{'imgObject': {}, 'id': 'froot loops w milk', 'src': '/static/foodstim60/froot loops w milk.jpg', 'key': 'u', 'origWidth': 410, 'origHeight': 410, 'width': 410, 'height': 410, 'widthPercent': 0.45, 'rescaleHeight': False, 'trialN': 70, 'loaded': True, 'loadedTime': 2536.7999999970198, 'positionName': 'LEFT', 'positionCoords': [204.4, 307], 'bid': 0.14}, {'imgObject': {}, 'id': 'roastedpotatoes', 'src': '/static/foodstim60/roastedpotatoes.jpg', 'key': 'i', 'origWidth': 409, 'origHeight': 410, 'width': 409, 'height': 410, 'widthPercent': 0.45, 'rescaleHeight': False, 'trialN': 70, 'loaded': True, 'loadedTime': 2620.7999999970198, 'positionName': 'RIGHT', 'positionCoords': [665.6, 307], 'bid': 2.78}]",123157.60000000894,1669830343357,froot loops w milk,roastedpotatoes,0.14,2.78,2.6399999999999997,roastedpotatoes,887.0999999940395,888,887.5,True,i,124549.40000000596,1391.7999999970198,1669830344749,1392,HRV,HRV_0051,2022-11-30 17:48:10
71,"[{'imgObject': {}, 'id': 'salmon', 'src': '/static/foodstim60/salmon.jpg', 'key': 'u', 'origWidth': 410, 'origHeight': 409, 'width': 410, 'height': 409, 'widthPercent': 0.45, 'rescaleHeight': False, 'trialN': 71, 'loaded': True, 'loadedTime': 2468.7000000029802, 'positionName': 'LEFT', 'positionCoords': [204.4, 307.5], 'bid': 5.8500000000000005}, {'imgObject': {}, 'id': 'chickenfingers', 'src': '/static/foodstim60/chickenfingers.jpg', 'key': 'i', 'origWidth': 410, 'origHeight': 410, 'width': 410, 'height': 410, 'widthPercent': 0.45, 'rescaleHeight': False, 'trialN': 71, 'loaded': True, 'loadedTime': 2427.4000000059605, 'positionName': 'RIGHT', 'positionCoords': [665.6, 307], 'bid': 5.3500000000000005}]",124549.70000000298,1669830344749,salmon,chickenfingers,5.8500000000000005,5.3500000000000005,-0.5,chickenfingers,1510.7000000029802,1511,1510.9000000059605,True,i,126565.5,2015.7999999970198,1669830346765,2016,HRV,HRV_0051,2022-11-30 17:48:10
72,"[{'imgObject': {}, 'id': 'mashed potato', 'src': '/static/foodstim60/mashed potato.jpg', 'key': 'u', 'origWidth': 409, 'origHeight': 409, 'width': 409, 'height': 409, 'widthPercent': 0.45, 'rescaleHeight': False, 'trialN': 72, 'loaded': True, 'loadedTime': 2546.7000000029802, 'positionName': 'LEFT', 'positionCoords': [205.4, 307.5], 'bid': 1.87}, {'imgObject': {}, 'id': 'hashbrowns', 'src': '/static/foodstim60/hashbrowns.jpg', 'key': 'i', 'origWidth': 411, 'origHeight': 410, 'width': 411, 'height': 410, 'widthPercent': 0.45, 'rescaleHeight': False, 'trialN': 72, 'loaded': True, 'loadedTime': 2589.2000000029802, 'positionName': 'RIGHT', 'positionCoords': [665.6, 307], 'bid': 1.4}]",126565.70000000298,1669830346765,mashed potato,hashbrowns,1.87,1.4,-0.4700000000000002,mashed potato,1350.9000000059605,1352,1351.2999999970198,True,u,128421.60000000894,1855.9000000059605,1669830348621,1856,HRV,HRV_0051,2022-11-30 17:48:10
73,"[{'imgObject': {}, 'id': 'seaweed', 'src': '/static/foodstim60/seaweed.jpg', 'key': 'u', 'origWidth': 410, 'origHeight': 410, 'width': 410, 'height': 410, 'widthPercent': 0.45, 'rescaleHeight': False, 'trialN': 73, 'loaded': True, 'loadedTime': 2571.4000000059605, 'positionName': 'LEFT', 'positionCoords': [204.4, 307], 'bid': 2.1}, {'imgObject': {}, 'id': 'blackbeanswithrice', 'src': '/static/foodstim60/blackbeanswithrice.jpg', 'key': 'i', 'origWidth': 410, 'origHeight': 410, 'width': 410, 'height': 410, 'widthPercent': 0.45, 'rescaleHeight': False, 'trialN': 73, 'loaded': True, 'loadedTime': 2583.5, 'positionName': 'RIGHT', 'positionCoords': [665.6, 307], 'bid': 5.8500000000000005}]",128421.79999999702,1669830348622,seaweed,blackbeanswithrice,2.1,5.8500000000000005,3.7500000000000004,seaweed,1246.7000000029802,1247,1247.0,True,u,130173.60000000894,1751.800000011921,1669830350373,1751,HRV,HRV_0051,2022-11-30 17:48:10
74,"[{'imgObject': {}, 'id': 'bagel and cc', 'src': '/static/foodstim60/bagel and cc.jpg', 'key': 'u', 'origWidth': 410, 'origHeight': 410, 'width': 410, 'height': 410, 'widthPercent': 0.45, 'rescaleHeight': False, 'trialN': 74, 'loaded': True, 'loadedTime': 2567.1000000089407, 'positionName': 'LEFT', 'positionCoords': [204.4, 307], 'bid': 1.18}, {'imgObject': {}, 'id': 'froot loops w milk', 'src': '/static/foodstim60/froot loops w milk.jpg', 'key': 'i', 'origWidth': 410, 'origHeight': 410, 'width': 410, 'height': 410, 'widthPercent': 0.45, 'rescaleHeight': False, 'trialN': 74, 'loaded': True, 'loadedTime': 2541, 'positionName': 'RIGHT', 'positionCoords': [665.6, 307], 'bid': 0.14}]",130173.79999999702,1669830350374,bagel and cc,froot loops w milk,1.18,0.14,-1.04,bagel and cc,1079.6000000089407,1080,1080.0,True,u,131757.70000000298,1583.9000000059605,1669830351957,1583,HRV,HRV_0051,2022-11-30 17:48:10
75,"[{'imgObject': {}, 'id': 'raspberries', 'src': '/static/foodstim60/raspberries.jpg', 'key': 'u', 'origWidth': 411, 'origHeight': 411, 'width': 411, 'height': 411, 'widthPercent': 0.45, 'rescaleHeight': False, 'trialN': 75, 'loaded': True, 'loadedTime': 2605.5, 'positionName': 'LEFT', 'positionCoords': [203.4, 306.5], 'bid': 8.2}, {'imgObject': {}, 'id': 'avocado', 'src': '/static/foodstim60/avocado.jpg', 'key': 'i', 'origWidth': 409, 'origHeight': 409, 'width': 409, 'height': 409, 'widthPercent': 0.45, 'rescaleHeight': False, 'trialN': 75, 'loaded': True, 'loadedTime': 2373.7000000029802, 'positionName': 'RIGHT', 'positionCoords': [665.6, 307.5], 'bid': 2.56}]",131757.90000000596,1669830351958,raspberries,avocado,8.2,2.56,-5.639999999999999,raspberries,758.5999999940395,759,759.0,True,u,133021.79999999702,1263.8999999910593,1669830353222,1264,HRV,HRV_0051,2022-11-30 17:48:10
76,"[{'imgObject': {}, 'id': 'omelette', 'src': '/static/foodstim60/omelette.jpg', 'key': 'u', 'origWidth': 410, 'origHeight': 409, 'width': 410, 'height': 409, 'widthPercent': 0.45, 'rescaleHeight': False, 'trialN': 76, 'loaded': True, 'loadedTime': 2413.4000000059605, 'positionName': 'LEFT', 'positionCoords': [204.4, 307.5], 'bid': 1.35}, {'imgObject': {}, 'id': 'eggs', 'src': '/static/foodstim60/eggs.jpg', 'key': 'i', 'origWidth': 409, 'origHeight': 409, 'width': 409, 'height': 409, 'widthPercent': 0.45, 'rescaleHeight': False, 'trialN': 76, 'loaded': True, 'loadedTime': 2362.2999999970198, 'positionName': 'RIGHT', 'positionCoords': [665.6, 307.5], 'bid': 4.28}]",133022.0,1669830353222,omelette,eggs,1.35,4.28,2.93,eggs,1214.4000000059605,1214,1214.7000000029802,True,i,134740.79999999702,1718.7999999970198,1669830354941,1719,HRV,HRV_0051,2022-11-30 17:48:10
77,"[{'imgObject': {}, 'id': 'avocado', 'src': '/static/foodstim60/avocado.jpg', 'key': 'u', 'origWidth': 409, 'origHeight': 409, 'width': 409, 'height': 409, 'widthPercent': 0.45, 'rescaleHeight': False, 'trialN': 77, 'loaded': True, 'loadedTime': 2372.5, 'positionName': 'LEFT', 'positionCoords': [205.4, 307.5], 'bid': 2.56}, {'imgObject': {}, 'id': 'shreddedwheatwithmilk', 'src': '/static/foodstim60/shreddedwheatwithmilk.jpg', 'key': 'i', 'origWidth': 410, 'origHeight': 410, 'width': 410, 'height': 410, 'widthPercent': 0.45, 'rescaleHeight': False, 'trialN': 77, 'loaded': True, 'loadedTime': 2547.9000000059605, 'positionName': 'RIGHT', 'positionCoords': [665.6, 307], 'bid': 2.53}]",134741.0,1669830354941,avocado,shreddedwheatwithmilk,2.56,2.53,-0.03000000000000025,avocado,751.5,752,751.7999999970198,True,u,135997.90000000596,1256.9000000059605,1669830356198,1257,HRV,HRV_0051,2022-11-30 17:48:10
78,"[{'imgObject': {}, 'id': 'tacos', 'src': '/static/foodstim60/tacos.jpg', 'key': 'u', 'origWidth': 411, 'origHeight': 411, 'width': 411, 'height': 411, 'widthPercent': 0.45, 'rescaleHeight': False, 'trialN': 78, 'loaded': True, 'loadedTime': 2400.7999999970198, 'positionName': 'LEFT', 'positionCoords': [203.4, 306.5], 'bid': 2}, {'imgObject': {}, 'id': 'chickenfingers', 'src': '/static/foodstim60/chickenfingers.jpg', 'key': 'i', 'origWidth': 410, 'origHeight': 410, 'width': 410, 'height': 410, 'widthPercent': 0.45, 'rescaleHeight': False, 'trialN': 78, 'loaded': True, 'loadedTime': 2435.2999999970198, 'positionName': 'RIGHT', 'positionCoords': [665.6, 307], 'bid': 5.3500000000000005}]",135998.10000000894,1669830356198,tacos,chickenfingers,2.0,5.3500000000000005,3.3500000000000005,tacos,2038.199999988079,2038,2038.5999999940395,True,u,138541.0,2542.8999999910593,1669830358741,2543,HRV,HRV_0051,2022-11-30 17:48:10
79,"[{'imgObject': {}, 'id': 'tacos', 'src': '/static/foodstim60/tacos.jpg', 'key': 'u', 'origWidth': 411, 'origHeight': 411, 'width': 411, 'height': 411, 'widthPercent': 0.45, 'rescaleHeight': False, 'trialN': 79, 'loaded': True, 'loadedTime': 2401.4000000059605, 'positionName': 'LEFT', 'positionCoords': [203.4, 306.5], 'bid': 2}, {'imgObject': {}, 'id': 'rigatoni', 'src': '/static/foodstim60/rigatoni.jpg', 'key': 'i', 'origWidth': 411, 'origHeight': 411, 'width': 411, 'height': 411, 'widthPercent': 0.45, 'rescaleHeight': False, 'trialN': 79, 'loaded': True, 'loadedTime': 2562.5, 'positionName': 'RIGHT', 'positionCoords': [665.6, 306.5], 'bid': 0.42}]",138541.20000000298,1669830358741,tacos,rigatoni,2.0,0.42,-1.58,tacos,759.2000000029802,759,759.5999999940395,True,u,139805.0,1263.7999999970198,1669830360005,1264,HRV,HRV_0051,2022-11-30 17:48:10
80,"[{'imgObject': {}, 'id': 'raspberries', 'src': '/static/foodstim60/raspberries.jpg', 'key': 'u', 'origWidth': 411, 'origHeight': 411, 'width': 411, 'height': 411, 'widthPercent': 0.45, 'rescaleHeight': False, 'trialN': 80, 'loaded': True, 'loadedTime': 2606.4000000059605, 'positionName': 'LEFT', 'positionCoords': [203.4, 306.5], 'bid': 8.2}, {'imgObject': {}, 'id': 'salmon', 'src': '/static/foodstim60/salmon.jpg', 'key': 'i', 'origWidth': 410, 'origHeight': 409, 'width': 410, 'height': 409, 'widthPercent': 0.45, 'rescaleHeight': False, 'trialN': 80, 'loaded': True, 'loadedTime': 2469.2999999970198, 'positionName': 'RIGHT', 'positionCoords': [665.6, 307.5], 'bid': 5.8500000000000005}]",139805.29999999702,1669830360005,raspberries,salmon,8.2,5.8500000000000005,-2.3499999999999988,raspberries,1023,1023,1023.4000000059605,True,u,141333.0,1527.7000000029802,1669830361533,1528,HRV,HRV_0051,2022-11-30 17:48:10
81,"[{'imgObject': {}, 'id': 'blueberries', 'src': '/static/foodstim60/blueberries.jpg', 'key': 'u', 'origWidth': 411, 'origHeight': 411, 'width': 411, 'height': 411, 'widthPercent': 0.45, 'rescaleHeight': False, 'trialN': 81, 'loaded': True, 'loadedTime': 2624.9000000059605, 'positionName': 'LEFT', 'positionCoords': [203.4, 306.5], 'bid': 9.46}, {'imgObject': {}, 'id': 'chickenfingers', 'src': '/static/foodstim60/chickenfingers.jpg', 'key': 'i', 'origWidth': 410, 'origHeight': 410, 'width': 410, 'height': 410, 'widthPercent': 0.45, 'rescaleHeight': False, 'trialN': 81, 'loaded': True, 'loadedTime': 2425.7999999970198, 'positionName': 'RIGHT', 'positionCoords': [665.6, 307], 'bid': 5.3500000000000005}]",141333.20000000298,1669830361533,blueberries,chickenfingers,9.46,5.3500000000000005,-4.11,blueberries,1935.9000000059605,1936,1936.2000000029802,True,u,143773.20000000298,2440.0,1669830363973,2440,HRV,HRV_0051,2022-11-30 17:48:10
82,"[{'imgObject': {}, 'id': 'mac & cheese', 'src': '/static/foodstim60/mac & cheese.jpg', 'key': 'u', 'origWidth': 410, 'origHeight': 410, 'width': 410, 'height': 410, 'widthPercent': 0.45, 'rescaleHeight': False, 'trialN': 82, 'loaded': True, 'loadedTime': 2601.9000000059605, 'positionName': 'LEFT', 'positionCoords': [204.4, 307], 'bid': 0.5700000000000001}, {'imgObject': {}, 'id': 'ice cream sundae 002', 'src': '/static/foodstim60/ice cream sundae 002.jpg', 'key': 'i', 'origWidth': 409, 'origHeight': 409, 'width': 409, 'height': 409, 'widthPercent': 0.45, 'rescaleHeight': False, 'trialN': 82, 'loaded': True, 'loadedTime': 2478.6000000089407, 'positionName': 'RIGHT', 'positionCoords': [665.6, 307.5], 'bid': 2.09}]",143773.40000000596,1669830363973,mac & cheese,ice cream sundae 002,0.5700000000000001,2.09,1.5199999999999998,ice cream sundae 002,814.7000000029802,815,815.0999999940395,True,i,145093.20000000298,1319.7999999970198,1669830365293,1320,HRV,HRV_0051,2022-11-30 17:48:10
83,"[{'imgObject': {}, 'id': 'Tribe humus pita', 'src': '/static/foodstim60/Tribe humus pita.jpg', 'key': 'u', 'origWidth': 411, 'origHeight': 411, 'width': 411, 'height': 411, 'widthPercent': 0.45, 'rescaleHeight': False, 'trialN': 83, 'loaded': True, 'loadedTime': 2455.2000000029802, 'positionName': 'LEFT', 'positionCoords': [203.4, 306.5], 'bid': 2.82}, {'imgObject': {}, 'id': 'veggieswithdip', 'src': '/static/foodstim60/veggieswithdip.jpg', 'key': 'i', 'origWidth': 409, 'origHeight': 409, 'width': 409, 'height': 409, 'widthPercent': 0.45, 'rescaleHeight': False, 'trialN': 83, 'loaded': True, 'loadedTime': 2555, 'positionName': 'RIGHT', 'positionCoords': [665.6, 307.5], 'bid': 5.14}]",145093.40000000596,1669830365293,Tribe humus pita,veggieswithdip,2.82,5.14,2.32,veggieswithdip,926.7000000029802,927,927.0999999940395,True,i,146525.29999999702,1431.8999999910593,1669830366725,1432,HRV,HRV_0051,2022-11-30 17:48:10
84,"[{'imgObject': {}, 'id': 'granola w milk', 'src': '/static/foodstim60/granola w milk.jpg', 'key': 'u', 'origWidth': 410, 'origHeight': 410, 'width': 410, 'height': 410, 'widthPercent': 0.45, 'rescaleHeight': False, 'trialN': 84, 'loaded': True, 'loadedTime': 2318.4000000059605, 'positionName': 'LEFT', 'positionCoords': [204.4, 307], 'bid': 1.76}, {'imgObject': {}, 'id': 'fruitsalad', 'src': '/static/foodstim60/fruitsalad.jpg', 'key': 'i', 'origWidth': 410, 'origHeight': 410, 'width': 410, 'height': 410, 'widthPercent': 0.45, 'rescaleHeight': False, 'trialN': 84, 'loaded': True, 'loadedTime': 2621, 'positionName': 'RIGHT', 'positionCoords': [665.6, 307], 'bid': 5.01}]",146525.40000000596,1669830366725,granola w milk,fruitsalad,1.76,5.01,3.25,fruitsalad,1046.7000000029802,1047,1047.0999999940395,True,i,148077.29999999702,1551.8999999910593,1669830368277,1552,HRV,HRV_0051,2022-11-30 17:48:10
85,"[{'imgObject': {}, 'id': 'cheerios', 'src': '/static/foodstim60/cheerios.jpg', 'key': 'u', 'origWidth': 409, 'origHeight': 410, 'width': 409, 'height': 410, 'widthPercent': 0.45, 'rescaleHeight': False, 'trialN': 85, 'loaded': True, 'loadedTime': 2503.7999999970198, 'positionName': 'LEFT', 'positionCoords': [205.4, 307], 'bid': 2.15}, {'imgObject': {}, 'id': 'ice cream sundae 002', 'src': '/static/foodstim60/ice cream sundae 002.jpg', 'key': 'i', 'origWidth': 409, 'origHeight': 409, 'width': 409, 'height': 409, 'widthPercent': 0.45, 'rescaleHeight': False, 'trialN': 85, 'loaded': True, 'loadedTime': 2479, 'positionName': 'RIGHT', 'positionCoords': [665.6, 307.5], 'bid': 2.09}]",148077.5,1669830368277,cheerios,ice cream sundae 002,2.15,2.09,-0.06000000000000005,cheerios,918.5,919,918.9000000059605,True,u,149501.40000000596,1423.9000000059605,1669830369701,1424,HRV,HRV_0051,2022-11-30 17:48:10
86,"[{'imgObject': {}, 'id': 'bagel and cc', 'src': '/static/foodstim60/bagel and cc.jpg', 'key': 'u', 'origWidth': 410, 'origHeight': 410, 'width': 410, 'height': 410, 'widthPercent': 0.45, 'rescaleHeight': False, 'trialN': 86, 'loaded': True, 'loadedTime': 2567.2999999970198, 'positionName': 'LEFT', 'positionCoords': [204.4, 307], 'bid': 1.18}, {'imgObject': {}, 'id': 'chicken nuggets2', 'src': '/static/foodstim60/chicken nuggets2.jpg', 'key': 'i', 'origWidth': 410, 'origHeight': 409, 'width': 410, 'height': 409, 'widthPercent': 0.45, 'rescaleHeight': False, 'trialN': 86, 'loaded': True, 'loadedTime': 2533.9000000059605, 'positionName': 'RIGHT', 'positionCoords': [665.6, 307.5], 'bid': 0.64}]",149501.60000000894,1669830369701,bagel and cc,chicken nuggets2,1.18,0.64,-0.5399999999999999,bagel and cc,1438.3999999910593,1439,1438.7999999970198,True,u,151445.40000000596,1943.7999999970198,1669830371645,1944,HRV,HRV_0051,2022-11-30 17:48:10
87,"[{'imgObject': {}, 'id': 'cheerios', 'src': '/static/foodstim60/cheerios.jpg', 'key': 'u', 'origWidth': 409, 'origHeight': 410, 'width': 409, 'height': 410, 'widthPercent': 0.45, 'rescaleHeight': False, 'trialN': 87, 'loaded': True, 'loadedTime': 2512.4000000059605, 'positionName': 'LEFT', 'positionCoords': [205.4, 307], 'bid': 2.15}, {'imgObject': {}, 'id': 'chicken nuggets2', 'src': '/static/foodstim60/chicken nuggets2.jpg', 'key': 'i', 'origWidth': 410, 'origHeight': 409, 'width': 410, 'height': 409, 'widthPercent': 0.45, 'rescaleHeight': False, 'trialN': 87, 'loaded': True, 'loadedTime': 2535.9000000059605, 'positionName': 'RIGHT', 'positionCoords': [665.6, 307.5], 'bid': 0.64}]",151445.60000000894,1669830371645,cheerios,chicken nuggets2,2.15,0.64,-1.5099999999999998,chicken nuggets2,1022.2999999970198,1023,1022.6999999880791,True,i,152973.5,1527.8999999910593,1669830373173,1528,HRV,HRV_0051,2022-11-30 17:48:10
88,"[{'imgObject': {}, 'id': 'edamame', 'src': '/static/foodstim60/edamame.jpg', 'key': 'u', 'origWidth': 409, 'origHeight': 410, 'width': 409, 'height': 410, 'widthPercent': 0.45, 'rescaleHeight': False, 'trialN': 88, 'loaded': True, 'loadedTime': 2577.7999999970198, 'positionName': 'LEFT', 'positionCoords': [205.4, 307], 'bid': 1.76}, {'imgObject': {}, 'id': 'eggsalad', 'src': '/static/foodstim60/eggsalad.jpg', 'key': 'i', 'origWidth': 410, 'origHeight': 409, 'width': 410, 'height': 409, 'widthPercent': 0.45, 'rescaleHeight': False, 'trialN': 88, 'loaded': True, 'loadedTime': 2522.7999999970198, 'positionName': 'RIGHT', 'positionCoords': [665.6, 307.5], 'bid': 2.07}]",152973.79999999702,1669830373173,edamame,eggsalad,1.76,2.07,0.30999999999999983,eggsalad,790.8000000119209,792,791.2000000029802,True,i,154269.60000000894,1295.800000011921,1669830374469,1296,HRV,HRV_0051,2022-11-30 17:48:10
89,"[{'imgObject': {}, 'id': 'corn cob', 'src': '/static/foodstim60/corn cob.jpg', 'key': 'u', 'origWidth': 411, 'origHeight': 411, 'width': 411, 'height': 411, 'widthPercent': 0.45, 'rescaleHeight': False, 'trialN': 89, 'loaded': True, 'loadedTime': 2480.7000000029802, 'positionName': 'LEFT', 'positionCoords': [203.4, 306.5], 'bid': 8.34}, {'imgObject': {}, 'id': 'blueberries', 'src': '/static/foodstim60/blueberries.jpg', 'key': 'i', 'origWidth': 411, 'origHeight': 411, 'width': 411, 'height': 411, 'widthPercent': 0.45, 'rescaleHeight': False, 'trialN': 89, 'loaded': True, 'loadedTime': 2624.7000000029802, 'positionName': 'RIGHT', 'positionCoords': [665.6, 306.5], 'bid': 9.46}]",154269.79999999702,1669830374470,corn cob,blueberries,8.34,9.46,1.120000000000001,blueberries,894.1000000089407,894,894.5,True,i,155669.60000000894,1399.800000011921,1669830375869,1399,HRV,HRV_0051,2022-11-30 17:48:10
90,"[{'imgObject': {}, 'id': 'rigatoni', 'src': '/static/foodstim60/rigatoni.jpg', 'key': 'u', 'origWidth': 411, 'origHeight': 411, 'width': 411, 'height': 411, 'widthPercent': 0.45, 'rescaleHeight': False, 'trialN': 90, 'loaded': True, 'loadedTime': 2562.4000000059605, 'positionName': 'LEFT', 'positionCoords': [203.4, 306.5], 'bid': 0.42}, {'imgObject': {}, 'id': 'mac & cheese', 'src': '/static/foodstim60/mac & cheese.jpg', 'key': 'i', 'origWidth': 410, 'origHeight': 410, 'width': 410, 'height': 410, 'widthPercent': 0.45, 'rescaleHeight': False, 'trialN': 90, 'loaded': True, 'loadedTime': 2603.9000000059605, 'positionName': 'RIGHT', 'positionCoords': [665.6, 307], 'bid': 0.5700000000000001}]",171293.29999999702,1669830391497,rigatoni,mac & cheese,0.42,0.5700000000000001,0.15000000000000008,NaN,NaN,NaN,,False,NaN,175301.29999999702,4008.0,1669830395505,4008,HRV,HRV_0051,2022-11-30 17:48:10
91,"[{'imgObject': {}, 'id': 'lox', 'src': '/static/foodstim60/lox.jpg', 'key': 'u', 'origWidth': 410, 'origHeight': 411, 'width': 410, 'height': 411, 'widthPercent': 0.45, 'rescaleHeight': False, 'trialN': 91, 'loaded': True, 'loadedTime': 2542.6000000089407, 'positionName': 'LEFT', 'positionCoords': [204.4, 306.5], 'bid': 0.26}, {'imgObject': {}, 'id': 'hotdog w must', 'src': '/static/foodstim60/hotdog w must.jpg', 'key': 'i', 'origWidth': 409, 'origHeight': 409, 'width': 409, 'height': 409, 'widthPercent': 0.45, 'rescaleHeight': False, 'trialN': 91, 'loaded': True, 'loadedTime': 2458.4000000059605, 'positionName': 'RIGHT', 'positionCoords': [665.6, 307.5], 'bid': 3.14}]",175301.5,1669830395505,lox,hotdog w must,0.26,3.14,2.88,hotdog w must,1213.7000000029802,1214,1214.0,True,i,177021.29999999702,1719.7999999970198,1669830397225,1720,HRV,HRV_0051,2022-11-30 17:48:10
92,"[{'imgObject': {}, 'id': 'sushi w_condiments', 'src': '/static/foodstim60/sushi w_condiments.jpg', 'key': 'u', 'origWidth': 410, 'origHeight': 410, 'width': 410, 'height': 410, 'widthPercent': 0.45, 'rescaleHeight': False, 'trialN': 92, 'loaded': True, 'loadedTime': 2576.4000000059605, 'positionName': 'LEFT', 'positionCoords': [204.4, 307], 'bid': 6.76}, {'imgObject': {}, 'id': 'banana', 'src': '/static/foodstim60/banana.jpg', 'key': 'i', 'origWidth': 410, 'origHeight': 410, 'width': 410, 'height': 410, 'widthPercent': 0.45, 'rescaleHeight': False, 'trialN': 92, 'loaded': True, 'loadedTime': 2586.6000000089407, 'positionName': 'RIGHT', 'positionCoords': [665.6, 307], 'bid': 7.1000000000000005}]",177021.40000000596,1669830397225,sushi w_condiments,banana,6.76,7.1000000000000005,0.34000000000000075,sushi w_condiments,949.7999999970198,951,950.2000000029802,True,u,178477.5,1456.0999999940395,1669830398681,1456,HRV,HRV_0051,2022-11-30 17:48:10
93,"[{'imgObject': {}, 'id': 'turkey sandwich', 'src': '/static/foodstim60/turkey sandwich.jpg', 'key': 'u', 'origWidth': 409, 'origHeight': 409, 'width': 409, 'height': 409, 'widthPercent': 0.45, 'rescaleHeight': False, 'trialN': 93, 'loaded': True, 'loadedTime': 2284.2999999970198, 'positionName': 'LEFT', 'positionCoords': [205.4, 307.5], 'bid': 2.29}, {'imgObject': {}, 'id': 'burger', 'src': '/static/foodstim60/burger.jpg', 'key': 'i', 'origWidth': 409, 'origHeight': 409, 'width': 409, 'height': 409, 'widthPercent': 0.45, 'rescaleHeight': False, 'trialN': 93, 'loaded': True, 'loadedTime': 2341, 'positionName': 'RIGHT', 'positionCoords': [665.6, 307.5], 'bid': 3.2}]",178477.79999999702,1669830398682,turkey sandwich,burger,2.29,3.2,0.9100000000000001,turkey sandwich,1037.4000000059605,1038,1037.800000011921,True,u,180021.5,1543.7000000029802,1669830400225,1543,HRV,HRV_0051,2022-11-30 17:48:10
94,"[{'imgObject': {}, 'id': 'pear', 'src': '/static/foodstim60/pear.jpg', 'key': 'u', 'origWidth': 411, 'origHeight': 410, 'width': 411, 'height': 410, 'widthPercent': 0.45, 'rescaleHeight': False, 'trialN': 94, 'loaded': True, 'loadedTime': 2489.7000000029802, 'positionName': 'LEFT', 'positionCoords': [203.4, 307], 'bid': 2.64}, {'imgObject': {}, 'id': 'fried eggs', 'src': '/static/foodstim60/fried eggs.jpg', 'key': 'i', 'origWidth': 410, 'origHeight': 410, 'width': 410, 'height': 410, 'widthPercent': 0.45, 'rescaleHeight': False, 'trialN': 94, 'loaded': True, 'loadedTime': 2626.5, 'positionName': 'RIGHT', 'positionCoords': [665.6, 307], 'bid': 3.73}]",180021.90000000596,1669830400226,pear,fried eggs,2.64,3.73,1.0899999999999999,fried eggs,1085.7999999970198,1086,1086.2000000029802,True,i,181613.60000000894,1591.7000000029802,1669830401817,1591,HRV,HRV_0051,2022-11-30 17:48:10
95,"[{'imgObject': {}, 'id': 'baked potato', 'src': '/static/foodstim60/baked potato.jpg', 'key': 'u', 'origWidth': 409, 'origHeight': 410, 'width': 409, 'height': 410, 'widthPercent': 0.45, 'rescaleHeight': False, 'trialN': 95, 'loaded': True, 'loadedTime': 2353.2000000029802, 'positionName': 'LEFT', 'positionCoords': [205.4, 307], 'bid': 3.7}, {'imgObject': {}, 'id': 'salad w chicken', 'src': '/static/foodstim60/salad w chicken.jpg', 'key': 'i', 'origWidth': 411, 'origHeight': 411, 'width': 411, 'height': 411, 'widthPercent': 0.45, 'rescaleHeight': False, 'trialN': 95, 'loaded': True, 'loadedTime': 2425.4000000059605, 'positionName': 'RIGHT', 'positionCoords': [665.6, 306.5], 'bid': 4.5600000000000005}]",181613.79999999702,1669830401818,baked potato,salad w chicken,3.7,4.5600000000000005,0.8600000000000003,baked potato,717.3000000119209,717,717.8000000119209,True,u,182837.60000000894,1223.800000011921,1669830403041,1223,HRV,HRV_0051,2022-11-30 17:48:10
96,"[{'imgObject': {}, 'id': 'Grapes', 'src': '/static/foodstim60/Grapes.jpg', 'key': 'u', 'origWidth': 411, 'origHeight': 411, 'width': 411, 'height': 411, 'widthPercent': 0.45, 'rescaleHeight': False, 'trialN': 96, 'loaded': True, 'loadedTime': 2598.6000000089407, 'positionName': 'LEFT', 'positionCoords': [203.4, 306.5], 'bid': 4.75}, {'imgObject': {}, 'id': 'fried eggs', 'src': '/static/foodstim60/fried eggs.jpg', 'key': 'i', 'origWidth': 410, 'origHeight': 410, 'width': 410, 'height': 410, 'widthPercent': 0.45, 'rescaleHeight': False, 'trialN': 96, 'loaded': True, 'loadedTime': 2626.6000000089407, 'positionName': 'RIGHT', 'positionCoords': [665.6, 307], 'bid': 3.73}]",182837.79999999702,1669830403042,Grapes,fried eggs,4.75,3.73,-1.02,fried eggs,1141.1000000089407,1141,1141.5,True,i,184485.70000000298,1647.9000000059605,1669830404690,1648,HRV,HRV_0051,2022-11-30 17:48:10
97,"[{'imgObject': {}, 'id': 'fruitsalad', 'src': '/static/foodstim60/fruitsalad.jpg', 'key': 'u', 'origWidth': 410, 'origHeight': 410, 'width': 410, 'height': 410, 'widthPercent': 0.45, 'rescaleHeight': False, 'trialN': 97, 'loaded': True, 'loadedTime': 2622.5, 'positionName': 'LEFT', 'positionCoords': [204.4, 307], 'bid': 5.01}, {'imgObject': {}, 'id': 'cocktailshrimp', 'src': '/static/foodstim60/cocktailshrimp.jpg', 'key': 'i', 'origWidth': 410, 'origHeight': 410, 'width': 410, 'height': 410, 'widthPercent': 0.45, 'rescaleHeight': False, 'trialN': 97, 'loaded': True, 'loadedTime': 2618.5, 'positionName': 'RIGHT', 'positionCoords': [665.6, 307], 'bid': 3.89}]",184485.90000000596,1669830404690,fruitsalad,cocktailshrimp,5.01,3.89,-1.1199999999999997,fruitsalad,669.2000000029802,669,669.5,True,u,185661.79999999702,1175.8999999910593,1669830405866,1176,HRV,HRV_0051,2022-11-30 17:48:10
98,"[{'imgObject': {}, 'id': 'eggsalad', 'src': '/static/foodstim60/eggsalad.jpg', 'key': 'u', 'origWidth': 410, 'origHeight': 409, 'width': 410, 'height': 409, 'widthPercent': 0.45, 'rescaleHeight': False, 'trialN': 98, 'loaded': True, 'loadedTime': 2524.6000000089407, 'positionName': 'LEFT', 'positionCoords': [204.4, 307.5], 'bid': 2.07}, {'imgObject': {}, 'id': 'seaweed', 'src': '/static/foodstim60/seaweed.jpg', 'key': 'i', 'origWidth': 410, 'origHeight': 410, 'width': 410, 'height': 410, 'widthPercent': 0.45, 'rescaleHeight': False, 'trialN': 98, 'loaded': True, 'loadedTime': 2571.6000000089407, 'positionName': 'RIGHT', 'positionCoords': [665.6, 307], 'bid': 2.1}]",185661.90000000596,1669830405866,eggsalad,seaweed,2.07,2.1,0.03000000000000025,eggsalad,773.0999999940395,773,773.5,True,u,186941.79999999702,1279.8999999910593,1669830407146,1280,HRV,HRV_0051,2022-11-30 17:48:10
99,"[{'imgObject': {}, 'id': 'Grapes', 'src': '/static/foodstim60/Grapes.jpg', 'key': 'u', 'origWidth': 411, 'origHeight': 411, 'width': 411, 'height': 411, 'widthPercent': 0.45, 'rescaleHeight': False, 'trialN': 99, 'loaded': True, 'loadedTime': 2597.7000000029802, 'positionName': 'LEFT', 'positionCoords': [203.4, 306.5], 'bid': 4.75}, {'imgObject': {}, 'id': 'edamame', 'src': '/static/foodstim60/edamame.jpg', 'key': 'i', 'origWidth': 409, 'origHeight': 410, 'width': 409, 'height': 410, 'widthPercent': 0.45, 'rescaleHeight': False, 'trialN': 99, 'loaded': True, 'loadedTime': 2578.2000000029802, 'positionName': 'RIGHT', 'positionCoords': [665.6, 307], 'bid': 1.76}]",186942.0,1669830407146,Grapes,edamame,4.75,1.76,-2.99,Grapes,1213,1213,1213.2999999970198,True,u,188660.90000000596,1718.9000000059605,1669830408865,1719,HRV,HRV_0051,2022-11-30 17:48:10
100,"[{'imgObject': {}, 'id': 'omelette', 'src': '/static/foodstim60/omelette.jpg', 'key': 'u', 'origWidth': 410, 'origHeight': 409, 'width': 410, 'height': 409, 'widthPercent': 0.45, 'rescaleHeight': False, 'trialN': 100, 'loaded': True, 'loadedTime': 2413.6000000089407, 'positionName': 'LEFT', 'positionCoords': [204.4, 307.5], 'bid': 1.35}, {'imgObject': {}, 'id': 'burrito', 'src': '/static/foodstim60/burrito.jpg', 'key': 'i', 'origWidth': 410, 'origHeight': 410, 'width': 410, 'height': 410, 'widthPercent': 0.45, 'rescaleHeight': False, 'trialN': 100, 'loaded': True, 'loadedTime': 2318.7000000029802, 'positionName': 'RIGHT', 'positionCoords': [665.6, 307], 'bid': 0.48}]",188661.10000000894,1669830408865,omelette,burrito,1.35,0.48,-0.8700000000000001,omelette,1125.7999999970198,1126,1126.199999988079,True,u,190293.0,1631.8999999910593,1669830410497,1632,HRV,HRV_0051,2022-11-30 17:48:10
101,"[{'imgObject': {}, 'id': 'hashbrowns', 'src': '/static/foodstim60/hashbrowns.jpg', 'key': 'u', 'origWidth': 411, 'origHeight': 410, 'width': 411, 'height': 410, 'widthPercent': 0.45, 'rescaleHeight': False, 'trialN': 101, 'loaded': True, 'loadedTime': 2587.1000000089407, 'positionName': 'LEFT', 'positionCoords': [203.4, 307], 'bid': 1.4}, {'imgObject': {}, 'id': 'popsicles', 'src': '/static/foodstim60/popsicles.jpg', 'key': 'i', 'origWidth': 410, 'origHeight': 410, 'width': 410, 'height': 410, 'widthPercent': 0.45, 'rescaleHeight': False, 'trialN': 101, 'loaded': True, 'loadedTime': 2411, 'positionName': 'RIGHT', 'positionCoords': [665.6, 307], 'bid': 1.67}]",190293.10000000894,1669830410497,hashbrowns,popsicles,1.4,1.67,0.27,popsicles,1518.699999988079,1519,1519.0,True,i,192317.0,2023.8999999910593,1669830412521,2024,HRV,HRV_0051,2022-11-30 17:48:10
102,"[{'imgObject': {}, 'id': 'tacos', 'src': '/static/foodstim60/tacos.jpg', 'key': 'u', 'origWidth': 411, 'origHeight': 411, 'width': 411, 'height': 411, 'widthPercent': 0.45, 'rescaleHeight': False, 'trialN': 102, 'loaded': True, 'loadedTime': 2393.5, 'positionName': 'LEFT', 'positionCoords': [203.4, 306.5], 'bid': 2}, {'imgObject': {}, 'id': 'turkeysandwich', 'src': '/static/foodstim60/turkeysandwich.jpg', 'key': 'i', 'origWidth': 409, 'origHeight': 409, 'width': 409, 'height': 409, 'widthPercent': 0.45, 'rescaleHeight': False, 'trialN': 102, 'loaded': True, 'loadedTime': 2522.1000000089407, 'positionName': 'RIGHT', 'positionCoords': [665.6, 307.5], 'bid': 1.82}]",192317.20000000298,1669830412521,tacos,turkeysandwich,2.0,1.82,-0.17999999999999994,tacos,1181.7000000029802,1182,1182.0,True,u,194005.10000000894,1687.9000000059605,1669830414209,1688,HRV,HRV_0051,2022-11-30 17:48:10
103,"[{'imgObject': {}, 'id': 'strawberries', 'src': '/static/foodstim60/strawberries.jpg', 'key': 'u', 'origWidth': 410, 'origHeight': 410, 'width': 410, 'height': 410, 'widthPercent': 0.45, 'rescaleHeight': False, 'trialN': 103, 'loaded': True, 'loadedTime': 2570.1000000089407, 'positionName': 'LEFT', 'positionCoords': [204.4, 307], 'bid': 3.14}, {'imgObject': {}, 'id': 'rigatoni', 'src': '/static/foodstim60/rigatoni.jpg', 'key': 'i', 'origWidth': 411, 'origHeight': 411, 'width': 411, 'height': 411, 'widthPercent': 0.45, 'rescaleHeight': False, 'trialN': 103, 'loaded': True, 'loadedTime': 2562.2999999970198, 'positionName': 'RIGHT', 'positionCoords': [665.6, 306.5], 'bid': 0.42}]",194005.20000000298,1669830414209,strawberries,rigatoni,3.14,0.42,-2.72,strawberries,981.5,982,982.0,True,u,195493.10000000894,1487.9000000059605,1669830415697,1488,HRV,HRV_0051,2022-11-30 17:48:10
104,"[{'imgObject': {}, 'id': 'strawberries', 'src': '/static/foodstim60/strawberries.jpg', 'key': 'u', 'origWidth': 410, 'origHeight': 410, 'width': 410, 'height': 410, 'widthPercent': 0.45, 'rescaleHeight': False, 'trialN': 104, 'loaded': True, 'loadedTime': 2569.7999999970198, 'positionName': 'LEFT', 'positionCoords': [204.4, 307], 'bid': 3.14}, {'imgObject': {}, 'id': 'pear', 'src': '/static/foodstim60/pear.jpg', 'key': 'i', 'origWidth': 411, 'origHeight': 410, 'width': 411, 'height': 410, 'widthPercent': 0.45, 'rescaleHeight': False, 'trialN': 104, 'loaded': True, 'loadedTime': 2491.1000000089407, 'positionName': 'RIGHT', 'positionCoords': [665.6, 307], 'bid': 2.64}]",195493.40000000596,1669830415697,strawberries,pear,3.14,2.64,-0.5,strawberries,1085.3999999910593,1086,1085.7000000029802,True,u,197085.20000000298,1591.7999999970198,1669830417289,1592,HRV,HRV_0051,2022-11-30 17:48:10
105,"[{'imgObject': {}, 'id': 'cheerios', 'src': '/static/foodstim60/cheerios.jpg', 'key': 'u', 'origWidth': 409, 'origHeight': 410, 'width': 409, 'height': 410, 'widthPercent': 0.45, 'rescaleHeight': False, 'trialN': 105, 'loaded': True, 'loadedTime': 2511.7999999970198, 'positionName': 'LEFT', 'positionCoords': [205.4, 307], 'bid': 2.15}, {'imgObject': {}, 'id': 'apple slices', 'src': '/static/foodstim60/apple slices.jpg', 'key': 'i', 'origWidth': 409, 'origHeight': 410, 'width': 409, 'height': 410, 'widthPercent': 0.45, 'rescaleHeight': False, 'trialN': 105, 'loaded': True, 'loadedTime': 2607.9000000059605, 'positionName': 'RIGHT', 'positionCoords': [665.6, 307], 'bid': 6.75}]",197085.40000000596,1669830417289,cheerios,apple slices,2.15,6.75,4.6,cheerios,1269.2999999970198,1270,1269.7000000029802,True,u,198861.29999999702,1775.8999999910593,1669830419065,1776,HRV,HRV_0051,2022-11-30 17:48:10
106,"[{'imgObject': {}, 'id': 'bagel plain', 'src': '/static/foodstim60/bagel plain.jpg', 'key': 'u', 'origWidth': 410, 'origHeight': 410, 'width': 410, 'height': 410, 'widthPercent': 0.45, 'rescaleHeight': False, 'trialN': 106, 'loaded': True, 'loadedTime': 2383.7999999970198, 'positionName': 'LEFT', 'positionCoords': [204.4, 307], 'bid': 0.15}, {'imgObject': {}, 'id': 'lox', 'src': '/static/foodstim60/lox.jpg', 'key': 'i', 'origWidth': 410, 'origHeight': 411, 'width': 410, 'height': 411, 'widthPercent': 0.45, 'rescaleHeight': False, 'trialN': 106, 'loaded': True, 'loadedTime': 2542.4000000059605, 'positionName': 'RIGHT', 'positionCoords': [665.6, 306.5], 'bid': 0.26}]",198861.5,1669830419065,bagel plain,lox,0.15,0.26,0.11000000000000001,bagel plain,1069.2000000029802,1070,1069.6000000089407,True,u,200437.29999999702,1575.7999999970198,1669830420641,1576,HRV,HRV_0051,2022-11-30 17:48:10
107,"[{'imgObject': {}, 'id': 'sushi w_condiments', 'src': '/static/foodstim60/sushi w_condiments.jpg', 'key': 'u', 'origWidth': 410, 'origHeight': 410, 'width': 410, 'height': 410, 'widthPercent': 0.45, 'rescaleHeight': False, 'trialN': 107, 'loaded': True, 'loadedTime': 2571.9000000059605, 'positionName': 'LEFT', 'positionCoords': [204.4, 307], 'bid': 6.76}, {'imgObject': {}, 'id': 'kiwi', 'src': '/static/foodstim60/kiwi.jpg', 'key': 'i', 'origWidth': 410, 'origHeight': 410, 'width': 410, 'height': 410, 'widthPercent': 0.45, 'rescaleHeight': False, 'trialN': 107, 'loaded': True, 'loadedTime': 2445.7999999970198, 'positionName': 'RIGHT', 'positionCoords': [665.6, 307], 'bid': 5.32}]",200437.5,1669830420641,sushi w_condiments,kiwi,6.76,5.32,-1.4399999999999995,sushi w_condiments,1141.1000000089407,1142,1141.5,True,u,202085.40000000596,1647.9000000059605,1669830422289,1648,HRV,HRV_0051,2022-11-30 17:48:10
108,"[{'imgObject': {}, 'id': 'sweetpotato', 'src': '/static/foodstim60/sweetpotato.jpg', 'key': 'u', 'origWidth': 410, 'origHeight': 410, 'width': 410, 'height': 410, 'widthPercent': 0.45, 'rescaleHeight': False, 'trialN': 108, 'loaded': True, 'loadedTime': 2560.2999999970198, 'positionName': 'LEFT', 'positionCoords': [204.4, 307], 'bid': 1.78}, {'imgObject': {}, 'id': 'turkeysandwich', 'src': '/static/foodstim60/turkeysandwich.jpg', 'key': 'i', 'origWidth': 409, 'origHeight': 409, 'width': 409, 'height': 409, 'widthPercent': 0.45, 'rescaleHeight': False, 'trialN': 108, 'loaded': True, 'loadedTime': 2522.5, 'positionName': 'RIGHT', 'positionCoords': [665.6, 307.5], 'bid': 1.82}]",202085.60000000894,1669830422289,sweetpotato,turkeysandwich,1.78,1.82,0.040000000000000036,turkeysandwich,1549.8999999910593,1551,1550.2999999970198,True,i,204141.5,2055.8999999910593,1669830424345,2056,HRV,HRV_0051,2022-11-30 17:48:10
