trialN,stimuli,question,trialStartTime,trialStartTime_UNIX,stimulus1,rt,receivedResponse,rating,trialEndTime,trialDuration,stimulus1Loaded,exp,subjectId,date
0,"[{'imgObject': {}, 'id': 'blueberries', 'src': '/static/foodstim60/blueberries.jpg', 'key': 'NaN', 'origWidth': 411, 'origHeight': 411, 'width': 411, 'height': 411, 'widthPercent': 0.8, 'rescaleHeight': True, 'trialN': 0, 'loaded': True, 'loadedTime': 2287.2999999970198, 'positionName': 'CENTER', 'positionCoords': [434.5, 306.5]}]",Rate how much you want to eat this food from 0 (least) to 10 (most).,2787.0999999940395,1669829948968,blueberries,2155.5999999940395,True,9.53,4942.699999988079,2155.5999999940395,True,HRV,HRV_0051,2022-11-30 17:40:23
1,"[{'imgObject': {}, 'id': 'blackbeanswithrice', 'src': '/static/foodstim60/blackbeanswithrice.jpg', 'key': 'NaN', 'origWidth': 410, 'origHeight': 410, 'width': 410, 'height': 410, 'widthPercent': 0.8, 'rescaleHeight': True, 'trialN': 1, 'loaded': True, 'loadedTime': 2289.2999999970198, 'positionName': 'CENTER', 'positionCoords': [435, 307]}]",Rate how much you want to eat this food from 0 (least) to 10 (most).,4947.199999988079,1669829951128,blackbeanswithrice,1245.4000000059605,True,9.53,6192.5999999940395,1245.4000000059605,True,HRV,HRV_0051,2022-11-30 17:40:23
2,"[{'imgObject': {}, 'id': 'avocado', 'src': '/static/foodstim60/avocado.jpg', 'key': 'NaN', 'origWidth': 409, 'origHeight': 409, 'width': 409, 'height': 409, 'widthPercent': 0.8, 'rescaleHeight': True, 'trialN': 2, 'loaded': True, 'loadedTime': 2309.5999999940395, 'positionName': 'CENTER', 'positionCoords': [435.5, 307.5]}]",Rate how much you want to eat this food from 0 (least) to 10 (most).,6194.0,1669829952379,avocado,2384.5,True,0.28,8578.5,2384.5,True,HRV,HRV_0051,2022-11-30 17:40:23
3,"[{'imgObject': {}, 'id': 'burrito', 'src': '/static/foodstim60/burrito.jpg', 'key': 'NaN', 'origWidth': 410, 'origHeight': 410, 'width': 410, 'height': 410, 'widthPercent': 0.8, 'rescaleHeight': True, 'trialN': 3, 'loaded': True, 'loadedTime': 2307.5, 'positionName': 'CENTER', 'positionCoords': [435, 307]}]",Rate how much you want to eat this food from 0 (least) to 10 (most).,8579.89999999106,1669829954765,burrito,2342.6000000089407,True,0.23,10922.5,2342.6000000089407,True,HRV,HRV_0051,2022-11-30 17:40:23
4,"[{'imgObject': {}, 'id': 'kiwi', 'src': '/static/foodstim60/kiwi.jpg', 'key': 'NaN', 'origWidth': 410, 'origHeight': 410, 'width': 410, 'height': 410, 'widthPercent': 0.8, 'rescaleHeight': True, 'trialN': 4, 'loaded': True, 'loadedTime': 2292.699999988079, 'positionName': 'CENTER', 'positionCoords': [435, 307]}]",Rate how much you want to eat this food from 0 (least) to 10 (most).,10923.89999999106,1669829957109,kiwi,3702.6000000089407,True,8.790000000000001,14626.5,3702.6000000089407,True,HRV,HRV_0051,2022-11-30 17:40:23
5,"[{'imgObject': {}, 'id': 'hashbrowns', 'src': '/static/foodstim60/hashbrowns.jpg', 'key': 'NaN', 'origWidth': 411, 'origHeight': 410, 'width': 411, 'height': 410, 'widthPercent': 0.8, 'rescaleHeight': True, 'trialN': 5, 'loaded': True, 'loadedTime': 2295.199999988079, 'positionName': 'CENTER', 'positionCoords': [434.5, 307]}]",Rate how much you want to eat this food from 0 (least) to 10 (most).,14627.79999999702,1669829960813,hashbrowns,2382.5999999940395,True,0.32,17010.39999999106,2382.5999999940395,True,HRV,HRV_0051,2022-11-30 17:40:23
6,"[{'imgObject': {}, 'id': 'rigatoni', 'src': '/static/foodstim60/rigatoni.jpg', 'key': 'NaN', 'origWidth': 411, 'origHeight': 411, 'width': 411, 'height': 411, 'widthPercent': 0.8, 'rescaleHeight': True, 'trialN': 6, 'loaded': True, 'loadedTime': 2372.199999988079, 'positionName': 'CENTER', 'positionCoords': [434.5, 306.5]}]",Rate how much you want to eat this food from 0 (least) to 10 (most).,17012.0,1669829963197,rigatoni,1932.3999999910593,True,0.04,18944.39999999106,1932.3999999910593,True,HRV,HRV_0051,2022-11-30 17:40:23
7,"[{'imgObject': {}, 'id': 'yogurt no spoon', 'src': '/static/foodstim60/yogurt no spoon.jpg', 'key': 'NaN', 'origWidth': 411, 'origHeight': 410, 'width': 411, 'height': 410, 'widthPercent': 0.8, 'rescaleHeight': True, 'trialN': 7, 'loaded': True, 'loadedTime': 2332.5, 'positionName': 'CENTER', 'positionCoords': [434.5, 307]}]",Rate how much you want to eat this food from 0 (least) to 10 (most).,18945.69999998808,1669829965131,yogurt no spoon,1024.6000000089407,True,0.09,19970.29999999702,1024.6000000089407,True,HRV,HRV_0051,2022-11-30 17:40:23
8,"[{'imgObject': {}, 'id': 'froot loops w milk', 'src': '/static/foodstim60/froot loops w milk.jpg', 'key': 'NaN', 'origWidth': 410, 'origHeight': 410, 'width': 410, 'height': 410, 'widthPercent': 0.8, 'rescaleHeight': True, 'trialN': 8, 'loaded': True, 'loadedTime': 2335.3999999910593, 'positionName': 'CENTER', 'positionCoords': [435, 307]}]",Rate how much you want to eat this food from 0 (least) to 10 (most).,19971.79999999702,1669829966157,froot loops w milk,1440.5,True,0.15,21412.29999999702,1440.5,True,HRV,HRV_0051,2022-11-30 17:40:23
9,"[{'imgObject': {}, 'id': 'baked potato', 'src': '/static/foodstim60/baked potato.jpg', 'key': 'NaN', 'origWidth': 409, 'origHeight': 410, 'width': 409, 'height': 410, 'widthPercent': 0.8, 'rescaleHeight': True, 'trialN': 9, 'loaded': True, 'loadedTime': 2338.8999999910593, 'positionName': 'CENTER', 'positionCoords': [435.5, 307]}]",Rate how much you want to eat this food from 0 (least) to 10 (most).,21413.69999998808,1669829967598,baked potato,1384.5,True,0.34,22798.19999998808,1384.5,True,HRV,HRV_0051,2022-11-30 17:40:23
10,"[{'imgObject': {}, 'id': 'cherry tomato', 'src': '/static/foodstim60/cherry tomato.jpg', 'key': 'NaN', 'origWidth': 410, 'origHeight': 410, 'width': 410, 'height': 410, 'widthPercent': 0.8, 'rescaleHeight': True, 'trialN': 10, 'loaded': True, 'loadedTime': 2354.8999999910593, 'positionName': 'CENTER', 'positionCoords': [435, 307]}]",Rate how much you want to eat this food from 0 (least) to 10 (most).,22799.69999998808,1669829968984,cherry tomato,2322.5,True,0.37,25122.19999998808,2322.5,True,HRV,HRV_0051,2022-11-30 17:40:23
11,"[{'imgObject': {}, 'id': 'shreddedwheatwithmilk', 'src': '/static/foodstim60/shreddedwheatwithmilk.jpg', 'key': 'NaN', 'origWidth': 410, 'origHeight': 410, 'width': 410, 'height': 410, 'widthPercent': 0.8, 'rescaleHeight': True, 'trialN': 11, 'loaded': True, 'loadedTime': 2352.5999999940395, 'positionName': 'CENTER', 'positionCoords': [435, 307]}]",Rate how much you want to eat this food from 0 (least) to 10 (most).,25123.5,1669829971308,shreddedwheatwithmilk,1264.5999999940395,True,0.35000000000000003,26388.09999999404,1264.5999999940395,True,HRV,HRV_0051,2022-11-30 17:40:23
12,"[{'imgObject': {}, 'id': 'mango', 'src': '/static/foodstim60/mango.jpg', 'key': 'NaN', 'origWidth': 411, 'origHeight': 411, 'width': 411, 'height': 411, 'widthPercent': 0.8, 'rescaleHeight': True, 'trialN': 12, 'loaded': True, 'loadedTime': 2387.199999988079, 'positionName': 'CENTER', 'positionCoords': [434.5, 306.5]}]",Rate how much you want to eat this food from 0 (least) to 10 (most).,26389.69999998808,1669829972574,mango,5160.300000011921,True,4.89,31550.0,5160.300000011921,True,HRV,HRV_0051,2022-11-30 17:40:23
13,"[{'imgObject': {}, 'id': 'cheerios', 'src': '/static/foodstim60/cheerios.jpg', 'key': 'NaN', 'origWidth': 409, 'origHeight': 410, 'width': 409, 'height': 410, 'widthPercent': 0.8, 'rescaleHeight': True, 'trialN': 13, 'loaded': True, 'loadedTime': 2388.2999999970198, 'positionName': 'CENTER', 'positionCoords': [435.5, 307]}]",Rate how much you want to eat this food from 0 (least) to 10 (most).,31551.39999999106,1669829977736,cheerios,2312.5,True,2.57,33863.89999999106,2312.5,True,HRV,HRV_0051,2022-11-30 17:40:23
14,"[{'imgObject': {}, 'id': 'mac & cheese', 'src': '/static/foodstim60/mac & cheese.jpg', 'key': 'NaN', 'origWidth': 410, 'origHeight': 410, 'width': 410, 'height': 410, 'widthPercent': 0.8, 'rescaleHeight': True, 'trialN': 14, 'loaded': True, 'loadedTime': 2414.5999999940395, 'positionName': 'CENTER', 'positionCoords': [435, 307]}]",Rate how much you want to eat this food from 0 (least) to 10 (most).,33865.5,1669829980050,mac & cheese,1698.3999999910593,True,0.43,35563.89999999106,1698.3999999910593,True,HRV,HRV_0051,2022-11-30 17:40:23
15,"[{'imgObject': {}, 'id': 'bagel plain', 'src': '/static/foodstim60/bagel plain.jpg', 'key': 'NaN', 'origWidth': 410, 'origHeight': 410, 'width': 410, 'height': 410, 'widthPercent': 0.8, 'rescaleHeight': True, 'trialN': 15, 'loaded': True, 'loadedTime': 2403.2999999970198, 'positionName': 'CENTER', 'positionCoords': [435, 307]}]",Rate how much you want to eat this food from 0 (least) to 10 (most).,35565.5,1669829981750,bagel plain,870.3999999910593,True,0.43,36435.89999999106,870.3999999910593,True,HRV,HRV_0051,2022-11-30 17:40:23
16,"[{'imgObject': {}, 'id': 'corn cob', 'src': '/static/foodstim60/corn cob.jpg', 'key': 'NaN', 'origWidth': 411, 'origHeight': 411, 'width': 411, 'height': 411, 'widthPercent': 0.8, 'rescaleHeight': True, 'trialN': 16, 'loaded': True, 'loadedTime': 2450.0999999940395, 'positionName': 'CENTER', 'positionCoords': [434.5, 306.5]}]",Rate how much you want to eat this food from 0 (least) to 10 (most).,36437.39999999106,1669829982622,corn cob,2066.4000000059605,True,9.01,38503.79999999702,2066.4000000059605,True,HRV,HRV_0051,2022-11-30 17:40:23
17,"[{'imgObject': {}, 'id': 'steak', 'src': '/static/foodstim60/steak.jpg', 'key': 'NaN', 'origWidth': 410, 'origHeight': 410, 'width': 410, 'height': 410, 'widthPercent': 0.8, 'rescaleHeight': True, 'trialN': 17, 'loaded': True, 'loadedTime': 2417.699999988079, 'positionName': 'CENTER', 'positionCoords': [435, 307]}]",Rate how much you want to eat this food from 0 (least) to 10 (most).,38505.59999999404,1669829984690,steak,2152.2000000029802,True,5.01,40657.79999999702,2152.2000000029802,True,HRV,HRV_0051,2022-11-30 17:40:23
18,"[{'imgObject': {}, 'id': 'ice cream sundae 002', 'src': '/static/foodstim60/ice cream sundae 002.jpg', 'key': 'NaN', 'origWidth': 409, 'origHeight': 409, 'width': 409, 'height': 409, 'widthPercent': 0.8, 'rescaleHeight': True, 'trialN': 18, 'loaded': True, 'loadedTime': 2433, 'positionName': 'CENTER', 'positionCoords': [435.5, 307.5]}]",Rate how much you want to eat this food from 0 (least) to 10 (most).,40659.29999999702,1669829986844,ice cream sundae 002,1752.3999999910593,True,0.87,42411.69999998808,1752.3999999910593,True,HRV,HRV_0051,2022-11-30 17:40:23
19,"[{'imgObject': {}, 'id': 'chickenfingers', 'src': '/static/foodstim60/chickenfingers.jpg', 'key': 'NaN', 'origWidth': 410, 'origHeight': 410, 'width': 410, 'height': 410, 'widthPercent': 0.8, 'rescaleHeight': True, 'trialN': 19, 'loaded': True, 'loadedTime': 2437.5, 'positionName': 'CENTER', 'positionCoords': [435, 307]}]",Rate how much you want to eat this food from 0 (least) to 10 (most).,42413.39999999106,1669829988598,chickenfingers,4246.20000000298,True,3.75,46659.59999999404,4246.20000000298,True,HRV,HRV_0051,2022-11-30 17:40:23
20,"[{'imgObject': {}, 'id': 'orange slices', 'src': '/static/foodstim60/orange slices.jpg', 'key': 'NaN', 'origWidth': 409, 'origHeight': 410, 'width': 409, 'height': 410, 'widthPercent': 0.8, 'rescaleHeight': True, 'trialN': 20, 'loaded': True, 'loadedTime': 2447.3999999910593, 'positionName': 'CENTER', 'positionCoords': [435.5, 307]}]",Rate how much you want to eat this food from 0 (least) to 10 (most).,46661.19999998808,1669829992846,orange slices,1998.300000011921,True,1.12,48659.5,1998.300000011921,True,HRV,HRV_0051,2022-11-30 17:40:23
21,"[{'imgObject': {}, 'id': 'tacos', 'src': '/static/foodstim60/tacos.jpg', 'key': 'NaN', 'origWidth': 411, 'origHeight': 411, 'width': 411, 'height': 411, 'widthPercent': 0.8, 'rescaleHeight': True, 'trialN': 21, 'loaded': True, 'loadedTime': 2456.0999999940395, 'positionName': 'CENTER', 'positionCoords': [434.5, 306.5]}]",Rate how much you want to eat this food from 0 (least) to 10 (most).,48661.29999999702,1669829994846,tacos,1724.2000000029802,True,1.12,50385.5,1724.2000000029802,True,HRV,HRV_0051,2022-11-30 17:40:23
22,"[{'imgObject': {}, 'id': 'popsicles', 'src': '/static/foodstim60/popsicles.jpg', 'key': 'NaN', 'origWidth': 410, 'origHeight': 410, 'width': 410, 'height': 410, 'widthPercent': 0.8, 'rescaleHeight': True, 'trialN': 22, 'loaded': True, 'loadedTime': 2471.699999988079, 'positionName': 'CENTER', 'positionCoords': [435, 307]}]",Rate how much you want to eat this food from 0 (least) to 10 (most).,50387.29999999702,1669829996572,popsicles,1872.2000000029802,True,1.01,52259.5,1872.2000000029802,True,HRV,HRV_0051,2022-11-30 17:40:23
23,"[{'imgObject': {}, 'id': 'raspberries', 'src': '/static/foodstim60/raspberries.jpg', 'key': 'NaN', 'origWidth': 411, 'origHeight': 411, 'width': 411, 'height': 411, 'widthPercent': 0.8, 'rescaleHeight': True, 'trialN': 23, 'loaded': True, 'loadedTime': 2483.5999999940395, 'positionName': 'CENTER', 'positionCoords': [434.5, 306.5]}]",Rate how much you want to eat this food from 0 (least) to 10 (most).,52261.19999998808,1669829998446,raspberries,1634.2000000029802,True,7.71,53895.39999999106,1634.2000000029802,True,HRV,HRV_0051,2022-11-30 17:40:23
24,"[{'imgObject': {}, 'id': 'banana', 'src': '/static/foodstim60/banana.jpg', 'key': 'NaN', 'origWidth': 410, 'origHeight': 410, 'width': 410, 'height': 410, 'widthPercent': 0.8, 'rescaleHeight': True, 'trialN': 24, 'loaded': True, 'loadedTime': 2493.0999999940395, 'positionName': 'CENTER', 'positionCoords': [435, 307]}]",Rate how much you want to eat this food from 0 (least) to 10 (most).,53897.19999998808,1669830000082,banana,1190.2000000029802,True,7.09,55087.39999999106,1190.2000000029802,True,HRV,HRV_0051,2022-11-30 17:40:23
25,"[{'imgObject': {}, 'id': 'eggsalad', 'src': '/static/foodstim60/eggsalad.jpg', 'key': 'NaN', 'origWidth': 410, 'origHeight': 409, 'width': 410, 'height': 409, 'widthPercent': 0.8, 'rescaleHeight': True, 'trialN': 25, 'loaded': True, 'loadedTime': 2496.699999988079, 'positionName': 'CENTER', 'positionCoords': [435, 307.5]}]",Rate how much you want to eat this food from 0 (least) to 10 (most).,55089.19999998808,1669830001274,eggsalad,1352.1000000089407,True,2.07,56441.29999999702,1352.1000000089407,True,HRV,HRV_0051,2022-11-30 17:40:23
26,"[{'imgObject': {}, 'id': 'turkeysandwich', 'src': '/static/foodstim60/turkeysandwich.jpg', 'key': 'NaN', 'origWidth': 409, 'origHeight': 409, 'width': 409, 'height': 409, 'widthPercent': 0.8, 'rescaleHeight': True, 'trialN': 26, 'loaded': True, 'loadedTime': 2502.5999999940395, 'positionName': 'CENTER', 'positionCoords': [435.5, 307.5]}]",Rate how much you want to eat this food from 0 (least) to 10 (most).,56443.19999998808,1669830002628,turkeysandwich,2242.1000000089407,True,3.7,58685.29999999702,2242.1000000089407,True,HRV,HRV_0051,2022-11-30 17:40:23
27,"[{'imgObject': {}, 'id': 'pear', 'src': '/static/foodstim60/pear.jpg', 'key': 'NaN', 'origWidth': 411, 'origHeight': 410, 'width': 411, 'height': 410, 'widthPercent': 0.8, 'rescaleHeight': True, 'trialN': 27, 'loaded': True, 'loadedTime': 2500.3999999910593, 'positionName': 'CENTER', 'positionCoords': [434.5, 307]}]",Rate how much you want to eat this food from 0 (least) to 10 (most).,58686.59999999404,1669830004871,pear,1720.7000000029802,True,3.43,60407.29999999702,1720.7000000029802,True,HRV,HRV_0051,2022-11-30 17:40:23
28,"[{'imgObject': {}, 'id': 'Grapes', 'src': '/static/foodstim60/Grapes.jpg', 'key': 'NaN', 'origWidth': 411, 'origHeight': 411, 'width': 411, 'height': 411, 'widthPercent': 0.8, 'rescaleHeight': True, 'trialN': 28, 'loaded': True, 'loadedTime': 2520.2999999970198, 'positionName': 'CENTER', 'positionCoords': [434.5, 306.5]}]",Rate how much you want to eat this food from 0 (least) to 10 (most).,60408.5,1669830006593,Grapes,1656.699999988079,True,3.2,62065.19999998808,1656.699999988079,True,HRV,HRV_0051,2022-11-30 17:40:23
29,"[{'imgObject': {}, 'id': 'cocktailshrimp', 'src': '/static/foodstim60/cocktailshrimp.jpg', 'key': 'NaN', 'origWidth': 410, 'origHeight': 410, 'width': 410, 'height': 410, 'widthPercent': 0.8, 'rescaleHeight': True, 'trialN': 29, 'loaded': True, 'loadedTime': 2546.199999988079, 'positionName': 'CENTER', 'positionCoords': [435, 307]}]",Rate how much you want to eat this food from 0 (least) to 10 (most).,62066.39999999106,1669830008251,cocktailshrimp,12596.5,True,3.43,74662.89999999106,12596.5,True,HRV,HRV_0051,2022-11-30 17:40:23
30,"[{'imgObject': {}, 'id': 'olives', 'src': '/static/foodstim60/olives.jpg', 'key': 'NaN', 'origWidth': 410, 'origHeight': 410, 'width': 410, 'height': 410, 'widthPercent': 0.8, 'rescaleHeight': True, 'trialN': 30, 'loaded': True, 'loadedTime': 2550.0999999940395, 'positionName': 'CENTER', 'positionCoords': [435, 307]}]",Rate how much you want to eat this food from 0 (least) to 10 (most).,74664.09999999404,1669830020853,olives,1512.7000000029802,True,2.75,76176.79999999702,1512.7000000029802,True,HRV,HRV_0051,2022-11-30 17:40:23
31,"[{'imgObject': {}, 'id': 'hotdog w must', 'src': '/static/foodstim60/hotdog w must.jpg', 'key': 'NaN', 'origWidth': 409, 'origHeight': 409, 'width': 409, 'height': 409, 'widthPercent': 0.8, 'rescaleHeight': True, 'trialN': 31, 'loaded': True, 'loadedTime': 2551.5, 'positionName': 'CENTER', 'positionCoords': [435.5, 307.5]}]",Rate how much you want to eat this food from 0 (least) to 10 (most).,76178.09999999404,1669830022367,hotdog w must,2314.7000000029802,True,2.82,78492.79999999702,2314.7000000029802,True,HRV,HRV_0051,2022-11-30 17:40:23
32,"[{'imgObject': {}, 'id': 'granola w milk', 'src': '/static/foodstim60/granola w milk.jpg', 'key': 'NaN', 'origWidth': 410, 'origHeight': 410, 'width': 410, 'height': 410, 'widthPercent': 0.8, 'rescaleHeight': True, 'trialN': 32, 'loaded': True, 'loadedTime': 2553.2999999970198, 'positionName': 'CENTER', 'positionCoords': [435, 307]}]",Rate how much you want to eat this food from 0 (least) to 10 (most).,78493.89999999106,1669830024683,granola w milk,1400.7000000029802,True,2.82,79894.59999999404,1400.7000000029802,True,HRV,HRV_0051,2022-11-30 17:40:23
33,"[{'imgObject': {}, 'id': 'burger', 'src': '/static/foodstim60/burger.jpg', 'key': 'NaN', 'origWidth': 409, 'origHeight': 409, 'width': 409, 'height': 409, 'widthPercent': 0.8, 'rescaleHeight': True, 'trialN': 33, 'loaded': True, 'loadedTime': 2554.7999999970198, 'positionName': 'CENTER', 'positionCoords': [435.5, 307.5]}]",Rate how much you want to eat this food from 0 (least) to 10 (most).,79895.5,1669830026084,burger,1737.199999988079,True,2.85,81632.69999998808,1737.199999988079,True,HRV,HRV_0051,2022-11-30 17:40:23
34,"[{'imgObject': {}, 'id': 'fried eggs', 'src': '/static/foodstim60/fried eggs.jpg', 'key': 'NaN', 'origWidth': 410, 'origHeight': 410, 'width': 410, 'height': 410, 'widthPercent': 0.8, 'rescaleHeight': True, 'trialN': 34, 'loaded': True, 'loadedTime': 2568.5999999940395, 'positionName': 'CENTER', 'positionCoords': [435, 307]}]",Rate how much you want to eat this food from 0 (least) to 10 (most).,81633.89999999106,1669830027822,fried eggs,1496.7999999970198,True,2.9,83130.69999998808,1496.7999999970198,True,HRV,HRV_0051,2022-11-30 17:40:23
35,"[{'imgObject': {}, 'id': 'cantaloupe', 'src': '/static/foodstim60/cantaloupe.jpg', 'key': 'NaN', 'origWidth': 409, 'origHeight': 409, 'width': 409, 'height': 409, 'widthPercent': 0.8, 'rescaleHeight': True, 'trialN': 35, 'loaded': True, 'loadedTime': 2594.699999988079, 'positionName': 'CENTER', 'positionCoords': [435.5, 307.5]}]",Rate how much you want to eat this food from 0 (least) to 10 (most).,83131.89999999106,1669830029320,cantaloupe,1440.7000000029802,True,2.9,84572.59999999404,1440.7000000029802,True,HRV,HRV_0051,2022-11-30 17:40:23
36,"[{'imgObject': {}, 'id': 'raisin bran w milk', 'src': '/static/foodstim60/raisin bran w milk.jpg', 'key': 'NaN', 'origWidth': 411, 'origHeight': 411, 'width': 411, 'height': 411, 'widthPercent': 0.8, 'rescaleHeight': True, 'trialN': 36, 'loaded': True, 'loadedTime': 2605.8999999910593, 'positionName': 'CENTER', 'positionCoords': [434.5, 306.5]}]",Rate how much you want to eat this food from 0 (least) to 10 (most).,84573.89999999106,1669830030763,raisin bran w milk,1282.6000000089407,True,2.14,85856.5,1282.6000000089407,True,HRV,HRV_0051,2022-11-30 17:40:23
37,"[{'imgObject': {}, 'id': 'turkey sandwich', 'src': '/static/foodstim60/turkey sandwich.jpg', 'key': 'NaN', 'origWidth': 409, 'origHeight': 409, 'width': 409, 'height': 409, 'widthPercent': 0.8, 'rescaleHeight': True, 'trialN': 37, 'loaded': True, 'loadedTime': 2597.199999988079, 'positionName': 'CENTER', 'positionCoords': [435.5, 307.5]}]",Rate how much you want to eat this food from 0 (least) to 10 (most).,85857.89999999106,1669830032046,turkey sandwich,1774.7000000029802,True,1.82,87632.59999999404,1774.7000000029802,True,HRV,HRV_0051,2022-11-30 17:40:23
38,"[{'imgObject': {}, 'id': 'edamame', 'src': '/static/foodstim60/edamame.jpg', 'key': 'NaN', 'origWidth': 409, 'origHeight': 410, 'width': 409, 'height': 410, 'widthPercent': 0.8, 'rescaleHeight': True, 'trialN': 38, 'loaded': True, 'loadedTime': 2603.699999988079, 'positionName': 'CENTER', 'positionCoords': [435.5, 307]}]",Rate how much you want to eat this food from 0 (least) to 10 (most).,87633.79999999702,1669830033822,edamame,2226.5,True,1.6,89860.29999999702,2226.5,True,HRV,HRV_0051,2022-11-30 17:40:23
39,"[{'imgObject': {}, 'id': 'seaweed', 'src': '/static/foodstim60/seaweed.jpg', 'key': 'NaN', 'origWidth': 410, 'origHeight': 410, 'width': 410, 'height': 410, 'widthPercent': 0.8, 'rescaleHeight': True, 'trialN': 39, 'loaded': True, 'loadedTime': 2633.5, 'positionName': 'CENTER', 'positionCoords': [435, 307]}]",Rate how much you want to eat this food from 0 (least) to 10 (most).,89861.19999998808,1669830036050,seaweed,1857.2000000029802,True,1.42,91718.39999999106,1857.2000000029802,True,HRV,HRV_0051,2022-11-30 17:40:23
40,"[{'imgObject': {}, 'id': 'fruitsalad', 'src': '/static/foodstim60/fruitsalad.jpg', 'key': 'NaN', 'origWidth': 410, 'origHeight': 410, 'width': 410, 'height': 410, 'widthPercent': 0.8, 'rescaleHeight': True, 'trialN': 40, 'loaded': True, 'loadedTime': 2614.3999999910593, 'positionName': 'CENTER', 'positionCoords': [435, 307]}]",Rate how much you want to eat this food from 0 (least) to 10 (most).,91719.69999998808,1669830037908,fruitsalad,1714.7000000029802,True,5.32,93434.39999999106,1714.7000000029802,True,HRV,HRV_0051,2022-11-30 17:40:23
41,"[{'imgObject': {}, 'id': 'salad w chicken', 'src': '/static/foodstim60/salad w chicken.jpg', 'key': 'NaN', 'origWidth': 411, 'origHeight': 411, 'width': 411, 'height': 411, 'widthPercent': 0.8, 'rescaleHeight': True, 'trialN': 41, 'loaded': True, 'loadedTime': 2639.5, 'positionName': 'CENTER', 'positionCoords': [434.5, 306.5]}]",Rate how much you want to eat this food from 0 (least) to 10 (most).,93435.69999998808,1669830039624,salad w chicken,1616.6000000089407,True,3.79,95052.29999999702,1616.6000000089407,True,HRV,HRV_0051,2022-11-30 17:40:23
42,"[{'imgObject': {}, 'id': 'salmon', 'src': '/static/foodstim60/salmon.jpg', 'key': 'NaN', 'origWidth': 410, 'origHeight': 409, 'width': 410, 'height': 409, 'widthPercent': 0.8, 'rescaleHeight': True, 'trialN': 42, 'loaded': True, 'loadedTime': 2647.3999999910593, 'positionName': 'CENTER', 'positionCoords': [435, 307.5]}]",Rate how much you want to eat this food from 0 (least) to 10 (most).,95053.59999999404,1669830041242,salmon,2072.5999999940395,True,5.39,97126.19999998808,2072.5999999940395,True,HRV,HRV_0051,2022-11-30 17:40:23
43,"[{'imgObject': {}, 'id': 'strawberries', 'src': '/static/foodstim60/strawberries.jpg', 'key': 'NaN', 'origWidth': 410, 'origHeight': 410, 'width': 410, 'height': 410, 'widthPercent': 0.8, 'rescaleHeight': True, 'trialN': 43, 'loaded': True, 'loadedTime': 2653.199999988079, 'positionName': 'CENTER', 'positionCoords': [435, 307]}]",Rate how much you want to eat this food from 0 (least) to 10 (most).,97127.0,1669830043316,strawberries,1089.2999999970198,True,4.29,98216.29999999702,1089.2999999970198,True,HRV,HRV_0051,2022-11-30 17:40:23
44,"[{'imgObject': {}, 'id': 'eggs', 'src': '/static/foodstim60/eggs.jpg', 'key': 'NaN', 'origWidth': 409, 'origHeight': 409, 'width': 409, 'height': 409, 'widthPercent': 0.8, 'rescaleHeight': True, 'trialN': 44, 'loaded': True, 'loadedTime': 2661.5999999940395, 'positionName': 'CENTER', 'positionCoords': [435.5, 307.5]}]",Rate how much you want to eat this food from 0 (least) to 10 (most).,98217.69999998808,1669830044406,eggs,2242.4000000059605,True,3.0700000000000003,100460.09999999404,2242.4000000059605,True,HRV,HRV_0051,2022-11-30 17:40:23
45,"[{'imgObject': {}, 'id': 'sweetpotato', 'src': '/static/foodstim60/sweetpotato.jpg', 'key': 'NaN', 'origWidth': 410, 'origHeight': 410, 'width': 410, 'height': 410, 'widthPercent': 0.8, 'rescaleHeight': True, 'trialN': 45, 'loaded': True, 'loadedTime': 2665.199999988079, 'positionName': 'CENTER', 'positionCoords': [435, 307]}]",Rate how much you want to eat this food from 0 (least) to 10 (most).,100461.5,1669830046650,sweetpotato,1616.5999999940395,True,3.09,102078.09999999404,1616.5999999940395,True,HRV,HRV_0051,2022-11-30 17:40:23
46,"[{'imgObject': {}, 'id': 'omelette', 'src': '/static/foodstim60/omelette.jpg', 'key': 'NaN', 'origWidth': 410, 'origHeight': 409, 'width': 410, 'height': 409, 'widthPercent': 0.8, 'rescaleHeight': True, 'trialN': 46, 'loaded': True, 'loadedTime': 2681.199999988079, 'positionName': 'CENTER', 'positionCoords': [435, 307.5]}]",Rate how much you want to eat this food from 0 (least) to 10 (most).,102079.59999999404,1669830048268,omelette,1384.5,True,3.09,103464.09999999404,1384.5,True,HRV,HRV_0051,2022-11-30 17:40:23
47,"[{'imgObject': {}, 'id': 'mashed potato', 'src': '/static/foodstim60/mashed potato.jpg', 'key': 'NaN', 'origWidth': 409, 'origHeight': 409, 'width': 409, 'height': 409, 'widthPercent': 0.8, 'rescaleHeight': True, 'trialN': 47, 'loaded': True, 'loadedTime': 2688.5999999940395, 'positionName': 'CENTER', 'positionCoords': [435.5, 307.5]}]",Rate how much you want to eat this food from 0 (least) to 10 (most).,103465.5,1669830049654,mashed potato,1496.5999999940395,True,3.09,104962.09999999404,1496.5999999940395,True,HRV,HRV_0051,2022-11-30 17:40:23
48,"[{'imgObject': {}, 'id': 'sushi w_condiments', 'src': '/static/foodstim60/sushi w_condiments.jpg', 'key': 'NaN', 'origWidth': 410, 'origHeight': 410, 'width': 410, 'height': 410, 'widthPercent': 0.8, 'rescaleHeight': True, 'trialN': 48, 'loaded': True, 'loadedTime': 2692.5, 'positionName': 'CENTER', 'positionCoords': [435, 307]}]",Rate how much you want to eat this food from 0 (least) to 10 (most).,104963.59999999404,1669830051152,sushi w_condiments,2374.4000000059605,True,6.26,107338.0,2374.4000000059605,True,HRV,HRV_0051,2022-11-30 17:40:23
49,"[{'imgObject': {}, 'id': 'Tribe humus pita', 'src': '/static/foodstim60/Tribe humus pita.jpg', 'key': 'NaN', 'origWidth': 411, 'origHeight': 411, 'width': 411, 'height': 411, 'widthPercent': 0.8, 'rescaleHeight': True, 'trialN': 49, 'loaded': True, 'loadedTime': 2712, 'positionName': 'CENTER', 'positionCoords': [434.5, 306.5]}]",Rate how much you want to eat this food from 0 (least) to 10 (most).,107339.5,1669830053528,Tribe humus pita,1166.3999999910593,True,3.84,108505.89999999106,1166.3999999910593,True,HRV,HRV_0051,2022-11-30 17:40:23
50,"[{'imgObject': {}, 'id': 'grilled chicken strips', 'src': '/static/foodstim60/grilled chicken strips.jpg', 'key': 'NaN', 'origWidth': 410, 'origHeight': 411, 'width': 410, 'height': 411, 'widthPercent': 0.8, 'rescaleHeight': True, 'trialN': 50, 'loaded': True, 'loadedTime': 2709.5999999940395, 'positionName': 'CENTER', 'positionCoords': [435, 306.5]}]",Rate how much you want to eat this food from 0 (least) to 10 (most).,108507.39999999106,1669830054696,grilled chicken strips,2014.5,True,5.6000000000000005,110521.89999999106,2014.5,True,HRV,HRV_0051,2022-11-30 17:40:23
51,"[{'imgObject': {}, 'id': 'bagel and cc', 'src': '/static/foodstim60/bagel and cc.jpg', 'key': 'NaN', 'origWidth': 410, 'origHeight': 410, 'width': 410, 'height': 410, 'widthPercent': 0.8, 'rescaleHeight': True, 'trialN': 51, 'loaded': True, 'loadedTime': 2714.2999999970198, 'positionName': 'CENTER', 'positionCoords': [435, 307]}]",Rate how much you want to eat this food from 0 (least) to 10 (most).,110523.39999999106,1669830056712,bagel and cc,1296.5,True,3.42,111819.89999999106,1296.5,True,HRV,HRV_0051,2022-11-30 17:40:23
52,"[{'imgObject': {}, 'id': 'roastedpotatoes', 'src': '/static/foodstim60/roastedpotatoes.jpg', 'key': 'NaN', 'origWidth': 409, 'origHeight': 410, 'width': 409, 'height': 410, 'widthPercent': 0.8, 'rescaleHeight': True, 'trialN': 52, 'loaded': True, 'loadedTime': 2725, 'positionName': 'CENTER', 'positionCoords': [435.5, 307]}]",Rate how much you want to eat this food from 0 (least) to 10 (most).,111821.39999999106,1669830058010,roastedpotatoes,1824.4000000059605,True,3.2,113645.79999999702,1824.4000000059605,True,HRV,HRV_0051,2022-11-30 17:40:23
53,"[{'imgObject': {}, 'id': 'cherries', 'src': '/static/foodstim60/cherries.jpg', 'key': 'NaN', 'origWidth': 410, 'origHeight': 411, 'width': 410, 'height': 411, 'widthPercent': 0.8, 'rescaleHeight': True, 'trialN': 53, 'loaded': True, 'loadedTime': 2742.2999999970198, 'positionName': 'CENTER', 'positionCoords': [435, 306.5]}]",Rate how much you want to eat this food from 0 (least) to 10 (most).,113647.39999999106,1669830059836,cherries,1392.4000000059605,True,6.01,115039.79999999702,1392.4000000059605,True,HRV,HRV_0051,2022-11-30 17:40:23
54,"[{'imgObject': {}, 'id': 'rigatoni and sauce', 'src': '/static/foodstim60/rigatoni and sauce.jpg', 'key': 'NaN', 'origWidth': 410, 'origHeight': 411, 'width': 410, 'height': 411, 'widthPercent': 0.8, 'rescaleHeight': True, 'trialN': 54, 'loaded': True, 'loadedTime': 2738.5999999940395, 'positionName': 'CENTER', 'positionCoords': [435, 306.5]}]",Rate how much you want to eat this food from 0 (least) to 10 (most).,115041.39999999106,1669830061230,rigatoni and sauce,1624.2999999970198,True,0.17,116665.69999998808,1624.2999999970198,True,HRV,HRV_0051,2022-11-30 17:40:23
55,"[{'imgObject': {}, 'id': 'luckycharms', 'src': '/static/foodstim60/luckycharms.jpg', 'key': 'NaN', 'origWidth': 410, 'origHeight': 409, 'width': 410, 'height': 409, 'widthPercent': 0.8, 'rescaleHeight': True, 'trialN': 55, 'loaded': True, 'loadedTime': 2761.0999999940395, 'positionName': 'CENTER', 'positionCoords': [435, 307.5]}]",Rate how much you want to eat this food from 0 (least) to 10 (most).,116667.39999999106,1669830062856,luckycharms,1000.2999999970198,True,0.17,117667.69999998808,1000.2999999970198,True,HRV,HRV_0051,2022-11-30 17:40:23
56,"[{'imgObject': {}, 'id': 'chicken nuggets2', 'src': '/static/foodstim60/chicken nuggets2.jpg', 'key': 'NaN', 'origWidth': 410, 'origHeight': 409, 'width': 410, 'height': 409, 'widthPercent': 0.8, 'rescaleHeight': True, 'trialN': 56, 'loaded': True, 'loadedTime': 2763.2999999970198, 'positionName': 'CENTER', 'positionCoords': [435, 307.5]}]",Rate how much you want to eat this food from 0 (least) to 10 (most).,117669.39999999106,1669830063858,chicken nuggets2,2016.2999999970198,True,0.26,119685.69999998808,2016.2999999970198,True,HRV,HRV_0051,2022-11-30 17:40:23
57,"[{'imgObject': {}, 'id': 'veggieswithdip', 'src': '/static/foodstim60/veggieswithdip.jpg', 'key': 'NaN', 'origWidth': 409, 'origHeight': 409, 'width': 409, 'height': 409, 'widthPercent': 0.8, 'rescaleHeight': True, 'trialN': 57, 'loaded': True, 'loadedTime': 2766.699999988079, 'positionName': 'CENTER', 'positionCoords': [435.5, 307.5]}]",Rate how much you want to eat this food from 0 (least) to 10 (most).,119687.29999999702,1669830065876,veggieswithdip,2202.2999999970198,True,4.98,121889.59999999404,2202.2999999970198,True,HRV,HRV_0051,2022-11-30 17:40:23
58,"[{'imgObject': {}, 'id': 'apple slices', 'src': '/static/foodstim60/apple slices.jpg', 'key': 'NaN', 'origWidth': 409, 'origHeight': 410, 'width': 409, 'height': 410, 'widthPercent': 0.8, 'rescaleHeight': True, 'trialN': 58, 'loaded': True, 'loadedTime': 2770, 'positionName': 'CENTER', 'positionCoords': [435.5, 307]}]",Rate how much you want to eat this food from 0 (least) to 10 (most).,121891.39999999106,1669830068080,apple slices,1568.2000000029802,True,5.04,123459.59999999404,1568.2000000029802,True,HRV,HRV_0051,2022-11-30 17:40:23
59,"[{'imgObject': {}, 'id': 'lox', 'src': '/static/foodstim60/lox.jpg', 'key': 'NaN', 'origWidth': 410, 'origHeight': 411, 'width': 410, 'height': 411, 'widthPercent': 0.8, 'rescaleHeight': True, 'trialN': 59, 'loaded': True, 'loadedTime': 2786.3999999910593, 'positionName': 'CENTER', 'positionCoords': [435, 306.5]}]",Rate how much you want to eat this food from 0 (least) to 10 (most).,123461.19999998808,1669830069650,lox,2064.300000011921,True,2.82,125525.5,2064.300000011921,True,HRV,HRV_0051,2022-11-30 17:40:23
