success,trial_type,trial_index,time_elapsed,internal_node_id,Block,TrialNumber,TrialTime,trialTimeDiff,FPS_avg,FPS_med,FPS_mode,TrialDur,winResizeTime,rt,block,button_pressed,MotCoh,MotDir,ColCoh,Color,ChoiceKey,Choice,Accuracy,RT,nFrames,FPS,PPD,missTrial,missTrialMsg,onsetDelay,fullScreenExitTime,canvCenter,TrialType,Score,BlockTrial,stimulus,button_labels,exp,subjectId,date
True,fullscreen,0,2121,0.0-0.0,0.0,1.0,,,,,,,,,,,,,,,,,,,,,,,,,,,,,,,,HRV,HRV_0051,2022-11-30 17:59:36
,wl-check-fps,1,7125,0.0-1.0,0.0,2.0,"[2498.3, 2504.6, 2532.2, 2547.9, 2564.2, 2581.1, 2597.7, 2614.2, 2631.1, 2647.8, 2664.6, 2681.1, 2697.8, 2714.5, 2731, 2747.7, 2764.4, 2781.2, 2797.8, 2814.4, 2831.6, 2847.8, 2864.4, 2881, 2897.9, 2914.5, 2931, 2947.7, 2964.3, 2981, 2997.7, 3014.3, 3031, 3047.4, 3064.1, 3080.8, 3097.6, 3114.2, 3131, 3147.5, 3164.2, 3180.9, 3197.6, 3214.2, 3230.9, 3247.4, 3264, 3280.7, 3297.4, 3314, 3330.7, 3347.4, 3364, 3380.7, 3397.4, 3414.1, 3430.7, 3447.3, 3464, 3480.7, 3497.3, 3514, 3530.6, 3547.4, 3564, 3580.7, 3597.3, 3614.1, 3630.6, 3647.3, 3664, 3680.6, 3697.3, 3713.9, 3730.6, 3747.3, 3764, 3780.5, 3797.3, 3814, 3830.6, 3847.2, 3863.9, 3880.5, 3897.2, 3913.9, 3930.5, 3947.2, 3963.8, 3980.5, 3997.2, 4013.8, 4030.6, 4047.2, 4063.9, 4080.5, 4097.1, 4113.7, 4130.4, 4147.2, 4163.8, 4180.5, 4197, 4213.7, 4230.4, 4247.1, 4263.7, 4280.4, 4297, 4313.8, 4330.4, 4347.1, 4363.8, 4380.4, 4397.1, 4413.7, 4430.4, 4447.1, 4463.7, 4480.4, 4497, 4513.6, 4530.3, 4547, 4563.5, 4580.3, 4597, 4613.6, 4630.3, 4646.9, 4663.7, 4680.3, 4696.9, 4713.6, 4730.3, 4746.9, 4763.5, 4780.8, 4796.9, 4813.6, 4830.2, 4847, 4863.5, 4880.2, 4897.1, 4913.7, 4930.1, 4946.8, 4963.5, 4980.1, 4996.9, 5013.5, 5030.2, 5046.8, 5063.4, 5080.1, 5096.8, 5113.5, 5130, 5146.7, 5163.3, 5180.1, 5196.8, 5213.4, 5230, 5246.7, 5263.4, 5280.1, 5296.7, 5313.3, 5330, 5346.7, 5363.3, 5380, 5396.7, 5413.3, 5430, 5446.6, 5463.3, 5480, 5496.6, 5513.3, 5530, 5546.7, 5563.2, 5579.9, 5596.6, 5613.3, 5629.9, 5646.6, 5663.2, 5679.9, 5696.6, 5713.2, 5730, 5746.6, 5763.2, 5779.8, 5796.5, 5813.2, 5829.8, 5846.6, 5863.2, 5879.8, 5896.6, 5913.1, 5929.8, 5946.5, 5963.1, 5979.8, 5996.5, 6013.2, 6029.8, 6046.5, 6063.1, 6079.8, 6096.4, 6113.1, 6129.7, 6146.5, 6162.9, 6179.6, 6196.4, 6213, 6229.7, 6246.3, 6263.1, 6279.7, 6296.3, 6313, 6329.6, 6346.3, 6362.9, 6379.7, 6396.3, 6413, 6429.6, 6446.3, 6462.9, 6479.6, 6496.2, 6512.9, 6529.6, 6546.3, 6562.8, 6579.5, 6596.1, 6612.9, 6629.5, 6646.2, 6662.9, 6679.6, 6696.2, 6712.9, 6730, 6746.2, 6762.8, 6779.5, 6796.1, 6812.8, 6829.5, 6846.2, 6862.8, 6879.5, 6896.3, 6912.9, 6929.5, 6946.2, 6962.7, 6979.4, 6996.1, 7012.8, 7029.4, 7046.1, 7062.7, 7079.4, 7096.1, 7112.7, 7129.4, 7146.1, 7162.7, 7179.3, 7196.1, 7212.7, 7229.3, 7246, 7262.7, 7279.3, 7295.9, 7312.7, 7329.3, 7345.9, 7362.6, 7379.2, 7396, 7412.7, 7429.3, 7446, 7462.5, 7479.3]","[2, 6.3, 27.6, 15.7, 16.3, 16.9, 16.6, 16.5, 16.9, 16.7, 16.8, 16.5, 16.7, 16.7, 16.5, 16.7, 16.7, 16.8, 16.6, 16.6, 17.2, 16.2, 16.6, 16.6, 16.9, 16.6, 16.5, 16.7, 16.6, 16.7, 16.7, 16.6, 16.7, 16.4, 16.7, 16.7, 16.8, 16.6, 16.8, 16.5, 16.7, 16.7, 16.7, 16.6, 16.7, 16.5, 16.6, 16.7, 16.7, 16.6, 16.7, 16.7, 16.6, 16.7, 16.7, 16.7, 16.6, 16.6, 16.7, 16.7, 16.6, 16.7, 16.6, 16.8, 16.6, 16.7, 16.6, 16.8, 16.5, 16.7, 16.7, 16.6, 16.7, 16.6, 16.7, 16.7, 16.7, 16.5, 16.8, 16.7, 16.6, 16.6, 16.7, 16.6, 16.7, 16.7, 16.6, 16.7, 16.6, 16.7, 16.7, 16.6, 16.8, 16.6, 16.7, 16.6, 16.6, 16.6, 16.7, 16.8, 16.6, 16.7, 16.5, 16.7, 16.7, 16.7, 16.6, 16.7, 16.6, 16.8, 16.6, 16.7, 16.7, 16.6, 16.7, 16.6, 16.7, 16.7, 16.6, 16.7, 16.6, 16.6, 16.7, 16.7, 16.5, 16.8, 16.7, 16.6, 16.7, 16.6, 16.8, 16.6, 16.6, 16.7, 16.7, 16.6, 16.6, 17.3, 16.1, 16.7, 16.6, 16.8, 16.5, 16.7, 16.9, 16.6, 16.4, 16.7, 16.7, 16.6, 16.8, 16.6, 16.7, 16.6, 16.6, 16.7, 16.7, 16.7, 16.5, 16.7, 16.6, 16.8, 16.7, 16.6, 16.6, 16.7, 16.7, 16.7, 16.6, 16.6, 16.7, 16.7, 16.6, 16.7, 16.7, 16.6, 16.7, 16.6, 16.7, 16.7, 16.6, 16.7, 16.7, 16.7, 16.5, 16.7, 16.7, 16.7, 16.6, 16.7, 16.6, 16.7, 16.7, 16.6, 16.8, 16.6, 16.6, 16.6, 16.7, 16.7, 16.6, 16.8, 16.6, 16.6, 16.8, 16.5, 16.7, 16.7, 16.6, 16.7, 16.7, 16.7, 16.6, 16.7, 16.6, 16.7, 16.6, 16.7, 16.6, 16.8, 16.4, 16.7, 16.8, 16.6, 16.7, 16.6, 16.8, 16.6, 16.6, 16.7, 16.6, 16.7, 16.6, 16.8, 16.6, 16.7, 16.6, 16.7, 16.6, 16.7, 16.6, 16.7, 16.7, 16.7, 16.5, 16.7, 16.6, 16.8, 16.6, 16.7, 16.7, 16.7, 16.6, 16.7, 17.1, 16.2, 16.6, 16.7, 16.6, 16.7, 16.7, 16.7, 16.6, 16.7, 16.8, 16.6, 16.6, 16.7, 16.5, 16.7, 16.7, 16.7, 16.6, 16.7, 16.6, 16.7, 16.7, 16.6, 16.7, 16.7, 16.6, 16.6, 16.8, 16.6, 16.6, 16.7, 16.7, 16.6, 16.6, 16.8, 16.6, 16.6, 16.7, 16.6, 16.8, 16.7, 16.6, 16.7, 16.5, 16.8]",60.0,60.0,60.0,4999.7,[],,,,,,,,,,,,,,,,,,,,,,,,,HRV,HRV_0051,2022-11-30 17:59:36
,wl-html-keyboard-response,2,22444,0.0-2.0-0.0,0.0,3.0,,,,,,,,13307.0,0.0,0,,,,,,,,,,,,,,,,,,,,,,HRV,HRV_0051,2022-11-30 17:59:36
,wl-rdm,3,30368,0.0-3.0-0.0,0.0,4.0,,,,,,,[],,,,0.0,0.0,87.9,0.0,u,0.0,True,2323.7999999970198,140.0,60.0,40.0,False,,3000.0,[],"[640, 512]",ColorTask_Demo,,,,,HRV,HRV_0051,2022-11-30 17:59:36
,wl-rdm,4,36716,0.0-3.0-1.0,0.0,5.0,,,,,,,[],,,,0.0,0.0,87.9,1.0,i,1.0,True,2257.0,136.0,60.0,40.0,False,,2000.0,[],"[640, 512]",ColorTask_Demo,,,,,HRV,HRV_0051,2022-11-30 17:59:36
,wl-html-keyboard-response,5,44172,0.0-3.0-2.0,0.0,6.0,,,,,,,,5447.79999999702,0.0,1,,,,,,,,,,,,,,,,,,,,,,HRV,HRV_0051,2022-11-30 17:59:36
,wl-html-keyboard-response,6,53772,0.0-4.0-0.0,0.0,7.0,,,,,,,,7590.9000000059605,0.0,0,,,,,,,,,,,,,,,,,,,,,,HRV,HRV_0051,2022-11-30 17:59:36
,wl-html-keyboard-response,7,68188,0.0-5.0-0.0,0.0,8.0,,,,,,,,12408.199999988079,0.0,0,,,,,,,,,,,,,,,,,,,,,,HRV,HRV_0051,2022-11-30 17:59:36
,wl-rdm,8,70232,0.0-6.0-0.0,0.0,9.0,,,,,,,[],,,,,,56.4,1.0,i,1.0,True,736.9000000059605,45.0,60.0,40.0,False,,217.26035984149703,[],"[640, 512]",ColorTask,1.0,1.0,,,HRV,HRV_0051,2022-11-30 17:59:36
,wl-rdm,9,72315,0.0-6.1-0.1,0.0,10.0,,,,,,,[],,,,,,50.0,0.0,i,1.0,False,607.9000000059605,37.0,60.0,40.0,False,,393.5032893721201,[],"[640, 512]",ColorTask,0.0,2.0,,,HRV,HRV_0051,2022-11-30 17:59:36
,wl-rdm,10,74598,0.0-6.2-0.2,0.0,11.0,,,,,,,[],,,,,,50.0,1.0,u,0.0,False,1003.5,61.0,60.0,40.0,False,,203.61404938750144,[],"[640, 512]",ColorTask,-1.0,3.0,,,HRV,HRV_0051,2022-11-30 17:59:36
,wl-rdm,11,76548,0.0-6.3-0.3,0.0,12.0,,,,,,,[],,,,,,62.5,1.0,i,1.0,True,555.8000000119209,34.0,60.0,40.0,False,,333.8035444183723,[],"[640, 512]",ColorTask,0.0,4.0,,,HRV,HRV_0051,2022-11-30 17:59:36
,wl-rdm,12,78481,0.0-6.4-0.4,0.0,13.0,,,,,,,[],,,,,,53.2,1.0,i,1.0,True,560.3000000119209,34.0,60.0,40.0,False,,293.7230747554893,[],"[640, 512]",ColorTask,1.0,5.0,,,HRV,HRV_0051,2022-11-30 17:59:36
,wl-rdm,13,80514,0.0-6.5-0.5,0.0,14.0,,,,,,,[],,,,,,50.0,0.0,i,1.0,False,574.5999999940395,35.0,60.0,40.0,False,,377.08631077653604,[],"[640, 512]",ColorTask,0.0,6.0,,,HRV,HRV_0051,2022-11-30 17:59:36
,wl-rdm,14,82451,0.0-6.6-0.6,0.0,15.0,,,,,,,[],,,,,,73.6,0.0,u,0.0,True,576.2000000029802,35.0,60.0,40.0,False,,283.3841637184865,[],"[640, 512]",ColorTask,1.0,7.0,,,HRV,HRV_0051,2022-11-30 17:59:36
,wl-rdm,15,84451,0.0-6.7-0.7,0.0,16.0,,,,,,,[],,,,,,50.0,0.0,u,0.0,True,693.9000000059605,42.0,60.0,40.0,False,,231.2806289804618,[],"[640, 512]",ColorTask,2.0,8.0,,,HRV,HRV_0051,2022-11-30 17:59:36
,wl-rdm,16,86368,0.0-6.8-0.8,0.0,17.0,,,,,,,[],,,,,,87.9,1.0,u,0.0,False,597.0999999940395,36.0,60.0,40.0,False,,248.84038252664038,[],"[640, 512]",ColorTask,1.0,9.0,,,HRV,HRV_0051,2022-11-30 17:59:36
,wl-rdm,17,88568,0.0-6.9-0.9,0.0,18.0,,,,,,,[],,,,,,62.5,0.0,u,0.0,True,806.2999999970198,49.0,60.0,40.0,False,,311.6440284876529,[],"[640, 512]",ColorTask,2.0,10.0,,,HRV,HRV_0051,2022-11-30 17:59:36
,wl-rdm,18,90617,0.0-6.10-0.10,0.0,19.0,,,,,,,[],,,,,,62.5,1.0,i,1.0,True,745.0999999940395,45.0,60.0,40.0,False,,233.01420728823754,[],"[640, 512]",ColorTask,3.0,11.0,,,HRV,HRV_0051,2022-11-30 17:59:36
,wl-rdm,19,92801,0.0-6.11-0.11,0.0,20.0,,,,,,,[],,,,,,73.6,0.0,u,0.0,True,879.4000000059605,53.0,60.0,40.0,False,,217.5080448844261,[],"[640, 512]",ColorTask,4.0,12.0,,,HRV,HRV_0051,2022-11-30 17:59:36
,wl-rdm,20,94934,0.0-6.12-0.12,0.0,21.0,,,,,,,[],,,,,,50.0,0.0,u,0.0,True,707.4000000059605,43.0,60.0,40.0,False,,348.55458379756055,[],"[640, 512]",ColorTask,5.0,13.0,,,HRV,HRV_0051,2022-11-30 17:59:36
,wl-rdm,21,96950,0.0-6.13-0.13,0.0,22.0,,,,,,,[],,,,,,50.0,0.0,u,0.0,True,715.2999999970198,43.0,60.0,40.0,False,,230.11617733813662,[],"[640, 512]",ColorTask,6.0,14.0,,,HRV,HRV_0051,2022-11-30 17:59:36
,wl-rdm,22,98967,0.0-6.14-0.14,0.0,23.0,,,,,,,[],,,,,,56.4,1.0,u,0.0,False,707.0,43.0,60.0,40.0,False,,220.86867949833652,[],"[640, 512]",ColorTask,5.0,15.0,,,HRV,HRV_0051,2022-11-30 17:59:36
,wl-rdm,23,101050,0.0-6.15-0.15,0.0,24.0,,,,,,,[],,,,,,62.5,1.0,i,1.0,True,744.0999999940395,45.0,60.0,40.0,False,,269.10592199818143,[],"[640, 512]",ColorTask,6.0,16.0,,,HRV,HRV_0051,2022-11-30 17:59:36
,wl-rdm,24,102950,0.0-6.16-0.16,0.0,25.0,,,,,,,[],,,,,,87.9,1.0,i,1.0,True,439.2999999821186,27.0,60.0,40.0,False,,381.45730380030625,[],"[640, 512]",ColorTask,7.0,17.0,,,HRV,HRV_0051,2022-11-30 17:59:36
,wl-rdm,25,104784,0.0-6.17-0.17,0.0,26.0,,,,,,,[],,,,,,56.4,0.0,i,1.0,False,505.70000000298023,31.0,60.0,40.0,False,,248.1699741783793,[],"[640, 512]",ColorTask,6.0,18.0,,,HRV,HRV_0051,2022-11-30 17:59:36
,wl-rdm,26,106851,0.0-6.18-0.18,0.0,27.0,,,,,,,[],,,,,,56.4,0.0,u,0.0,True,769.4000000059605,47.0,60.0,40.0,False,,203.50642536169087,[],"[640, 512]",ColorTask,7.0,19.0,,,HRV,HRV_0051,2022-11-30 17:59:36
,wl-rdm,27,109067,0.0-6.19-0.19,0.0,28.0,,,,,,,[],,,,,,56.4,0.0,u,0.0,True,737.0,45.0,60.0,40.0,False,,387.72149086800493,[],"[640, 512]",ColorTask,8.0,20.0,,,HRV,HRV_0051,2022-11-30 17:59:36
,wl-rdm,28,110967,0.0-6.20-0.20,0.0,29.0,,,,,,,[],,,,,,87.9,0.0,u,0.0,True,555.0999999940395,34.0,60.0,40.0,False,,280.74888284166525,[],"[640, 512]",ColorTask,9.0,21.0,,,HRV,HRV_0051,2022-11-30 17:59:36
,wl-rdm,29,113217,0.0-6.21-0.21,0.0,30.0,,,,,,,[],,,,,,53.2,1.0,i,1.0,True,954.2999999970198,58.0,60.0,40.0,False,,212.23446789036467,[],"[640, 512]",ColorTask,10.0,22.0,,,HRV,HRV_0051,2022-11-30 17:59:36
,wl-rdm,30,115067,0.0-6.22-0.22,0.0,31.0,,,,,,,[],,,,,,87.9,0.0,u,0.0,True,576.0,35.0,60.0,40.0,False,,213.31763300297078,[],"[640, 512]",ColorTask,11.0,23.0,,,HRV,HRV_0051,2022-11-30 17:59:36
,wl-rdm,31,117450,0.0-6.23-0.23,0.0,32.0,,,,,,,[],,,,,,53.2,0.0,i,1.0,False,1036.7999999970198,63.0,60.0,40.0,False,,252.60785103699158,[],"[640, 512]",ColorTask,10.0,24.0,,,HRV,HRV_0051,2022-11-30 17:59:36
,wl-rdm,32,119366,0.0-6.24-0.24,0.0,33.0,,,,,,,[],,,,,,62.5,0.0,u,0.0,True,531.4000000059605,32.0,60.0,40.0,False,,316.58702916417514,[],"[640, 512]",ColorTask,11.0,25.0,,,HRV,HRV_0051,2022-11-30 17:59:36
,wl-rdm,33,121233,0.0-6.25-0.25,0.0,34.0,,,,,,,[],,,,,,53.2,0.0,u,0.0,True,511.4000000208616,31.0,60.0,40.0,False,,281.2195147308049,[],"[640, 512]",ColorTask,12.0,26.0,,,HRV,HRV_0051,2022-11-30 17:59:36
,wl-rdm,34,123416,0.0-6.26-0.26,0.0,35.0,,,,,,,[],,,,,,87.9,1.0,i,1.0,True,754.3999999910593,46.0,60.0,40.0,False,,345.4629570329369,[],"[640, 512]",ColorTask,13.0,27.0,,,HRV,HRV_0051,2022-11-30 17:59:36
,wl-rdm,35,125349,0.0-6.27-0.27,0.0,36.0,,,,,,,[],,,,,,73.6,0.0,u,0.0,True,631.4000000059605,38.0,60.0,40.0,False,,225.50602744885737,[],"[640, 512]",ColorTask,14.0,28.0,,,HRV,HRV_0051,2022-11-30 17:59:36
,wl-rdm,36,127516,0.0-6.28-0.28,0.0,37.0,,,,,,,[],,,,,,56.4,0.0,u,0.0,True,799.2000000178814,48.0,60.0,40.0,False,,299.9771549936107,[],"[640, 512]",ColorTask,15.0,29.0,,,HRV,HRV_0051,2022-11-30 17:59:36
,wl-rdm,37,129516,0.0-6.29-0.29,0.0,38.0,,,,,,,[],,,,,,50.0,1.0,u,0.0,False,700.7999999821186,43.0,60.0,40.0,False,,202.51377650295697,[],"[640, 512]",ColorTask,14.0,30.0,,,HRV,HRV_0051,2022-11-30 17:59:36
,wl-rdm,38,131500,0.0-6.30-0.30,0.0,39.0,,,,,,,[],,,,,,87.9,1.0,i,1.0,True,568.5999999940395,35.0,60.0,40.0,False,,321.334868077792,[],"[640, 512]",ColorTask,15.0,31.0,,,HRV,HRV_0051,2022-11-30 17:59:36
,wl-rdm,39,133533,0.0-6.31-0.31,0.0,40.0,,,,,,,[],,,,,,73.6,1.0,u,0.0,False,707.9000000059605,43.0,60.0,40.0,False,,245.45657501549522,[],"[640, 512]",ColorTask,14.0,32.0,,,HRV,HRV_0051,2022-11-30 17:59:36
,wl-rdm,40,135516,0.0-6.32-0.32,0.0,41.0,,,,,,,[],,,,,,56.4,1.0,i,1.0,True,674.8000000119209,41.0,60.0,40.0,False,,236.04066096371056,[],"[640, 512]",ColorTask,15.0,33.0,,,HRV,HRV_0051,2022-11-30 17:59:36
,wl-rdm,41,137899,0.0-6.33-0.33,0.0,42.0,,,,,,,[],,,,,,50.0,1.0,u,0.0,False,967.5,59.0,60.0,40.0,False,,319.55939960408074,[],"[640, 512]",ColorTask,14.0,34.0,,,HRV,HRV_0051,2022-11-30 17:59:36
,wl-rdm,42,139799,0.0-6.34-0.34,0.0,43.0,,,,,,,[],,,,,,56.4,0.0,i,1.0,False,606.2000000029802,37.0,60.0,40.0,False,,200.81223377387784,[],"[640, 512]",ColorTask,13.0,35.0,,,HRV,HRV_0051,2022-11-30 17:59:36
,wl-rdm,43,142219,0.0-6.35-0.35,0.0,44.0,,,,,,,[],,,,,,73.6,0.0,u,0.0,True,1062.5999999940395,64.0,60.0,40.0,False,,273.55316772207095,[],"[640, 512]",ColorTask,14.0,36.0,,,HRV,HRV_0051,2022-11-30 17:59:36
,wl-rdm,44,144319,0.0-6.36-0.36,0.0,45.0,,,,,,,[],,,,,,56.4,1.0,i,1.0,True,775.7000000029802,47.0,60.0,40.0,False,,241.5132694472383,[],"[640, 512]",ColorTask,15.0,37.0,,,HRV,HRV_0051,2022-11-30 17:59:36
,wl-rdm,45,146402,0.0-6.37-0.37,0.0,46.0,,,,,,,[],,,,,,62.5,0.0,u,0.0,True,771.0,47.0,60.0,40.0,False,,235.25149823979282,[],"[640, 512]",ColorTask,16.0,38.0,,,HRV,HRV_0051,2022-11-30 17:59:36
,wl-rdm,46,148469,0.0-6.38-0.38,0.0,47.0,,,,,,,[],,,,,,87.9,0.0,u,0.0,True,720.0999999940395,44.0,60.0,40.0,False,,263.8904384509354,[],"[640, 512]",ColorTask,17.0,39.0,,,HRV,HRV_0051,2022-11-30 17:59:36
,wl-rdm,47,150753,0.0-6.39-0.39,0.0,48.0,,,,,,,[],,,,,,62.5,0.0,u,0.0,True,840.2000000029802,51.0,60.0,40.0,False,,381.9718787488166,[],"[640, 512]",ColorTask,18.0,40.0,,,HRV,HRV_0051,2022-11-30 17:59:36
,wl-rdm,48,152753,0.0-6.40-0.40,0.0,49.0,,,,,,,[],,,,,,53.2,0.0,u,0.0,True,606.7000000178814,37.0,60.0,40.0,False,,330.00988250920676,[],"[640, 512]",ColorTask,19.0,41.0,,,HRV,HRV_0051,2022-11-30 17:59:36
,wl-rdm,49,154919,0.0-6.41-0.41,0.0,50.0,,,,,,,[],,,,,,73.6,1.0,u,0.0,False,785.6000000089407,48.0,60.0,40.0,False,,285.21346310258383,[],"[640, 512]",ColorTask,18.0,42.0,,,HRV,HRV_0051,2022-11-30 17:59:36
,wl-rdm,50,157336,0.0-6.42-0.42,0.0,51.0,,,,,,,[],,,,,,53.2,1.0,i,1.0,True,1068.3999999910593,65.0,60.0,40.0,False,,251.5956383706336,[],"[640, 512]",ColorTask,19.0,43.0,,,HRV,HRV_0051,2022-11-30 17:59:36
,wl-rdm,51,159086,0.0-6.43-0.43,0.0,52.0,,,,,,,[],,,,,,53.2,1.0,i,1.0,True,460.30000001192093,28.0,60.0,40.0,False,,201.9250147241099,[],"[640, 512]",ColorTask,20.0,44.0,,,HRV,HRV_0051,2022-11-30 17:59:36
,wl-rdm,52,161036,0.0-6.44-0.44,0.0,53.0,,,,,,,[],,,,,,62.5,0.0,i,1.0,False,646.8000000119209,39.0,60.0,40.0,False,,218.53662574624698,[],"[640, 512]",ColorTask,19.0,45.0,,,HRV,HRV_0051,2022-11-30 17:59:36
,wl-rdm,53,163252,0.0-6.45-0.45,0.0,54.0,,,,,,,[],,,,,,53.2,1.0,u,0.0,False,903.7999999970198,55.0,60.0,40.0,False,,223.8254209142041,[],"[640, 512]",ColorTask,18.0,46.0,,,HRV,HRV_0051,2022-11-30 17:59:36
,wl-rdm,54,165702,0.0-6.46-0.46,0.0,55.0,,,,,,,[],,,,,,62.5,0.0,i,1.0,False,1035.0,63.0,60.0,40.0,False,,318.73247856832165,[],"[640, 512]",ColorTask,17.0,47.0,,,HRV,HRV_0051,2022-11-30 17:59:36
,wl-rdm,55,167835,0.0-6.47-0.47,0.0,56.0,,,,,,,[],,,,,,50.0,1.0,u,0.0,False,795.5999999940395,48.0,60.0,40.0,False,,262.7570492507072,[],"[640, 512]",ColorTask,16.0,48.0,,,HRV,HRV_0051,2022-11-30 17:59:36
,wl-rdm,56,169918,0.0-6.48-0.48,0.0,57.0,,,,,,,[],,,,,,53.2,0.0,i,1.0,False,733.5,44.0,60.0,40.0,False,,291.95626067647817,[],"[640, 512]",ColorTask,15.0,49.0,,,HRV,HRV_0051,2022-11-30 17:59:36
,wl-rdm,57,172201,0.0-6.49-0.49,0.0,58.0,,,,,,,[],,,,,,53.2,0.0,i,1.0,False,831.2000000029802,50.0,60.0,40.0,False,,373.4566141503476,[],"[640, 512]",ColorTask,14.0,50.0,,,HRV,HRV_0051,2022-11-30 17:59:36
,wl-rdm,58,174118,0.0-6.50-0.50,0.0,59.0,,,,,,,[],,,,,,50.0,1.0,u,0.0,False,451.6000000089407,28.0,60.0,40.0,False,,375.2528784903667,[],"[640, 512]",ColorTask,13.0,51.0,,,HRV,HRV_0051,2022-11-30 17:59:36
,wl-rdm,59,176168,0.0-6.51-0.51,0.0,60.0,,,,,,,[],,,,,,73.6,0.0,i,1.0,False,740.3000000119209,45.0,60.0,40.0,False,,232.0981696647826,[],"[640, 512]",ColorTask,12.0,52.0,,,HRV,HRV_0051,2022-11-30 17:59:36
,wl-rdm,60,178318,0.0-6.52-0.52,0.0,61.0,,,,,,,[],,,,,,50.0,0.0,i,1.0,False,735.5,45.0,60.0,40.0,False,,325.90765432717205,[],"[640, 512]",ColorTask,11.0,53.0,,,HRV,HRV_0051,2022-11-30 17:59:36
,wl-rdm,61,180118,0.0-6.53-0.53,0.0,62.0,,,,,,,[],,,,,,87.9,1.0,u,0.0,False,384.19999998807907,24.0,60.0,40.0,False,,337.7254943096102,[],"[640, 512]",ColorTask,10.0,54.0,,,HRV,HRV_0051,2022-11-30 17:59:36
,wl-rdm,62,182185,0.0-6.54-0.54,0.0,63.0,,,,,,,[],,,,,,62.5,1.0,i,1.0,True,781.7000000029802,47.0,60.0,40.0,False,,213.11239217429517,[],"[640, 512]",ColorTask,11.0,55.0,,,HRV,HRV_0051,2022-11-30 17:59:36
,wl-rdm,63,184202,0.0-6.55-0.55,0.0,64.0,,,,,,,[],,,,,,73.6,1.0,i,1.0,True,573.3999999910593,35.0,60.0,40.0,False,,358.36915557303246,[],"[640, 512]",ColorTask,12.0,56.0,,,HRV,HRV_0051,2022-11-30 17:59:36
,wl-rdm,64,186635,0.0-6.56-0.56,0.0,65.0,,,,,,,[],,,,,,62.5,0.0,u,0.0,True,1112.5999999940395,67.0,60.0,40.0,False,,244.90587090555476,[],"[640, 512]",ColorTask,13.0,57.0,,,HRV,HRV_0051,2022-11-30 17:59:36
,wl-rdm,65,189118,0.0-6.57-0.57,0.0,66.0,,,,,,,[],,,,,,53.2,1.0,u,0.0,False,1134.5999999940395,69.0,60.0,40.0,False,,262.34239415790495,[],"[640, 512]",ColorTask,12.0,58.0,,,HRV,HRV_0051,2022-11-30 17:59:36
,wl-rdm,66,191368,0.0-6.58-0.58,0.0,67.0,,,,,,,[],,,,,,56.4,0.0,u,0.0,True,849.0999999940395,51.0,60.0,40.0,False,,329.90072225110725,[],"[640, 512]",ColorTask,13.0,59.0,,,HRV,HRV_0051,2022-11-30 17:59:36
,wl-rdm,67,193417,0.0-6.59-0.59,0.0,68.0,,,,,,,[],,,,,,73.6,1.0,i,1.0,True,763.2000000178814,46.0,60.0,40.0,False,,217.6714938247454,[],"[640, 512]",ColorTask,14.0,60.0,,,HRV,HRV_0051,2022-11-30 17:59:36
,wl-rdm,68,196051,0.0-6.60-0.60,0.0,69.0,,,,,,,[],,,,,,56.4,0.0,u,0.0,True,1179.5000000149012,71.0,60.0,40.0,False,,379.03786039446163,[],"[640, 512]",ColorTask,15.0,61.0,,,HRV,HRV_0051,2022-11-30 17:59:36
,wl-rdm,69,198484,0.0-6.61-0.61,0.0,70.0,,,,,,,[],,,,,,56.4,1.0,i,1.0,True,1027.7000000029802,62.0,60.0,40.0,False,,328.7914708060278,[],"[640, 512]",ColorTask,16.0,62.0,,,HRV,HRV_0051,2022-11-30 17:59:36
,wl-rdm,70,200850,0.0-6.62-0.62,0.0,71.0,,,,,,,[],,,,,,73.6,1.0,i,1.0,True,970.6000000089407,59.0,60.0,40.0,False,,321.3167005000182,[],"[640, 512]",ColorTask,17.0,63.0,,,HRV,HRV_0051,2022-11-30 17:59:36
,wl-rdm,71,203337,0.0-6.63-0.63,0.0,72.0,,,,,,,[],,,,,,73.6,0.0,u,0.0,True,1051.4999999850988,64.0,60.0,40.0,False,,341.9574510316511,[],"[640, 512]",ColorTask,18.0,64.0,,,HRV,HRV_0051,2022-11-30 17:59:36
,wl-rdm,72,206170,0.0-6.64-0.64,0.0,73.0,,,,,,,[],,,,,,62.5,1.0,u,0.0,False,1525.2000000029802,92.0,60.0,40.0,False,,231.9848810400251,[],"[640, 512]",ColorTask,17.0,65.0,,,HRV,HRV_0051,2022-11-30 17:59:36
,wl-rdm,73,208970,0.0-6.65-0.65,0.0,74.0,,,,,,,[],,,,,,50.0,1.0,i,1.0,True,1340.2000000178814,81.0,60.0,40.0,False,,388.3073032402345,[],"[640, 512]",ColorTask,18.0,66.0,,,HRV,HRV_0051,2022-11-30 17:59:36
,wl-rdm,74,211237,0.0-6.66-0.66,0.0,75.0,,,,,,,[],,,,,,87.9,1.0,i,1.0,True,904.8000000119209,55.0,60.0,40.0,False,,268.816512490912,[],"[640, 512]",ColorTask,19.0,67.0,,,HRV,HRV_0051,2022-11-30 17:59:36
,wl-rdm,75,213553,0.0-6.67-0.67,0.0,76.0,,,,,,,[],,,,,,73.6,0.0,u,0.0,True,1017.2999999970198,62.0,60.0,40.0,False,,200.8085354150599,[],"[640, 512]",ColorTask,20.0,68.0,,,HRV,HRV_0051,2022-11-30 17:59:36
,wl-rdm,76,216470,0.0-6.68-0.68,0.0,77.0,,,,,,,[],,,,,,56.4,1.0,i,1.0,True,1545.300000011921,93.0,60.0,40.0,False,,284.89111442236197,[],"[640, 512]",ColorTask,21.0,69.0,,,HRV,HRV_0051,2022-11-30 17:59:36
,wl-rdm,77,219154,0.0-6.69-0.69,0.0,78.0,,,,,,,[],,,,,,56.4,1.0,i,1.0,True,1315.4000000059605,79.0,60.0,40.0,False,,310.6108940761445,[],"[640, 512]",ColorTask,22.0,70.0,,,HRV,HRV_0051,2022-11-30 17:59:36
,wl-rdm,78,221770,0.0-6.70-0.70,0.0,79.0,,,,,,,[],,,,,,50.0,0.0,i,1.0,False,1282.0999999940395,77.0,60.0,40.0,False,,268.8565470468057,[],"[640, 512]",ColorTask,21.0,71.0,,,HRV,HRV_0051,2022-11-30 17:59:36
,wl-rdm,79,225337,0.0-6.71-0.71,0.0,80.0,,,,,,,[],,,,,,53.2,0.0,i,1.0,False,2201.2999999970198,133.0,60.0,40.0,False,,273.6079010954184,[],"[640, 512]",ColorTask,20.0,72.0,,,HRV,HRV_0051,2022-11-30 17:59:36
,wl-rdm,80,228153,0.0-6.72-0.72,0.0,81.0,,,,,,,[],,,,,,50.0,1.0,u,0.0,False,1442.2999999970198,87.0,60.0,40.0,False,,288.8839505703139,[],"[640, 512]",ColorTask,19.0,73.0,,,HRV,HRV_0051,2022-11-30 17:59:36
,wl-rdm,81,230553,0.0-6.73-0.73,0.0,82.0,,,,,,,[],,,,,,87.9,0.0,u,0.0,True,1116.5999999940395,67.0,60.0,40.0,False,,216.47323012502116,[],"[640, 512]",ColorTask,20.0,74.0,,,HRV,HRV_0051,2022-11-30 17:59:36
,wl-rdm,82,233753,0.0-6.74-0.74,0.0,83.0,,,,,,,[],,,,,,53.2,0.0,u,0.0,True,1825.5,110.0,60.0,40.0,False,,290.65043706646856,[],"[640, 512]",ColorTask,21.0,75.0,,,HRV,HRV_0051,2022-11-30 17:59:36
,wl-rdm,83,236352,0.0-6.75-0.75,0.0,84.0,,,,,,,[],,,,,,73.6,0.0,u,0.0,True,1268.199999988079,77.0,60.0,40.0,False,,236.11117865290657,[],"[640, 512]",ColorTask,22.0,76.0,,,HRV,HRV_0051,2022-11-30 17:59:36
,wl-rdm,84,239336,0.0-6.76-0.76,0.0,85.0,,,,,,,[],,,,,,53.2,0.0,u,0.0,True,1651.7999999970198,100.0,60.0,40.0,False,,245.48132417480323,[],"[640, 512]",ColorTask,23.0,77.0,,,HRV,HRV_0051,2022-11-30 17:59:36
,wl-rdm,85,243820,0.0-6.77-0.77,0.0,85.0,,,,,,,[],,,,,,73.6,1.0,i,,,3342.9000000059605,179.0,60.0,40.0,True,RT_timeout ,373.31907151743326,[],"[640, 512]",ColorTask,22.0,78.0,,,HRV,HRV_0051,2022-11-30 17:59:36
,wl-rdm,86,246036,0.0-6.78-0.78,0.0,86.0,,,,,,,[],,,,,,73.6,1.0,i,1.0,True,879.6000000089407,53.0,60.0,40.0,False,,267.38508791584877,[],"[640, 512]",ColorTask,23.0,79.0,,,HRV,HRV_0051,2022-11-30 17:59:36
,wl-rdm,87,248119,0.0-6.79-0.79,0.0,87.0,,,,,,,[],,,,,,87.9,0.0,u,0.0,True,793.5,48.0,60.0,40.0,False,,213.57475583738358,[],"[640, 512]",ColorTask,24.0,80.0,,,HRV,HRV_0051,2022-11-30 17:59:36
,wl-rdm,88,250136,0.0-6.80-0.80,0.0,88.0,,,,,,,[],,,,,,87.9,1.0,i,1.0,True,636.0999999940395,39.0,60.0,40.0,False,,290.7836511092813,[],"[640, 512]",ColorTask,25.0,81.0,,,HRV,HRV_0051,2022-11-30 17:59:36
,wl-rdm,89,252302,0.0-6.81-0.81,0.0,89.0,,,,,,,[],,,,,,62.5,1.0,i,1.0,True,777.2999999970198,47.0,60.0,40.0,False,,300.27513040335504,[],"[640, 512]",ColorTask,26.0,82.0,,,HRV,HRV_0051,2022-11-30 17:59:36
,wl-rdm,90,254319,0.0-6.82-0.82,0.0,90.0,,,,,,,[],,,,,,53.2,0.0,i,1.0,False,536.0999999940395,33.0,60.0,40.0,False,,397.3498817697781,[],"[640, 512]",ColorTask,25.0,83.0,,,HRV,HRV_0051,2022-11-30 17:59:36
,wl-rdm,91,256852,0.0-6.83-0.83,0.0,91.0,,,,,,,[],,,,,,62.5,0.0,u,0.0,True,1229.8999999910593,74.0,60.0,40.0,False,,224.47128752194956,[],"[640, 512]",ColorTask,26.0,84.0,,,HRV,HRV_0051,2022-11-30 17:59:36
,wl-rdm,92,258968,0.0-6.84-0.84,0.0,92.0,,,,,,,[],,,,,,56.4,0.0,u,0.0,True,808.7000000029802,49.0,60.0,40.0,False,,231.14751990121576,[],"[640, 512]",ColorTask,27.0,85.0,,,HRV,HRV_0051,2022-11-30 17:59:36
,wl-rdm,93,260952,0.0-6.85-0.85,0.0,93.0,,,,,,,[],,,,,,53.2,1.0,u,0.0,False,685.5,42.0,60.0,40.0,False,,214.7353334320791,[],"[640, 512]",ColorTask,26.0,86.0,,,HRV,HRV_0051,2022-11-30 17:59:36
,wl-rdm,94,263155,0.0-6.86-0.86,0.0,94.0,,,,,,,[],,,,,,62.5,1.0,i,1.0,True,759.5999999940395,46.0,60.0,40.0,False,,362.0481614189781,[],"[640, 512]",ColorTask,27.0,87.0,,,HRV,HRV_0051,2022-11-30 17:59:36
,wl-rdm,95,265089,0.0-6.87-0.87,0.0,95.0,,,,,,,[],,,,,,56.4,1.0,i,1.0,True,653.5999999940395,40.0,60.0,40.0,False,,206.40743962679315,[],"[640, 512]",ColorTask,28.0,88.0,,,HRV,HRV_0051,2022-11-30 17:59:36
,wl-rdm,96,266988,0.0-6.88-0.88,0.0,96.0,,,,,,,[],,,,,,87.9,1.0,i,1.0,True,557.2999999970198,34.0,60.0,40.0,False,,278.7229121408679,[],"[640, 512]",ColorTask,29.0,89.0,,,HRV,HRV_0051,2022-11-30 17:59:36
,wl-rdm,97,269005,0.0-6.89-0.89,0.0,97.0,,,,,,,[],,,,,,62.5,1.0,i,1.0,True,632.1000000089407,38.0,60.0,40.0,False,,303.00666685072406,[],"[640, 512]",ColorTask,30.0,90.0,,,HRV,HRV_0051,2022-11-30 17:59:36
,wl-rdm,98,271521,0.0-6.90-0.90,0.0,98.0,,,,,,,[],,,,,,56.4,0.0,i,1.0,False,1185.9999999850988,72.0,60.0,40.0,False,,258.73923480420655,[],"[640, 512]",ColorTask,29.0,91.0,,,HRV,HRV_0051,2022-11-30 17:59:36
,wl-rdm,99,273471,0.0-6.91-0.91,0.0,99.0,,,,,,,[],,,,,,87.9,0.0,u,0.0,True,621.0,38.0,60.0,40.0,False,,245.3840575931405,[],"[640, 512]",ColorTask,30.0,92.0,,,HRV,HRV_0051,2022-11-30 17:59:36
,wl-rdm,100,275404,0.0-6.92-0.92,0.0,100.0,,,,,,,[],,,,,,62.5,1.0,u,0.0,False,614.7999999970198,37.0,60.0,40.0,False,,235.93506169422335,[],"[640, 512]",ColorTask,29.0,93.0,,,HRV,HRV_0051,2022-11-30 17:59:36
,wl-rdm,101,277454,0.0-6.93-0.93,0.0,101.0,,,,,,,[],,,,,,50.0,0.0,i,1.0,False,679.8000000119209,41.0,60.0,40.0,False,,289.9389112515943,[],"[640, 512]",ColorTask,28.0,94.0,,,HRV,HRV_0051,2022-11-30 17:59:36
,wl-rdm,102,279722,0.0-6.94-0.94,0.0,102.0,,,,,,,[],,,,,,56.4,1.0,u,0.0,False,801.4000000059605,49.0,60.0,40.0,False,,394.1198715800375,[],"[640, 512]",ColorTask,27.0,95.0,,,HRV,HRV_0051,2022-11-30 17:59:36
,wl-rdm,103,282072,0.0-6.95-0.95,0.0,103.0,,,,,,,[],,,,,,53.2,1.0,u,0.0,False,989.5,60.0,60.0,40.0,False,,281.33161744236116,[],"[640, 512]",ColorTask,26.0,96.0,,,HRV,HRV_0051,2022-11-30 17:59:36
,wl-rdm,104,284355,0.0-6.96-0.96,0.0,104.0,,,,,,,[],,,,,,87.9,0.0,u,0.0,True,892.9999999850988,54.0,60.0,40.0,False,,305.14996508504015,[],"[640, 512]",ColorTask,27.0,97.0,,,HRV,HRV_0051,2022-11-30 17:59:36
,wl-rdm,105,286588,0.0-6.97-0.97,0.0,105.0,,,,,,,[],,,,,,62.5,0.0,u,0.0,True,791.0,48.0,60.0,40.0,False,,375.7566629122849,[],"[640, 512]",ColorTask,28.0,98.0,,,HRV,HRV_0051,2022-11-30 17:59:36
,wl-rdm,106,288638,0.0-6.98-0.98,0.0,106.0,,,,,,,[],,,,,,87.9,0.0,u,0.0,True,597.0,36.0,60.0,40.0,False,,370.85802266350447,[],"[640, 512]",ColorTask,29.0,99.0,,,HRV,HRV_0051,2022-11-30 17:59:36
,wl-rdm,107,290521,0.0-6.99-0.99,0.0,107.0,,,,,,,[],,,,,,73.6,1.0,u,0.0,False,476.70000000298023,29.0,60.0,40.0,False,,346.6342442911217,[],"[640, 512]",ColorTask,28.0,100.0,,,HRV,HRV_0051,2022-11-30 17:59:36
,wl-rdm,108,292571,0.0-6.100-0.100,0.0,108.0,,,,,,,[],,,,,,73.6,1.0,i,1.0,True,634.6000000089407,39.0,60.0,40.0,False,,332.86296494237774,[],"[640, 512]",ColorTask,29.0,101.0,,,HRV,HRV_0051,2022-11-30 17:59:36
,wl-rdm,109,295937,0.0-6.101-0.101,0.0,109.0,,,,,,,[],,,,,,53.2,1.0,i,1.0,True,2026.3999999910593,122.0,60.0,40.0,False,,253.3589067372941,[],"[640, 512]",ColorTask,30.0,102.0,,,HRV,HRV_0051,2022-11-30 17:59:36
,wl-rdm,110,298387,0.0-6.102-0.102,0.0,110.0,,,,,,,[],,,,,,73.6,0.0,u,0.0,True,1066.3999999910593,64.0,60.0,40.0,False,,312.84237821056627,[],"[640, 512]",ColorTask,31.0,103.0,,,HRV,HRV_0051,2022-11-30 17:59:36
,wl-rdm,111,300803,0.0-6.103-0.103,0.0,111.0,,,,,,,[],,,,,,73.6,1.0,u,0.0,False,1024.0,62.0,60.0,40.0,False,,309.5851896497608,[],"[640, 512]",ColorTask,30.0,104.0,,,HRV,HRV_0051,2022-11-30 17:59:36
,wl-rdm,112,303270,0.0-6.104-0.104,0.0,112.0,,,,,,,[],,,,,,50.0,1.0,u,0.0,False,1030.1000000089407,62.0,60.0,40.0,False,,377.82854568584,[],"[640, 512]",ColorTask,29.0,105.0,,,HRV,HRV_0051,2022-11-30 17:59:36
,wl-rdm,113,305321,0.0-6.105-0.105,0.0,113.0,,,,,,,[],,,,,,87.9,0.0,i,1.0,False,743.9000000059605,45.0,60.0,40.0,False,,240.97440691009365,[],"[640, 512]",ColorTask,28.0,106.0,,,HRV,HRV_0051,2022-11-30 17:59:36
,wl-rdm,114,307471,0.0-6.106-0.106,0.0,114.0,,,,,,,[],,,,,,50.0,1.0,i,1.0,True,862.4000000059605,52.0,60.0,40.0,False,,217.15698715055834,[],"[640, 512]",ColorTask,29.0,107.0,,,HRV,HRV_0051,2022-11-30 17:59:36
,wl-rdm,115,309537,0.0-6.107-0.107,0.0,115.0,,,,,,,[],,,,,,50.0,0.0,i,1.0,False,643.4000000059605,39.0,60.0,40.0,False,,337.8678792124705,[],"[640, 512]",ColorTask,28.0,108.0,,,HRV,HRV_0051,2022-11-30 17:59:36
,wl-rdm,116,311570,0.0-6.108-0.108,0.0,116.0,,,,,,,[],,,,,,87.9,1.0,i,1.0,True,668.7999999970198,41.0,60.0,40.0,False,,291.82725775339367,[],"[640, 512]",ColorTask,29.0,109.0,,,HRV,HRV_0051,2022-11-30 17:59:36
,wl-html-keyboard-response,117,417819,0.0-7.0-0.0,1.0,117.0,,,,,,,,104229.29999999702,1.0,0,,,,,,,,,,,,,,,,,,,,,,HRV,HRV_0051,2022-11-30 17:59:36
,wl-rdm,118,421439,0.0-8.0-0.0,1.0,118.0,,,,,,,[],,,,,,56.4,0.0,u,0.0,True,2273.5,137.0,60.0,40.0,False,,287.1203996806936,[],"[640, 512]",ColorTask,30.0,1.0,,,HRV,HRV_0051,2022-11-30 17:59:36
,wl-rdm,119,423757,0.0-8.1-0.1,1.0,119.0,,,,,,,[],,,,,,73.6,0.0,i,1.0,False,853.1000000089407,52.0,60.0,40.0,False,,377.5915424603519,[],"[640, 512]",ColorTask,29.0,2.0,,,HRV,HRV_0051,2022-11-30 17:59:36
,wl-rdm,120,425940,0.0-8.2-0.2,1.0,120.0,,,,,,,[],,,,,,56.4,1.0,u,0.0,False,887.1000000089407,54.0,60.0,40.0,False,,214.5939889665369,[],"[640, 512]",ColorTask,28.0,3.0,,,HRV,HRV_0051,2022-11-30 17:59:36
,wl-rdm,121,428190,0.0-8.3-0.3,1.0,121.0,,,,,,,[],,,,,,56.4,1.0,i,1.0,True,927.9000000059605,56.0,60.0,40.0,False,,249.42538757201086,[],"[640, 512]",ColorTask,29.0,4.0,,,HRV,HRV_0051,2022-11-30 17:59:36
,wl-rdm,122,430123,0.0-8.4-0.4,1.0,122.0,,,,,,,[],,,,,,62.5,1.0,i,1.0,True,661.9999999850988,40.0,60.0,40.0,False,,205.17513191733815,[],"[640, 512]",ColorTask,30.0,5.0,,,HRV,HRV_0051,2022-11-30 17:59:36
,wl-rdm,123,432406,0.0-8.5-0.5,1.0,123.0,,,,,,,[],,,,,,53.2,0.0,u,0.0,True,966.8000000119209,58.0,60.0,40.0,False,,258.5912262897274,[],"[640, 512]",ColorTask,31.0,6.0,,,HRV,HRV_0051,2022-11-30 17:59:36
,wl-rdm,124,434439,0.0-8.6-0.6,1.0,124.0,,,,,,,[],,,,,,56.4,0.0,u,0.0,True,724.4000000059605,44.0,60.0,40.0,False,,217.7007714811573,[],"[640, 512]",ColorTask,32.0,7.0,,,HRV,HRV_0051,2022-11-30 17:59:36
,wl-rdm,125,436539,0.0-8.7-0.7,1.0,125.0,,,,,,,[],,,,,,62.5,0.0,u,0.0,True,804.5000000149012,49.0,60.0,40.0,False,,214.85664271620362,[],"[640, 512]",ColorTask,33.0,8.0,,,HRV,HRV_0051,2022-11-30 17:59:36
,wl-rdm,126,438639,0.0-8.8-0.8,1.0,126.0,,,,,,,[],,,,,,73.6,0.0,u,0.0,True,767.0,46.0,60.0,40.0,False,,251.45898346993144,[],"[640, 512]",ColorTask,34.0,9.0,,,HRV,HRV_0051,2022-11-30 17:59:36
,wl-rdm,127,440622,0.0-8.9-0.9,1.0,127.0,,,,,,,[],,,,,,62.5,1.0,u,0.0,False,684.4999999850988,42.0,60.0,40.0,False,,205.48429929050988,[],"[640, 512]",ColorTask,33.0,10.0,,,HRV,HRV_0051,2022-11-30 17:59:36
,wl-rdm,128,442455,0.0-8.10-0.10,1.0,128.0,,,,,,,[],,,,,,62.5,0.0,i,1.0,False,539.8999999910593,33.0,60.0,40.0,False,,230.07681573752689,[],"[640, 512]",ColorTask,32.0,11.0,,,HRV,HRV_0051,2022-11-30 17:59:36
,wl-rdm,129,444459,0.0-8.11-0.11,1.0,129.0,,,,,,,[],,,,,,87.9,1.0,u,0.0,False,582.1000000089407,35.0,60.0,40.0,False,,353.19226945534524,[],"[640, 512]",ColorTask,31.0,12.0,,,HRV,HRV_0051,2022-11-30 17:59:36
,wl-rdm,130,446509,0.0-8.12-0.12,1.0,130.0,,,,,,,[],,,,,,73.6,0.0,u,0.0,True,655.7999999970198,40.0,60.0,40.0,False,,304.26719688661177,[],"[640, 512]",ColorTask,32.0,13.0,,,HRV,HRV_0051,2022-11-30 17:59:36
,wl-rdm,131,448642,0.0-8.13-0.13,1.0,131.0,,,,,,,[],,,,,,53.2,0.0,u,0.0,True,691.4000000059605,42.0,60.0,40.0,False,,368.878592211585,[],"[640, 512]",ColorTask,33.0,14.0,,,HRV,HRV_0051,2022-11-30 17:59:36
,wl-rdm,132,450825,0.0-8.14-0.14,1.0,132.0,,,,,,,[],,,,,,53.2,1.0,u,0.0,False,775.7000000029802,47.0,60.0,40.0,False,,329.33645944093485,[],"[640, 512]",ColorTask,32.0,15.0,,,HRV,HRV_0051,2022-11-30 17:59:36
,wl-rdm,133,452609,0.0-8.15-0.15,1.0,133.0,,,,,,,[],,,,,,87.9,1.0,i,1.0,True,459.40000000596046,28.0,60.0,40.0,False,,233.20278611155416,[],"[640, 512]",ColorTask,33.0,16.0,,,HRV,HRV_0051,2022-11-30 17:59:36
,wl-rdm,134,454375,0.0-8.16-0.16,1.0,134.0,,,,,,,[],,,,,,73.6,1.0,i,1.0,True,469.3999999910593,29.0,60.0,40.0,False,,200.86730316839956,[],"[640, 512]",ColorTask,34.0,17.0,,,HRV,HRV_0051,2022-11-30 17:59:36
,wl-rdm,135,456275,0.0-8.17-0.17,1.0,135.0,,,,,,,[],,,,,,87.9,0.0,i,1.0,False,448.19999998807907,27.0,60.0,40.0,False,,369.97798073783093,[],"[640, 512]",ColorTask,33.0,18.0,,,HRV,HRV_0051,2022-11-30 17:59:36
,wl-rdm,136,458275,0.0-8.18-0.18,1.0,136.0,,,,,,,[],,,,,,87.9,1.0,i,1.0,True,607.1000000089407,37.0,60.0,40.0,False,,305.5085657826123,[],"[640, 512]",ColorTask,34.0,19.0,,,HRV,HRV_0051,2022-11-30 17:59:36
,wl-rdm,137,460675,0.0-8.19-0.19,1.0,137.0,,,,,,,[],,,,,,50.0,1.0,i,1.0,True,1101.0999999940395,67.0,60.0,40.0,False,,213.11962481486387,[],"[640, 512]",ColorTask,35.0,20.0,,,HRV,HRV_0051,2022-11-30 17:59:36
,wl-rdm,138,463125,0.0-8.20-0.20,1.0,138.0,,,,,,,[],,,,,,73.6,0.0,u,0.0,True,1004.5999999940395,61.0,60.0,40.0,False,,377.08537274605874,[],"[640, 512]",ColorTask,36.0,21.0,,,HRV,HRV_0051,2022-11-30 17:59:36
,wl-rdm,139,466759,0.0-8.21-0.21,1.0,139.0,,,,,,,[],,,,,,62.5,0.0,u,0.0,True,2300.0999999940395,136.0,60.0,40.0,False,,263.23767444502073,[],"[640, 512]",ColorTask,37.0,22.0,,,HRV,HRV_0051,2022-11-30 17:59:36
,wl-rdm,140,469408,0.0-8.22-0.22,1.0,140.0,,,,,,,[],,,,,,73.6,0.0,u,0.0,True,1293.3999999910593,78.0,60.0,40.0,False,,281.5325420591633,[],"[640, 512]",ColorTask,38.0,23.0,,,HRV,HRV_0051,2022-11-30 17:59:36
,wl-rdm,141,472325,0.0-8.23-0.23,1.0,141.0,,,,,,,[],,,,,,56.4,1.0,i,1.0,True,1504.7999999970198,91.0,60.0,40.0,False,,342.62995050940765,[],"[640, 512]",ColorTask,39.0,24.0,,,HRV,HRV_0051,2022-11-30 17:59:36
,wl-rdm,142,475508,0.0-8.24-0.24,1.0,142.0,,,,,,,[],,,,,,53.2,0.0,i,1.0,False,1896.8999999910593,114.0,60.0,40.0,False,,231.45854446106145,[],"[640, 512]",ColorTask,38.0,25.0,,,HRV,HRV_0051,2022-11-30 17:59:36
,wl-rdm,143,477541,0.0-8.25-0.25,1.0,143.0,,,,,,,[],,,,,,87.9,1.0,i,1.0,True,721.7999999970198,44.0,60.0,40.0,False,,225.48629352749703,[],"[640, 512]",ColorTask,39.0,26.0,,,HRV,HRV_0051,2022-11-30 17:59:36
,wl-rdm,144,480124,0.0-8.26-0.26,1.0,144.0,,,,,,,[],,,,,,50.0,1.0,i,1.0,True,1145.300000011921,69.0,60.0,40.0,False,,371.7382823334631,[],"[640, 512]",ColorTask,40.0,27.0,,,HRV,HRV_0051,2022-11-30 17:59:36
,wl-rdm,145,482207,0.0-8.27-0.27,1.0,145.0,,,,,,,[],,,,,,73.6,1.0,i,1.0,True,718.6000000089407,44.0,60.0,40.0,False,,282.47805801925233,[],"[640, 512]",ColorTask,41.0,28.0,,,HRV,HRV_0051,2022-11-30 17:59:36
,wl-rdm,146,485157,0.0-8.28-0.28,1.0,146.0,,,,,,,[],,,,,,62.5,0.0,u,0.0,True,1595.5999999940395,96.0,60.0,40.0,False,,279.44064186730395,[],"[640, 512]",ColorTask,42.0,29.0,,,HRV,HRV_0051,2022-11-30 17:59:36
,wl-rdm,147,487507,0.0-8.29-0.29,1.0,147.0,,,,,,,[],,,,,,56.4,1.0,u,0.0,False,946.6999999880791,57.0,60.0,40.0,False,,340.2627001703214,[],"[640, 512]",ColorTask,41.0,30.0,,,HRV,HRV_0051,2022-11-30 17:59:36
,wl-rdm,148,490374,0.0-8.30-0.30,1.0,148.0,,,,,,,[],,,,,,56.4,0.0,u,0.0,True,1410.800000011921,85.0,60.0,40.0,False,,387.8620917354323,[],"[640, 512]",ColorTask,42.0,31.0,,,HRV,HRV_0051,2022-11-30 17:59:36
,wl-rdm,149,492608,0.0-8.31-0.31,1.0,149.0,,,,,,,[],,,,,,50.0,0.0,i,1.0,False,826.9000000059605,50.0,60.0,40.0,False,,332.2677419280792,[],"[640, 512]",ColorTask,41.0,32.0,,,HRV,HRV_0051,2022-11-30 17:59:36
,wl-rdm,150,495257,0.0-8.32-0.32,1.0,150.0,,,,,,,[],,,,,,53.2,1.0,i,1.0,True,1316.4000000059605,79.0,60.0,40.0,False,,275.4773653686061,[],"[640, 512]",ColorTask,42.0,33.0,,,HRV,HRV_0051,2022-11-30 17:59:36
,wl-rdm,151,497157,0.0-8.33-0.33,1.0,151.0,,,,,,,[],,,,,,62.5,1.0,i,1.0,True,586.5999999940395,36.0,60.0,40.0,False,,248.93540841461686,[],"[640, 512]",ColorTask,43.0,34.0,,,HRV,HRV_0051,2022-11-30 17:59:36
,wl-rdm,152,499390,0.0-8.34-0.34,1.0,152.0,,,,,,,[],,,,,,87.9,0.0,u,0.0,True,902.0999999940395,55.0,60.0,40.0,False,,263.2203806894431,[],"[640, 512]",ColorTask,44.0,35.0,,,HRV,HRV_0051,2022-11-30 17:59:36
,wl-rdm,153,501757,0.0-8.35-0.35,1.0,153.0,,,,,,,[],,,,,,56.4,0.0,u,0.0,True,1011.1999999880791,61.0,60.0,40.0,False,,298.42804908529433,[],"[640, 512]",ColorTask,45.0,36.0,,,HRV,HRV_0051,2022-11-30 17:59:36
,wl-rdm,154,503844,0.0-8.36-0.36,1.0,154.0,,,,,,,[],,,,,,87.9,1.0,i,1.0,True,758.0000000149012,46.0,60.0,40.0,False,,253.69578906911434,[],"[640, 512]",ColorTask,46.0,37.0,,,HRV,HRV_0051,2022-11-30 17:59:36
,wl-rdm,155,505962,0.0-8.37-0.37,1.0,155.0,,,,,,,[],,,,,,87.9,0.0,u,0.0,True,770.1000000089407,47.0,60.0,40.0,False,,273.00978675397596,[],"[640, 512]",ColorTask,47.0,38.0,,,HRV,HRV_0051,2022-11-30 17:59:36
,wl-rdm,156,508595,0.0-8.38-0.38,1.0,156.0,,,,,,,[],,,,,,56.4,1.0,i,1.0,True,1285.0,78.0,60.0,40.0,False,,265.9892129039715,[],"[640, 512]",ColorTask,48.0,39.0,,,HRV,HRV_0051,2022-11-30 17:59:36
,wl-rdm,157,510694,0.0-8.39-0.39,1.0,157.0,,,,,,,[],,,,,,56.4,1.0,i,1.0,True,781.2000000029802,47.0,60.0,40.0,False,,237.2242990922017,[],"[640, 512]",ColorTask,49.0,40.0,,,HRV,HRV_0051,2022-11-30 17:59:36
,wl-rdm,158,513327,0.0-8.40-0.40,1.0,158.0,,,,,,,[],,,,,,73.6,0.0,u,0.0,True,1339.2999999970198,81.0,60.0,40.0,False,,201.1345180261038,[],"[640, 512]",ColorTask,50.0,41.0,,,HRV,HRV_0051,2022-11-30 17:59:36
,wl-rdm,159,515644,0.0-8.41-0.41,1.0,159.0,,,,,,,[],,,,,,62.5,1.0,i,1.0,True,959.2000000029802,58.0,60.0,40.0,False,,267.9219885887693,[],"[640, 512]",ColorTask,51.0,42.0,,,HRV,HRV_0051,2022-11-30 17:59:36
,wl-rdm,160,518194,0.0-8.42-0.42,1.0,160.0,,,,,,,[],,,,,,62.5,0.0,u,0.0,True,1202.9000000059605,73.0,60.0,40.0,False,,271.5341542694879,[],"[640, 512]",ColorTask,52.0,43.0,,,HRV,HRV_0051,2022-11-30 17:59:36
,wl-rdm,161,520410,0.0-8.43-0.43,1.0,161.0,,,,,,,[],,,,,,50.0,0.0,i,1.0,False,860.8999999910593,52.0,60.0,40.0,False,,274.18822820372,[],"[640, 512]",ColorTask,51.0,44.0,,,HRV,HRV_0051,2022-11-30 17:59:36
,wl-rdm,162,523094,0.0-8.44-0.44,1.0,162.0,,,,,,,[],,,,,,53.2,1.0,i,1.0,True,1331.5999999940395,80.0,60.0,40.0,False,,271.6746200863871,[],"[640, 512]",ColorTask,52.0,45.0,,,HRV,HRV_0051,2022-11-30 17:59:36
,wl-rdm,163,524943,0.0-8.45-0.45,1.0,163.0,,,,,,,[],,,,,,73.6,1.0,i,1.0,True,563.6999999880791,34.0,60.0,40.0,False,,202.79635743440008,[],"[640, 512]",ColorTask,53.0,46.0,,,HRV,HRV_0051,2022-11-30 17:59:36
,wl-rdm,164,527027,0.0-8.46-0.46,1.0,164.0,,,,,,,[],,,,,,50.0,1.0,i,1.0,True,618.5999999940395,38.0,60.0,40.0,False,,373.92454789062015,[],"[640, 512]",ColorTask,54.0,47.0,,,HRV,HRV_0051,2022-11-30 17:59:36
,wl-rdm,165,529260,0.0-8.47-0.47,1.0,165.0,,,,,,,[],,,,,,56.4,0.0,u,0.0,True,868.2999999970198,53.0,60.0,40.0,False,,278.42738940921527,[],"[640, 512]",ColorTask,55.0,48.0,,,HRV,HRV_0051,2022-11-30 17:59:36
,wl-rdm,166,531843,0.0-8.48-0.48,1.0,166.0,,,,,,,[],,,,,,62.5,0.0,u,0.0,True,1226.1000000089407,74.0,60.0,40.0,False,,280.76497595913276,[],"[640, 512]",ColorTask,56.0,49.0,,,HRV,HRV_0051,2022-11-30 17:59:36
,wl-rdm,167,534343,0.0-8.49-0.49,1.0,167.0,,,,,,,[],,,,,,56.4,1.0,i,1.0,True,1229.0,74.0,60.0,40.0,False,,214.0704760791703,[],"[640, 512]",ColorTask,57.0,50.0,,,HRV,HRV_0051,2022-11-30 17:59:36
,wl-rdm,168,536526,0.0-8.50-0.50,1.0,168.0,,,,,,,[],,,,,,53.2,0.0,i,1.0,False,897.0,54.0,60.0,40.0,False,,228.14621442279997,[],"[640, 512]",ColorTask,56.0,51.0,,,HRV,HRV_0051,2022-11-30 17:59:36
,wl-rdm,169,538692,0.0-8.51-0.51,1.0,169.0,,,,,,,[],,,,,,73.6,1.0,i,1.0,True,831.7999999970198,50.0,60.0,40.0,False,,251.0243316858965,[],"[640, 512]",ColorTask,57.0,52.0,,,HRV,HRV_0051,2022-11-30 17:59:36
,wl-rdm,170,540926,0.0-8.52-0.52,1.0,170.0,,,,,,,[],,,,,,73.6,0.0,u,0.0,True,880.7999999970198,53.0,60.0,40.0,False,,268.3182981618839,[],"[640, 512]",ColorTask,58.0,53.0,,,HRV,HRV_0051,2022-11-30 17:59:36
,wl-rdm,171,542993,0.0-8.53-0.53,1.0,171.0,,,,,,,[],,,,,,53.2,1.0,u,0.0,False,786.2999999970198,48.0,60.0,40.0,False,,210.4560475086875,[],"[640, 512]",ColorTask,57.0,54.0,,,HRV,HRV_0051,2022-11-30 17:59:36
,wl-rdm,172,545076,0.0-8.54-0.54,1.0,172.0,,,,,,,[],,,,,,73.6,0.0,u,0.0,True,674.2000000178814,41.0,60.0,40.0,False,,327.45173899862704,[],"[640, 512]",ColorTask,58.0,55.0,,,HRV,HRV_0051,2022-11-30 17:59:36
,wl-rdm,173,547143,0.0-8.55-0.55,1.0,173.0,,,,,,,[],,,,,,53.2,0.0,u,0.0,True,745.8999999910593,45.0,60.0,40.0,False,,260.4664459515198,[],"[640, 512]",ColorTask,59.0,56.0,,,HRV,HRV_0051,2022-11-30 17:59:36
,wl-rdm,174,549692,0.0-8.56-0.56,1.0,174.0,,,,,,,[],,,,,,50.0,1.0,u,0.0,False,1249.0,75.0,60.0,40.0,False,,229.05080831150087,[],"[640, 512]",ColorTask,58.0,57.0,,,HRV,HRV_0051,2022-11-30 17:59:36
,wl-rdm,175,551892,0.0-8.57-0.57,1.0,175.0,,,,,,,[],,,,,,53.2,1.0,i,1.0,True,791.2000000029802,48.0,60.0,40.0,False,,330.180403133106,[],"[640, 512]",ColorTask,59.0,58.0,,,HRV,HRV_0051,2022-11-30 17:59:36
,wl-rdm,176,554575,0.0-8.58-0.58,1.0,176.0,,,,,,,[],,,,,,62.5,0.0,u,0.0,True,1311.7000000029802,79.0,60.0,40.0,False,,297.4889097169723,[],"[640, 512]",ColorTask,60.0,59.0,,,HRV,HRV_0051,2022-11-30 17:59:36
,wl-rdm,177,556842,0.0-8.59-0.59,1.0,177.0,,,,,,,[],,,,,,53.2,0.0,u,0.0,True,868.2999999970198,53.0,60.0,40.0,False,,305.6509017423336,[],"[640, 512]",ColorTask,61.0,60.0,,,HRV,HRV_0051,2022-11-30 17:59:36
,wl-rdm,178,558942,0.0-8.60-0.60,1.0,178.0,,,,,,,[],,,,,,73.6,1.0,i,1.0,True,821.4000000059605,50.0,60.0,40.0,False,,210.45628610402096,[],"[640, 512]",ColorTask,62.0,61.0,,,HRV,HRV_0051,2022-11-30 17:59:36
,wl-rdm,179,561959,0.0-8.61-0.61,1.0,179.0,,,,,,,[],,,,,,56.4,0.0,u,0.0,True,1703.8999999910593,103.0,60.0,40.0,False,,234.18906973379586,[],"[640, 512]",ColorTask,63.0,62.0,,,HRV,HRV_0051,2022-11-30 17:59:36
,wl-rdm,180,564112,0.0-8.62-0.62,1.0,180.0,,,,,,,[],,,,,,73.6,1.0,i,1.0,True,823.0999999940395,50.0,60.0,40.0,False,,236.80651783638115,[],"[640, 512]",ColorTask,64.0,63.0,,,HRV,HRV_0051,2022-11-30 17:59:36
,wl-rdm,181,566963,0.0-8.63-0.63,1.0,181.0,,,,,,,[],,,,,,53.2,1.0,u,0.0,False,1487.9000000059605,90.0,60.0,40.0,False,,299.12403922218493,[],"[640, 512]",ColorTask,63.0,64.0,,,HRV,HRV_0051,2022-11-30 17:59:36
,wl-rdm,182,569613,0.0-8.64-0.64,1.0,182.0,,,,,,,[],,,,,,62.5,0.0,i,1.0,False,1202.5,73.0,60.0,40.0,False,,377.26741469111175,[],"[640, 512]",ColorTask,62.0,65.0,,,HRV,HRV_0051,2022-11-30 17:59:36
,wl-rdm,183,571962,0.0-8.65-0.65,1.0,183.0,,,,,,,[],,,,,,73.6,1.0,i,1.0,True,1012.7999999970198,61.0,60.0,40.0,False,,267.9637664396199,[],"[640, 512]",ColorTask,63.0,66.0,,,HRV,HRV_0051,2022-11-30 17:59:36
,wl-rdm,184,574246,0.0-8.66-0.66,1.0,184.0,,,,,,,[],,,,,,87.9,0.0,u,0.0,True,818.4000000059605,50.0,60.0,40.0,False,,377.42836235754976,[],"[640, 512]",ColorTask,64.0,67.0,,,HRV,HRV_0051,2022-11-30 17:59:36
,wl-rdm,185,576312,0.0-8.67-0.67,1.0,185.0,,,,,,,[],,,,,,73.6,0.0,u,0.0,True,731.3000000119209,44.0,60.0,40.0,False,,269.8516469417009,[],"[640, 512]",ColorTask,65.0,68.0,,,HRV,HRV_0051,2022-11-30 17:59:36
,wl-rdm,186,578445,0.0-8.68-0.68,1.0,186.0,,,,,,,[],,,,,,87.9,0.0,u,0.0,True,701.6000000089407,43.0,60.0,40.0,False,,339.81891969984895,[],"[640, 512]",ColorTask,66.0,69.0,,,HRV,HRV_0051,2022-11-30 17:59:36
,wl-rdm,187,581512,0.0-8.69-0.69,1.0,187.0,,,,,,,[],,,,,,50.0,1.0,i,1.0,True,1698.0000000149012,102.0,60.0,40.0,False,,316.7362486864556,[],"[640, 512]",ColorTask,67.0,70.0,,,HRV,HRV_0051,2022-11-30 17:59:36
,wl-rdm,188,583628,0.0-8.70-0.70,1.0,188.0,,,,,,,[],,,,,,62.5,1.0,i,1.0,True,819.2000000029802,50.0,60.0,40.0,False,,200.81929462336421,[],"[640, 512]",ColorTask,68.0,71.0,,,HRV,HRV_0051,2022-11-30 17:59:36
,wl-rdm,189,585595,0.0-8.71-0.71,1.0,189.0,,,,,,,[],,,,,,87.9,1.0,i,1.0,True,653.7999999970198,40.0,60.0,40.0,False,,237.9391803227688,[],"[640, 512]",ColorTask,69.0,72.0,,,HRV,HRV_0051,2022-11-30 17:59:36
,wl-rdm,190,588311,0.0-8.72-0.72,1.0,190.0,,,,,,,[],,,,,,50.0,1.0,i,1.0,True,1331.4000000059605,80.0,60.0,40.0,False,,326.6466116198417,[],"[640, 512]",ColorTask,70.0,73.0,,,HRV,HRV_0051,2022-11-30 17:59:36
,wl-rdm,191,590561,0.0-8.73-0.73,1.0,191.0,,,,,,,[],,,,,,62.5,1.0,i,1.0,True,772.5,47.0,60.0,40.0,False,,397.5239720204832,[],"[640, 512]",ColorTask,71.0,74.0,,,HRV,HRV_0051,2022-11-30 17:59:36
,wl-rdm,192,592611,0.0-8.74-0.74,1.0,192.0,,,,,,,[],,,,,,87.9,1.0,i,1.0,True,653.0999999940395,40.0,60.0,40.0,False,,306.49057382693184,[],"[640, 512]",ColorTask,72.0,75.0,,,HRV,HRV_0051,2022-11-30 17:59:36
,wl-rdm,193,595395,0.0-8.75-0.75,1.0,193.0,,,,,,,[],,,,,,50.0,0.0,i,1.0,False,1445.3999999910593,87.0,60.0,40.0,False,,254.9021313753753,[],"[640, 512]",ColorTask,71.0,76.0,,,HRV,HRV_0051,2022-11-30 17:59:36
,wl-rdm,194,597645,0.0-8.76-0.76,1.0,194.0,,,,,,,[],,,,,,73.6,1.0,i,1.0,True,900.7000000029802,55.0,60.0,40.0,False,,273.11795513122274,[],"[640, 512]",ColorTask,72.0,77.0,,,HRV,HRV_0051,2022-11-30 17:59:36
,wl-rdm,195,600445,0.0-8.77-0.77,1.0,195.0,,,,,,,[],,,,,,50.0,1.0,i,1.0,True,1459.5,88.0,60.0,40.0,False,,257.3149925956608,[],"[640, 512]",ColorTask,73.0,78.0,,,HRV,HRV_0051,2022-11-30 17:59:36
,wl-rdm,196,602578,0.0-8.78-0.78,1.0,196.0,,,,,,,[],,,,,,87.9,0.0,u,0.0,True,762.6000000089407,46.0,60.0,40.0,False,,294.41203771634855,[],"[640, 512]",ColorTask,74.0,79.0,,,HRV,HRV_0051,2022-11-30 17:59:36
,wl-rdm,197,606111,0.0-8.79-0.79,1.0,197.0,,,,,,,[],,,,,,53.2,1.0,u,0.0,False,2233.0999999940395,134.0,60.0,40.0,False,,232.12068739379507,[],"[640, 512]",ColorTask,73.0,80.0,,,HRV,HRV_0051,2022-11-30 17:59:36
,wl-rdm,198,608611,0.0-8.80-0.80,1.0,198.0,,,,,,,[],,,,,,56.4,1.0,u,0.0,False,1153.199999988079,70.0,60.0,40.0,False,,250.32686751272183,[],"[640, 512]",ColorTask,72.0,81.0,,,HRV,HRV_0051,2022-11-30 17:59:36
,wl-rdm,199,610660,0.0-8.81-0.81,1.0,199.0,,,,,,,[],,,,,,62.5,0.0,i,1.0,False,734.0,45.0,60.0,40.0,False,,238.2764012337044,[],"[640, 512]",ColorTask,71.0,82.0,,,HRV,HRV_0051,2022-11-30 17:59:36
,wl-rdm,200,613195,0.0-8.82-0.82,1.0,200.0,,,,,,,[],,,,,,50.0,0.0,u,0.0,True,1053.800000011921,64.0,60.0,40.0,False,,390.0827313301986,[],"[640, 512]",ColorTask,72.0,83.0,,,HRV,HRV_0051,2022-11-30 17:59:36
,wl-rdm,201,616044,0.0-8.83-0.83,1.0,201.0,,,,,,,[],,,,,,53.2,0.0,u,0.0,True,1551.3999999910593,94.0,60.0,40.0,False,,203.443455602319,[],"[640, 512]",ColorTask,73.0,84.0,,,HRV,HRV_0051,2022-11-30 17:59:36
,wl-rdm,202,618260,0.0-8.84-0.84,1.0,202.0,,,,,,,[],,,,,,62.5,1.0,u,0.0,False,902.2000000029802,55.0,60.0,40.0,False,,217.68565213798237,[],"[640, 512]",ColorTask,72.0,85.0,,,HRV,HRV_0051,2022-11-30 17:59:36
,wl-rdm,203,620426,0.0-8.85-0.85,1.0,203.0,,,,,,,[],,,,,,62.5,1.0,i,1.0,True,860.9999999850988,52.0,60.0,40.0,False,,231.26804454227397,[],"[640, 512]",ColorTask,73.0,86.0,,,HRV,HRV_0051,2022-11-30 17:59:36
,wl-rdm,204,622760,0.0-8.86-0.86,1.0,204.0,,,,,,,[],,,,,,50.0,0.0,i,1.0,False,1039.3999999910593,63.0,60.0,40.0,False,,211.72532301159427,[],"[640, 512]",ColorTask,72.0,87.0,,,HRV,HRV_0051,2022-11-30 17:59:36
,wl-rdm,205,625063,0.0-8.87-0.87,1.0,205.0,,,,,,,[],,,,,,53.2,0.0,u,0.0,True,1002.0999999940395,61.0,60.0,40.0,False,,202.07034100849077,[],"[640, 512]",ColorTask,73.0,88.0,,,HRV,HRV_0051,2022-11-30 17:59:36
,wl-rdm,206,627280,0.0-8.88-0.88,1.0,206.0,,,,,,,[],,,,,,53.2,0.0,u,0.0,True,902.5999999940395,55.0,60.0,40.0,False,,230.35229704945678,[],"[640, 512]",ColorTask,74.0,89.0,,,HRV,HRV_0051,2022-11-30 17:59:36
,wl-rdm,207,629580,0.0-8.89-0.89,1.0,207.0,,,,,,,[],,,,,,56.4,0.0,u,0.0,True,905.0999999940395,55.0,60.0,40.0,False,,300.92500040957356,[],"[640, 512]",ColorTask,75.0,90.0,,,HRV,HRV_0051,2022-11-30 17:59:36
,wl-rdm,208,631913,0.0-8.90-0.90,1.0,208.0,,,,,,,[],,,,,,53.2,1.0,i,1.0,True,940.7000000029802,57.0,60.0,40.0,False,,315.7678474595364,[],"[640, 512]",ColorTask,76.0,91.0,,,HRV,HRV_0051,2022-11-30 17:59:36
,wl-rdm,209,634596,0.0-8.91-0.91,1.0,209.0,,,,,,,[],,,,,,56.4,0.0,u,0.0,True,1271.4999999850988,77.0,60.0,40.0,False,,320.11615922155636,[],"[640, 512]",ColorTask,77.0,92.0,,,HRV,HRV_0051,2022-11-30 17:59:36
,wl-rdm,210,636646,0.0-8.92-0.92,1.0,210.0,,,,,,,[],,,,,,87.9,1.0,i,1.0,True,685.2999999970198,42.0,60.0,40.0,False,,291.13388365533615,[],"[640, 512]",ColorTask,78.0,93.0,,,HRV,HRV_0051,2022-11-30 17:59:36
,wl-rdm,211,639079,0.0-8.93-0.93,1.0,211.0,,,,,,,[],,,,,,73.6,1.0,i,1.0,True,1018.1000000089407,62.0,60.0,40.0,False,,329.48187704420684,[],"[640, 512]",ColorTask,79.0,94.0,,,HRV,HRV_0051,2022-11-30 17:59:36
,wl-rdm,212,641612,0.0-8.94-0.94,1.0,212.0,,,,,,,[],,,,,,50.0,0.0,i,1.0,False,1171.4000000059605,71.0,60.0,40.0,False,,270.75697395665145,[],"[640, 512]",ColorTask,78.0,95.0,,,HRV,HRV_0051,2022-11-30 17:59:36
,wl-rdm,213,643845,0.0-8.95-0.95,1.0,213.0,,,,,,,[],,,,,,50.0,1.0,i,1.0,True,902.9000000059605,55.0,60.0,40.0,False,,234.24481472811016,[],"[640, 512]",ColorTask,79.0,96.0,,,HRV,HRV_0051,2022-11-30 17:59:36
,wl-rdm,214,646178,0.0-8.96-0.96,1.0,214.0,,,,,,,[],,,,,,87.9,0.0,u,0.0,True,1029.9000000059605,62.0,60.0,40.0,False,,238.17466134014802,[],"[640, 512]",ColorTask,80.0,97.0,,,HRV,HRV_0051,2022-11-30 17:59:36
,wl-rdm,215,648396,0.0-8.97-0.97,1.0,215.0,,,,,,,[],,,,,,50.0,0.0,u,0.0,True,903.6999999880791,55.0,60.0,40.0,False,,238.95528168903581,[],"[640, 512]",ColorTask,81.0,98.0,,,HRV,HRV_0051,2022-11-30 17:59:36
,wl-rdm,216,650462,0.0-8.98-0.98,1.0,216.0,,,,,,,[],,,,,,87.9,0.0,u,0.0,True,693.5,42.0,60.0,40.0,False,,290.13420255928713,[],"[640, 512]",ColorTask,82.0,99.0,,,HRV,HRV_0051,2022-11-30 17:59:36
,wl-rdm,217,653695,0.0-8.99-0.99,1.0,217.0,,,,,,,[],,,,,,50.0,0.0,i,1.0,False,1849.800000011921,111.0,60.0,40.0,False,,326.2804442232589,[],"[640, 512]",ColorTask,81.0,100.0,,,HRV,HRV_0051,2022-11-30 17:59:36
,wl-rdm,218,655833,0.0-8.100-0.100,1.0,218.0,,,,,,,[],,,,,,56.4,0.0,u,0.0,True,823.5999999940395,50.0,60.0,40.0,False,,238.72151226418163,[],"[640, 512]",ColorTask,82.0,101.0,,,HRV,HRV_0051,2022-11-30 17:59:36
,wl-rdm,219,658332,0.0-8.101-0.101,1.0,219.0,,,,,,,[],,,,,,50.0,1.0,u,0.0,False,1078.0,65.0,60.0,40.0,False,,339.55916344243485,[],"[640, 512]",ColorTask,81.0,102.0,,,HRV,HRV_0051,2022-11-30 17:59:36
,wl-rdm,220,660631,0.0-8.102-0.102,1.0,220.0,,,,,,,[],,,,,,87.9,0.0,u,0.0,True,867.8999999910593,53.0,60.0,40.0,False,,348.3045133014663,[],"[640, 512]",ColorTask,82.0,103.0,,,HRV,HRV_0051,2022-11-30 17:59:36
,wl-rdm,221,662630,0.0-8.103-0.103,1.0,221.0,,,,,,,[],,,,,,87.9,1.0,i,1.0,True,701.0,43.0,60.0,40.0,False,,203.66768103886412,[],"[640, 512]",ColorTask,83.0,104.0,,,HRV,HRV_0051,2022-11-30 17:59:36
,wl-rdm,222,664879,0.0-8.104-0.104,1.0,222.0,,,,,,,[],,,,,,53.2,1.0,i,1.0,True,924.7999999970198,56.0,60.0,40.0,False,,248.73873015831163,[],"[640, 512]",ColorTask,84.0,105.0,,,HRV,HRV_0051,2022-11-30 17:59:36
,wl-rdm,223,667062,0.0-8.105-0.105,1.0,223.0,,,,,,,[],,,,,,56.4,1.0,i,1.0,True,825.8000000119209,50.0,60.0,40.0,False,,274.4823049187719,[],"[640, 512]",ColorTask,85.0,106.0,,,HRV,HRV_0051,2022-11-30 17:59:36
,wl-rdm,224,669578,0.0-8.106-0.106,1.0,224.0,,,,,,,[],,,,,,50.0,0.0,i,1.0,False,1138.5,69.0,60.0,40.0,False,,289.98762466818516,[],"[640, 512]",ColorTask,84.0,107.0,,,HRV,HRV_0051,2022-11-30 17:59:36
,wl-rdm,225,671595,0.0-8.107-0.107,1.0,225.0,,,,,,,[],,,,,,62.5,1.0,i,1.0,True,704.7999999970198,43.0,60.0,40.0,False,,235.56201666535114,[],"[640, 512]",ColorTask,85.0,108.0,,,HRV,HRV_0051,2022-11-30 17:59:36
,wl-html-button-response,226,677049,0.0-9.0-0.0,,,,,,,,,,5451.20000000298,,0,,,,,,,,,,,,,,,,,,,,<h3>End of this session. Thank you!</h3><br>,['Close window'],HRV,HRV_0051,2022-11-30 17:59:36
