success,trial_type,trial_index,time_elapsed,internal_node_id,Block,TrialNumber,TrialTime,trialTimeDiff,FPS_avg,FPS_med,FPS_mode,TrialDur,winResizeTime,rt,block,button_pressed,MotCoh,MotDir,ColCoh,Color,ChoiceKey,Choice,Accuracy,RT,nFrames,FPS,PPD,missTrial,missTrialMsg,onsetDelay,fullScreenExitTime,canvCenter,TrialType,Score,BlockTrial,stimulus,button_labels,exp,subjectId,date
True,fullscreen,0,1774,0.0-0.0,0.0,1.0,,,,,,,,,,,,,,,,,,,,,,,,,,,,,,,,HRV,HRV_0058,2022-11-30 18:16:09
,wl-check-fps,1,6762,0.0-1.0,0.0,2.0,"[2654.7, 2655.9, 2671.8, 2688.1, 2704.7, 2720.5, 2737.3, 2754.2, 2770.6, 2787.4, 2803.9, 2821.4, 2837.3, 2854.2, 2870.3, 2887.9, 2903.5, 2920.3, 2937, 2953.6, 2970.1, 2987.5, 3003.7, 3020.3, 3037.2, 3054.1, 3070.4, 3087.7, 3103.6, 3120.3, 3137.7, 3153.7, 3170.3, 3187.8, 3203.7, 3220.4, 3237, 3253.6, 3270.2, 3286.8, 3303.5, 3320.2, 3336.8, 3353.5, 3370.3, 3387, 3403.5, 3420.3, 3437.2, 3454, 3470.3, 3487, 3503.4, 3520, 3536.8, 3553.4, 3570.1, 3586.9, 3603.4, 3620.1, 3637.1, 3653.3, 3670.3, 3687.9, 3703.5, 3720, 3736.6, 3753.4, 3770.1, 3787, 3803.2, 3820, 3836.6, 3853.5, 3869.9, 3886.5, 3903.4, 3920.3, 3936.8, 3953.4, 3970, 3986.7, 4003.3, 4020, 4036.6, 4053.3, 4070, 4086.4, 4103.2, 4120, 4136.6, 4153.4, 4170, 4186.6, 4203.2, 4219.8, 4236.4, 4253.2, 4269.9, 4286.5, 4303.1, 4319.8, 4336.3, 4353.2, 4369.9, 4388, 4403.5, 4419.8, 4436.4, 4453.1, 4469.8, 4486.6, 4503.2, 4519.8, 4536.4, 4555, 4569.9, 4586.3, 4603.1, 4620.2, 4636.5, 4653, 4669.7, 4686.4, 4703.3, 4719.9, 4736.4, 4753.1, 4769.7, 4786.4, 4803.1, 4819.7, 4836.3, 4853.6, 4869.7, 4886.3, 4903, 4919.6, 4937, 4953, 4969.6, 4986.3, 5002.8, 5019.6, 5036.5, 5053, 5069.4, 5086.6, 5103, 5119.6, 5136.5, 5153.1, 5169.5, 5186.2, 5202.9, 5219.4, 5236.2, 5252.9, 5269.5, 5286.2, 5302.8, 5319.6, 5336.2, 5352.9, 5369.5, 5386.1, 5402.8, 5419.4, 5436.1, 5452.8, 5469.4, 5486.1, 5502.8, 5519.4, 5536.3, 5553.1, 5569.5, 5586.2, 5602.8, 5619.4, 5636.1, 5652.7, 5669.3, 5686.1, 5702.7, 5719.4, 5736, 5752.5, 5769.4, 5786.7, 5802.8, 5819.3, 5836, 5852.7, 5869.3, 5885.9, 5902.6, 5919.3, 5936, 5952.6, 5969.3, 5985.9, 6002.6, 6019.8, 6036.1, 6052.5, 6069.2, 6085.8, 6102.6, 6119, 6135.7, 6152.4, 6169.2, 6185.8, 6202.6, 6219.2, 6236, 6253.2, 6269.2, 6285.8, 6302.6, 6319.3, 6336.1, 6353.3, 6369.6, 6386.8, 6403.1, 6420.3, 6435.9, 6452.7, 6469.2, 6486.4, 6504, 6519.9, 6536.9, 6553.4, 6570.1, 6586.6, 6603.3, 6619.9, 6636.8, 6652.4, 6669.4, 6685.7, 6703.6, 6720.9, 6735.8, 6752.5, 6769, 6785.9, 6803.2, 6819.9, 6836.5, 6853.2, 6870, 6887.2, 6903.3, 6920, 6936.6, 6953.4, 6970, 6985.7, 7002.4, 7018.9, 7036.2, 7053.1, 7069.8, 7086.5, 7103.3, 7119.6, 7137.1, 7153.4, 7169.8, 7186.5, 7202.9, 7219.8, 7236.3, 7253.6, 7269.7, 7286.7, 7302.7, 7319.2, 7335.8, 7352.5, 7369.9, 7387.5, 7403.2, 7419.8, 7436.1, 7452.4, 7469.1, 7485.8, 7503, 7520.3, 7536.2, 7552.9, 7569.4, 7586.9, 7602.8, 7619.6]","[2.4, 1.2, 15.9, 16.3, 16.6, 15.8, 16.8, 16.9, 16.4, 16.8, 16.5, 17.5, 15.9, 16.9, 16.1, 17.6, 15.6, 16.8, 16.7, 16.6, 16.5, 17.4, 16.2, 16.6, 16.9, 16.9, 16.3, 17.3, 15.9, 16.7, 17.4, 16, 16.6, 17.5, 15.9, 16.7, 16.6, 16.6, 16.6, 16.6, 16.7, 16.7, 16.6, 16.7, 16.8, 16.7, 16.5, 16.8, 16.9, 16.8, 16.3, 16.7, 16.4, 16.6, 16.8, 16.6, 16.7, 16.8, 16.5, 16.7, 17, 16.2, 17, 17.6, 15.6, 16.5, 16.6, 16.8, 16.7, 16.9, 16.2, 16.8, 16.6, 16.9, 16.4, 16.6, 16.9, 16.9, 16.5, 16.6, 16.6, 16.7, 16.6, 16.7, 16.6, 16.7, 16.7, 16.4, 16.8, 16.8, 16.6, 16.8, 16.6, 16.6, 16.6, 16.6, 16.6, 16.8, 16.7, 16.6, 16.6, 16.7, 16.5, 16.9, 16.7, 18.1, 15.5, 16.3, 16.6, 16.7, 16.7, 16.8, 16.6, 16.6, 16.6, 18.6, 14.9, 16.4, 16.8, 17.1, 16.3, 16.5, 16.7, 16.7, 16.9, 16.6, 16.5, 16.7, 16.6, 16.7, 16.7, 16.6, 16.6, 17.3, 16.1, 16.6, 16.7, 16.6, 17.4, 16, 16.6, 16.7, 16.5, 16.8, 16.9, 16.5, 16.4, 17.2, 16.4, 16.6, 16.9, 16.6, 16.4, 16.7, 16.7, 16.5, 16.8, 16.7, 16.6, 16.7, 16.6, 16.8, 16.6, 16.7, 16.6, 16.6, 16.7, 16.6, 16.7, 16.7, 16.6, 16.7, 16.7, 16.6, 16.9, 16.8, 16.4, 16.7, 16.6, 16.6, 16.7, 16.6, 16.6, 16.8, 16.6, 16.7, 16.6, 16.5, 16.9, 17.3, 16.1, 16.5, 16.7, 16.7, 16.6, 16.6, 16.7, 16.7, 16.7, 16.6, 16.7, 16.6, 16.7, 17.2, 16.3, 16.4, 16.7, 16.6, 16.8, 16.4, 16.7, 16.7, 16.8, 16.6, 16.8, 16.6, 16.8, 17.2, 16, 16.6, 16.8, 16.7, 16.8, 17.2, 16.3, 17.2, 16.3, 17.2, 15.6, 16.8, 16.5, 17.2, 17.6, 15.9, 17, 16.5, 16.7, 16.5, 16.7, 16.6, 16.9, 15.6, 17, 16.3, 17.9, 17.3, 14.9, 16.7, 16.5, 16.9, 17.3, 16.7, 16.6, 16.7, 16.8, 17.2, 16.1, 16.7, 16.6, 16.8, 16.6, 15.7, 16.7, 16.5, 17.3, 16.9, 16.7, 16.7, 16.8, 16.3, 17.5, 16.3, 16.4, 16.7, 16.4, 16.9, 16.5, 17.3, 16.1, 17, 16, 16.5, 16.6, 16.7, 17.4, 17.6, 15.7, 16.6, 16.3, 16.3, 16.7, 16.7, 17.2, 17.3, 15.9, 16.7, 16.5, 17.5, 15.9, 16.8]",60.0,60.0,60.0,4984.0,[],,,,,,,,,,,,,,,,,,,,,,,,,HRV,HRV_0058,2022-11-30 18:16:09
,wl-html-keyboard-response,2,25023,0.0-2.0-0.0,0.0,3.0,,,,,,,,16252.899999856949,0.0,0,,,,,,,,,,,,,,,,,,,,,,HRV,HRV_0058,2022-11-30 18:16:09
,wl-rdm,3,32335,0.0-3.0-0.0,0.0,4.0,,,,,,,[],,,,0.0,0.0,87.9,0.0,u,0.0,True,1742.7000000476837,105.0,60.0,40.0,False,,3000.0,[],"[768, 432]",ColorTask_Demo,,,,,HRV,HRV_0058,2022-11-30 18:16:09
,wl-rdm,4,37650,0.0-3.0-1.0,0.0,5.0,,,,,,,[],,,,0.0,0.0,87.9,1.0,i,1.0,True,1246.6000001430511,75.0,60.0,40.0,False,,2000.0,[],"[768, 432]",ColorTask_Demo,,,,,HRV,HRV_0058,2022-11-30 18:16:09
,wl-html-keyboard-response,5,46271,0.0-3.0-2.0,0.0,6.0,,,,,,,,6617.5,0.0,1,,,,,,,,,,,,,,,,,,,,,,HRV,HRV_0058,2022-11-30 18:16:09
,wl-html-keyboard-response,6,60447,0.0-4.0-0.0,0.0,7.0,,,,,,,,12166.5,0.0,0,,,,,,,,,,,,,,,,,,,,,,HRV,HRV_0058,2022-11-30 18:16:09
,wl-html-keyboard-response,7,74703,0.0-5.0-0.0,0.0,8.0,,,,,,,,12246.899999856949,0.0,0,,,,,,,,,,,,,,,,,,,,,,HRV,HRV_0058,2022-11-30 18:16:09
,wl-rdm,8,76986,0.0-6.0-0.0,0.0,9.0,,,,,,,[],,,,,,56.4,1.0,i,1.0,True,913.9000000953674,55.0,60.0,40.0,False,,295.9408624710926,[],"[768, 432]",ColorTask,1.0,1.0,,,HRV,HRV_0058,2022-11-30 18:16:09
,wl-rdm,9,79119,0.0-6.1-0.1,0.0,10.0,,,,,,,[],,,,,,50.0,0.0,i,1.0,False,770.2999999523163,47.0,60.0,40.0,False,,287.00286094730524,[],"[768, 432]",ColorTask,0.0,2.0,,,HRV,HRV_0058,2022-11-30 18:16:09
,wl-rdm,10,81035,0.0-6.2-0.2,0.0,11.0,,,,,,,[],,,,,,56.4,1.0,i,1.0,True,630.8999998569489,38.0,60.0,40.0,False,,202.29465219505897,[],"[768, 432]",ColorTask,1.0,3.0,,,HRV,HRV_0058,2022-11-30 18:16:09
,wl-rdm,11,82901,0.0-6.3-0.3,0.0,12.0,,,,,,,[],,,,,,87.9,0.0,u,0.0,True,501.10000014305115,31.0,60.0,40.0,False,,269.46743796760575,[],"[768, 432]",ColorTask,2.0,4.0,,,HRV,HRV_0058,2022-11-30 18:16:09
,wl-rdm,12,84850,0.0-6.4-0.4,0.0,13.0,,,,,,,[],,,,,,73.6,1.0,i,1.0,True,647.5,39.0,60.0,40.0,False,,217.70631672246006,[],"[768, 432]",ColorTask,3.0,5.0,,,HRV,HRV_0058,2022-11-30 18:16:09
,wl-rdm,13,86699,0.0-6.5-0.5,0.0,14.0,,,,,,,[],,,,,,56.4,1.0,i,1.0,True,551.4999997615814,34.0,60.0,40.0,False,,200.47766156408824,[],"[768, 432]",ColorTask,4.0,6.0,,,HRV,HRV_0058,2022-11-30 18:16:09
,wl-rdm,14,88799,0.0-6.6-0.6,0.0,15.0,,,,,,,[],,,,,,53.2,1.0,u,0.0,False,675.8999998569489,41.0,60.0,40.0,False,,343.63334331297824,[],"[768, 432]",ColorTask,3.0,7.0,,,HRV,HRV_0058,2022-11-30 18:16:09
,wl-rdm,15,90681,0.0-6.7-0.7,0.0,16.0,,,,,,,[],,,,,,56.4,0.0,i,1.0,False,539.9000000953674,33.0,60.0,40.0,False,,261.24928532832695,[],"[768, 432]",ColorTask,2.0,8.0,,,HRV,HRV_0058,2022-11-30 18:16:09
,wl-rdm,16,92780,0.0-6.8-0.8,0.0,17.0,,,,,,,[],,,,,,62.5,1.0,i,1.0,True,772.5999999046326,47.0,60.0,40.0,False,,242.52773369710445,[],"[768, 432]",ColorTask,3.0,9.0,,,HRV,HRV_0058,2022-11-30 18:16:09
,wl-rdm,17,94713,0.0-6.9-0.9,0.0,18.0,,,,,,,[],,,,,,73.6,1.0,i,1.0,True,645.3999998569489,39.0,60.0,40.0,False,,214.55936578528426,[],"[768, 432]",ColorTask,4.0,10.0,,,HRV,HRV_0058,2022-11-30 18:16:09
,wl-rdm,18,96913,0.0-6.10-0.10,0.0,19.0,,,,,,,[],,,,,,56.4,0.0,u,0.0,True,791.7000000476837,48.0,60.0,40.0,False,,330.48740710778236,[],"[768, 432]",ColorTask,5.0,11.0,,,HRV,HRV_0058,2022-11-30 18:16:09
,wl-rdm,19,99312,0.0-6.11-0.11,0.0,20.0,,,,,,,[],,,,,,53.2,1.0,i,1.0,True,939.0,57.0,60.0,40.0,False,,371.91245541095316,[],"[768, 432]",ColorTask,6.0,12.0,,,HRV,HRV_0058,2022-11-30 18:16:09
,wl-rdm,20,102627,0.0-6.12-0.12,0.0,21.0,,,,,,,[],,,,,,56.4,1.0,i,1.0,True,1937.0,117.0,60.0,40.0,False,,293.68481835976644,[],"[768, 432]",ColorTask,7.0,13.0,,,HRV,HRV_0058,2022-11-30 18:16:09
,wl-rdm,21,104910,0.0-6.13-0.13,0.0,22.0,,,,,,,[],,,,,,53.2,0.0,u,0.0,True,920.9000000953674,56.0,60.0,40.0,False,,267.55750984108204,[],"[768, 432]",ColorTask,8.0,14.0,,,HRV,HRV_0058,2022-11-30 18:16:09
,wl-rdm,22,107192,0.0-6.14-0.14,0.0,23.0,,,,,,,[],,,,,,56.4,0.0,u,0.0,True,972.0999999046326,59.0,60.0,40.0,False,,232.59432868148284,[],"[768, 432]",ColorTask,9.0,15.0,,,HRV,HRV_0058,2022-11-30 18:16:09
,wl-rdm,23,109875,0.0-6.15-0.15,0.0,24.0,,,,,,,[],,,,,,53.2,0.0,i,1.0,False,1373.2999999523163,83.0,60.0,40.0,False,,219.95853547495656,[],"[768, 432]",ColorTask,8.0,16.0,,,HRV,HRV_0058,2022-11-30 18:16:09
,wl-rdm,24,112924,0.0-6.16-0.16,0.0,25.0,,,,,,,[],,,,,,62.5,0.0,u,0.0,True,1658.4000000953674,100.0,60.0,40.0,False,,314.89504208115966,[],"[768, 432]",ColorTask,9.0,17.0,,,HRV,HRV_0058,2022-11-30 18:16:09
,wl-rdm,25,115873,0.0-6.17-0.17,0.0,26.0,,,,,,,[],,,,,,50.0,1.0,u,0.0,False,1485.8999998569489,90.0,60.0,40.0,False,,371.81920050044107,[],"[768, 432]",ColorTask,8.0,18.0,,,HRV,HRV_0058,2022-11-30 18:16:09
,wl-rdm,26,118122,0.0-6.18-0.18,0.0,27.0,,,,,,,[],,,,,,73.6,1.0,i,1.0,True,894.0000002384186,54.0,60.0,40.0,False,,266.51678088169,[],"[768, 432]",ColorTask,9.0,19.0,,,HRV,HRV_0058,2022-11-30 18:16:09
,wl-rdm,27,121088,0.0-6.19-0.19,0.0,28.0,,,,,,,[],,,,,,56.4,0.0,i,1.0,False,1540.3000001907349,93.0,60.0,40.0,False,,344.76319774029685,[],"[768, 432]",ColorTask,8.0,20.0,,,HRV,HRV_0058,2022-11-30 18:16:09
,wl-rdm,28,123154,0.0-6.20-0.20,0.0,29.0,,,,,,,[],,,,,,87.9,0.0,u,0.0,True,737.2999999523163,45.0,60.0,40.0,False,,235.26067848453675,[],"[768, 432]",ColorTask,9.0,21.0,,,HRV,HRV_0058,2022-11-30 18:16:09
,wl-rdm,29,126169,0.0-6.21-0.21,0.0,30.0,,,,,,,[],,,,,,62.5,0.0,u,0.0,True,1583.7000000476837,96.0,60.0,40.0,False,,341.24425095406525,[],"[768, 432]",ColorTask,10.0,22.0,,,HRV,HRV_0058,2022-11-30 18:16:09
,wl-rdm,30,128368,0.0-6.22-0.22,0.0,31.0,,,,,,,[],,,,,,87.9,1.0,i,1.0,True,879.0,53.0,60.0,40.0,False,,249.12264037509362,[],"[768, 432]",ColorTask,11.0,23.0,,,HRV,HRV_0058,2022-11-30 18:16:09
,wl-rdm,31,130867,0.0-6.23-0.23,0.0,32.0,,,,,,,[],,,,,,73.6,0.0,u,0.0,True,1081.0999999046326,65.0,60.0,40.0,False,,351.8502244584292,[],"[768, 432]",ColorTask,12.0,24.0,,,HRV,HRV_0058,2022-11-30 18:16:09
,wl-rdm,32,133150,0.0-6.24-0.24,0.0,33.0,,,,,,,[],,,,,,62.5,1.0,i,1.0,True,906.7000000476837,55.0,60.0,40.0,False,,283.9126603140953,[],"[768, 432]",ColorTask,13.0,25.0,,,HRV,HRV_0058,2022-11-30 18:16:09
,wl-rdm,33,135449,0.0-6.25-0.25,0.0,34.0,,,,,,,[],,,,,,62.5,0.0,i,1.0,False,934.4000000953674,57.0,60.0,40.0,False,,272.9563771234291,[],"[768, 432]",ColorTask,12.0,26.0,,,HRV,HRV_0058,2022-11-30 18:16:09
,wl-rdm,34,138181,0.0-6.26-0.26,0.0,35.0,,,,,,,[],,,,,,50.0,0.0,u,0.0,True,1407.5000002384186,85.0,60.0,40.0,False,,238.46273787061227,[],"[768, 432]",ColorTask,13.0,27.0,,,HRV,HRV_0058,2022-11-30 18:16:09
,wl-rdm,35,140381,0.0-6.27-0.27,0.0,36.0,,,,,,,[],,,,,,62.5,0.0,u,0.0,True,861.0,52.0,60.0,40.0,False,,269.2073625201397,[],"[768, 432]",ColorTask,14.0,28.0,,,HRV,HRV_0058,2022-11-30 18:16:09
,wl-rdm,36,142463,0.0-6.28-0.28,0.0,37.0,,,,,,,[],,,,,,87.9,0.0,u,0.0,True,758.5999999046326,46.0,60.0,40.0,False,,238.7500300954655,[],"[768, 432]",ColorTask,15.0,29.0,,,HRV,HRV_0058,2022-11-30 18:16:09
,wl-rdm,37,144996,0.0-6.29-0.29,0.0,38.0,,,,,,,[],,,,,,53.2,1.0,i,1.0,True,1150.7000000476837,70.0,60.0,40.0,False,,287.81057916378677,[],"[768, 432]",ColorTask,16.0,30.0,,,HRV,HRV_0058,2022-11-30 18:16:09
,wl-rdm,38,147495,0.0-6.30-0.30,0.0,39.0,,,,,,,[],,,,,,56.4,1.0,i,1.0,True,1109.1000001430511,67.0,60.0,40.0,False,,313.0247573208073,[],"[768, 432]",ColorTask,17.0,31.0,,,HRV,HRV_0058,2022-11-30 18:16:09
,wl-rdm,39,149761,0.0-6.31-0.31,0.0,40.0,,,,,,,[],,,,,,56.4,0.0,i,1.0,False,901.5,55.0,60.0,40.0,False,,279.5948696657116,[],"[768, 432]",ColorTask,16.0,32.0,,,HRV,HRV_0058,2022-11-30 18:16:09
,wl-rdm,40,152677,0.0-6.32-0.32,0.0,41.0,,,,,,,[],,,,,,73.6,0.0,u,0.0,True,1577.8000001907349,95.0,60.0,40.0,False,,260.7185164007284,[],"[768, 432]",ColorTask,17.0,33.0,,,HRV,HRV_0058,2022-11-30 18:16:09
,wl-rdm,41,155259,0.0-6.33-0.33,0.0,42.0,,,,,,,[],,,,,,53.2,1.0,i,1.0,True,1253.0,76.0,60.0,40.0,False,,233.53663798800727,[],"[768, 432]",ColorTask,18.0,34.0,,,HRV,HRV_0058,2022-11-30 18:16:09
,wl-rdm,42,157875,0.0-6.34-0.34,0.0,43.0,,,,,,,[],,,,,,56.4,1.0,i,1.0,True,1291.4000000953674,78.0,60.0,40.0,False,,247.61832991536983,[],"[768, 432]",ColorTask,19.0,35.0,,,HRV,HRV_0058,2022-11-30 18:16:09
,wl-rdm,43,160607,0.0-6.35-0.35,0.0,44.0,,,,,,,[],,,,,,50.0,0.0,i,1.0,False,1349.5999999046326,81.0,60.0,40.0,False,,306.4752228838171,[],"[768, 432]",ColorTask,18.0,36.0,,,HRV,HRV_0058,2022-11-30 18:16:09
,wl-rdm,44,162723,0.0-6.36-0.36,0.0,45.0,,,,,,,[],,,,,,73.6,0.0,u,0.0,True,795.5000002384186,48.0,60.0,40.0,False,,234.08634375391944,[],"[768, 432]",ColorTask,19.0,37.0,,,HRV,HRV_0058,2022-11-30 18:16:09
,wl-rdm,45,166122,0.0-6.37-0.37,0.0,46.0,,,,,,,[],,,,,,50.0,1.0,i,1.0,True,2060.7999999523163,124.0,60.0,40.0,False,,252.07813727984438,[],"[768, 432]",ColorTask,20.0,38.0,,,HRV,HRV_0058,2022-11-30 18:16:09
,wl-rdm,46,168838,0.0-6.38-0.38,0.0,47.0,,,,,,,[],,,,,,62.5,1.0,i,1.0,True,1353.4000000953674,82.0,60.0,40.0,False,,298.2146074317444,[],"[768, 432]",ColorTask,21.0,39.0,,,HRV,HRV_0058,2022-11-30 18:16:09
,wl-rdm,47,171387,0.0-6.39-0.39,0.0,48.0,,,,,,,[],,,,,,87.9,1.0,i,1.0,True,1206.099999666214,73.0,60.0,40.0,False,,249.93480620612735,[],"[768, 432]",ColorTask,22.0,40.0,,,HRV,HRV_0058,2022-11-30 18:16:09
,wl-rdm,48,174103,0.0-6.40-0.40,0.0,49.0,,,,,,,[],,,,,,56.4,0.0,i,1.0,False,1392.1000001430511,84.0,60.0,40.0,False,,248.73710730064693,[],"[768, 432]",ColorTask,21.0,41.0,,,HRV,HRV_0058,2022-11-30 18:16:09
,wl-rdm,49,176469,0.0-6.41-0.41,0.0,50.0,,,,,,,[],,,,,,56.4,1.0,i,1.0,True,1079.7000000476837,65.0,60.0,40.0,False,,202.65317185714218,[],"[768, 432]",ColorTask,22.0,42.0,,,HRV,HRV_0058,2022-11-30 18:16:09
,wl-rdm,50,178834,0.0-6.42-0.42,0.0,51.0,,,,,,,[],,,,,,56.4,0.0,u,0.0,True,992.1999998092651,60.0,60.0,40.0,False,,289.34184574128454,[],"[768, 432]",ColorTask,23.0,43.0,,,HRV,HRV_0058,2022-11-30 18:16:09
,wl-rdm,51,181783,0.0-6.43-0.43,0.0,52.0,,,,,,,[],,,,,,53.2,0.0,i,1.0,False,1482.0999999046326,89.0,60.0,40.0,False,,399.1281746281644,[],"[768, 432]",ColorTask,22.0,44.0,,,HRV,HRV_0058,2022-11-30 18:16:09
,wl-rdm,52,184033,0.0-6.44-0.44,0.0,53.0,,,,,,,[],,,,,,73.6,0.0,i,1.0,False,942.2999999523163,57.0,60.0,40.0,False,,231.3797346016496,[],"[768, 432]",ColorTask,21.0,45.0,,,HRV,HRV_0058,2022-11-30 18:16:09
,wl-rdm,53,186065,0.0-6.45-0.45,0.0,54.0,,,,,,,[],,,,,,73.6,1.0,i,1.0,True,741.0,45.0,60.0,40.0,False,,208.70257383608165,[],"[768, 432]",ColorTask,22.0,46.0,,,HRV,HRV_0058,2022-11-30 18:16:09
,wl-rdm,54,188098,0.0-6.46-0.46,0.0,55.0,,,,,,,[],,,,,,87.9,0.0,u,0.0,True,754.7999999523163,46.0,60.0,40.0,False,,211.20489104497136,[],"[768, 432]",ColorTask,23.0,47.0,,,HRV,HRV_0058,2022-11-30 18:16:09
,wl-rdm,55,190447,0.0-6.47-0.47,0.0,56.0,,,,,,,[],,,,,,62.5,0.0,u,0.0,True,985.0,60.0,60.0,40.0,False,,276.4239647088531,[],"[768, 432]",ColorTask,24.0,48.0,,,HRV,HRV_0058,2022-11-30 18:16:09
,wl-rdm,56,192579,0.0-6.48-0.48,0.0,57.0,,,,,,,[],,,,,,87.9,0.0,u,0.0,True,789.7999999523163,48.0,60.0,40.0,False,,251.55274330923032,[],"[768, 432]",ColorTask,25.0,49.0,,,HRV,HRV_0058,2022-11-30 18:16:09
,wl-rdm,57,195978,0.0-6.49-0.49,0.0,58.0,,,,,,,[],,,,,,53.2,1.0,u,0.0,False,2083.800000190735,126.0,60.0,40.0,False,,219.88432886915524,[],"[768, 432]",ColorTask,24.0,50.0,,,HRV,HRV_0058,2022-11-30 18:16:09
,wl-rdm,58,198194,0.0-6.50-0.50,0.0,59.0,,,,,,,[],,,,,,53.2,0.0,u,0.0,True,896.9000000953674,54.0,60.0,40.0,False,,247.43203313152472,[],"[768, 432]",ColorTask,25.0,51.0,,,HRV,HRV_0058,2022-11-30 18:16:09
,wl-rdm,59,200160,0.0-6.51-0.51,0.0,60.0,,,,,,,[],,,,,,73.6,1.0,i,1.0,True,678.5,41.0,60.0,40.0,False,,216.32276302248988,[],"[768, 432]",ColorTask,26.0,52.0,,,HRV,HRV_0058,2022-11-30 18:16:09
,wl-rdm,60,202310,0.0-6.52-0.52,0.0,61.0,,,,,,,[],,,,,,87.9,1.0,i,1.0,True,779.1000001430511,47.0,60.0,40.0,False,,292.66934893310054,[],"[768, 432]",ColorTask,27.0,53.0,,,HRV,HRV_0058,2022-11-30 18:16:09
,wl-rdm,61,204809,0.0-6.53-0.53,0.0,62.0,,,,,,,[],,,,,,73.6,1.0,i,1.0,True,1053.2999997138977,64.0,60.0,40.0,False,,356.6200132752144,[],"[768, 432]",ColorTask,28.0,54.0,,,HRV,HRV_0058,2022-11-30 18:16:09
,wl-rdm,62,206991,0.0-6.54-0.54,0.0,63.0,,,,,,,[],,,,,,87.9,1.0,i,1.0,True,713.2000000476837,43.0,60.0,40.0,False,,387.1537228560795,[],"[768, 432]",ColorTask,29.0,55.0,,,HRV,HRV_0058,2022-11-30 18:16:09
,wl-rdm,63,209274,0.0-6.55-0.55,0.0,64.0,,,,,,,[],,,,,,62.5,1.0,i,1.0,True,814.0999999046326,49.0,60.0,40.0,False,,385.0053586463478,[],"[768, 432]",ColorTask,30.0,56.0,,,HRV,HRV_0058,2022-11-30 18:16:09
,wl-rdm,64,211273,0.0-6.56-0.56,0.0,65.0,,,,,,,[],,,,,,87.9,1.0,i,1.0,True,644.7999997138977,39.0,60.0,40.0,False,,278.83457580259363,[],"[768, 432]",ColorTask,31.0,57.0,,,HRV,HRV_0058,2022-11-30 18:16:09
,wl-rdm,65,213289,0.0-6.57-0.57,0.0,66.0,,,,,,,[],,,,,,53.2,1.0,i,1.0,True,684.5,42.0,60.0,40.0,False,,237.03973370277822,[],"[768, 432]",ColorTask,32.0,58.0,,,HRV,HRV_0058,2022-11-30 18:16:09
,wl-rdm,66,216854,0.0-6.58-0.58,0.0,67.0,,,,,,,[],,,,,,50.0,1.0,u,0.0,False,2239.9000000953674,135.0,60.0,40.0,False,,245.65327470236926,[],"[768, 432]",ColorTask,31.0,59.0,,,HRV,HRV_0058,2022-11-30 18:16:09
,wl-rdm,67,219104,0.0-6.59-0.59,0.0,68.0,,,,,,,[],,,,,,62.5,0.0,u,0.0,True,893.8999998569489,54.0,60.0,40.0,False,,272.15799823922646,[],"[768, 432]",ColorTask,32.0,60.0,,,HRV,HRV_0058,2022-11-30 18:16:09
,wl-rdm,68,222036,0.0-6.60-0.60,0.0,69.0,,,,,,,[],,,,,,50.0,0.0,u,0.0,True,1643.9000000953674,99.0,60.0,40.0,False,,206.93460127617604,[],"[768, 432]",ColorTask,33.0,61.0,,,HRV,HRV_0058,2022-11-30 18:16:09
,wl-rdm,69,224085,0.0-6.61-0.61,0.0,70.0,,,,,,,[],,,,,,87.9,0.0,u,0.0,True,662.0,40.0,60.0,40.0,False,,302.5760617679803,[],"[768, 432]",ColorTask,34.0,62.0,,,HRV,HRV_0058,2022-11-30 18:16:09
,wl-rdm,70,227668,0.0-6.62-0.62,0.0,71.0,,,,,,,[],,,,,,50.0,0.0,i,1.0,False,2269.2000000476837,137.0,60.0,40.0,False,,230.83933663211576,[],"[768, 432]",ColorTask,33.0,63.0,,,HRV,HRV_0058,2022-11-30 18:16:09
,wl-rdm,71,229883,0.0-6.63-0.63,0.0,72.0,,,,,,,[],,,,,,50.0,0.0,u,0.0,True,753.7999999523163,46.0,60.0,40.0,False,,369.6390500936865,[],"[768, 432]",ColorTask,34.0,64.0,,,HRV,HRV_0058,2022-11-30 18:16:09
,wl-rdm,72,234215,0.0-6.64-0.64,0.0,72.0,,,,,,,[],,,,,,62.5,1.0,,,,,179.0,60.0,40.0,True,RT_timeout ,232.016589494838,[],"[768, 432]",ColorTask,33.0,65.0,,,HRV,HRV_0058,2022-11-30 18:16:09
,wl-rdm,73,236331,0.0-6.65-0.65,0.0,73.0,,,,,,,[],,,,,,87.9,0.0,u,0.0,True,740.7000000476837,45.0,60.0,40.0,False,,288.3900095827059,[],"[768, 432]",ColorTask,34.0,66.0,,,HRV,HRV_0058,2022-11-30 18:16:09
,wl-rdm,74,238480,0.0-6.66-0.66,0.0,74.0,,,,,,,[],,,,,,50.0,0.0,i,1.0,False,841.0,51.0,60.0,40.0,False,,232.17706086143062,[],"[768, 432]",ColorTask,33.0,67.0,,,HRV,HRV_0058,2022-11-30 18:16:09
,wl-rdm,75,240596,0.0-6.67-0.67,0.0,75.0,,,,,,,[],,,,,,53.2,0.0,i,1.0,False,644.8000001907349,39.0,60.0,40.0,False,,395.23993957724605,[],"[768, 432]",ColorTask,32.0,68.0,,,HRV,HRV_0058,2022-11-30 18:16:09
,wl-rdm,76,242846,0.0-6.68-0.68,0.0,76.0,,,,,,,[],,,,,,73.6,0.0,u,0.0,True,963.5999999046326,58.0,60.0,40.0,False,,207.10162643404493,[],"[768, 432]",ColorTask,33.0,69.0,,,HRV,HRV_0058,2022-11-30 18:16:09
,wl-rdm,77,244979,0.0-6.69-0.69,0.0,77.0,,,,,,,[],,,,,,73.6,0.0,u,0.0,True,767.8000001907349,47.0,60.0,40.0,False,,269.28478391588146,[],"[768, 432]",ColorTask,34.0,70.0,,,HRV,HRV_0058,2022-11-30 18:16:09
,wl-rdm,78,247545,0.0-6.70-0.70,0.0,78.0,,,,,,,[],,,,,,62.5,1.0,i,1.0,True,1204.0,73.0,60.0,40.0,False,,278.3978077049725,[],"[768, 432]",ColorTask,35.0,71.0,,,HRV,HRV_0058,2022-11-30 18:16:09
,wl-rdm,79,250594,0.0-6.71-0.71,0.0,79.0,,,,,,,[],,,,,,56.4,1.0,i,1.0,True,1722.0,104.0,60.0,40.0,False,,237.14213599815952,[],"[768, 432]",ColorTask,36.0,72.0,,,HRV,HRV_0058,2022-11-30 18:16:09
,wl-rdm,80,252826,0.0-6.72-0.72,0.0,80.0,,,,,,,[],,,,,,73.6,0.0,u,0.0,True,850.5999999046326,52.0,60.0,40.0,False,,290.6546209342434,[],"[768, 432]",ColorTask,37.0,73.0,,,HRV,HRV_0058,2022-11-30 18:16:09
,wl-rdm,81,254976,0.0-6.73-0.73,0.0,81.0,,,,,,,[],,,,,,87.9,0.0,u,0.0,True,840.2000000476837,51.0,60.0,40.0,False,,219.76815994899556,[],"[768, 432]",ColorTask,38.0,74.0,,,HRV,HRV_0058,2022-11-30 18:16:09
,wl-rdm,82,257408,0.0-6.74-0.74,0.0,82.0,,,,,,,[],,,,,,56.4,0.0,u,0.0,True,1019.7000000476837,62.0,60.0,40.0,False,,326.4904671637694,[],"[768, 432]",ColorTask,39.0,75.0,,,HRV,HRV_0058,2022-11-30 18:16:09
,wl-rdm,83,260057,0.0-6.75-0.75,0.0,83.0,,,,,,,[],,,,,,73.6,1.0,i,1.0,True,1292.1000001430511,78.0,60.0,40.0,False,,274.9181571700266,[],"[768, 432]",ColorTask,40.0,76.0,,,HRV,HRV_0058,2022-11-30 18:16:09
,wl-rdm,84,262657,0.0-6.76-0.76,0.0,84.0,,,,,,,[],,,,,,50.0,1.0,i,1.0,True,1261.0999999046326,76.0,60.0,40.0,False,,257.9796679513208,[],"[768, 432]",ColorTask,41.0,77.0,,,HRV,HRV_0058,2022-11-30 18:16:09
,wl-rdm,85,265106,0.0-6.77-0.77,0.0,85.0,,,,,,,[],,,,,,50.0,0.0,u,0.0,True,1125.5999999046326,68.0,60.0,40.0,False,,244.85542432583026,[],"[768, 432]",ColorTask,42.0,78.0,,,HRV,HRV_0058,2022-11-30 18:16:09
,wl-rdm,86,268654,0.0-6.78-0.78,0.0,86.0,,,,,,,[],,,,,,53.2,0.0,u,0.0,True,2246.100000143051,135.0,60.0,40.0,False,,222.09299256956817,[],"[768, 432]",ColorTask,43.0,79.0,,,HRV,HRV_0058,2022-11-30 18:16:09
,wl-rdm,87,270720,0.0-6.79-0.79,0.0,87.0,,,,,,,[],,,,,,62.5,1.0,i,1.0,True,732.8999998569489,44.0,60.0,40.0,False,,258.08273712326934,[],"[768, 432]",ColorTask,44.0,80.0,,,HRV,HRV_0058,2022-11-30 18:16:09
,wl-rdm,88,273819,0.0-6.80-0.80,0.0,88.0,,,,,,,[],,,,,,53.2,0.0,u,0.0,True,1708.0,103.0,60.0,40.0,False,,310.5542066200582,[],"[768, 432]",ColorTask,45.0,81.0,,,HRV,HRV_0058,2022-11-30 18:16:09
,wl-rdm,89,276685,0.0-6.81-0.81,0.0,89.0,,,,,,,[],,,,,,62.5,0.0,u,0.0,True,1439.8999998569489,87.0,60.0,40.0,False,,344.0070568192055,[],"[768, 432]",ColorTask,46.0,82.0,,,HRV,HRV_0058,2022-11-30 18:16:09
,wl-rdm,90,279284,0.0-6.82-0.82,0.0,90.0,,,,,,,[],,,,,,50.0,1.0,i,1.0,True,1193.9000000953674,72.0,60.0,40.0,False,,330.7059228126325,[],"[768, 432]",ColorTask,47.0,83.0,,,HRV,HRV_0058,2022-11-30 18:16:09
,wl-rdm,91,282333,0.0-6.83-0.83,0.0,91.0,,,,,,,[],,,,,,50.0,1.0,u,0.0,False,1761.2999999523163,106.0,60.0,40.0,False,,210.293481141316,[],"[768, 432]",ColorTask,46.0,84.0,,,HRV,HRV_0058,2022-11-30 18:16:09
,wl-rdm,92,285182,0.0-6.84-0.84,0.0,92.0,,,,,,,[],,,,,,62.5,1.0,i,1.0,True,1550.5,94.0,60.0,40.0,False,,200.91659076179366,[],"[768, 432]",ColorTask,47.0,85.0,,,HRV,HRV_0058,2022-11-30 18:16:09
,wl-rdm,93,288464,0.0-6.85-0.85,0.0,93.0,,,,,,,[],,,,,,53.2,1.0,u,0.0,False,1837.6000001430511,111.0,60.0,40.0,False,,357.75644875813214,[],"[768, 432]",ColorTask,46.0,86.0,,,HRV,HRV_0058,2022-11-30 18:16:09
,wl-rdm,94,290797,0.0-6.86-0.86,0.0,94.0,,,,,,,[],,,,,,87.9,1.0,i,1.0,True,1011.5,61.0,60.0,40.0,False,,237.01926855571247,[],"[768, 432]",ColorTask,47.0,87.0,,,HRV,HRV_0058,2022-11-30 18:16:09
,wl-rdm,95,293896,0.0-6.87-0.87,0.0,95.0,,,,,,,[],,,,,,50.0,0.0,u,0.0,True,1719.7999999523163,104.0,60.0,40.0,False,,283.5297948143543,[],"[768, 432]",ColorTask,48.0,88.0,,,HRV,HRV_0058,2022-11-30 18:16:09
,wl-rdm,96,297278,0.0-6.88-0.88,0.0,96.0,,,,,,,[],,,,,,56.4,1.0,i,1.0,True,1962.7000000476837,118.0,60.0,40.0,False,,336.6564430234264,[],"[768, 432]",ColorTask,49.0,89.0,,,HRV,HRV_0058,2022-11-30 18:16:09
,wl-rdm,97,299594,0.0-6.89-0.89,0.0,97.0,,,,,,,[],,,,,,73.6,0.0,u,0.0,True,940.4000000953674,57.0,60.0,40.0,False,,290.6608506603002,[],"[768, 432]",ColorTask,50.0,90.0,,,HRV,HRV_0058,2022-11-30 18:16:09
,wl-rdm,98,303693,0.0-6.90-0.90,0.0,98.0,,,,,,,[],,,,,,53.2,1.0,i,1.0,True,2760.5999999046326,166.0,60.0,40.0,False,,259.10569927831375,[],"[768, 432]",ColorTask,51.0,91.0,,,HRV,HRV_0058,2022-11-30 18:16:09
,wl-rdm,99,306208,0.0-6.91-0.91,0.0,99.0,,,,,,,[],,,,,,73.6,0.0,u,0.0,True,1171.2999999523163,71.0,60.0,40.0,False,,251.97968660578687,[],"[768, 432]",ColorTask,52.0,92.0,,,HRV,HRV_0058,2022-11-30 18:16:09
,wl-rdm,100,308640,0.0-6.92-0.92,0.0,100.0,,,,,,,[],,,,,,53.2,0.0,u,0.0,True,1076.7000000476837,65.0,60.0,40.0,False,,270.6733607471695,[],"[768, 432]",ColorTask,53.0,93.0,,,HRV,HRV_0058,2022-11-30 18:16:09
,wl-rdm,101,311039,0.0-6.93-0.93,0.0,101.0,,,,,,,[],,,,,,73.6,1.0,i,1.0,True,1071.7999999523163,65.0,60.0,40.0,False,,238.6301551630005,[],"[768, 432]",ColorTask,54.0,94.0,,,HRV,HRV_0058,2022-11-30 18:16:09
,wl-rdm,102,313872,0.0-6.94-0.94,0.0,102.0,,,,,,,[],,,,,,50.0,1.0,u,0.0,False,1416.5,85.0,60.0,40.0,False,,343.8712734616657,[],"[768, 432]",ColorTask,53.0,95.0,,,HRV,HRV_0058,2022-11-30 18:16:09
,wl-rdm,103,317237,0.0-6.95-0.95,0.0,103.0,,,,,,,[],,,,,,53.2,1.0,u,0.0,False,2045.5,123.0,60.0,40.0,False,,235.80283387836687,[],"[768, 432]",ColorTask,52.0,96.0,,,HRV,HRV_0058,2022-11-30 18:16:09
,wl-rdm,104,319470,0.0-6.96-0.96,0.0,104.0,,,,,,,[],,,,,,50.0,1.0,u,0.0,False,902.5,55.0,60.0,40.0,False,,242.83465259808793,[],"[768, 432]",ColorTask,51.0,97.0,,,HRV,HRV_0058,2022-11-30 18:16:09
,wl-rdm,105,322952,0.0-6.97-0.97,0.0,105.0,,,,,,,[],,,,,,62.5,1.0,i,1.0,True,2189.100000143051,132.0,60.0,40.0,False,,206.33606368511758,[],"[768, 432]",ColorTask,52.0,98.0,,,HRV,HRV_0058,2022-11-30 18:16:09
,wl-rdm,106,325101,0.0-6.98-0.98,0.0,106.0,,,,,,,[],,,,,,87.9,1.0,i,1.0,True,863.5999999046326,52.0,60.0,40.0,False,,206.40803586739048,[],"[768, 432]",ColorTask,53.0,99.0,,,HRV,HRV_0058,2022-11-30 18:16:09
,wl-rdm,107,327551,0.0-6.99-0.99,0.0,107.0,,,,,,,[],,,,,,62.5,0.0,u,0.0,True,1119.8000001907349,68.0,60.0,40.0,False,,241.77531146331359,[],"[768, 432]",ColorTask,54.0,100.0,,,HRV,HRV_0058,2022-11-30 18:16:09
,wl-rdm,108,330200,0.0-6.100-0.100,0.0,108.0,,,,,,,[],,,,,,87.9,1.0,i,1.0,True,1352.0999999046326,82.0,60.0,40.0,False,,201.44695464372595,[],"[768, 432]",ColorTask,55.0,101.0,,,HRV,HRV_0058,2022-11-30 18:16:09
,wl-rdm,109,333065,0.0-6.101-0.101,0.0,109.0,,,,,,,[],,,,,,56.4,0.0,u,0.0,True,1469.4000000953674,89.0,60.0,40.0,False,,300.9375311701408,[],"[768, 432]",ColorTask,56.0,102.0,,,HRV,HRV_0058,2022-11-30 18:16:09
,wl-rdm,110,335898,0.0-6.102-0.102,0.0,110.0,,,,,,,[],,,,,,62.5,1.0,i,1.0,True,1390.9000000953674,84.0,60.0,40.0,False,,363.9746405876217,[],"[768, 432]",ColorTask,57.0,103.0,,,HRV,HRV_0058,2022-11-30 18:16:09
,wl-rdm,111,339296,0.0-6.103-0.103,0.0,111.0,,,,,,,[],,,,,,62.5,0.0,u,0.0,True,1953.0999999046326,118.0,60.0,40.0,False,,365.83401267543627,[],"[768, 432]",ColorTask,58.0,104.0,,,HRV,HRV_0058,2022-11-30 18:16:09
,wl-rdm,112,342245,0.0-6.104-0.104,0.0,112.0,,,,,,,[],,,,,,53.2,0.0,u,0.0,True,1541.7000000476837,93.0,60.0,40.0,False,,324.59670450127544,[],"[768, 432]",ColorTask,59.0,105.0,,,HRV,HRV_0058,2022-11-30 18:16:09
,wl-rdm,113,346277,0.0-6.105-0.105,0.0,113.0,,,,,,,[],,,,,,50.0,1.0,u,0.0,False,2720.4000000953674,164.0,60.0,40.0,False,,217.3166745050284,[],"[768, 432]",ColorTask,58.0,106.0,,,HRV,HRV_0058,2022-11-30 18:16:09
,wl-rdm,114,348677,0.0-6.106-0.106,0.0,114.0,,,,,,,[],,,,,,87.9,0.0,u,0.0,True,1017.5,62.0,60.0,40.0,False,,290.10871760974794,[],"[768, 432]",ColorTask,59.0,107.0,,,HRV,HRV_0058,2022-11-30 18:16:09
,wl-rdm,115,350876,0.0-6.107-0.107,0.0,115.0,,,,,,,[],,,,,,87.9,1.0,i,1.0,True,772.2000000476837,47.0,60.0,40.0,False,,340.21852455986135,[],"[768, 432]",ColorTask,60.0,108.0,,,HRV,HRV_0058,2022-11-30 18:16:09
,wl-rdm,116,354875,0.0-6.108-0.108,0.0,116.0,,,,,,,[],,,,,,73.6,1.0,i,1.0,True,2712.2000000476837,163.0,60.0,40.0,False,,212.16451468211662,[],"[768, 432]",ColorTask,61.0,109.0,,,HRV,HRV_0058,2022-11-30 18:16:09
,wl-html-keyboard-response,117,373199,0.0-7.0-0.0,1.0,117.0,,,,,,,,16315.200000047684,1.0,0,,,,,,,,,,,,,,,,,,,,,,HRV,HRV_0058,2022-11-30 18:16:09
,wl-rdm,118,376801,0.0-8.0-0.0,1.0,118.0,,,,,,,[],,,,,,62.5,0.0,u,0.0,True,2260.5999999046326,136.0,60.0,40.0,False,,258.0736045484337,[],"[768, 432]",ColorTask,62.0,1.0,,,HRV,HRV_0058,2022-11-30 18:16:09
,wl-rdm,119,379450,0.0-8.1-0.1,1.0,119.0,,,,,,,[],,,,,,53.2,0.0,u,0.0,True,1248.3999998569489,75.0,60.0,40.0,False,,316.7232269140144,[],"[768, 432]",ColorTask,63.0,2.0,,,HRV,HRV_0058,2022-11-30 18:16:09
,wl-rdm,120,381866,0.0-8.2-0.2,1.0,120.0,,,,,,,[],,,,,,62.5,0.0,u,0.0,True,1037.4000000953674,63.0,60.0,40.0,False,,291.3270334069057,[],"[768, 432]",ColorTask,64.0,3.0,,,HRV,HRV_0058,2022-11-30 18:16:09
,wl-rdm,121,384065,0.0-8.3-0.3,1.0,121.0,,,,,,,[],,,,,,56.4,0.0,u,0.0,True,880.0,53.0,60.0,40.0,False,,237.22092182838367,[],"[768, 432]",ColorTask,65.0,4.0,,,HRV,HRV_0058,2022-11-30 18:16:09
,wl-rdm,122,387248,0.0-8.4-0.4,1.0,122.0,,,,,,,[],,,,,,56.4,1.0,u,0.0,False,1838.5,111.0,60.0,40.0,False,,261.4121219197699,[],"[768, 432]",ColorTask,64.0,5.0,,,HRV,HRV_0058,2022-11-30 18:16:09
,wl-rdm,123,389397,0.0-8.5-0.5,1.0,123.0,,,,,,,[],,,,,,73.6,1.0,i,1.0,True,822.1000001430511,50.0,60.0,40.0,False,,235.8385638219162,[],"[768, 432]",ColorTask,65.0,6.0,,,HRV,HRV_0058,2022-11-30 18:16:09
,wl-rdm,124,391580,0.0-8.6-0.6,1.0,124.0,,,,,,,[],,,,,,56.4,0.0,u,0.0,True,839.4000000953674,51.0,60.0,40.0,False,,252.429364182363,[],"[768, 432]",ColorTask,66.0,7.0,,,HRV,HRV_0058,2022-11-30 18:16:09
,wl-rdm,125,393612,0.0-8.7-0.7,1.0,125.0,,,,,,,[],,,,,,87.9,0.0,u,0.0,True,710.5999999046326,43.0,60.0,40.0,False,,244.5006159352717,[],"[768, 432]",ColorTask,67.0,8.0,,,HRV,HRV_0058,2022-11-30 18:16:09
,wl-rdm,126,396428,0.0-8.8-0.8,1.0,126.0,,,,,,,[],,,,,,62.5,1.0,i,1.0,True,1417.9000000953674,86.0,60.0,40.0,False,,314.43413975574106,[],"[768, 432]",ColorTask,68.0,9.0,,,HRV,HRV_0058,2022-11-30 18:16:09
,wl-rdm,127,398594,0.0-8.9-0.9,1.0,127.0,,,,,,,[],,,,,,73.6,0.0,u,0.0,True,761.7999999523163,46.0,60.0,40.0,False,,316.5301893044091,[],"[768, 432]",ColorTask,69.0,10.0,,,HRV,HRV_0058,2022-11-30 18:16:09
,wl-rdm,128,401893,0.0-8.10-0.10,1.0,128.0,,,,,,,[],,,,,,53.2,1.0,u,0.0,False,1944.6000001430511,117.0,60.0,40.0,False,,280.47448592171156,[],"[768, 432]",ColorTask,68.0,11.0,,,HRV,HRV_0058,2022-11-30 18:16:09
,wl-rdm,129,404375,0.0-8.11-0.11,1.0,129.0,,,,,,,[],,,,,,87.9,1.0,i,1.0,True,1154.6000001430511,70.0,60.0,40.0,False,,236.06947176637232,[],"[768, 432]",ColorTask,69.0,12.0,,,HRV,HRV_0058,2022-11-30 18:16:09
,wl-rdm,130,406591,0.0-8.12-0.12,1.0,130.0,,,,,,,[],,,,,,56.4,0.0,u,0.0,True,819.2000000476837,50.0,60.0,40.0,False,,314.17184608310697,[],"[768, 432]",ColorTask,70.0,13.0,,,HRV,HRV_0058,2022-11-30 18:16:09
,wl-rdm,131,408641,0.0-8.13-0.13,1.0,131.0,,,,,,,[],,,,,,53.2,1.0,u,0.0,False,686.7999999523163,42.0,60.0,40.0,False,,267.709744046909,[],"[768, 432]",ColorTask,69.0,14.0,,,HRV,HRV_0058,2022-11-30 18:16:09
,wl-rdm,132,410956,0.0-8.14-0.14,1.0,132.0,,,,,,,[],,,,,,50.0,1.0,u,0.0,False,965.5000002384186,58.0,60.0,40.0,False,,292.65034826485305,[],"[768, 432]",ColorTask,68.0,15.0,,,HRV,HRV_0058,2022-11-30 18:16:09
,wl-rdm,133,414105,0.0-8.15-0.15,1.0,133.0,,,,,,,[],,,,,,56.4,1.0,i,1.0,True,1841.7000000476837,111.0,60.0,40.0,False,,223.13965851341487,[],"[768, 432]",ColorTask,69.0,16.0,,,HRV,HRV_0058,2022-11-30 18:16:09
,wl-rdm,134,416188,0.0-8.16-0.16,1.0,134.0,,,,,,,[],,,,,,53.2,1.0,u,0.0,False,682.8999998569489,41.0,60.0,40.0,False,,317.7162375309551,[],"[768, 432]",ColorTask,68.0,17.0,,,HRV,HRV_0058,2022-11-30 18:16:09
,wl-rdm,135,418320,0.0-8.17-0.17,1.0,135.0,,,,,,,[],,,,,,73.6,1.0,i,1.0,True,652.3999998569489,40.0,60.0,40.0,False,,399.22698229672017,[],"[768, 432]",ColorTask,69.0,18.0,,,HRV,HRV_0058,2022-11-30 18:16:09
,wl-rdm,136,420353,0.0-8.18-0.18,1.0,136.0,,,,,,,[],,,,,,87.9,1.0,i,1.0,True,746.5999999046326,45.0,60.0,40.0,False,,208.42711498532896,[],"[768, 432]",ColorTask,70.0,19.0,,,HRV,HRV_0058,2022-11-30 18:16:09
,wl-rdm,137,422619,0.0-8.19-0.19,1.0,137.0,,,,,,,[],,,,,,73.6,0.0,u,0.0,True,881.0999999046326,53.0,60.0,40.0,False,,307.5508986508072,[],"[768, 432]",ColorTask,71.0,20.0,,,HRV,HRV_0058,2022-11-30 18:16:09
,wl-rdm,138,424585,0.0-8.20-0.20,1.0,138.0,,,,,,,[],,,,,,87.9,0.0,u,0.0,True,606.9000000953674,37.0,60.0,40.0,False,,274.9524191625991,[],"[768, 432]",ColorTask,72.0,21.0,,,HRV,HRV_0058,2022-11-30 18:16:09
,wl-rdm,139,427400,0.0-8.21-0.21,1.0,139.0,,,,,,,[],,,,,,53.2,0.0,u,0.0,True,1418.7999999523163,86.0,60.0,40.0,False,,309.452425592942,[],"[768, 432]",ColorTask,73.0,22.0,,,HRV,HRV_0058,2022-11-30 18:16:09
,wl-rdm,140,429966,0.0-8.22-0.22,1.0,140.0,,,,,,,[],,,,,,53.2,0.0,u,0.0,True,1278.9000000953674,77.0,60.0,40.0,False,,207.0030092527257,[],"[768, 432]",ColorTask,74.0,23.0,,,HRV,HRV_0058,2022-11-30 18:16:09
,wl-rdm,141,432182,0.0-8.23-0.23,1.0,141.0,,,,,,,[],,,,,,50.0,1.0,i,1.0,True,927.5999999046326,56.0,60.0,40.0,False,,202.57017207004634,[],"[768, 432]",ColorTask,75.0,24.0,,,HRV,HRV_0058,2022-11-30 18:16:09
,wl-rdm,142,434731,0.0-8.24-0.24,1.0,142.0,,,,,,,[],,,,,,62.5,0.0,u,0.0,True,1199.6000001430511,72.0,60.0,40.0,False,,268.06493239773977,[],"[768, 432]",ColorTask,76.0,25.0,,,HRV,HRV_0058,2022-11-30 18:16:09
,wl-rdm,143,439146,0.0-8.25-0.25,1.0,142.0,,,,,,,[],,,,,,62.5,1.0,i,,,3101.699999809265,179.0,60.0,40.0,True,RT_timeout ,303.39772868404185,[],"[768, 432]",ColorTask,75.0,26.0,,,HRV,HRV_0058,2022-11-30 18:16:09
,wl-rdm,144,441329,0.0-8.26-0.26,1.0,143.0,,,,,,,[],,,,,,62.5,1.0,i,1.0,True,713.2999999523163,43.0,60.0,40.0,False,,392.6343849246806,[],"[768, 432]",ColorTask,76.0,27.0,,,HRV,HRV_0058,2022-11-30 18:16:09
,wl-rdm,145,444295,0.0-8.27-0.27,1.0,144.0,,,,,,,[],,,,,,53.2,1.0,i,1.0,True,1639.9000000953674,99.0,60.0,40.0,False,,246.2322815167441,[],"[768, 432]",ColorTask,77.0,28.0,,,HRV,HRV_0058,2022-11-30 18:16:09
,wl-rdm,146,447310,0.0-8.28-0.28,1.0,145.0,,,,,,,[],,,,,,50.0,0.0,u,0.0,True,1709.2000000476837,103.0,60.0,40.0,False,,228.18568208648503,[],"[768, 432]",ColorTask,78.0,29.0,,,HRV,HRV_0058,2022-11-30 18:16:09
,wl-rdm,147,449693,0.0-8.29-0.29,1.0,146.0,,,,,,,[],,,,,,62.5,1.0,i,1.0,True,1007.6000001430511,61.0,60.0,40.0,False,,287.34727341763005,[],"[768, 432]",ColorTask,79.0,30.0,,,HRV,HRV_0058,2022-11-30 18:16:09
,wl-rdm,148,451942,0.0-8.30-0.30,1.0,147.0,,,,,,,[],,,,,,62.5,0.0,u,0.0,True,873.2999999523163,53.0,60.0,40.0,False,,296.79543563387597,[],"[768, 432]",ColorTask,80.0,31.0,,,HRV,HRV_0058,2022-11-30 18:16:09
,wl-rdm,149,455724,0.0-8.31-0.31,1.0,148.0,,,,,,,[],,,,,,53.2,0.0,u,0.0,True,2396.7000000476837,144.0,60.0,40.0,False,,315.78592905011806,[],"[768, 432]",ColorTask,81.0,32.0,,,HRV,HRV_0058,2022-11-30 18:16:09
,wl-rdm,150,458357,0.0-8.32-0.32,1.0,149.0,,,,,,,[],,,,,,50.0,0.0,u,0.0,True,1275.4000000953674,77.0,60.0,40.0,False,,277.2609353656919,[],"[768, 432]",ColorTask,82.0,33.0,,,HRV,HRV_0058,2022-11-30 18:16:09
,wl-rdm,151,460723,0.0-8.33-0.33,1.0,150.0,,,,,,,[],,,,,,53.2,1.0,u,0.0,False,1063.0,64.0,60.0,40.0,False,,232.20163033093974,[],"[768, 432]",ColorTask,81.0,34.0,,,HRV,HRV_0058,2022-11-30 18:16:09
,wl-rdm,152,462922,0.0-8.34-0.34,1.0,151.0,,,,,,,[],,,,,,87.9,0.0,u,0.0,True,869.1000001430511,53.0,60.0,40.0,False,,247.7845590744837,[],"[768, 432]",ColorTask,82.0,35.0,,,HRV,HRV_0058,2022-11-30 18:16:09
,wl-rdm,153,464988,0.0-8.35-0.35,1.0,152.0,,,,,,,[],,,,,,56.4,0.0,u,0.0,True,701.3000001907349,43.0,60.0,40.0,False,,274.43096783895146,[],"[768, 432]",ColorTask,83.0,36.0,,,HRV,HRV_0058,2022-11-30 18:16:09
,wl-rdm,154,467254,0.0-8.36-0.36,1.0,153.0,,,,,,,[],,,,,,73.6,0.0,u,0.0,True,925.7000002861023,56.0,60.0,40.0,False,,264.11442582163414,[],"[768, 432]",ColorTask,84.0,37.0,,,HRV,HRV_0058,2022-11-30 18:16:09
,wl-rdm,155,470353,0.0-8.37-0.37,1.0,154.0,,,,,,,[],,,,,,56.4,0.0,u,0.0,True,1743.2999999523163,105.0,60.0,40.0,False,,268.1938262149972,[],"[768, 432]",ColorTask,85.0,38.0,,,HRV,HRV_0058,2022-11-30 18:16:09
,wl-rdm,156,472419,0.0-8.38-0.38,1.0,155.0,,,,,,,[],,,,,,73.6,0.0,u,0.0,True,759.7999999523163,46.0,60.0,40.0,False,,232.9155088752909,[],"[768, 432]",ColorTask,86.0,39.0,,,HRV,HRV_0058,2022-11-30 18:16:09
,wl-rdm,157,474551,0.0-8.39-0.39,1.0,156.0,,,,,,,[],,,,,,50.0,0.0,i,1.0,False,812.3999998569489,49.0,60.0,40.0,False,,238.14382263829287,[],"[768, 432]",ColorTask,85.0,40.0,,,HRV,HRV_0058,2022-11-30 18:16:09
,wl-rdm,158,477600,0.0-8.40-0.40,1.0,157.0,,,,,,,[],,,,,,50.0,1.0,i,1.0,True,1644.8999998569489,99.0,60.0,40.0,False,,331.6854240327666,[],"[768, 432]",ColorTask,86.0,41.0,,,HRV,HRV_0058,2022-11-30 18:16:09
,wl-rdm,159,480366,0.0-8.41-0.41,1.0,158.0,,,,,,,[],,,,,,56.4,0.0,u,0.0,True,1305.2999999523163,79.0,60.0,40.0,False,,374.0561837210248,[],"[768, 432]",ColorTask,87.0,42.0,,,HRV,HRV_0058,2022-11-30 18:16:09
,wl-rdm,160,482599,0.0-8.42-0.42,1.0,159.0,,,,,,,[],,,,,,73.6,0.0,u,0.0,True,884.5999999046326,54.0,60.0,40.0,False,,263.4890939986115,[],"[768, 432]",ColorTask,88.0,43.0,,,HRV,HRV_0058,2022-11-30 18:16:09
,wl-rdm,161,485115,0.0-8.43-0.43,1.0,160.0,,,,,,,[],,,,,,62.5,0.0,u,0.0,True,1181.2999999523163,71.0,60.0,40.0,False,,264.643898475571,[],"[768, 432]",ColorTask,89.0,44.0,,,HRV,HRV_0058,2022-11-30 18:16:09
,wl-rdm,162,487780,0.0-8.44-0.44,1.0,161.0,,,,,,,[],,,,,,73.6,0.0,u,0.0,True,1242.0999999046326,75.0,60.0,40.0,False,,343.41468284978475,[],"[768, 432]",ColorTask,90.0,45.0,,,HRV,HRV_0058,2022-11-30 18:16:09
,wl-rdm,163,490013,0.0-8.45-0.45,1.0,162.0,,,,,,,[],,,,,,73.6,1.0,i,1.0,True,817.8999998569489,50.0,60.0,40.0,False,,316.6051089801084,[],"[768, 432]",ColorTask,91.0,46.0,,,HRV,HRV_0058,2022-11-30 18:16:09
,wl-rdm,164,493345,0.0-8.46-0.46,1.0,163.0,,,,,,,[],,,,,,50.0,0.0,i,1.0,False,1891.6000001430511,114.0,60.0,40.0,False,,358.33556729444285,[],"[768, 432]",ColorTask,90.0,47.0,,,HRV,HRV_0058,2022-11-30 18:16:09
,wl-rdm,165,495395,0.0-8.47-0.47,1.0,164.0,,,,,,,[],,,,,,73.6,1.0,i,1.0,True,763.5999999046326,46.0,60.0,40.0,False,,208.6521801453137,[],"[768, 432]",ColorTask,91.0,48.0,,,HRV,HRV_0058,2022-11-30 18:16:09
,wl-rdm,166,497777,0.0-8.48-0.48,1.0,165.0,,,,,,,[],,,,,,87.9,1.0,i,1.0,True,905.6999998092651,55.0,60.0,40.0,False,,397.60427157988914,[],"[768, 432]",ColorTask,92.0,49.0,,,HRV,HRV_0058,2022-11-30 18:16:09
,wl-rdm,167,501259,0.0-8.49-0.49,1.0,166.0,,,,,,,[],,,,,,50.0,0.0,i,1.0,False,2143.0999999046326,129.0,60.0,40.0,False,,264.4964229485997,[],"[768, 432]",ColorTask,91.0,50.0,,,HRV,HRV_0058,2022-11-30 18:16:09
,wl-rdm,168,503225,0.0-8.50-0.50,1.0,167.0,,,,,,,[],,,,,,73.6,1.0,i,1.0,True,668.1000001430511,41.0,60.0,40.0,False,,206.23596428044948,[],"[768, 432]",ColorTask,92.0,51.0,,,HRV,HRV_0058,2022-11-30 18:16:09
,wl-rdm,169,505491,0.0-8.51-0.51,1.0,168.0,,,,,,,[],,,,,,62.5,0.0,u,0.0,True,886.5,54.0,60.0,40.0,False,,284.73793731100653,[],"[768, 432]",ColorTask,93.0,52.0,,,HRV,HRV_0058,2022-11-30 18:16:09
,wl-rdm,170,507690,0.0-8.52-0.52,1.0,169.0,,,,,,,[],,,,,,73.6,0.0,u,0.0,True,813.5,49.0,60.0,40.0,False,,304.05948191284494,[],"[768, 432]",ColorTask,94.0,53.0,,,HRV,HRV_0058,2022-11-30 18:16:09
,wl-rdm,171,510423,0.0-8.53-0.53,1.0,170.0,,,,,,,[],,,,,,50.0,0.0,u,0.0,True,1403.7999999523163,85.0,60.0,40.0,False,,239.41546159060186,[],"[768, 432]",ColorTask,95.0,54.0,,,HRV,HRV_0058,2022-11-30 18:16:09
,wl-rdm,172,514621,0.0-8.54-0.54,1.0,171.0,,,,,,,[],,,,,,50.0,1.0,u,0.0,False,2838.399999856949,171.0,60.0,40.0,False,,281.28133001837466,[],"[768, 432]",ColorTask,94.0,55.0,,,HRV,HRV_0058,2022-11-30 18:16:09
,wl-rdm,173,516721,0.0-8.55-0.55,1.0,172.0,,,,,,,[],,,,,,62.5,1.0,i,1.0,True,716.2999999523163,43.0,60.0,40.0,False,,307.764799765901,[],"[768, 432]",ColorTask,95.0,56.0,,,HRV,HRV_0058,2022-11-30 18:16:09
,wl-rdm,174,519020,0.0-8.56-0.56,1.0,173.0,,,,,,,[],,,,,,87.9,0.0,u,0.0,True,902.1000001430511,55.0,60.0,40.0,False,,315.23873802207964,[],"[768, 432]",ColorTask,96.0,57.0,,,HRV,HRV_0058,2022-11-30 18:16:09
,wl-rdm,175,521802,0.0-8.57-0.57,1.0,174.0,,,,,,,[],,,,,,56.4,1.0,i,1.0,True,1401.3999998569489,85.0,60.0,40.0,False,,285.9107158315843,[],"[768, 432]",ColorTask,97.0,58.0,,,HRV,HRV_0058,2022-11-30 18:16:09
,wl-rdm,176,525384,0.0-8.58-0.58,1.0,175.0,,,,,,,[],,,,,,50.0,0.0,u,0.0,True,2176.800000190735,131.0,60.0,40.0,False,,319.17631816431384,[],"[768, 432]",ColorTask,98.0,59.0,,,HRV,HRV_0058,2022-11-30 18:16:09
,wl-rdm,177,528167,0.0-8.59-0.59,1.0,176.0,,,,,,,[],,,,,,87.9,0.0,u,0.0,True,1467.6000001430511,89.0,60.0,40.0,False,,228.14805787349482,[],"[768, 432]",ColorTask,99.0,60.0,,,HRV,HRV_0058,2022-11-30 18:16:09
,wl-rdm,178,530233,0.0-8.60-0.60,1.0,177.0,,,,,,,[],,,,,,73.6,1.0,i,1.0,True,660.7000000476837,40.0,60.0,40.0,False,,324.071724412531,[],"[768, 432]",ColorTask,100.0,61.0,,,HRV,HRV_0058,2022-11-30 18:16:09
,wl-rdm,179,532649,0.0-8.61-0.61,1.0,178.0,,,,,,,[],,,,,,56.4,0.0,u,0.0,True,1069.099999666214,65.0,60.0,40.0,False,,259.3946225639555,[],"[768, 432]",ColorTask,101.0,62.0,,,HRV,HRV_0058,2022-11-30 18:16:09
,wl-rdm,180,534615,0.0-8.62-0.62,1.0,179.0,,,,,,,[],,,,,,87.9,1.0,i,1.0,True,648.2000002861023,39.0,60.0,40.0,False,,238.6641371065532,[],"[768, 432]",ColorTask,102.0,63.0,,,HRV,HRV_0058,2022-11-30 18:16:09
,wl-rdm,181,537397,0.0-8.63-0.63,1.0,180.0,,,,,,,[],,,,,,73.6,1.0,i,1.0,True,1437.1999998092651,87.0,60.0,40.0,False,,263.11447639638027,[],"[768, 432]",ColorTask,103.0,64.0,,,HRV,HRV_0058,2022-11-30 18:16:09
,wl-rdm,182,539963,0.0-8.64-0.64,1.0,181.0,,,,,,,[],,,,,,53.2,0.0,i,1.0,False,1282.0,77.0,60.0,40.0,False,,211.78167226607144,[],"[768, 432]",ColorTask,102.0,65.0,,,HRV,HRV_0058,2022-11-30 18:16:09
,wl-rdm,183,542145,0.0-8.65-0.65,1.0,182.0,,,,,,,[],,,,,,53.2,1.0,i,1.0,True,824.7999999523163,50.0,60.0,40.0,False,,267.29375519132793,[],"[768, 432]",ColorTask,103.0,66.0,,,HRV,HRV_0058,2022-11-30 18:16:09
,wl-rdm,184,544911,0.0-8.66-0.66,1.0,183.0,,,,,,,[],,,,,,53.2,0.0,u,0.0,True,1448.6000001430511,87.0,60.0,40.0,False,,240.84508663909685,[],"[768, 432]",ColorTask,104.0,67.0,,,HRV,HRV_0058,2022-11-30 18:16:09
,wl-rdm,185,547243,0.0-8.67-0.67,1.0,184.0,,,,,,,[],,,,,,87.9,1.0,u,0.0,False,956.900000333786,58.0,60.0,40.0,False,,294.9960989317118,[],"[768, 432]",ColorTask,103.0,68.0,,,HRV,HRV_0058,2022-11-30 18:16:09
,wl-rdm,186,549226,0.0-8.68-0.68,1.0,185.0,,,,,,,[],,,,,,62.5,0.0,i,1.0,False,592.0,36.0,60.0,40.0,False,,302.888952795108,[],"[768, 432]",ColorTask,102.0,69.0,,,HRV,HRV_0058,2022-11-30 18:16:09
,wl-rdm,187,551875,0.0-8.69-0.69,1.0,186.0,,,,,,,[],,,,,,62.5,0.0,u,0.0,True,1351.4000000953674,82.0,60.0,40.0,False,,210.11595938388294,[],"[768, 432]",ColorTask,103.0,70.0,,,HRV,HRV_0058,2022-11-30 18:16:09
,wl-rdm,188,554107,0.0-8.70-0.70,1.0,187.0,,,,,,,[],,,,,,87.9,1.0,i,1.0,True,875.6000001430511,53.0,60.0,40.0,False,,279.26180385883646,[],"[768, 432]",ColorTask,104.0,71.0,,,HRV,HRV_0058,2022-11-30 18:16:09
,wl-rdm,189,556307,0.0-8.71-0.71,1.0,188.0,,,,,,,[],,,,,,62.5,1.0,i,1.0,True,881.7000000476837,53.0,60.0,40.0,False,,248.2006216869421,[],"[768, 432]",ColorTask,105.0,72.0,,,HRV,HRV_0058,2022-11-30 18:16:09
,wl-rdm,190,558406,0.0-8.72-0.72,1.0,189.0,,,,,,,[],,,,,,73.6,0.0,u,0.0,True,805.6999998092651,49.0,60.0,40.0,False,,209.84225024539046,[],"[768, 432]",ColorTask,106.0,73.0,,,HRV,HRV_0058,2022-11-30 18:16:09
,wl-rdm,191,560922,0.0-8.73-0.73,1.0,190.0,,,,,,,[],,,,,,56.4,0.0,u,0.0,True,1208.0999999046326,73.0,60.0,40.0,False,,218.3158209879477,[],"[768, 432]",ColorTask,107.0,74.0,,,HRV,HRV_0058,2022-11-30 18:16:09
,wl-rdm,192,563171,0.0-8.74-0.74,1.0,191.0,,,,,,,[],,,,,,87.9,0.0,u,0.0,True,834.7999999523163,51.0,60.0,40.0,False,,327.11691175168727,[],"[768, 432]",ColorTask,108.0,75.0,,,HRV,HRV_0058,2022-11-30 18:16:09
,wl-rdm,193,565604,0.0-8.75-0.75,1.0,192.0,,,,,,,[],,,,,,56.4,1.0,u,0.0,False,1148.2999997138977,69.0,60.0,40.0,False,,207.95945544764854,[],"[768, 432]",ColorTask,107.0,76.0,,,HRV,HRV_0058,2022-11-30 18:16:09
,wl-rdm,194,569736,0.0-8.76-0.76,1.0,193.0,,,,,,,[],,,,,,62.5,1.0,i,1.0,True,2664.5999999046326,160.0,60.0,40.0,False,,396.6537543862664,[],"[768, 432]",ColorTask,108.0,77.0,,,HRV,HRV_0058,2022-11-30 18:16:09
,wl-rdm,195,572401,0.0-8.77-0.77,1.0,194.0,,,,,,,[],,,,,,50.0,0.0,u,0.0,True,1312.0999999046326,79.0,60.0,40.0,False,,275.7315474737901,[],"[768, 432]",ColorTask,109.0,78.0,,,HRV,HRV_0058,2022-11-30 18:16:09
,wl-rdm,196,574817,0.0-8.78-0.78,1.0,195.0,,,,,,,[],,,,,,53.2,1.0,u,0.0,False,1042.4000000953674,63.0,60.0,40.0,False,,297.45392787691446,[],"[768, 432]",ColorTask,108.0,79.0,,,HRV,HRV_0058,2022-11-30 18:16:09
,wl-rdm,197,576783,0.0-8.79-0.79,1.0,196.0,,,,,,,[],,,,,,87.9,1.0,i,1.0,True,665.7000000476837,40.0,60.0,40.0,False,,229.07760428333648,[],"[768, 432]",ColorTask,109.0,80.0,,,HRV,HRV_0058,2022-11-30 18:16:09
,wl-rdm,198,578849,0.0-8.80-0.80,1.0,197.0,,,,,,,[],,,,,,87.9,0.0,u,0.0,True,760.5,46.0,60.0,40.0,False,,228.99510513737607,[],"[768, 432]",ColorTask,110.0,81.0,,,HRV,HRV_0058,2022-11-30 18:16:09
,wl-rdm,199,581198,0.0-8.81-0.81,1.0,198.0,,,,,,,[],,,,,,62.5,1.0,i,1.0,True,892.0,54.0,60.0,40.0,False,,383.0496971021258,[],"[768, 432]",ColorTask,111.0,82.0,,,HRV,HRV_0058,2022-11-30 18:16:09
,wl-rdm,200,583864,0.0-8.82-0.82,1.0,199.0,,,,,,,[],,,,,,53.2,0.0,i,1.0,False,1292.5,78.0,60.0,40.0,False,,288.25635976611454,[],"[768, 432]",ColorTask,110.0,83.0,,,HRV,HRV_0058,2022-11-30 18:16:09
,wl-rdm,201,585780,0.0-8.83-0.83,1.0,200.0,,,,,,,[],,,,,,87.9,0.0,u,0.0,True,563.5,34.0,60.0,40.0,False,,273.07747863937055,[],"[768, 432]",ColorTask,111.0,84.0,,,HRV,HRV_0058,2022-11-30 18:16:09
,wl-rdm,202,588013,0.0-8.84-0.84,1.0,201.0,,,,,,,[],,,,,,87.9,1.0,i,1.0,True,776.0999999046326,47.0,60.0,40.0,False,,376.5577735180811,[],"[768, 432]",ColorTask,112.0,85.0,,,HRV,HRV_0058,2022-11-30 18:16:09
,wl-rdm,203,590229,0.0-8.85-0.85,1.0,202.0,,,,,,,[],,,,,,50.0,1.0,u,0.0,False,819.3999998569489,50.0,60.0,40.0,False,,304.74736466204456,[],"[768, 432]",ColorTask,111.0,86.0,,,HRV,HRV_0058,2022-11-30 18:16:09
,wl-rdm,204,592195,0.0-8.86-0.86,1.0,203.0,,,,,,,[],,,,,,62.5,1.0,i,1.0,True,633.6000001430511,38.0,60.0,40.0,False,,250.9975434915142,[],"[768, 432]",ColorTask,112.0,87.0,,,HRV,HRV_0058,2022-11-30 18:16:09
,wl-rdm,205,594344,0.0-8.87-0.87,1.0,204.0,,,,,,,[],,,,,,87.9,0.0,u,0.0,True,744.0,45.0,60.0,40.0,False,,328.1305286911447,[],"[768, 432]",ColorTask,113.0,88.0,,,HRV,HRV_0058,2022-11-30 18:16:09
,wl-rdm,206,597010,0.0-8.88-0.88,1.0,205.0,,,,,,,[],,,,,,56.4,1.0,u,0.0,False,1295.0000002384186,78.0,60.0,40.0,False,,296.2284563389388,[],"[768, 432]",ColorTask,112.0,89.0,,,HRV,HRV_0058,2022-11-30 18:16:09
,wl-rdm,207,599276,0.0-8.89-0.89,1.0,206.0,,,,,,,[],,,,,,56.4,0.0,u,0.0,True,963.2000000476837,58.0,60.0,40.0,False,,226.38734082262167,[],"[768, 432]",ColorTask,113.0,90.0,,,HRV,HRV_0058,2022-11-30 18:16:09
,wl-rdm,208,602008,0.0-8.90-0.90,1.0,207.0,,,,,,,[],,,,,,62.5,1.0,i,1.0,True,1361.2999999523163,82.0,60.0,40.0,False,,291.84267441243156,[],"[768, 432]",ColorTask,114.0,91.0,,,HRV,HRV_0058,2022-11-30 18:16:09
,wl-rdm,209,604391,0.0-8.91-0.91,1.0,208.0,,,,,,,[],,,,,,53.2,1.0,u,0.0,False,1054.0,64.0,60.0,40.0,False,,246.1310029617037,[],"[768, 432]",ColorTask,113.0,92.0,,,HRV,HRV_0058,2022-11-30 18:16:09
,wl-rdm,210,606656,0.0-8.92-0.92,1.0,209.0,,,,,,,[],,,,,,50.0,1.0,i,1.0,True,888.3999998569489,54.0,60.0,40.0,False,,311.1822322573256,[],"[768, 432]",ColorTask,114.0,93.0,,,HRV,HRV_0058,2022-11-30 18:16:09
,wl-rdm,211,608856,0.0-8.93-0.93,1.0,210.0,,,,,,,[],,,,,,73.6,1.0,i,1.0,True,755.7999999523163,46.0,60.0,40.0,False,,353.72228777690526,[],"[768, 432]",ColorTask,115.0,94.0,,,HRV,HRV_0058,2022-11-30 18:16:09
,wl-rdm,212,611222,0.0-8.94-0.94,1.0,211.0,,,,,,,[],,,,,,53.2,0.0,u,0.0,True,1046.5999999046326,63.0,60.0,40.0,False,,243.1377499983538,[],"[768, 432]",ColorTask,116.0,95.0,,,HRV,HRV_0058,2022-11-30 18:16:09
,wl-rdm,213,613771,0.0-8.95-0.95,1.0,212.0,,,,,,,[],,,,,,53.2,1.0,u,0.0,False,1178.7000000476837,71.0,60.0,40.0,False,,287.59374748447135,[],"[768, 432]",ColorTask,115.0,96.0,,,HRV,HRV_0058,2022-11-30 18:16:09
,wl-rdm,214,615803,0.0-8.96-0.96,1.0,213.0,,,,,,,[],,,,,,73.6,1.0,i,1.0,True,733.0,44.0,60.0,40.0,False,,217.8415614961518,[],"[768, 432]",ColorTask,116.0,97.0,,,HRV,HRV_0058,2022-11-30 18:16:09
,wl-rdm,215,618469,0.0-8.97-0.97,1.0,214.0,,,,,,,[],,,,,,56.4,1.0,i,1.0,True,1235.7000000476837,75.0,60.0,40.0,False,,333.9695771147916,[],"[768, 432]",ColorTask,117.0,98.0,,,HRV,HRV_0058,2022-11-30 18:16:09
,wl-rdm,216,620768,0.0-8.98-0.98,1.0,215.0,,,,,,,[],,,,,,50.0,1.0,i,1.0,True,970.2000000476837,59.0,60.0,40.0,False,,240.45174044188676,[],"[768, 432]",ColorTask,118.0,99.0,,,HRV,HRV_0058,2022-11-30 18:16:09
,wl-rdm,217,623167,0.0-8.99-0.99,1.0,216.0,,,,,,,[],,,,,,56.4,1.0,i,1.0,True,1062.7000000476837,64.0,60.0,40.0,False,,258.9716313648281,[],"[768, 432]",ColorTask,119.0,100.0,,,HRV,HRV_0058,2022-11-30 18:16:09
,wl-rdm,218,625433,0.0-8.100-0.100,1.0,217.0,,,,,,,[],,,,,,53.2,0.0,i,1.0,False,830.0999999046326,50.0,60.0,40.0,False,,356.21372533305134,[],"[768, 432]",ColorTask,118.0,101.0,,,HRV,HRV_0058,2022-11-30 18:16:09
,wl-rdm,219,627466,0.0-8.101-0.101,1.0,218.0,,,,,,,[],,,,,,50.0,0.0,i,1.0,False,711.3999998569489,43.0,60.0,40.0,False,,234.84433391021557,[],"[768, 432]",ColorTask,117.0,102.0,,,HRV,HRV_0058,2022-11-30 18:16:09
,wl-rdm,220,629632,0.0-8.102-0.102,1.0,219.0,,,,,,,[],,,,,,56.4,1.0,i,1.0,True,736.6000001430511,45.0,60.0,40.0,False,,346.02027430923715,[],"[768, 432]",ColorTask,118.0,103.0,,,HRV,HRV_0058,2022-11-30 18:16:09
,wl-rdm,221,632248,0.0-8.103-0.103,1.0,220.0,,,,,,,[],,,,,,50.0,1.0,u,0.0,False,1267.7999999523163,77.0,60.0,40.0,False,,257.30988165171345,[],"[768, 432]",ColorTask,117.0,104.0,,,HRV,HRV_0058,2022-11-30 18:16:09
,wl-rdm,222,634197,0.0-8.104-0.104,1.0,221.0,,,,,,,[],,,,,,62.5,0.0,u,0.0,True,658.3000001907349,40.0,60.0,40.0,False,,213.8464116731694,[],"[768, 432]",ColorTask,118.0,105.0,,,HRV,HRV_0058,2022-11-30 18:16:09
,wl-rdm,223,636546,0.0-8.105-0.105,1.0,222.0,,,,,,,[],,,,,,56.4,1.0,u,0.0,False,989.0,60.0,60.0,40.0,False,,271.10145072786577,[],"[768, 432]",ColorTask,117.0,106.0,,,HRV,HRV_0058,2022-11-30 18:16:09
,wl-rdm,224,638712,0.0-8.106-0.106,1.0,223.0,,,,,,,[],,,,,,73.6,0.0,u,0.0,True,710.3999998569489,43.0,60.0,40.0,False,,382.3805272190257,[],"[768, 432]",ColorTask,118.0,107.0,,,HRV,HRV_0058,2022-11-30 18:16:09
,wl-rdm,225,640728,0.0-8.107-0.107,1.0,224.0,,,,,,,[],,,,,,50.0,1.0,u,0.0,False,709.3000001907349,43.0,60.0,40.0,False,,224.64148399231448,[],"[768, 432]",ColorTask,117.0,108.0,,,HRV,HRV_0058,2022-11-30 18:16:09
,wl-rdm,226,642861,0.0-8.108-0.108,1.0,225.0,,,,,,,[],,,,,,87.9,1.0,i,1.0,True,724.4000000953674,44.0,60.0,40.0,False,,323.3468995682537,[],"[768, 432]",ColorTask,118.0,109.0,,,HRV,HRV_0058,2022-11-30 18:16:09
,wl-html-button-response,227,645401,0.0-9.0-0.0,,,,,,,,,,2535.2999999523163,,0,,,,,,,,,,,,,,,,,,,,<h3>End of this session. Thank you!</h3><br>,['Close window'],HRV,HRV_0058,2022-11-30 18:16:09
