trialN,stimuli,trialStartTime,trialStartTime_UNIX,stimulus1,stimulus2,stimulus1Bid,stimulus2Bid,delta,selected,rt,rt_UNIX,rt_perfnow,receivedResponse,rsp,trialEndTime,trialDuration,trialEndTime_UNIX,trialDuration_UNIX,exp,subjectId,date
0,"[{'imgObject': {}, 'id': 'tacos', 'src': '/static/foodstim60/tacos.jpg', 'key': 'u', 'origWidth': 411, 'origHeight': 411, 'width': 411, 'height': 411, 'widthPercent': 0.45, 'rescaleHeight': False, 'trialN': 0, 'loaded': True, 'loadedTime': 2501.899999856949, 'positionName': 'LEFT', 'positionCoords': [326.28, 226.5], 'bid': 7.96}, {'imgObject': {}, 'id': 'yogurt no spoon', 'src': '/static/foodstim60/yogurt no spoon.jpg', 'key': 'i', 'origWidth': 411, 'origHeight': 410, 'width': 411, 'height': 410, 'widthPercent': 0.45, 'rescaleHeight': False, 'trialN': 0, 'loaded': True, 'loadedTime': 2518.5, 'positionName': 'RIGHT', 'positionCoords': [798.72, 227], 'bid': 7.69}]",2833.0,1669830142342,tacos,yogurt no spoon,7.96,7.69,-0.2699999999999996,tacos,1124.2000000476837,1125,1124.7999999523163,True,u,4467.700000047684,1634.7000000476837,1669830143977,1635,HRV,HRV_0058,2022-11-30 17:49:01
1,"[{'imgObject': {}, 'id': 'kiwi', 'src': '/static/foodstim60/kiwi.jpg', 'key': 'u', 'origWidth': 410, 'origHeight': 410, 'width': 410, 'height': 410, 'widthPercent': 0.45, 'rescaleHeight': False, 'trialN': 1, 'loaded': True, 'loadedTime': 2520.2000000476837, 'positionName': 'LEFT', 'positionCoords': [327.28, 227], 'bid': 9.25}, {'imgObject': {}, 'id': 'Tribe humus pita', 'src': '/static/foodstim60/Tribe humus pita.jpg', 'key': 'i', 'origWidth': 411, 'origHeight': 411, 'width': 411, 'height': 411, 'widthPercent': 0.45, 'rescaleHeight': False, 'trialN': 1, 'loaded': True, 'loadedTime': 2526.899999856949, 'positionName': 'RIGHT', 'positionCoords': [798.72, 226.5], 'bid': 8.88}]",4468.0,1669830143977,kiwi,Tribe humus pita,9.25,8.88,-0.3699999999999992,Tribe humus pita,2153.399999856949,2154,2153.7999999523163,True,i,7128.899999856949,2660.899999856949,1669830146638,2661,HRV,HRV_0058,2022-11-30 17:49:01
2,"[{'imgObject': {}, 'id': 'yogurt no spoon', 'src': '/static/foodstim60/yogurt no spoon.jpg', 'key': 'u', 'origWidth': 411, 'origHeight': 410, 'width': 411, 'height': 410, 'widthPercent': 0.45, 'rescaleHeight': False, 'trialN': 2, 'loaded': True, 'loadedTime': 2519.399999856949, 'positionName': 'LEFT', 'positionCoords': [326.28, 227], 'bid': 7.69}, {'imgObject': {}, 'id': 'chickenfingers', 'src': '/static/foodstim60/chickenfingers.jpg', 'key': 'i', 'origWidth': 410, 'origHeight': 410, 'width': 410, 'height': 410, 'widthPercent': 0.45, 'rescaleHeight': False, 'trialN': 2, 'loaded': True, 'loadedTime': 2527.2000000476837, 'positionName': 'RIGHT', 'positionCoords': [798.72, 227], 'bid': 9.44}]",7129.200000047684,1669830146638,yogurt no spoon,chickenfingers,7.69,9.44,1.7499999999999991,chickenfingers,722.6999998092651,723,723.0,True,i,8370.099999904633,1240.8999998569489,1669830147879,1241,HRV,HRV_0058,2022-11-30 17:49:01
3,"[{'imgObject': {}, 'id': 'steak', 'src': '/static/foodstim60/steak.jpg', 'key': 'u', 'origWidth': 410, 'origHeight': 410, 'width': 410, 'height': 410, 'widthPercent': 0.45, 'rescaleHeight': False, 'trialN': 3, 'loaded': True, 'loadedTime': 2532.2000000476837, 'positionName': 'LEFT', 'positionCoords': [327.28, 227], 'bid': 8.48}, {'imgObject': {}, 'id': 'seaweed', 'src': '/static/foodstim60/seaweed.jpg', 'key': 'i', 'origWidth': 410, 'origHeight': 410, 'width': 410, 'height': 410, 'widthPercent': 0.45, 'rescaleHeight': False, 'trialN': 3, 'loaded': True, 'loadedTime': 2532.899999856949, 'positionName': 'RIGHT', 'positionCoords': [798.72, 227], 'bid': 5.61}]",8370.399999856949,1669830147879,steak,seaweed,8.48,5.61,-2.87,steak,1237.2000000476837,1238,1237.5,True,u,10119.5,1749.1000001430511,1669830149629,1750,HRV,HRV_0058,2022-11-30 17:49:01
4,"[{'imgObject': {}, 'id': 'mashed potato', 'src': '/static/foodstim60/mashed potato.jpg', 'key': 'u', 'origWidth': 409, 'origHeight': 409, 'width': 409, 'height': 409, 'widthPercent': 0.45, 'rescaleHeight': False, 'trialN': 4, 'loaded': True, 'loadedTime': 2536.899999856949, 'positionName': 'LEFT', 'positionCoords': [328.28, 227.5], 'bid': 5.66}, {'imgObject': {}, 'id': 'cherries', 'src': '/static/foodstim60/cherries.jpg', 'key': 'i', 'origWidth': 410, 'origHeight': 411, 'width': 410, 'height': 411, 'widthPercent': 0.45, 'rescaleHeight': False, 'trialN': 4, 'loaded': True, 'loadedTime': 2540, 'positionName': 'RIGHT', 'positionCoords': [798.72, 226.5], 'bid': 8.63}]",10119.799999952316,1669830149629,mashed potato,cherries,5.66,8.63,2.9700000000000006,cherries,1068.7000000476837,1069,1068.9000000953674,True,i,11691.399999856949,1571.5999999046326,1669830151200,1571,HRV,HRV_0058,2022-11-30 17:49:01
5,"[{'imgObject': {}, 'id': 'sushi w_condiments', 'src': '/static/foodstim60/sushi w_condiments.jpg', 'key': 'u', 'origWidth': 410, 'origHeight': 410, 'width': 410, 'height': 410, 'widthPercent': 0.45, 'rescaleHeight': False, 'trialN': 5, 'loaded': True, 'loadedTime': 2541.5, 'positionName': 'LEFT', 'positionCoords': [327.28, 227], 'bid': 9.73}, {'imgObject': {}, 'id': 'blueberries', 'src': '/static/foodstim60/blueberries.jpg', 'key': 'i', 'origWidth': 411, 'origHeight': 411, 'width': 411, 'height': 411, 'widthPercent': 0.45, 'rescaleHeight': False, 'trialN': 5, 'loaded': True, 'loadedTime': 2543.399999856949, 'positionName': 'RIGHT', 'positionCoords': [798.72, 226.5], 'bid': 9.85}]",11691.899999856949,1669830151201,sushi w_condiments,blueberries,9.73,9.85,0.11999999999999922,sushi w_condiments,682.2000000476837,683,682.6000001430511,True,u,12883.700000047684,1191.8000001907349,1669830152393,1192,HRV,HRV_0058,2022-11-30 17:49:01
6,"[{'imgObject': {}, 'id': 'yogurt no spoon', 'src': '/static/foodstim60/yogurt no spoon.jpg', 'key': 'u', 'origWidth': 411, 'origHeight': 410, 'width': 411, 'height': 410, 'widthPercent': 0.45, 'rescaleHeight': False, 'trialN': 6, 'loaded': True, 'loadedTime': 2519.899999856949, 'positionName': 'LEFT', 'positionCoords': [326.28, 227], 'bid': 7.69}, {'imgObject': {}, 'id': 'raisin bran w milk', 'src': '/static/foodstim60/raisin bran w milk.jpg', 'key': 'i', 'origWidth': 411, 'origHeight': 411, 'width': 411, 'height': 411, 'widthPercent': 0.45, 'rescaleHeight': False, 'trialN': 6, 'loaded': True, 'loadedTime': 2545.399999856949, 'positionName': 'RIGHT', 'positionCoords': [798.72, 226.5], 'bid': 5.09}]",12884.099999904633,1669830152393,yogurt no spoon,raisin bran w milk,7.69,5.09,-2.6000000000000005,yogurt no spoon,1218.5,1219,1218.7999999523163,True,u,14607.0,1722.9000000953674,1669830154116,1723,HRV,HRV_0058,2022-11-30 17:49:01
7,"[{'imgObject': {}, 'id': 'sweetpotato', 'src': '/static/foodstim60/sweetpotato.jpg', 'key': 'u', 'origWidth': 410, 'origHeight': 410, 'width': 410, 'height': 410, 'widthPercent': 0.45, 'rescaleHeight': False, 'trialN': 7, 'loaded': True, 'loadedTime': 2549, 'positionName': 'LEFT', 'positionCoords': [327.28, 227], 'bid': 5.88}, {'imgObject': {}, 'id': 'hotdog w must', 'src': '/static/foodstim60/hotdog w must.jpg', 'key': 'i', 'origWidth': 409, 'origHeight': 409, 'width': 409, 'height': 409, 'widthPercent': 0.45, 'rescaleHeight': False, 'trialN': 7, 'loaded': True, 'loadedTime': 2551.399999856949, 'positionName': 'RIGHT', 'positionCoords': [798.72, 227.5], 'bid': 6.82}]",14607.299999952316,1669830154116,sweetpotato,hotdog w must,5.88,6.82,0.9400000000000004,hotdog w must,912.7000000476837,913,913.0999999046326,True,i,16029.599999904633,1422.2999999523163,1669830155539,1423,HRV,HRV_0058,2022-11-30 17:49:01
8,"[{'imgObject': {}, 'id': 'froot loops w milk', 'src': '/static/foodstim60/froot loops w milk.jpg', 'key': 'u', 'origWidth': 410, 'origHeight': 410, 'width': 410, 'height': 410, 'widthPercent': 0.45, 'rescaleHeight': False, 'trialN': 8, 'loaded': True, 'loadedTime': 2558.2000000476837, 'positionName': 'LEFT', 'positionCoords': [327.28, 227], 'bid': 4.7}, {'imgObject': {}, 'id': 'raisin bran w milk', 'src': '/static/foodstim60/raisin bran w milk.jpg', 'key': 'i', 'origWidth': 411, 'origHeight': 411, 'width': 411, 'height': 411, 'widthPercent': 0.45, 'rescaleHeight': False, 'trialN': 8, 'loaded': True, 'loadedTime': 2544.2000000476837, 'positionName': 'RIGHT', 'positionCoords': [798.72, 226.5], 'bid': 5.09}]",16029.799999952316,1669830155539,froot loops w milk,raisin bran w milk,4.7,5.09,0.3899999999999997,raisin bran w milk,1475.7000000476837,1476,1476.0,True,i,18020.89999985695,1991.0999999046326,1669830157530,1991,HRV,HRV_0058,2022-11-30 17:49:01
9,"[{'imgObject': {}, 'id': 'rigatoni and sauce', 'src': '/static/foodstim60/rigatoni and sauce.jpg', 'key': 'u', 'origWidth': 410, 'origHeight': 411, 'width': 410, 'height': 411, 'widthPercent': 0.45, 'rescaleHeight': False, 'trialN': 9, 'loaded': True, 'loadedTime': 2570.899999856949, 'positionName': 'LEFT', 'positionCoords': [327.28, 226.5], 'bid': 6.48}, {'imgObject': {}, 'id': 'blackbeanswithrice', 'src': '/static/foodstim60/blackbeanswithrice.jpg', 'key': 'i', 'origWidth': 410, 'origHeight': 410, 'width': 410, 'height': 410, 'widthPercent': 0.45, 'rescaleHeight': False, 'trialN': 9, 'loaded': True, 'loadedTime': 2580.899999856949, 'positionName': 'RIGHT', 'positionCoords': [798.72, 227], 'bid': 4.89}]",18021.200000047684,1669830157530,rigatoni and sauce,blackbeanswithrice,6.48,4.89,-1.5900000000000007,rigatoni and sauce,971.2999999523163,972,971.5999999046326,True,u,19495.0,1473.7999999523163,1669830159004,1474,HRV,HRV_0058,2022-11-30 17:49:01
10,"[{'imgObject': {}, 'id': 'mango', 'src': '/static/foodstim60/mango.jpg', 'key': 'u', 'origWidth': 411, 'origHeight': 411, 'width': 411, 'height': 411, 'widthPercent': 0.45, 'rescaleHeight': False, 'trialN': 10, 'loaded': True, 'loadedTime': 2590.0999999046326, 'positionName': 'LEFT', 'positionCoords': [326.28, 226.5], 'bid': 7.65}, {'imgObject': {}, 'id': 'cocktailshrimp', 'src': '/static/foodstim60/cocktailshrimp.jpg', 'key': 'i', 'origWidth': 410, 'origHeight': 410, 'width': 410, 'height': 410, 'widthPercent': 0.45, 'rescaleHeight': False, 'trialN': 10, 'loaded': True, 'loadedTime': 2590.5999999046326, 'positionName': 'RIGHT', 'positionCoords': [798.72, 227], 'bid': 7.65}]",19495.299999952316,1669830159004,mango,cocktailshrimp,7.65,7.65,0.0,cocktailshrimp,2181.4000000953674,2183,2182.2000000476837,True,i,22187.099999904633,2691.7999999523163,1669830161696,2692,HRV,HRV_0058,2022-11-30 17:49:01
11,"[{'imgObject': {}, 'id': 'cantaloupe', 'src': '/static/foodstim60/cantaloupe.jpg', 'key': 'u', 'origWidth': 409, 'origHeight': 409, 'width': 409, 'height': 409, 'widthPercent': 0.45, 'rescaleHeight': False, 'trialN': 11, 'loaded': True, 'loadedTime': 2601, 'positionName': 'LEFT', 'positionCoords': [328.28, 227.5], 'bid': 7.04}, {'imgObject': {}, 'id': 'veggieswithdip', 'src': '/static/foodstim60/veggieswithdip.jpg', 'key': 'i', 'origWidth': 409, 'origHeight': 409, 'width': 409, 'height': 409, 'widthPercent': 0.45, 'rescaleHeight': False, 'trialN': 11, 'loaded': True, 'loadedTime': 2614.7999999523163, 'positionName': 'RIGHT', 'positionCoords': [798.72, 227.5], 'bid': 6.74}]",22187.299999952316,1669830161696,cantaloupe,veggieswithdip,7.04,6.74,-0.2999999999999998,veggieswithdip,2855.7000000476837,2856,2856.0999999046326,True,i,25557.299999952316,3370.0,1669830165066,3370,HRV,HRV_0058,2022-11-30 17:49:01
12,"[{'imgObject': {}, 'id': 'cantaloupe', 'src': '/static/foodstim60/cantaloupe.jpg', 'key': 'u', 'origWidth': 409, 'origHeight': 409, 'width': 409, 'height': 409, 'widthPercent': 0.45, 'rescaleHeight': False, 'trialN': 12, 'loaded': True, 'loadedTime': 2603.5999999046326, 'positionName': 'LEFT', 'positionCoords': [328.28, 227.5], 'bid': 7.04}, {'imgObject': {}, 'id': 'rigatoni', 'src': '/static/foodstim60/rigatoni.jpg', 'key': 'i', 'origWidth': 411, 'origHeight': 411, 'width': 411, 'height': 411, 'widthPercent': 0.45, 'rescaleHeight': False, 'trialN': 12, 'loaded': True, 'loadedTime': 2623.2999999523163, 'positionName': 'RIGHT', 'positionCoords': [798.72, 226.5], 'bid': 4.42}]",25557.5,1669830165067,cantaloupe,rigatoni,7.04,4.42,-2.62,cantaloupe,922.5999999046326,922,922.8999998569489,True,u,26983.89999985695,1426.3999998569489,1669830166493,1426,HRV,HRV_0058,2022-11-30 17:49:01
13,"[{'imgObject': {}, 'id': 'Grapes', 'src': '/static/foodstim60/Grapes.jpg', 'key': 'u', 'origWidth': 411, 'origHeight': 411, 'width': 411, 'height': 411, 'widthPercent': 0.45, 'rescaleHeight': False, 'trialN': 13, 'loaded': True, 'loadedTime': 2641, 'positionName': 'LEFT', 'positionCoords': [326.28, 226.5], 'bid': 7.57}, {'imgObject': {}, 'id': 'turkeysandwich', 'src': '/static/foodstim60/turkeysandwich.jpg', 'key': 'i', 'origWidth': 409, 'origHeight': 409, 'width': 409, 'height': 409, 'widthPercent': 0.45, 'rescaleHeight': False, 'trialN': 13, 'loaded': True, 'loadedTime': 2641.2000000476837, 'positionName': 'RIGHT', 'positionCoords': [798.72, 227.5], 'bid': 7.12}]",26984.200000047684,1669830166493,Grapes,turkeysandwich,7.57,7.12,-0.4500000000000002,Grapes,1206.5999999046326,1207,1206.8999998569489,True,u,28702.099999904633,1717.8999998569489,1669830168211,1718,HRV,HRV_0058,2022-11-30 17:49:01
14,"[{'imgObject': {}, 'id': 'luckycharms', 'src': '/static/foodstim60/luckycharms.jpg', 'key': 'u', 'origWidth': 410, 'origHeight': 409, 'width': 410, 'height': 409, 'widthPercent': 0.45, 'rescaleHeight': False, 'trialN': 14, 'loaded': True, 'loadedTime': 2652.7999999523163, 'positionName': 'LEFT', 'positionCoords': [327.28, 227.5], 'bid': 5}, {'imgObject': {}, 'id': 'mango', 'src': '/static/foodstim60/mango.jpg', 'key': 'i', 'origWidth': 411, 'origHeight': 411, 'width': 411, 'height': 411, 'widthPercent': 0.45, 'rescaleHeight': False, 'trialN': 14, 'loaded': True, 'loadedTime': 2588.5999999046326, 'positionName': 'RIGHT', 'positionCoords': [798.72, 226.5], 'bid': 7.65}]",28702.39999985695,1669830168211,luckycharms,mango,5.0,7.65,2.6500000000000004,mango,2062.800000190735,2063,2063.0,True,i,31284.0,2581.600000143051,1669830170793,2582,HRV,HRV_0058,2022-11-30 17:49:01
15,"[{'imgObject': {}, 'id': 'blueberries', 'src': '/static/foodstim60/blueberries.jpg', 'key': 'u', 'origWidth': 411, 'origHeight': 411, 'width': 411, 'height': 411, 'widthPercent': 0.45, 'rescaleHeight': False, 'trialN': 15, 'loaded': True, 'loadedTime': 2543.7999999523163, 'positionName': 'LEFT', 'positionCoords': [326.28, 226.5], 'bid': 9.85}, {'imgObject': {}, 'id': 'steak', 'src': '/static/foodstim60/steak.jpg', 'key': 'i', 'origWidth': 410, 'origHeight': 410, 'width': 410, 'height': 410, 'widthPercent': 0.45, 'rescaleHeight': False, 'trialN': 15, 'loaded': True, 'loadedTime': 2532.5, 'positionName': 'RIGHT', 'positionCoords': [798.72, 227], 'bid': 8.48}]",31284.200000047684,1669830170793,blueberries,steak,9.85,8.48,-1.3699999999999992,steak,1267.5999999046326,1268,1268.0999999046326,True,i,33068.200000047684,1784.0,1669830172577,1784,HRV,HRV_0058,2022-11-30 17:49:01
16,"[{'imgObject': {}, 'id': 'grilled chicken strips', 'src': '/static/foodstim60/grilled chicken strips.jpg', 'key': 'u', 'origWidth': 410, 'origHeight': 411, 'width': 410, 'height': 411, 'widthPercent': 0.45, 'rescaleHeight': False, 'trialN': 16, 'loaded': True, 'loadedTime': 2662.7999999523163, 'positionName': 'LEFT', 'positionCoords': [327.28, 226.5], 'bid': 6.79}, {'imgObject': {}, 'id': 'mac & cheese', 'src': '/static/foodstim60/mac & cheese.jpg', 'key': 'i', 'origWidth': 410, 'origHeight': 410, 'width': 410, 'height': 410, 'widthPercent': 0.45, 'rescaleHeight': False, 'trialN': 16, 'loaded': True, 'loadedTime': 2671.5, 'positionName': 'RIGHT', 'positionCoords': [798.72, 227], 'bid': 6.4}]",33068.59999990463,1669830172577,grilled chicken strips,mac & cheese,6.79,6.4,-0.3899999999999997,grilled chicken strips,2969.4000000953674,2970,2969.7999999523163,True,u,36545.39999985695,3476.7999999523163,1669830176054,3477,HRV,HRV_0058,2022-11-30 17:49:01
17,"[{'imgObject': {}, 'id': 'turkeysandwich', 'src': '/static/foodstim60/turkeysandwich.jpg', 'key': 'u', 'origWidth': 409, 'origHeight': 409, 'width': 409, 'height': 409, 'widthPercent': 0.45, 'rescaleHeight': False, 'trialN': 17, 'loaded': True, 'loadedTime': 2642.2000000476837, 'positionName': 'LEFT', 'positionCoords': [328.28, 227.5], 'bid': 7.12}, {'imgObject': {}, 'id': 'edamame', 'src': '/static/foodstim60/edamame.jpg', 'key': 'i', 'origWidth': 409, 'origHeight': 410, 'width': 409, 'height': 410, 'widthPercent': 0.45, 'rescaleHeight': False, 'trialN': 17, 'loaded': True, 'loadedTime': 2673.899999856949, 'positionName': 'RIGHT', 'positionCoords': [798.72, 227], 'bid': 7.2}]",36545.700000047684,1669830176055,turkeysandwich,edamame,7.12,7.2,0.08000000000000007,turkeysandwich,3169.199999809265,3169,3169.5,True,u,40229.799999952316,3684.0999999046326,1669830179739,3684,HRV,HRV_0058,2022-11-30 17:49:01
18,"[{'imgObject': {}, 'id': 'cocktailshrimp', 'src': '/static/foodstim60/cocktailshrimp.jpg', 'key': 'u', 'origWidth': 410, 'origHeight': 410, 'width': 410, 'height': 410, 'widthPercent': 0.45, 'rescaleHeight': False, 'trialN': 18, 'loaded': True, 'loadedTime': 2592.0999999046326, 'positionName': 'LEFT', 'positionCoords': [327.28, 227], 'bid': 7.65}, {'imgObject': {}, 'id': 'bagel plain', 'src': '/static/foodstim60/bagel plain.jpg', 'key': 'i', 'origWidth': 410, 'origHeight': 410, 'width': 410, 'height': 410, 'widthPercent': 0.45, 'rescaleHeight': False, 'trialN': 18, 'loaded': True, 'loadedTime': 2685.2000000476837, 'positionName': 'RIGHT', 'positionCoords': [798.72, 227], 'bid': 5.05}]",40230.09999990463,1669830179739,cocktailshrimp,bagel plain,7.65,5.05,-2.6000000000000005,cocktailshrimp,787.2999999523163,788,787.7000000476837,True,u,41524.59999990463,1294.5,1669830181033,1294,HRV,HRV_0058,2022-11-30 17:49:01
19,"[{'imgObject': {}, 'id': 'hashbrowns', 'src': '/static/foodstim60/hashbrowns.jpg', 'key': 'u', 'origWidth': 411, 'origHeight': 410, 'width': 411, 'height': 410, 'widthPercent': 0.45, 'rescaleHeight': False, 'trialN': 19, 'loaded': True, 'loadedTime': 2686.0999999046326, 'positionName': 'LEFT', 'positionCoords': [326.28, 227], 'bid': 4.01}, {'imgObject': {}, 'id': 'granola w milk', 'src': '/static/foodstim60/granola w milk.jpg', 'key': 'i', 'origWidth': 410, 'origHeight': 410, 'width': 410, 'height': 410, 'widthPercent': 0.45, 'rescaleHeight': False, 'trialN': 19, 'loaded': True, 'loadedTime': 2707.2999999523163, 'positionName': 'RIGHT', 'positionCoords': [798.72, 227], 'bid': 4.93}]",41524.89999985695,1669830181034,hashbrowns,granola w milk,4.01,4.93,0.9199999999999999,granola w milk,1974.6000001430511,1975,1974.9000000953674,True,i,44011.799999952316,2486.9000000953674,1669830183521,2487,HRV,HRV_0058,2022-11-30 17:49:01
20,"[{'imgObject': {}, 'id': 'kiwi', 'src': '/static/foodstim60/kiwi.jpg', 'key': 'u', 'origWidth': 410, 'origHeight': 410, 'width': 410, 'height': 410, 'widthPercent': 0.45, 'rescaleHeight': False, 'trialN': 20, 'loaded': True, 'loadedTime': 2523.399999856949, 'positionName': 'LEFT', 'positionCoords': [327.28, 227], 'bid': 9.25}, {'imgObject': {}, 'id': 'salmon', 'src': '/static/foodstim60/salmon.jpg', 'key': 'i', 'origWidth': 410, 'origHeight': 409, 'width': 410, 'height': 409, 'widthPercent': 0.45, 'rescaleHeight': False, 'trialN': 20, 'loaded': True, 'loadedTime': 2709, 'positionName': 'RIGHT', 'positionCoords': [798.72, 227.5], 'bid': 8.84}]",44012.0,1669830183521,kiwi,salmon,9.25,8.84,-0.41000000000000014,salmon,1086.2000000476837,1086,1086.5999999046326,True,i,45611.0,1599.0,1669830185120,1599,HRV,HRV_0058,2022-11-30 17:49:01
21,"[{'imgObject': {}, 'id': 'luckycharms', 'src': '/static/foodstim60/luckycharms.jpg', 'key': 'u', 'origWidth': 410, 'origHeight': 409, 'width': 410, 'height': 409, 'widthPercent': 0.45, 'rescaleHeight': False, 'trialN': 21, 'loaded': True, 'loadedTime': 2651.5, 'positionName': 'LEFT', 'positionCoords': [327.28, 227.5], 'bid': 5}, {'imgObject': {}, 'id': 'bagel plain', 'src': '/static/foodstim60/bagel plain.jpg', 'key': 'i', 'origWidth': 410, 'origHeight': 410, 'width': 410, 'height': 410, 'widthPercent': 0.45, 'rescaleHeight': False, 'trialN': 21, 'loaded': True, 'loadedTime': 2685.7000000476837, 'positionName': 'RIGHT', 'positionCoords': [798.72, 227], 'bid': 5.05}]",45611.200000047684,1669830185120,luckycharms,bagel plain,5.0,5.05,0.04999999999999982,NaN,NaN,NaN,,False,NaN,49649.299999952316,4038.0999999046326,1669830189158,4038,HRV,HRV_0058,2022-11-30 17:49:01
22,"[{'imgObject': {}, 'id': 'yogurt no spoon', 'src': '/static/foodstim60/yogurt no spoon.jpg', 'key': 'u', 'origWidth': 411, 'origHeight': 410, 'width': 411, 'height': 410, 'widthPercent': 0.45, 'rescaleHeight': False, 'trialN': 22, 'loaded': True, 'loadedTime': 2517.2000000476837, 'positionName': 'LEFT', 'positionCoords': [326.28, 227], 'bid': 7.69}, {'imgObject': {}, 'id': 'mango', 'src': '/static/foodstim60/mango.jpg', 'key': 'i', 'origWidth': 411, 'origHeight': 411, 'width': 411, 'height': 411, 'widthPercent': 0.45, 'rescaleHeight': False, 'trialN': 22, 'loaded': True, 'loadedTime': 2590.2999999523163, 'positionName': 'RIGHT', 'positionCoords': [798.72, 226.5], 'bid': 7.65}]",49649.59999990463,1669830189158,yogurt no spoon,mango,7.69,7.65,-0.040000000000000036,yogurt no spoon,1421.4000000953674,1422,1421.7000000476837,True,u,51576.09999990463,1926.5,1669830191085,1927,HRV,HRV_0058,2022-11-30 17:49:01
23,"[{'imgObject': {}, 'id': 'omelette', 'src': '/static/foodstim60/omelette.jpg', 'key': 'u', 'origWidth': 410, 'origHeight': 409, 'width': 410, 'height': 409, 'widthPercent': 0.45, 'rescaleHeight': False, 'trialN': 23, 'loaded': True, 'loadedTime': 2719.399999856949, 'positionName': 'LEFT', 'positionCoords': [327.28, 227.5], 'bid': 7.27}, {'imgObject': {}, 'id': 'kiwi', 'src': '/static/foodstim60/kiwi.jpg', 'key': 'i', 'origWidth': 410, 'origHeight': 410, 'width': 410, 'height': 410, 'widthPercent': 0.45, 'rescaleHeight': False, 'trialN': 23, 'loaded': True, 'loadedTime': 2524.7000000476837, 'positionName': 'RIGHT', 'positionCoords': [798.72, 227], 'bid': 9.25}]",51576.299999952316,1669830191085,omelette,kiwi,7.27,9.25,1.9800000000000004,omelette,1115.2999999523163,1116,1115.5999999046326,True,u,53202.5,1626.2000000476837,1669830192711,1626,HRV,HRV_0058,2022-11-30 17:49:01
24,"[{'imgObject': {}, 'id': 'salad w chicken', 'src': '/static/foodstim60/salad w chicken.jpg', 'key': 'u', 'origWidth': 411, 'origHeight': 411, 'width': 411, 'height': 411, 'widthPercent': 0.45, 'rescaleHeight': False, 'trialN': 24, 'loaded': True, 'loadedTime': 2723.2000000476837, 'positionName': 'LEFT', 'positionCoords': [326.28, 226.5], 'bid': 7.26}, {'imgObject': {}, 'id': 'edamame', 'src': '/static/foodstim60/edamame.jpg', 'key': 'i', 'origWidth': 409, 'origHeight': 410, 'width': 409, 'height': 410, 'widthPercent': 0.45, 'rescaleHeight': False, 'trialN': 24, 'loaded': True, 'loadedTime': 2682.2999999523163, 'positionName': 'RIGHT', 'positionCoords': [798.72, 227], 'bid': 7.2}]",53202.59999990463,1669830192711,salad w chicken,edamame,7.26,7.2,-0.05999999999999961,salad w chicken,840.7999999523163,842,841.2999999523163,True,u,54551.299999952316,1348.7000000476837,1669830194060,1349,HRV,HRV_0058,2022-11-30 17:49:01
25,"[{'imgObject': {}, 'id': 'burrito', 'src': '/static/foodstim60/burrito.jpg', 'key': 'u', 'origWidth': 410, 'origHeight': 410, 'width': 410, 'height': 410, 'widthPercent': 0.45, 'rescaleHeight': False, 'trialN': 25, 'loaded': True, 'loadedTime': 2734.7999999523163, 'positionName': 'LEFT', 'positionCoords': [327.28, 227], 'bid': 8.75}, {'imgObject': {}, 'id': 'Tribe humus pita', 'src': '/static/foodstim60/Tribe humus pita.jpg', 'key': 'i', 'origWidth': 411, 'origHeight': 411, 'width': 411, 'height': 411, 'widthPercent': 0.45, 'rescaleHeight': False, 'trialN': 25, 'loaded': True, 'loadedTime': 2526.5999999046326, 'positionName': 'RIGHT', 'positionCoords': [798.72, 226.5], 'bid': 8.88}]",54551.59999990463,1669830194060,burrito,Tribe humus pita,8.75,8.88,0.13000000000000078,burrito,1535.4000000953674,1536,1535.9000000953674,True,u,56595.89999985695,2044.2999999523163,1669830196105,2045,HRV,HRV_0058,2022-11-30 17:49:01
26,"[{'imgObject': {}, 'id': 'strawberries', 'src': '/static/foodstim60/strawberries.jpg', 'key': 'u', 'origWidth': 410, 'origHeight': 410, 'width': 410, 'height': 410, 'widthPercent': 0.45, 'rescaleHeight': False, 'trialN': 26, 'loaded': True, 'loadedTime': 2736.2999999523163, 'positionName': 'LEFT', 'positionCoords': [327.28, 227], 'bid': 6.5600000000000005}, {'imgObject': {}, 'id': 'rigatoni and sauce', 'src': '/static/foodstim60/rigatoni and sauce.jpg', 'key': 'i', 'origWidth': 410, 'origHeight': 411, 'width': 410, 'height': 411, 'widthPercent': 0.45, 'rescaleHeight': False, 'trialN': 26, 'loaded': True, 'loadedTime': 2571.0999999046326, 'positionName': 'RIGHT', 'positionCoords': [798.72, 226.5], 'bid': 6.48}]",56596.09999990463,1669830196105,strawberries,rigatoni and sauce,6.5600000000000005,6.48,-0.08000000000000007,rigatoni and sauce,914.1000001430511,914,914.4000000953674,True,i,58029.0,1432.9000000953674,1669830197538,1433,HRV,HRV_0058,2022-11-30 17:49:01
27,"[{'imgObject': {}, 'id': 'granola w milk', 'src': '/static/foodstim60/granola w milk.jpg', 'key': 'u', 'origWidth': 410, 'origHeight': 410, 'width': 410, 'height': 410, 'widthPercent': 0.45, 'rescaleHeight': False, 'trialN': 27, 'loaded': True, 'loadedTime': 2696.399999856949, 'positionName': 'LEFT', 'positionCoords': [327.28, 227], 'bid': 4.93}, {'imgObject': {}, 'id': 'Grapes', 'src': '/static/foodstim60/Grapes.jpg', 'key': 'i', 'origWidth': 411, 'origHeight': 411, 'width': 411, 'height': 411, 'widthPercent': 0.45, 'rescaleHeight': False, 'trialN': 27, 'loaded': True, 'loadedTime': 2626.2000000476837, 'positionName': 'RIGHT', 'positionCoords': [798.72, 226.5], 'bid': 7.57}]",58029.200000047684,1669830197538,granola w milk,Grapes,4.93,7.57,2.6400000000000006,Grapes,1031.2999999523163,1032,1031.5999999046326,True,i,59570.200000047684,1541.0,1669830199079,1541,HRV,HRV_0058,2022-11-30 17:49:01
28,"[{'imgObject': {}, 'id': 'chickenfingers', 'src': '/static/foodstim60/chickenfingers.jpg', 'key': 'u', 'origWidth': 410, 'origHeight': 410, 'width': 410, 'height': 410, 'widthPercent': 0.45, 'rescaleHeight': False, 'trialN': 28, 'loaded': True, 'loadedTime': 2530.5, 'positionName': 'LEFT', 'positionCoords': [327.28, 227], 'bid': 9.44}, {'imgObject': {}, 'id': 'rigatoni and sauce', 'src': '/static/foodstim60/rigatoni and sauce.jpg', 'key': 'i', 'origWidth': 410, 'origHeight': 411, 'width': 410, 'height': 411, 'widthPercent': 0.45, 'rescaleHeight': False, 'trialN': 28, 'loaded': True, 'loadedTime': 2571, 'positionName': 'RIGHT', 'positionCoords': [798.72, 226.5], 'bid': 6.48}]",59570.39999985695,1669830199079,chickenfingers,rigatoni and sauce,9.44,6.48,-2.959999999999999,chickenfingers,592.2000000476837,593,592.6000001430511,True,u,60676.799999952316,1106.4000000953674,1669830200186,1107,HRV,HRV_0058,2022-11-30 17:49:01
29,"[{'imgObject': {}, 'id': 'roastedpotatoes', 'src': '/static/foodstim60/roastedpotatoes.jpg', 'key': 'u', 'origWidth': 409, 'origHeight': 410, 'width': 409, 'height': 410, 'widthPercent': 0.45, 'rescaleHeight': False, 'trialN': 29, 'loaded': True, 'loadedTime': 2738.399999856949, 'positionName': 'LEFT', 'positionCoords': [328.28, 227], 'bid': 6.78}, {'imgObject': {}, 'id': 'apple slices', 'src': '/static/foodstim60/apple slices.jpg', 'key': 'i', 'origWidth': 409, 'origHeight': 410, 'width': 409, 'height': 410, 'widthPercent': 0.45, 'rescaleHeight': False, 'trialN': 29, 'loaded': True, 'loadedTime': 2747.2000000476837, 'positionName': 'RIGHT', 'positionCoords': [798.72, 227], 'bid': 6.38}]",60677.0,1669830200186,roastedpotatoes,apple slices,6.78,6.38,-0.40000000000000036,roastedpotatoes,1664.8999998569489,1665,1665.2999999523163,True,u,62855.59999990463,2178.5999999046326,1669830202364,2178,HRV,HRV_0058,2022-11-30 17:49:01
30,"[{'imgObject': {}, 'id': 'tacos', 'src': '/static/foodstim60/tacos.jpg', 'key': 'u', 'origWidth': 411, 'origHeight': 411, 'width': 411, 'height': 411, 'widthPercent': 0.45, 'rescaleHeight': False, 'trialN': 30, 'loaded': True, 'loadedTime': 2501.7999999523163, 'positionName': 'LEFT', 'positionCoords': [326.28, 226.5], 'bid': 7.96}, {'imgObject': {}, 'id': 'avocado', 'src': '/static/foodstim60/avocado.jpg', 'key': 'i', 'origWidth': 409, 'origHeight': 409, 'width': 409, 'height': 409, 'widthPercent': 0.45, 'rescaleHeight': False, 'trialN': 30, 'loaded': True, 'loadedTime': 2751, 'positionName': 'RIGHT', 'positionCoords': [798.72, 227.5], 'bid': 9.45}]",62855.700000047684,1669830202365,tacos,avocado,7.96,9.45,1.4899999999999993,tacos,1609,1609,1609.2999999523163,True,u,64982.299999952316,2126.5999999046326,1669830204491,2126,HRV,HRV_0058,2022-11-30 17:49:01
31,"[{'imgObject': {}, 'id': 'cherry tomato', 'src': '/static/foodstim60/cherry tomato.jpg', 'key': 'u', 'origWidth': 410, 'origHeight': 410, 'width': 410, 'height': 410, 'widthPercent': 0.45, 'rescaleHeight': False, 'trialN': 31, 'loaded': True, 'loadedTime': 2760, 'positionName': 'LEFT', 'positionCoords': [327.28, 227], 'bid': 6.83}, {'imgObject': {}, 'id': 'cantaloupe', 'src': '/static/foodstim60/cantaloupe.jpg', 'key': 'i', 'origWidth': 409, 'origHeight': 409, 'width': 409, 'height': 409, 'widthPercent': 0.45, 'rescaleHeight': False, 'trialN': 31, 'loaded': True, 'loadedTime': 2602.0999999046326, 'positionName': 'RIGHT', 'positionCoords': [798.72, 227.5], 'bid': 7.04}]",64982.700000047684,1669830204491,cherry tomato,cantaloupe,6.83,7.04,0.20999999999999996,cantaloupe,1838,1839,1838.2999999523163,True,i,67331.5,2348.7999999523163,1669830206840,2349,HRV,HRV_0058,2022-11-30 17:49:01
32,"[{'imgObject': {}, 'id': 'turkey sandwich', 'src': '/static/foodstim60/turkey sandwich.jpg', 'key': 'u', 'origWidth': 409, 'origHeight': 409, 'width': 409, 'height': 409, 'widthPercent': 0.45, 'rescaleHeight': False, 'trialN': 32, 'loaded': True, 'loadedTime': 2761, 'positionName': 'LEFT', 'positionCoords': [328.28, 227.5], 'bid': 7.6}, {'imgObject': {}, 'id': 'Grapes', 'src': '/static/foodstim60/Grapes.jpg', 'key': 'i', 'origWidth': 411, 'origHeight': 411, 'width': 411, 'height': 411, 'widthPercent': 0.45, 'rescaleHeight': False, 'trialN': 32, 'loaded': True, 'loadedTime': 2640.7000000476837, 'positionName': 'RIGHT', 'positionCoords': [798.72, 226.5], 'bid': 7.57}]",67331.70000004768,1669830206841,turkey sandwich,Grapes,7.6,7.57,-0.02999999999999936,turkey sandwich,1532.5999999046326,1532,1532.8999998569489,True,u,69368.89999985695,2037.1999998092651,1669830208878,2037,HRV,HRV_0058,2022-11-30 17:49:01
33,"[{'imgObject': {}, 'id': 'granola w milk', 'src': '/static/foodstim60/granola w milk.jpg', 'key': 'u', 'origWidth': 410, 'origHeight': 410, 'width': 410, 'height': 410, 'widthPercent': 0.45, 'rescaleHeight': False, 'trialN': 33, 'loaded': True, 'loadedTime': 2707.399999856949, 'positionName': 'LEFT', 'positionCoords': [327.28, 227], 'bid': 4.93}, {'imgObject': {}, 'id': 'strawberries', 'src': '/static/foodstim60/strawberries.jpg', 'key': 'i', 'origWidth': 410, 'origHeight': 410, 'width': 410, 'height': 410, 'widthPercent': 0.45, 'rescaleHeight': False, 'trialN': 33, 'loaded': True, 'loadedTime': 2736.5, 'positionName': 'RIGHT', 'positionCoords': [798.72, 227], 'bid': 6.5600000000000005}]",69369.09999990463,1669830208878,granola w milk,strawberries,4.93,6.5600000000000005,1.6300000000000008,strawberries,1533.9000000953674,1534,1534.4000000953674,True,i,71413.5,2044.4000000953674,1669830210922,2044,HRV,HRV_0058,2022-11-30 17:49:01
34,"[{'imgObject': {}, 'id': 'corn cob', 'src': '/static/foodstim60/corn cob.jpg', 'key': 'u', 'origWidth': 411, 'origHeight': 411, 'width': 411, 'height': 411, 'widthPercent': 0.45, 'rescaleHeight': False, 'trialN': 34, 'loaded': True, 'loadedTime': 2772.0999999046326, 'positionName': 'LEFT', 'positionCoords': [326.28, 226.5], 'bid': 4.73}, {'imgObject': {}, 'id': 'ice cream sundae 002', 'src': '/static/foodstim60/ice cream sundae 002.jpg', 'key': 'i', 'origWidth': 409, 'origHeight': 409, 'width': 409, 'height': 409, 'widthPercent': 0.45, 'rescaleHeight': False, 'trialN': 34, 'loaded': True, 'loadedTime': 2781.2999999523163, 'positionName': 'RIGHT', 'positionCoords': [798.72, 227.5], 'bid': 4.8}]",71413.59999990463,1669830210922,corn cob,ice cream sundae 002,4.73,4.8,0.0699999999999994,corn cob,1491.9000000953674,1493,1492.1000001430511,True,u,73412.20000004768,1998.6000001430511,1669830212921,1999,HRV,HRV_0058,2022-11-30 17:49:01
35,"[{'imgObject': {}, 'id': 'corn cob', 'src': '/static/foodstim60/corn cob.jpg', 'key': 'u', 'origWidth': 411, 'origHeight': 411, 'width': 411, 'height': 411, 'widthPercent': 0.45, 'rescaleHeight': False, 'trialN': 35, 'loaded': True, 'loadedTime': 2772.5999999046326, 'positionName': 'LEFT', 'positionCoords': [326.28, 226.5], 'bid': 4.73}, {'imgObject': {}, 'id': 'hashbrowns', 'src': '/static/foodstim60/hashbrowns.jpg', 'key': 'i', 'origWidth': 411, 'origHeight': 410, 'width': 411, 'height': 410, 'widthPercent': 0.45, 'rescaleHeight': False, 'trialN': 35, 'loaded': True, 'loadedTime': 2694.899999856949, 'positionName': 'RIGHT', 'positionCoords': [798.72, 227], 'bid': 4.01}]",73412.39999985695,1669830212921,corn cob,hashbrowns,4.73,4.01,-0.7200000000000006,corn cob,914.5,915,914.8000001907349,True,u,74831.09999990463,1418.7000000476837,1669830214340,1419,HRV,HRV_0058,2022-11-30 17:49:01
36,"[{'imgObject': {}, 'id': 'veggieswithdip', 'src': '/static/foodstim60/veggieswithdip.jpg', 'key': 'u', 'origWidth': 409, 'origHeight': 409, 'width': 409, 'height': 409, 'widthPercent': 0.45, 'rescaleHeight': False, 'trialN': 36, 'loaded': True, 'loadedTime': 2615.2999999523163, 'positionName': 'LEFT', 'positionCoords': [328.28, 227.5], 'bid': 6.74}, {'imgObject': {}, 'id': 'burger', 'src': '/static/foodstim60/burger.jpg', 'key': 'i', 'origWidth': 409, 'origHeight': 409, 'width': 409, 'height': 409, 'widthPercent': 0.45, 'rescaleHeight': False, 'trialN': 36, 'loaded': True, 'loadedTime': 2782.2999999523163, 'positionName': 'RIGHT', 'positionCoords': [798.72, 227.5], 'bid': 6.71}]",74831.39999985695,1669830214340,veggieswithdip,burger,6.74,6.71,-0.03000000000000025,veggieswithdip,2970.4000000953674,2971,2970.800000190735,True,u,78323.09999990463,3491.7000000476837,1669830217832,3492,HRV,HRV_0058,2022-11-30 17:49:01
37,"[{'imgObject': {}, 'id': 'fried eggs', 'src': '/static/foodstim60/fried eggs.jpg', 'key': 'u', 'origWidth': 410, 'origHeight': 410, 'width': 410, 'height': 410, 'widthPercent': 0.45, 'rescaleHeight': False, 'trialN': 37, 'loaded': True, 'loadedTime': 2785.0999999046326, 'positionName': 'LEFT', 'positionCoords': [327.28, 227], 'bid': 6.83}, {'imgObject': {}, 'id': 'apple slices', 'src': '/static/foodstim60/apple slices.jpg', 'key': 'i', 'origWidth': 409, 'origHeight': 410, 'width': 409, 'height': 410, 'widthPercent': 0.45, 'rescaleHeight': False, 'trialN': 37, 'loaded': True, 'loadedTime': 2747.7999999523163, 'positionName': 'RIGHT', 'positionCoords': [798.72, 227], 'bid': 6.38}]",78323.20000004768,1669830217832,fried eggs,apple slices,6.83,6.38,-0.4500000000000002,fried eggs,1322.1999998092651,1323,1322.5999999046326,True,u,80159.0,1835.7999999523163,1669830219668,1836,HRV,HRV_0058,2022-11-30 17:49:01
38,"[{'imgObject': {}, 'id': 'sweetpotato', 'src': '/static/foodstim60/sweetpotato.jpg', 'key': 'u', 'origWidth': 410, 'origHeight': 410, 'width': 410, 'height': 410, 'widthPercent': 0.45, 'rescaleHeight': False, 'trialN': 38, 'loaded': True, 'loadedTime': 2548.2999999523163, 'positionName': 'LEFT', 'positionCoords': [327.28, 227], 'bid': 5.88}, {'imgObject': {}, 'id': 'raisin bran w milk', 'src': '/static/foodstim60/raisin bran w milk.jpg', 'key': 'i', 'origWidth': 411, 'origHeight': 411, 'width': 411, 'height': 411, 'widthPercent': 0.45, 'rescaleHeight': False, 'trialN': 38, 'loaded': True, 'loadedTime': 2545.0999999046326, 'positionName': 'RIGHT', 'positionCoords': [798.72, 226.5], 'bid': 5.09}]",80159.20000004768,1669830219668,sweetpotato,raisin bran w milk,5.88,5.09,-0.79,raisin bran w milk,1317.6999998092651,1318,1318.0,True,i,81983.09999990463,1823.8999998569489,1669830221492,1824,HRV,HRV_0058,2022-11-30 17:49:01
39,"[{'imgObject': {}, 'id': 'orange slices', 'src': '/static/foodstim60/orange slices.jpg', 'key': 'u', 'origWidth': 409, 'origHeight': 410, 'width': 409, 'height': 410, 'widthPercent': 0.45, 'rescaleHeight': False, 'trialN': 39, 'loaded': True, 'loadedTime': 2785.2000000476837, 'positionName': 'LEFT', 'positionCoords': [328.28, 227], 'bid': 5.84}, {'imgObject': {}, 'id': 'froot loops w milk', 'src': '/static/foodstim60/froot loops w milk.jpg', 'key': 'i', 'origWidth': 410, 'origHeight': 410, 'width': 410, 'height': 410, 'widthPercent': 0.45, 'rescaleHeight': False, 'trialN': 39, 'loaded': True, 'loadedTime': 2568.7999999523163, 'positionName': 'RIGHT', 'positionCoords': [798.72, 227], 'bid': 4.7}]",81983.5,1669830221492,orange slices,froot loops w milk,5.84,4.7,-1.1399999999999997,orange slices,1134.8999998569489,1136,1135.2999999523163,True,u,83623.29999995232,1639.7999999523163,1669830223132,1640,HRV,HRV_0058,2022-11-30 17:49:01
40,"[{'imgObject': {}, 'id': 'steak', 'src': '/static/foodstim60/steak.jpg', 'key': 'u', 'origWidth': 410, 'origHeight': 410, 'width': 410, 'height': 410, 'widthPercent': 0.45, 'rescaleHeight': False, 'trialN': 40, 'loaded': True, 'loadedTime': 2532.7999999523163, 'positionName': 'LEFT', 'positionCoords': [327.28, 227], 'bid': 8.48}, {'imgObject': {}, 'id': 'kiwi', 'src': '/static/foodstim60/kiwi.jpg', 'key': 'i', 'origWidth': 410, 'origHeight': 410, 'width': 410, 'height': 410, 'widthPercent': 0.45, 'rescaleHeight': False, 'trialN': 40, 'loaded': True, 'loadedTime': 2524.5, 'positionName': 'RIGHT', 'positionCoords': [798.72, 227], 'bid': 9.25}]",83623.70000004768,1669830223132,steak,kiwi,8.48,9.25,0.7699999999999996,steak,893.1999998092651,894,893.5999999046326,True,u,85026.29999995232,1402.5999999046326,1669830224535,1403,HRV,HRV_0058,2022-11-30 17:49:01
41,"[{'imgObject': {}, 'id': 'yogurt no spoon', 'src': '/static/foodstim60/yogurt no spoon.jpg', 'key': 'u', 'origWidth': 411, 'origHeight': 410, 'width': 411, 'height': 410, 'widthPercent': 0.45, 'rescaleHeight': False, 'trialN': 41, 'loaded': True, 'loadedTime': 2518.5999999046326, 'positionName': 'LEFT', 'positionCoords': [326.28, 227], 'bid': 7.69}, {'imgObject': {}, 'id': 'omelette', 'src': '/static/foodstim60/omelette.jpg', 'key': 'i', 'origWidth': 410, 'origHeight': 409, 'width': 410, 'height': 409, 'widthPercent': 0.45, 'rescaleHeight': False, 'trialN': 41, 'loaded': True, 'loadedTime': 2719.7000000476837, 'positionName': 'RIGHT', 'positionCoords': [798.72, 227.5], 'bid': 7.27}]",85026.5,1669830224535,yogurt no spoon,omelette,7.69,7.27,-0.4200000000000008,omelette,771.7999999523163,773,772.2000000476837,True,i,86310.20000004768,1283.7000000476837,1669830225819,1284,HRV,HRV_0058,2022-11-30 17:49:01
42,"[{'imgObject': {}, 'id': 'avocado', 'src': '/static/foodstim60/avocado.jpg', 'key': 'u', 'origWidth': 409, 'origHeight': 409, 'width': 409, 'height': 409, 'widthPercent': 0.45, 'rescaleHeight': False, 'trialN': 42, 'loaded': True, 'loadedTime': 2750.7999999523163, 'positionName': 'LEFT', 'positionCoords': [328.28, 227.5], 'bid': 9.45}, {'imgObject': {}, 'id': 'blueberries', 'src': '/static/foodstim60/blueberries.jpg', 'key': 'i', 'origWidth': 411, 'origHeight': 411, 'width': 411, 'height': 411, 'widthPercent': 0.45, 'rescaleHeight': False, 'trialN': 42, 'loaded': True, 'loadedTime': 2544, 'positionName': 'RIGHT', 'positionCoords': [798.72, 226.5], 'bid': 9.85}]",86310.5,1669830225819,avocado,blueberries,9.45,9.85,0.40000000000000036,avocado,672.2000000476837,673,672.7000000476837,True,u,87498.20000004768,1187.7000000476837,1669830227007,1188,HRV,HRV_0058,2022-11-30 17:49:01
43,"[{'imgObject': {}, 'id': 'baked potato', 'src': '/static/foodstim60/baked potato.jpg', 'key': 'u', 'origWidth': 409, 'origHeight': 410, 'width': 409, 'height': 410, 'widthPercent': 0.45, 'rescaleHeight': False, 'trialN': 43, 'loaded': True, 'loadedTime': 2795.2000000476837, 'positionName': 'LEFT', 'positionCoords': [328.28, 227], 'bid': 4.23}, {'imgObject': {}, 'id': 'shreddedwheatwithmilk', 'src': '/static/foodstim60/shreddedwheatwithmilk.jpg', 'key': 'i', 'origWidth': 410, 'origHeight': 410, 'width': 410, 'height': 410, 'widthPercent': 0.45, 'rescaleHeight': False, 'trialN': 43, 'loaded': True, 'loadedTime': 2804.2000000476837, 'positionName': 'RIGHT', 'positionCoords': [798.72, 227], 'bid': 4.93}]",87498.5,1669830227008,baked potato,shreddedwheatwithmilk,4.23,4.93,0.6999999999999993,shreddedwheatwithmilk,1928.5,1928,1928.7999999523163,True,i,89941.20000004768,2442.7000000476837,1669830229450,2442,HRV,HRV_0058,2022-11-30 17:49:01
44,"[{'imgObject': {}, 'id': 'grilled chicken strips', 'src': '/static/foodstim60/grilled chicken strips.jpg', 'key': 'u', 'origWidth': 410, 'origHeight': 411, 'width': 410, 'height': 411, 'widthPercent': 0.45, 'rescaleHeight': False, 'trialN': 44, 'loaded': True, 'loadedTime': 2662.2999999523163, 'positionName': 'LEFT', 'positionCoords': [327.28, 226.5], 'bid': 6.79}, {'imgObject': {}, 'id': 'roastedpotatoes', 'src': '/static/foodstim60/roastedpotatoes.jpg', 'key': 'i', 'origWidth': 409, 'origHeight': 410, 'width': 409, 'height': 410, 'widthPercent': 0.45, 'rescaleHeight': False, 'trialN': 44, 'loaded': True, 'loadedTime': 2746.0999999046326, 'positionName': 'RIGHT', 'positionCoords': [798.72, 227], 'bid': 6.78}]",89941.5,1669830229451,grilled chicken strips,roastedpotatoes,6.79,6.78,-0.009999999999999787,grilled chicken strips,1719.0999999046326,1719,1719.2999999523163,True,u,92167.20000004768,2225.7000000476837,1669830231676,2225,HRV,HRV_0058,2022-11-30 17:49:01
45,"[{'imgObject': {}, 'id': 'burrito', 'src': '/static/foodstim60/burrito.jpg', 'key': 'u', 'origWidth': 410, 'origHeight': 410, 'width': 410, 'height': 410, 'widthPercent': 0.45, 'rescaleHeight': False, 'trialN': 45, 'loaded': True, 'loadedTime': 2735, 'positionName': 'LEFT', 'positionCoords': [327.28, 227], 'bid': 8.75}, {'imgObject': {}, 'id': 'Grapes', 'src': '/static/foodstim60/Grapes.jpg', 'key': 'i', 'origWidth': 411, 'origHeight': 411, 'width': 411, 'height': 411, 'widthPercent': 0.45, 'rescaleHeight': False, 'trialN': 45, 'loaded': True, 'loadedTime': 2639.5999999046326, 'positionName': 'RIGHT', 'positionCoords': [798.72, 226.5], 'bid': 7.57}]",92167.39999985695,1669830231677,burrito,Grapes,8.75,7.57,-1.1799999999999997,burrito,758.6000001430511,759,758.9000000953674,True,u,93436.59999990463,1269.2000000476837,1669830232946,1269,HRV,HRV_0058,2022-11-30 17:49:01
46,"[{'imgObject': {}, 'id': 'cocktailshrimp', 'src': '/static/foodstim60/cocktailshrimp.jpg', 'key': 'u', 'origWidth': 410, 'origHeight': 410, 'width': 410, 'height': 410, 'widthPercent': 0.45, 'rescaleHeight': False, 'trialN': 46, 'loaded': True, 'loadedTime': 2591.5999999046326, 'positionName': 'LEFT', 'positionCoords': [327.28, 227], 'bid': 7.65}, {'imgObject': {}, 'id': 'kiwi', 'src': '/static/foodstim60/kiwi.jpg', 'key': 'i', 'origWidth': 410, 'origHeight': 410, 'width': 410, 'height': 410, 'widthPercent': 0.45, 'rescaleHeight': False, 'trialN': 46, 'loaded': True, 'loadedTime': 2523.7999999523163, 'positionName': 'RIGHT', 'positionCoords': [798.72, 227], 'bid': 9.25}]",93436.89999985695,1669830232946,cocktailshrimp,kiwi,7.65,9.25,1.5999999999999996,cocktailshrimp,1126.6000001430511,1127,1127.1000001430511,True,u,95073.59999990463,1636.7000000476837,1669830234583,1637,HRV,HRV_0058,2022-11-30 17:49:01
47,"[{'imgObject': {}, 'id': 'ice cream sundae 002', 'src': '/static/foodstim60/ice cream sundae 002.jpg', 'key': 'u', 'origWidth': 409, 'origHeight': 409, 'width': 409, 'height': 409, 'widthPercent': 0.45, 'rescaleHeight': False, 'trialN': 47, 'loaded': True, 'loadedTime': 2780.7000000476837, 'positionName': 'LEFT', 'positionCoords': [328.28, 227.5], 'bid': 4.8}, {'imgObject': {}, 'id': 'lox', 'src': '/static/foodstim60/lox.jpg', 'key': 'i', 'origWidth': 410, 'origHeight': 411, 'width': 410, 'height': 411, 'widthPercent': 0.45, 'rescaleHeight': False, 'trialN': 47, 'loaded': True, 'loadedTime': 2804.399999856949, 'positionName': 'RIGHT', 'positionCoords': [798.72, 226.5], 'bid': 4.32}]",95073.79999995232,1669830234583,ice cream sundae 002,lox,4.8,4.32,-0.47999999999999954,lox,3063.9000000953674,3064,3064.2000000476837,True,i,98657.20000004768,3583.4000000953674,1669830238166,3583,HRV,HRV_0058,2022-11-30 17:49:01
48,"[{'imgObject': {}, 'id': 'cocktailshrimp', 'src': '/static/foodstim60/cocktailshrimp.jpg', 'key': 'u', 'origWidth': 410, 'origHeight': 410, 'width': 410, 'height': 410, 'widthPercent': 0.45, 'rescaleHeight': False, 'trialN': 48, 'loaded': True, 'loadedTime': 2591.7999999523163, 'positionName': 'LEFT', 'positionCoords': [327.28, 227], 'bid': 7.65}, {'imgObject': {}, 'id': 'tacos', 'src': '/static/foodstim60/tacos.jpg', 'key': 'i', 'origWidth': 411, 'origHeight': 411, 'width': 411, 'height': 411, 'widthPercent': 0.45, 'rescaleHeight': False, 'trialN': 48, 'loaded': True, 'loadedTime': 2499.5999999046326, 'positionName': 'RIGHT', 'positionCoords': [798.72, 226.5], 'bid': 7.96}]",98657.39999985695,1669830238167,cocktailshrimp,tacos,7.65,7.96,0.3099999999999996,tacos,1025.3000001907349,1025,1025.6000001430511,True,i,100198.70000004768,1541.3000001907349,1669830239708,1541,HRV,HRV_0058,2022-11-30 17:49:01
49,"[{'imgObject': {}, 'id': 'turkeysandwich', 'src': '/static/foodstim60/turkeysandwich.jpg', 'key': 'u', 'origWidth': 409, 'origHeight': 409, 'width': 409, 'height': 409, 'widthPercent': 0.45, 'rescaleHeight': False, 'trialN': 49, 'loaded': True, 'loadedTime': 2650.7999999523163, 'positionName': 'LEFT', 'positionCoords': [328.28, 227.5], 'bid': 7.12}, {'imgObject': {}, 'id': 'fruitsalad', 'src': '/static/foodstim60/fruitsalad.jpg', 'key': 'i', 'origWidth': 410, 'origHeight': 410, 'width': 410, 'height': 410, 'widthPercent': 0.45, 'rescaleHeight': False, 'trialN': 49, 'loaded': True, 'loadedTime': 2806.899999856949, 'positionName': 'RIGHT', 'positionCoords': [798.72, 227], 'bid': 8.69}]",100198.89999985695,1669830239708,turkeysandwich,fruitsalad,7.12,8.69,1.5699999999999994,fruitsalad,2943.300000190735,2944,2943.7000000476837,True,i,103647.5,3448.600000143051,1669830243157,3449,HRV,HRV_0058,2022-11-30 17:49:01
50,"[{'imgObject': {}, 'id': 'veggieswithdip', 'src': '/static/foodstim60/veggieswithdip.jpg', 'key': 'u', 'origWidth': 409, 'origHeight': 409, 'width': 409, 'height': 409, 'widthPercent': 0.45, 'rescaleHeight': False, 'trialN': 50, 'loaded': True, 'loadedTime': 2614.899999856949, 'positionName': 'LEFT', 'positionCoords': [328.28, 227.5], 'bid': 6.74}, {'imgObject': {}, 'id': 'luckycharms', 'src': '/static/foodstim60/luckycharms.jpg', 'key': 'i', 'origWidth': 410, 'origHeight': 409, 'width': 410, 'height': 409, 'widthPercent': 0.45, 'rescaleHeight': False, 'trialN': 50, 'loaded': True, 'loadedTime': 2652.7000000476837, 'positionName': 'RIGHT', 'positionCoords': [798.72, 227.5], 'bid': 5}]",103647.89999985695,1669830243157,veggieswithdip,luckycharms,6.74,5.0,-1.7400000000000002,veggieswithdip,1377.8000001907349,1378,1378.1000001430511,True,u,105535.29999995232,1887.4000000953674,1669830245044,1887,HRV,HRV_0058,2022-11-30 17:49:01
51,"[{'imgObject': {}, 'id': 'veggieswithdip', 'src': '/static/foodstim60/veggieswithdip.jpg', 'key': 'u', 'origWidth': 409, 'origHeight': 409, 'width': 409, 'height': 409, 'widthPercent': 0.45, 'rescaleHeight': False, 'trialN': 51, 'loaded': True, 'loadedTime': 2614.5999999046326, 'positionName': 'LEFT', 'positionCoords': [328.28, 227.5], 'bid': 6.74}, {'imgObject': {}, 'id': 'salad w chicken', 'src': '/static/foodstim60/salad w chicken.jpg', 'key': 'i', 'origWidth': 411, 'origHeight': 411, 'width': 411, 'height': 411, 'widthPercent': 0.45, 'rescaleHeight': False, 'trialN': 51, 'loaded': True, 'loadedTime': 2722.399999856949, 'positionName': 'RIGHT', 'positionCoords': [798.72, 226.5], 'bid': 7.26}]",105535.5,1669830245045,veggieswithdip,salad w chicken,6.74,7.26,0.5199999999999996,salad w chicken,917.5,918,917.8999998569489,True,i,106963.0,1427.5,1669830246472,1427,HRV,HRV_0058,2022-11-30 17:49:01
52,"[{'imgObject': {}, 'id': 'roastedpotatoes', 'src': '/static/foodstim60/roastedpotatoes.jpg', 'key': 'u', 'origWidth': 409, 'origHeight': 410, 'width': 409, 'height': 410, 'widthPercent': 0.45, 'rescaleHeight': False, 'trialN': 52, 'loaded': True, 'loadedTime': 2745.7000000476837, 'positionName': 'LEFT', 'positionCoords': [328.28, 227], 'bid': 6.78}, {'imgObject': {}, 'id': 'eggsalad', 'src': '/static/foodstim60/eggsalad.jpg', 'key': 'i', 'origWidth': 410, 'origHeight': 409, 'width': 410, 'height': 409, 'widthPercent': 0.45, 'rescaleHeight': False, 'trialN': 52, 'loaded': True, 'loadedTime': 2808.5, 'positionName': 'RIGHT', 'positionCoords': [798.72, 227.5], 'bid': 1.57}]",106963.29999995232,1669830246472,roastedpotatoes,eggsalad,6.78,1.57,-5.21,roastedpotatoes,1153.0999999046326,1154,1153.5,True,u,108629.20000004768,1665.9000000953674,1669830248138,1666,HRV,HRV_0058,2022-11-30 17:49:01
53,"[{'imgObject': {}, 'id': 'rigatoni', 'src': '/static/foodstim60/rigatoni.jpg', 'key': 'u', 'origWidth': 411, 'origHeight': 411, 'width': 411, 'height': 411, 'widthPercent': 0.45, 'rescaleHeight': False, 'trialN': 53, 'loaded': True, 'loadedTime': 2626, 'positionName': 'LEFT', 'positionCoords': [326.28, 226.5], 'bid': 4.42}, {'imgObject': {}, 'id': 'bagel plain', 'src': '/static/foodstim60/bagel plain.jpg', 'key': 'i', 'origWidth': 410, 'origHeight': 410, 'width': 410, 'height': 410, 'widthPercent': 0.45, 'rescaleHeight': False, 'trialN': 53, 'loaded': True, 'loadedTime': 2684.7000000476837, 'positionName': 'RIGHT', 'positionCoords': [798.72, 227], 'bid': 5.05}]",108629.39999985695,1669830248139,rigatoni,bagel plain,4.42,5.05,0.6299999999999999,bagel plain,1929.3000001907349,1929,1929.6000001430511,True,i,111067.70000004768,2438.300000190735,1669830250577,2438,HRV,HRV_0058,2022-11-30 17:49:01
54,"[{'imgObject': {}, 'id': 'mashed potato', 'src': '/static/foodstim60/mashed potato.jpg', 'key': 'u', 'origWidth': 409, 'origHeight': 409, 'width': 409, 'height': 409, 'widthPercent': 0.45, 'rescaleHeight': False, 'trialN': 54, 'loaded': True, 'loadedTime': 2537, 'positionName': 'LEFT', 'positionCoords': [328.28, 227.5], 'bid': 5.66}, {'imgObject': {}, 'id': 'roastedpotatoes', 'src': '/static/foodstim60/roastedpotatoes.jpg', 'key': 'i', 'origWidth': 409, 'origHeight': 410, 'width': 409, 'height': 410, 'widthPercent': 0.45, 'rescaleHeight': False, 'trialN': 54, 'loaded': True, 'loadedTime': 2736.899999856949, 'positionName': 'RIGHT', 'positionCoords': [798.72, 227], 'bid': 6.78}]",111068.0,1669830250577,mashed potato,roastedpotatoes,5.66,6.78,1.12,roastedpotatoes,1517.5,1518,1517.7999999523163,True,i,113095.70000004768,2027.7000000476837,1669830252605,2028,HRV,HRV_0058,2022-11-30 17:49:01
55,"[{'imgObject': {}, 'id': 'sushi w_condiments', 'src': '/static/foodstim60/sushi w_condiments.jpg', 'key': 'u', 'origWidth': 410, 'origHeight': 410, 'width': 410, 'height': 410, 'widthPercent': 0.45, 'rescaleHeight': False, 'trialN': 55, 'loaded': True, 'loadedTime': 2542.2000000476837, 'positionName': 'LEFT', 'positionCoords': [327.28, 227], 'bid': 9.73}, {'imgObject': {}, 'id': 'chickenfingers', 'src': '/static/foodstim60/chickenfingers.jpg', 'key': 'i', 'origWidth': 410, 'origHeight': 410, 'width': 410, 'height': 410, 'widthPercent': 0.45, 'rescaleHeight': False, 'trialN': 55, 'loaded': True, 'loadedTime': 2528.5999999046326, 'positionName': 'RIGHT', 'positionCoords': [798.72, 227], 'bid': 9.44}]",113095.79999995232,1669830252605,sushi w_condiments,chickenfingers,9.73,9.44,-0.2900000000000009,sushi w_condiments,2869.9000000953674,2870,2870.2999999523163,True,u,116485.59999990463,3389.7999999523163,1669830255995,3390,HRV,HRV_0058,2022-11-30 17:49:01
56,"[{'imgObject': {}, 'id': 'rigatoni', 'src': '/static/foodstim60/rigatoni.jpg', 'key': 'u', 'origWidth': 411, 'origHeight': 411, 'width': 411, 'height': 411, 'widthPercent': 0.45, 'rescaleHeight': False, 'trialN': 56, 'loaded': True, 'loadedTime': 2625.0999999046326, 'positionName': 'LEFT', 'positionCoords': [326.28, 226.5], 'bid': 4.42}, {'imgObject': {}, 'id': 'olives', 'src': '/static/foodstim60/olives.jpg', 'key': 'i', 'origWidth': 410, 'origHeight': 410, 'width': 410, 'height': 410, 'widthPercent': 0.45, 'rescaleHeight': False, 'trialN': 56, 'loaded': True, 'loadedTime': 2810, 'positionName': 'RIGHT', 'positionCoords': [798.72, 227], 'bid': 4.73}]",116486.09999990463,1669830255995,rigatoni,olives,4.42,4.73,0.3100000000000005,rigatoni,1261,1262,1261.2999999523163,True,u,118266.89999985695,1780.7999999523163,1669830257776,1781,HRV,HRV_0058,2022-11-30 17:49:01
57,"[{'imgObject': {}, 'id': 'roastedpotatoes', 'src': '/static/foodstim60/roastedpotatoes.jpg', 'key': 'u', 'origWidth': 409, 'origHeight': 410, 'width': 409, 'height': 410, 'widthPercent': 0.45, 'rescaleHeight': False, 'trialN': 57, 'loaded': True, 'loadedTime': 2738.899999856949, 'positionName': 'LEFT', 'positionCoords': [328.28, 227], 'bid': 6.78}, {'imgObject': {}, 'id': 'burger', 'src': '/static/foodstim60/burger.jpg', 'key': 'i', 'origWidth': 409, 'origHeight': 409, 'width': 409, 'height': 409, 'widthPercent': 0.45, 'rescaleHeight': False, 'trialN': 57, 'loaded': True, 'loadedTime': 2782.399999856949, 'positionName': 'RIGHT', 'positionCoords': [798.72, 227.5], 'bid': 6.71}]",118267.20000004768,1669830257776,roastedpotatoes,burger,6.78,6.71,-0.07000000000000028,roastedpotatoes,3225.0999999046326,3226,3225.5,True,u,122010.59999990463,3743.399999856949,1669830261520,3744,HRV,HRV_0058,2022-11-30 17:49:01
58,"[{'imgObject': {}, 'id': 'rigatoni', 'src': '/static/foodstim60/rigatoni.jpg', 'key': 'u', 'origWidth': 411, 'origHeight': 411, 'width': 411, 'height': 411, 'widthPercent': 0.45, 'rescaleHeight': False, 'trialN': 58, 'loaded': True, 'loadedTime': 2625.5999999046326, 'positionName': 'LEFT', 'positionCoords': [326.28, 226.5], 'bid': 4.42}, {'imgObject': {}, 'id': 'lox', 'src': '/static/foodstim60/lox.jpg', 'key': 'i', 'origWidth': 410, 'origHeight': 411, 'width': 410, 'height': 411, 'widthPercent': 0.45, 'rescaleHeight': False, 'trialN': 58, 'loaded': True, 'loadedTime': 2805.399999856949, 'positionName': 'RIGHT', 'positionCoords': [798.72, 226.5], 'bid': 4.32}]",122010.70000004768,1669830261520,rigatoni,lox,4.42,4.32,-0.09999999999999964,lox,2733.199999809265,2733,2733.5999999046326,True,i,125259.20000004768,3248.5,1669830264768,3248,HRV,HRV_0058,2022-11-30 17:49:01
59,"[{'imgObject': {}, 'id': 'burger', 'src': '/static/foodstim60/burger.jpg', 'key': 'u', 'origWidth': 409, 'origHeight': 409, 'width': 409, 'height': 409, 'widthPercent': 0.45, 'rescaleHeight': False, 'trialN': 59, 'loaded': True, 'loadedTime': 2782.7000000476837, 'positionName': 'LEFT', 'positionCoords': [328.28, 227.5], 'bid': 6.71}, {'imgObject': {}, 'id': 'sushi w_condiments', 'src': '/static/foodstim60/sushi w_condiments.jpg', 'key': 'i', 'origWidth': 410, 'origHeight': 410, 'width': 410, 'height': 410, 'widthPercent': 0.45, 'rescaleHeight': False, 'trialN': 59, 'loaded': True, 'loadedTime': 2541.899999856949, 'positionName': 'RIGHT', 'positionCoords': [798.72, 227], 'bid': 9.73}]",125259.5,1669830264769,burger,sushi w_condiments,6.71,9.73,3.0200000000000005,sushi w_condiments,1119.0999999046326,1119,1119.3999998569489,True,i,126895.79999995232,1636.2999999523163,1669830266405,1636,HRV,HRV_0058,2022-11-30 17:49:01
60,"[{'imgObject': {}, 'id': 'strawberries', 'src': '/static/foodstim60/strawberries.jpg', 'key': 'u', 'origWidth': 410, 'origHeight': 410, 'width': 410, 'height': 410, 'widthPercent': 0.45, 'rescaleHeight': False, 'trialN': 60, 'loaded': True, 'loadedTime': 2735.0999999046326, 'positionName': 'LEFT', 'positionCoords': [327.28, 227], 'bid': 6.5600000000000005}, {'imgObject': {}, 'id': 'cherry tomato', 'src': '/static/foodstim60/cherry tomato.jpg', 'key': 'i', 'origWidth': 410, 'origHeight': 410, 'width': 410, 'height': 410, 'widthPercent': 0.45, 'rescaleHeight': False, 'trialN': 60, 'loaded': True, 'loadedTime': 2760.5999999046326, 'positionName': 'RIGHT', 'positionCoords': [798.72, 227], 'bid': 6.83}]",126896.09999990463,1669830266405,strawberries,cherry tomato,6.5600000000000005,6.83,0.2699999999999996,strawberries,1183.6000001430511,1184,1184.0,True,u,128597.5,1701.4000000953674,1669830268107,1702,HRV,HRV_0058,2022-11-30 17:49:01
61,"[{'imgObject': {}, 'id': 'salad w chicken', 'src': '/static/foodstim60/salad w chicken.jpg', 'key': 'u', 'origWidth': 411, 'origHeight': 411, 'width': 411, 'height': 411, 'widthPercent': 0.45, 'rescaleHeight': False, 'trialN': 61, 'loaded': True, 'loadedTime': 2719.899999856949, 'positionName': 'LEFT', 'positionCoords': [326.28, 226.5], 'bid': 7.26}, {'imgObject': {}, 'id': 'cheerios', 'src': '/static/foodstim60/cheerios.jpg', 'key': 'i', 'origWidth': 409, 'origHeight': 410, 'width': 409, 'height': 410, 'widthPercent': 0.45, 'rescaleHeight': False, 'trialN': 61, 'loaded': True, 'loadedTime': 2819.2000000476837, 'positionName': 'RIGHT', 'positionCoords': [798.72, 227], 'bid': 4.7700000000000005}]",128597.79999995232,1669830268107,salad w chicken,cheerios,7.26,4.7700000000000005,-2.4899999999999993,salad w chicken,886.5999999046326,887,887.0,True,u,130002.5,1404.7000000476837,1669830269512,1405,HRV,HRV_0058,2022-11-30 17:49:01
62,"[{'imgObject': {}, 'id': 'mac & cheese', 'src': '/static/foodstim60/mac & cheese.jpg', 'key': 'u', 'origWidth': 410, 'origHeight': 410, 'width': 410, 'height': 410, 'widthPercent': 0.45, 'rescaleHeight': False, 'trialN': 62, 'loaded': True, 'loadedTime': 2672, 'positionName': 'LEFT', 'positionCoords': [327.28, 227], 'bid': 6.4}, {'imgObject': {}, 'id': 'apple slices', 'src': '/static/foodstim60/apple slices.jpg', 'key': 'i', 'origWidth': 409, 'origHeight': 410, 'width': 409, 'height': 410, 'widthPercent': 0.45, 'rescaleHeight': False, 'trialN': 62, 'loaded': True, 'loadedTime': 2746.2000000476837, 'positionName': 'RIGHT', 'positionCoords': [798.72, 227], 'bid': 6.38}]",130002.70000004768,1669830269512,mac & cheese,apple slices,6.4,6.38,-0.020000000000000462,mac & cheese,1942.8999998569489,1943,1943.2999999523163,True,u,132459.70000004768,2457.0,1669830271969,2457,HRV,HRV_0058,2022-11-30 17:49:01
63,"[{'imgObject': {}, 'id': 'blueberries', 'src': '/static/foodstim60/blueberries.jpg', 'key': 'u', 'origWidth': 411, 'origHeight': 411, 'width': 411, 'height': 411, 'widthPercent': 0.45, 'rescaleHeight': False, 'trialN': 63, 'loaded': True, 'loadedTime': 2543.5999999046326, 'positionName': 'LEFT', 'positionCoords': [326.28, 226.5], 'bid': 9.85}, {'imgObject': {}, 'id': 'mango', 'src': '/static/foodstim60/mango.jpg', 'key': 'i', 'origWidth': 411, 'origHeight': 411, 'width': 411, 'height': 411, 'widthPercent': 0.45, 'rescaleHeight': False, 'trialN': 63, 'loaded': True, 'loadedTime': 2590.399999856949, 'positionName': 'RIGHT', 'positionCoords': [798.72, 226.5], 'bid': 7.65}]",132459.89999985695,1669830271969,blueberries,mango,9.85,7.65,-2.1999999999999993,blueberries,1113.5,1114,1113.8000001907349,True,u,134085.79999995232,1625.9000000953674,1669830273595,1626,HRV,HRV_0058,2022-11-30 17:49:01
64,"[{'imgObject': {}, 'id': 'rigatoni', 'src': '/static/foodstim60/rigatoni.jpg', 'key': 'u', 'origWidth': 411, 'origHeight': 411, 'width': 411, 'height': 411, 'widthPercent': 0.45, 'rescaleHeight': False, 'trialN': 64, 'loaded': True, 'loadedTime': 2625.7000000476837, 'positionName': 'LEFT', 'positionCoords': [326.28, 226.5], 'bid': 4.42}, {'imgObject': {}, 'id': 'mashed potato', 'src': '/static/foodstim60/mashed potato.jpg', 'key': 'i', 'origWidth': 409, 'origHeight': 409, 'width': 409, 'height': 409, 'widthPercent': 0.45, 'rescaleHeight': False, 'trialN': 64, 'loaded': True, 'loadedTime': 2535.5999999046326, 'positionName': 'RIGHT', 'positionCoords': [798.72, 227.5], 'bid': 5.66}]",134086.29999995232,1669830273595,rigatoni,mashed potato,4.42,5.66,1.2400000000000002,mashed potato,1342.0999999046326,1343,1342.4000000953674,True,i,135937.70000004768,1851.4000000953674,1669830275447,1852,HRV,HRV_0058,2022-11-30 17:49:01
65,"[{'imgObject': {}, 'id': 'shreddedwheatwithmilk', 'src': '/static/foodstim60/shreddedwheatwithmilk.jpg', 'key': 'u', 'origWidth': 410, 'origHeight': 410, 'width': 410, 'height': 410, 'widthPercent': 0.45, 'rescaleHeight': False, 'trialN': 65, 'loaded': True, 'loadedTime': 2802.899999856949, 'positionName': 'LEFT', 'positionCoords': [327.28, 227], 'bid': 4.93}, {'imgObject': {}, 'id': 'bagel plain', 'src': '/static/foodstim60/bagel plain.jpg', 'key': 'i', 'origWidth': 410, 'origHeight': 410, 'width': 410, 'height': 410, 'widthPercent': 0.45, 'rescaleHeight': False, 'trialN': 65, 'loaded': True, 'loadedTime': 2682.5, 'positionName': 'RIGHT', 'positionCoords': [798.72, 227], 'bid': 5.05}]",135937.89999985695,1669830275447,shreddedwheatwithmilk,bagel plain,4.93,5.05,0.1200000000000001,bagel plain,1683.9000000953674,1684,1684.2000000476837,True,i,138140.89999985695,2203.0,1669830277650,2203,HRV,HRV_0058,2022-11-30 17:49:01
66,"[{'imgObject': {}, 'id': 'seaweed', 'src': '/static/foodstim60/seaweed.jpg', 'key': 'u', 'origWidth': 410, 'origHeight': 410, 'width': 410, 'height': 410, 'widthPercent': 0.45, 'rescaleHeight': False, 'trialN': 66, 'loaded': True, 'loadedTime': 2534.5999999046326, 'positionName': 'LEFT', 'positionCoords': [327.28, 227], 'bid': 5.61}, {'imgObject': {}, 'id': 'pear', 'src': '/static/foodstim60/pear.jpg', 'key': 'i', 'origWidth': 411, 'origHeight': 410, 'width': 411, 'height': 410, 'widthPercent': 0.45, 'rescaleHeight': False, 'trialN': 66, 'loaded': True, 'loadedTime': 2819.399999856949, 'positionName': 'RIGHT', 'positionCoords': [798.72, 227], 'bid': 5.57}]",138141.09999990463,1669830277650,seaweed,pear,5.61,5.57,-0.040000000000000036,seaweed,1857.7000000476837,1858,1858.1000001430511,True,u,140512.29999995232,2371.2000000476837,1669830280021,2371,HRV,HRV_0058,2022-11-30 17:49:01
67,"[{'imgObject': {}, 'id': 'fried eggs', 'src': '/static/foodstim60/fried eggs.jpg', 'key': 'u', 'origWidth': 410, 'origHeight': 410, 'width': 410, 'height': 410, 'widthPercent': 0.45, 'rescaleHeight': False, 'trialN': 67, 'loaded': True, 'loadedTime': 2784.7999999523163, 'positionName': 'LEFT', 'positionCoords': [327.28, 227], 'bid': 6.83}, {'imgObject': {}, 'id': 'hotdog w must', 'src': '/static/foodstim60/hotdog w must.jpg', 'key': 'i', 'origWidth': 409, 'origHeight': 409, 'width': 409, 'height': 409, 'widthPercent': 0.45, 'rescaleHeight': False, 'trialN': 67, 'loaded': True, 'loadedTime': 2551.7000000476837, 'positionName': 'RIGHT', 'positionCoords': [798.72, 227.5], 'bid': 6.82}]",140512.39999985695,1669830280022,fried eggs,hotdog w must,6.83,6.82,-0.009999999999999787,hotdog w must,1469.1000001430511,1469,1469.4000000953674,True,i,142491.89999985695,1979.5,1669830282001,1979,HRV,HRV_0058,2022-11-30 17:49:01
68,"[{'imgObject': {}, 'id': 'rigatoni and sauce', 'src': '/static/foodstim60/rigatoni and sauce.jpg', 'key': 'u', 'origWidth': 410, 'origHeight': 411, 'width': 410, 'height': 411, 'widthPercent': 0.45, 'rescaleHeight': False, 'trialN': 68, 'loaded': True, 'loadedTime': 2570.5999999046326, 'positionName': 'LEFT', 'positionCoords': [327.28, 226.5], 'bid': 6.48}, {'imgObject': {}, 'id': 'apple slices', 'src': '/static/foodstim60/apple slices.jpg', 'key': 'i', 'origWidth': 409, 'origHeight': 410, 'width': 409, 'height': 410, 'widthPercent': 0.45, 'rescaleHeight': False, 'trialN': 68, 'loaded': True, 'loadedTime': 2747.5999999046326, 'positionName': 'RIGHT', 'positionCoords': [798.72, 227], 'bid': 6.38}]",142492.20000004768,1669830282001,rigatoni and sauce,apple slices,6.48,6.38,-0.10000000000000053,rigatoni and sauce,959.0999999046326,960,959.3999998569489,True,u,143961.59999990463,1469.3999998569489,1669830283471,1470,HRV,HRV_0058,2022-11-30 17:49:01
69,"[{'imgObject': {}, 'id': 'cocktailshrimp', 'src': '/static/foodstim60/cocktailshrimp.jpg', 'key': 'u', 'origWidth': 410, 'origHeight': 410, 'width': 410, 'height': 410, 'widthPercent': 0.45, 'rescaleHeight': False, 'trialN': 69, 'loaded': True, 'loadedTime': 2600.5999999046326, 'positionName': 'LEFT', 'positionCoords': [327.28, 227], 'bid': 7.65}, {'imgObject': {}, 'id': 'roastedpotatoes', 'src': '/static/foodstim60/roastedpotatoes.jpg', 'key': 'i', 'origWidth': 409, 'origHeight': 410, 'width': 409, 'height': 410, 'widthPercent': 0.45, 'rescaleHeight': False, 'trialN': 69, 'loaded': True, 'loadedTime': 2745.399999856949, 'positionName': 'RIGHT', 'positionCoords': [798.72, 227], 'bid': 6.78}]",143961.70000004768,1669830283471,cocktailshrimp,roastedpotatoes,7.65,6.78,-0.8700000000000001,roastedpotatoes,1210.7999999523163,1211,1211.0,True,i,145693.70000004768,1732.0,1669830285203,1732,HRV,HRV_0058,2022-11-30 17:49:01
70,"[{'imgObject': {}, 'id': 'fruitsalad', 'src': '/static/foodstim60/fruitsalad.jpg', 'key': 'u', 'origWidth': 410, 'origHeight': 410, 'width': 410, 'height': 410, 'widthPercent': 0.45, 'rescaleHeight': False, 'trialN': 70, 'loaded': True, 'loadedTime': 2807.5, 'positionName': 'LEFT', 'positionCoords': [327.28, 227], 'bid': 8.69}, {'imgObject': {}, 'id': 'bagel and cc', 'src': '/static/foodstim60/bagel and cc.jpg', 'key': 'i', 'origWidth': 410, 'origHeight': 410, 'width': 410, 'height': 410, 'widthPercent': 0.45, 'rescaleHeight': False, 'trialN': 70, 'loaded': True, 'loadedTime': 2823.2999999523163, 'positionName': 'RIGHT', 'positionCoords': [798.72, 227], 'bid': 7.36}]",145693.79999995232,1669830285203,fruitsalad,bagel and cc,8.69,7.36,-1.3299999999999992,fruitsalad,1210.9000000953674,1211,1211.2999999523163,True,u,147418.5,1724.7000000476837,1669830286928,1725,HRV,HRV_0058,2022-11-30 17:49:01
71,"[{'imgObject': {}, 'id': 'yogurt no spoon', 'src': '/static/foodstim60/yogurt no spoon.jpg', 'key': 'u', 'origWidth': 411, 'origHeight': 410, 'width': 411, 'height': 410, 'widthPercent': 0.45, 'rescaleHeight': False, 'trialN': 71, 'loaded': True, 'loadedTime': 2519.2000000476837, 'positionName': 'LEFT', 'positionCoords': [326.28, 227], 'bid': 7.69}, {'imgObject': {}, 'id': 'grilled chicken strips', 'src': '/static/foodstim60/grilled chicken strips.jpg', 'key': 'i', 'origWidth': 410, 'origHeight': 411, 'width': 410, 'height': 411, 'widthPercent': 0.45, 'rescaleHeight': False, 'trialN': 71, 'loaded': True, 'loadedTime': 2662.7000000476837, 'positionName': 'RIGHT', 'positionCoords': [798.72, 226.5], 'bid': 6.79}]",147418.79999995232,1669830286928,yogurt no spoon,grilled chicken strips,7.69,6.79,-0.9000000000000004,grilled chicken strips,2326.9000000953674,2327,2327.2000000476837,True,i,150257.09999990463,2838.2999999523163,1669830289767,2839,HRV,HRV_0058,2022-11-30 17:49:01
72,"[{'imgObject': {}, 'id': 'salmon', 'src': '/static/foodstim60/salmon.jpg', 'key': 'u', 'origWidth': 410, 'origHeight': 409, 'width': 410, 'height': 409, 'widthPercent': 0.45, 'rescaleHeight': False, 'trialN': 72, 'loaded': True, 'loadedTime': 2708.7999999523163, 'positionName': 'LEFT', 'positionCoords': [327.28, 227.5], 'bid': 8.84}, {'imgObject': {}, 'id': 'blueberries', 'src': '/static/foodstim60/blueberries.jpg', 'key': 'i', 'origWidth': 411, 'origHeight': 411, 'width': 411, 'height': 411, 'widthPercent': 0.45, 'rescaleHeight': False, 'trialN': 72, 'loaded': True, 'loadedTime': 2543.7999999523163, 'positionName': 'RIGHT', 'positionCoords': [798.72, 226.5], 'bid': 9.85}]",150257.29999995232,1669830289767,salmon,blueberries,8.84,9.85,1.0099999999999998,salmon,1726.5999999046326,1727,1726.9000000953674,True,u,152495.20000004768,2237.9000000953674,1669830292005,2238,HRV,HRV_0058,2022-11-30 17:49:01
73,"[{'imgObject': {}, 'id': 'eggs', 'src': '/static/foodstim60/eggs.jpg', 'key': 'u', 'origWidth': 409, 'origHeight': 409, 'width': 409, 'height': 409, 'widthPercent': 0.45, 'rescaleHeight': False, 'trialN': 73, 'loaded': True, 'loadedTime': 2824.5999999046326, 'positionName': 'LEFT', 'positionCoords': [328.28, 227.5], 'bid': 5.13}, {'imgObject': {}, 'id': 'seaweed', 'src': '/static/foodstim60/seaweed.jpg', 'key': 'i', 'origWidth': 410, 'origHeight': 410, 'width': 410, 'height': 410, 'widthPercent': 0.45, 'rescaleHeight': False, 'trialN': 73, 'loaded': True, 'loadedTime': 2534.899999856949, 'positionName': 'RIGHT', 'positionCoords': [798.72, 227], 'bid': 5.61}]",152495.29999995232,1669830292005,eggs,seaweed,5.13,5.61,0.4800000000000004,seaweed,2191.2000000476837,2191,2191.5,True,i,155195.0,2699.7000000476837,1669830294704,2699,HRV,HRV_0058,2022-11-30 17:49:01
74,"[{'imgObject': {}, 'id': 'turkey sandwich', 'src': '/static/foodstim60/turkey sandwich.jpg', 'key': 'u', 'origWidth': 409, 'origHeight': 409, 'width': 409, 'height': 409, 'widthPercent': 0.45, 'rescaleHeight': False, 'trialN': 74, 'loaded': True, 'loadedTime': 2761.899999856949, 'positionName': 'LEFT', 'positionCoords': [328.28, 227.5], 'bid': 7.6}, {'imgObject': {}, 'id': 'chicken nuggets2', 'src': '/static/foodstim60/chicken nuggets2.jpg', 'key': 'i', 'origWidth': 410, 'origHeight': 409, 'width': 410, 'height': 409, 'widthPercent': 0.45, 'rescaleHeight': False, 'trialN': 74, 'loaded': True, 'loadedTime': 2826.5999999046326, 'positionName': 'RIGHT', 'positionCoords': [798.72, 227.5], 'bid': 7.18}]",155195.20000004768,1669830294705,turkey sandwich,chicken nuggets2,7.6,7.18,-0.41999999999999993,chicken nuggets2,1563.5999999046326,1564,1563.8999998569489,True,i,157274.70000004768,2079.5,1669830296784,2079,HRV,HRV_0058,2022-11-30 17:49:01
75,"[{'imgObject': {}, 'id': 'froot loops w milk', 'src': '/static/foodstim60/froot loops w milk.jpg', 'key': 'u', 'origWidth': 410, 'origHeight': 410, 'width': 410, 'height': 410, 'widthPercent': 0.45, 'rescaleHeight': False, 'trialN': 75, 'loaded': True, 'loadedTime': 2559.2999999523163, 'positionName': 'LEFT', 'positionCoords': [327.28, 227], 'bid': 4.7}, {'imgObject': {}, 'id': 'lox', 'src': '/static/foodstim60/lox.jpg', 'key': 'i', 'origWidth': 410, 'origHeight': 411, 'width': 410, 'height': 411, 'widthPercent': 0.45, 'rescaleHeight': False, 'trialN': 75, 'loaded': True, 'loadedTime': 2805.2999999523163, 'positionName': 'RIGHT', 'positionCoords': [798.72, 226.5], 'bid': 4.32}]",157274.89999985695,1669830296784,froot loops w milk,lox,4.7,4.32,-0.3799999999999999,lox,2671.800000190735,2673,2672.600000143051,True,i,160459.0,3184.100000143051,1669830299968,3184,HRV,HRV_0058,2022-11-30 17:49:01
76,"[{'imgObject': {}, 'id': 'grilled chicken strips', 'src': '/static/foodstim60/grilled chicken strips.jpg', 'key': 'u', 'origWidth': 410, 'origHeight': 411, 'width': 410, 'height': 411, 'widthPercent': 0.45, 'rescaleHeight': False, 'trialN': 76, 'loaded': True, 'loadedTime': 2662.5, 'positionName': 'LEFT', 'positionCoords': [327.28, 226.5], 'bid': 6.79}, {'imgObject': {}, 'id': 'orange slices', 'src': '/static/foodstim60/orange slices.jpg', 'key': 'i', 'origWidth': 409, 'origHeight': 410, 'width': 409, 'height': 410, 'widthPercent': 0.45, 'rescaleHeight': False, 'trialN': 76, 'loaded': True, 'loadedTime': 2793.0999999046326, 'positionName': 'RIGHT', 'positionCoords': [798.72, 227], 'bid': 5.84}]",160459.20000004768,1669830299969,grilled chicken strips,orange slices,6.79,5.84,-0.9500000000000002,grilled chicken strips,1945.2999999523163,1945,1945.6999998092651,True,u,162915.29999995232,2456.0999999046326,1669830302425,2456,HRV,HRV_0058,2022-11-30 17:49:01
77,"[{'imgObject': {}, 'id': 'popsicles', 'src': '/static/foodstim60/popsicles.jpg', 'key': 'u', 'origWidth': 410, 'origHeight': 410, 'width': 410, 'height': 410, 'widthPercent': 0.45, 'rescaleHeight': False, 'trialN': 77, 'loaded': True, 'loadedTime': 2831.5, 'positionName': 'LEFT', 'positionCoords': [327.28, 227], 'bid': 3.48}, {'imgObject': {}, 'id': 'grilled chicken strips', 'src': '/static/foodstim60/grilled chicken strips.jpg', 'key': 'i', 'origWidth': 410, 'origHeight': 411, 'width': 410, 'height': 411, 'widthPercent': 0.45, 'rescaleHeight': False, 'trialN': 77, 'loaded': True, 'loadedTime': 2660.5999999046326, 'positionName': 'RIGHT', 'positionCoords': [798.72, 226.5], 'bid': 6.79}]",162915.59999990463,1669830302425,popsicles,grilled chicken strips,3.48,6.79,3.31,grilled chicken strips,759.2000000476837,760,759.5,True,i,164187.70000004768,1272.1000001430511,1669830303697,1272,HRV,HRV_0058,2022-11-30 17:49:01
78,"[{'imgObject': {}, 'id': 'hotdog w must', 'src': '/static/foodstim60/hotdog w must.jpg', 'key': 'u', 'origWidth': 409, 'origHeight': 409, 'width': 409, 'height': 409, 'widthPercent': 0.45, 'rescaleHeight': False, 'trialN': 78, 'loaded': True, 'loadedTime': 2551.5, 'positionName': 'LEFT', 'positionCoords': [328.28, 227.5], 'bid': 6.82}, {'imgObject': {}, 'id': 'hashbrowns', 'src': '/static/foodstim60/hashbrowns.jpg', 'key': 'i', 'origWidth': 411, 'origHeight': 410, 'width': 411, 'height': 410, 'widthPercent': 0.45, 'rescaleHeight': False, 'trialN': 78, 'loaded': True, 'loadedTime': 2694.2999999523163, 'positionName': 'RIGHT', 'positionCoords': [798.72, 227], 'bid': 4.01}]",164187.89999985695,1669830303697,hotdog w must,hashbrowns,6.82,4.01,-2.8100000000000005,hotdog w must,971,972,971.3000001907349,True,u,165676.79999995232,1488.9000000953674,1669830305186,1489,HRV,HRV_0058,2022-11-30 17:49:01
79,"[{'imgObject': {}, 'id': 'chickenfingers', 'src': '/static/foodstim60/chickenfingers.jpg', 'key': 'u', 'origWidth': 410, 'origHeight': 410, 'width': 410, 'height': 410, 'widthPercent': 0.45, 'rescaleHeight': False, 'trialN': 79, 'loaded': True, 'loadedTime': 2530.0999999046326, 'positionName': 'LEFT', 'positionCoords': [327.28, 227], 'bid': 9.44}, {'imgObject': {}, 'id': 'cherries', 'src': '/static/foodstim60/cherries.jpg', 'key': 'i', 'origWidth': 410, 'origHeight': 411, 'width': 410, 'height': 411, 'widthPercent': 0.45, 'rescaleHeight': False, 'trialN': 79, 'loaded': True, 'loadedTime': 2539.5, 'positionName': 'RIGHT', 'positionCoords': [798.72, 226.5], 'bid': 8.63}]",165676.89999985695,1669830305186,chickenfingers,cherries,9.44,8.63,-0.8099999999999987,chickenfingers,1117.9000000953674,1119,1118.3000001907349,True,u,167305.0,1628.1000001430511,1669830306815,1629,HRV,HRV_0058,2022-11-30 17:49:01
80,"[{'imgObject': {}, 'id': 'raspberries', 'src': '/static/foodstim60/raspberries.jpg', 'key': 'u', 'origWidth': 411, 'origHeight': 411, 'width': 411, 'height': 411, 'widthPercent': 0.45, 'rescaleHeight': False, 'trialN': 80, 'loaded': True, 'loadedTime': 2828.7000000476837, 'positionName': 'LEFT', 'positionCoords': [326.28, 226.5], 'bid': 8.33}, {'imgObject': {}, 'id': 'pear', 'src': '/static/foodstim60/pear.jpg', 'key': 'i', 'origWidth': 411, 'origHeight': 410, 'width': 411, 'height': 410, 'widthPercent': 0.45, 'rescaleHeight': False, 'trialN': 80, 'loaded': True, 'loadedTime': 2820.2000000476837, 'positionName': 'RIGHT', 'positionCoords': [798.72, 227], 'bid': 5.57}]",167305.20000004768,1669830306815,raspberries,pear,8.33,5.57,-2.76,pear,2885.699999809265,2886,2886.0,True,i,170700.39999985695,3395.199999809265,1669830310210,3395,HRV,HRV_0058,2022-11-30 17:49:01
81,"[{'imgObject': {}, 'id': 'seaweed', 'src': '/static/foodstim60/seaweed.jpg', 'key': 'u', 'origWidth': 410, 'origHeight': 410, 'width': 410, 'height': 410, 'widthPercent': 0.45, 'rescaleHeight': False, 'trialN': 81, 'loaded': True, 'loadedTime': 2535.2000000476837, 'positionName': 'LEFT', 'positionCoords': [327.28, 227], 'bid': 5.61}, {'imgObject': {}, 'id': 'shreddedwheatwithmilk', 'src': '/static/foodstim60/shreddedwheatwithmilk.jpg', 'key': 'i', 'origWidth': 410, 'origHeight': 410, 'width': 410, 'height': 410, 'widthPercent': 0.45, 'rescaleHeight': False, 'trialN': 81, 'loaded': True, 'loadedTime': 2804, 'positionName': 'RIGHT', 'positionCoords': [798.72, 227], 'bid': 4.93}]",170700.59999990463,1669830310210,seaweed,shreddedwheatwithmilk,5.61,4.93,-0.6800000000000006,seaweed,1104.6000001430511,1105,1104.9000000953674,True,u,172311.29999995232,1610.7000000476837,1669830311821,1611,HRV,HRV_0058,2022-11-30 17:49:01
82,"[{'imgObject': {}, 'id': 'tacos', 'src': '/static/foodstim60/tacos.jpg', 'key': 'u', 'origWidth': 411, 'origHeight': 411, 'width': 411, 'height': 411, 'widthPercent': 0.45, 'rescaleHeight': False, 'trialN': 82, 'loaded': True, 'loadedTime': 2501.5999999046326, 'positionName': 'LEFT', 'positionCoords': [326.28, 226.5], 'bid': 7.96}, {'imgObject': {}, 'id': 'bagel and cc', 'src': '/static/foodstim60/bagel and cc.jpg', 'key': 'i', 'origWidth': 410, 'origHeight': 410, 'width': 410, 'height': 410, 'widthPercent': 0.45, 'rescaleHeight': False, 'trialN': 82, 'loaded': True, 'loadedTime': 2823.399999856949, 'positionName': 'RIGHT', 'positionCoords': [798.72, 227], 'bid': 7.36}]",172311.5,1669830311821,tacos,bagel and cc,7.96,7.36,-0.5999999999999996,tacos,1053.0999999046326,1054,1053.5999999046326,True,u,173879.79999995232,1568.2999999523163,1669830313389,1568,HRV,HRV_0058,2022-11-30 17:49:01
83,"[{'imgObject': {}, 'id': 'raisin bran w milk', 'src': '/static/foodstim60/raisin bran w milk.jpg', 'key': 'u', 'origWidth': 411, 'origHeight': 411, 'width': 411, 'height': 411, 'widthPercent': 0.45, 'rescaleHeight': False, 'trialN': 83, 'loaded': True, 'loadedTime': 2545.5, 'positionName': 'LEFT', 'positionCoords': [326.28, 226.5], 'bid': 5.09}, {'imgObject': {}, 'id': 'popsicles', 'src': '/static/foodstim60/popsicles.jpg', 'key': 'i', 'origWidth': 410, 'origHeight': 410, 'width': 410, 'height': 410, 'widthPercent': 0.45, 'rescaleHeight': False, 'trialN': 83, 'loaded': True, 'loadedTime': 2831.5999999046326, 'positionName': 'RIGHT', 'positionCoords': [798.72, 227], 'bid': 3.48}]",173880.0,1669830313389,raisin bran w milk,popsicles,5.09,3.48,-1.6099999999999999,raisin bran w milk,1211.2000000476837,1212,1211.5,True,u,175599.20000004768,1719.2000000476837,1669830315109,1720,HRV,HRV_0058,2022-11-30 17:49:01
84,"[{'imgObject': {}, 'id': 'chickenfingers', 'src': '/static/foodstim60/chickenfingers.jpg', 'key': 'u', 'origWidth': 410, 'origHeight': 410, 'width': 410, 'height': 410, 'widthPercent': 0.45, 'rescaleHeight': False, 'trialN': 84, 'loaded': True, 'loadedTime': 2530.7000000476837, 'positionName': 'LEFT', 'positionCoords': [327.28, 227], 'bid': 9.44}, {'imgObject': {}, 'id': 'avocado', 'src': '/static/foodstim60/avocado.jpg', 'key': 'i', 'origWidth': 409, 'origHeight': 409, 'width': 409, 'height': 409, 'widthPercent': 0.45, 'rescaleHeight': False, 'trialN': 84, 'loaded': True, 'loadedTime': 2751, 'positionName': 'RIGHT', 'positionCoords': [798.72, 227.5], 'bid': 9.45}]",175599.59999990463,1669830315109,chickenfingers,avocado,9.44,9.45,0.009999999999999787,chickenfingers,632.1000001430511,632,632.4000000953674,True,u,176737.0,1137.4000000953674,1669830316247,1138,HRV,HRV_0058,2022-11-30 17:49:01
85,"[{'imgObject': {}, 'id': 'edamame', 'src': '/static/foodstim60/edamame.jpg', 'key': 'u', 'origWidth': 409, 'origHeight': 410, 'width': 409, 'height': 410, 'widthPercent': 0.45, 'rescaleHeight': False, 'trialN': 85, 'loaded': True, 'loadedTime': 2673.5999999046326, 'positionName': 'LEFT', 'positionCoords': [328.28, 227], 'bid': 7.2}, {'imgObject': {}, 'id': 'corn cob', 'src': '/static/foodstim60/corn cob.jpg', 'key': 'i', 'origWidth': 411, 'origHeight': 411, 'width': 411, 'height': 411, 'widthPercent': 0.45, 'rescaleHeight': False, 'trialN': 85, 'loaded': True, 'loadedTime': 2772.5, 'positionName': 'RIGHT', 'positionCoords': [798.72, 226.5], 'bid': 4.73}]",176737.29999995232,1669830316247,edamame,corn cob,7.2,4.73,-2.4699999999999998,edamame,1960.9000000953674,1961,1961.0999999046326,True,u,179208.89999985695,2471.5999999046326,1669830318718,2471,HRV,HRV_0058,2022-11-30 17:49:01
86,"[{'imgObject': {}, 'id': 'hashbrowns', 'src': '/static/foodstim60/hashbrowns.jpg', 'key': 'u', 'origWidth': 411, 'origHeight': 410, 'width': 411, 'height': 410, 'widthPercent': 0.45, 'rescaleHeight': False, 'trialN': 86, 'loaded': True, 'loadedTime': 2694.5999999046326, 'positionName': 'LEFT', 'positionCoords': [326.28, 227], 'bid': 4.01}, {'imgObject': {}, 'id': 'eggsalad', 'src': '/static/foodstim60/eggsalad.jpg', 'key': 'i', 'origWidth': 410, 'origHeight': 409, 'width': 410, 'height': 409, 'widthPercent': 0.45, 'rescaleHeight': False, 'trialN': 86, 'loaded': True, 'loadedTime': 2807.7000000476837, 'positionName': 'RIGHT', 'positionCoords': [798.72, 227.5], 'bid': 1.57}]",179209.0,1669830318718,hashbrowns,eggsalad,4.01,1.57,-2.4399999999999995,NaN,NaN,NaN,,False,NaN,183232.20000004768,4023.2000000476837,1669830322742,4024,HRV,HRV_0058,2022-11-30 17:49:01
87,"[{'imgObject': {}, 'id': 'sushi w_condiments', 'src': '/static/foodstim60/sushi w_condiments.jpg', 'key': 'u', 'origWidth': 410, 'origHeight': 410, 'width': 410, 'height': 410, 'widthPercent': 0.45, 'rescaleHeight': False, 'trialN': 87, 'loaded': True, 'loadedTime': 2540.2999999523163, 'positionName': 'LEFT', 'positionCoords': [327.28, 227], 'bid': 9.73}, {'imgObject': {}, 'id': 'raspberries', 'src': '/static/foodstim60/raspberries.jpg', 'key': 'i', 'origWidth': 411, 'origHeight': 411, 'width': 411, 'height': 411, 'widthPercent': 0.45, 'rescaleHeight': False, 'trialN': 87, 'loaded': True, 'loadedTime': 2827, 'positionName': 'RIGHT', 'positionCoords': [798.72, 226.5], 'bid': 8.33}]",183232.39999985695,1669830322742,sushi w_condiments,raspberries,9.73,8.33,-1.4000000000000004,sushi w_condiments,1248.7000000476837,1249,1249.0,True,u,184990.20000004768,1757.8000001907349,1669830324500,1758,HRV,HRV_0058,2022-11-30 17:49:01
88,"[{'imgObject': {}, 'id': 'omelette', 'src': '/static/foodstim60/omelette.jpg', 'key': 'u', 'origWidth': 410, 'origHeight': 409, 'width': 410, 'height': 409, 'widthPercent': 0.45, 'rescaleHeight': False, 'trialN': 88, 'loaded': True, 'loadedTime': 2719.2000000476837, 'positionName': 'LEFT', 'positionCoords': [327.28, 227.5], 'bid': 7.27}, {'imgObject': {}, 'id': 'cherries', 'src': '/static/foodstim60/cherries.jpg', 'key': 'i', 'origWidth': 410, 'origHeight': 411, 'width': 410, 'height': 411, 'widthPercent': 0.45, 'rescaleHeight': False, 'trialN': 88, 'loaded': True, 'loadedTime': 2540.0999999046326, 'positionName': 'RIGHT', 'positionCoords': [798.72, 226.5], 'bid': 8.63}]",184990.29999995232,1669830324500,omelette,cherries,7.27,8.63,1.3600000000000012,omelette,946.5999999046326,947,946.9000000953674,True,u,186443.70000004768,1453.4000000953674,1669830325953,1453,HRV,HRV_0058,2022-11-30 17:49:01
89,"[{'imgObject': {}, 'id': 'hashbrowns', 'src': '/static/foodstim60/hashbrowns.jpg', 'key': 'u', 'origWidth': 411, 'origHeight': 410, 'width': 411, 'height': 410, 'widthPercent': 0.45, 'rescaleHeight': False, 'trialN': 89, 'loaded': True, 'loadedTime': 2695.2999999523163, 'positionName': 'LEFT', 'positionCoords': [326.28, 227], 'bid': 4.01}, {'imgObject': {}, 'id': 'baked potato', 'src': '/static/foodstim60/baked potato.jpg', 'key': 'i', 'origWidth': 409, 'origHeight': 410, 'width': 409, 'height': 410, 'widthPercent': 0.45, 'rescaleHeight': False, 'trialN': 89, 'loaded': True, 'loadedTime': 2794, 'positionName': 'RIGHT', 'positionCoords': [798.72, 227], 'bid': 4.23}]",186443.79999995232,1669830325953,hashbrowns,baked potato,4.01,4.23,0.22000000000000064,baked potato,2267.2999999523163,2268,2267.5999999046326,True,i,189228.79999995232,2785.0,1669830328738,2785,HRV,HRV_0058,2022-11-30 17:49:01
90,"[{'imgObject': {}, 'id': 'cheerios', 'src': '/static/foodstim60/cheerios.jpg', 'key': 'u', 'origWidth': 409, 'origHeight': 410, 'width': 409, 'height': 410, 'widthPercent': 0.45, 'rescaleHeight': False, 'trialN': 90, 'loaded': True, 'loadedTime': 2817.899999856949, 'positionName': 'LEFT', 'positionCoords': [328.28, 227], 'bid': 4.7700000000000005}, {'imgObject': {}, 'id': 'baked potato', 'src': '/static/foodstim60/baked potato.jpg', 'key': 'i', 'origWidth': 409, 'origHeight': 410, 'width': 409, 'height': 410, 'widthPercent': 0.45, 'rescaleHeight': False, 'trialN': 90, 'loaded': True, 'loadedTime': 2795, 'positionName': 'RIGHT', 'positionCoords': [798.72, 227], 'bid': 4.23}]",216286.5,1669830355796,cheerios,baked potato,4.7700000000000005,4.23,-0.54,NaN,NaN,NaN,,False,NaN,220310.59999990463,4024.0999999046326,1669830359820,4024,HRV,HRV_0058,2022-11-30 17:49:01
91,"[{'imgObject': {}, 'id': 'Tribe humus pita', 'src': '/static/foodstim60/Tribe humus pita.jpg', 'key': 'u', 'origWidth': 411, 'origHeight': 411, 'width': 411, 'height': 411, 'widthPercent': 0.45, 'rescaleHeight': False, 'trialN': 91, 'loaded': True, 'loadedTime': 2527, 'positionName': 'LEFT', 'positionCoords': [326.28, 226.5], 'bid': 8.88}, {'imgObject': {}, 'id': 'raspberries', 'src': '/static/foodstim60/raspberries.jpg', 'key': 'i', 'origWidth': 411, 'origHeight': 411, 'width': 411, 'height': 411, 'widthPercent': 0.45, 'rescaleHeight': False, 'trialN': 91, 'loaded': True, 'loadedTime': 2828.5, 'positionName': 'RIGHT', 'positionCoords': [798.72, 226.5], 'bid': 8.33}]",220310.89999985695,1669830359820,Tribe humus pita,raspberries,8.88,8.33,-0.5500000000000007,Tribe humus pita,800.4000000953674,801,800.7000000476837,True,u,221621.09999990463,1310.2000000476837,1669830361130,1310,HRV,HRV_0058,2022-11-30 17:49:01
92,"[{'imgObject': {}, 'id': 'banana', 'src': '/static/foodstim60/banana.jpg', 'key': 'u', 'origWidth': 410, 'origHeight': 410, 'width': 410, 'height': 410, 'widthPercent': 0.45, 'rescaleHeight': False, 'trialN': 92, 'loaded': True, 'loadedTime': 2829.899999856949, 'positionName': 'LEFT', 'positionCoords': [327.28, 227], 'bid': 6.140000000000001}, {'imgObject': {}, 'id': 'sweetpotato', 'src': '/static/foodstim60/sweetpotato.jpg', 'key': 'i', 'origWidth': 410, 'origHeight': 410, 'width': 410, 'height': 410, 'widthPercent': 0.45, 'rescaleHeight': False, 'trialN': 92, 'loaded': True, 'loadedTime': 2546.0999999046326, 'positionName': 'RIGHT', 'positionCoords': [798.72, 227], 'bid': 5.88}]",221621.29999995232,1669830361131,banana,sweetpotato,6.140000000000001,5.88,-0.2600000000000007,banana,1373.2000000476837,1373,1373.5,True,u,223515.89999985695,1894.5999999046326,1669830363025,1894,HRV,HRV_0058,2022-11-30 17:49:01
93,"[{'imgObject': {}, 'id': 'Tribe humus pita', 'src': '/static/foodstim60/Tribe humus pita.jpg', 'key': 'u', 'origWidth': 411, 'origHeight': 411, 'width': 411, 'height': 411, 'widthPercent': 0.45, 'rescaleHeight': False, 'trialN': 93, 'loaded': True, 'loadedTime': 2526.399999856949, 'positionName': 'LEFT', 'positionCoords': [326.28, 226.5], 'bid': 8.88}, {'imgObject': {}, 'id': 'mango', 'src': '/static/foodstim60/mango.jpg', 'key': 'i', 'origWidth': 411, 'origHeight': 411, 'width': 411, 'height': 411, 'widthPercent': 0.45, 'rescaleHeight': False, 'trialN': 93, 'loaded': True, 'loadedTime': 2590.399999856949, 'positionName': 'RIGHT', 'positionCoords': [798.72, 226.5], 'bid': 7.65}]",223516.0,1669830363025,Tribe humus pita,mango,8.88,7.65,-1.2300000000000004,Tribe humus pita,970,971,970.3999998569489,True,u,225002.5,1486.5,1669830364512,1487,HRV,HRV_0058,2022-11-30 17:49:01
94,"[{'imgObject': {}, 'id': 'luckycharms', 'src': '/static/foodstim60/luckycharms.jpg', 'key': 'u', 'origWidth': 410, 'origHeight': 409, 'width': 410, 'height': 409, 'widthPercent': 0.45, 'rescaleHeight': False, 'trialN': 94, 'loaded': True, 'loadedTime': 2653.0999999046326, 'positionName': 'LEFT', 'positionCoords': [327.28, 227.5], 'bid': 5}, {'imgObject': {}, 'id': 'mashed potato', 'src': '/static/foodstim60/mashed potato.jpg', 'key': 'i', 'origWidth': 409, 'origHeight': 409, 'width': 409, 'height': 409, 'widthPercent': 0.45, 'rescaleHeight': False, 'trialN': 94, 'loaded': True, 'loadedTime': 2537.2000000476837, 'positionName': 'RIGHT', 'positionCoords': [798.72, 227.5], 'bid': 5.66}]",225002.70000004768,1669830364512,luckycharms,mashed potato,5.0,5.66,0.6600000000000001,mashed potato,930.5999999046326,931,930.7999999523163,True,i,226439.59999990463,1436.8999998569489,1669830365949,1437,HRV,HRV_0058,2022-11-30 17:49:01
95,"[{'imgObject': {}, 'id': 'seaweed', 'src': '/static/foodstim60/seaweed.jpg', 'key': 'u', 'origWidth': 410, 'origHeight': 410, 'width': 410, 'height': 410, 'widthPercent': 0.45, 'rescaleHeight': False, 'trialN': 95, 'loaded': True, 'loadedTime': 2535.0999999046326, 'positionName': 'LEFT', 'positionCoords': [327.28, 227], 'bid': 5.61}, {'imgObject': {}, 'id': 'lox', 'src': '/static/foodstim60/lox.jpg', 'key': 'i', 'origWidth': 410, 'origHeight': 411, 'width': 410, 'height': 411, 'widthPercent': 0.45, 'rescaleHeight': False, 'trialN': 95, 'loaded': True, 'loadedTime': 2805.399999856949, 'positionName': 'RIGHT', 'positionCoords': [798.72, 226.5], 'bid': 4.32}]",226439.89999985695,1669830365949,seaweed,lox,5.61,4.32,-1.29,seaweed,1305.4000000953674,1306,1305.8000001907349,True,u,228246.20000004768,1806.3000001907349,1669830367755,1806,HRV,HRV_0058,2022-11-30 17:49:01
96,"[{'imgObject': {}, 'id': 'burrito', 'src': '/static/foodstim60/burrito.jpg', 'key': 'u', 'origWidth': 410, 'origHeight': 410, 'width': 410, 'height': 410, 'widthPercent': 0.45, 'rescaleHeight': False, 'trialN': 96, 'loaded': True, 'loadedTime': 2724.7000000476837, 'positionName': 'LEFT', 'positionCoords': [327.28, 227], 'bid': 8.75}, {'imgObject': {}, 'id': 'sweetpotato', 'src': '/static/foodstim60/sweetpotato.jpg', 'key': 'i', 'origWidth': 410, 'origHeight': 410, 'width': 410, 'height': 410, 'widthPercent': 0.45, 'rescaleHeight': False, 'trialN': 96, 'loaded': True, 'loadedTime': 2549.2999999523163, 'positionName': 'RIGHT', 'positionCoords': [798.72, 227], 'bid': 5.88}]",228246.39999985695,1669830367756,burrito,sweetpotato,8.75,5.88,-2.87,burrito,747.9000000953674,748,748.3000001907349,True,u,229507.59999990463,1261.2000000476837,1669830369017,1261,HRV,HRV_0058,2022-11-30 17:49:01
97,"[{'imgObject': {}, 'id': 'olives', 'src': '/static/foodstim60/olives.jpg', 'key': 'u', 'origWidth': 410, 'origHeight': 410, 'width': 410, 'height': 410, 'widthPercent': 0.45, 'rescaleHeight': False, 'trialN': 97, 'loaded': True, 'loadedTime': 2810.2999999523163, 'positionName': 'LEFT', 'positionCoords': [327.28, 227], 'bid': 4.73}, {'imgObject': {}, 'id': 'popsicles', 'src': '/static/foodstim60/popsicles.jpg', 'key': 'i', 'origWidth': 410, 'origHeight': 410, 'width': 410, 'height': 410, 'widthPercent': 0.45, 'rescaleHeight': False, 'trialN': 97, 'loaded': True, 'loadedTime': 2831.5, 'positionName': 'RIGHT', 'positionCoords': [798.72, 227], 'bid': 3.48}]",229508.0,1669830369017,olives,popsicles,4.73,3.48,-1.2500000000000004,olives,2362.0999999046326,2363,2362.5,True,u,232383.5,2875.5,1669830371893,2876,HRV,HRV_0058,2022-11-30 17:49:01
98,"[{'imgObject': {}, 'id': 'popsicles', 'src': '/static/foodstim60/popsicles.jpg', 'key': 'u', 'origWidth': 410, 'origHeight': 410, 'width': 410, 'height': 410, 'widthPercent': 0.45, 'rescaleHeight': False, 'trialN': 98, 'loaded': True, 'loadedTime': 2831.399999856949, 'positionName': 'LEFT', 'positionCoords': [327.28, 227], 'bid': 3.48}, {'imgObject': {}, 'id': 'eggsalad', 'src': '/static/foodstim60/eggsalad.jpg', 'key': 'i', 'origWidth': 410, 'origHeight': 409, 'width': 410, 'height': 409, 'widthPercent': 0.45, 'rescaleHeight': False, 'trialN': 98, 'loaded': True, 'loadedTime': 2808.5999999046326, 'positionName': 'RIGHT', 'positionCoords': [798.72, 227.5], 'bid': 1.57}]",232383.70000004768,1669830371893,popsicles,eggsalad,3.48,1.57,-1.91,eggsalad,638.8999998569489,639,639.2999999523163,True,i,233540.5,1156.7999999523163,1669830373050,1157,HRV,HRV_0058,2022-11-30 17:49:01
99,"[{'imgObject': {}, 'id': 'cheerios', 'src': '/static/foodstim60/cheerios.jpg', 'key': 'u', 'origWidth': 409, 'origHeight': 410, 'width': 409, 'height': 410, 'widthPercent': 0.45, 'rescaleHeight': False, 'trialN': 99, 'loaded': True, 'loadedTime': 2819.0999999046326, 'positionName': 'LEFT', 'positionCoords': [328.28, 227], 'bid': 4.7700000000000005}, {'imgObject': {}, 'id': 'seaweed', 'src': '/static/foodstim60/seaweed.jpg', 'key': 'i', 'origWidth': 410, 'origHeight': 410, 'width': 410, 'height': 410, 'widthPercent': 0.45, 'rescaleHeight': False, 'trialN': 99, 'loaded': True, 'loadedTime': 2535.399999856949, 'positionName': 'RIGHT', 'positionCoords': [798.72, 227], 'bid': 5.61}]",233540.59999990463,1669830373050,cheerios,seaweed,4.7700000000000005,5.61,0.8399999999999999,seaweed,2373.600000143051,2374,2374.0,True,i,236432.29999995232,2891.7000000476837,1669830375942,2892,HRV,HRV_0058,2022-11-30 17:49:01
100,"[{'imgObject': {}, 'id': 'chicken nuggets2', 'src': '/static/foodstim60/chicken nuggets2.jpg', 'key': 'u', 'origWidth': 410, 'origHeight': 409, 'width': 410, 'height': 409, 'widthPercent': 0.45, 'rescaleHeight': False, 'trialN': 100, 'loaded': True, 'loadedTime': 2826.399999856949, 'positionName': 'LEFT', 'positionCoords': [327.28, 227.5], 'bid': 7.18}, {'imgObject': {}, 'id': 'salad w chicken', 'src': '/static/foodstim60/salad w chicken.jpg', 'key': 'i', 'origWidth': 411, 'origHeight': 411, 'width': 411, 'height': 411, 'widthPercent': 0.45, 'rescaleHeight': False, 'trialN': 100, 'loaded': True, 'loadedTime': 2721.7000000476837, 'positionName': 'RIGHT', 'positionCoords': [798.72, 226.5], 'bid': 7.26}]",236432.5,1669830375942,chicken nuggets2,salad w chicken,7.18,7.26,0.08000000000000007,chicken nuggets2,1536.0999999046326,1536,1536.5999999046326,True,u,238483.20000004768,2050.7000000476837,1669830377992,2050,HRV,HRV_0058,2022-11-30 17:49:01
101,"[{'imgObject': {}, 'id': 'turkeysandwich', 'src': '/static/foodstim60/turkeysandwich.jpg', 'key': 'u', 'origWidth': 409, 'origHeight': 409, 'width': 409, 'height': 409, 'widthPercent': 0.45, 'rescaleHeight': False, 'trialN': 101, 'loaded': True, 'loadedTime': 2651.2000000476837, 'positionName': 'LEFT', 'positionCoords': [328.28, 227.5], 'bid': 7.12}, {'imgObject': {}, 'id': 'froot loops w milk', 'src': '/static/foodstim60/froot loops w milk.jpg', 'key': 'i', 'origWidth': 410, 'origHeight': 410, 'width': 410, 'height': 410, 'widthPercent': 0.45, 'rescaleHeight': False, 'trialN': 101, 'loaded': True, 'loadedTime': 2559.5999999046326, 'positionName': 'RIGHT', 'positionCoords': [798.72, 227], 'bid': 4.7}]",238483.5,1669830377993,turkeysandwich,froot loops w milk,7.12,4.7,-2.42,turkeysandwich,1635.5,1636,1635.8999998569489,True,u,240625.39999985695,2141.899999856949,1669830380135,2142,HRV,HRV_0058,2022-11-30 17:49:01
102,"[{'imgObject': {}, 'id': 'baked potato', 'src': '/static/foodstim60/baked potato.jpg', 'key': 'u', 'origWidth': 409, 'origHeight': 410, 'width': 409, 'height': 410, 'widthPercent': 0.45, 'rescaleHeight': False, 'trialN': 102, 'loaded': True, 'loadedTime': 2795.399999856949, 'positionName': 'LEFT', 'positionCoords': [328.28, 227], 'bid': 4.23}, {'imgObject': {}, 'id': 'cherry tomato', 'src': '/static/foodstim60/cherry tomato.jpg', 'key': 'i', 'origWidth': 410, 'origHeight': 410, 'width': 410, 'height': 410, 'widthPercent': 0.45, 'rescaleHeight': False, 'trialN': 102, 'loaded': True, 'loadedTime': 2760.7999999523163, 'positionName': 'RIGHT', 'positionCoords': [798.72, 227], 'bid': 6.83}]",240625.59999990463,1669830380135,baked potato,cherry tomato,4.23,6.83,2.5999999999999996,baked potato,2365.2000000476837,2365,2365.600000143051,True,u,243502.70000004768,2877.100000143051,1669830383012,2877,HRV,HRV_0058,2022-11-30 17:49:01
103,"[{'imgObject': {}, 'id': 'luckycharms', 'src': '/static/foodstim60/luckycharms.jpg', 'key': 'u', 'origWidth': 410, 'origHeight': 409, 'width': 410, 'height': 409, 'widthPercent': 0.45, 'rescaleHeight': False, 'trialN': 103, 'loaded': True, 'loadedTime': 2653.0999999046326, 'positionName': 'LEFT', 'positionCoords': [327.28, 227.5], 'bid': 5}, {'imgObject': {}, 'id': 'granola w milk', 'src': '/static/foodstim60/granola w milk.jpg', 'key': 'i', 'origWidth': 410, 'origHeight': 410, 'width': 410, 'height': 410, 'widthPercent': 0.45, 'rescaleHeight': False, 'trialN': 103, 'loaded': True, 'loadedTime': 2707.399999856949, 'positionName': 'RIGHT', 'positionCoords': [798.72, 227], 'bid': 4.93}]",243503.09999990463,1669830383012,luckycharms,granola w milk,5.0,4.93,-0.07000000000000028,granola w milk,1398.1000001430511,1399,1398.7999999523163,True,i,245408.79999995232,1905.7000000476837,1669830384918,1906,HRV,HRV_0058,2022-11-30 17:49:01
104,"[{'imgObject': {}, 'id': 'orange slices', 'src': '/static/foodstim60/orange slices.jpg', 'key': 'u', 'origWidth': 409, 'origHeight': 410, 'width': 409, 'height': 410, 'widthPercent': 0.45, 'rescaleHeight': False, 'trialN': 104, 'loaded': True, 'loadedTime': 2793.899999856949, 'positionName': 'LEFT', 'positionCoords': [328.28, 227], 'bid': 5.84}, {'imgObject': {}, 'id': 'fruitsalad', 'src': '/static/foodstim60/fruitsalad.jpg', 'key': 'i', 'origWidth': 410, 'origHeight': 410, 'width': 410, 'height': 410, 'widthPercent': 0.45, 'rescaleHeight': False, 'trialN': 104, 'loaded': True, 'loadedTime': 2807.399999856949, 'positionName': 'RIGHT', 'positionCoords': [798.72, 227], 'bid': 8.69}]",245408.89999985695,1669830384918,orange slices,fruitsalad,5.84,8.69,2.8499999999999996,fruitsalad,1260.7000000476837,1261,1261.1000001430511,True,i,247186.89999985695,1778.0,1669830386696,1778,HRV,HRV_0058,2022-11-30 17:49:01
105,"[{'imgObject': {}, 'id': 'eggs', 'src': '/static/foodstim60/eggs.jpg', 'key': 'u', 'origWidth': 409, 'origHeight': 409, 'width': 409, 'height': 409, 'widthPercent': 0.45, 'rescaleHeight': False, 'trialN': 105, 'loaded': True, 'loadedTime': 2823.5, 'positionName': 'LEFT', 'positionCoords': [328.28, 227.5], 'bid': 5.13}, {'imgObject': {}, 'id': 'banana', 'src': '/static/foodstim60/banana.jpg', 'key': 'i', 'origWidth': 410, 'origHeight': 410, 'width': 410, 'height': 410, 'widthPercent': 0.45, 'rescaleHeight': False, 'trialN': 105, 'loaded': True, 'loadedTime': 2828.7999999523163, 'positionName': 'RIGHT', 'positionCoords': [798.72, 227], 'bid': 6.140000000000001}]",247187.0,1669830386696,eggs,banana,5.13,6.140000000000001,1.0100000000000007,banana,1894.5,1895,1894.7999999523163,True,i,249591.29999995232,2404.2999999523163,1669830389101,2405,HRV,HRV_0058,2022-11-30 17:49:01
106,"[{'imgObject': {}, 'id': 'omelette', 'src': '/static/foodstim60/omelette.jpg', 'key': 'u', 'origWidth': 410, 'origHeight': 409, 'width': 410, 'height': 409, 'widthPercent': 0.45, 'rescaleHeight': False, 'trialN': 106, 'loaded': True, 'loadedTime': 2717.899999856949, 'positionName': 'LEFT', 'positionCoords': [327.28, 227.5], 'bid': 7.27}, {'imgObject': {}, 'id': 'bagel and cc', 'src': '/static/foodstim60/bagel and cc.jpg', 'key': 'i', 'origWidth': 410, 'origHeight': 410, 'width': 410, 'height': 410, 'widthPercent': 0.45, 'rescaleHeight': False, 'trialN': 106, 'loaded': True, 'loadedTime': 2823, 'positionName': 'RIGHT', 'positionCoords': [798.72, 227], 'bid': 7.36}]",249591.59999990463,1669830389101,omelette,bagel and cc,7.27,7.36,0.09000000000000075,omelette,1009.2999999523163,1009,1009.6000001430511,True,u,251111.20000004768,1519.6000001430511,1669830390620,1519,HRV,HRV_0058,2022-11-30 17:49:01
107,"[{'imgObject': {}, 'id': 'apple slices', 'src': '/static/foodstim60/apple slices.jpg', 'key': 'u', 'origWidth': 409, 'origHeight': 410, 'width': 409, 'height': 410, 'widthPercent': 0.45, 'rescaleHeight': False, 'trialN': 107, 'loaded': True, 'loadedTime': 2747.5, 'positionName': 'LEFT', 'positionCoords': [328.28, 227], 'bid': 6.38}, {'imgObject': {}, 'id': 'Tribe humus pita', 'src': '/static/foodstim60/Tribe humus pita.jpg', 'key': 'i', 'origWidth': 411, 'origHeight': 411, 'width': 411, 'height': 411, 'widthPercent': 0.45, 'rescaleHeight': False, 'trialN': 107, 'loaded': True, 'loadedTime': 2525.2000000476837, 'positionName': 'RIGHT', 'positionCoords': [798.72, 226.5], 'bid': 8.88}]",251111.39999985695,1669830390621,apple slices,Tribe humus pita,6.38,8.88,2.500000000000001,Tribe humus pita,941.2000000476837,941,941.5,True,i,252564.5,1453.1000001430511,1669830392074,1453,HRV,HRV_0058,2022-11-30 17:49:01
