trialN,stimuli,trialStartTime,trialStartTime_UNIX,stimulus1,stimulus2,stimulus1Bid,stimulus2Bid,delta,selected,rt,rt_UNIX,rt_perfnow,receivedResponse,rsp,trialEndTime,trialDuration,trialEndTime_UNIX,trialDuration_UNIX,exp,subjectId,date
0,"[{'imgObject': {}, 'id': 'steak', 'src': '/static/foodstim60/steak.jpg', 'key': 'u', 'origWidth': 410, 'origHeight': 410, 'width': 410, 'height': 410, 'widthPercent': 0.45, 'rescaleHeight': False, 'trialN': 0, 'loaded': True, 'loadedTime': 9390, 'positionName': 'LEFT', 'positionCoords': [511.6, 335], 'bid': 9.79}, {'imgObject': {}, 'id': 'eggsalad', 'src': '/static/foodstim60/eggsalad.jpg', 'key': 'i', 'origWidth': 410, 'origHeight': 409, 'width': 410, 'height': 409, 'widthPercent': 0.45, 'rescaleHeight': False, 'trialN': 0, 'loaded': True, 'loadedTime': 9646.89999999851, 'positionName': 'RIGHT', 'positionCoords': [998.4, 335.5], 'bid': 8.45}]",12741.79999999702,1669840818523,steak,eggsalad,9.79,8.45,-1.3399999999999999,steak,1152.5,1224,1224.3000000044703,True,u,14478.60000000149,1736.8000000044703,1669840820260,1737,HRV,HRV_0289,2022-11-30 20:44:08
1,"[{'imgObject': {}, 'id': 'lox', 'src': '/static/foodstim60/lox.jpg', 'key': 'u', 'origWidth': 410, 'origHeight': 411, 'width': 410, 'height': 411, 'widthPercent': 0.45, 'rescaleHeight': False, 'trialN': 1, 'loaded': True, 'loadedTime': 9758.29999999702, 'positionName': 'LEFT', 'positionCoords': [511.6, 334.5], 'bid': 2.1}, {'imgObject': {}, 'id': 'orange slices', 'src': '/static/foodstim60/orange slices.jpg', 'key': 'i', 'origWidth': 409, 'origHeight': 410, 'width': 409, 'height': 410, 'widthPercent': 0.45, 'rescaleHeight': False, 'trialN': 1, 'loaded': True, 'loadedTime': 9776.20000000298, 'positionName': 'RIGHT', 'positionCoords': [998.4, 335], 'bid': 2.08}]",14478.89999999851,1669840820260,lox,orange slices,2.1,2.08,-0.020000000000000018,orange slices,1047.3999999985099,1049,1048.8999999985099,True,i,16034.70000000298,1555.8000000044703,1669840821816,1556,HRV,HRV_0289,2022-11-30 20:44:08
2,"[{'imgObject': {}, 'id': 'omelette', 'src': '/static/foodstim60/omelette.jpg', 'key': 'u', 'origWidth': 410, 'origHeight': 409, 'width': 410, 'height': 409, 'widthPercent': 0.45, 'rescaleHeight': False, 'trialN': 2, 'loaded': True, 'loadedTime': 9914.60000000149, 'positionName': 'LEFT', 'positionCoords': [511.6, 335.5], 'bid': 9.34}, {'imgObject': {}, 'id': 'baked potato', 'src': '/static/foodstim60/baked potato.jpg', 'key': 'i', 'origWidth': 409, 'origHeight': 410, 'width': 409, 'height': 410, 'widthPercent': 0.45, 'rescaleHeight': False, 'trialN': 2, 'loaded': True, 'loadedTime': 9963.20000000298, 'positionName': 'RIGHT', 'positionCoords': [998.4, 335], 'bid': 7.58}]",16034.89999999851,1669840821816,omelette,baked potato,9.34,7.58,-1.7599999999999998,omelette,823.6000000014901,826,825.7000000029802,True,u,17363.0,1328.1000000014901,1669840823144,1328,HRV,HRV_0289,2022-11-30 20:44:08
3,"[{'imgObject': {}, 'id': 'hotdog w must', 'src': '/static/foodstim60/hotdog w must.jpg', 'key': 'u', 'origWidth': 409, 'origHeight': 409, 'width': 409, 'height': 409, 'widthPercent': 0.45, 'rescaleHeight': False, 'trialN': 3, 'loaded': True, 'loadedTime': 10021.29999999702, 'positionName': 'LEFT', 'positionCoords': [512.6, 335.5], 'bid': 5.93}, {'imgObject': {}, 'id': 'chicken nuggets2', 'src': '/static/foodstim60/chicken nuggets2.jpg', 'key': 'i', 'origWidth': 410, 'origHeight': 409, 'width': 410, 'height': 409, 'widthPercent': 0.45, 'rescaleHeight': False, 'trialN': 3, 'loaded': True, 'loadedTime': 10071, 'positionName': 'RIGHT', 'positionCoords': [998.4, 335.5], 'bid': 5.87}]",17363.29999999702,1669840823144,hotdog w must,chicken nuggets2,5.93,5.87,-0.05999999999999961,hotdog w must,1011.1000000014901,1013,1012.9000000059605,True,u,18882.89999999851,1519.6000000014901,1669840824664,1520,HRV,HRV_0289,2022-11-30 20:44:08
4,"[{'imgObject': {}, 'id': 'cocktailshrimp', 'src': '/static/foodstim60/cocktailshrimp.jpg', 'key': 'u', 'origWidth': 410, 'origHeight': 410, 'width': 410, 'height': 410, 'widthPercent': 0.45, 'rescaleHeight': False, 'trialN': 4, 'loaded': True, 'loadedTime': 10150.10000000149, 'positionName': 'LEFT', 'positionCoords': [511.6, 335], 'bid': 6.03}, {'imgObject': {}, 'id': 'granola w milk', 'src': '/static/foodstim60/granola w milk.jpg', 'key': 'i', 'origWidth': 410, 'origHeight': 410, 'width': 410, 'height': 410, 'widthPercent': 0.45, 'rescaleHeight': False, 'trialN': 4, 'loaded': True, 'loadedTime': 10161.29999999702, 'positionName': 'RIGHT', 'positionCoords': [998.4, 335], 'bid': 5.3100000000000005}]",18883.60000000149,1669840824665,cocktailshrimp,granola w milk,6.03,5.3100000000000005,-0.7199999999999998,cocktailshrimp,780.0,781,781.2999999970198,True,u,20170.79999999702,1287.1999999955297,1669840825952,1287,HRV,HRV_0289,2022-11-30 20:44:08
5,"[{'imgObject': {}, 'id': 'bagel plain', 'src': '/static/foodstim60/bagel plain.jpg', 'key': 'u', 'origWidth': 410, 'origHeight': 410, 'width': 410, 'height': 410, 'widthPercent': 0.45, 'rescaleHeight': False, 'trialN': 5, 'loaded': True, 'loadedTime': 10194.20000000298, 'positionName': 'LEFT', 'positionCoords': [511.6, 335], 'bid': 9.86}, {'imgObject': {}, 'id': 'grilled chicken strips', 'src': '/static/foodstim60/grilled chicken strips.jpg', 'key': 'i', 'origWidth': 410, 'origHeight': 411, 'width': 410, 'height': 411, 'widthPercent': 0.45, 'rescaleHeight': False, 'trialN': 5, 'loaded': True, 'loadedTime': 10295.29999999702, 'positionName': 'RIGHT', 'positionCoords': [998.4, 334.5], 'bid': 7.55}]",20171.10000000149,1669840825952,bagel plain,grilled chicken strips,9.86,7.55,-2.3099999999999996,bagel plain,688.3999999985099,690,690.0,True,u,21362.79999999702,1191.6999999955297,1669840827144,1192,HRV,HRV_0289,2022-11-30 20:44:08
6,"[{'imgObject': {}, 'id': 'mango', 'src': '/static/foodstim60/mango.jpg', 'key': 'u', 'origWidth': 411, 'origHeight': 411, 'width': 411, 'height': 411, 'widthPercent': 0.45, 'rescaleHeight': False, 'trialN': 6, 'loaded': True, 'loadedTime': 10360.29999999702, 'positionName': 'LEFT', 'positionCoords': [510.6, 334.5], 'bid': 0.79}, {'imgObject': {}, 'id': 'pear', 'src': '/static/foodstim60/pear.jpg', 'key': 'i', 'origWidth': 411, 'origHeight': 410, 'width': 411, 'height': 410, 'widthPercent': 0.45, 'rescaleHeight': False, 'trialN': 6, 'loaded': True, 'loadedTime': 10473.79999999702, 'positionName': 'RIGHT', 'positionCoords': [998.4, 335], 'bid': 1.02}]",21367.89999999851,1669840827149,mango,pear,0.79,1.02,0.22999999999999998,pear,757.3999999985099,758,758.3999999985099,True,i,22626.89999999851,1259.0,1669840828408,1259,HRV,HRV_0289,2022-11-30 20:44:08
7,"[{'imgObject': {}, 'id': 'raisin bran w milk', 'src': '/static/foodstim60/raisin bran w milk.jpg', 'key': 'u', 'origWidth': 411, 'origHeight': 411, 'width': 411, 'height': 411, 'widthPercent': 0.45, 'rescaleHeight': False, 'trialN': 7, 'loaded': True, 'loadedTime': 10526.20000000298, 'positionName': 'LEFT', 'positionCoords': [510.6, 334.5], 'bid': 4.93}, {'imgObject': {}, 'id': 'turkey sandwich', 'src': '/static/foodstim60/turkey sandwich.jpg', 'key': 'i', 'origWidth': 409, 'origHeight': 409, 'width': 409, 'height': 409, 'widthPercent': 0.45, 'rescaleHeight': False, 'trialN': 7, 'loaded': True, 'loadedTime': 10722.20000000298, 'positionName': 'RIGHT', 'positionCoords': [998.4, 335.5], 'bid': 9.67}]",22627.29999999702,1669840828408,raisin bran w milk,turkey sandwich,4.93,9.67,4.74,turkey sandwich,626.2000000029802,628,627.5,True,i,23763.10000000149,1135.8000000044703,1669840829544,1136,HRV,HRV_0289,2022-11-30 20:44:08
8,"[{'imgObject': {}, 'id': 'apple slices', 'src': '/static/foodstim60/apple slices.jpg', 'key': 'u', 'origWidth': 409, 'origHeight': 410, 'width': 409, 'height': 410, 'widthPercent': 0.45, 'rescaleHeight': False, 'trialN': 8, 'loaded': True, 'loadedTime': 10635.5, 'positionName': 'LEFT', 'positionCoords': [512.6, 335], 'bid': 0.66}, {'imgObject': {}, 'id': 'seaweed', 'src': '/static/foodstim60/seaweed.jpg', 'key': 'i', 'origWidth': 410, 'origHeight': 410, 'width': 410, 'height': 410, 'widthPercent': 0.45, 'rescaleHeight': False, 'trialN': 8, 'loaded': True, 'loadedTime': 10809.89999999851, 'positionName': 'RIGHT', 'positionCoords': [998.4, 335], 'bid': 0.68}]",23763.29999999702,1669840829544,apple slices,seaweed,0.66,0.68,0.020000000000000018,apple slices,708.0,714,714.1000000014901,True,u,24979.10000000149,1215.8000000044703,1669840830760,1216,HRV,HRV_0289,2022-11-30 20:44:08
9,"[{'imgObject': {}, 'id': 'omelette', 'src': '/static/foodstim60/omelette.jpg', 'key': 'u', 'origWidth': 410, 'origHeight': 409, 'width': 410, 'height': 409, 'widthPercent': 0.45, 'rescaleHeight': False, 'trialN': 9, 'loaded': True, 'loadedTime': 9916.39999999851, 'positionName': 'LEFT', 'positionCoords': [511.6, 335.5], 'bid': 9.34}, {'imgObject': {}, 'id': 'froot loops w milk', 'src': '/static/foodstim60/froot loops w milk.jpg', 'key': 'i', 'origWidth': 410, 'origHeight': 410, 'width': 410, 'height': 410, 'widthPercent': 0.45, 'rescaleHeight': False, 'trialN': 9, 'loaded': True, 'loadedTime': 10815.79999999702, 'positionName': 'RIGHT', 'positionCoords': [998.4, 335], 'bid': 4.71}]",24979.5,1669840830760,omelette,froot loops w milk,9.34,4.71,-4.63,omelette,665.0,667,666.2000000029802,True,u,26146.70000000298,1167.2000000029802,1669840831928,1168,HRV,HRV_0289,2022-11-30 20:44:08
10,"[{'imgObject': {}, 'id': 'rigatoni', 'src': '/static/foodstim60/rigatoni.jpg', 'key': 'u', 'origWidth': 411, 'origHeight': 411, 'width': 411, 'height': 411, 'widthPercent': 0.45, 'rescaleHeight': False, 'trialN': 10, 'loaded': True, 'loadedTime': 10970.20000000298, 'positionName': 'LEFT', 'positionCoords': [510.6, 334.5], 'bid': 8.700000000000001}, {'imgObject': {}, 'id': 'grilled chicken strips', 'src': '/static/foodstim60/grilled chicken strips.jpg', 'key': 'i', 'origWidth': 410, 'origHeight': 411, 'width': 410, 'height': 411, 'widthPercent': 0.45, 'rescaleHeight': False, 'trialN': 10, 'loaded': True, 'loadedTime': 10295.70000000298, 'positionName': 'RIGHT', 'positionCoords': [998.4, 334.5], 'bid': 7.55}]",26147.0,1669840831928,rigatoni,grilled chicken strips,8.700000000000001,7.55,-1.1500000000000012,rigatoni,945.5,947,947.0,True,u,27595.29999999702,1448.2999999970198,1669840833376,1448,HRV,HRV_0289,2022-11-30 20:44:08
11,"[{'imgObject': {}, 'id': 'cocktailshrimp', 'src': '/static/foodstim60/cocktailshrimp.jpg', 'key': 'u', 'origWidth': 410, 'origHeight': 410, 'width': 410, 'height': 410, 'widthPercent': 0.45, 'rescaleHeight': False, 'trialN': 11, 'loaded': True, 'loadedTime': 10157.29999999702, 'positionName': 'LEFT', 'positionCoords': [511.6, 335], 'bid': 6.03}, {'imgObject': {}, 'id': 'Tribe humus pita', 'src': '/static/foodstim60/Tribe humus pita.jpg', 'key': 'i', 'origWidth': 411, 'origHeight': 411, 'width': 411, 'height': 411, 'widthPercent': 0.45, 'rescaleHeight': False, 'trialN': 11, 'loaded': True, 'loadedTime': 11032.79999999702, 'positionName': 'RIGHT', 'positionCoords': [998.4, 334.5], 'bid': 6.23}]",27595.70000000298,1669840833377,cocktailshrimp,Tribe humus pita,6.03,6.23,0.20000000000000018,cocktailshrimp,853.5999999940395,854,854.5999999940395,True,u,28955.20000000298,1359.5,1669840834736,1359,HRV,HRV_0289,2022-11-30 20:44:08
12,"[{'imgObject': {}, 'id': 'froot loops w milk', 'src': '/static/foodstim60/froot loops w milk.jpg', 'key': 'u', 'origWidth': 410, 'origHeight': 410, 'width': 410, 'height': 410, 'widthPercent': 0.45, 'rescaleHeight': False, 'trialN': 12, 'loaded': True, 'loadedTime': 10865.20000000298, 'positionName': 'LEFT', 'positionCoords': [511.6, 335], 'bid': 4.71}, {'imgObject': {}, 'id': 'fruitsalad', 'src': '/static/foodstim60/fruitsalad.jpg', 'key': 'i', 'origWidth': 410, 'origHeight': 410, 'width': 410, 'height': 410, 'widthPercent': 0.45, 'rescaleHeight': False, 'trialN': 12, 'loaded': True, 'loadedTime': 11033.10000000149, 'positionName': 'RIGHT', 'positionCoords': [998.4, 335], 'bid': 5.01}]",28955.39999999851,1669840834736,froot loops w milk,fruitsalad,4.71,5.01,0.2999999999999998,fruitsalad,1010.8999999985099,1012,1012.1000000014901,True,i,30474.70000000298,1519.3000000044703,1669840836256,1520,HRV,HRV_0289,2022-11-30 20:44:08
13,"[{'imgObject': {}, 'id': 'sushi w_condiments', 'src': '/static/foodstim60/sushi w_condiments.jpg', 'key': 'u', 'origWidth': 410, 'origHeight': 410, 'width': 410, 'height': 410, 'widthPercent': 0.45, 'rescaleHeight': False, 'trialN': 13, 'loaded': True, 'loadedTime': 11123.89999999851, 'positionName': 'LEFT', 'positionCoords': [511.6, 335], 'bid': 9.16}, {'imgObject': {}, 'id': 'burger', 'src': '/static/foodstim60/burger.jpg', 'key': 'i', 'origWidth': 409, 'origHeight': 409, 'width': 409, 'height': 409, 'widthPercent': 0.45, 'rescaleHeight': False, 'trialN': 13, 'loaded': True, 'loadedTime': 11176.70000000298, 'positionName': 'RIGHT', 'positionCoords': [998.4, 335.5], 'bid': 9.19}]",30475.0,1669840836256,sushi w_condiments,burger,9.16,9.19,0.02999999999999936,sushi w_condiments,710.6000000014901,712,711.8999999985099,True,u,31691.20000000298,1216.2000000029802,1669840837472,1216,HRV,HRV_0289,2022-11-30 20:44:08
14,"[{'imgObject': {}, 'id': 'hashbrowns', 'src': '/static/foodstim60/hashbrowns.jpg', 'key': 'u', 'origWidth': 411, 'origHeight': 410, 'width': 411, 'height': 410, 'widthPercent': 0.45, 'rescaleHeight': False, 'trialN': 14, 'loaded': True, 'loadedTime': 11224.70000000298, 'positionName': 'LEFT', 'positionCoords': [510.6, 335], 'bid': 0.98}, {'imgObject': {}, 'id': 'froot loops w milk', 'src': '/static/foodstim60/froot loops w milk.jpg', 'key': 'i', 'origWidth': 410, 'origHeight': 410, 'width': 410, 'height': 410, 'widthPercent': 0.45, 'rescaleHeight': False, 'trialN': 14, 'loaded': True, 'loadedTime': 10867, 'positionName': 'RIGHT', 'positionCoords': [998.4, 335], 'bid': 4.71}]",31691.60000000149,1669840837473,hashbrowns,froot loops w milk,0.98,4.71,3.73,froot loops w milk,874.0,875,875.3999999985099,True,i,33075.10000000149,1383.5,1669840838856,1383,HRV,HRV_0289,2022-11-30 20:44:08
15,"[{'imgObject': {}, 'id': 'hotdog w must', 'src': '/static/foodstim60/hotdog w must.jpg', 'key': 'u', 'origWidth': 409, 'origHeight': 409, 'width': 409, 'height': 409, 'widthPercent': 0.45, 'rescaleHeight': False, 'trialN': 15, 'loaded': True, 'loadedTime': 9963.39999999851, 'positionName': 'LEFT', 'positionCoords': [512.6, 335.5], 'bid': 5.93}, {'imgObject': {}, 'id': 'chickenfingers', 'src': '/static/foodstim60/chickenfingers.jpg', 'key': 'i', 'origWidth': 410, 'origHeight': 410, 'width': 410, 'height': 410, 'widthPercent': 0.45, 'rescaleHeight': False, 'trialN': 15, 'loaded': True, 'loadedTime': 11363.39999999851, 'positionName': 'RIGHT', 'positionCoords': [998.4, 335], 'bid': 6.33}]",33075.39999999851,1669840838856,hotdog w must,chickenfingers,5.93,6.33,0.40000000000000036,hotdog w must,890.8999999985099,893,892.1000000014901,True,u,34474.79999999702,1399.3999999985099,1669840840256,1400,HRV,HRV_0289,2022-11-30 20:44:08
16,"[{'imgObject': {}, 'id': 'fruitsalad', 'src': '/static/foodstim60/fruitsalad.jpg', 'key': 'u', 'origWidth': 410, 'origHeight': 410, 'width': 410, 'height': 410, 'widthPercent': 0.45, 'rescaleHeight': False, 'trialN': 16, 'loaded': True, 'loadedTime': 11074.89999999851, 'positionName': 'LEFT', 'positionCoords': [511.6, 335], 'bid': 5.01}, {'imgObject': {}, 'id': 'cheerios', 'src': '/static/foodstim60/cheerios.jpg', 'key': 'i', 'origWidth': 409, 'origHeight': 410, 'width': 409, 'height': 410, 'widthPercent': 0.45, 'rescaleHeight': False, 'trialN': 16, 'loaded': True, 'loadedTime': 11389.20000000298, 'positionName': 'RIGHT', 'positionCoords': [998.4, 335], 'bid': 5.03}]",34475.10000000149,1669840840256,fruitsalad,cheerios,5.01,5.03,0.020000000000000462,cheerios,916.5,919,918.3999999985099,True,i,35898.79999999702,1423.6999999955297,1669840841680,1424,HRV,HRV_0289,2022-11-30 20:44:08
17,"[{'imgObject': {}, 'id': 'tacos', 'src': '/static/foodstim60/tacos.jpg', 'key': 'u', 'origWidth': 411, 'origHeight': 411, 'width': 411, 'height': 411, 'widthPercent': 0.45, 'rescaleHeight': False, 'trialN': 17, 'loaded': True, 'loadedTime': 11400.79999999702, 'positionName': 'LEFT', 'positionCoords': [510.6, 334.5], 'bid': 9.87}, {'imgObject': {}, 'id': 'omelette', 'src': '/static/foodstim60/omelette.jpg', 'key': 'i', 'origWidth': 410, 'origHeight': 409, 'width': 410, 'height': 409, 'widthPercent': 0.45, 'rescaleHeight': False, 'trialN': 17, 'loaded': True, 'loadedTime': 9917.10000000149, 'positionName': 'RIGHT', 'positionCoords': [998.4, 335.5], 'bid': 9.34}]",35900.5,1669840841682,tacos,omelette,9.87,9.34,-0.5299999999999994,tacos,594.7999999970198,596,596.2000000029802,True,u,37003.29999999702,1102.7999999970198,1669840842784,1102,HRV,HRV_0289,2022-11-30 20:44:08
18,"[{'imgObject': {}, 'id': 'turkey sandwich', 'src': '/static/foodstim60/turkey sandwich.jpg', 'key': 'u', 'origWidth': 409, 'origHeight': 409, 'width': 409, 'height': 409, 'widthPercent': 0.45, 'rescaleHeight': False, 'trialN': 18, 'loaded': True, 'loadedTime': 10741.5, 'positionName': 'LEFT', 'positionCoords': [512.6, 335.5], 'bid': 9.67}, {'imgObject': {}, 'id': 'burger', 'src': '/static/foodstim60/burger.jpg', 'key': 'i', 'origWidth': 409, 'origHeight': 409, 'width': 409, 'height': 409, 'widthPercent': 0.45, 'rescaleHeight': False, 'trialN': 18, 'loaded': True, 'loadedTime': 11216.10000000149, 'positionName': 'RIGHT', 'positionCoords': [998.4, 335.5], 'bid': 9.19}]",37003.5,1669840842785,turkey sandwich,burger,9.67,9.19,-0.4800000000000004,turkey sandwich,642.0,643,643.7000000029802,True,u,38154.70000000298,1151.2000000029802,1669840843936,1151,HRV,HRV_0289,2022-11-30 20:44:08
19,"[{'imgObject': {}, 'id': 'cherries', 'src': '/static/foodstim60/cherries.jpg', 'key': 'u', 'origWidth': 410, 'origHeight': 411, 'width': 410, 'height': 411, 'widthPercent': 0.45, 'rescaleHeight': False, 'trialN': 19, 'loaded': True, 'loadedTime': 11449.60000000149, 'positionName': 'LEFT', 'positionCoords': [511.6, 334.5], 'bid': 0.08}, {'imgObject': {}, 'id': 'popsicles', 'src': '/static/foodstim60/popsicles.jpg', 'key': 'i', 'origWidth': 410, 'origHeight': 410, 'width': 410, 'height': 410, 'widthPercent': 0.45, 'rescaleHeight': False, 'trialN': 19, 'loaded': True, 'loadedTime': 11460.79999999702, 'positionName': 'RIGHT', 'positionCoords': [998.4, 335], 'bid': 0.08}]",38154.89999999851,1669840843936,cherries,popsicles,0.08,0.08,0.0,popsicles,939.5,941,941.0,True,i,39603.29999999702,1448.3999999985099,1669840845384,1448,HRV,HRV_0289,2022-11-30 20:44:08
20,"[{'imgObject': {}, 'id': 'chicken nuggets2', 'src': '/static/foodstim60/chicken nuggets2.jpg', 'key': 'u', 'origWidth': 410, 'origHeight': 409, 'width': 410, 'height': 409, 'widthPercent': 0.45, 'rescaleHeight': False, 'trialN': 20, 'loaded': True, 'loadedTime': 10072.79999999702, 'positionName': 'LEFT', 'positionCoords': [511.6, 335.5], 'bid': 5.87}, {'imgObject': {}, 'id': 'mashed potato', 'src': '/static/foodstim60/mashed potato.jpg', 'key': 'i', 'origWidth': 409, 'origHeight': 409, 'width': 409, 'height': 409, 'widthPercent': 0.45, 'rescaleHeight': False, 'trialN': 20, 'loaded': True, 'loadedTime': 11488.60000000149, 'positionName': 'RIGHT', 'positionCoords': [998.4, 335.5], 'bid': 5.97}]",39603.60000000149,1669840845385,chicken nuggets2,mashed potato,5.87,5.97,0.09999999999999964,chicken nuggets2,570.6999999955297,571,571.6999999955297,True,u,40683.20000000298,1079.6000000014901,1669840846464,1079,HRV,HRV_0289,2022-11-30 20:44:08
21,"[{'imgObject': {}, 'id': 'cherry tomato', 'src': '/static/foodstim60/cherry tomato.jpg', 'key': 'u', 'origWidth': 410, 'origHeight': 410, 'width': 410, 'height': 410, 'widthPercent': 0.45, 'rescaleHeight': False, 'trialN': 21, 'loaded': True, 'loadedTime': 11500.39999999851, 'positionName': 'LEFT', 'positionCoords': [511.6, 335], 'bid': 5.73}, {'imgObject': {}, 'id': 'strawberries', 'src': '/static/foodstim60/strawberries.jpg', 'key': 'i', 'origWidth': 410, 'origHeight': 410, 'width': 410, 'height': 410, 'widthPercent': 0.45, 'rescaleHeight': False, 'trialN': 21, 'loaded': True, 'loadedTime': 11556.5, 'positionName': 'RIGHT', 'positionCoords': [998.4, 335], 'bid': 2.81}]",40683.5,1669840846464,cherry tomato,strawberries,5.73,2.81,-2.9200000000000004,cherry tomato,848.0,850,849.1000000014901,True,u,42034.70000000298,1351.2000000029802,1669840847816,1352,HRV,HRV_0289,2022-11-30 20:44:08
22,"[{'imgObject': {}, 'id': 'eggsalad', 'src': '/static/foodstim60/eggsalad.jpg', 'key': 'u', 'origWidth': 410, 'origHeight': 409, 'width': 410, 'height': 409, 'widthPercent': 0.45, 'rescaleHeight': False, 'trialN': 22, 'loaded': True, 'loadedTime': 9564.70000000298, 'positionName': 'LEFT', 'positionCoords': [511.6, 335.5], 'bid': 8.45}, {'imgObject': {}, 'id': 'mac & cheese', 'src': '/static/foodstim60/mac & cheese.jpg', 'key': 'i', 'origWidth': 410, 'origHeight': 410, 'width': 410, 'height': 410, 'widthPercent': 0.45, 'rescaleHeight': False, 'trialN': 22, 'loaded': True, 'loadedTime': 11617.70000000298, 'positionName': 'RIGHT', 'positionCoords': [998.4, 335], 'bid': 9.94}]",42035.0,1669840847816,eggsalad,mac & cheese,8.45,9.94,1.4900000000000002,mac & cheese,670.5,672,671.7999999970198,True,i,43210.79999999702,1175.7999999970198,1669840848992,1176,HRV,HRV_0289,2022-11-30 20:44:08
23,"[{'imgObject': {}, 'id': 'pear', 'src': '/static/foodstim60/pear.jpg', 'key': 'u', 'origWidth': 411, 'origHeight': 410, 'width': 411, 'height': 410, 'widthPercent': 0.45, 'rescaleHeight': False, 'trialN': 23, 'loaded': True, 'loadedTime': 10524.70000000298, 'positionName': 'LEFT', 'positionCoords': [510.6, 335], 'bid': 1.02}, {'imgObject': {}, 'id': 'raisin bran w milk', 'src': '/static/foodstim60/raisin bran w milk.jpg', 'key': 'i', 'origWidth': 411, 'origHeight': 411, 'width': 411, 'height': 411, 'widthPercent': 0.45, 'rescaleHeight': False, 'trialN': 23, 'loaded': True, 'loadedTime': 10524.89999999851, 'positionName': 'RIGHT', 'positionCoords': [998.4, 334.5], 'bid': 4.93}]",43211.0,1669840848992,pear,raisin bran w milk,1.02,4.93,3.9099999999999997,raisin bran w milk,1080.2999999970198,1082,1081.5,True,i,44795.10000000149,1584.1000000014901,1669840850576,1584,HRV,HRV_0289,2022-11-30 20:44:08
24,"[{'imgObject': {}, 'id': 'orange slices', 'src': '/static/foodstim60/orange slices.jpg', 'key': 'u', 'origWidth': 409, 'origHeight': 410, 'width': 409, 'height': 410, 'widthPercent': 0.45, 'rescaleHeight': False, 'trialN': 24, 'loaded': True, 'loadedTime': 9763.5, 'positionName': 'LEFT', 'positionCoords': [512.6, 335], 'bid': 2.08}, {'imgObject': {}, 'id': 'cantaloupe', 'src': '/static/foodstim60/cantaloupe.jpg', 'key': 'i', 'origWidth': 409, 'origHeight': 409, 'width': 409, 'height': 409, 'widthPercent': 0.45, 'rescaleHeight': False, 'trialN': 24, 'loaded': True, 'loadedTime': 11670.89999999851, 'positionName': 'RIGHT', 'positionCoords': [998.4, 335.5], 'bid': 1.93}]",44795.29999999702,1669840850576,orange slices,cantaloupe,2.08,1.93,-0.15000000000000013,cantaloupe,921.3000000044703,923,923.2000000029802,True,i,46231.70000000298,1436.4000000059605,1669840852013,1437,HRV,HRV_0289,2022-11-30 20:44:08
25,"[{'imgObject': {}, 'id': 'shreddedwheatwithmilk', 'src': '/static/foodstim60/shreddedwheatwithmilk.jpg', 'key': 'u', 'origWidth': 410, 'origHeight': 410, 'width': 410, 'height': 410, 'widthPercent': 0.45, 'rescaleHeight': False, 'trialN': 25, 'loaded': True, 'loadedTime': 11752.20000000298, 'positionName': 'LEFT', 'positionCoords': [511.6, 335], 'bid': 6.03}, {'imgObject': {}, 'id': 'sushi w_condiments', 'src': '/static/foodstim60/sushi w_condiments.jpg', 'key': 'i', 'origWidth': 410, 'origHeight': 410, 'width': 410, 'height': 410, 'widthPercent': 0.45, 'rescaleHeight': False, 'trialN': 25, 'loaded': True, 'loadedTime': 11123.29999999702, 'positionName': 'RIGHT', 'positionCoords': [998.4, 335], 'bid': 9.16}]",46231.89999999851,1669840852013,shreddedwheatwithmilk,sushi w_condiments,6.03,9.16,3.13,shreddedwheatwithmilk,725.3999999985099,726,726.5,True,u,47458.89999999851,1227.0,1669840853240,1227,HRV,HRV_0289,2022-11-30 20:44:08
26,"[{'imgObject': {}, 'id': 'banana', 'src': '/static/foodstim60/banana.jpg', 'key': 'u', 'origWidth': 410, 'origHeight': 410, 'width': 410, 'height': 410, 'widthPercent': 0.45, 'rescaleHeight': False, 'trialN': 26, 'loaded': True, 'loadedTime': 11755.70000000298, 'positionName': 'LEFT', 'positionCoords': [511.6, 335], 'bid': 5.3}, {'imgObject': {}, 'id': 'olives', 'src': '/static/foodstim60/olives.jpg', 'key': 'i', 'origWidth': 410, 'origHeight': 410, 'width': 410, 'height': 410, 'widthPercent': 0.45, 'rescaleHeight': False, 'trialN': 26, 'loaded': True, 'loadedTime': 11801.20000000298, 'positionName': 'RIGHT', 'positionCoords': [998.4, 335], 'bid': 6}]",47459.20000000298,1669840853240,banana,olives,5.3,6.0,0.7000000000000002,banana,740.0999999940395,742,741.3999999985099,True,u,48707.10000000149,1247.8999999985099,1669840854488,1248,HRV,HRV_0289,2022-11-30 20:44:08
27,"[{'imgObject': {}, 'id': 'veggieswithdip', 'src': '/static/foodstim60/veggieswithdip.jpg', 'key': 'u', 'origWidth': 409, 'origHeight': 409, 'width': 409, 'height': 409, 'widthPercent': 0.45, 'rescaleHeight': False, 'trialN': 27, 'loaded': True, 'loadedTime': 11806.29999999702, 'positionName': 'LEFT', 'positionCoords': [512.6, 335.5], 'bid': 8.58}, {'imgObject': {}, 'id': 'rigatoni', 'src': '/static/foodstim60/rigatoni.jpg', 'key': 'i', 'origWidth': 411, 'origHeight': 411, 'width': 411, 'height': 411, 'widthPercent': 0.45, 'rescaleHeight': False, 'trialN': 27, 'loaded': True, 'loadedTime': 10917.20000000298, 'positionName': 'RIGHT', 'positionCoords': [998.4, 334.5], 'bid': 8.700000000000001}]",48707.5,1669840854488,veggieswithdip,rigatoni,8.58,8.700000000000001,0.120000000000001,rigatoni,506.0,509,508.5,True,i,49723.20000000298,1015.7000000029802,1669840855504,1016,HRV,HRV_0289,2022-11-30 20:44:08
28,"[{'imgObject': {}, 'id': 'banana', 'src': '/static/foodstim60/banana.jpg', 'key': 'u', 'origWidth': 410, 'origHeight': 410, 'width': 410, 'height': 410, 'widthPercent': 0.45, 'rescaleHeight': False, 'trialN': 28, 'loaded': True, 'loadedTime': 11754, 'positionName': 'LEFT', 'positionCoords': [511.6, 335], 'bid': 5.3}, {'imgObject': {}, 'id': 'chickenfingers', 'src': '/static/foodstim60/chickenfingers.jpg', 'key': 'i', 'origWidth': 410, 'origHeight': 410, 'width': 410, 'height': 410, 'widthPercent': 0.45, 'rescaleHeight': False, 'trialN': 28, 'loaded': True, 'loadedTime': 11354.20000000298, 'positionName': 'RIGHT', 'positionCoords': [998.4, 335], 'bid': 6.33}]",49723.60000000149,1669840855505,banana,chickenfingers,5.3,6.33,1.0300000000000002,chickenfingers,777.8999999985099,779,779.1000000014901,True,i,51003.20000000298,1279.6000000014901,1669840856784,1279,HRV,HRV_0289,2022-11-30 20:44:08
29,"[{'imgObject': {}, 'id': 'fruitsalad', 'src': '/static/foodstim60/fruitsalad.jpg', 'key': 'u', 'origWidth': 410, 'origHeight': 410, 'width': 410, 'height': 410, 'widthPercent': 0.45, 'rescaleHeight': False, 'trialN': 29, 'loaded': True, 'loadedTime': 11075.10000000149, 'positionName': 'LEFT', 'positionCoords': [511.6, 335], 'bid': 5.01}, {'imgObject': {}, 'id': 'ice cream sundae 002', 'src': '/static/foodstim60/ice cream sundae 002.jpg', 'key': 'i', 'origWidth': 409, 'origHeight': 409, 'width': 409, 'height': 409, 'widthPercent': 0.45, 'rescaleHeight': False, 'trialN': 29, 'loaded': True, 'loadedTime': 12059.79999999702, 'positionName': 'RIGHT', 'positionCoords': [998.4, 335.5], 'bid': 1.46}]",51003.39999999851,1669840856784,fruitsalad,ice cream sundae 002,5.01,1.46,-3.55,fruitsalad,692.8999999985099,695,694.3000000044703,True,u,52202.79999999702,1199.3999999985099,1669840857984,1200,HRV,HRV_0289,2022-11-30 20:44:08
30,"[{'imgObject': {}, 'id': 'roastedpotatoes', 'src': '/static/foodstim60/roastedpotatoes.jpg', 'key': 'u', 'origWidth': 409, 'origHeight': 410, 'width': 409, 'height': 410, 'widthPercent': 0.45, 'rescaleHeight': False, 'trialN': 30, 'loaded': True, 'loadedTime': 12079.89999999851, 'positionName': 'LEFT', 'positionCoords': [512.6, 335], 'bid': 8.01}, {'imgObject': {}, 'id': 'turkey sandwich', 'src': '/static/foodstim60/turkey sandwich.jpg', 'key': 'i', 'origWidth': 409, 'origHeight': 409, 'width': 409, 'height': 409, 'widthPercent': 0.45, 'rescaleHeight': False, 'trialN': 30, 'loaded': True, 'loadedTime': 10722.5, 'positionName': 'RIGHT', 'positionCoords': [998.4, 335.5], 'bid': 9.67}]",52203.10000000149,1669840857984,roastedpotatoes,turkey sandwich,8.01,9.67,1.6600000000000001,turkey sandwich,622.3999999985099,624,623.6999999955297,True,i,53330.79999999702,1127.6999999955297,1669840859112,1128,HRV,HRV_0289,2022-11-30 20:44:08
31,"[{'imgObject': {}, 'id': 'cocktailshrimp', 'src': '/static/foodstim60/cocktailshrimp.jpg', 'key': 'u', 'origWidth': 410, 'origHeight': 410, 'width': 410, 'height': 410, 'widthPercent': 0.45, 'rescaleHeight': False, 'trialN': 31, 'loaded': True, 'loadedTime': 10140.89999999851, 'positionName': 'LEFT', 'positionCoords': [511.6, 335], 'bid': 6.03}, {'imgObject': {}, 'id': 'apple slices', 'src': '/static/foodstim60/apple slices.jpg', 'key': 'i', 'origWidth': 409, 'origHeight': 410, 'width': 409, 'height': 410, 'widthPercent': 0.45, 'rescaleHeight': False, 'trialN': 31, 'loaded': True, 'loadedTime': 10695.10000000149, 'positionName': 'RIGHT', 'positionCoords': [998.4, 335], 'bid': 0.66}]",53330.89999999851,1669840859112,cocktailshrimp,apple slices,6.03,0.66,-5.37,cocktailshrimp,758.3999999985099,760,760.1000000014901,True,u,54595.0,1264.1000000014901,1669840860376,1264,HRV,HRV_0289,2022-11-30 20:44:08
32,"[{'imgObject': {}, 'id': 'shreddedwheatwithmilk', 'src': '/static/foodstim60/shreddedwheatwithmilk.jpg', 'key': 'u', 'origWidth': 410, 'origHeight': 410, 'width': 410, 'height': 410, 'widthPercent': 0.45, 'rescaleHeight': False, 'trialN': 32, 'loaded': True, 'loadedTime': 11751.39999999851, 'positionName': 'LEFT', 'positionCoords': [511.6, 335], 'bid': 6.03}, {'imgObject': {}, 'id': 'chickenfingers', 'src': '/static/foodstim60/chickenfingers.jpg', 'key': 'i', 'origWidth': 410, 'origHeight': 410, 'width': 410, 'height': 410, 'widthPercent': 0.45, 'rescaleHeight': False, 'trialN': 32, 'loaded': True, 'loadedTime': 11355.10000000149, 'positionName': 'RIGHT', 'positionCoords': [998.4, 335], 'bid': 6.33}]",54595.20000000298,1669840860376,shreddedwheatwithmilk,chickenfingers,6.03,6.33,0.2999999999999998,chickenfingers,737.2999999970198,739,738.8999999985099,True,i,55834.79999999702,1239.5999999940395,1669840861616,1240,HRV,HRV_0289,2022-11-30 20:44:08
33,"[{'imgObject': {}, 'id': 'roastedpotatoes', 'src': '/static/foodstim60/roastedpotatoes.jpg', 'key': 'u', 'origWidth': 409, 'origHeight': 410, 'width': 409, 'height': 410, 'widthPercent': 0.45, 'rescaleHeight': False, 'trialN': 33, 'loaded': True, 'loadedTime': 12080.10000000149, 'positionName': 'LEFT', 'positionCoords': [512.6, 335], 'bid': 8.01}, {'imgObject': {}, 'id': 'eggsalad', 'src': '/static/foodstim60/eggsalad.jpg', 'key': 'i', 'origWidth': 410, 'origHeight': 409, 'width': 410, 'height': 409, 'widthPercent': 0.45, 'rescaleHeight': False, 'trialN': 33, 'loaded': True, 'loadedTime': 9603.20000000298, 'positionName': 'RIGHT', 'positionCoords': [998.4, 335.5], 'bid': 8.45}]",55835.10000000149,1669840861616,roastedpotatoes,eggsalad,8.01,8.45,0.4399999999999995,roastedpotatoes,555.1999999955297,557,557.1000000014901,True,u,56899.0,1063.8999999985099,1669840862680,1064,HRV,HRV_0289,2022-11-30 20:44:08
34,"[{'imgObject': {}, 'id': 'blueberries', 'src': '/static/foodstim60/blueberries.jpg', 'key': 'u', 'origWidth': 411, 'origHeight': 411, 'width': 411, 'height': 411, 'widthPercent': 0.45, 'rescaleHeight': False, 'trialN': 34, 'loaded': True, 'loadedTime': 12176, 'positionName': 'LEFT', 'positionCoords': [510.6, 334.5], 'bid': 4.46}, {'imgObject': {}, 'id': 'raspberries', 'src': '/static/foodstim60/raspberries.jpg', 'key': 'i', 'origWidth': 411, 'origHeight': 411, 'width': 411, 'height': 411, 'widthPercent': 0.45, 'rescaleHeight': False, 'trialN': 34, 'loaded': True, 'loadedTime': 12239, 'positionName': 'RIGHT', 'positionCoords': [998.4, 334.5], 'bid': 3.0500000000000003}]",56899.39999999851,1669840862680,blueberries,raspberries,4.46,3.0500000000000003,-1.4099999999999997,blueberries,802.1000000014901,804,803.8000000044703,True,u,58210.79999999702,1311.3999999985099,1669840863992,1312,HRV,HRV_0289,2022-11-30 20:44:08
35,"[{'imgObject': {}, 'id': 'Tribe humus pita', 'src': '/static/foodstim60/Tribe humus pita.jpg', 'key': 'u', 'origWidth': 411, 'origHeight': 411, 'width': 411, 'height': 411, 'widthPercent': 0.45, 'rescaleHeight': False, 'trialN': 35, 'loaded': True, 'loadedTime': 10970.70000000298, 'positionName': 'LEFT', 'positionCoords': [510.6, 334.5], 'bid': 6.23}, {'imgObject': {}, 'id': 'mango', 'src': '/static/foodstim60/mango.jpg', 'key': 'i', 'origWidth': 411, 'origHeight': 411, 'width': 411, 'height': 411, 'widthPercent': 0.45, 'rescaleHeight': False, 'trialN': 35, 'loaded': True, 'loadedTime': 10418.60000000149, 'positionName': 'RIGHT', 'positionCoords': [998.4, 334.5], 'bid': 0.79}]",58211.0,1669840863992,Tribe humus pita,mango,6.23,0.79,-5.44,mango,1007.2999999970198,1009,1009.1000000014901,True,i,59723.10000000149,1512.1000000014901,1669840865504,1512,HRV,HRV_0289,2022-11-30 20:44:08
36,"[{'imgObject': {}, 'id': 'grilled chicken strips', 'src': '/static/foodstim60/grilled chicken strips.jpg', 'key': 'u', 'origWidth': 410, 'origHeight': 411, 'width': 410, 'height': 411, 'widthPercent': 0.45, 'rescaleHeight': False, 'trialN': 36, 'loaded': True, 'loadedTime': 10359, 'positionName': 'LEFT', 'positionCoords': [511.6, 334.5], 'bid': 7.55}, {'imgObject': {}, 'id': 'corn cob', 'src': '/static/foodstim60/corn cob.jpg', 'key': 'i', 'origWidth': 411, 'origHeight': 411, 'width': 411, 'height': 411, 'widthPercent': 0.45, 'rescaleHeight': False, 'trialN': 36, 'loaded': True, 'loadedTime': 12239.20000000298, 'positionName': 'RIGHT', 'positionCoords': [998.4, 334.5], 'bid': 2.02}]",59723.29999999702,1669840865504,grilled chicken strips,corn cob,7.55,2.02,-5.529999999999999,grilled chicken strips,696.1000000014901,699,698.4000000059605,True,u,60922.89999999851,1199.6000000014901,1669840866704,1200,HRV,HRV_0289,2022-11-30 20:44:08
37,"[{'imgObject': {}, 'id': 'kiwi', 'src': '/static/foodstim60/kiwi.jpg', 'key': 'u', 'origWidth': 410, 'origHeight': 410, 'width': 410, 'height': 410, 'widthPercent': 0.45, 'rescaleHeight': False, 'trialN': 37, 'loaded': True, 'loadedTime': 12245.20000000298, 'positionName': 'LEFT', 'positionCoords': [511.6, 335], 'bid': 4.29}, {'imgObject': {}, 'id': 'strawberries', 'src': '/static/foodstim60/strawberries.jpg', 'key': 'i', 'origWidth': 410, 'origHeight': 410, 'width': 410, 'height': 410, 'widthPercent': 0.45, 'rescaleHeight': False, 'trialN': 37, 'loaded': True, 'loadedTime': 11545.70000000298, 'positionName': 'RIGHT', 'positionCoords': [998.4, 335], 'bid': 2.81}]",60923.20000000298,1669840866704,kiwi,strawberries,4.29,2.81,-1.48,kiwi,670.2999999970198,672,671.7999999970198,True,u,62098.79999999702,1175.5999999940395,1669840867880,1176,HRV,HRV_0289,2022-11-30 20:44:08
38,"[{'imgObject': {}, 'id': 'strawberries', 'src': '/static/foodstim60/strawberries.jpg', 'key': 'u', 'origWidth': 410, 'origHeight': 410, 'width': 410, 'height': 410, 'widthPercent': 0.45, 'rescaleHeight': False, 'trialN': 38, 'loaded': True, 'loadedTime': 11556.70000000298, 'positionName': 'LEFT', 'positionCoords': [511.6, 335], 'bid': 2.81}, {'imgObject': {}, 'id': 'raspberries', 'src': '/static/foodstim60/raspberries.jpg', 'key': 'i', 'origWidth': 411, 'origHeight': 411, 'width': 411, 'height': 411, 'widthPercent': 0.45, 'rescaleHeight': False, 'trialN': 38, 'loaded': True, 'loadedTime': 12238, 'positionName': 'RIGHT', 'positionCoords': [998.4, 334.5], 'bid': 3.0500000000000003}]",62099.0,1669840867880,strawberries,raspberries,2.81,3.0500000000000003,0.2400000000000002,raspberries,600.5,602,602.0,True,i,63203.39999999851,1104.3999999985099,1669840868984,1104,HRV,HRV_0289,2022-11-30 20:44:08
39,"[{'imgObject': {}, 'id': 'granola w milk', 'src': '/static/foodstim60/granola w milk.jpg', 'key': 'u', 'origWidth': 410, 'origHeight': 410, 'width': 410, 'height': 410, 'widthPercent': 0.45, 'rescaleHeight': False, 'trialN': 39, 'loaded': True, 'loadedTime': 10169.10000000149, 'positionName': 'LEFT', 'positionCoords': [511.6, 335], 'bid': 5.3100000000000005}, {'imgObject': {}, 'id': 'yogurt no spoon', 'src': '/static/foodstim60/yogurt no spoon.jpg', 'key': 'i', 'origWidth': 411, 'origHeight': 410, 'width': 411, 'height': 410, 'widthPercent': 0.45, 'rescaleHeight': False, 'trialN': 39, 'loaded': True, 'loadedTime': 12350.79999999702, 'positionName': 'RIGHT', 'positionCoords': [998.4, 335], 'bid': 6.62}]",63203.70000000298,1669840868985,granola w milk,yogurt no spoon,5.3100000000000005,6.62,1.3099999999999996,granola w milk,759.5999999940395,762,762.1999999955297,True,u,64466.79999999702,1263.0999999940395,1669840870248,1263,HRV,HRV_0289,2022-11-30 20:44:08
40,"[{'imgObject': {}, 'id': 'fried eggs', 'src': '/static/foodstim60/fried eggs.jpg', 'key': 'u', 'origWidth': 410, 'origHeight': 410, 'width': 410, 'height': 410, 'widthPercent': 0.45, 'rescaleHeight': False, 'trialN': 40, 'loaded': True, 'loadedTime': 12428.29999999702, 'positionName': 'LEFT', 'positionCoords': [511.6, 335], 'bid': 8.42}, {'imgObject': {}, 'id': 'burrito', 'src': '/static/foodstim60/burrito.jpg', 'key': 'i', 'origWidth': 410, 'origHeight': 410, 'width': 410, 'height': 410, 'widthPercent': 0.45, 'rescaleHeight': False, 'trialN': 40, 'loaded': True, 'loadedTime': 12499.29999999702, 'positionName': 'RIGHT', 'positionCoords': [998.4, 335], 'bid': 9.69}]",64467.10000000149,1669840870248,fried eggs,burrito,8.42,9.69,1.2699999999999996,burrito,854.3999999985099,856,855.6000000014901,True,i,65826.70000000298,1359.6000000014901,1669840871608,1360,HRV,HRV_0289,2022-11-30 20:44:08
41,"[{'imgObject': {}, 'id': 'kiwi', 'src': '/static/foodstim60/kiwi.jpg', 'key': 'u', 'origWidth': 410, 'origHeight': 410, 'width': 410, 'height': 410, 'widthPercent': 0.45, 'rescaleHeight': False, 'trialN': 41, 'loaded': True, 'loadedTime': 12251.79999999702, 'positionName': 'LEFT', 'positionCoords': [511.6, 335], 'bid': 4.29}, {'imgObject': {}, 'id': 'seaweed', 'src': '/static/foodstim60/seaweed.jpg', 'key': 'i', 'origWidth': 410, 'origHeight': 410, 'width': 410, 'height': 410, 'widthPercent': 0.45, 'rescaleHeight': False, 'trialN': 41, 'loaded': True, 'loadedTime': 10810.29999999702, 'positionName': 'RIGHT', 'positionCoords': [998.4, 335], 'bid': 0.68}]",65827.0,1669840871608,kiwi,seaweed,4.29,0.68,-3.61,kiwi,826.2999999970198,831,831.1000000014901,True,u,67162.79999999702,1335.7999999970198,1669840872944,1336,HRV,HRV_0289,2022-11-30 20:44:08
42,"[{'imgObject': {}, 'id': 'chickenfingers', 'src': '/static/foodstim60/chickenfingers.jpg', 'key': 'u', 'origWidth': 410, 'origHeight': 410, 'width': 410, 'height': 410, 'widthPercent': 0.45, 'rescaleHeight': False, 'trialN': 42, 'loaded': True, 'loadedTime': 11347.79999999702, 'positionName': 'LEFT', 'positionCoords': [511.6, 335], 'bid': 6.33}, {'imgObject': {}, 'id': 'omelette', 'src': '/static/foodstim60/omelette.jpg', 'key': 'i', 'origWidth': 410, 'origHeight': 409, 'width': 410, 'height': 409, 'widthPercent': 0.45, 'rescaleHeight': False, 'trialN': 42, 'loaded': True, 'loadedTime': 9903.29999999702, 'positionName': 'RIGHT', 'positionCoords': [998.4, 335.5], 'bid': 9.34}]",67163.0,1669840872944,chickenfingers,omelette,6.33,9.34,3.01,omelette,733.2999999970198,735,735.2999999970198,True,i,68403.10000000149,1240.1000000014901,1669840874184,1240,HRV,HRV_0289,2022-11-30 20:44:08
43,"[{'imgObject': {}, 'id': 'mac & cheese', 'src': '/static/foodstim60/mac & cheese.jpg', 'key': 'u', 'origWidth': 410, 'origHeight': 410, 'width': 410, 'height': 410, 'widthPercent': 0.45, 'rescaleHeight': False, 'trialN': 43, 'loaded': True, 'loadedTime': 11618.10000000149, 'positionName': 'LEFT', 'positionCoords': [511.6, 335], 'bid': 9.94}, {'imgObject': {}, 'id': 'burrito', 'src': '/static/foodstim60/burrito.jpg', 'key': 'i', 'origWidth': 410, 'origHeight': 410, 'width': 410, 'height': 410, 'widthPercent': 0.45, 'rescaleHeight': False, 'trialN': 43, 'loaded': True, 'loadedTime': 12431.10000000149, 'positionName': 'RIGHT', 'positionCoords': [998.4, 335], 'bid': 9.69}]",68403.29999999702,1669840874184,mac & cheese,burrito,9.94,9.69,-0.25,burrito,644.1000000014901,646,645.4000000059605,True,i,69554.79999999702,1151.5,1669840875336,1152,HRV,HRV_0289,2022-11-30 20:44:08
44,"[{'imgObject': {}, 'id': 'turkeysandwich', 'src': '/static/foodstim60/turkeysandwich.jpg', 'key': 'u', 'origWidth': 409, 'origHeight': 409, 'width': 409, 'height': 409, 'widthPercent': 0.45, 'rescaleHeight': False, 'trialN': 44, 'loaded': True, 'loadedTime': 12501.39999999851, 'positionName': 'LEFT', 'positionCoords': [512.6, 335.5], 'bid': 9.88}, {'imgObject': {}, 'id': 'fried eggs', 'src': '/static/foodstim60/fried eggs.jpg', 'key': 'i', 'origWidth': 410, 'origHeight': 410, 'width': 410, 'height': 410, 'widthPercent': 0.45, 'rescaleHeight': False, 'trialN': 44, 'loaded': True, 'loadedTime': 12427.89999999851, 'positionName': 'RIGHT', 'positionCoords': [998.4, 335], 'bid': 8.42}]",69555.29999999702,1669840875336,turkeysandwich,fried eggs,9.88,8.42,-1.4600000000000009,turkeysandwich,665.1000000014901,667,666.4000000059605,True,u,70722.89999999851,1167.6000000014901,1669840876504,1168,HRV,HRV_0289,2022-11-30 20:44:08
45,"[{'imgObject': {}, 'id': 'bagel plain', 'src': '/static/foodstim60/bagel plain.jpg', 'key': 'u', 'origWidth': 410, 'origHeight': 410, 'width': 410, 'height': 410, 'widthPercent': 0.45, 'rescaleHeight': False, 'trialN': 45, 'loaded': True, 'loadedTime': 10239.20000000298, 'positionName': 'LEFT', 'positionCoords': [511.6, 335], 'bid': 9.86}, {'imgObject': {}, 'id': 'burrito', 'src': '/static/foodstim60/burrito.jpg', 'key': 'i', 'origWidth': 410, 'origHeight': 410, 'width': 410, 'height': 410, 'widthPercent': 0.45, 'rescaleHeight': False, 'trialN': 45, 'loaded': True, 'loadedTime': 12430.60000000149, 'positionName': 'RIGHT', 'positionCoords': [998.4, 335], 'bid': 9.69}]",70723.10000000149,1669840876504,bagel plain,burrito,9.86,9.69,-0.16999999999999993,bagel plain,579.3999999985099,581,580.8999999985099,True,u,71810.79999999702,1087.6999999955297,1669840877592,1088,HRV,HRV_0289,2022-11-30 20:44:08
46,"[{'imgObject': {}, 'id': 'cherry tomato', 'src': '/static/foodstim60/cherry tomato.jpg', 'key': 'u', 'origWidth': 410, 'origHeight': 410, 'width': 410, 'height': 410, 'widthPercent': 0.45, 'rescaleHeight': False, 'trialN': 46, 'loaded': True, 'loadedTime': 11514, 'positionName': 'LEFT', 'positionCoords': [511.6, 335], 'bid': 5.73}, {'imgObject': {}, 'id': 'shreddedwheatwithmilk', 'src': '/static/foodstim60/shreddedwheatwithmilk.jpg', 'key': 'i', 'origWidth': 410, 'origHeight': 410, 'width': 410, 'height': 410, 'widthPercent': 0.45, 'rescaleHeight': False, 'trialN': 46, 'loaded': True, 'loadedTime': 11748.39999999851, 'positionName': 'RIGHT', 'positionCoords': [998.4, 335], 'bid': 6.03}]",71811.0,1669840877592,cherry tomato,shreddedwheatwithmilk,5.73,6.03,0.2999999999999998,cherry tomato,825.2999999970198,827,826.7000000029802,True,u,73139.10000000149,1328.1000000014901,1669840878920,1328,HRV,HRV_0289,2022-11-30 20:44:08
47,"[{'imgObject': {}, 'id': 'chickenfingers', 'src': '/static/foodstim60/chickenfingers.jpg', 'key': 'u', 'origWidth': 410, 'origHeight': 410, 'width': 410, 'height': 410, 'widthPercent': 0.45, 'rescaleHeight': False, 'trialN': 47, 'loaded': True, 'loadedTime': 11363.10000000149, 'positionName': 'LEFT', 'positionCoords': [511.6, 335], 'bid': 6.33}, {'imgObject': {}, 'id': 'hashbrowns', 'src': '/static/foodstim60/hashbrowns.jpg', 'key': 'i', 'origWidth': 411, 'origHeight': 410, 'width': 411, 'height': 410, 'widthPercent': 0.45, 'rescaleHeight': False, 'trialN': 47, 'loaded': True, 'loadedTime': 11306.70000000298, 'positionName': 'RIGHT', 'positionCoords': [998.4, 335], 'bid': 0.98}]",73139.29999999702,1669840878920,chickenfingers,hashbrowns,6.33,0.98,-5.35,chickenfingers,831.0,832,832.0,True,u,74474.89999999851,1335.6000000014901,1669840880256,1336,HRV,HRV_0289,2022-11-30 20:44:08
48,"[{'imgObject': {}, 'id': 'burger', 'src': '/static/foodstim60/burger.jpg', 'key': 'u', 'origWidth': 409, 'origHeight': 409, 'width': 409, 'height': 409, 'widthPercent': 0.45, 'rescaleHeight': False, 'trialN': 48, 'loaded': True, 'loadedTime': 11176.79999999702, 'positionName': 'LEFT', 'positionCoords': [512.6, 335.5], 'bid': 9.19}, {'imgObject': {}, 'id': 'blueberries', 'src': '/static/foodstim60/blueberries.jpg', 'key': 'i', 'origWidth': 411, 'origHeight': 411, 'width': 411, 'height': 411, 'widthPercent': 0.45, 'rescaleHeight': False, 'trialN': 48, 'loaded': True, 'loadedTime': 12162.5, 'positionName': 'RIGHT', 'positionCoords': [998.4, 334.5], 'bid': 4.46}]",74475.20000000298,1669840880256,burger,blueberries,9.19,4.46,-4.7299999999999995,burger,577.1999999955297,579,578.5999999940395,True,u,75554.89999999851,1079.6999999955297,1669840881336,1080,HRV,HRV_0289,2022-11-30 20:44:08
49,"[{'imgObject': {}, 'id': 'froot loops w milk', 'src': '/static/foodstim60/froot loops w milk.jpg', 'key': 'u', 'origWidth': 410, 'origHeight': 410, 'width': 410, 'height': 410, 'widthPercent': 0.45, 'rescaleHeight': False, 'trialN': 49, 'loaded': True, 'loadedTime': 10817.5, 'positionName': 'LEFT', 'positionCoords': [511.6, 335], 'bid': 4.71}, {'imgObject': {}, 'id': 'mashed potato', 'src': '/static/foodstim60/mashed potato.jpg', 'key': 'i', 'origWidth': 409, 'origHeight': 409, 'width': 409, 'height': 409, 'widthPercent': 0.45, 'rescaleHeight': False, 'trialN': 49, 'loaded': True, 'loadedTime': 11490.60000000149, 'positionName': 'RIGHT', 'positionCoords': [998.4, 335.5], 'bid': 5.97}]",75555.10000000149,1669840881336,froot loops w milk,mashed potato,4.71,5.97,1.2599999999999998,mashed potato,626.1999999955297,628,627.8999999985099,True,i,76690.79999999702,1135.6999999955297,1669840882472,1136,HRV,HRV_0289,2022-11-30 20:44:08
50,"[{'imgObject': {}, 'id': 'hotdog w must', 'src': '/static/foodstim60/hotdog w must.jpg', 'key': 'u', 'origWidth': 409, 'origHeight': 409, 'width': 409, 'height': 409, 'widthPercent': 0.45, 'rescaleHeight': False, 'trialN': 50, 'loaded': True, 'loadedTime': 9974, 'positionName': 'LEFT', 'positionCoords': [512.6, 335.5], 'bid': 5.93}, {'imgObject': {}, 'id': 'edamame', 'src': '/static/foodstim60/edamame.jpg', 'key': 'i', 'origWidth': 409, 'origHeight': 410, 'width': 409, 'height': 410, 'widthPercent': 0.45, 'rescaleHeight': False, 'trialN': 50, 'loaded': True, 'loadedTime': 12561.5, 'positionName': 'RIGHT', 'positionCoords': [998.4, 335], 'bid': 3.18}]",76691.10000000149,1669840882472,hotdog w must,edamame,5.93,3.18,-2.7499999999999996,hotdog w must,776.3999999985099,779,779.0,True,u,77970.70000000298,1279.6000000014901,1669840883752,1280,HRV,HRV_0289,2022-11-30 20:44:08
51,"[{'imgObject': {}, 'id': 'burger', 'src': '/static/foodstim60/burger.jpg', 'key': 'u', 'origWidth': 409, 'origHeight': 409, 'width': 409, 'height': 409, 'widthPercent': 0.45, 'rescaleHeight': False, 'trialN': 51, 'loaded': True, 'loadedTime': 11216.5, 'positionName': 'LEFT', 'positionCoords': [512.6, 335.5], 'bid': 9.19}, {'imgObject': {}, 'id': 'rigatoni and sauce', 'src': '/static/foodstim60/rigatoni and sauce.jpg', 'key': 'i', 'origWidth': 410, 'origHeight': 411, 'width': 410, 'height': 411, 'widthPercent': 0.45, 'rescaleHeight': False, 'trialN': 51, 'loaded': True, 'loadedTime': 12565.79999999702, 'positionName': 'RIGHT', 'positionCoords': [998.4, 334.5], 'bid': 9.86}]",77970.79999999702,1669840883752,burger,rigatoni and sauce,9.19,9.86,0.6699999999999999,burger,578.5,580,580.3000000044703,True,u,79059.10000000149,1088.3000000044703,1669840884840,1088,HRV,HRV_0289,2022-11-30 20:44:08
52,"[{'imgObject': {}, 'id': 'edamame', 'src': '/static/foodstim60/edamame.jpg', 'key': 'u', 'origWidth': 409, 'origHeight': 410, 'width': 409, 'height': 410, 'widthPercent': 0.45, 'rescaleHeight': False, 'trialN': 52, 'loaded': True, 'loadedTime': 12503.60000000149, 'positionName': 'LEFT', 'positionCoords': [512.6, 335], 'bid': 3.18}, {'imgObject': {}, 'id': 'mango', 'src': '/static/foodstim60/mango.jpg', 'key': 'i', 'origWidth': 411, 'origHeight': 411, 'width': 411, 'height': 411, 'widthPercent': 0.45, 'rescaleHeight': False, 'trialN': 52, 'loaded': True, 'loadedTime': 10365, 'positionName': 'RIGHT', 'positionCoords': [998.4, 334.5], 'bid': 0.79}]",79059.29999999702,1669840884840,edamame,mango,3.18,0.79,-2.39,mango,641.2000000029802,643,643.1000000014901,True,i,80202.79999999702,1143.5,1669840885984,1144,HRV,HRV_0289,2022-11-30 20:44:08
53,"[{'imgObject': {}, 'id': 'strawberries', 'src': '/static/foodstim60/strawberries.jpg', 'key': 'u', 'origWidth': 410, 'origHeight': 410, 'width': 410, 'height': 410, 'widthPercent': 0.45, 'rescaleHeight': False, 'trialN': 53, 'loaded': True, 'loadedTime': 11556.29999999702, 'positionName': 'LEFT', 'positionCoords': [511.6, 335], 'bid': 2.81}, {'imgObject': {}, 'id': 'fried eggs', 'src': '/static/foodstim60/fried eggs.jpg', 'key': 'i', 'origWidth': 410, 'origHeight': 410, 'width': 410, 'height': 410, 'widthPercent': 0.45, 'rescaleHeight': False, 'trialN': 53, 'loaded': True, 'loadedTime': 12428.29999999702, 'positionName': 'RIGHT', 'positionCoords': [998.4, 335], 'bid': 8.42}]",80203.0,1669840885984,strawberries,fried eggs,2.81,8.42,5.609999999999999,fried eggs,693.2999999970198,695,694.7000000029802,True,i,81403.0,1200.0,1669840887184,1200,HRV,HRV_0289,2022-11-30 20:44:08
54,"[{'imgObject': {}, 'id': 'salmon', 'src': '/static/foodstim60/salmon.jpg', 'key': 'u', 'origWidth': 410, 'origHeight': 409, 'width': 410, 'height': 409, 'widthPercent': 0.45, 'rescaleHeight': False, 'trialN': 54, 'loaded': True, 'loadedTime': 12568.10000000149, 'positionName': 'LEFT', 'positionCoords': [511.6, 335.5], 'bid': 9.05}, {'imgObject': {}, 'id': 'salad w chicken', 'src': '/static/foodstim60/salad w chicken.jpg', 'key': 'i', 'origWidth': 411, 'origHeight': 411, 'width': 411, 'height': 411, 'widthPercent': 0.45, 'rescaleHeight': False, 'trialN': 54, 'loaded': True, 'loadedTime': 12570.10000000149, 'positionName': 'RIGHT', 'positionCoords': [998.4, 334.5], 'bid': 9.09}]",81403.20000000298,1669840887184,salmon,salad w chicken,9.05,9.09,0.03999999999999915,salad w chicken,988.3999999985099,990,989.6999999955297,True,i,82899.20000000298,1496.0,1669840888680,1496,HRV,HRV_0289,2022-11-30 20:44:08
55,"[{'imgObject': {}, 'id': 'banana', 'src': '/static/foodstim60/banana.jpg', 'key': 'u', 'origWidth': 410, 'origHeight': 410, 'width': 410, 'height': 410, 'widthPercent': 0.45, 'rescaleHeight': False, 'trialN': 55, 'loaded': True, 'loadedTime': 11755.29999999702, 'positionName': 'LEFT', 'positionCoords': [511.6, 335], 'bid': 5.3}, {'imgObject': {}, 'id': 'rigatoni and sauce', 'src': '/static/foodstim60/rigatoni and sauce.jpg', 'key': 'i', 'origWidth': 410, 'origHeight': 411, 'width': 410, 'height': 411, 'widthPercent': 0.45, 'rescaleHeight': False, 'trialN': 55, 'loaded': True, 'loadedTime': 12563.20000000298, 'positionName': 'RIGHT', 'positionCoords': [998.4, 334.5], 'bid': 9.86}]",82899.5,1669840888681,banana,rigatoni and sauce,5.3,9.86,4.56,rigatoni and sauce,733.0,734,734.3999999985099,True,i,84138.70000000298,1239.2000000029802,1669840889920,1239,HRV,HRV_0289,2022-11-30 20:44:08
56,"[{'imgObject': {}, 'id': 'hashbrowns', 'src': '/static/foodstim60/hashbrowns.jpg', 'key': 'u', 'origWidth': 411, 'origHeight': 410, 'width': 411, 'height': 410, 'widthPercent': 0.45, 'rescaleHeight': False, 'trialN': 56, 'loaded': True, 'loadedTime': 11299.89999999851, 'positionName': 'LEFT', 'positionCoords': [510.6, 335], 'bid': 0.98}, {'imgObject': {}, 'id': 'mango', 'src': '/static/foodstim60/mango.jpg', 'key': 'i', 'origWidth': 411, 'origHeight': 411, 'width': 411, 'height': 411, 'widthPercent': 0.45, 'rescaleHeight': False, 'trialN': 56, 'loaded': True, 'loadedTime': 10419.39999999851, 'positionName': 'RIGHT', 'positionCoords': [998.4, 334.5], 'bid': 0.79}]",84139.0,1669840889920,hashbrowns,mango,0.98,0.79,-0.18999999999999995,mango,895.6000000014901,897,897.2999999970198,True,i,85539.10000000149,1400.1000000014901,1669840891320,1400,HRV,HRV_0289,2022-11-30 20:44:08
57,"[{'imgObject': {}, 'id': 'Tribe humus pita', 'src': '/static/foodstim60/Tribe humus pita.jpg', 'key': 'u', 'origWidth': 411, 'origHeight': 411, 'width': 411, 'height': 411, 'widthPercent': 0.45, 'rescaleHeight': False, 'trialN': 57, 'loaded': True, 'loadedTime': 11032.20000000298, 'positionName': 'LEFT', 'positionCoords': [510.6, 334.5], 'bid': 6.23}, {'imgObject': {}, 'id': 'burger', 'src': '/static/foodstim60/burger.jpg', 'key': 'i', 'origWidth': 409, 'origHeight': 409, 'width': 409, 'height': 409, 'widthPercent': 0.45, 'rescaleHeight': False, 'trialN': 57, 'loaded': True, 'loadedTime': 11174, 'positionName': 'RIGHT', 'positionCoords': [998.4, 335.5], 'bid': 9.19}]",85539.39999999851,1669840891320,Tribe humus pita,burger,6.23,9.19,2.959999999999999,burger,850.8999999985099,852,851.8999999985099,True,i,86899.0,1359.6000000014901,1669840892680,1360,HRV,HRV_0289,2022-11-30 20:44:08
58,"[{'imgObject': {}, 'id': 'rigatoni', 'src': '/static/foodstim60/rigatoni.jpg', 'key': 'u', 'origWidth': 411, 'origHeight': 411, 'width': 411, 'height': 411, 'widthPercent': 0.45, 'rescaleHeight': False, 'trialN': 58, 'loaded': True, 'loadedTime': 10969.60000000149, 'positionName': 'LEFT', 'positionCoords': [510.6, 334.5], 'bid': 8.700000000000001}, {'imgObject': {}, 'id': 'rigatoni and sauce', 'src': '/static/foodstim60/rigatoni and sauce.jpg', 'key': 'i', 'origWidth': 410, 'origHeight': 411, 'width': 410, 'height': 411, 'widthPercent': 0.45, 'rescaleHeight': False, 'trialN': 58, 'loaded': True, 'loadedTime': 12565.10000000149, 'positionName': 'RIGHT', 'positionCoords': [998.4, 334.5], 'bid': 9.86}]",86899.20000000298,1669840892680,rigatoni,rigatoni and sauce,8.700000000000001,9.86,1.1599999999999984,rigatoni and sauce,687.3999999985099,690,689.7999999970198,True,i,88090.70000000298,1191.5,1669840893872,1192,HRV,HRV_0289,2022-11-30 20:44:08
59,"[{'imgObject': {}, 'id': 'veggieswithdip', 'src': '/static/foodstim60/veggieswithdip.jpg', 'key': 'u', 'origWidth': 409, 'origHeight': 409, 'width': 409, 'height': 409, 'widthPercent': 0.45, 'rescaleHeight': False, 'trialN': 59, 'loaded': True, 'loadedTime': 11806.39999999851, 'positionName': 'LEFT', 'positionCoords': [512.6, 335.5], 'bid': 8.58}, {'imgObject': {}, 'id': 'blackbeanswithrice', 'src': '/static/foodstim60/blackbeanswithrice.jpg', 'key': 'i', 'origWidth': 410, 'origHeight': 410, 'width': 410, 'height': 410, 'widthPercent': 0.45, 'rescaleHeight': False, 'trialN': 59, 'loaded': True, 'loadedTime': 12647.20000000298, 'positionName': 'RIGHT', 'positionCoords': [998.4, 335], 'bid': 7.44}]",88091.0,1669840893872,veggieswithdip,blackbeanswithrice,8.58,7.44,-1.1399999999999997,blackbeanswithrice,1149.3999999985099,1151,1150.7000000029802,True,i,89746.70000000298,1655.7000000029802,1669840895528,1656,HRV,HRV_0289,2022-11-30 20:44:08
60,"[{'imgObject': {}, 'id': 'cheerios', 'src': '/static/foodstim60/cheerios.jpg', 'key': 'u', 'origWidth': 409, 'origHeight': 410, 'width': 409, 'height': 410, 'widthPercent': 0.45, 'rescaleHeight': False, 'trialN': 60, 'loaded': True, 'loadedTime': 11363.70000000298, 'positionName': 'LEFT', 'positionCoords': [512.6, 335], 'bid': 5.03}, {'imgObject': {}, 'id': 'cantaloupe', 'src': '/static/foodstim60/cantaloupe.jpg', 'key': 'i', 'origWidth': 409, 'origHeight': 409, 'width': 409, 'height': 409, 'widthPercent': 0.45, 'rescaleHeight': False, 'trialN': 60, 'loaded': True, 'loadedTime': 11670.60000000149, 'positionName': 'RIGHT', 'positionCoords': [998.4, 335.5], 'bid': 1.93}]",89746.89999999851,1669840895528,cheerios,cantaloupe,5.03,1.93,-3.1000000000000005,cheerios,1145.3999999985099,1147,1146.8000000044703,True,u,91395.10000000149,1648.2000000029802,1669840897176,1648,HRV,HRV_0289,2022-11-30 20:44:08
61,"[{'imgObject': {}, 'id': 'raspberries', 'src': '/static/foodstim60/raspberries.jpg', 'key': 'u', 'origWidth': 411, 'origHeight': 411, 'width': 411, 'height': 411, 'widthPercent': 0.45, 'rescaleHeight': False, 'trialN': 61, 'loaded': True, 'loadedTime': 12234.29999999702, 'positionName': 'LEFT', 'positionCoords': [510.6, 334.5], 'bid': 3.0500000000000003}, {'imgObject': {}, 'id': 'chicken nuggets2', 'src': '/static/foodstim60/chicken nuggets2.jpg', 'key': 'i', 'origWidth': 410, 'origHeight': 409, 'width': 410, 'height': 409, 'widthPercent': 0.45, 'rescaleHeight': False, 'trialN': 61, 'loaded': True, 'loadedTime': 10073.10000000149, 'positionName': 'RIGHT', 'positionCoords': [998.4, 335.5], 'bid': 5.87}]",91395.39999999851,1669840897176,raspberries,chicken nuggets2,3.0500000000000003,5.87,2.82,chicken nuggets2,899.8999999985099,901,900.8999999985099,True,i,92803.10000000149,1407.7000000029802,1669840898584,1408,HRV,HRV_0289,2022-11-30 20:44:08
62,"[{'imgObject': {}, 'id': 'cantaloupe', 'src': '/static/foodstim60/cantaloupe.jpg', 'key': 'u', 'origWidth': 409, 'origHeight': 409, 'width': 409, 'height': 409, 'widthPercent': 0.45, 'rescaleHeight': False, 'trialN': 62, 'loaded': True, 'loadedTime': 11669.20000000298, 'positionName': 'LEFT', 'positionCoords': [512.6, 335.5], 'bid': 1.93}, {'imgObject': {}, 'id': 'kiwi', 'src': '/static/foodstim60/kiwi.jpg', 'key': 'i', 'origWidth': 410, 'origHeight': 410, 'width': 410, 'height': 410, 'widthPercent': 0.45, 'rescaleHeight': False, 'trialN': 62, 'loaded': True, 'loadedTime': 12257.79999999702, 'positionName': 'RIGHT', 'positionCoords': [998.4, 335], 'bid': 4.29}]",92803.39999999851,1669840898584,cantaloupe,kiwi,1.93,4.29,2.3600000000000003,cantaloupe,1121.8999999985099,1124,1124.0,True,u,94436.20000000298,1632.8000000044703,1669840900217,1633,HRV,HRV_0289,2022-11-30 20:44:08
63,"[{'imgObject': {}, 'id': 'steak', 'src': '/static/foodstim60/steak.jpg', 'key': 'u', 'origWidth': 410, 'origHeight': 410, 'width': 410, 'height': 410, 'widthPercent': 0.45, 'rescaleHeight': False, 'trialN': 63, 'loaded': True, 'loadedTime': 9268.79999999702, 'positionName': 'LEFT', 'positionCoords': [511.6, 335], 'bid': 9.79}, {'imgObject': {}, 'id': 'rigatoni and sauce', 'src': '/static/foodstim60/rigatoni and sauce.jpg', 'key': 'i', 'origWidth': 410, 'origHeight': 411, 'width': 410, 'height': 411, 'widthPercent': 0.45, 'rescaleHeight': False, 'trialN': 63, 'loaded': True, 'loadedTime': 12565.29999999702, 'positionName': 'RIGHT', 'positionCoords': [998.4, 334.5], 'bid': 9.86}]",94436.5,1669840900217,steak,rigatoni and sauce,9.79,9.86,0.07000000000000028,steak,777.0,779,778.7000000029802,True,u,95723.20000000298,1286.7000000029802,1669840901504,1287,HRV,HRV_0289,2022-11-30 20:44:08
64,"[{'imgObject': {}, 'id': 'corn cob', 'src': '/static/foodstim60/corn cob.jpg', 'key': 'u', 'origWidth': 411, 'origHeight': 411, 'width': 411, 'height': 411, 'widthPercent': 0.45, 'rescaleHeight': False, 'trialN': 64, 'loaded': True, 'loadedTime': 12244.89999999851, 'positionName': 'LEFT', 'positionCoords': [510.6, 334.5], 'bid': 2.02}, {'imgObject': {}, 'id': 'blueberries', 'src': '/static/foodstim60/blueberries.jpg', 'key': 'i', 'origWidth': 411, 'origHeight': 411, 'width': 411, 'height': 411, 'widthPercent': 0.45, 'rescaleHeight': False, 'trialN': 64, 'loaded': True, 'loadedTime': 12165.89999999851, 'positionName': 'RIGHT', 'positionCoords': [998.4, 334.5], 'bid': 4.46}]",95723.39999999851,1669840901504,corn cob,blueberries,2.02,4.46,2.44,blueberries,688.0,690,689.2000000029802,True,i,96914.89999999851,1191.5,1669840902696,1192,HRV,HRV_0289,2022-11-30 20:44:08
65,"[{'imgObject': {}, 'id': 'mac & cheese', 'src': '/static/foodstim60/mac & cheese.jpg', 'key': 'u', 'origWidth': 410, 'origHeight': 410, 'width': 410, 'height': 410, 'widthPercent': 0.45, 'rescaleHeight': False, 'trialN': 65, 'loaded': True, 'loadedTime': 11623.39999999851, 'positionName': 'LEFT', 'positionCoords': [511.6, 335], 'bid': 9.94}, {'imgObject': {}, 'id': 'bagel and cc', 'src': '/static/foodstim60/bagel and cc.jpg', 'key': 'i', 'origWidth': 410, 'origHeight': 410, 'width': 410, 'height': 410, 'widthPercent': 0.45, 'rescaleHeight': False, 'trialN': 65, 'loaded': True, 'loadedTime': 12660.89999999851, 'positionName': 'RIGHT', 'positionCoords': [998.4, 335], 'bid': 9.97}]",96915.20000000298,1669840902696,mac & cheese,bagel and cc,9.94,9.97,0.030000000000001137,mac & cheese,577.2999999970198,579,578.6999999955297,True,u,97994.79999999702,1079.5999999940395,1669840903776,1080,HRV,HRV_0289,2022-11-30 20:44:08
66,"[{'imgObject': {}, 'id': 'salad w chicken', 'src': '/static/foodstim60/salad w chicken.jpg', 'key': 'u', 'origWidth': 411, 'origHeight': 411, 'width': 411, 'height': 411, 'widthPercent': 0.45, 'rescaleHeight': False, 'trialN': 66, 'loaded': True, 'loadedTime': 12570.10000000149, 'positionName': 'LEFT', 'positionCoords': [510.6, 334.5], 'bid': 9.09}, {'imgObject': {}, 'id': 'sweetpotato', 'src': '/static/foodstim60/sweetpotato.jpg', 'key': 'i', 'origWidth': 410, 'origHeight': 410, 'width': 410, 'height': 410, 'widthPercent': 0.45, 'rescaleHeight': False, 'trialN': 66, 'loaded': True, 'loadedTime': 12688.29999999702, 'positionName': 'RIGHT', 'positionCoords': [998.4, 335], 'bid': 4.2}]",97995.0,1669840903776,salad w chicken,sweetpotato,9.09,4.2,-4.89,salad w chicken,1036.3999999985099,1038,1038.3999999985099,True,u,99539.20000000298,1544.2000000029802,1669840905320,1544,HRV,HRV_0289,2022-11-30 20:44:08
67,"[{'imgObject': {}, 'id': 'hotdog w must', 'src': '/static/foodstim60/hotdog w must.jpg', 'key': 'u', 'origWidth': 409, 'origHeight': 409, 'width': 409, 'height': 409, 'widthPercent': 0.45, 'rescaleHeight': False, 'trialN': 67, 'loaded': True, 'loadedTime': 10020.79999999702, 'positionName': 'LEFT', 'positionCoords': [512.6, 335.5], 'bid': 5.93}, {'imgObject': {}, 'id': 'bagel and cc', 'src': '/static/foodstim60/bagel and cc.jpg', 'key': 'i', 'origWidth': 410, 'origHeight': 410, 'width': 410, 'height': 410, 'widthPercent': 0.45, 'rescaleHeight': False, 'trialN': 67, 'loaded': True, 'loadedTime': 12660.20000000298, 'positionName': 'RIGHT', 'positionCoords': [998.4, 335], 'bid': 9.97}]",99539.60000000149,1669840905321,hotdog w must,bagel and cc,5.93,9.97,4.040000000000001,bagel and cc,802.7999999970198,804,803.8999999985099,True,i,100851.20000000298,1311.6000000014901,1669840906632,1311,HRV,HRV_0289,2022-11-30 20:44:08
68,"[{'imgObject': {}, 'id': 'turkeysandwich', 'src': '/static/foodstim60/turkeysandwich.jpg', 'key': 'u', 'origWidth': 409, 'origHeight': 409, 'width': 409, 'height': 409, 'widthPercent': 0.45, 'rescaleHeight': False, 'trialN': 68, 'loaded': True, 'loadedTime': 12499.79999999702, 'positionName': 'LEFT', 'positionCoords': [512.6, 335.5], 'bid': 9.88}, {'imgObject': {}, 'id': 'turkey sandwich', 'src': '/static/foodstim60/turkey sandwich.jpg', 'key': 'i', 'origWidth': 409, 'origHeight': 409, 'width': 409, 'height': 409, 'widthPercent': 0.45, 'rescaleHeight': False, 'trialN': 68, 'loaded': True, 'loadedTime': 10727.5, 'positionName': 'RIGHT', 'positionCoords': [998.4, 335.5], 'bid': 9.67}]",100851.70000000298,1669840906633,turkeysandwich,turkey sandwich,9.88,9.67,-0.21000000000000085,turkeysandwich,800.8999999985099,802,802.0999999940395,True,u,102154.70000000298,1303.0,1669840907936,1303,HRV,HRV_0289,2022-11-30 20:44:08
69,"[{'imgObject': {}, 'id': 'kiwi', 'src': '/static/foodstim60/kiwi.jpg', 'key': 'u', 'origWidth': 410, 'origHeight': 410, 'width': 410, 'height': 410, 'widthPercent': 0.45, 'rescaleHeight': False, 'trialN': 69, 'loaded': True, 'loadedTime': 12258.79999999702, 'positionName': 'LEFT', 'positionCoords': [511.6, 335], 'bid': 4.29}, {'imgObject': {}, 'id': 'Grapes', 'src': '/static/foodstim60/Grapes.jpg', 'key': 'i', 'origWidth': 411, 'origHeight': 411, 'width': 411, 'height': 411, 'widthPercent': 0.45, 'rescaleHeight': False, 'trialN': 69, 'loaded': True, 'loadedTime': 12696.20000000298, 'positionName': 'RIGHT', 'positionCoords': [998.4, 334.5], 'bid': 4.07}]",102155.0,1669840907936,kiwi,Grapes,4.29,4.07,-0.21999999999999975,Grapes,763.3999999985099,765,764.7000000029802,True,i,103427.29999999702,1272.2999999970198,1669840909208,1272,HRV,HRV_0289,2022-11-30 20:44:08
70,"[{'imgObject': {}, 'id': 'blueberries', 'src': '/static/foodstim60/blueberries.jpg', 'key': 'u', 'origWidth': 411, 'origHeight': 411, 'width': 411, 'height': 411, 'widthPercent': 0.45, 'rescaleHeight': False, 'trialN': 70, 'loaded': True, 'loadedTime': 12166.29999999702, 'positionName': 'LEFT', 'positionCoords': [510.6, 334.5], 'bid': 4.46}, {'imgObject': {}, 'id': 'kiwi', 'src': '/static/foodstim60/kiwi.jpg', 'key': 'i', 'origWidth': 410, 'origHeight': 410, 'width': 410, 'height': 410, 'widthPercent': 0.45, 'rescaleHeight': False, 'trialN': 70, 'loaded': True, 'loadedTime': 12258.20000000298, 'positionName': 'RIGHT', 'positionCoords': [998.4, 335], 'bid': 4.29}]",103427.5,1669840909208,blueberries,kiwi,4.46,4.29,-0.16999999999999993,blueberries,570.7999999970198,573,572.1000000014901,True,u,104506.79999999702,1079.2999999970198,1669840910288,1080,HRV,HRV_0289,2022-11-30 20:44:08
71,"[{'imgObject': {}, 'id': 'hashbrowns', 'src': '/static/foodstim60/hashbrowns.jpg', 'key': 'u', 'origWidth': 411, 'origHeight': 410, 'width': 411, 'height': 410, 'widthPercent': 0.45, 'rescaleHeight': False, 'trialN': 71, 'loaded': True, 'loadedTime': 11216.79999999702, 'positionName': 'LEFT', 'positionCoords': [510.6, 335], 'bid': 0.98}, {'imgObject': {}, 'id': 'ice cream sundae 002', 'src': '/static/foodstim60/ice cream sundae 002.jpg', 'key': 'i', 'origWidth': 409, 'origHeight': 409, 'width': 409, 'height': 409, 'widthPercent': 0.45, 'rescaleHeight': False, 'trialN': 71, 'loaded': True, 'loadedTime': 11881.39999999851, 'positionName': 'RIGHT', 'positionCoords': [998.4, 335.5], 'bid': 1.46}]",104506.89999999851,1669840910288,hashbrowns,ice cream sundae 002,0.98,1.46,0.48,ice cream sundae 002,619.6000000014901,621,620.8000000044703,True,i,105635.0,1128.1000000014901,1669840911416,1128,HRV,HRV_0289,2022-11-30 20:44:08
72,"[{'imgObject': {}, 'id': 'avocado', 'src': '/static/foodstim60/avocado.jpg', 'key': 'u', 'origWidth': 409, 'origHeight': 409, 'width': 409, 'height': 409, 'widthPercent': 0.45, 'rescaleHeight': False, 'trialN': 72, 'loaded': True, 'loadedTime': 12696.60000000149, 'positionName': 'LEFT', 'positionCoords': [512.6, 335.5], 'bid': 3.41}, {'imgObject': {}, 'id': 'edamame', 'src': '/static/foodstim60/edamame.jpg', 'key': 'i', 'origWidth': 409, 'origHeight': 410, 'width': 409, 'height': 410, 'widthPercent': 0.45, 'rescaleHeight': False, 'trialN': 72, 'loaded': True, 'loadedTime': 12504.29999999702, 'positionName': 'RIGHT', 'positionCoords': [998.4, 335], 'bid': 3.18}]",105635.20000000298,1669840911416,avocado,edamame,3.41,3.18,-0.22999999999999998,avocado,847.2999999970198,849,848.5999999940395,True,u,106986.89999999851,1351.6999999955297,1669840912768,1352,HRV,HRV_0289,2022-11-30 20:44:08
73,"[{'imgObject': {}, 'id': 'omelette', 'src': '/static/foodstim60/omelette.jpg', 'key': 'u', 'origWidth': 410, 'origHeight': 409, 'width': 410, 'height': 409, 'widthPercent': 0.45, 'rescaleHeight': False, 'trialN': 73, 'loaded': True, 'loadedTime': 9875.70000000298, 'positionName': 'LEFT', 'positionCoords': [511.6, 335.5], 'bid': 9.34}, {'imgObject': {}, 'id': 'turkey sandwich', 'src': '/static/foodstim60/turkey sandwich.jpg', 'key': 'i', 'origWidth': 409, 'origHeight': 409, 'width': 409, 'height': 409, 'widthPercent': 0.45, 'rescaleHeight': False, 'trialN': 73, 'loaded': True, 'loadedTime': 10737.70000000298, 'positionName': 'RIGHT', 'positionCoords': [998.4, 335.5], 'bid': 9.67}]",106987.20000000298,1669840912768,omelette,turkey sandwich,9.34,9.67,0.33000000000000007,turkey sandwich,669.2999999970198,671,670.6999999955297,True,i,108162.79999999702,1175.5999999940395,1669840913944,1176,HRV,HRV_0289,2022-11-30 20:44:08
74,"[{'imgObject': {}, 'id': 'steak', 'src': '/static/foodstim60/steak.jpg', 'key': 'u', 'origWidth': 410, 'origHeight': 410, 'width': 410, 'height': 410, 'widthPercent': 0.45, 'rescaleHeight': False, 'trialN': 74, 'loaded': True, 'loadedTime': 9406.39999999851, 'positionName': 'LEFT', 'positionCoords': [511.6, 335], 'bid': 9.79}, {'imgObject': {}, 'id': 'burrito', 'src': '/static/foodstim60/burrito.jpg', 'key': 'i', 'origWidth': 410, 'origHeight': 410, 'width': 410, 'height': 410, 'widthPercent': 0.45, 'rescaleHeight': False, 'trialN': 74, 'loaded': True, 'loadedTime': 12429.20000000298, 'positionName': 'RIGHT', 'positionCoords': [998.4, 335], 'bid': 9.69}]",108163.10000000149,1669840913944,steak,burrito,9.79,9.69,-0.09999999999999964,burrito,827.5,829,828.8999999985099,True,i,109499.0,1335.8999999985099,1669840915280,1336,HRV,HRV_0289,2022-11-30 20:44:08
75,"[{'imgObject': {}, 'id': 'grilled chicken strips', 'src': '/static/foodstim60/grilled chicken strips.jpg', 'key': 'u', 'origWidth': 410, 'origHeight': 411, 'width': 410, 'height': 411, 'widthPercent': 0.45, 'rescaleHeight': False, 'trialN': 75, 'loaded': True, 'loadedTime': 10358.60000000149, 'positionName': 'LEFT', 'positionCoords': [511.6, 334.5], 'bid': 7.55}, {'imgObject': {}, 'id': 'hotdog w must', 'src': '/static/foodstim60/hotdog w must.jpg', 'key': 'i', 'origWidth': 409, 'origHeight': 409, 'width': 409, 'height': 409, 'widthPercent': 0.45, 'rescaleHeight': False, 'trialN': 75, 'loaded': True, 'loadedTime': 10021.60000000149, 'positionName': 'RIGHT', 'positionCoords': [998.4, 335.5], 'bid': 5.93}]",109499.20000000298,1669840915280,grilled chicken strips,hotdog w must,7.55,5.93,-1.62,hotdog w must,893.0999999940395,895,894.6999999955297,True,i,110899.10000000149,1399.8999999985099,1669840916680,1400,HRV,HRV_0289,2022-11-30 20:44:08
76,"[{'imgObject': {}, 'id': 'steak', 'src': '/static/foodstim60/steak.jpg', 'key': 'u', 'origWidth': 410, 'origHeight': 410, 'width': 410, 'height': 410, 'widthPercent': 0.45, 'rescaleHeight': False, 'trialN': 76, 'loaded': True, 'loadedTime': 9282.39999999851, 'positionName': 'LEFT', 'positionCoords': [511.6, 335], 'bid': 9.79}, {'imgObject': {}, 'id': 'bagel and cc', 'src': '/static/foodstim60/bagel and cc.jpg', 'key': 'i', 'origWidth': 410, 'origHeight': 410, 'width': 410, 'height': 410, 'widthPercent': 0.45, 'rescaleHeight': False, 'trialN': 76, 'loaded': True, 'loadedTime': 12653.5, 'positionName': 'RIGHT', 'positionCoords': [998.4, 335], 'bid': 9.97}]",110899.39999999851,1669840916680,steak,bagel and cc,9.79,9.97,0.1800000000000015,bagel and cc,940.8999999985099,943,942.1000000014901,True,i,112346.70000000298,1447.3000000044703,1669840918128,1448,HRV,HRV_0289,2022-11-30 20:44:08
77,"[{'imgObject': {}, 'id': 'fruitsalad', 'src': '/static/foodstim60/fruitsalad.jpg', 'key': 'u', 'origWidth': 410, 'origHeight': 410, 'width': 410, 'height': 410, 'widthPercent': 0.45, 'rescaleHeight': False, 'trialN': 77, 'loaded': True, 'loadedTime': 11074.39999999851, 'positionName': 'LEFT', 'positionCoords': [511.6, 335], 'bid': 5.01}, {'imgObject': {}, 'id': 'cocktailshrimp', 'src': '/static/foodstim60/cocktailshrimp.jpg', 'key': 'i', 'origWidth': 410, 'origHeight': 410, 'width': 410, 'height': 410, 'widthPercent': 0.45, 'rescaleHeight': False, 'trialN': 77, 'loaded': True, 'loadedTime': 10158.5, 'positionName': 'RIGHT', 'positionCoords': [998.4, 335], 'bid': 6.03}]",112347.0,1669840918128,fruitsalad,cocktailshrimp,5.01,6.03,1.0200000000000005,cocktailshrimp,872.2999999970198,874,874.2999999970198,True,i,113722.70000000298,1375.7000000029802,1669840919504,1376,HRV,HRV_0289,2022-11-30 20:44:08
78,"[{'imgObject': {}, 'id': 'fruitsalad', 'src': '/static/foodstim60/fruitsalad.jpg', 'key': 'u', 'origWidth': 410, 'origHeight': 410, 'width': 410, 'height': 410, 'widthPercent': 0.45, 'rescaleHeight': False, 'trialN': 78, 'loaded': True, 'loadedTime': 11034.5, 'positionName': 'LEFT', 'positionCoords': [511.6, 335], 'bid': 5.01}, {'imgObject': {}, 'id': 'burrito', 'src': '/static/foodstim60/burrito.jpg', 'key': 'i', 'origWidth': 410, 'origHeight': 410, 'width': 410, 'height': 410, 'widthPercent': 0.45, 'rescaleHeight': False, 'trialN': 78, 'loaded': True, 'loadedTime': 12431.29999999702, 'positionName': 'RIGHT', 'positionCoords': [998.4, 335], 'bid': 9.69}]",113723.0,1669840919504,fruitsalad,burrito,5.01,9.69,4.68,burrito,555.5,557,557.2000000029802,True,i,114787.0,1064.0,1669840920568,1064,HRV,HRV_0289,2022-11-30 20:44:08
79,"[{'imgObject': {}, 'id': 'turkeysandwich', 'src': '/static/foodstim60/turkeysandwich.jpg', 'key': 'u', 'origWidth': 409, 'origHeight': 409, 'width': 409, 'height': 409, 'widthPercent': 0.45, 'rescaleHeight': False, 'trialN': 79, 'loaded': True, 'loadedTime': 12501.89999999851, 'positionName': 'LEFT', 'positionCoords': [512.6, 335.5], 'bid': 9.88}, {'imgObject': {}, 'id': 'tacos', 'src': '/static/foodstim60/tacos.jpg', 'key': 'i', 'origWidth': 411, 'origHeight': 411, 'width': 411, 'height': 411, 'widthPercent': 0.45, 'rescaleHeight': False, 'trialN': 79, 'loaded': True, 'loadedTime': 11395.29999999702, 'positionName': 'RIGHT', 'positionCoords': [998.4, 334.5], 'bid': 9.87}]",114787.29999999702,1669840920568,turkeysandwich,tacos,9.88,9.87,-0.010000000000001563,turkeysandwich,571.1000000014901,573,572.5,True,u,115866.70000000298,1079.4000000059605,1669840921648,1080,HRV,HRV_0289,2022-11-30 20:44:08
80,"[{'imgObject': {}, 'id': 'popsicles', 'src': '/static/foodstim60/popsicles.jpg', 'key': 'u', 'origWidth': 410, 'origHeight': 410, 'width': 410, 'height': 410, 'widthPercent': 0.45, 'rescaleHeight': False, 'trialN': 80, 'loaded': True, 'loadedTime': 11477.39999999851, 'positionName': 'LEFT', 'positionCoords': [511.6, 335], 'bid': 0.08}, {'imgObject': {}, 'id': 'orange slices', 'src': '/static/foodstim60/orange slices.jpg', 'key': 'i', 'origWidth': 409, 'origHeight': 410, 'width': 409, 'height': 410, 'widthPercent': 0.45, 'rescaleHeight': False, 'trialN': 80, 'loaded': True, 'loadedTime': 9776.5, 'positionName': 'RIGHT', 'positionCoords': [998.4, 335], 'bid': 2.08}]",115867.10000000149,1669840921648,popsicles,orange slices,0.08,2.08,2.0,orange slices,689.1999999955297,694,694.2999999970198,True,i,117067.0,1199.8999999985099,1669840922848,1200,HRV,HRV_0289,2022-11-30 20:44:08
81,"[{'imgObject': {}, 'id': 'sweetpotato', 'src': '/static/foodstim60/sweetpotato.jpg', 'key': 'u', 'origWidth': 410, 'origHeight': 410, 'width': 410, 'height': 410, 'widthPercent': 0.45, 'rescaleHeight': False, 'trialN': 81, 'loaded': True, 'loadedTime': 12685.89999999851, 'positionName': 'LEFT', 'positionCoords': [511.6, 335], 'bid': 4.2}, {'imgObject': {}, 'id': 'blueberries', 'src': '/static/foodstim60/blueberries.jpg', 'key': 'i', 'origWidth': 411, 'origHeight': 411, 'width': 411, 'height': 411, 'widthPercent': 0.45, 'rescaleHeight': False, 'trialN': 81, 'loaded': True, 'loadedTime': 12083.70000000298, 'positionName': 'RIGHT', 'positionCoords': [998.4, 334.5], 'bid': 4.46}]",117067.20000000298,1669840922848,sweetpotato,blueberries,4.2,4.46,0.2599999999999998,blueberries,570.0999999940395,572,571.5,True,i,118139.10000000149,1071.8999999985099,1669840923920,1072,HRV,HRV_0289,2022-11-30 20:44:08
82,"[{'imgObject': {}, 'id': 'orange slices', 'src': '/static/foodstim60/orange slices.jpg', 'key': 'u', 'origWidth': 409, 'origHeight': 410, 'width': 409, 'height': 410, 'widthPercent': 0.45, 'rescaleHeight': False, 'trialN': 82, 'loaded': True, 'loadedTime': 9830.70000000298, 'positionName': 'LEFT', 'positionCoords': [512.6, 335], 'bid': 2.08}, {'imgObject': {}, 'id': 'banana', 'src': '/static/foodstim60/banana.jpg', 'key': 'i', 'origWidth': 410, 'origHeight': 410, 'width': 410, 'height': 410, 'widthPercent': 0.45, 'rescaleHeight': False, 'trialN': 82, 'loaded': True, 'loadedTime': 11800.79999999702, 'positionName': 'RIGHT', 'positionCoords': [998.4, 335], 'bid': 5.3}]",118139.70000000298,1669840923921,orange slices,banana,2.08,5.3,3.2199999999999998,banana,739.5999999940395,740,740.5999999940395,True,i,119387.10000000149,1247.3999999985099,1669840925168,1247,HRV,HRV_0289,2022-11-30 20:44:08
83,"[{'imgObject': {}, 'id': 'cocktailshrimp', 'src': '/static/foodstim60/cocktailshrimp.jpg', 'key': 'u', 'origWidth': 410, 'origHeight': 410, 'width': 410, 'height': 410, 'widthPercent': 0.45, 'rescaleHeight': False, 'trialN': 83, 'loaded': True, 'loadedTime': 10158, 'positionName': 'LEFT', 'positionCoords': [511.6, 335], 'bid': 6.03}, {'imgObject': {}, 'id': 'salad w chicken', 'src': '/static/foodstim60/salad w chicken.jpg', 'key': 'i', 'origWidth': 411, 'origHeight': 411, 'width': 411, 'height': 411, 'widthPercent': 0.45, 'rescaleHeight': False, 'trialN': 83, 'loaded': True, 'loadedTime': 12568.39999999851, 'positionName': 'RIGHT', 'positionCoords': [998.4, 334.5], 'bid': 9.09}]",119387.29999999702,1669840925168,cocktailshrimp,salad w chicken,6.03,9.09,3.0599999999999996,salad w chicken,848.0,849,849.0,True,i,120739.0,1351.7000000029802,1669840926520,1352,HRV,HRV_0289,2022-11-30 20:44:08
84,"[{'imgObject': {}, 'id': 'lox', 'src': '/static/foodstim60/lox.jpg', 'key': 'u', 'origWidth': 410, 'origHeight': 411, 'width': 410, 'height': 411, 'widthPercent': 0.45, 'rescaleHeight': False, 'trialN': 84, 'loaded': True, 'loadedTime': 9702.20000000298, 'positionName': 'LEFT', 'positionCoords': [511.6, 334.5], 'bid': 2.1}, {'imgObject': {}, 'id': 'hashbrowns', 'src': '/static/foodstim60/hashbrowns.jpg', 'key': 'i', 'origWidth': 411, 'origHeight': 410, 'width': 411, 'height': 410, 'widthPercent': 0.45, 'rescaleHeight': False, 'trialN': 84, 'loaded': True, 'loadedTime': 11297.20000000298, 'positionName': 'RIGHT', 'positionCoords': [998.4, 335], 'bid': 0.98}]",120739.29999999702,1669840926520,lox,hashbrowns,2.1,0.98,-1.12,lox,897.0,899,898.6000000014901,True,u,122139.5,1400.2000000029802,1669840927920,1400,HRV,HRV_0289,2022-11-30 20:44:08
85,"[{'imgObject': {}, 'id': 'roastedpotatoes', 'src': '/static/foodstim60/roastedpotatoes.jpg', 'key': 'u', 'origWidth': 409, 'origHeight': 410, 'width': 409, 'height': 410, 'widthPercent': 0.45, 'rescaleHeight': False, 'trialN': 85, 'loaded': True, 'loadedTime': 12083.5, 'positionName': 'LEFT', 'positionCoords': [512.6, 335], 'bid': 8.01}, {'imgObject': {}, 'id': 'tacos', 'src': '/static/foodstim60/tacos.jpg', 'key': 'i', 'origWidth': 411, 'origHeight': 411, 'width': 411, 'height': 411, 'widthPercent': 0.45, 'rescaleHeight': False, 'trialN': 85, 'loaded': True, 'loadedTime': 11400.89999999851, 'positionName': 'RIGHT', 'positionCoords': [998.4, 334.5], 'bid': 9.87}]",122139.79999999702,1669840927921,roastedpotatoes,tacos,8.01,9.87,1.8599999999999994,tacos,693.5,695,694.8000000044703,True,i,123338.70000000298,1198.9000000059605,1669840929120,1199,HRV,HRV_0289,2022-11-30 20:44:08
86,"[{'imgObject': {}, 'id': 'mango', 'src': '/static/foodstim60/mango.jpg', 'key': 'u', 'origWidth': 411, 'origHeight': 411, 'width': 411, 'height': 411, 'widthPercent': 0.45, 'rescaleHeight': False, 'trialN': 86, 'loaded': True, 'loadedTime': 10419.20000000298, 'positionName': 'LEFT', 'positionCoords': [510.6, 334.5], 'bid': 0.79}, {'imgObject': {}, 'id': 'blueberries', 'src': '/static/foodstim60/blueberries.jpg', 'key': 'i', 'origWidth': 411, 'origHeight': 411, 'width': 411, 'height': 411, 'widthPercent': 0.45, 'rescaleHeight': False, 'trialN': 86, 'loaded': True, 'loadedTime': 12162.89999999851, 'positionName': 'RIGHT', 'positionCoords': [998.4, 334.5], 'bid': 4.46}]",123339.10000000149,1669840929120,mango,blueberries,0.79,4.46,3.67,blueberries,599.3999999985099,601,600.8999999985099,True,i,124443.20000000298,1104.1000000014901,1669840930224,1104,HRV,HRV_0289,2022-11-30 20:44:08
87,"[{'imgObject': {}, 'id': 'baked potato', 'src': '/static/foodstim60/baked potato.jpg', 'key': 'u', 'origWidth': 409, 'origHeight': 410, 'width': 409, 'height': 410, 'widthPercent': 0.45, 'rescaleHeight': False, 'trialN': 87, 'loaded': True, 'loadedTime': 9935.10000000149, 'positionName': 'LEFT', 'positionCoords': [512.6, 335], 'bid': 7.58}, {'imgObject': {}, 'id': 'rigatoni and sauce', 'src': '/static/foodstim60/rigatoni and sauce.jpg', 'key': 'i', 'origWidth': 410, 'origHeight': 411, 'width': 410, 'height': 411, 'widthPercent': 0.45, 'rescaleHeight': False, 'trialN': 87, 'loaded': True, 'loadedTime': 12565.89999999851, 'positionName': 'RIGHT', 'positionCoords': [998.4, 334.5], 'bid': 9.86}]",124443.39999999851,1669840930224,baked potato,rigatoni and sauce,7.58,9.86,2.2799999999999994,rigatoni and sauce,736.8999999985099,739,738.1000000014901,True,i,125683.20000000298,1239.8000000044703,1669840931464,1240,HRV,HRV_0289,2022-11-30 20:44:08
88,"[{'imgObject': {}, 'id': 'Grapes', 'src': '/static/foodstim60/Grapes.jpg', 'key': 'u', 'origWidth': 411, 'origHeight': 411, 'width': 411, 'height': 411, 'widthPercent': 0.45, 'rescaleHeight': False, 'trialN': 88, 'loaded': True, 'loadedTime': 12696.10000000149, 'positionName': 'LEFT', 'positionCoords': [510.6, 334.5], 'bid': 4.07}, {'imgObject': {}, 'id': 'sweetpotato', 'src': '/static/foodstim60/sweetpotato.jpg', 'key': 'i', 'origWidth': 410, 'origHeight': 410, 'width': 410, 'height': 410, 'widthPercent': 0.45, 'rescaleHeight': False, 'trialN': 88, 'loaded': True, 'loadedTime': 12688.39999999851, 'positionName': 'RIGHT', 'positionCoords': [998.4, 335], 'bid': 4.2}]",125683.29999999702,1669840931464,Grapes,sweetpotato,4.07,4.2,0.1299999999999999,Grapes,829.1000000014901,832,831.7000000029802,True,u,127018.70000000298,1335.4000000059605,1669840932800,1336,HRV,HRV_0289,2022-11-30 20:44:08
89,"[{'imgObject': {}, 'id': 'raisin bran w milk', 'src': '/static/foodstim60/raisin bran w milk.jpg', 'key': 'u', 'origWidth': 411, 'origHeight': 411, 'width': 411, 'height': 411, 'widthPercent': 0.45, 'rescaleHeight': False, 'trialN': 89, 'loaded': True, 'loadedTime': 10574.60000000149, 'positionName': 'LEFT', 'positionCoords': [510.6, 334.5], 'bid': 4.93}, {'imgObject': {}, 'id': 'olives', 'src': '/static/foodstim60/olives.jpg', 'key': 'i', 'origWidth': 410, 'origHeight': 410, 'width': 410, 'height': 410, 'widthPercent': 0.45, 'rescaleHeight': False, 'trialN': 89, 'loaded': True, 'loadedTime': 11804.10000000149, 'positionName': 'RIGHT', 'positionCoords': [998.4, 335], 'bid': 6}]",127018.89999999851,1669840932800,raisin bran w milk,olives,4.93,6.0,1.0700000000000003,olives,1056.6000000014901,1058,1058.1000000014901,True,i,128578.89999999851,1560.0,1669840934360,1560,HRV,HRV_0289,2022-11-30 20:44:08
90,"[{'imgObject': {}, 'id': 'chicken nuggets2', 'src': '/static/foodstim60/chicken nuggets2.jpg', 'key': 'u', 'origWidth': 410, 'origHeight': 409, 'width': 410, 'height': 409, 'widthPercent': 0.45, 'rescaleHeight': False, 'trialN': 90, 'loaded': True, 'loadedTime': 10073.29999999702, 'positionName': 'LEFT', 'positionCoords': [511.6, 335.5], 'bid': 5.87}, {'imgObject': {}, 'id': 'blackbeanswithrice', 'src': '/static/foodstim60/blackbeanswithrice.jpg', 'key': 'i', 'origWidth': 410, 'origHeight': 410, 'width': 410, 'height': 410, 'widthPercent': 0.45, 'rescaleHeight': False, 'trialN': 90, 'loaded': True, 'loadedTime': 12653.39999999851, 'positionName': 'RIGHT', 'positionCoords': [998.4, 335], 'bid': 7.44}]",131870.79999999702,1669840937652,chicken nuggets2,blackbeanswithrice,5.87,7.44,1.5700000000000003,chicken nuggets2,761.7000000029802,764,764.0,True,u,133138.79999999702,1268.0,1669840938920,1268,HRV,HRV_0289,2022-11-30 20:44:08
91,"[{'imgObject': {}, 'id': 'mac & cheese', 'src': '/static/foodstim60/mac & cheese.jpg', 'key': 'u', 'origWidth': 410, 'origHeight': 410, 'width': 410, 'height': 410, 'widthPercent': 0.45, 'rescaleHeight': False, 'trialN': 91, 'loaded': True, 'loadedTime': 11610.5, 'positionName': 'LEFT', 'positionCoords': [511.6, 335], 'bid': 9.94}, {'imgObject': {}, 'id': 'sushi w_condiments', 'src': '/static/foodstim60/sushi w_condiments.jpg', 'key': 'i', 'origWidth': 410, 'origHeight': 410, 'width': 410, 'height': 410, 'widthPercent': 0.45, 'rescaleHeight': False, 'trialN': 91, 'loaded': True, 'loadedTime': 11121.60000000149, 'positionName': 'RIGHT', 'positionCoords': [998.4, 335], 'bid': 9.16}]",133139.1000000015,1669840938920,mac & cheese,sushi w_condiments,9.94,9.16,-0.7799999999999994,mac & cheese,575.1999999955297,577,576.7999999970198,True,u,134219.0,1079.8999999985099,1669840940000,1080,HRV,HRV_0289,2022-11-30 20:44:08
92,"[{'imgObject': {}, 'id': 'turkeysandwich', 'src': '/static/foodstim60/turkeysandwich.jpg', 'key': 'u', 'origWidth': 409, 'origHeight': 409, 'width': 409, 'height': 409, 'widthPercent': 0.45, 'rescaleHeight': False, 'trialN': 92, 'loaded': True, 'loadedTime': 12502, 'positionName': 'LEFT', 'positionCoords': [512.6, 335.5], 'bid': 9.88}, {'imgObject': {}, 'id': 'salad w chicken', 'src': '/static/foodstim60/salad w chicken.jpg', 'key': 'i', 'origWidth': 411, 'origHeight': 411, 'width': 411, 'height': 411, 'widthPercent': 0.45, 'rescaleHeight': False, 'trialN': 92, 'loaded': True, 'loadedTime': 12569.89999999851, 'positionName': 'RIGHT', 'positionCoords': [998.4, 334.5], 'bid': 9.09}]",134219.29999999702,1669840940000,turkeysandwich,salad w chicken,9.88,9.09,-0.7900000000000009,turkeysandwich,553.0,557,556.7000000029802,True,u,135282.70000000298,1063.4000000059605,1669840941064,1064,HRV,HRV_0289,2022-11-30 20:44:08
93,"[{'imgObject': {}, 'id': 'Grapes', 'src': '/static/foodstim60/Grapes.jpg', 'key': 'u', 'origWidth': 411, 'origHeight': 411, 'width': 411, 'height': 411, 'widthPercent': 0.45, 'rescaleHeight': False, 'trialN': 93, 'loaded': True, 'loadedTime': 12696.29999999702, 'positionName': 'LEFT', 'positionCoords': [510.6, 334.5], 'bid': 4.07}, {'imgObject': {}, 'id': 'pear', 'src': '/static/foodstim60/pear.jpg', 'key': 'i', 'origWidth': 411, 'origHeight': 410, 'width': 411, 'height': 410, 'widthPercent': 0.45, 'rescaleHeight': False, 'trialN': 93, 'loaded': True, 'loadedTime': 10473.89999999851, 'positionName': 'RIGHT', 'positionCoords': [998.4, 335], 'bid': 1.02}]",135283.0,1669840941064,Grapes,pear,4.07,1.02,-3.0500000000000003,Grapes,731.2999999970198,733,733.2999999970198,True,u,136523.0,1240.0,1669840942304,1240,HRV,HRV_0289,2022-11-30 20:44:08
94,"[{'imgObject': {}, 'id': 'eggsalad', 'src': '/static/foodstim60/eggsalad.jpg', 'key': 'u', 'origWidth': 410, 'origHeight': 409, 'width': 410, 'height': 409, 'widthPercent': 0.45, 'rescaleHeight': False, 'trialN': 94, 'loaded': True, 'loadedTime': 9602.5, 'positionName': 'LEFT', 'positionCoords': [511.6, 335.5], 'bid': 8.45}, {'imgObject': {}, 'id': 'fried eggs', 'src': '/static/foodstim60/fried eggs.jpg', 'key': 'i', 'origWidth': 410, 'origHeight': 410, 'width': 410, 'height': 410, 'widthPercent': 0.45, 'rescaleHeight': False, 'trialN': 94, 'loaded': True, 'loadedTime': 12425.5, 'positionName': 'RIGHT', 'positionCoords': [998.4, 335], 'bid': 8.42}]",136523.29999999702,1669840942304,eggsalad,fried eggs,8.45,8.42,-0.02999999999999936,fried eggs,596.0,598,597.2000000029802,True,i,137627.1000000015,1103.8000000044703,1669840943408,1104,HRV,HRV_0289,2022-11-30 20:44:08
95,"[{'imgObject': {}, 'id': 'popsicles', 'src': '/static/foodstim60/popsicles.jpg', 'key': 'u', 'origWidth': 410, 'origHeight': 410, 'width': 410, 'height': 410, 'widthPercent': 0.45, 'rescaleHeight': False, 'trialN': 95, 'loaded': True, 'loadedTime': 11477.60000000149, 'positionName': 'LEFT', 'positionCoords': [511.6, 335], 'bid': 0.08}, {'imgObject': {}, 'id': 'apple slices', 'src': '/static/foodstim60/apple slices.jpg', 'key': 'i', 'origWidth': 409, 'origHeight': 410, 'width': 409, 'height': 410, 'widthPercent': 0.45, 'rescaleHeight': False, 'trialN': 95, 'loaded': True, 'loadedTime': 10697.29999999702, 'positionName': 'RIGHT', 'positionCoords': [998.4, 335], 'bid': 0.66}]",137627.29999999702,1669840943408,popsicles,apple slices,0.08,0.66,0.5800000000000001,apple slices,1078.2000000029802,1080,1079.4000000059605,True,i,139210.79999999702,1583.5,1669840944992,1584,HRV,HRV_0289,2022-11-30 20:44:08
96,"[{'imgObject': {}, 'id': 'roastedpotatoes', 'src': '/static/foodstim60/roastedpotatoes.jpg', 'key': 'u', 'origWidth': 409, 'origHeight': 410, 'width': 409, 'height': 410, 'widthPercent': 0.45, 'rescaleHeight': False, 'trialN': 96, 'loaded': True, 'loadedTime': 12077.10000000149, 'positionName': 'LEFT', 'positionCoords': [512.6, 335], 'bid': 8.01}, {'imgObject': {}, 'id': 'baked potato', 'src': '/static/foodstim60/baked potato.jpg', 'key': 'i', 'origWidth': 409, 'origHeight': 410, 'width': 409, 'height': 410, 'widthPercent': 0.45, 'rescaleHeight': False, 'trialN': 96, 'loaded': True, 'loadedTime': 9944.10000000149, 'positionName': 'RIGHT', 'positionCoords': [998.4, 335], 'bid': 7.58}]",139211.0,1669840944992,roastedpotatoes,baked potato,8.01,7.58,-0.4299999999999997,roastedpotatoes,620.3999999985099,622,622.1000000014901,True,u,140339.0,1128.0,1669840946120,1128,HRV,HRV_0289,2022-11-30 20:44:08
97,"[{'imgObject': {}, 'id': 'turkeysandwich', 'src': '/static/foodstim60/turkeysandwich.jpg', 'key': 'u', 'origWidth': 409, 'origHeight': 409, 'width': 409, 'height': 409, 'widthPercent': 0.45, 'rescaleHeight': False, 'trialN': 97, 'loaded': True, 'loadedTime': 12501.5, 'positionName': 'LEFT', 'positionCoords': [512.6, 335.5], 'bid': 9.88}, {'imgObject': {}, 'id': 'bagel and cc', 'src': '/static/foodstim60/bagel and cc.jpg', 'key': 'i', 'origWidth': 410, 'origHeight': 410, 'width': 410, 'height': 410, 'widthPercent': 0.45, 'rescaleHeight': False, 'trialN': 97, 'loaded': True, 'loadedTime': 12660.79999999702, 'positionName': 'RIGHT', 'positionCoords': [998.4, 335], 'bid': 9.97}]",140339.3999999985,1669840946120,turkeysandwich,bagel and cc,9.88,9.97,0.08999999999999986,turkeysandwich,687.8999999985099,689,688.8999999985099,True,u,141533.70000000298,1194.3000000044703,1669840947315,1195,HRV,HRV_0289,2022-11-30 20:44:08
98,"[{'imgObject': {}, 'id': 'roastedpotatoes', 'src': '/static/foodstim60/roastedpotatoes.jpg', 'key': 'u', 'origWidth': 409, 'origHeight': 410, 'width': 409, 'height': 410, 'widthPercent': 0.45, 'rescaleHeight': False, 'trialN': 98, 'loaded': True, 'loadedTime': 12067.20000000298, 'positionName': 'LEFT', 'positionCoords': [512.6, 335], 'bid': 8.01}, {'imgObject': {}, 'id': 'salad w chicken', 'src': '/static/foodstim60/salad w chicken.jpg', 'key': 'i', 'origWidth': 411, 'origHeight': 411, 'width': 411, 'height': 411, 'widthPercent': 0.45, 'rescaleHeight': False, 'trialN': 98, 'loaded': True, 'loadedTime': 12569.79999999702, 'positionName': 'RIGHT', 'positionCoords': [998.4, 334.5], 'bid': 9.09}]",141533.8999999985,1669840947315,roastedpotatoes,salad w chicken,8.01,9.09,1.08,salad w chicken,598.6000000014901,600,599.8999999985099,True,i,142635.0,1101.1000000014901,1669840948416,1101,HRV,HRV_0289,2022-11-30 20:44:08
99,"[{'imgObject': {}, 'id': 'sushi w_condiments', 'src': '/static/foodstim60/sushi w_condiments.jpg', 'key': 'u', 'origWidth': 410, 'origHeight': 410, 'width': 410, 'height': 410, 'widthPercent': 0.45, 'rescaleHeight': False, 'trialN': 99, 'loaded': True, 'loadedTime': 11123.79999999702, 'positionName': 'LEFT', 'positionCoords': [511.6, 335], 'bid': 9.16}, {'imgObject': {}, 'id': 'bagel plain', 'src': '/static/foodstim60/bagel plain.jpg', 'key': 'i', 'origWidth': 410, 'origHeight': 410, 'width': 410, 'height': 410, 'widthPercent': 0.45, 'rescaleHeight': False, 'trialN': 99, 'loaded': True, 'loadedTime': 10239.79999999702, 'positionName': 'RIGHT', 'positionCoords': [998.4, 335], 'bid': 9.86}]",142635.29999999702,1669840948416,sushi w_condiments,bagel plain,9.16,9.86,0.6999999999999993,sushi w_condiments,738.2000000029802,740,740.1000000014901,True,u,143882.79999999702,1247.5,1669840949664,1248,HRV,HRV_0289,2022-11-30 20:44:08
100,"[{'imgObject': {}, 'id': 'mac & cheese', 'src': '/static/foodstim60/mac & cheese.jpg', 'key': 'u', 'origWidth': 410, 'origHeight': 410, 'width': 410, 'height': 410, 'widthPercent': 0.45, 'rescaleHeight': False, 'trialN': 100, 'loaded': True, 'loadedTime': 11618.60000000149, 'positionName': 'LEFT', 'positionCoords': [511.6, 335], 'bid': 9.94}, {'imgObject': {}, 'id': 'chicken nuggets2', 'src': '/static/foodstim60/chicken nuggets2.jpg', 'key': 'i', 'origWidth': 410, 'origHeight': 409, 'width': 410, 'height': 409, 'widthPercent': 0.45, 'rescaleHeight': False, 'trialN': 100, 'loaded': True, 'loadedTime': 10128.5, 'positionName': 'RIGHT', 'positionCoords': [998.4, 335.5], 'bid': 5.87}]",143883.1000000015,1669840949664,mac & cheese,chicken nuggets2,9.94,5.87,-4.069999999999999,mac & cheese,595.2999999970198,597,596.6999999955297,True,u,144986.70000000298,1103.6000000014901,1669840950768,1104,HRV,HRV_0289,2022-11-30 20:44:08
101,"[{'imgObject': {}, 'id': 'fried eggs', 'src': '/static/foodstim60/fried eggs.jpg', 'key': 'u', 'origWidth': 410, 'origHeight': 410, 'width': 410, 'height': 410, 'widthPercent': 0.45, 'rescaleHeight': False, 'trialN': 101, 'loaded': True, 'loadedTime': 12428.79999999702, 'positionName': 'LEFT', 'positionCoords': [511.6, 335], 'bid': 8.42}, {'imgObject': {}, 'id': 'baked potato', 'src': '/static/foodstim60/baked potato.jpg', 'key': 'i', 'origWidth': 409, 'origHeight': 410, 'width': 409, 'height': 410, 'widthPercent': 0.45, 'rescaleHeight': False, 'trialN': 101, 'loaded': True, 'loadedTime': 9934.5, 'positionName': 'RIGHT', 'positionCoords': [998.4, 335], 'bid': 7.58}]",144987.0,1669840950768,fried eggs,baked potato,8.42,7.58,-0.8399999999999999,fried eggs,801.5,803,802.7999999970198,True,u,146290.79999999702,1303.7999999970198,1669840952072,1304,HRV,HRV_0289,2022-11-30 20:44:08
102,"[{'imgObject': {}, 'id': 'eggsalad', 'src': '/static/foodstim60/eggsalad.jpg', 'key': 'u', 'origWidth': 410, 'origHeight': 409, 'width': 410, 'height': 409, 'widthPercent': 0.45, 'rescaleHeight': False, 'trialN': 102, 'loaded': True, 'loadedTime': 9566.29999999702, 'positionName': 'LEFT', 'positionCoords': [511.6, 335.5], 'bid': 8.45}, {'imgObject': {}, 'id': 'eggs', 'src': '/static/foodstim60/eggs.jpg', 'key': 'i', 'origWidth': 409, 'origHeight': 409, 'width': 409, 'height': 409, 'widthPercent': 0.45, 'rescaleHeight': False, 'trialN': 102, 'loaded': True, 'loadedTime': 12703.29999999702, 'positionName': 'RIGHT', 'positionCoords': [998.4, 335.5], 'bid': 7.29}]",146291.0,1669840952072,eggsalad,eggs,8.45,7.29,-1.1599999999999993,eggs,695.2999999970198,699,698.8999999985099,True,i,147490.79999999702,1199.7999999970198,1669840953272,1200,HRV,HRV_0289,2022-11-30 20:44:08
103,"[{'imgObject': {}, 'id': 'apple slices', 'src': '/static/foodstim60/apple slices.jpg', 'key': 'u', 'origWidth': 409, 'origHeight': 410, 'width': 409, 'height': 410, 'widthPercent': 0.45, 'rescaleHeight': False, 'trialN': 103, 'loaded': True, 'loadedTime': 10689, 'positionName': 'LEFT', 'positionCoords': [512.6, 335], 'bid': 0.66}, {'imgObject': {}, 'id': 'strawberries', 'src': '/static/foodstim60/strawberries.jpg', 'key': 'i', 'origWidth': 410, 'origHeight': 410, 'width': 410, 'height': 410, 'widthPercent': 0.45, 'rescaleHeight': False, 'trialN': 103, 'loaded': True, 'loadedTime': 11556, 'positionName': 'RIGHT', 'positionCoords': [998.4, 335], 'bid': 2.81}]",147490.8999999985,1669840953272,apple slices,strawberries,0.66,2.81,2.15,strawberries,645.6000000014901,647,646.8999999985099,True,i,148642.79999999702,1151.8999999985099,1669840954424,1152,HRV,HRV_0289,2022-11-30 20:44:08
104,"[{'imgObject': {}, 'id': 'eggsalad', 'src': '/static/foodstim60/eggsalad.jpg', 'key': 'u', 'origWidth': 410, 'origHeight': 409, 'width': 410, 'height': 409, 'widthPercent': 0.45, 'rescaleHeight': False, 'trialN': 104, 'loaded': True, 'loadedTime': 9566.60000000149, 'positionName': 'LEFT', 'positionCoords': [511.6, 335.5], 'bid': 8.45}, {'imgObject': {}, 'id': 'raspberries', 'src': '/static/foodstim60/raspberries.jpg', 'key': 'i', 'origWidth': 411, 'origHeight': 411, 'width': 411, 'height': 411, 'widthPercent': 0.45, 'rescaleHeight': False, 'trialN': 104, 'loaded': True, 'loadedTime': 12238.39999999851, 'positionName': 'RIGHT', 'positionCoords': [998.4, 334.5], 'bid': 3.0500000000000003}]",148643.0,1669840954424,eggsalad,raspberries,8.45,3.0500000000000003,-5.399999999999999,raspberries,872.3999999985099,874,873.7999999970198,True,i,150019.1000000015,1376.1000000014901,1669840955800,1376,HRV,HRV_0289,2022-11-30 20:44:08
105,"[{'imgObject': {}, 'id': 'luckycharms', 'src': '/static/foodstim60/luckycharms.jpg', 'key': 'u', 'origWidth': 410, 'origHeight': 409, 'width': 410, 'height': 409, 'widthPercent': 0.45, 'rescaleHeight': False, 'trialN': 105, 'loaded': True, 'loadedTime': 12715.20000000298, 'positionName': 'LEFT', 'positionCoords': [511.6, 335.5], 'bid': 5.1000000000000005}, {'imgObject': {}, 'id': 'banana', 'src': '/static/foodstim60/banana.jpg', 'key': 'i', 'origWidth': 410, 'origHeight': 410, 'width': 410, 'height': 410, 'widthPercent': 0.45, 'rescaleHeight': False, 'trialN': 105, 'loaded': True, 'loadedTime': 11755.89999999851, 'positionName': 'RIGHT', 'positionCoords': [998.4, 335], 'bid': 5.3}]",150019.3999999985,1669840955800,luckycharms,banana,5.1000000000000005,5.3,0.1999999999999993,banana,852.1000000014901,854,853.3000000044703,True,i,151378.70000000298,1359.3000000044703,1669840957160,1360,HRV,HRV_0289,2022-11-30 20:44:08
106,"[{'imgObject': {}, 'id': 'blackbeanswithrice', 'src': '/static/foodstim60/blackbeanswithrice.jpg', 'key': 'u', 'origWidth': 410, 'origHeight': 410, 'width': 410, 'height': 410, 'widthPercent': 0.45, 'rescaleHeight': False, 'trialN': 106, 'loaded': True, 'loadedTime': 12652.79999999702, 'positionName': 'LEFT', 'positionCoords': [511.6, 335], 'bid': 7.44}, {'imgObject': {}, 'id': 'cantaloupe', 'src': '/static/foodstim60/cantaloupe.jpg', 'key': 'i', 'origWidth': 409, 'origHeight': 409, 'width': 409, 'height': 409, 'widthPercent': 0.45, 'rescaleHeight': False, 'trialN': 106, 'loaded': True, 'loadedTime': 11676.29999999702, 'positionName': 'RIGHT', 'positionCoords': [998.4, 335.5], 'bid': 1.93}]",151379.20000000298,1669840957160,blackbeanswithrice,cantaloupe,7.44,1.93,-5.510000000000001,blackbeanswithrice,687.3999999985099,689,689.0,True,u,152571.20000000298,1192.0,1669840958352,1192,HRV,HRV_0289,2022-11-30 20:44:08
107,"[{'imgObject': {}, 'id': 'mashed potato', 'src': '/static/foodstim60/mashed potato.jpg', 'key': 'u', 'origWidth': 409, 'origHeight': 409, 'width': 409, 'height': 409, 'widthPercent': 0.45, 'rescaleHeight': False, 'trialN': 107, 'loaded': True, 'loadedTime': 11479, 'positionName': 'LEFT', 'positionCoords': [512.6, 335.5], 'bid': 5.97}, {'imgObject': {}, 'id': 'olives', 'src': '/static/foodstim60/olives.jpg', 'key': 'i', 'origWidth': 410, 'origHeight': 410, 'width': 410, 'height': 410, 'widthPercent': 0.45, 'rescaleHeight': False, 'trialN': 107, 'loaded': True, 'loadedTime': 11803.20000000298, 'positionName': 'RIGHT', 'positionCoords': [998.4, 335], 'bid': 6}]",152571.29999999702,1669840958352,mashed potato,olives,5.97,6.0,0.03000000000000025,mashed potato,828.2000000029802,830,830.1000000014901,True,u,153907.1000000015,1335.8000000044703,1669840959688,1336,HRV,HRV_0289,2022-11-30 20:44:08
108,"[{'imgObject': {}, 'id': 'blackbeanswithrice', 'src': '/static/foodstim60/blackbeanswithrice.jpg', 'key': 'u', 'origWidth': 410, 'origHeight': 410, 'width': 410, 'height': 410, 'widthPercent': 0.45, 'rescaleHeight': False, 'trialN': 108, 'loaded': True, 'loadedTime': 12653.20000000298, 'positionName': 'LEFT', 'positionCoords': [511.6, 335], 'bid': 7.44}, {'imgObject': {}, 'id': 'yogurt no spoon', 'src': '/static/foodstim60/yogurt no spoon.jpg', 'key': 'i', 'origWidth': 411, 'origHeight': 410, 'width': 411, 'height': 410, 'widthPercent': 0.45, 'rescaleHeight': False, 'trialN': 108, 'loaded': True, 'loadedTime': 12370.10000000149, 'positionName': 'RIGHT', 'positionCoords': [998.4, 335], 'bid': 6.62}]",153907.6000000015,1669840959689,blackbeanswithrice,yogurt no spoon,7.44,6.62,-0.8200000000000003,blackbeanswithrice,619.8999999985099,621,621.2999999970198,True,u,155034.70000000298,1127.1000000014901,1669840960816,1127,HRV,HRV_0289,2022-11-30 20:44:08
