success,trial_type,trial_index,time_elapsed,internal_node_id,Block,TrialNumber,TrialTime,trialTimeDiff,FPS_avg,FPS_med,FPS_mode,TrialDur,winResizeTime,rt,block,button_pressed,MotCoh,MotDir,ColCoh,Color,ChoiceKey,Choice,Accuracy,RT,nFrames,FPS,PPD,missTrial,missTrialMsg,onsetDelay,fullScreenExitTime,canvCenter,TrialType,Score,BlockTrial,stimulus,button_labels,exp,subjectId,date
True,fullscreen,0,2025,0.0-0.0,0.0,1.0,,,,,,,,,,,,,,,,,,,,,,,,,,,,,,,,HRV,HRV_0289,2022-11-30 20:53:36
,wl-check-fps,1,7025,0.0-1.0,0.0,2.0,"[2971.9, 2984, 2997, 3021.7, 3032.1, 3068.8, 3069.9, 3081.2, 3096.7, 3112.1, 3128.3, 3145.5, 3160.8, 3178.9, 3193.7, 3211.1, 3228.7, 3247.1, 3270.9, 3281.5, 3296.3, 3310.2, 3327.6, 3344.3, 3360, 3376.5, 3398.9, 3410.6, 3427.2, 3443.8, 3460.2, 3476.7, 3493.3, 3509.9, 3527.6, 3544.4, 3560.5, 3576.9, 3593.4, 3609.9, 3626.7, 3644.4, 3660.4, 3676.8, 3693.9, 3710.3, 3727.1, 3744.2, 3761.2, 3777.8, 3795.2, 3811.1, 3827.4, 3843.8, 3860.7, 3877.2, 3893.8, 3910.5, 3927.3, 3944, 3960.5, 3976.7, 3993.1, 4009.9, 4026.7, 4043.3, 4059.9, 4076.9, 4094.2, 4109.9, 4126.8, 4144.6, 4160.9, 4176.6, 4193.4, 4210.1, 4226.7, 4244.4, 4260.1, 4276.7, 4293.4, 4310.1, 4326.7, 4343.5, 4360.1, 4376.7, 4393.3, 4410.1, 4426.6, 4443.2, 4460.2, 4476.6, 4493.5, 4510, 4526.8, 4544.2, 4560.1, 4576.6, 4593.5, 4610.1, 4626.9, 4643.3, 4660.1, 4676.8, 4693.3, 4710.5, 4726.8, 4743.9, 4759.8, 4776.5, 4793.3, 4810, 4826.6, 4844.4, 4861, 4876.9, 4893.6, 4910.7, 4926.8, 4944, 4960, 4977, 4993.6, 5010, 5026.8, 5044.2, 5059.9, 5077.8, 5093.5, 5109.8, 5126.5, 5143.8, 5160.1, 5176.8, 5193.5, 5210.2, 5227, 5244.1, 5260.8, 5277.1, 5293.2, 5309.9, 5326.7, 5343.6, 5360, 5376.7, 5393.3, 5411.8, 5427.3, 5443.5, 5460.4, 5477.2, 5493.9, 5510.1, 5527, 5554, 5560.7, 5577.2, 5593.8, 5610.5, 5627.2, 5644.8, 5660.7, 5677.4, 5697.5, 5711.1, 5727, 5743.8, 5760.4, 5776.9, 5794, 5810.2, 5826.8, 5843.6, 5859.9, 5876.8, 5895, 5910.9, 5927.3, 5943.4, 5960.7, 5977.4, 5993.3, 6010.2, 6026.7, 6043.4, 6064.6, 6077.6, 6094.4, 6110.9, 6127.7, 6143.7, 6160.2, 6176.7, 6193.1, 6210, 6226.5, 6243.2, 6259.9, 6276.5, 6293.3, 6309.9, 6326.8, 6343.4, 6359.9, 6376.7, 6393.3, 6410.2, 6426.8, 6443.4, 6459.9, 6476.7, 6493.4, 6510.1, 6526.7, 6543.8, 6560.1, 6576.6, 6593.6, 6609.8, 6626.7, 6644.4, 6660.5, 6683.2, 6694.4, 6711.1, 6727.8, 6744.4, 6761.3, 6777.7, 6794.6, 6810.9, 6828.4, 6844.7, 6861.1, 6877.9, 6893.6, 6910.1, 6926.7, 6943.7, 6960.5, 6978.8, 6993.4, 7010.6, 7026.9, 7044.4, 7061.1, 7078.1, 7095.3, 7111.9, 7129.5, 7145.9, 7161.3, 7177.7, 7194.3, 7211.1, 7228.8, 7249.5, 7261.6, 7280.2, 7294.4, 7310.7, 7327.6, 7344.9, 7360.7, 7377.7, 7394, 7410, 7426.7, 7444.4, 7460, 7476.6, 7493.3, 7510, 7526.9, 7543.3, 7560.5, 7577, 7593.3, 7609.9, 7626.7, 7643.9, 7661, 7676.8, 7693.6, 7710, 7726.9, 7743.8, 7760.5, 7777.8, 7794, 7810.3, 7837.8, 7854.2, 7861.9, 7877.3, 7894, 7911.1, 7930, 7946]","[6.2, 12.1, 13, 24.7, 10.4, 36.7, 1.1, 11.3, 15.5, 15.4, 16.2, 17.2, 15.3, 18.1, 14.8, 17.4, 17.6, 18.4, 23.8, 10.6, 14.8, 13.9, 17.4, 16.7, 15.7, 16.5, 22.4, 11.7, 16.6, 16.6, 16.4, 16.5, 16.6, 16.6, 17.7, 16.8, 16.1, 16.4, 16.5, 16.5, 16.8, 17.7, 16, 16.4, 17.1, 16.4, 16.8, 17.1, 17, 16.6, 17.4, 15.9, 16.3, 16.4, 16.9, 16.5, 16.6, 16.7, 16.8, 16.7, 16.5, 16.2, 16.4, 16.8, 16.8, 16.6, 16.6, 17, 17.3, 15.7, 16.9, 17.8, 16.3, 15.7, 16.8, 16.7, 16.6, 17.7, 15.7, 16.6, 16.7, 16.7, 16.6, 16.8, 16.6, 16.6, 16.6, 16.8, 16.5, 16.6, 17, 16.4, 16.9, 16.5, 16.8, 17.4, 15.9, 16.5, 16.9, 16.6, 16.8, 16.4, 16.8, 16.7, 16.5, 17.2, 16.3, 17.1, 15.9, 16.7, 16.8, 16.7, 16.6, 17.8, 16.6, 15.9, 16.7, 17.1, 16.1, 17.2, 16, 17, 16.6, 16.4, 16.8, 17.4, 15.7, 17.9, 15.7, 16.3, 16.7, 17.3, 16.3, 16.7, 16.7, 16.7, 16.8, 17.1, 16.7, 16.3, 16.1, 16.7, 16.8, 16.9, 16.4, 16.7, 16.6, 18.5, 15.5, 16.2, 16.9, 16.8, 16.7, 16.2, 16.9, 27, 6.7, 16.5, 16.6, 16.7, 16.7, 17.6, 15.9, 16.7, 20.1, 13.6, 15.9, 16.8, 16.6, 16.5, 17.1, 16.2, 16.6, 16.8, 16.3, 16.9, 18.2, 15.9, 16.4, 16.1, 17.3, 16.7, 15.9, 16.9, 16.5, 16.7, 21.2, 13, 16.8, 16.5, 16.8, 16, 16.5, 16.5, 16.4, 16.9, 16.5, 16.7, 16.7, 16.6, 16.8, 16.6, 16.9, 16.6, 16.5, 16.8, 16.6, 16.9, 16.6, 16.6, 16.5, 16.8, 16.7, 16.7, 16.6, 17.1, 16.3, 16.5, 17, 16.2, 16.9, 17.7, 16.1, 22.7, 11.2, 16.7, 16.7, 16.6, 16.9, 16.4, 16.9, 16.3, 17.5, 16.3, 16.4, 16.8, 15.7, 16.5, 16.6, 17, 16.8, 18.3, 14.6, 17.2, 16.3, 17.5, 16.7, 17, 17.2, 16.6, 17.6, 16.4, 15.4, 16.4, 16.6, 16.8, 17.7, 20.7, 12.1, 18.6, 14.2, 16.3, 16.9, 17.3, 15.8, 17, 16.3, 16, 16.7, 17.7, 15.6, 16.6, 16.7, 16.7, 16.9, 16.4, 17.2, 16.5, 16.3, 16.6, 16.8, 17.2, 17.1, 15.8, 16.8, 16.4, 16.9, 16.9, 16.7, 17.3, 16.2, 16.3, 27.5, 16.4, 7.7, 15.4, 16.7, 17.1, 18.9, 16]",60.0,60.0,60.0,4996.3,[],,,,,,,,,,,,,,,,,,,,,,,,,HRV,HRV_0289,2022-11-30 20:53:36
,wl-html-keyboard-response,2,22024,0.0-2.0-0.0,0.0,3.0,,,,,,,,12973.79999999702,0.0,0,,,,,,,,,,,,,,,,,,,,,,HRV,HRV_0289,2022-11-30 20:53:36
,wl-rdm,3,28657,0.0-3.0-0.0,0.0,4.0,,,,,,,[],,,,0.0,0.0,87.9,0.0,u,0.0,True,1006.8999999985099,61.0,60.0,40.0,False,,3000.0,[],"[960, 540]",ColorTask_Demo,,,,,HRV,HRV_0289,2022-11-30 20:53:36
,wl-rdm,4,33539,0.0-3.0-1.0,0.0,5.0,,,,,,,[],,,,0.0,0.0,87.9,1.0,i,1.0,True,802.8000000044703,49.0,60.0,40.0,False,,2000.0,[],"[960, 540]",ColorTask_Demo,,,,,HRV,HRV_0289,2022-11-30 20:53:36
,wl-html-keyboard-response,5,41008,0.0-3.0-2.0,0.0,6.0,,,,,,,,5463.19999999553,0.0,1,,,,,,,,,,,,,,,,,,,,,,HRV,HRV_0289,2022-11-30 20:53:36
,wl-html-keyboard-response,6,48592,0.0-4.0-0.0,0.0,7.0,,,,,,,,5576.20000000298,0.0,0,,,,,,,,,,,,,,,,,,,,,,HRV,HRV_0289,2022-11-30 20:53:36
,wl-html-keyboard-response,7,59496,0.0-5.0-0.0,0.0,8.0,,,,,,,,8897.70000000298,0.0,0,,,,,,,,,,,,,,,,,,,,,,HRV,HRV_0289,2022-11-30 20:53:36
,wl-rdm,8,62139,0.0-6.0-0.0,0.0,9.0,,,,,,,[],,,,,,56.4,1.0,u,0.0,False,1288.0,78.0,60.0,40.0,False,,279.383605732944,[],"[960, 540]",ColorTask,-1.0,1.0,,,HRV,HRV_0289,2022-11-30 20:53:36
,wl-rdm,9,64507,0.0-6.1-0.1,0.0,10.0,,,,,,,[],,,,,,50.0,1.0,u,0.0,False,1021.0,62.0,60.0,40.0,False,,249.6099232252523,[],"[960, 540]",ColorTask,-2.0,2.0,,,HRV,HRV_0289,2022-11-30 20:53:36
,wl-rdm,10,66907,0.0-6.2-0.2,0.0,11.0,,,,,,,[],,,,,,73.6,0.0,u,0.0,True,1108.5,67.0,60.0,40.0,False,,215.9263199787107,[],"[960, 540]",ColorTask,-1.0,3.0,,,HRV,HRV_0289,2022-11-30 20:53:36
,wl-rdm,11,69256,0.0-6.3-0.3,0.0,12.0,,,,,,,[],,,,,,53.2,0.0,i,1.0,False,1024.0,62.0,60.0,40.0,False,,252.35470664312606,[],"[960, 540]",ColorTask,-2.0,4.0,,,HRV,HRV_0289,2022-11-30 20:53:36
,wl-rdm,12,71289,0.0-6.4-0.4,0.0,13.0,,,,,,,[],,,,,,50.0,1.0,i,1.0,True,726.4000000059605,44.0,60.0,40.0,False,,231.58582630643102,[],"[960, 540]",ColorTask,-1.0,5.0,,,HRV,HRV_0289,2022-11-30 20:53:36
,wl-rdm,13,73407,0.0-6.5-0.5,0.0,14.0,,,,,,,[],,,,,,73.6,1.0,i,1.0,True,803.8999999985099,49.0,60.0,40.0,False,,217.31150993437356,[],"[960, 540]",ColorTask,0.0,6.0,,,HRV,HRV_0289,2022-11-30 20:53:36
,wl-rdm,14,75774,0.0-6.6-0.6,0.0,15.0,,,,,,,[],,,,,,73.6,0.0,u,0.0,True,955.0000000074506,58.0,60.0,40.0,False,,315.6021608766438,[],"[960, 540]",ColorTask,1.0,7.0,,,HRV,HRV_0289,2022-11-30 20:53:36
,wl-rdm,15,78089,0.0-6.7-0.7,0.0,16.0,,,,,,,[],,,,,,87.9,1.0,i,1.0,True,902.8999999985099,55.0,60.0,40.0,False,,319.7546293285201,[],"[960, 540]",ColorTask,2.0,8.0,,,HRV,HRV_0289,2022-11-30 20:53:36
,wl-rdm,16,80540,0.0-6.8-0.8,0.0,17.0,,,,,,,[],,,,,,62.5,1.0,i,1.0,True,1146.3999999985099,69.0,60.0,40.0,False,,240.84882312673213,[],"[960, 540]",ColorTask,3.0,9.0,,,HRV,HRV_0289,2022-11-30 20:53:36
,wl-rdm,17,82623,0.0-6.9-0.9,0.0,18.0,,,,,,,[],,,,,,73.6,1.0,i,1.0,True,728.2000000029802,44.0,60.0,40.0,False,,268.81086186352155,[],"[960, 540]",ColorTask,4.0,10.0,,,HRV,HRV_0289,2022-11-30 20:53:36
,wl-rdm,18,84973,0.0-6.10-0.10,0.0,19.0,,,,,,,[],,,,,,56.4,1.0,i,1.0,True,936.3000000044703,57.0,60.0,40.0,False,,331.41945333881256,[],"[960, 540]",ColorTask,5.0,11.0,,,HRV,HRV_0289,2022-11-30 20:53:36
,wl-rdm,19,87039,0.0-6.11-0.11,0.0,20.0,,,,,,,[],,,,,,62.5,0.0,i,1.0,False,757.1999999955297,46.0,60.0,40.0,False,,242.6267495529073,[],"[960, 540]",ColorTask,4.0,12.0,,,HRV,HRV_0289,2022-11-30 20:53:36
,wl-rdm,20,89174,0.0-6.12-0.12,0.0,21.0,,,,,,,[],,,,,,50.0,0.0,i,1.0,False,690.3000000044703,42.0,60.0,40.0,False,,369.43339469022465,[],"[960, 540]",ColorTask,3.0,13.0,,,HRV,HRV_0289,2022-11-30 20:53:36
,wl-rdm,21,91557,0.0-6.13-0.13,0.0,22.0,,,,,,,[],,,,,,53.2,0.0,i,1.0,False,960.9999999925494,58.0,60.0,40.0,False,,336.45957309842845,[],"[960, 540]",ColorTask,2.0,14.0,,,HRV,HRV_0289,2022-11-30 20:53:36
,wl-rdm,22,93539,0.0-6.14-0.14,0.0,23.0,,,,,,,[],,,,,,87.9,0.0,u,0.0,True,699.5,43.0,60.0,40.0,False,,218.13683775987553,[],"[960, 540]",ColorTask,3.0,15.0,,,HRV,HRV_0289,2022-11-30 20:53:36
,wl-rdm,23,95690,0.0-6.15-0.15,0.0,24.0,,,,,,,[],,,,,,53.2,1.0,i,1.0,True,753.6000000014901,45.0,60.0,40.0,False,,313.04784487820933,[],"[960, 540]",ColorTask,4.0,16.0,,,HRV,HRV_0289,2022-11-30 20:53:36
,wl-rdm,24,97822,0.0-6.16-0.16,0.0,25.0,,,,,,,[],,,,,,56.4,0.0,u,0.0,True,859.1000000014901,52.0,60.0,40.0,False,,215.06059539672708,[],"[960, 540]",ColorTask,5.0,17.0,,,HRV,HRV_0289,2022-11-30 20:53:36
,wl-rdm,25,100055,0.0-6.17-0.17,0.0,26.0,,,,,,,[],,,,,,56.4,0.0,u,0.0,True,952.1000000014901,58.0,60.0,40.0,False,,213.59555624495988,[],"[960, 540]",ColorTask,6.0,18.0,,,HRV,HRV_0289,2022-11-30 20:53:36
,wl-rdm,26,102339,0.0-6.18-0.18,0.0,27.0,,,,,,,[],,,,,,50.0,0.0,i,1.0,False,997.6999999955297,60.0,60.0,40.0,False,,221.5243500227407,[],"[960, 540]",ColorTask,5.0,19.0,,,HRV,HRV_0289,2022-11-30 20:53:36
,wl-rdm,27,104706,0.0-6.19-0.19,0.0,28.0,,,,,,,[],,,,,,53.2,1.0,u,0.0,False,970.2000000029802,59.0,60.0,40.0,False,,303.25361479373805,[],"[960, 540]",ColorTask,4.0,20.0,,,HRV,HRV_0289,2022-11-30 20:53:36
,wl-rdm,28,106806,0.0-6.20-0.20,0.0,29.0,,,,,,,[],,,,,,87.9,0.0,u,0.0,True,681.5999999940395,41.0,60.0,40.0,False,,340.80089965770475,[],"[960, 540]",ColorTask,5.0,21.0,,,HRV,HRV_0289,2022-11-30 20:53:36
,wl-rdm,29,108939,0.0-6.21-0.21,0.0,30.0,,,,,,,[],,,,,,73.6,1.0,i,1.0,True,702.6000000014901,43.0,60.0,40.0,False,,350.7259883550405,[],"[960, 540]",ColorTask,6.0,22.0,,,HRV,HRV_0289,2022-11-30 20:53:36
,wl-rdm,30,111106,0.0-6.22-0.22,0.0,31.0,,,,,,,[],,,,,,87.9,0.0,u,0.0,True,813.2999999970198,49.0,60.0,40.0,False,,286.09812438417816,[],"[960, 540]",ColorTask,7.0,23.0,,,HRV,HRV_0289,2022-11-30 20:53:36
,wl-rdm,31,113289,0.0-6.23-0.23,0.0,32.0,,,,,,,[],,,,,,87.9,0.0,u,0.0,True,705.6000000014901,43.0,60.0,40.0,False,,386.1149856471216,[],"[960, 540]",ColorTask,8.0,24.0,,,HRV,HRV_0289,2022-11-30 20:53:36
,wl-rdm,32,115673,0.0-6.24-0.24,0.0,33.0,,,,,,,[],,,,,,62.5,1.0,i,1.0,True,1041.7000000029802,63.0,60.0,40.0,False,,262.2005209997234,[],"[960, 540]",ColorTask,9.0,25.0,,,HRV,HRV_0289,2022-11-30 20:53:36
,wl-rdm,33,117922,0.0-6.25-0.25,0.0,34.0,,,,,,,[],,,,,,53.2,1.0,i,1.0,True,880.6000000014901,53.0,60.0,40.0,False,,315.86326759156447,[],"[960, 540]",ColorTask,10.0,26.0,,,HRV,HRV_0289,2022-11-30 20:53:36
,wl-rdm,34,120089,0.0-6.26-0.26,0.0,35.0,,,,,,,[],,,,,,87.9,1.0,i,1.0,True,704.3999999985099,43.0,60.0,40.0,False,,384.26462593776466,[],"[960, 540]",ColorTask,11.0,27.0,,,HRV,HRV_0289,2022-11-30 20:53:36
,wl-rdm,35,122189,0.0-6.27-0.27,0.0,36.0,,,,,,,[],,,,,,87.9,0.0,u,0.0,True,774.0000000074506,47.0,60.0,40.0,False,,238.6040320369964,[],"[960, 540]",ColorTask,12.0,28.0,,,HRV,HRV_0289,2022-11-30 20:53:36
,wl-rdm,36,124189,0.0-6.28-0.28,0.0,37.0,,,,,,,[],,,,,,87.9,0.0,u,0.0,True,598.1999999955297,37.0,60.0,40.0,False,,315.2951047112436,[],"[960, 540]",ColorTask,13.0,29.0,,,HRV,HRV_0289,2022-11-30 20:53:36
,wl-rdm,37,126373,0.0-6.29-0.29,0.0,38.0,,,,,,,[],,,,,,73.6,1.0,i,1.0,True,757.5,46.0,60.0,40.0,False,,358.3562182989445,[],"[960, 540]",ColorTask,14.0,30.0,,,HRV,HRV_0289,2022-11-30 20:53:36
,wl-rdm,38,128406,0.0-6.30-0.30,0.0,39.0,,,,,,,[],,,,,,73.6,1.0,i,1.0,True,646.3000000044703,39.0,60.0,40.0,False,,302.8519941606771,[],"[960, 540]",ColorTask,15.0,31.0,,,HRV,HRV_0289,2022-11-30 20:53:36
,wl-rdm,39,130639,0.0-6.31-0.31,0.0,40.0,,,,,,,[],,,,,,53.2,0.0,i,1.0,False,902.9000000059605,55.0,60.0,40.0,False,,237.0341510577882,[],"[960, 540]",ColorTask,14.0,32.0,,,HRV,HRV_0289,2022-11-30 20:53:36
,wl-rdm,40,132740,0.0-6.32-0.32,0.0,41.0,,,,,,,[],,,,,,73.6,0.0,i,1.0,False,784.6000000014901,47.0,60.0,40.0,False,,236.14796244292256,[],"[960, 540]",ColorTask,13.0,33.0,,,HRV,HRV_0289,2022-11-30 20:53:36
,wl-rdm,41,135089,0.0-6.33-0.33,0.0,42.0,,,,,,,[],,,,,,53.2,0.0,u,0.0,True,944.3999999985099,57.0,60.0,40.0,False,,345.7733232857963,[],"[960, 540]",ColorTask,14.0,34.0,,,HRV,HRV_0289,2022-11-30 20:53:36
,wl-rdm,42,137406,0.0-6.34-0.34,0.0,43.0,,,,,,,[],,,,,,56.4,0.0,i,1.0,False,941.1000000014901,57.0,60.0,40.0,False,,298.9950908058018,[],"[960, 540]",ColorTask,13.0,35.0,,,HRV,HRV_0289,2022-11-30 20:53:36
,wl-rdm,43,139890,0.0-6.35-0.35,0.0,44.0,,,,,,,[],,,,,,56.4,1.0,i,1.0,True,1158.0000000074506,70.0,60.0,40.0,False,,249.73485996868604,[],"[960, 540]",ColorTask,14.0,36.0,,,HRV,HRV_0289,2022-11-30 20:53:36
,wl-rdm,44,142190,0.0-6.36-0.36,0.0,45.0,,,,,,,[],,,,,,50.0,0.0,i,1.0,False,867.6000000014901,53.0,60.0,40.0,False,,345.39888233136753,[],"[960, 540]",ColorTask,13.0,37.0,,,HRV,HRV_0289,2022-11-30 20:53:36
,wl-rdm,45,144156,0.0-6.37-0.37,0.0,46.0,,,,,,,[],,,,,,87.9,0.0,u,0.0,True,635.2000000029802,39.0,60.0,40.0,False,,239.12653850132185,[],"[960, 540]",ColorTask,14.0,38.0,,,HRV,HRV_0289,2022-11-30 20:53:36
,wl-rdm,46,146222,0.0-6.38-0.38,0.0,47.0,,,,,,,[],,,,,,62.5,1.0,i,1.0,True,759.7000000029802,46.0,60.0,40.0,False,,242.29397337924354,[],"[960, 540]",ColorTask,15.0,39.0,,,HRV,HRV_0289,2022-11-30 20:53:36
,wl-rdm,47,148239,0.0-6.39-0.39,0.0,48.0,,,,,,,[],,,,,,73.6,1.0,i,1.0,True,745.5000000074506,45.0,60.0,40.0,False,,203.00964835471535,[],"[960, 540]",ColorTask,16.0,40.0,,,HRV,HRV_0289,2022-11-30 20:53:36
,wl-rdm,48,150622,0.0-6.40-0.40,0.0,49.0,,,,,,,[],,,,,,53.2,1.0,i,1.0,True,1010.1999999955297,61.0,60.0,40.0,False,,288.85019496979714,[],"[960, 540]",ColorTask,17.0,41.0,,,HRV,HRV_0289,2022-11-30 20:53:36
,wl-rdm,49,152790,0.0-6.41-0.41,0.0,50.0,,,,,,,[],,,,,,62.5,1.0,i,1.0,True,789.2999999895692,48.0,60.0,40.0,False,,313.54343717605906,[],"[960, 540]",ColorTask,18.0,42.0,,,HRV,HRV_0289,2022-11-30 20:53:36
,wl-rdm,50,154956,0.0-6.42-0.42,0.0,51.0,,,,,,,[],,,,,,53.2,1.0,i,1.0,True,863.5,52.0,60.0,40.0,False,,222.07869519591122,[],"[960, 540]",ColorTask,19.0,43.0,,,HRV,HRV_0289,2022-11-30 20:53:36
,wl-rdm,51,157008,0.0-6.43-0.43,0.0,52.0,,,,,,,[],,,,,,62.5,0.0,u,0.0,True,629.5,38.0,60.0,40.0,False,,365.61999489163816,[],"[960, 540]",ColorTask,20.0,44.0,,,HRV,HRV_0289,2022-11-30 20:53:36
,wl-rdm,52,159189,0.0-6.44-0.44,0.0,53.0,,,,,,,[],,,,,,62.5,1.0,i,1.0,True,868.6999999955297,53.0,60.0,40.0,False,,228.61672020274852,[],"[960, 540]",ColorTask,21.0,45.0,,,HRV,HRV_0289,2022-11-30 20:53:36
,wl-rdm,53,161406,0.0-6.45-0.45,0.0,54.0,,,,,,,[],,,,,,56.4,1.0,i,1.0,True,778.8999999985099,47.0,60.0,40.0,False,,345.5241536879455,[],"[960, 540]",ColorTask,22.0,46.0,,,HRV,HRV_0289,2022-11-30 20:53:36
,wl-rdm,54,163939,0.0-6.46-0.46,0.0,55.0,,,,,,,[],,,,,,50.0,0.0,u,0.0,True,1105.6999999955297,67.0,60.0,40.0,False,,362.5134432577547,[],"[960, 540]",ColorTask,23.0,47.0,,,HRV,HRV_0289,2022-11-30 20:53:36
,wl-rdm,55,166456,0.0-6.47-0.47,0.0,56.0,,,,,,,[],,,,,,73.6,0.0,u,0.0,True,1040.2000000029802,63.0,60.0,40.0,False,,399.6705488392066,[],"[960, 540]",ColorTask,24.0,48.0,,,HRV,HRV_0289,2022-11-30 20:53:36
,wl-rdm,56,168506,0.0-6.48-0.48,0.0,57.0,,,,,,,[],,,,,,50.0,0.0,i,1.0,False,741.0,45.0,60.0,40.0,False,,263.05777873671923,[],"[960, 540]",ColorTask,23.0,49.0,,,HRV,HRV_0289,2022-11-30 20:53:36
,wl-rdm,57,170656,0.0-6.49-0.49,0.0,58.0,,,,,,,[],,,,,,56.4,0.0,u,0.0,True,849.3000000044703,51.0,60.0,40.0,False,,246.31355921026935,[],"[960, 540]",ColorTask,24.0,50.0,,,HRV,HRV_0289,2022-11-30 20:53:36
,wl-rdm,58,172823,0.0-6.50-0.50,0.0,59.0,,,,,,,[],,,,,,62.5,0.0,u,0.0,True,771.3999999910593,47.0,60.0,40.0,False,,327.986893307669,[],"[960, 540]",ColorTask,25.0,51.0,,,HRV,HRV_0289,2022-11-30 20:53:36
,wl-rdm,59,175056,0.0-6.51-0.51,0.0,60.0,,,,,,,[],,,,,,62.5,0.0,u,0.0,True,950.6000000014901,57.0,60.0,40.0,False,,212.6480960496474,[],"[960, 540]",ColorTask,26.0,52.0,,,HRV,HRV_0289,2022-11-30 20:53:36
,wl-rdm,60,177339,0.0-6.52-0.52,0.0,61.0,,,,,,,[],,,,,,50.0,1.0,u,0.0,False,985.3000000044703,60.0,60.0,40.0,False,,211.99051378127135,[],"[960, 540]",ColorTask,25.0,53.0,,,HRV,HRV_0289,2022-11-30 20:53:36
,wl-rdm,61,179622,0.0-6.53-0.53,0.0,62.0,,,,,,,[],,,,,,73.6,0.0,u,0.0,True,913.7999999970198,55.0,60.0,40.0,False,,294.2767508690013,[],"[960, 540]",ColorTask,26.0,54.0,,,HRV,HRV_0289,2022-11-30 20:53:36
,wl-rdm,62,181856,0.0-6.54-0.54,0.0,63.0,,,,,,,[],,,,,,62.5,0.0,u,0.0,True,896.1000000014901,54.0,60.0,40.0,False,,277.1203630540276,[],"[960, 540]",ColorTask,27.0,55.0,,,HRV,HRV_0289,2022-11-30 20:53:36
,wl-rdm,63,184256,0.0-6.55-0.55,0.0,64.0,,,,,,,[],,,,,,53.2,0.0,i,1.0,False,1050.0999999940395,64.0,60.0,40.0,False,,280.72009628471505,[],"[960, 540]",ColorTask,26.0,56.0,,,HRV,HRV_0289,2022-11-30 20:53:36
,wl-rdm,64,186189,0.0-6.56-0.56,0.0,65.0,,,,,,,[],,,,,,73.6,1.0,i,1.0,True,646.4000000059605,39.0,60.0,40.0,False,,214.75163113451543,[],"[960, 540]",ColorTask,27.0,57.0,,,HRV,HRV_0289,2022-11-30 20:53:36
,wl-rdm,65,188423,0.0-6.57-0.57,0.0,66.0,,,,,,,[],,,,,,56.4,0.0,i,1.0,False,904.5999999940395,55.0,60.0,40.0,False,,242.45611692817525,[],"[960, 540]",ColorTask,26.0,58.0,,,HRV,HRV_0289,2022-11-30 20:53:36
,wl-rdm,66,190422,0.0-6.58-0.58,0.0,67.0,,,,,,,[],,,,,,62.5,0.0,u,0.0,True,692.2999999895692,42.0,60.0,40.0,False,,249.9323283535333,[],"[960, 540]",ColorTask,27.0,59.0,,,HRV,HRV_0289,2022-11-30 20:53:36
,wl-rdm,67,192689,0.0-6.59-0.59,0.0,68.0,,,,,,,[],,,,,,62.5,1.0,i,1.0,True,859.2999999970198,52.0,60.0,40.0,False,,344.44355463078693,[],"[960, 540]",ColorTask,28.0,60.0,,,HRV,HRV_0289,2022-11-30 20:53:36
,wl-rdm,68,194705,0.0-6.60-0.60,0.0,69.0,,,,,,,[],,,,,,87.9,1.0,i,1.0,True,629.1000000014901,38.0,60.0,40.0,False,,313.8707557724639,[],"[960, 540]",ColorTask,29.0,61.0,,,HRV,HRV_0289,2022-11-30 20:53:36
,wl-rdm,69,196673,0.0-6.61-0.61,0.0,70.0,,,,,,,[],,,,,,53.2,1.0,i,1.0,True,671.2000000029802,41.0,60.0,40.0,False,,226.52499491308222,[],"[960, 540]",ColorTask,30.0,62.0,,,HRV,HRV_0289,2022-11-30 20:53:36
,wl-rdm,70,198689,0.0-6.62-0.62,0.0,71.0,,,,,,,[],,,,,,73.6,0.0,u,0.0,True,739.3999999985099,45.0,60.0,40.0,False,,205.85051890814393,[],"[960, 540]",ColorTask,31.0,63.0,,,HRV,HRV_0289,2022-11-30 20:53:36
,wl-rdm,71,201007,0.0-6.63-0.63,0.0,72.0,,,,,,,[],,,,,,62.5,0.0,i,1.0,False,909.7000000029802,55.0,60.0,40.0,False,,325.24592892806334,[],"[960, 540]",ColorTask,30.0,64.0,,,HRV,HRV_0289,2022-11-30 20:53:36
,wl-rdm,72,203089,0.0-6.64-0.64,0.0,73.0,,,,,,,[],,,,,,56.4,0.0,i,1.0,False,796.8000000044703,48.0,60.0,40.0,False,,221.07081462571722,[],"[960, 540]",ColorTask,29.0,65.0,,,HRV,HRV_0289,2022-11-30 20:53:36
,wl-rdm,73,205356,0.0-6.65-0.65,0.0,74.0,,,,,,,[],,,,,,50.0,1.0,u,0.0,False,893.1000000014901,54.0,60.0,40.0,False,,285.4666850923178,[],"[960, 540]",ColorTask,28.0,66.0,,,HRV,HRV_0289,2022-11-30 20:53:36
,wl-rdm,74,207406,0.0-6.66-0.66,0.0,75.0,,,,,,,[],,,,,,87.9,1.0,i,1.0,True,753.7999999970198,46.0,60.0,40.0,False,,204.0702370884258,[],"[960, 540]",ColorTask,29.0,67.0,,,HRV,HRV_0289,2022-11-30 20:53:36
,wl-rdm,75,209523,0.0-6.67-0.67,0.0,76.0,,,,,,,[],,,,,,50.0,1.0,i,1.0,True,699.6999999955297,43.0,60.0,40.0,False,,342.0918560040426,[],"[960, 540]",ColorTask,30.0,68.0,,,HRV,HRV_0289,2022-11-30 20:53:36
,wl-rdm,76,211506,0.0-6.68-0.68,0.0,77.0,,,,,,,[],,,,,,62.5,1.0,i,1.0,True,660.8000000044703,40.0,60.0,40.0,False,,241.05403847127428,[],"[960, 540]",ColorTask,31.0,69.0,,,HRV,HRV_0289,2022-11-30 20:53:36
,wl-rdm,77,213640,0.0-6.69-0.69,0.0,78.0,,,,,,,[],,,,,,53.2,1.0,i,1.0,True,728.5,44.0,60.0,40.0,False,,326.4994986362202,[],"[960, 540]",ColorTask,32.0,70.0,,,HRV,HRV_0289,2022-11-30 20:53:36
,wl-rdm,78,215756,0.0-6.70-0.70,0.0,79.0,,,,,,,[],,,,,,56.4,1.0,i,1.0,True,697.7000000029802,42.0,60.0,40.0,False,,357.85036822688687,[],"[960, 540]",ColorTask,33.0,71.0,,,HRV,HRV_0289,2022-11-30 20:53:36
,wl-rdm,79,217656,0.0-6.71-0.71,0.0,80.0,,,,,,,[],,,,,,87.9,1.0,i,1.0,True,563.1999999955297,34.0,60.0,40.0,False,,275.36324870284017,[],"[960, 540]",ColorTask,34.0,72.0,,,HRV,HRV_0289,2022-11-30 20:53:36
,wl-rdm,80,219856,0.0-6.72-0.72,0.0,81.0,,,,,,,[],,,,,,56.4,1.0,i,1.0,True,748.4000000059605,45.0,60.0,40.0,False,,381.95094803818324,[],"[960, 540]",ColorTask,35.0,73.0,,,HRV,HRV_0289,2022-11-30 20:53:36
,wl-rdm,81,222256,0.0-6.73-0.73,0.0,82.0,,,,,,,[],,,,,,50.0,1.0,i,1.0,True,1035.3999999985099,63.0,60.0,40.0,False,,268.1545108508956,[],"[960, 540]",ColorTask,36.0,74.0,,,HRV,HRV_0289,2022-11-30 20:53:36
,wl-rdm,82,224290,0.0-6.74-0.74,0.0,83.0,,,,,,,[],,,,,,87.9,0.0,u,0.0,True,716.1999999955297,43.0,60.0,40.0,False,,264.0558893959867,[],"[960, 540]",ColorTask,37.0,75.0,,,HRV,HRV_0289,2022-11-30 20:53:36
,wl-rdm,83,226539,0.0-6.75-0.75,0.0,84.0,,,,,,,[],,,,,,62.5,1.0,i,1.0,True,776.5,47.0,60.0,40.0,False,,390.6502151667688,[],"[960, 540]",ColorTask,38.0,76.0,,,HRV,HRV_0289,2022-11-30 20:53:36
,wl-rdm,84,228789,0.0-6.76-0.76,0.0,85.0,,,,,,,[],,,,,,50.0,1.0,i,1.0,True,792.9000000059605,48.0,60.0,40.0,False,,371.8331875418518,[],"[960, 540]",ColorTask,39.0,77.0,,,HRV,HRV_0289,2022-11-30 20:53:36
,wl-rdm,85,230828,0.0-6.77-0.77,0.0,86.0,,,,,,,[],,,,,,62.5,1.0,i,1.0,True,652.1999999955297,40.0,60.0,40.0,False,,296.62612385334586,[],"[960, 540]",ColorTask,40.0,78.0,,,HRV,HRV_0289,2022-11-30 20:53:36
,wl-rdm,86,232923,0.0-6.78-0.78,0.0,87.0,,,,,,,[],,,,,,50.0,0.0,i,1.0,False,794.3999999985099,48.0,60.0,40.0,False,,211.05532585908136,[],"[960, 540]",ColorTask,39.0,79.0,,,HRV,HRV_0289,2022-11-30 20:53:36
,wl-rdm,87,234922,0.0-6.79-0.79,0.0,88.0,,,,,,,[],,,,,,87.9,1.0,i,1.0,True,604.5,37.0,60.0,40.0,False,,308.5956092628893,[],"[960, 540]",ColorTask,40.0,80.0,,,HRV,HRV_0289,2022-11-30 20:53:36
,wl-rdm,88,236790,0.0-6.80-0.80,0.0,89.0,,,,,,,[],,,,,,56.4,1.0,i,1.0,True,552.3000000044703,32.0,60.0,40.0,False,,248.6565055809318,[],"[960, 540]",ColorTask,41.0,81.0,,,HRV,HRV_0289,2022-11-30 20:53:36
,wl-rdm,89,238922,0.0-6.81-0.81,0.0,90.0,,,,,,,[],,,,,,62.5,0.0,i,1.0,False,706.9000000059605,41.0,60.0,40.0,False,,357.2984824264429,[],"[960, 540]",ColorTask,40.0,82.0,,,HRV,HRV_0289,2022-11-30 20:53:36
,wl-rdm,90,241006,0.0-6.82-0.82,0.0,91.0,,,,,,,[],,,,,,87.9,0.0,u,0.0,True,758.9999999925494,46.0,60.0,40.0,False,,249.19001245802508,[],"[960, 540]",ColorTask,41.0,83.0,,,HRV,HRV_0289,2022-11-30 20:53:36
,wl-rdm,91,242856,0.0-6.83-0.83,0.0,92.0,,,,,,,[],,,,,,87.9,1.0,i,1.0,True,564.5,34.0,60.0,40.0,False,,202.55819880449292,[],"[960, 540]",ColorTask,42.0,84.0,,,HRV,HRV_0289,2022-11-30 20:53:36
,wl-rdm,92,245056,0.0-6.84-0.84,0.0,93.0,,,,,,,[],,,,,,73.6,0.0,u,0.0,True,830.3999999910593,50.0,60.0,40.0,False,,292.78054492913947,[],"[960, 540]",ColorTask,43.0,85.0,,,HRV,HRV_0289,2022-11-30 20:53:36
,wl-rdm,93,247422,0.0-6.85-0.85,0.0,94.0,,,,,,,[],,,,,,62.5,0.0,u,0.0,True,1060.3999999985099,62.0,60.0,40.0,False,,227.09326832774929,[],"[960, 540]",ColorTask,44.0,86.0,,,HRV,HRV_0289,2022-11-30 20:53:36
,wl-rdm,94,249722,0.0-6.86-0.86,0.0,95.0,,,,,,,[],,,,,,56.4,0.0,u,0.0,True,975.9999999925494,59.0,60.0,40.0,False,,259.4722110285142,[],"[960, 540]",ColorTask,45.0,87.0,,,HRV,HRV_0289,2022-11-30 20:53:36
,wl-rdm,95,252207,0.0-6.87-0.87,0.0,96.0,,,,,,,[],,,,,,73.6,0.0,u,0.0,True,1051.7999999970198,64.0,60.0,40.0,False,,341.2938139936308,[],"[960, 540]",ColorTask,46.0,88.0,,,HRV,HRV_0289,2022-11-30 20:53:36
,wl-rdm,96,254506,0.0-6.88-0.88,0.0,97.0,,,,,,,[],,,,,,50.0,1.0,i,1.0,True,1002.8999999985099,61.0,60.0,40.0,False,,230.3446029829199,[],"[960, 540]",ColorTask,47.0,89.0,,,HRV,HRV_0289,2022-11-30 20:53:36
,wl-rdm,97,256639,0.0-6.89-0.89,0.0,98.0,,,,,,,[],,,,,,73.6,1.0,i,1.0,True,855.2999999895692,52.0,60.0,40.0,False,,208.9767733189189,[],"[960, 540]",ColorTask,48.0,90.0,,,HRV,HRV_0289,2022-11-30 20:53:36
,wl-rdm,98,258756,0.0-6.90-0.90,0.0,99.0,,,,,,,[],,,,,,56.4,1.0,i,1.0,True,815.6000000014901,49.0,60.0,40.0,False,,217.50121775064403,[],"[960, 540]",ColorTask,49.0,91.0,,,HRV,HRV_0289,2022-11-30 20:53:36
,wl-rdm,99,261039,0.0-6.91-0.91,0.0,100.0,,,,,,,[],,,,,,50.0,0.0,u,0.0,True,952.8999999985099,58.0,60.0,40.0,False,,238.89980178383763,[],"[960, 540]",ColorTask,50.0,92.0,,,HRV,HRV_0289,2022-11-30 20:53:36
,wl-rdm,100,263490,0.0-6.92-0.92,0.0,101.0,,,,,,,[],,,,,,53.2,0.0,i,1.0,False,1041.8999999985099,63.0,60.0,40.0,False,,318.79503001465685,[],"[960, 540]",ColorTask,49.0,93.0,,,HRV,HRV_0289,2022-11-30 20:53:36
,wl-rdm,101,265973,0.0-6.93-0.93,0.0,102.0,,,,,,,[],,,,,,56.4,0.0,i,1.0,False,1053.1000000014901,64.0,60.0,40.0,False,,349.9422724699647,[],"[960, 540]",ColorTask,48.0,94.0,,,HRV,HRV_0289,2022-11-30 20:53:36
,wl-rdm,102,268139,0.0-6.94-0.94,0.0,103.0,,,,,,,[],,,,,,87.9,1.0,i,1.0,True,733.5999999940395,44.0,60.0,40.0,False,,363.973471682359,[],"[960, 540]",ColorTask,49.0,95.0,,,HRV,HRV_0289,2022-11-30 20:53:36
,wl-rdm,103,270306,0.0-6.95-0.95,0.0,104.0,,,,,,,[],,,,,,50.0,0.0,i,1.0,False,856.2000000029802,52.0,60.0,40.0,False,,230.70443789056975,[],"[960, 540]",ColorTask,48.0,96.0,,,HRV,HRV_0289,2022-11-30 20:53:36
,wl-rdm,104,272410,0.0-6.96-0.96,0.0,105.0,,,,,,,[],,,,,,73.6,0.0,u,0.0,True,751.0,45.0,60.0,40.0,False,,238.46685993405717,[],"[960, 540]",ColorTask,49.0,97.0,,,HRV,HRV_0289,2022-11-30 20:53:36
,wl-rdm,105,274706,0.0-6.97-0.97,0.0,106.0,,,,,,,[],,,,,,56.4,0.0,i,1.0,False,846.2000000029802,51.0,60.0,40.0,False,,369.54714297418434,[],"[960, 540]",ColorTask,48.0,98.0,,,HRV,HRV_0289,2022-11-30 20:53:36
,wl-rdm,106,277206,0.0-6.98-0.98,0.0,107.0,,,,,,,[],,,,,,73.6,1.0,i,1.0,True,1116.5,67.0,60.0,40.0,False,,326.53773113252777,[],"[960, 540]",ColorTask,49.0,99.0,,,HRV,HRV_0289,2022-11-30 20:53:36
,wl-rdm,107,280156,0.0-6.99-0.99,0.0,108.0,,,,,,,[],,,,,,50.0,0.0,i,1.0,False,1499.0,90.0,60.0,40.0,False,,370.6434334476778,[],"[960, 540]",ColorTask,48.0,100.0,,,HRV,HRV_0289,2022-11-30 20:53:36
,wl-rdm,108,282757,0.0-6.100-0.100,0.0,109.0,,,,,,,[],,,,,,56.4,1.0,i,1.0,True,1153.7999999970198,70.0,60.0,40.0,False,,362.68158511174795,[],"[960, 540]",ColorTask,49.0,101.0,,,HRV,HRV_0289,2022-11-30 20:53:36
,wl-rdm,109,285040,0.0-6.101-0.101,0.0,110.0,,,,,,,[],,,,,,53.2,1.0,i,1.0,True,917.3999999985099,55.0,60.0,40.0,False,,296.3178146451316,[],"[960, 540]",ColorTask,50.0,102.0,,,HRV,HRV_0289,2022-11-30 20:53:36
,wl-rdm,110,288506,0.0-6.102-0.102,0.0,111.0,,,,,,,[],,,,,,53.2,0.0,u,0.0,True,2091.60000000149,126.0,60.0,40.0,False,,294.1158047260549,[],"[960, 540]",ColorTask,51.0,103.0,,,HRV,HRV_0289,2022-11-30 20:53:36
,wl-rdm,111,291724,0.0-6.103-0.103,0.0,112.0,,,,,,,[],,,,,,53.2,1.0,i,1.0,True,1772.5,106.0,60.0,40.0,False,,354.17895912174595,[],"[960, 540]",ColorTask,52.0,104.0,,,HRV,HRV_0289,2022-11-30 20:53:36
,wl-rdm,112,294073,0.0-6.104-0.104,0.0,113.0,,,,,,,[],,,,,,53.2,0.0,u,0.0,True,1072.5999999940395,64.0,60.0,40.0,False,,211.47910409751825,[],"[960, 540]",ColorTask,53.0,105.0,,,HRV,HRV_0289,2022-11-30 20:53:36
,wl-rdm,113,297589,0.0-6.105-0.105,0.0,114.0,,,,,,,[],,,,,,53.2,0.0,i,1.0,False,2059.60000000149,124.0,60.0,40.0,False,,371.23730234093773,[],"[960, 540]",ColorTask,52.0,106.0,,,HRV,HRV_0289,2022-11-30 20:53:36
,wl-rdm,114,300723,0.0-6.106-0.106,0.0,115.0,,,,,,,[],,,,,,50.0,1.0,i,1.0,True,1809.6999999955297,108.0,60.0,40.0,False,,250.43822285272654,[],"[960, 540]",ColorTask,53.0,107.0,,,HRV,HRV_0289,2022-11-30 20:53:36
,wl-rdm,115,302989,0.0-6.107-0.107,0.0,116.0,,,,,,,[],,,,,,87.9,1.0,i,1.0,True,889.5,54.0,60.0,40.0,False,,306.80865239458154,[],"[960, 540]",ColorTask,54.0,108.0,,,HRV,HRV_0289,2022-11-30 20:53:36
,wl-html-keyboard-response,116,310464,0.0-7.0-0.0,1.0,117.0,,,,,,,,5466.30000000447,1.0,0,,,,,,,,,,,,,,,,,,,,,,HRV,HRV_0289,2022-11-30 20:53:36
,wl-rdm,117,312723,0.0-8.0-0.0,1.0,118.0,,,,,,,[],,,,,,87.9,1.0,i,1.0,True,808.1999999955297,49.0,60.0,40.0,False,,385.5077268514782,[],"[960, 540]",ColorTask,55.0,1.0,,,HRV,HRV_0289,2022-11-30 20:53:36
,wl-rdm,118,314723,0.0-8.1-0.1,1.0,119.0,,,,,,,[],,,,,,87.9,0.0,u,0.0,True,654.5,40.0,60.0,40.0,False,,273.6497486235419,[],"[960, 540]",ColorTask,56.0,2.0,,,HRV,HRV_0289,2022-11-30 20:53:36
,wl-rdm,119,317389,0.0-8.2-0.2,1.0,120.0,,,,,,,[],,,,,,50.0,0.0,i,1.0,False,1198.4000000059605,72.0,60.0,40.0,False,,389.2661153825578,[],"[960, 540]",ColorTask,55.0,3.0,,,HRV,HRV_0289,2022-11-30 20:53:36
,wl-rdm,120,319559,0.0-8.3-0.3,1.0,121.0,,,,,,,[],,,,,,53.2,1.0,i,1.0,True,809.7999999970198,49.0,60.0,40.0,False,,289.0297661698339,[],"[960, 540]",ColorTask,56.0,4.0,,,HRV,HRV_0289,2022-11-30 20:53:36
,wl-rdm,121,322139,0.0-8.4-0.4,1.0,122.0,,,,,,,[],,,,,,62.5,0.0,u,0.0,True,1145.7999999970198,69.0,60.0,40.0,False,,362.82448722765787,[],"[960, 540]",ColorTask,57.0,5.0,,,HRV,HRV_0289,2022-11-30 20:53:36
,wl-rdm,122,324823,0.0-8.5-0.5,1.0,123.0,,,,,,,[],,,,,,56.4,1.0,i,1.0,True,1212.7000000029802,73.0,60.0,40.0,False,,395.2447522222145,[],"[960, 540]",ColorTask,58.0,6.0,,,HRV,HRV_0289,2022-11-30 20:53:36
,wl-rdm,123,327540,0.0-8.6-0.6,1.0,124.0,,,,,,,[],,,,,,62.5,0.0,u,0.0,True,1236.6000000014901,75.0,60.0,40.0,False,,396.54589838634354,[],"[960, 540]",ColorTask,59.0,7.0,,,HRV,HRV_0289,2022-11-30 20:53:36
,wl-rdm,124,329690,0.0-8.7-0.7,1.0,125.0,,,,,,,[],,,,,,87.9,0.0,u,0.0,True,775.0,47.0,60.0,40.0,False,,294.2191001563064,[],"[960, 540]",ColorTask,60.0,8.0,,,HRV,HRV_0289,2022-11-30 20:53:36
,wl-rdm,125,331690,0.0-8.8-0.8,1.0,126.0,,,,,,,[],,,,,,87.9,0.0,u,0.0,True,679.0,41.0,60.0,40.0,False,,248.35891478784535,[],"[960, 540]",ColorTask,61.0,9.0,,,HRV,HRV_0289,2022-11-30 20:53:36
,wl-rdm,126,334440,0.0-8.9-0.9,1.0,127.0,,,,,,,[],,,,,,50.0,0.0,i,1.0,False,1459.3999999985099,88.0,60.0,40.0,False,,212.51680419891156,[],"[960, 540]",ColorTask,60.0,10.0,,,HRV,HRV_0289,2022-11-30 20:53:36
,wl-rdm,127,337056,0.0-8.10-0.10,1.0,128.0,,,,,,,[],,,,,,53.2,0.0,u,0.0,True,1175.5,71.0,60.0,40.0,False,,359.2049003601194,[],"[960, 540]",ColorTask,61.0,11.0,,,HRV,HRV_0289,2022-11-30 20:53:36
,wl-rdm,128,339890,0.0-8.11-0.11,1.0,129.0,,,,,,,[],,,,,,50.0,1.0,i,1.0,True,1450.3999999985099,87.0,60.0,40.0,False,,310.9594246769026,[],"[960, 540]",ColorTask,62.0,12.0,,,HRV,HRV_0289,2022-11-30 20:53:36
,wl-rdm,129,342139,0.0-8.12-0.12,1.0,130.0,,,,,,,[],,,,,,73.6,0.0,u,0.0,True,863.3999999985099,52.0,60.0,40.0,False,,300.50604512519504,[],"[960, 540]",ColorTask,63.0,13.0,,,HRV,HRV_0289,2022-11-30 20:53:36
,wl-rdm,130,344140,0.0-8.13-0.13,1.0,131.0,,,,,,,[],,,,,,87.9,0.0,u,0.0,True,733.7999999970198,44.0,60.0,40.0,False,,212.3972687336309,[],"[960, 540]",ColorTask,64.0,14.0,,,HRV,HRV_0289,2022-11-30 20:53:36
,wl-rdm,131,346714,0.0-8.14-0.14,1.0,132.0,,,,,,,[],,,,,,53.2,0.0,i,1.0,False,1247.1999999955297,75.0,60.0,40.0,False,,241.78613320984394,[],"[960, 540]",ColorTask,63.0,15.0,,,HRV,HRV_0289,2022-11-30 20:53:36
,wl-rdm,132,349690,0.0-8.15-0.15,1.0,133.0,,,,,,,[],,,,,,56.4,1.0,i,1.0,True,1679.5999999940395,101.0,60.0,40.0,False,,229.85077956437968,[],"[960, 540]",ColorTask,64.0,16.0,,,HRV,HRV_0289,2022-11-30 20:53:36
,wl-rdm,133,352757,0.0-8.16-0.16,1.0,134.0,,,,,,,[],,,,,,50.0,0.0,i,1.0,False,1686.0999999940395,102.0,60.0,40.0,False,,311.48878507898996,[],"[960, 540]",ColorTask,63.0,17.0,,,HRV,HRV_0289,2022-11-30 20:53:36
,wl-rdm,134,355023,0.0-8.17-0.17,1.0,135.0,,,,,,,[],,,,,,73.6,1.0,i,1.0,True,835.5000000074506,51.0,60.0,40.0,False,,333.29432144358213,[],"[960, 540]",ColorTask,64.0,18.0,,,HRV,HRV_0289,2022-11-30 20:53:36
,wl-rdm,135,357256,0.0-8.18-0.18,1.0,136.0,,,,,,,[],,,,,,87.9,1.0,i,1.0,True,767.7000000029802,46.0,60.0,40.0,False,,384.21564269020206,[],"[960, 540]",ColorTask,65.0,19.0,,,HRV,HRV_0289,2022-11-30 20:53:36
,wl-rdm,136,359723,0.0-8.19-0.19,1.0,137.0,,,,,,,[],,,,,,62.5,1.0,i,1.0,True,1092.1000000014901,65.0,60.0,40.0,False,,304.75913375123224,[],"[960, 540]",ColorTask,66.0,20.0,,,HRV,HRV_0289,2022-11-30 20:53:36
,wl-rdm,137,362307,0.0-8.20-0.20,1.0,138.0,,,,,,,[],,,,,,56.4,0.0,u,0.0,True,1129.0,68.0,60.0,40.0,False,,378.55534872867065,[],"[960, 540]",ColorTask,67.0,21.0,,,HRV,HRV_0289,2022-11-30 20:53:36
,wl-rdm,138,364606,0.0-8.21-0.21,1.0,139.0,,,,,,,[],,,,,,56.4,1.0,i,1.0,True,1014.6999999955297,61.0,60.0,40.0,False,,221.69138230392792,[],"[960, 540]",ColorTask,68.0,22.0,,,HRV,HRV_0289,2022-11-30 20:53:36
,wl-rdm,139,367190,0.0-8.22-0.22,1.0,140.0,,,,,,,[],,,,,,56.4,0.0,u,0.0,True,1134.3999999985099,68.0,60.0,40.0,False,,377.0556175948427,[],"[960, 540]",ColorTask,69.0,23.0,,,HRV,HRV_0289,2022-11-30 20:53:36
,wl-rdm,140,369724,0.0-8.23-0.23,1.0,141.0,,,,,,,[],,,,,,50.0,1.0,u,0.0,False,1132.2999999970198,68.0,60.0,40.0,False,,339.6449019988322,[],"[960, 540]",ColorTask,68.0,24.0,,,HRV,HRV_0289,2022-11-30 20:53:36
,wl-rdm,141,371790,0.0-8.24-0.24,1.0,142.0,,,,,,,[],,,,,,87.9,0.0,u,0.0,True,696.5,42.0,60.0,40.0,False,,307.66719972640055,[],"[960, 540]",ColorTask,69.0,25.0,,,HRV,HRV_0289,2022-11-30 20:53:36
,wl-rdm,142,374190,0.0-8.25-0.25,1.0,143.0,,,,,,,[],,,,,,50.0,1.0,i,1.0,True,1101.3000000044703,66.0,60.0,40.0,False,,218.8030913569973,[],"[960, 540]",ColorTask,70.0,26.0,,,HRV,HRV_0289,2022-11-30 20:53:36
,wl-rdm,143,376239,0.0-8.26-0.26,1.0,144.0,,,,,,,[],,,,,,87.9,1.0,i,1.0,True,726.2999999970198,44.0,60.0,40.0,False,,247.7742638713106,[],"[960, 540]",ColorTask,71.0,27.0,,,HRV,HRV_0289,2022-11-30 20:53:36
,wl-rdm,144,378323,0.0-8.27-0.27,1.0,145.0,,,,,,,[],,,,,,62.5,1.0,i,1.0,True,736.8999999985099,44.0,60.0,40.0,False,,275.10647740127126,[],"[960, 540]",ColorTask,72.0,28.0,,,HRV,HRV_0289,2022-11-30 20:53:36
,wl-rdm,145,380740,0.0-8.28-0.28,1.0,146.0,,,,,,,[],,,,,,56.4,0.0,u,0.0,True,939.1999999955297,57.0,60.0,40.0,False,,388.59744591538606,[],"[960, 540]",ColorTask,73.0,29.0,,,HRV,HRV_0289,2022-11-30 20:53:36
,wl-rdm,146,382840,0.0-8.29-0.29,1.0,147.0,,,,,,,[],,,,,,50.0,1.0,i,1.0,True,768.1000000014901,47.0,60.0,40.0,False,,255.09374858040644,[],"[960, 540]",ColorTask,74.0,30.0,,,HRV,HRV_0289,2022-11-30 20:53:36
,wl-rdm,147,385057,0.0-8.30-0.30,1.0,148.0,,,,,,,[],,,,,,62.5,0.0,u,0.0,True,902.8000000044703,55.0,60.0,40.0,False,,227.27085873469892,[],"[960, 540]",ColorTask,75.0,31.0,,,HRV,HRV_0289,2022-11-30 20:53:36
,wl-rdm,148,387056,0.0-8.31-0.31,1.0,149.0,,,,,,,[],,,,,,87.9,0.0,u,0.0,True,704.9000000059605,43.0,60.0,40.0,False,,217.45250312551025,[],"[960, 540]",ColorTask,76.0,32.0,,,HRV,HRV_0289,2022-11-30 20:53:36
,wl-rdm,149,389506,0.0-8.32-0.32,1.0,150.0,,,,,,,[],,,,,,56.4,0.0,u,0.0,True,1110.6000000014901,67.0,60.0,40.0,False,,275.4148110912851,[],"[960, 540]",ColorTask,77.0,33.0,,,HRV,HRV_0289,2022-11-30 20:53:36
,wl-rdm,150,391540,0.0-8.33-0.33,1.0,151.0,,,,,,,[],,,,,,87.9,0.0,u,0.0,True,749.9000000059605,45.0,60.0,40.0,False,,214.81100542983708,[],"[960, 540]",ColorTask,78.0,34.0,,,HRV,HRV_0289,2022-11-30 20:53:36
,wl-rdm,151,393556,0.0-8.34-0.34,1.0,152.0,,,,,,,[],,,,,,87.9,1.0,i,1.0,True,672.0000000074506,41.0,60.0,40.0,False,,279.53172845229795,[],"[960, 540]",ColorTask,79.0,35.0,,,HRV,HRV_0289,2022-11-30 20:53:36
,wl-rdm,152,395590,0.0-8.35-0.35,1.0,153.0,,,,,,,[],,,,,,73.6,1.0,i,1.0,True,640.4000000059605,39.0,60.0,40.0,False,,304.6058435766706,[],"[960, 540]",ColorTask,80.0,36.0,,,HRV,HRV_0289,2022-11-30 20:53:36
,wl-rdm,153,397840,0.0-8.36-0.36,1.0,154.0,,,,,,,[],,,,,,53.2,1.0,i,1.0,True,799.5999999940395,49.0,60.0,40.0,False,,367.762557138764,[],"[960, 540]",ColorTask,81.0,37.0,,,HRV,HRV_0289,2022-11-30 20:53:36
,wl-rdm,154,400289,0.0-8.37-0.37,1.0,155.0,,,,,,,[],,,,,,53.2,0.0,i,1.0,False,1128.1000000014901,68.0,60.0,40.0,False,,249.6002252232364,[],"[960, 540]",ColorTask,80.0,38.0,,,HRV,HRV_0289,2022-11-30 20:53:36
,wl-rdm,155,402406,0.0-8.38-0.38,1.0,156.0,,,,,,,[],,,,,,73.6,1.0,i,1.0,True,721.5,44.0,60.0,40.0,False,,314.95022582035256,[],"[960, 540]",ColorTask,81.0,39.0,,,HRV,HRV_0289,2022-11-30 20:53:36
,wl-rdm,156,404607,0.0-8.39-0.39,1.0,157.0,,,,,,,[],,,,,,73.6,0.0,u,0.0,True,757.2999999970198,46.0,60.0,40.0,False,,355.2069867741126,[],"[960, 540]",ColorTask,82.0,40.0,,,HRV,HRV_0289,2022-11-30 20:53:36
,wl-rdm,157,406806,0.0-8.40-0.40,1.0,158.0,,,,,,,[],,,,,,56.4,1.0,i,1.0,True,827.9000000059605,50.0,60.0,40.0,False,,296.4063363204573,[],"[960, 540]",ColorTask,83.0,41.0,,,HRV,HRV_0289,2022-11-30 20:53:36
,wl-rdm,158,408973,0.0-8.41-0.41,1.0,159.0,,,,,,,[],,,,,,62.5,1.0,i,1.0,True,759.0,46.0,60.0,40.0,False,,336.2293619461657,[],"[960, 540]",ColorTask,84.0,42.0,,,HRV,HRV_0289,2022-11-30 20:53:36
,wl-rdm,159,411757,0.0-8.42-0.42,1.0,160.0,,,,,,,[],,,,,,62.5,0.0,u,0.0,True,1482.8999999985099,89.0,60.0,40.0,False,,225.40529738333188,[],"[960, 540]",ColorTask,85.0,43.0,,,HRV,HRV_0289,2022-11-30 20:53:36
,wl-rdm,160,413823,0.0-8.43-0.43,1.0,161.0,,,,,,,[],,,,,,62.5,0.0,u,0.0,True,749.6000000014901,45.0,60.0,40.0,False,,245.49692110339396,[],"[960, 540]",ColorTask,86.0,44.0,,,HRV,HRV_0289,2022-11-30 20:53:36
,wl-rdm,161,415875,0.0-8.44-0.44,1.0,162.0,,,,,,,[],,,,,,62.5,1.0,i,1.0,True,782.0,47.0,60.0,40.0,False,,220.04269028397704,[],"[960, 540]",ColorTask,87.0,45.0,,,HRV,HRV_0289,2022-11-30 20:53:36
,wl-rdm,162,418057,0.0-8.45-0.45,1.0,163.0,,,,,,,[],,,,,,53.2,0.0,u,0.0,True,844.3000000044703,51.0,60.0,40.0,False,,274.70766483888775,[],"[960, 540]",ColorTask,88.0,46.0,,,HRV,HRV_0289,2022-11-30 20:53:36
,wl-rdm,163,420023,0.0-8.46-0.46,1.0,164.0,,,,,,,[],,,,,,87.9,0.0,u,0.0,True,628.1000000014901,38.0,60.0,40.0,False,,256.3462494300855,[],"[960, 540]",ColorTask,89.0,47.0,,,HRV,HRV_0289,2022-11-30 20:53:36
,wl-rdm,164,423007,0.0-8.47-0.47,1.0,165.0,,,,,,,[],,,,,,53.2,0.0,i,1.0,False,1716.5,103.0,60.0,40.0,False,,205.33615496795233,[],"[960, 540]",ColorTask,88.0,48.0,,,HRV,HRV_0289,2022-11-30 20:53:36
,wl-rdm,165,425056,0.0-8.48-0.48,1.0,166.0,,,,,,,[],,,,,,73.6,1.0,i,1.0,True,707.7000000029802,43.0,60.0,40.0,False,,280.4998557735732,[],"[960, 540]",ColorTask,89.0,49.0,,,HRV,HRV_0289,2022-11-30 20:53:36
,wl-rdm,166,427073,0.0-8.49-0.49,1.0,167.0,,,,,,,[],,,,,,56.4,0.0,i,1.0,False,712.9000000059605,43.0,60.0,40.0,False,,244.86597114413712,[],"[960, 540]",ColorTask,88.0,50.0,,,HRV,HRV_0289,2022-11-30 20:53:36
,wl-rdm,167,429073,0.0-8.50-0.50,1.0,168.0,,,,,,,[],,,,,,73.6,1.0,i,1.0,True,726.0,44.0,60.0,40.0,False,,202.35556160088194,[],"[960, 540]",ColorTask,89.0,51.0,,,HRV,HRV_0289,2022-11-30 20:53:36
,wl-rdm,168,432556,0.0-8.51-0.51,1.0,169.0,,,,,,,[],,,,,,50.0,1.0,u,0.0,False,2210.0,133.0,60.0,40.0,False,,203.22714341856272,[],"[960, 540]",ColorTask,88.0,52.0,,,HRV,HRV_0289,2022-11-30 20:53:36
,wl-rdm,169,434723,0.0-8.52-0.52,1.0,170.0,,,,,,,[],,,,,,73.6,1.0,i,1.0,True,835.8000000044703,51.0,60.0,40.0,False,,252.27969950920578,[],"[960, 540]",ColorTask,89.0,53.0,,,HRV,HRV_0289,2022-11-30 20:53:36
,wl-rdm,170,436841,0.0-8.53-0.53,1.0,171.0,,,,,,,[],,,,,,53.2,1.0,i,1.0,True,780.7999999970198,47.0,60.0,40.0,False,,264.39629769810347,[],"[960, 540]",ColorTask,90.0,54.0,,,HRV,HRV_0289,2022-11-30 20:53:36
,wl-rdm,171,439340,0.0-8.54-0.54,1.0,172.0,,,,,,,[],,,,,,73.6,1.0,i,1.0,True,1101.2999999970198,66.0,60.0,40.0,False,,330.47164574659666,[],"[960, 540]",ColorTask,91.0,55.0,,,HRV,HRV_0289,2022-11-30 20:53:36
,wl-rdm,172,441673,0.0-8.55-0.55,1.0,173.0,,,,,,,[],,,,,,50.0,0.0,u,0.0,True,987.6999999880791,60.0,60.0,40.0,False,,281.3391110498167,[],"[960, 540]",ColorTask,92.0,56.0,,,HRV,HRV_0289,2022-11-30 20:53:36
,wl-rdm,173,443841,0.0-8.56-0.56,1.0,174.0,,,,,,,[],,,,,,56.4,0.0,u,0.0,True,828.8999999985099,50.0,60.0,40.0,False,,242.68545018779912,[],"[960, 540]",ColorTask,93.0,57.0,,,HRV,HRV_0289,2022-11-30 20:53:36
,wl-rdm,174,446206,0.0-8.57-0.57,1.0,175.0,,,,,,,[],,,,,,62.5,0.0,u,0.0,True,891.8000000044703,54.0,60.0,40.0,False,,397.460568296437,[],"[960, 540]",ColorTask,94.0,58.0,,,HRV,HRV_0289,2022-11-30 20:53:36
,wl-rdm,175,448341,0.0-8.58-0.58,1.0,176.0,,,,,,,[],,,,,,73.6,0.0,u,0.0,True,697.8999999985099,42.0,60.0,40.0,False,,354.8931427114104,[],"[960, 540]",ColorTask,95.0,59.0,,,HRV,HRV_0289,2022-11-30 20:53:36
,wl-rdm,176,450590,0.0-8.59-0.59,1.0,177.0,,,,,,,[],,,,,,87.9,1.0,i,1.0,True,862.2000000029802,52.0,60.0,40.0,False,,307.4603604174024,[],"[960, 540]",ColorTask,96.0,60.0,,,HRV,HRV_0289,2022-11-30 20:53:36
,wl-rdm,177,453273,0.0-8.60-0.60,1.0,178.0,,,,,,,[],,,,,,53.2,1.0,i,1.0,True,1251.1000000014901,75.0,60.0,40.0,False,,378.92507314690204,[],"[960, 540]",ColorTask,97.0,61.0,,,HRV,HRV_0289,2022-11-30 20:53:36
,wl-rdm,178,455345,0.0-8.61-0.61,1.0,179.0,,,,,,,[],,,,,,73.6,0.0,u,0.0,True,703.2000000029802,42.0,60.0,40.0,False,,309.51327000208664,[],"[960, 540]",ColorTask,98.0,62.0,,,HRV,HRV_0289,2022-11-30 20:53:36
,wl-rdm,179,457673,0.0-8.62-0.62,1.0,180.0,,,,,,,[],,,,,,62.5,1.0,i,1.0,True,1034.4999999925494,63.0,60.0,40.0,False,,207.9625940721177,[],"[960, 540]",ColorTask,99.0,63.0,,,HRV,HRV_0289,2022-11-30 20:53:36
,wl-rdm,180,460474,0.0-8.63-0.63,1.0,181.0,,,,,,,[],,,,,,53.2,0.0,i,1.0,False,1400.8000000044703,84.0,60.0,40.0,False,,317.9258793908618,[],"[960, 540]",ColorTask,98.0,64.0,,,HRV,HRV_0289,2022-11-30 20:53:36
,wl-rdm,181,462608,0.0-8.64-0.64,1.0,182.0,,,,,,,[],,,,,,87.9,1.0,i,1.0,True,716.6000000014901,43.0,60.0,40.0,False,,339.79890838014865,[],"[960, 540]",ColorTask,99.0,65.0,,,HRV,HRV_0289,2022-11-30 20:53:36
,wl-rdm,182,466023,0.0-8.65-0.65,1.0,183.0,,,,,,,[],,,,,,53.2,1.0,u,0.0,False,1947.8999999985099,116.0,60.0,40.0,False,,384.0768463902211,[],"[960, 540]",ColorTask,98.0,66.0,,,HRV,HRV_0289,2022-11-30 20:53:36
,wl-rdm,183,467990,0.0-8.66-0.66,1.0,184.0,,,,,,,[],,,,,,62.5,1.0,i,1.0,True,652.8999999985099,40.0,60.0,40.0,False,,218.9414324755447,[],"[960, 540]",ColorTask,99.0,67.0,,,HRV,HRV_0289,2022-11-30 20:53:36
,wl-rdm,184,469940,0.0-8.67-0.67,1.0,185.0,,,,,,,[],,,,,,73.6,0.0,u,0.0,True,576.2000000029802,35.0,60.0,40.0,False,,305.04206317976684,[],"[960, 540]",ColorTask,100.0,68.0,,,HRV,HRV_0289,2022-11-30 20:53:36
,wl-rdm,185,472824,0.0-8.68-0.68,1.0,186.0,,,,,,,[],,,,,,53.2,0.0,i,1.0,False,1514.0,91.0,60.0,40.0,False,,291.2655545593605,[],"[960, 540]",ColorTask,99.0,69.0,,,HRV,HRV_0289,2022-11-30 20:53:36
,wl-rdm,186,475341,0.0-8.69-0.69,1.0,187.0,,,,,,,[],,,,,,56.4,0.0,i,1.0,False,1118.3000000044703,67.0,60.0,40.0,False,,326.34274673603136,[],"[960, 540]",ColorTask,98.0,70.0,,,HRV,HRV_0289,2022-11-30 20:53:36
,wl-rdm,187,477590,0.0-8.70-0.70,1.0,188.0,,,,,,,[],,,,,,50.0,0.0,u,0.0,True,975.1999999955297,59.0,60.0,40.0,False,,201.32848270106285,[],"[960, 540]",ColorTask,99.0,71.0,,,HRV,HRV_0289,2022-11-30 20:53:36
,wl-rdm,188,479523,0.0-8.71-0.71,1.0,189.0,,,,,,,[],,,,,,56.4,0.0,u,0.0,True,608.6000000014901,37.0,60.0,40.0,False,,238.7591842214457,[],"[960, 540]",ColorTask,100.0,72.0,,,HRV,HRV_0289,2022-11-30 20:53:36
,wl-rdm,189,481457,0.0-8.72-0.72,1.0,190.0,,,,,,,[],,,,,,87.9,1.0,i,1.0,True,527.5,32.0,60.0,40.0,False,,339.08215050476355,[],"[960, 540]",ColorTask,101.0,73.0,,,HRV,HRV_0289,2022-11-30 20:53:36
,wl-rdm,190,483373,0.0-8.73-0.73,1.0,191.0,,,,,,,[],,,,,,87.9,1.0,i,1.0,True,502.6000000014901,30.0,60.0,40.0,False,,333.48593390295514,[],"[960, 540]",ColorTask,102.0,74.0,,,HRV,HRV_0289,2022-11-30 20:53:36
,wl-rdm,191,485891,0.0-8.74-0.74,1.0,192.0,,,,,,,[],,,,,,56.4,1.0,i,1.0,True,1185.0,72.0,60.0,40.0,False,,245.55456646280527,[],"[960, 540]",ColorTask,103.0,75.0,,,HRV,HRV_0289,2022-11-30 20:53:36
,wl-rdm,192,487790,0.0-8.75-0.75,1.0,193.0,,,,,,,[],,,,,,56.4,1.0,i,1.0,True,630.2000000029802,38.0,60.0,40.0,False,,215.68621802352158,[],"[960, 540]",ColorTask,104.0,76.0,,,HRV,HRV_0289,2022-11-30 20:53:36
,wl-rdm,193,490557,0.0-8.76-0.76,1.0,194.0,,,,,,,[],,,,,,62.5,1.0,i,1.0,True,1350.6000000014901,81.0,60.0,40.0,False,,349.65854207927515,[],"[960, 540]",ColorTask,105.0,77.0,,,HRV,HRV_0289,2022-11-30 20:53:36
,wl-rdm,194,492590,0.0-8.77-0.77,1.0,195.0,,,,,,,[],,,,,,53.2,1.0,i,1.0,True,620.3999999985099,38.0,60.0,40.0,False,,331.6131844525288,[],"[960, 540]",ColorTask,106.0,78.0,,,HRV,HRV_0289,2022-11-30 20:53:36
,wl-rdm,195,494990,0.0-8.78-0.78,1.0,196.0,,,,,,,[],,,,,,62.5,0.0,u,0.0,True,1061.8000000044703,64.0,60.0,40.0,False,,246.1077935205942,[],"[960, 540]",ColorTask,107.0,79.0,,,HRV,HRV_0289,2022-11-30 20:53:36
,wl-rdm,196,497224,0.0-8.79-0.79,1.0,197.0,,,,,,,[],,,,,,56.4,0.0,u,0.0,True,911.8000000044703,55.0,60.0,40.0,False,,259.09480731381154,[],"[960, 540]",ColorTask,108.0,80.0,,,HRV,HRV_0289,2022-11-30 20:53:36
,wl-rdm,197,499257,0.0-8.80-0.80,1.0,198.0,,,,,,,[],,,,,,73.6,1.0,i,1.0,True,751.6999999955297,45.0,60.0,40.0,False,,211.3511265047819,[],"[960, 540]",ColorTask,109.0,81.0,,,HRV,HRV_0289,2022-11-30 20:53:36
,wl-rdm,198,501292,0.0-8.81-0.81,1.0,199.0,,,,,,,[],,,,,,62.5,1.0,i,1.0,True,669.8999999910593,41.0,60.0,40.0,False,,270.3220325780991,[],"[960, 540]",ColorTask,110.0,82.0,,,HRV,HRV_0289,2022-11-30 20:53:36
,wl-rdm,199,503174,0.0-8.82-0.82,1.0,200.0,,,,,,,[],,,,,,87.9,1.0,i,1.0,True,558.8999999985099,34.0,60.0,40.0,False,,261.38215492184105,[],"[960, 540]",ColorTask,111.0,83.0,,,HRV,HRV_0289,2022-11-30 20:53:36
,wl-rdm,200,505140,0.0-8.83-0.83,1.0,201.0,,,,,,,[],,,,,,73.6,1.0,i,1.0,True,680.9999999925494,41.0,60.0,40.0,False,,219.5189274467062,[],"[960, 540]",ColorTask,112.0,84.0,,,HRV,HRV_0289,2022-11-30 20:53:36
,wl-rdm,201,507090,0.0-8.84-0.84,1.0,202.0,,,,,,,[],,,,,,87.9,0.0,u,0.0,True,625.8999999985099,38.0,60.0,40.0,False,,239.93533891703598,[],"[960, 540]",ColorTask,113.0,85.0,,,HRV,HRV_0289,2022-11-30 20:53:36
,wl-rdm,202,509107,0.0-8.85-0.85,1.0,203.0,,,,,,,[],,,,,,50.0,1.0,u,0.0,False,645.9999999925494,39.0,60.0,40.0,False,,284.11053978193297,[],"[960, 540]",ColorTask,112.0,86.0,,,HRV,HRV_0289,2022-11-30 20:53:36
,wl-rdm,203,511140,0.0-8.86-0.86,1.0,204.0,,,,,,,[],,,,,,50.0,0.0,i,1.0,False,705.1000000089407,43.0,60.0,40.0,False,,239.65165230294724,[],"[960, 540]",ColorTask,111.0,87.0,,,HRV,HRV_0289,2022-11-30 20:53:36
,wl-rdm,204,513092,0.0-8.87-0.87,1.0,205.0,,,,,,,[],,,,,,73.6,0.0,u,0.0,True,638.9000000059605,39.0,60.0,40.0,False,,244.21959928634783,[],"[960, 540]",ColorTask,112.0,88.0,,,HRV,HRV_0289,2022-11-30 20:53:36
,wl-rdm,205,515107,0.0-8.88-0.88,1.0,206.0,,,,,,,[],,,,,,50.0,0.0,i,1.0,False,687.5999999940395,42.0,60.0,40.0,False,,235.4377342941431,[],"[960, 540]",ColorTask,111.0,89.0,,,HRV,HRV_0289,2022-11-30 20:53:36
,wl-rdm,206,517299,0.0-8.89-0.89,1.0,207.0,,,,,,,[],,,,,,50.0,1.0,i,1.0,True,891.7999999970198,54.0,60.0,40.0,False,,221.4353408439893,[],"[960, 540]",ColorTask,112.0,90.0,,,HRV,HRV_0289,2022-11-30 20:53:36
,wl-rdm,207,519543,0.0-8.90-0.90,1.0,208.0,,,,,,,[],,,,,,73.6,0.0,u,0.0,True,788.8999999985099,45.0,60.0,40.0,False,,394.31503118395005,[],"[960, 540]",ColorTask,113.0,91.0,,,HRV,HRV_0289,2022-11-30 20:53:36
,wl-rdm,208,521974,0.0-8.91-0.91,1.0,209.0,,,,,,,[],,,,,,53.2,0.0,u,0.0,True,1090.3999999910593,67.0,60.0,40.0,False,,274.24531657217983,[],"[960, 540]",ColorTask,114.0,92.0,,,HRV,HRV_0289,2022-11-30 20:53:36
,wl-rdm,209,524174,0.0-8.92-0.92,1.0,210.0,,,,,,,[],,,,,,62.5,0.0,u,0.0,True,800.5999999940395,49.0,60.0,40.0,False,,312.7365892248938,[],"[960, 540]",ColorTask,115.0,93.0,,,HRV,HRV_0289,2022-11-30 20:53:36
,wl-rdm,210,526440,0.0-8.93-0.93,1.0,211.0,,,,,,,[],,,,,,53.2,1.0,u,0.0,False,891.1999999955297,54.0,60.0,40.0,False,,282.95346038067385,[],"[960, 540]",ColorTask,114.0,94.0,,,HRV,HRV_0289,2022-11-30 20:53:36
,wl-rdm,211,528741,0.0-8.94-0.94,1.0,212.0,,,,,,,[],,,,,,56.4,1.0,i,1.0,True,821.3000000044703,50.0,60.0,40.0,False,,393.22883306219614,[],"[960, 540]",ColorTask,115.0,95.0,,,HRV,HRV_0289,2022-11-30 20:53:36
,wl-rdm,212,530890,0.0-8.95-0.95,1.0,213.0,,,,,,,[],,,,,,73.6,0.0,u,0.0,True,710.6000000014901,43.0,60.0,40.0,False,,362.72364363746306,[],"[960, 540]",ColorTask,116.0,96.0,,,HRV,HRV_0289,2022-11-30 20:53:36
,wl-rdm,213,532792,0.0-8.96-0.96,1.0,214.0,,,,,,,[],,,,,,50.0,0.0,u,0.0,True,550.7999999970198,33.0,60.0,40.0,False,,269.8874345920838,[],"[960, 540]",ColorTask,117.0,97.0,,,HRV,HRV_0289,2022-11-30 20:53:36
,wl-rdm,214,535073,0.0-8.97-0.97,1.0,215.0,,,,,,,[],,,,,,50.0,1.0,u,0.0,False,921.3999999985099,56.0,60.0,40.0,False,,272.9083676733178,[],"[960, 540]",ColorTask,116.0,98.0,,,HRV,HRV_0289,2022-11-30 20:53:36
,wl-rdm,215,537357,0.0-8.98-0.98,1.0,216.0,,,,,,,[],,,,,,53.2,1.0,i,1.0,True,821.3000000044703,50.0,60.0,40.0,False,,395.7660637367818,[],"[960, 540]",ColorTask,117.0,99.0,,,HRV,HRV_0289,2022-11-30 20:53:36
,wl-rdm,216,539374,0.0-8.99-0.99,1.0,217.0,,,,,,,[],,,,,,73.6,0.0,u,0.0,True,674.1999999955297,41.0,60.0,40.0,False,,279.27108042584683,[],"[960, 540]",ColorTask,118.0,100.0,,,HRV,HRV_0289,2022-11-30 20:53:36
,wl-rdm,217,541690,0.0-8.100-0.100,1.0,218.0,,,,,,,[],,,,,,53.2,0.0,u,0.0,True,869.7000000029802,53.0,60.0,40.0,False,,367.6474151223016,[],"[960, 540]",ColorTask,119.0,101.0,,,HRV,HRV_0289,2022-11-30 20:53:36
,wl-rdm,218,543958,0.0-8.101-0.101,1.0,219.0,,,,,,,[],,,,,,50.0,1.0,u,0.0,False,954.0999999940395,58.0,60.0,40.0,False,,225.8094115726891,[],"[960, 540]",ColorTask,118.0,102.0,,,HRV,HRV_0289,2022-11-30 20:53:36
,wl-rdm,219,546023,0.0-8.102-0.102,1.0,220.0,,,,,,,[],,,,,,56.4,1.0,u,0.0,False,701.5000000074506,43.0,60.0,40.0,False,,274.37205194147316,[],"[960, 540]",ColorTask,117.0,103.0,,,HRV,HRV_0289,2022-11-30 20:53:36
,wl-rdm,220,548123,0.0-8.103-0.103,1.0,221.0,,,,,,,[],,,,,,50.0,0.0,u,0.0,True,780.7000000029802,47.0,60.0,40.0,False,,246.63676140994443,[],"[960, 540]",ColorTask,118.0,104.0,,,HRV,HRV_0289,2022-11-30 20:53:36
,wl-rdm,221,550374,0.0-8.104-0.104,1.0,222.0,,,,,,,[],,,,,,53.2,1.0,u,0.0,False,813.7999999895692,49.0,60.0,40.0,False,,363.041027890283,[],"[960, 540]",ColorTask,117.0,105.0,,,HRV,HRV_0289,2022-11-30 20:53:36
,wl-rdm,222,553575,0.0-8.105-0.105,1.0,223.0,,,,,,,[],,,,,,62.5,1.0,i,1.0,True,1890.0000000074506,114.0,60.0,40.0,False,,238.80766788336362,[],"[960, 540]",ColorTask,118.0,106.0,,,HRV,HRV_0289,2022-11-30 20:53:36
,wl-rdm,223,555507,0.0-8.106-0.106,1.0,224.0,,,,,,,[],,,,,,62.5,0.0,u,0.0,True,636.2000000029802,38.0,60.0,40.0,False,,232.09626039079313,[],"[960, 540]",ColorTask,119.0,107.0,,,HRV,HRV_0289,2022-11-30 20:53:36
,wl-rdm,224,557990,0.0-8.107-0.107,1.0,225.0,,,,,,,[],,,,,,56.4,1.0,i,1.0,True,1080.0000000074506,65.0,60.0,40.0,False,,313.55217846391486,[],"[960, 540]",ColorTask,120.0,108.0,,,HRV,HRV_0289,2022-11-30 20:53:36
,wl-html-button-response,225,562319,0.0-9.0-0.0,,,,,,,,,,4323.60000000149,,0,,,,,,,,,,,,,,,,,,,,<h3>End of this session. Thank you!</h3><br>,['Close window'],HRV,HRV_0289,2022-11-30 20:53:36
