success,trial_type,trial_index,time_elapsed,internal_node_id,Block,TrialNumber,TrialTime,trialTimeDiff,FPS_avg,FPS_med,FPS_mode,TrialDur,winResizeTime,rt,block,button_pressed,missTrial,missTrialMsg,MotCoh,MotDir,ColCoh,Color,ChoiceKey,Choice,Accuracy,RT,nFrames,FPS,PPD,onsetDelay,fullScreenExitTime,canvCenter,TrialType,Score,BlockTrial,stimulus,button_labels,exp,subjectId,date
True,fullscreen,0,2848,0.0-0.0,0.0,1.0,,,,,,,,,,,,,,,,,,,,,,,,,,,,,,,,HRV,HRV_0308,2022-11-30 22:01:15
,wl-check-fps,1,7839,0.0-1.0,0.0,2.0,"[3409.2, 3414, 3430.3, 3446.3, 3463.4, 3480.2, 3496, 3513, 3530, 3546.2, 3563.3, 3580.2, 3595.9, 3613, 3630, 3645.9, 3674.8, 3679.9, 3695.9, 3712.9, 3729.9, 3745.9, 3762.9, 3779.9, 3796, 3813, 3829.9, 3845.9, 3863.2, 3879.9, 3895.9, 3912.9, 3929.9, 3946, 3963.1, 3980, 4001.8, 4019.1, 4030, 4045.9, 4063.1, 4079.9, 4095.9, 4113.3, 4130, 4146, 4163, 4179.9, 4195.9, 4213, 4230, 4246, 4263.2, 4280, 4296.1, 4313, 4330, 4345.9, 4363, 4379.9, 4396.1, 4413, 4430.1, 4446.1, 4463, 4479.9, 4496.1, 4513, 4530.1, 4546.1, 4563.7, 4580, 4596.2, 4613.2, 4629.2, 4646.1, 4663.1, 4680.1, 4696.1, 4713.1, 4729.2, 4746, 4763.2, 4779.2, 4796.1, 4813.1, 4830, 4846, 4863.3, 4880, 4896.2, 4913.1, 4929.1, 4946.1, 4963.1, 4979.1, 4996, 5013.1, 5029.2, 5046.2, 5063.1, 5079.1, 5096.2, 5113.1, 5129.1, 5146.1, 5163.4, 5179.1, 5196.2, 5212.9, 5229.2, 5246.1, 5263.2, 5279, 5296.1, 5313, 5329.1, 5346, 5363, 5379, 5396.1, 5413.1, 5429, 5445.9, 5463.1, 5479, 5496, 5513, 5529, 5546.1, 5563.2, 5579, 5596.2, 5613, 5629, 5646, 5663.1, 5679, 5695.9, 5712.9, 5729, 5746.1, 5763, 5779.1, 5796, 5813, 5829, 5846, 5863, 5879.1, 5895.9, 5913, 5929.1, 5946, 5963.1, 5979, 5996.1, 6013.2, 6029.1, 6046, 6063, 6079, 6096.1, 6113.1, 6129.1, 6146.1, 6163.1, 6179.1, 6196, 6213, 6229, 6246, 6263.1, 6279.1, 6296.1, 6313, 6329.1, 6346.2, 6363.1, 6379.1, 6396.3, 6413.2, 6429.1, 6446.1, 6463.1, 6479.2, 6496.1, 6513.2, 6529.2, 6546.1, 6563.7, 6579, 6596.1, 6613.2, 6629, 6646.1, 6663.1, 6679, 6696.1, 6713.1, 6729, 6746.1, 6763.4, 6779.3, 6796.2, 6813.1, 6829, 6846.1, 6863.2, 6879.1, 6896.2, 6913, 6929.1, 6946, 6963.1, 6979.1, 6996.1, 7013.2, 7029.1, 7046, 7063.4, 7079.1, 7096, 7113.1, 7129, 7146.1, 7163.3, 7179.2, 7196.1, 7213.1, 7229.1, 7246.3, 7263.1, 7279.1, 7296.1, 7313.1, 7329.2, 7352.4, 7363.2, 7379.1, 7396.1, 7413.1, 7429.1, 7446.2, 7463.1, 7479.4, 7496.2, 7513.2, 7529.2, 7546.1, 7563.5, 7579.9, 7596.3, 7613.2, 7629.2, 7646.2, 7663.2, 7679.2, 7696.2, 7713.3, 7729.4, 7746.2, 7763.3, 7779.2, 7796.2, 7813.2, 7829.2, 7846.5, 7863.3, 7879.4, 7896.3, 7913.2, 7929.2, 7946.3, 7963.5, 7979.2, 7996.2, 8013.3, 8029.2, 8046.2, 8063.2, 8079.3, 8096.3, 8113.3, 8129.2, 8146.2, 8163.3, 8179.3, 8196.5, 8213.7, 8229.2, 8246.3, 8263.2, 8279.2, 8296.2, 8314.2, 8329.2, 8346.2, 8363.2, 8379.7]","[1.9, 4.8, 16.3, 16, 17.1, 16.8, 15.8, 17, 17, 16.2, 17.1, 16.9, 15.7, 17.1, 17, 15.9, 28.9, 5.1, 16, 17, 17, 16, 17, 17, 16.1, 17, 16.9, 16, 17.3, 16.7, 16, 17, 17, 16.1, 17.1, 16.9, 21.8, 17.3, 10.9, 15.9, 17.2, 16.8, 16, 17.4, 16.7, 16, 17, 16.9, 16, 17.1, 17, 16, 17.2, 16.8, 16.1, 16.9, 17, 15.9, 17.1, 16.9, 16.2, 16.9, 17.1, 16, 16.9, 16.9, 16.2, 16.9, 17.1, 16, 17.6, 16.3, 16.2, 17, 16, 16.9, 17, 17, 16, 17, 16.1, 16.8, 17.2, 16, 16.9, 17, 16.9, 16, 17.3, 16.7, 16.2, 16.9, 16, 17, 17, 16, 16.9, 17.1, 16.1, 17, 16.9, 16, 17.1, 16.9, 16, 17, 17.3, 15.7, 17.1, 16.7, 16.3, 16.9, 17.1, 15.8, 17.1, 16.9, 16.1, 16.9, 17, 16, 17.1, 17, 15.9, 16.9, 17.2, 15.9, 17, 17, 16, 17.1, 17.1, 15.8, 17.2, 16.8, 16, 17, 17.1, 15.9, 16.9, 17, 16.1, 17.1, 16.9, 16.1, 16.9, 17, 16, 17, 17, 16.1, 16.8, 17.1, 16.1, 16.9, 17.1, 15.9, 17.1, 17.1, 15.9, 16.9, 17, 16, 17.1, 17, 16, 17, 17, 16, 16.9, 17, 16, 17, 17.1, 16, 17, 16.9, 16.1, 17.1, 16.9, 16, 17.2, 16.9, 15.9, 17, 17, 16.1, 16.9, 17.1, 16, 16.9, 17.6, 15.3, 17.1, 17.1, 15.8, 17.1, 17, 15.9, 17.1, 17, 15.9, 17.1, 17.3, 15.9, 16.9, 16.9, 15.9, 17.1, 17.1, 15.9, 17.1, 16.8, 16.1, 16.9, 17.1, 16, 17, 17.1, 15.9, 16.9, 17.4, 15.7, 16.9, 17.1, 15.9, 17.1, 17.2, 15.9, 16.9, 17, 16, 17.2, 16.8, 16, 17, 17, 16.1, 23.2, 10.8, 15.9, 17, 17, 16, 17.1, 16.9, 16.3, 16.8, 17, 16, 16.9, 17.4, 16.4, 16.4, 16.9, 16, 17, 17, 16, 17, 17.1, 16.1, 16.8, 17.1, 15.9, 17, 17, 16, 17.3, 16.8, 16.1, 16.9, 16.9, 16, 17.1, 17.2, 15.7, 17, 17.1, 15.9, 17, 17, 16.1, 17, 17, 15.9, 17, 17.1, 16, 17.2, 17.2, 15.5, 17.1, 16.9, 16, 17, 18, 15, 17, 17, 16.5]",60.0,61.0,59.0,4989.1,[],,,,,,,,,,,,,,,,,,,,,,,,,HRV,HRV_0308,2022-11-30 22:01:15
,wl-html-keyboard-response,2,63592,0.0-2.0-0.0,0.0,2.0,,,,,,,,53745.2000002861,0.0,0,True,undefinedblurEvent ,,,,,,,,,,,,,,,,,,,,HRV,HRV_0308,2022-11-30 22:01:15
,wl-rdm,3,71054,0.0-3.0-0.0,0.0,3.0,,,,,,,[],,,,False,,0.0,0.0,87.9,0.0,u,0.0,True,1908.0,115.0,59.0,40.0,3000.0,[],"[1280, 720]",ColorTask_Demo,,,,,HRV,HRV_0308,2022-11-30 22:01:15
,wl-rdm,4,77236,0.0-3.0-1.0,0.0,4.0,,,,,,,[],,,,False,,0.0,0.0,87.9,1.0,i,1.0,True,2085.2999997138977,126.0,59.0,40.0,2000.0,[],"[1280, 720]",ColorTask_Demo,,,,,HRV,HRV_0308,2022-11-30 22:01:15
,wl-html-keyboard-response,5,83634,0.0-3.0-2.0,0.0,5.0,,,,,,,,4391.5,0.0,1,,,,,,,,,,,,,,,,,,,,,,HRV,HRV_0308,2022-11-30 22:01:15
,wl-html-keyboard-response,6,95705,0.0-4.0-0.0,0.0,6.0,,,,,,,,10065.5,0.0,0,,,,,,,,,,,,,,,,,,,,,,HRV,HRV_0308,2022-11-30 22:01:15
,wl-html-keyboard-response,7,129570,0.0-5.0-0.0,0.0,6.0,,,,,,,,31856.700000286102,0.0,0,True,undefinedblurEvent ,,,,,,,,,,,,,,,,,,,,HRV,HRV_0308,2022-11-30 22:01:15
,wl-rdm,8,133852,0.0-6.0-0.0,0.0,7.0,,,,,,,[],,,,False,,,,53.2,0.0,u,0.0,True,2886.7999997138977,174.0,59.0,40.0,307.6071121449987,[],"[1280, 720]",ColorTask,1.0,1.0,,,HRV,HRV_0308,2022-11-30 22:01:15
,wl-rdm,9,137301,0.0-6.1-0.1,0.0,8.0,,,,,,,[],,,,False,,,,53.2,1.0,i,1.0,True,2157.2000002861023,130.0,59.0,40.0,212.27077139922088,[],"[1280, 720]",ColorTask,2.0,2.0,,,HRV,HRV_0308,2022-11-30 22:01:15
,wl-rdm,10,139834,0.0-6.2-0.2,0.0,9.0,,,,,,,[],,,,False,,,,87.9,1.0,i,1.0,True,1156.8000001907349,70.0,59.0,40.0,283.4909525310958,[],"[1280, 720]",ColorTask,3.0,3.0,,,HRV,HRV_0308,2022-11-30 22:01:15
,wl-rdm,11,143436,0.0-6.3-0.3,0.0,10.0,,,,,,,[],,,,False,,,,53.2,1.0,u,0.0,False,2228.999999523163,134.0,59.0,40.0,314.5284162488955,[],"[1280, 720]",ColorTask,2.0,4.0,,,HRV,HRV_0308,2022-11-30 22:01:15
,wl-rdm,12,147053,0.0-6.4-0.4,0.0,11.0,,,,,,,[],,,,False,,,,50.0,1.0,i,1.0,True,2286.5,138.0,59.0,40.0,250.88151911032017,[],"[1280, 720]",ColorTask,3.0,5.0,,,HRV,HRV_0308,2022-11-30 22:01:15
,wl-rdm,13,149153,0.0-6.5-0.5,0.0,12.0,,,,,,,[],,,,False,,,,87.9,1.0,i,1.0,True,771.3000001907349,47.0,59.0,40.0,249.5573601650176,[],"[1280, 720]",ColorTask,4.0,6.0,,,HRV,HRV_0308,2022-11-30 22:01:15
,wl-rdm,14,151653,0.0-6.6-0.6,0.0,13.0,,,,,,,[],,,,False,,,,56.4,0.0,u,0.0,True,1230.5,74.0,59.0,40.0,205.37853113720874,[],"[1280, 720]",ColorTask,5.0,7.0,,,HRV,HRV_0308,2022-11-30 22:01:15
,wl-rdm,15,155703,0.0-6.7-0.7,0.0,14.0,,,,,,,[],,,,False,,,,50.0,1.0,u,0.0,False,2589.300000190735,156.0,59.0,40.0,373.1949356992193,[],"[1280, 720]",ColorTask,4.0,8.0,,,HRV,HRV_0308,2022-11-30 22:01:15
,wl-rdm,16,158569,0.0-6.8-0.8,0.0,15.0,,,,,,,[],,,,False,,,,62.5,1.0,i,1.0,True,1521.9000000953674,92.0,59.0,40.0,276.9909246191801,[],"[1280, 720]",ColorTask,5.0,9.0,,,HRV,HRV_0308,2022-11-30 22:01:15
,wl-rdm,17,160702,0.0-6.9-0.9,0.0,16.0,,,,,,,[],,,,False,,,,87.9,0.0,u,0.0,True,787.7000002861023,48.0,59.0,40.0,263.30183444911694,[],"[1280, 720]",ColorTask,6.0,10.0,,,HRV,HRV_0308,2022-11-30 22:01:15
,wl-rdm,18,162719,0.0-6.10-0.10,0.0,17.0,,,,,,,[],,,,False,,,,87.9,1.0,i,1.0,True,627.0999999046326,38.0,59.0,40.0,300.3408633366114,[],"[1280, 720]",ColorTask,7.0,11.0,,,HRV,HRV_0308,2022-11-30 22:01:15
,wl-rdm,19,166202,0.0-6.11-0.11,0.0,18.0,,,,,,,[],,,,False,,,,50.0,1.0,i,1.0,True,2102.5999999046326,128.0,59.0,40.0,292.7319668145059,[],"[1280, 720]",ColorTask,8.0,12.0,,,HRV,HRV_0308,2022-11-30 22:01:15
,wl-rdm,20,168385,0.0-6.12-0.12,0.0,19.0,,,,,,,[],,,,False,,,,87.9,0.0,u,0.0,True,749.1999998092651,45.0,59.0,40.0,353.37232982209287,[],"[1280, 720]",ColorTask,9.0,13.0,,,HRV,HRV_0308,2022-11-30 22:01:15
,wl-rdm,21,171669,0.0-6.13-0.13,0.0,20.0,,,,,,,[],,,,False,,,,53.2,1.0,i,1.0,True,2012.0999999046326,121.0,59.0,40.0,207.10581528639483,[],"[1280, 720]",ColorTask,10.0,14.0,,,HRV,HRV_0308,2022-11-30 22:01:15
,wl-rdm,22,175169,0.0-6.14-0.14,0.0,21.0,,,,,,,[],,,,False,,,,73.6,0.0,u,0.0,True,2097.300000190735,126.0,59.0,40.0,340.6652966882847,[],"[1280, 720]",ColorTask,11.0,15.0,,,HRV,HRV_0308,2022-11-30 22:01:15
,wl-rdm,23,178335,0.0-6.15-0.15,0.0,22.0,,,,,,,[],,,,False,,,,56.4,0.0,i,1.0,False,1838.5,111.0,59.0,40.0,259.28197067320167,[],"[1280, 720]",ColorTask,10.0,16.0,,,HRV,HRV_0308,2022-11-30 22:01:15
,wl-rdm,24,181252,0.0-6.16-0.16,0.0,23.0,,,,,,,[],,,,False,,,,73.6,0.0,u,0.0,True,1596.3999996185303,96.0,59.0,40.0,249.23648501027267,[],"[1280, 720]",ColorTask,11.0,17.0,,,HRV,HRV_0308,2022-11-30 22:01:15
,wl-rdm,25,183452,0.0-6.17-0.17,0.0,24.0,,,,,,,[],,,,False,,,,87.9,0.0,u,0.0,True,912.8999996185303,56.0,59.0,40.0,211.51146610369196,[],"[1280, 720]",ColorTask,12.0,18.0,,,HRV,HRV_0308,2022-11-30 22:01:15
,wl-rdm,26,186185,0.0-6.18-0.18,0.0,25.0,,,,,,,[],,,,False,,,,73.6,0.0,u,0.0,True,1434.0,87.0,59.0,40.0,213.7182510387689,[],"[1280, 720]",ColorTask,13.0,19.0,,,HRV,HRV_0308,2022-11-30 22:01:15
,wl-rdm,27,188285,0.0-6.19-0.19,0.0,26.0,,,,,,,[],,,,False,,,,87.9,0.0,u,0.0,True,810.1999998092651,49.0,59.0,40.0,202.19630013774594,[],"[1280, 720]",ColorTask,14.0,20.0,,,HRV,HRV_0308,2022-11-30 22:01:15
,wl-rdm,28,191084,0.0-6.20-0.20,0.0,27.0,,,,,,,[],,,,False,,,,73.6,0.0,u,0.0,True,1393.7999997138977,84.0,59.0,40.0,320.7154996572524,[],"[1280, 720]",ColorTask,15.0,21.0,,,HRV,HRV_0308,2022-11-30 22:01:15
,wl-rdm,29,193151,0.0-6.21-0.21,0.0,28.0,,,,,,,[],,,,False,,,,62.5,1.0,i,1.0,True,702.6000003814697,43.0,59.0,40.0,276.92930170395505,[],"[1280, 720]",ColorTask,16.0,22.0,,,HRV,HRV_0308,2022-11-30 22:01:15
,wl-rdm,30,196652,0.0-6.22-0.22,0.0,29.0,,,,,,,[],,,,False,,,,62.5,0.0,u,0.0,True,2188.5,132.0,59.0,40.0,228.82281865361523,[],"[1280, 720]",ColorTask,17.0,23.0,,,HRV,HRV_0308,2022-11-30 22:01:15
,wl-rdm,31,199951,0.0-6.23-0.23,0.0,30.0,,,,,,,[],,,,False,,,,50.0,1.0,i,1.0,True,1989.300000667572,120.0,59.0,40.0,230.16962169543058,[],"[1280, 720]",ColorTask,18.0,24.0,,,HRV,HRV_0308,2022-11-30 22:01:15
,wl-rdm,32,203702,0.0-6.24-0.24,0.0,31.0,,,,,,,[],,,,False,,,,62.5,0.0,u,0.0,True,2366.9000000953674,142.0,59.0,40.0,300.06923647454084,[],"[1280, 720]",ColorTask,19.0,25.0,,,HRV,HRV_0308,2022-11-30 22:01:15
,wl-rdm,33,206284,0.0-6.25-0.25,0.0,32.0,,,,,,,[],,,,False,,,,56.4,1.0,i,1.0,True,1214.5999999046326,73.0,59.0,40.0,301.5855989118986,[],"[1280, 720]",ColorTask,20.0,26.0,,,HRV,HRV_0308,2022-11-30 22:01:15
,wl-rdm,34,208734,0.0-6.26-0.26,0.0,33.0,,,,,,,[],,,,False,,,,50.0,1.0,i,1.0,True,1154.0999999046326,70.0,59.0,40.0,224.80977103751258,[],"[1280, 720]",ColorTask,21.0,27.0,,,HRV,HRV_0308,2022-11-30 22:01:15
,wl-rdm,35,212385,0.0-6.27-0.27,0.0,34.0,,,,,,,[],,,,False,,,,53.2,0.0,i,1.0,False,2272.4000000953674,137.0,59.0,40.0,297.27381959744855,[],"[1280, 720]",ColorTask,20.0,28.0,,,HRV,HRV_0308,2022-11-30 22:01:15
,wl-rdm,36,216134,0.0-6.28-0.28,0.0,35.0,,,,,,,[],,,,False,,,,56.4,0.0,i,1.0,False,2455.4000000953674,148.0,59.0,40.0,218.2561982611342,[],"[1280, 720]",ColorTask,19.0,29.0,,,HRV,HRV_0308,2022-11-30 22:01:15
,wl-rdm,37,218651,0.0-6.29-0.29,0.0,36.0,,,,,,,[],,,,False,,,,73.6,0.0,u,0.0,True,1135.1000003814697,69.0,59.0,40.0,303.23490282809286,[],"[1280, 720]",ColorTask,20.0,30.0,,,HRV,HRV_0308,2022-11-30 22:01:15
,wl-rdm,38,220717,0.0-6.30-0.30,0.0,37.0,,,,,,,[],,,,False,,,,73.6,1.0,i,1.0,True,666.0999999046326,40.0,59.0,40.0,326.5708738001709,[],"[1280, 720]",ColorTask,21.0,31.0,,,HRV,HRV_0308,2022-11-30 22:01:15
,wl-rdm,39,223617,0.0-6.31-0.31,0.0,38.0,,,,,,,[],,,,False,,,,87.9,1.0,i,1.0,True,1466.5999999046326,88.0,59.0,40.0,351.45924261175867,[],"[1280, 720]",ColorTask,22.0,32.0,,,HRV,HRV_0308,2022-11-30 22:01:15
,wl-rdm,40,225967,0.0-6.32-0.32,0.0,39.0,,,,,,,[],,,,False,,,,73.6,1.0,i,1.0,True,1048.0,63.0,59.0,40.0,233.15358830538912,[],"[1280, 720]",ColorTask,23.0,33.0,,,HRV,HRV_0308,2022-11-30 22:01:15
,wl-rdm,41,228017,0.0-6.33-0.33,0.0,40.0,,,,,,,[],,,,False,,,,56.4,1.0,i,1.0,True,670.3000001907349,40.0,59.0,40.0,300.7545241622742,[],"[1280, 720]",ColorTask,24.0,34.0,,,HRV,HRV_0308,2022-11-30 22:01:15
,wl-rdm,42,231667,0.0-6.34-0.34,0.0,41.0,,,,,,,[],,,,False,,,,53.2,1.0,i,1.0,True,2363.3999996185303,142.0,59.0,40.0,208.7725378122287,[],"[1280, 720]",ColorTask,25.0,35.0,,,HRV,HRV_0308,2022-11-30 22:01:15
,wl-rdm,43,234051,0.0-6.35-0.35,0.0,42.0,,,,,,,[],,,,False,,,,62.5,1.0,i,1.0,True,982.0,59.0,59.0,40.0,344.028488993128,[],"[1280, 720]",ColorTask,26.0,36.0,,,HRV,HRV_0308,2022-11-30 22:01:15
,wl-rdm,44,237934,0.0-6.36-0.36,0.0,43.0,,,,,,,[],,,,False,,,,56.4,0.0,i,1.0,False,2433.0,146.0,59.0,40.0,374.1366959666033,[],"[1280, 720]",ColorTask,25.0,37.0,,,HRV,HRV_0308,2022-11-30 22:01:15
,wl-rdm,45,240050,0.0-6.37-0.37,0.0,44.0,,,,,,,[],,,,False,,,,87.9,0.0,u,0.0,True,828.6000003814697,50.0,59.0,40.0,226.23177790216965,[],"[1280, 720]",ColorTask,26.0,38.0,,,HRV,HRV_0308,2022-11-30 22:01:15
,wl-rdm,46,243900,0.0-6.38-0.38,0.0,45.0,,,,,,,[],,,,False,,,,62.5,1.0,i,1.0,True,2470.9000000953674,149.0,59.0,40.0,297.1237541237296,[],"[1280, 720]",ColorTask,27.0,39.0,,,HRV,HRV_0308,2022-11-30 22:01:15
,wl-rdm,47,246233,0.0-6.39-0.39,0.0,46.0,,,,,,,[],,,,False,,,,73.6,0.0,u,0.0,True,987.0999999046326,60.0,59.0,40.0,268.9331514903081,[],"[1280, 720]",ColorTask,28.0,40.0,,,HRV,HRV_0308,2022-11-30 22:01:15
,wl-rdm,48,250649,0.0-6.40-0.40,0.0,47.0,,,,,,,[],,,,False,,,,53.2,0.0,i,1.0,False,3004.199999809265,176.0,59.0,40.0,323.5400351836518,[],"[1280, 720]",ColorTask,27.0,41.0,,,HRV,HRV_0308,2022-11-30 22:01:15
,wl-rdm,49,253199,0.0-6.41-0.41,0.0,48.0,,,,,,,[],,,,False,,,,56.4,1.0,i,1.0,True,1224.8000001907349,74.0,59.0,40.0,237.62531703948932,[],"[1280, 720]",ColorTask,28.0,42.0,,,HRV,HRV_0308,2022-11-30 22:01:15
,wl-rdm,50,256616,0.0-6.42-0.42,0.0,49.0,,,,,,,[],,,,False,,,,62.5,1.0,i,1.0,True,2015.9000000953674,121.0,59.0,40.0,330.4681479414875,[],"[1280, 720]",ColorTask,29.0,43.0,,,HRV,HRV_0308,2022-11-30 22:01:15
,wl-rdm,51,260916,0.0-6.43-0.43,0.0,50.0,,,,,,,[],,,,False,,,,62.5,0.0,u,0.0,True,2896.199999809265,174.0,59.0,40.0,325.3382833391491,[],"[1280, 720]",ColorTask,30.0,44.0,,,HRV,HRV_0308,2022-11-30 22:01:15
,wl-rdm,52,264599,0.0-6.44-0.44,0.0,51.0,,,,,,,[],,,,False,,,,56.4,0.0,u,0.0,True,2253.0999999046326,136.0,59.0,40.0,359.39314174923317,[],"[1280, 720]",ColorTask,31.0,45.0,,,HRV,HRV_0308,2022-11-30 22:01:15
,wl-rdm,53,267266,0.0-6.45-0.45,0.0,52.0,,,,,,,[],,,,False,,,,73.6,1.0,i,1.0,True,1324.9999995231628,80.0,59.0,40.0,259.1948791374809,[],"[1280, 720]",ColorTask,32.0,46.0,,,HRV,HRV_0308,2022-11-30 22:01:15
,wl-rdm,54,271316,0.0-6.46-0.46,0.0,53.0,,,,,,,[],,,,False,,,,56.4,1.0,i,1.0,True,2722.5999999046326,164.0,59.0,40.0,237.0998728150644,[],"[1280, 720]",ColorTask,33.0,47.0,,,HRV,HRV_0308,2022-11-30 22:01:15
,wl-rdm,55,273716,0.0-6.47-0.47,0.0,54.0,,,,,,,[],,,,False,,,,73.6,0.0,u,0.0,True,964.5999999046326,58.0,59.0,40.0,373.3187871050982,[],"[1280, 720]",ColorTask,34.0,48.0,,,HRV,HRV_0308,2022-11-30 22:01:15
,wl-rdm,56,275849,0.0-6.48-0.48,0.0,55.0,,,,,,,[],,,,False,,,,73.6,1.0,i,1.0,True,829.4000000953674,50.0,59.0,40.0,248.23043874191188,[],"[1280, 720]",ColorTask,35.0,49.0,,,HRV,HRV_0308,2022-11-30 22:01:15
,wl-rdm,57,280149,0.0-6.49-0.49,0.0,55.0,,,,,,,[],,,,True,RT_timeout ,,,56.4,0.0,u,,,3415.4000000953674,176.0,59.0,40.0,213.4291670827784,[],"[1280, 720]",ColorTask,34.0,50.0,,,HRV,HRV_0308,2022-11-30 22:01:15
,wl-rdm,58,283449,0.0-6.50-0.50,0.0,56.0,,,,,,,[],,,,False,,,,53.2,0.0,u,0.0,True,1869.8999996185303,113.0,59.0,40.0,348.7257357727816,[],"[1280, 720]",ColorTask,35.0,51.0,,,HRV,HRV_0308,2022-11-30 22:01:15
,wl-rdm,59,285733,0.0-6.51-0.51,0.0,57.0,,,,,,,[],,,,False,,,,56.4,1.0,i,1.0,True,828.8000001907349,50.0,59.0,40.0,382.82467921959903,[],"[1280, 720]",ColorTask,36.0,52.0,,,HRV,HRV_0308,2022-11-30 22:01:15
,wl-rdm,60,288565,0.0-6.52-0.52,0.0,58.0,,,,,,,[],,,,False,,,,62.5,0.0,u,0.0,True,1511.5,91.0,59.0,40.0,258.0947310161944,[],"[1280, 720]",ColorTask,37.0,53.0,,,HRV,HRV_0308,2022-11-30 22:01:15
,wl-rdm,61,291515,0.0-6.53-0.53,0.0,59.0,,,,,,,[],,,,False,,,,50.0,0.0,u,0.0,True,1638.7000002861023,99.0,59.0,40.0,235.6060427725373,[],"[1280, 720]",ColorTask,38.0,54.0,,,HRV,HRV_0308,2022-11-30 22:01:15
,wl-rdm,62,294599,0.0-6.54-0.54,0.0,60.0,,,,,,,[],,,,False,,,,50.0,1.0,i,1.0,True,1629.1999998092651,98.0,59.0,40.0,368.2141655411144,[],"[1280, 720]",ColorTask,39.0,55.0,,,HRV,HRV_0308,2022-11-30 22:01:15
,wl-rdm,63,297565,0.0-6.55-0.55,0.0,61.0,,,,,,,[],,,,False,,,,87.9,0.0,u,0.0,True,1504.0,91.0,59.0,40.0,395.31195645584404,[],"[1280, 720]",ColorTask,40.0,56.0,,,HRV,HRV_0308,2022-11-30 22:01:15
,wl-rdm,64,300032,0.0-6.56-0.56,0.0,62.0,,,,,,,[],,,,False,,,,53.2,1.0,i,1.0,True,1176.8000001907349,71.0,59.0,40.0,200.74173687354983,[],"[1280, 720]",ColorTask,41.0,57.0,,,HRV,HRV_0308,2022-11-30 22:01:15
,wl-rdm,65,302315,0.0-6.57-0.57,0.0,63.0,,,,,,,[],,,,False,,,,73.6,1.0,i,1.0,True,967.5,58.0,59.0,40.0,241.71740417379056,[],"[1280, 720]",ColorTask,42.0,58.0,,,HRV,HRV_0308,2022-11-30 22:01:15
,wl-rdm,66,305314,0.0-6.58-0.58,0.0,64.0,,,,,,,[],,,,False,,,,50.0,0.0,i,1.0,False,1708.3999996185303,103.0,59.0,40.0,212.21495005312823,[],"[1280, 720]",ColorTask,41.0,59.0,,,HRV,HRV_0308,2022-11-30 22:01:15
,wl-rdm,67,307665,0.0-6.59-0.59,0.0,65.0,,,,,,,[],,,,False,,,,73.6,1.0,i,1.0,True,1014.3000001907349,61.0,59.0,40.0,251.0313862423145,[],"[1280, 720]",ColorTask,42.0,60.0,,,HRV,HRV_0308,2022-11-30 22:01:15
,wl-rdm,68,310181,0.0-6.60-0.60,0.0,66.0,,,,,,,[],,,,False,,,,62.5,1.0,i,1.0,True,1176.1000003814697,71.0,59.0,40.0,251.61839009667585,[],"[1280, 720]",ColorTask,43.0,61.0,,,HRV,HRV_0308,2022-11-30 22:01:15
,wl-rdm,69,313397,0.0-6.61-0.61,0.0,67.0,,,,,,,[],,,,False,,,,56.4,0.0,i,1.0,False,1771.0999999046326,107.0,59.0,40.0,331.76954961677086,[],"[1280, 720]",ColorTask,42.0,62.0,,,HRV,HRV_0308,2022-11-30 22:01:15
,wl-rdm,70,315697,0.0-6.62-0.62,0.0,68.0,,,,,,,[],,,,False,,,,87.9,1.0,i,1.0,True,878.8000001907349,53.0,59.0,40.0,340.04221863008377,[],"[1280, 720]",ColorTask,43.0,63.0,,,HRV,HRV_0308,2022-11-30 22:01:15
,wl-rdm,71,318831,0.0-6.63-0.63,0.0,69.0,,,,,,,[],,,,False,,,,56.4,0.0,u,0.0,True,1835.7000002861023,111.0,59.0,40.0,215.04313457863432,[],"[1280, 720]",ColorTask,44.0,64.0,,,HRV,HRV_0308,2022-11-30 22:01:15
,wl-rdm,72,321214,0.0-6.64-0.64,0.0,70.0,,,,,,,[],,,,False,,,,62.5,0.0,u,0.0,True,984.8999996185303,60.0,59.0,40.0,315.7473978482352,[],"[1280, 720]",ColorTask,45.0,65.0,,,HRV,HRV_0308,2022-11-30 22:01:15
,wl-rdm,73,323599,0.0-6.65-0.65,0.0,71.0,,,,,,,[],,,,False,,,,62.5,0.0,u,0.0,True,1078.6999998092651,65.0,59.0,40.0,241.92634903829432,[],"[1280, 720]",ColorTask,46.0,66.0,,,HRV,HRV_0308,2022-11-30 22:01:15
,wl-rdm,74,327315,0.0-6.66-0.66,0.0,72.0,,,,,,,[],,,,False,,,,53.2,0.0,u,0.0,True,2320.0,140.0,59.0,40.0,303.9908782811895,[],"[1280, 720]",ColorTask,47.0,67.0,,,HRV,HRV_0308,2022-11-30 22:01:15
,wl-rdm,75,330115,0.0-6.67-0.67,0.0,73.0,,,,,,,[],,,,False,,,,56.4,1.0,i,1.0,True,1506.0,91.0,59.0,40.0,221.84640914795858,[],"[1280, 720]",ColorTask,48.0,68.0,,,HRV,HRV_0308,2022-11-30 22:01:15
,wl-rdm,76,333414,0.0-6.68-0.68,0.0,74.0,,,,,,,[],,,,False,,,,50.0,1.0,u,0.0,False,1918.7000002861023,116.0,59.0,40.0,301.6097896263621,[],"[1280, 720]",ColorTask,47.0,69.0,,,HRV,HRV_0308,2022-11-30 22:01:15
,wl-rdm,77,336548,0.0-6.69-0.69,0.0,75.0,,,,,,,[],,,,False,,,,50.0,0.0,u,0.0,True,1810.8999996185303,109.0,59.0,40.0,238.91442943118176,[],"[1280, 720]",ColorTask,48.0,70.0,,,HRV,HRV_0308,2022-11-30 22:01:15
,wl-rdm,78,339314,0.0-6.70-0.70,0.0,76.0,,,,,,,[],,,,False,,,,53.2,1.0,i,1.0,True,1451.5,88.0,59.0,40.0,221.91374423813932,[],"[1280, 720]",ColorTask,49.0,71.0,,,HRV,HRV_0308,2022-11-30 22:01:15
,wl-rdm,79,342064,0.0-6.71-0.71,0.0,77.0,,,,,,,[],,,,False,,,,53.2,1.0,i,1.0,True,1326.0999999046326,80.0,59.0,40.0,345.15772695972,[],"[1280, 720]",ColorTask,50.0,72.0,,,HRV,HRV_0308,2022-11-30 22:01:15
,wl-rdm,80,345080,0.0-6.72-0.72,0.0,78.0,,,,,,,[],,,,False,,,,53.2,1.0,i,1.0,True,1700.8999996185303,103.0,59.0,40.0,244.18695560880866,[],"[1280, 720]",ColorTask,51.0,73.0,,,HRV,HRV_0308,2022-11-30 22:01:15
,wl-rdm,81,348081,0.0-6.73-0.73,0.0,79.0,,,,,,,[],,,,False,,,,53.2,0.0,u,0.0,True,1722.8999996185303,104.0,59.0,40.0,213.45676388045842,[],"[1280, 720]",ColorTask,52.0,74.0,,,HRV,HRV_0308,2022-11-30 22:01:15
,wl-rdm,82,350364,0.0-6.74-0.74,0.0,80.0,,,,,,,[],,,,False,,,,62.5,1.0,i,1.0,True,819.5,50.0,59.0,40.0,371.97564045081947,[],"[1280, 720]",ColorTask,53.0,75.0,,,HRV,HRV_0308,2022-11-30 22:01:15
,wl-rdm,83,352681,0.0-6.75-0.75,0.0,81.0,,,,,,,[],,,,False,,,,53.2,0.0,u,0.0,True,993.5000004768372,60.0,59.0,40.0,250.4009692828767,[],"[1280, 720]",ColorTask,54.0,76.0,,,HRV,HRV_0308,2022-11-30 22:01:15
,wl-rdm,84,354864,0.0-6.76-0.76,0.0,82.0,,,,,,,[],,,,False,,,,50.0,1.0,i,1.0,True,739.3000001907349,45.0,59.0,40.0,355.2195117025911,[],"[1280, 720]",ColorTask,55.0,77.0,,,HRV,HRV_0308,2022-11-30 22:01:15
,wl-rdm,85,358097,0.0-6.77-0.77,0.0,83.0,,,,,,,[],,,,False,,,,50.0,0.0,i,1.0,False,1753.0999999046326,106.0,59.0,40.0,395.06623181452676,[],"[1280, 720]",ColorTask,54.0,78.0,,,HRV,HRV_0308,2022-11-30 22:01:15
,wl-rdm,86,360180,0.0-6.78-0.78,0.0,84.0,,,,,,,[],,,,False,,,,87.9,1.0,i,1.0,True,786.0,48.0,59.0,40.0,213.15600025059175,[],"[1280, 720]",ColorTask,55.0,79.0,,,HRV,HRV_0308,2022-11-30 22:01:15
,wl-rdm,87,363030,0.0-6.79-0.79,0.0,85.0,,,,,,,[],,,,False,,,,73.6,1.0,i,1.0,True,1406.5999999046326,85.0,59.0,40.0,355.3318615388155,[],"[1280, 720]",ColorTask,56.0,80.0,,,HRV,HRV_0308,2022-11-30 22:01:15
,wl-rdm,88,365313,0.0-6.80-0.80,0.0,86.0,,,,,,,[],,,,False,,,,62.5,0.0,u,0.0,True,983.9000000953674,60.0,59.0,40.0,210.0081472477475,[],"[1280, 720]",ColorTask,57.0,81.0,,,HRV,HRV_0308,2022-11-30 22:01:15
,wl-rdm,89,367780,0.0-6.81-0.81,0.0,87.0,,,,,,,[],,,,False,,,,56.4,1.0,i,1.0,True,1169.2000002861023,71.0,59.0,40.0,214.5456325212892,[],"[1280, 720]",ColorTask,58.0,82.0,,,HRV,HRV_0308,2022-11-30 22:01:15
,wl-rdm,90,371146,0.0-6.82-0.82,0.0,88.0,,,,,,,[],,,,False,,,,50.0,0.0,i,1.0,False,1947.6999998092651,117.0,59.0,40.0,352.1594936785051,[],"[1280, 720]",ColorTask,57.0,83.0,,,HRV,HRV_0308,2022-11-30 22:01:15
,wl-rdm,91,373963,0.0-6.83-0.83,0.0,89.0,,,,,,,[],,,,False,,,,56.4,0.0,u,0.0,True,1366.4000000953674,82.0,59.0,40.0,367.67391451873607,[],"[1280, 720]",ColorTask,58.0,84.0,,,HRV,HRV_0308,2022-11-30 22:01:15
,wl-rdm,92,376163,0.0-6.84-0.84,0.0,90.0,,,,,,,[],,,,False,,,,87.9,0.0,u,0.0,True,851.9000005722046,52.0,59.0,40.0,258.70952741611165,[],"[1280, 720]",ColorTask,59.0,85.0,,,HRV,HRV_0308,2022-11-30 22:01:15
,wl-rdm,93,379413,0.0-6.85-0.85,0.0,91.0,,,,,,,[],,,,False,,,,62.5,1.0,i,1.0,True,1932.7000002861023,116.0,59.0,40.0,250.09960450882517,[],"[1280, 720]",ColorTask,60.0,86.0,,,HRV,HRV_0308,2022-11-30 22:01:15
,wl-rdm,94,381730,0.0-6.86-0.86,0.0,92.0,,,,,,,[],,,,False,,,,73.6,0.0,u,0.0,True,895.8000001907349,54.0,59.0,40.0,342.20695887564693,[],"[1280, 720]",ColorTask,61.0,87.0,,,HRV,HRV_0308,2022-11-30 22:01:15
,wl-rdm,95,384563,0.0-6.87-0.87,0.0,93.0,,,,,,,[],,,,False,,,,50.0,0.0,i,1.0,False,1507.4000000953674,91.0,59.0,40.0,236.9235055315321,[],"[1280, 720]",ColorTask,60.0,88.0,,,HRV,HRV_0308,2022-11-30 22:01:15
,wl-rdm,96,386830,0.0-6.88-0.88,0.0,94.0,,,,,,,[],,,,False,,,,87.9,1.0,i,1.0,True,961.2999997138977,58.0,59.0,40.0,237.3731212779098,[],"[1280, 720]",ColorTask,61.0,89.0,,,HRV,HRV_0308,2022-11-30 22:01:15
,wl-rdm,97,390197,0.0-6.89-0.89,0.0,95.0,,,,,,,[],,,,False,,,,50.0,0.0,u,0.0,True,1965.9000000953674,118.0,59.0,40.0,322.5599615480891,[],"[1280, 720]",ColorTask,62.0,90.0,,,HRV,HRV_0308,2022-11-30 22:01:15
,wl-rdm,98,392297,0.0-6.90-0.90,0.0,96.0,,,,,,,[],,,,False,,,,73.6,1.0,i,1.0,True,649.0999999046326,39.0,59.0,40.0,392.32952561826374,[],"[1280, 720]",ColorTask,63.0,91.0,,,HRV,HRV_0308,2022-11-30 22:01:15
,wl-rdm,99,394430,0.0-6.91-0.91,0.0,97.0,,,,,,,[],,,,False,,,,87.9,0.0,u,0.0,True,692.5,42.0,59.0,40.0,366.8958455436442,[],"[1280, 720]",ColorTask,64.0,92.0,,,HRV,HRV_0308,2022-11-30 22:01:15
,wl-rdm,100,397130,0.0-6.92-0.92,0.0,98.0,,,,,,,[],,,,False,,,,62.5,0.0,u,0.0,True,1366.6000003814697,82.0,59.0,40.0,254.70281680813974,[],"[1280, 720]",ColorTask,65.0,93.0,,,HRV,HRV_0308,2022-11-30 22:01:15
,wl-rdm,101,399230,0.0-6.93-0.93,0.0,99.0,,,,,,,[],,,,False,,,,87.9,1.0,i,1.0,True,701.5,43.0,59.0,40.0,330.1009450940829,[],"[1280, 720]",ColorTask,66.0,94.0,,,HRV,HRV_0308,2022-11-30 22:01:15
,wl-rdm,102,402446,0.0-6.94-0.94,0.0,100.0,,,,,,,[],,,,False,,,,50.0,1.0,i,1.0,True,1907.4000000953674,115.0,59.0,40.0,231.3225468297898,[],"[1280, 720]",ColorTask,67.0,95.0,,,HRV,HRV_0308,2022-11-30 22:01:15
,wl-rdm,103,404713,0.0-6.95-0.95,0.0,101.0,,,,,,,[],,,,False,,,,73.6,0.0,u,0.0,True,931.0,56.0,59.0,40.0,272.0876667458408,[],"[1280, 720]",ColorTask,68.0,96.0,,,HRV,HRV_0308,2022-11-30 22:01:15
,wl-rdm,104,406729,0.0-6.96-0.96,0.0,102.0,,,,,,,[],,,,False,,,,87.9,0.0,u,0.0,True,728.0,44.0,59.0,40.0,224.35365499965482,[],"[1280, 720]",ColorTask,69.0,97.0,,,HRV,HRV_0308,2022-11-30 22:01:15
,wl-rdm,105,408846,0.0-6.97-0.97,0.0,103.0,,,,,,,[],,,,False,,,,62.5,1.0,i,1.0,True,686.800000667572,42.0,59.0,40.0,336.4222262397273,[],"[1280, 720]",ColorTask,70.0,98.0,,,HRV,HRV_0308,2022-11-30 22:01:15
,wl-rdm,106,412413,0.0-6.98-0.98,0.0,104.0,,,,,,,[],,,,False,,,,53.2,0.0,u,0.0,True,2254.5999999046326,136.0,59.0,40.0,239.02395876916935,[],"[1280, 720]",ColorTask,71.0,99.0,,,HRV,HRV_0308,2022-11-30 22:01:15
,wl-rdm,107,415446,0.0-6.99-0.99,0.0,105.0,,,,,,,[],,,,False,,,,53.2,0.0,u,0.0,True,1653.7999997138977,100.0,59.0,40.0,332.6107392122935,[],"[1280, 720]",ColorTask,72.0,100.0,,,HRV,HRV_0308,2022-11-30 22:01:15
,wl-rdm,108,418663,0.0-6.100-0.100,0.0,106.0,,,,,,,[],,,,False,,,,50.0,0.0,u,0.0,True,1877.1999998092651,113.0,59.0,40.0,256.19138718005235,[],"[1280, 720]",ColorTask,73.0,101.0,,,HRV,HRV_0308,2022-11-30 22:01:15
,wl-rdm,109,421213,0.0-6.101-0.101,0.0,107.0,,,,,,,[],,,,False,,,,62.5,0.0,u,0.0,True,1247.0,75.0,59.0,40.0,244.0873420398512,[],"[1280, 720]",ColorTask,74.0,102.0,,,HRV,HRV_0308,2022-11-30 22:01:15
,wl-rdm,110,424496,0.0-6.102-0.102,0.0,108.0,,,,,,,[],,,,False,,,,53.2,1.0,i,1.0,True,1996.7999997138977,120.0,59.0,40.0,202.68571688115694,[],"[1280, 720]",ColorTask,75.0,103.0,,,HRV,HRV_0308,2022-11-30 22:01:15
,wl-rdm,111,426845,0.0-6.103-0.103,0.0,109.0,,,,,,,[],,,,False,,,,73.6,1.0,i,1.0,True,961.6999998092651,58.0,59.0,40.0,307.10166268723066,[],"[1280, 720]",ColorTask,76.0,104.0,,,HRV,HRV_0308,2022-11-30 22:01:15
,wl-rdm,112,429945,0.0-6.104-0.104,0.0,110.0,,,,,,,[],,,,False,,,,56.4,1.0,i,1.0,True,1761.5,106.0,59.0,40.0,274.09279551497013,[],"[1280, 720]",ColorTask,77.0,105.0,,,HRV,HRV_0308,2022-11-30 22:01:15
,wl-rdm,113,432962,0.0-6.105-0.105,0.0,111.0,,,,,,,[],,,,False,,,,56.4,1.0,i,1.0,True,1543.4000000953674,93.0,59.0,40.0,399.28529906744507,[],"[1280, 720]",ColorTask,78.0,106.0,,,HRV,HRV_0308,2022-11-30 22:01:15
,wl-rdm,114,435911,0.0-6.106-0.106,0.0,112.0,,,,,,,[],,,,False,,,,56.4,0.0,u,0.0,True,1563.7999997138977,94.0,59.0,40.0,325.1580342013992,[],"[1280, 720]",ColorTask,79.0,107.0,,,HRV,HRV_0308,2022-11-30 22:01:15
,wl-rdm,115,437936,0.0-6.107-0.107,0.0,113.0,,,,,,,[],,,,False,,,,87.9,1.0,i,1.0,True,647.1999998092651,39.0,59.0,40.0,293.5015668580822,[],"[1280, 720]",ColorTask,80.0,108.0,,,HRV,HRV_0308,2022-11-30 22:01:15
,wl-rdm,116,440363,0.0-6.108-0.108,0.0,114.0,,,,,,,[],,,,False,,,,50.0,0.0,i,1.0,False,998.7999997138977,60.0,59.0,40.0,358.3154554790766,[],"[1280, 720]",ColorTask,79.0,109.0,,,HRV,HRV_0308,2022-11-30 22:01:15
,wl-html-keyboard-response,117,481952,0.0-7.0-0.0,1.0,115.0,,,,,,,,39578.90000009537,1.0,0,,,,,,,,,,,,,,,,,,,,,,HRV,HRV_0308,2022-11-30 22:01:15
,wl-rdm,118,485094,0.0-8.0-0.0,1.0,116.0,,,,,,,[],,,,False,,,,50.0,0.0,i,1.0,False,1748.0,105.0,59.0,40.0,321.38429014297805,[],"[1280, 720]",ColorTask,78.0,1.0,,,HRV,HRV_0308,2022-11-30 22:01:15
,wl-rdm,119,488260,0.0-8.1-0.1,1.0,117.0,,,,,,,[],,,,False,,,,53.2,0.0,u,0.0,True,1796.5999999046326,108.0,59.0,40.0,316.7568102304864,[],"[1280, 720]",ColorTask,79.0,2.0,,,HRV,HRV_0308,2022-11-30 22:01:15
,wl-rdm,120,491529,0.0-8.2-0.2,1.0,118.0,,,,,,,[],,,,False,,,,50.0,1.0,i,1.0,True,1819.6999998092651,110.0,59.0,40.0,361.70381146136265,[],"[1280, 720]",ColorTask,80.0,3.0,,,HRV,HRV_0308,2022-11-30 22:01:15
,wl-rdm,121,494627,0.0-8.3-0.3,1.0,119.0,,,,,,,[],,,,False,,,,56.4,0.0,u,0.0,True,1739.1000003814697,105.0,59.0,40.0,290.3733130311881,[],"[1280, 720]",ColorTask,81.0,4.0,,,HRV,HRV_0308,2022-11-30 22:01:15
,wl-rdm,122,497944,0.0-8.4-0.4,1.0,120.0,,,,,,,[],,,,False,,,,53.2,1.0,i,1.0,True,2006.0,121.0,59.0,40.0,228.3095572779451,[],"[1280, 720]",ColorTask,82.0,5.0,,,HRV,HRV_0308,2022-11-30 22:01:15
,wl-rdm,123,501211,0.0-8.5-0.5,1.0,121.0,,,,,,,[],,,,False,,,,56.4,1.0,i,1.0,True,1960.2000007629395,118.0,59.0,40.0,242.84919649006184,[],"[1280, 720]",ColorTask,83.0,6.0,,,HRV,HRV_0308,2022-11-30 22:01:15
,wl-rdm,124,503811,0.0-8.6-0.6,1.0,122.0,,,,,,,[],,,,False,,,,53.2,0.0,u,0.0,True,1240.8000001907349,75.0,59.0,40.0,280.1699142953661,[],"[1280, 720]",ColorTask,84.0,7.0,,,HRV,HRV_0308,2022-11-30 22:01:15
,wl-rdm,125,505944,0.0-8.7-0.7,1.0,123.0,,,,,,,[],,,,False,,,,87.9,0.0,u,0.0,True,740.5999999046326,45.0,59.0,40.0,315.55510305396405,[],"[1280, 720]",ColorTask,85.0,8.0,,,HRV,HRV_0308,2022-11-30 22:01:15
,wl-rdm,126,508044,0.0-8.8-0.8,1.0,124.0,,,,,,,[],,,,False,,,,87.9,1.0,i,1.0,True,692.5,42.0,59.0,40.0,341.0064666760185,[],"[1280, 720]",ColorTask,86.0,9.0,,,HRV,HRV_0308,2022-11-30 22:01:15
,wl-rdm,127,511110,0.0-8.9-0.9,1.0,125.0,,,,,,,[],,,,False,,,,53.2,1.0,i,1.0,True,1754.4000000953674,106.0,59.0,40.0,242.19548406015218,[],"[1280, 720]",ColorTask,87.0,10.0,,,HRV,HRV_0308,2022-11-30 22:01:15
,wl-rdm,128,513960,0.0-8.10-0.10,1.0,126.0,,,,,,,[],,,,False,,,,56.4,0.0,i,1.0,False,1411.0,85.0,59.0,40.0,367.19558084159564,[],"[1280, 720]",ColorTask,86.0,11.0,,,HRV,HRV_0308,2022-11-30 22:01:15
,wl-rdm,129,517078,0.0-8.11-0.11,1.0,127.0,,,,,,,[],,,,False,,,,53.2,0.0,u,0.0,True,1664.1000003814697,100.0,59.0,40.0,379.75670472271463,[],"[1280, 720]",ColorTask,87.0,12.0,,,HRV,HRV_0308,2022-11-30 22:01:15
,wl-rdm,130,519094,0.0-8.12-0.12,1.0,128.0,,,,,,,[],,,,False,,,,87.9,1.0,i,1.0,True,583.9000000953674,36.0,59.0,40.0,348.30332277687256,[],"[1280, 720]",ColorTask,88.0,13.0,,,HRV,HRV_0308,2022-11-30 22:01:15
,wl-rdm,131,521643,0.0-8.13-0.13,1.0,129.0,,,,,,,[],,,,False,,,,62.5,1.0,i,1.0,True,1191.5,72.0,59.0,40.0,284.42698924835344,[],"[1280, 720]",ColorTask,89.0,14.0,,,HRV,HRV_0308,2022-11-30 22:01:15
,wl-rdm,132,524627,0.0-8.14-0.14,1.0,130.0,,,,,,,[],,,,False,,,,56.4,1.0,i,1.0,True,1684.2999997138977,102.0,59.0,40.0,223.0553224053974,[],"[1280, 720]",ColorTask,90.0,15.0,,,HRV,HRV_0308,2022-11-30 22:01:15
,wl-rdm,133,527510,0.0-8.15-0.15,1.0,131.0,,,,,,,[],,,,False,,,,56.4,0.0,u,0.0,True,1596.0999999046326,96.0,59.0,40.0,229.26459967971255,[],"[1280, 720]",ColorTask,91.0,16.0,,,HRV,HRV_0308,2022-11-30 22:01:15
,wl-rdm,134,529643,0.0-8.16-0.16,1.0,132.0,,,,,,,[],,,,False,,,,62.5,1.0,i,1.0,True,840.0,51.0,59.0,40.0,228.87552993368325,[],"[1280, 720]",ColorTask,92.0,17.0,,,HRV,HRV_0308,2022-11-30 22:01:15
,wl-rdm,135,531727,0.0-8.17-0.17,1.0,133.0,,,,,,,[],,,,False,,,,87.9,0.0,u,0.0,True,759.9000000953674,46.0,59.0,40.0,258.8661856428406,[],"[1280, 720]",ColorTask,93.0,18.0,,,HRV,HRV_0308,2022-11-30 22:01:15
,wl-rdm,136,534793,0.0-8.18-0.18,1.0,134.0,,,,,,,[],,,,False,,,,53.2,0.0,u,0.0,True,1707.0,103.0,59.0,40.0,266.48078612874315,[],"[1280, 720]",ColorTask,94.0,19.0,,,HRV,HRV_0308,2022-11-30 22:01:15
,wl-rdm,137,538259,0.0-8.19-0.19,1.0,135.0,,,,,,,[],,,,False,,,,50.0,1.0,u,0.0,False,2083.9000000953674,126.0,59.0,40.0,311.0712375630431,[],"[1280, 720]",ColorTask,93.0,20.0,,,HRV,HRV_0308,2022-11-30 22:01:15
,wl-rdm,138,540510,0.0-8.20-0.20,1.0,136.0,,,,,,,[],,,,False,,,,73.6,0.0,u,0.0,True,944.8999996185303,57.0,59.0,40.0,219.54146025275426,[],"[1280, 720]",ColorTask,94.0,21.0,,,HRV,HRV_0308,2022-11-30 22:01:15
,wl-rdm,139,543243,0.0-8.21-0.21,1.0,137.0,,,,,,,[],,,,False,,,,56.4,0.0,u,0.0,True,1316.1999998092651,79.0,59.0,40.0,336.38471628931666,[],"[1280, 720]",ColorTask,95.0,22.0,,,HRV,HRV_0308,2022-11-30 22:01:15
,wl-rdm,140,545310,0.0-8.22-0.22,1.0,138.0,,,,,,,[],,,,False,,,,87.9,1.0,i,1.0,True,619.5,38.0,59.0,40.0,364.54761188327944,[],"[1280, 720]",ColorTask,96.0,23.0,,,HRV,HRV_0308,2022-11-30 22:01:15
,wl-rdm,141,548093,0.0-8.23-0.23,1.0,139.0,,,,,,,[],,,,False,,,,62.5,0.0,u,0.0,True,1515.9000000953674,91.0,59.0,40.0,214.64290931837175,[],"[1280, 720]",ColorTask,97.0,24.0,,,HRV,HRV_0308,2022-11-30 22:01:15
,wl-rdm,142,550043,0.0-8.24-0.24,1.0,140.0,,,,,,,[],,,,False,,,,87.9,1.0,i,1.0,True,667.5999999046326,41.0,59.0,40.0,202.13939046309395,[],"[1280, 720]",ColorTask,98.0,25.0,,,HRV,HRV_0308,2022-11-30 22:01:15
,wl-rdm,143,552459,0.0-8.25-0.25,1.0,141.0,,,,,,,[],,,,False,,,,62.5,0.0,u,0.0,True,1038.5999999046326,63.0,59.0,40.0,314.8056609400287,[],"[1280, 720]",ColorTask,99.0,26.0,,,HRV,HRV_0308,2022-11-30 22:01:15
,wl-rdm,144,554426,0.0-8.26-0.26,1.0,142.0,,,,,,,[],,,,False,,,,53.2,1.0,i,1.0,True,667.6000003814697,41.0,59.0,40.0,233.91840620434328,[],"[1280, 720]",ColorTask,100.0,27.0,,,HRV,HRV_0308,2022-11-30 22:01:15
,wl-rdm,145,556825,0.0-8.27-0.27,1.0,143.0,,,,,,,[],,,,False,,,,50.0,0.0,u,0.0,True,1067.0999999046326,65.0,59.0,40.0,254.97951907573423,[],"[1280, 720]",ColorTask,101.0,28.0,,,HRV,HRV_0308,2022-11-30 22:01:15
,wl-rdm,146,560092,0.0-8.28-0.28,1.0,144.0,,,,,,,[],,,,False,,,,50.0,1.0,u,0.0,False,1951.0999999046326,118.0,59.0,40.0,225.0009684697605,[],"[1280, 720]",ColorTask,100.0,29.0,,,HRV,HRV_0308,2022-11-30 22:01:15
,wl-rdm,147,562210,0.0-8.29-0.29,1.0,145.0,,,,,,,[],,,,False,,,,62.5,1.0,i,1.0,True,657.0,40.0,59.0,40.0,376.024125511879,[],"[1280, 720]",ColorTask,101.0,30.0,,,HRV,HRV_0308,2022-11-30 22:01:15
,wl-rdm,148,564644,0.0-8.30-0.30,1.0,146.0,,,,,,,[],,,,False,,,,62.5,1.0,i,1.0,True,1149.0,69.0,59.0,40.0,225.39066514766517,[],"[1280, 720]",ColorTask,102.0,31.0,,,HRV,HRV_0308,2022-11-30 22:01:15
,wl-rdm,149,567943,0.0-8.31-0.31,1.0,147.0,,,,,,,[],,,,False,,,,53.2,0.0,u,0.0,True,1817.0,110.0,59.0,40.0,391.77266227292677,[],"[1280, 720]",ColorTask,103.0,32.0,,,HRV,HRV_0308,2022-11-30 22:01:15
,wl-rdm,150,570026,0.0-8.32-0.32,1.0,148.0,,,,,,,[],,,,False,,,,87.9,0.0,u,0.0,True,656.5,40.0,59.0,40.0,357.806364744873,[],"[1280, 720]",ColorTask,104.0,33.0,,,HRV,HRV_0308,2022-11-30 22:01:15
,wl-rdm,151,573210,0.0-8.33-0.33,1.0,149.0,,,,,,,[],,,,False,,,,56.4,1.0,i,1.0,True,1895.4000000953674,114.0,59.0,40.0,201.801800637703,[],"[1280, 720]",ColorTask,105.0,34.0,,,HRV,HRV_0308,2022-11-30 22:01:15
,wl-rdm,152,576527,0.0-8.34-0.34,1.0,150.0,,,,,,,[],,,,False,,,,50.0,1.0,i,1.0,True,1934.0999999046326,116.0,59.0,40.0,313.04791403999684,[],"[1280, 720]",ColorTask,106.0,35.0,,,HRV,HRV_0308,2022-11-30 22:01:15
,wl-rdm,153,578692,0.0-8.35-0.35,1.0,151.0,,,,,,,[],,,,False,,,,73.6,1.0,i,1.0,True,874.1999998092651,53.0,59.0,40.0,207.28920745878415,[],"[1280, 720]",ColorTask,107.0,36.0,,,HRV,HRV_0308,2022-11-30 22:01:15
,wl-rdm,154,581626,0.0-8.36-0.36,1.0,152.0,,,,,,,[],,,,False,,,,56.4,1.0,i,1.0,True,1544.5999999046326,93.0,59.0,40.0,320.04699106742964,[],"[1280, 720]",ColorTask,108.0,37.0,,,HRV,HRV_0308,2022-11-30 22:01:15
,wl-rdm,155,584926,0.0-8.37-0.37,1.0,153.0,,,,,,,[],,,,False,,,,53.2,1.0,u,0.0,False,1996.5,120.0,59.0,40.0,222.32384154709436,[],"[1280, 720]",ColorTask,107.0,38.0,,,HRV,HRV_0308,2022-11-30 22:01:15
,wl-rdm,156,587376,0.0-8.38-0.38,1.0,154.0,,,,,,,[],,,,False,,,,56.4,1.0,i,1.0,True,1160.5,70.0,59.0,40.0,215.6136102936521,[],"[1280, 720]",ColorTask,108.0,39.0,,,HRV,HRV_0308,2022-11-30 22:01:15
,wl-rdm,157,590093,0.0-8.39-0.39,1.0,155.0,,,,,,,[],,,,False,,,,62.5,1.0,i,1.0,True,1382.1999998092651,83.0,59.0,40.0,275.1872247672395,[],"[1280, 720]",ColorTask,109.0,40.0,,,HRV,HRV_0308,2022-11-30 22:01:15
,wl-rdm,158,593609,0.0-8.40-0.40,1.0,156.0,,,,,,,[],,,,False,,,,50.0,1.0,i,1.0,True,2083.9000000953674,125.0,59.0,40.0,351.47134461191524,[],"[1280, 720]",ColorTask,110.0,41.0,,,HRV,HRV_0308,2022-11-30 22:01:15
,wl-rdm,159,596692,0.0-8.41-0.41,1.0,157.0,,,,,,,[],,,,False,,,,50.0,0.0,i,1.0,False,1700.3000001907349,103.0,59.0,40.0,320.9975273611859,[],"[1280, 720]",ColorTask,109.0,42.0,,,HRV,HRV_0308,2022-11-30 22:01:15
,wl-rdm,160,598876,0.0-8.42-0.42,1.0,158.0,,,,,,,[],,,,False,,,,87.9,1.0,i,1.0,True,716.5,43.0,59.0,40.0,388.889818987388,[],"[1280, 720]",ColorTask,110.0,43.0,,,HRV,HRV_0308,2022-11-30 22:01:15
,wl-rdm,161,600942,0.0-8.43-0.43,1.0,159.0,,,,,,,[],,,,False,,,,73.6,0.0,u,0.0,True,734.4000000953674,45.0,59.0,40.0,258.20973802478744,[],"[1280, 720]",ColorTask,111.0,44.0,,,HRV,HRV_0308,2022-11-30 22:01:15
,wl-rdm,162,603925,0.0-8.44-0.44,1.0,160.0,,,,,,,[],,,,False,,,,53.2,0.0,u,0.0,True,1702.0999999046326,103.0,59.0,40.0,201.5142458717904,[],"[1280, 720]",ColorTask,112.0,45.0,,,HRV,HRV_0308,2022-11-30 22:01:15
,wl-rdm,163,605941,0.0-8.45-0.45,1.0,161.0,,,,,,,[],,,,False,,,,87.9,0.0,u,0.0,True,613.5999999046326,37.0,59.0,40.0,345.1403355364837,[],"[1280, 720]",ColorTask,113.0,46.0,,,HRV,HRV_0308,2022-11-30 22:01:15
,wl-rdm,164,609075,0.0-8.46-0.46,1.0,162.0,,,,,,,[],,,,False,,,,50.0,0.0,i,1.0,False,1756.9000000953674,106.0,59.0,40.0,285.9906923746235,[],"[1280, 720]",ColorTask,112.0,47.0,,,HRV,HRV_0308,2022-11-30 22:01:15
,wl-rdm,165,612392,0.0-8.47-0.47,1.0,163.0,,,,,,,[],,,,False,,,,50.0,1.0,u,0.0,False,1988.8000001907349,120.0,59.0,40.0,245.70053125298338,[],"[1280, 720]",ColorTask,111.0,48.0,,,HRV,HRV_0308,2022-11-30 22:01:15
,wl-rdm,166,614492,0.0-8.48-0.48,1.0,164.0,,,,,,,[],,,,False,,,,87.9,1.0,i,1.0,True,815.5,49.0,59.0,40.0,225.95933661636178,[],"[1280, 720]",ColorTask,112.0,49.0,,,HRV,HRV_0308,2022-11-30 22:01:15
,wl-rdm,167,616925,0.0-8.49-0.49,1.0,165.0,,,,,,,[],,,,False,,,,62.5,0.0,u,0.0,True,1077.0999999046326,65.0,59.0,40.0,276.4329663701258,[],"[1280, 720]",ColorTask,113.0,50.0,,,HRV,HRV_0308,2022-11-30 22:01:15
,wl-rdm,168,619625,0.0-8.50-0.50,1.0,166.0,,,,,,,[],,,,False,,,,56.4,1.0,i,1.0,True,1371.2999997138977,83.0,59.0,40.0,253.06979810172373,[],"[1280, 720]",ColorTask,114.0,51.0,,,HRV,HRV_0308,2022-11-30 22:01:15
,wl-rdm,169,621725,0.0-8.51-0.51,1.0,167.0,,,,,,,[],,,,False,,,,87.9,1.0,i,1.0,True,778.0,47.0,59.0,40.0,254.79046206163684,[],"[1280, 720]",ColorTask,115.0,52.0,,,HRV,HRV_0308,2022-11-30 22:01:15
,wl-rdm,170,624375,0.0-8.52-0.52,1.0,168.0,,,,,,,[],,,,False,,,,56.4,0.0,i,1.0,False,1212.3000001907349,73.0,59.0,40.0,362.6474618772874,[],"[1280, 720]",ColorTask,114.0,53.0,,,HRV,HRV_0308,2022-11-30 22:01:15
,wl-rdm,171,626808,0.0-8.53-0.53,1.0,169.0,,,,,,,[],,,,False,,,,73.6,0.0,u,0.0,True,1096.9000000953674,66.0,59.0,40.0,265.5077574376801,[],"[1280, 720]",ColorTask,115.0,54.0,,,HRV,HRV_0308,2022-11-30 22:01:15
,wl-rdm,172,629158,0.0-8.54-0.54,1.0,170.0,,,,,,,[],,,,False,,,,87.9,0.0,u,0.0,True,988.8000001907349,60.0,59.0,40.0,295.9215645325497,[],"[1280, 720]",ColorTask,116.0,55.0,,,HRV,HRV_0308,2022-11-30 22:01:15
,wl-rdm,173,631191,0.0-8.55-0.55,1.0,171.0,,,,,,,[],,,,False,,,,73.6,1.0,i,1.0,True,645.4000000953674,39.0,59.0,40.0,328.3311728202309,[],"[1280, 720]",ColorTask,117.0,56.0,,,HRV,HRV_0308,2022-11-30 22:01:15
,wl-rdm,174,633374,0.0-8.56-0.56,1.0,172.0,,,,,,,[],,,,False,,,,73.6,1.0,i,1.0,True,888.4000000953674,54.0,59.0,40.0,202.56873290532158,[],"[1280, 720]",ColorTask,118.0,57.0,,,HRV,HRV_0308,2022-11-30 22:01:15
,wl-rdm,175,636791,0.0-8.57-0.57,1.0,173.0,,,,,,,[],,,,False,,,,53.2,0.0,u,0.0,True,2075.4000000953674,125.0,59.0,40.0,260.0302895439615,[],"[1280, 720]",ColorTask,119.0,58.0,,,HRV,HRV_0308,2022-11-30 22:01:15
,wl-rdm,176,639208,0.0-8.58-0.58,1.0,174.0,,,,,,,[],,,,False,,,,73.6,0.0,u,0.0,True,994.8999996185303,60.0,59.0,40.0,347.3302044220236,[],"[1280, 720]",ColorTask,120.0,59.0,,,HRV,HRV_0308,2022-11-30 22:01:15
,wl-rdm,177,641275,0.0-8.59-0.59,1.0,175.0,,,,,,,[],,,,False,,,,50.0,0.0,i,1.0,False,768.8999996185303,47.0,59.0,40.0,230.53842941698474,[],"[1280, 720]",ColorTask,119.0,60.0,,,HRV,HRV_0308,2022-11-30 22:01:15
,wl-rdm,178,643358,0.0-8.60-0.60,1.0,176.0,,,,,,,[],,,,False,,,,73.6,0.0,u,0.0,True,763.5999999046326,46.0,59.0,40.0,233.4151986210233,[],"[1280, 720]",ColorTask,120.0,61.0,,,HRV,HRV_0308,2022-11-30 22:01:15
,wl-rdm,179,645908,0.0-8.61-0.61,1.0,177.0,,,,,,,[],,,,False,,,,73.6,1.0,i,1.0,True,1104.6999998092651,67.0,59.0,40.0,377.5841068445154,[],"[1280, 720]",ColorTask,121.0,62.0,,,HRV,HRV_0308,2022-11-30 22:01:15
,wl-rdm,180,649608,0.0-8.62-0.62,1.0,178.0,,,,,,,[],,,,False,,,,50.0,0.0,u,0.0,True,2369.7999997138977,143.0,59.0,40.0,243.96933414842448,[],"[1280, 720]",ColorTask,122.0,63.0,,,HRV,HRV_0308,2022-11-30 22:01:15
,wl-rdm,181,651791,0.0-8.63-0.63,1.0,179.0,,,,,,,[],,,,False,,,,73.6,0.0,u,0.0,True,768.0999999046326,47.0,59.0,40.0,333.0114563030463,[],"[1280, 720]",ColorTask,123.0,64.0,,,HRV,HRV_0308,2022-11-30 22:01:15
,wl-rdm,182,654290,0.0-8.64-0.64,1.0,180.0,,,,,,,[],,,,False,,,,53.2,1.0,i,1.0,True,1105.9000000953674,67.0,59.0,40.0,318.8111312033892,[],"[1280, 720]",ColorTask,124.0,65.0,,,HRV,HRV_0308,2022-11-30 22:01:15
,wl-rdm,183,657140,0.0-8.65-0.65,1.0,181.0,,,,,,,[],,,,False,,,,50.0,1.0,u,0.0,False,1535.8000001907349,93.0,59.0,40.0,225.60256455999817,[],"[1280, 720]",ColorTask,123.0,66.0,,,HRV,HRV_0308,2022-11-30 22:01:15
,wl-rdm,184,659390,0.0-8.66-0.66,1.0,182.0,,,,,,,[],,,,False,,,,87.9,0.0,u,0.0,True,779.5999999046326,47.0,59.0,40.0,389.0623511079101,[],"[1280, 720]",ColorTask,124.0,67.0,,,HRV,HRV_0308,2022-11-30 22:01:15
,wl-rdm,185,661523,0.0-8.67-0.67,1.0,183.0,,,,,,,[],,,,False,,,,62.5,1.0,i,1.0,True,764.7000002861023,46.0,59.0,40.0,289.9488856084021,[],"[1280, 720]",ColorTask,125.0,68.0,,,HRV,HRV_0308,2022-11-30 22:01:15
,wl-rdm,186,664374,0.0-8.68-0.68,1.0,184.0,,,,,,,[],,,,False,,,,53.2,1.0,i,1.0,True,1520.4000000953674,92.0,59.0,40.0,238.2917039886677,[],"[1280, 720]",ColorTask,126.0,69.0,,,HRV,HRV_0308,2022-11-30 22:01:15
,wl-rdm,187,666574,0.0-8.69-0.69,1.0,185.0,,,,,,,[],,,,False,,,,73.6,1.0,i,1.0,True,878.0,53.0,59.0,40.0,234.97904087739147,[],"[1280, 720]",ColorTask,127.0,70.0,,,HRV,HRV_0308,2022-11-30 22:01:15
,wl-rdm,188,669157,0.0-8.70-0.70,1.0,186.0,,,,,,,[],,,,False,,,,56.4,1.0,i,1.0,True,1256.9000000953674,76.0,59.0,40.0,246.64743830629965,[],"[1280, 720]",ColorTask,128.0,71.0,,,HRV,HRV_0308,2022-11-30 22:01:15
,wl-rdm,189,671357,0.0-8.71-0.71,1.0,187.0,,,,,,,[],,,,False,,,,62.5,1.0,i,1.0,True,790.4000000953674,48.0,59.0,40.0,323.039518961603,[],"[1280, 720]",ColorTask,129.0,72.0,,,HRV,HRV_0308,2022-11-30 22:01:15
,wl-rdm,190,674423,0.0-8.72-0.72,1.0,188.0,,,,,,,[],,,,False,,,,62.5,0.0,u,0.0,True,1584.3000001907349,96.0,59.0,40.0,392.24549172911804,[],"[1280, 720]",ColorTask,130.0,73.0,,,HRV,HRV_0308,2022-11-30 22:01:15
,wl-rdm,191,677256,0.0-8.73-0.73,1.0,189.0,,,,,,,[],,,,False,,,,50.0,1.0,i,1.0,True,1459.7000002861023,88.0,59.0,40.0,286.3100935345884,[],"[1280, 720]",ColorTask,131.0,74.0,,,HRV,HRV_0308,2022-11-30 22:01:15
,wl-rdm,192,680174,0.0-8.74-0.74,1.0,190.0,,,,,,,[],,,,False,,,,50.0,0.0,i,1.0,False,1531.4000000953674,92.0,59.0,40.0,330.54208230878857,[],"[1280, 720]",ColorTask,130.0,75.0,,,HRV,HRV_0308,2022-11-30 22:01:15
,wl-rdm,193,682440,0.0-8.75-0.75,1.0,191.0,,,,,,,[],,,,False,,,,87.9,0.0,u,0.0,True,913.0999999046326,55.0,59.0,40.0,272.1054403507752,[],"[1280, 720]",ColorTask,131.0,76.0,,,HRV,HRV_0308,2022-11-30 22:01:15
,wl-rdm,194,685807,0.0-8.76-0.76,1.0,192.0,,,,,,,[],,,,False,,,,56.4,0.0,i,1.0,False,2044.5999999046326,123.0,59.0,40.0,246.5640367286494,[],"[1280, 720]",ColorTask,130.0,77.0,,,HRV,HRV_0308,2022-11-30 22:01:15
,wl-rdm,195,689191,0.0-8.77-0.77,1.0,193.0,,,,,,,[],,,,False,,,,62.5,1.0,i,1.0,True,2049.9000000953674,123.0,59.0,40.0,275.6722819260757,[],"[1280, 720]",ColorTask,131.0,78.0,,,HRV,HRV_0308,2022-11-30 22:01:15
,wl-rdm,196,692024,0.0-8.78-0.78,1.0,194.0,,,,,,,[],,,,False,,,,56.4,1.0,i,1.0,True,1412.6000003814697,85.0,59.0,40.0,362.14435373219385,[],"[1280, 720]",ColorTask,132.0,79.0,,,HRV,HRV_0308,2022-11-30 22:01:15
,wl-rdm,197,694290,0.0-8.79-0.79,1.0,195.0,,,,,,,[],,,,False,,,,87.9,0.0,u,0.0,True,808.4000000953674,49.0,59.0,40.0,367.33887909570353,[],"[1280, 720]",ColorTask,133.0,80.0,,,HRV,HRV_0308,2022-11-30 22:01:15
,wl-rdm,198,696907,0.0-8.80-0.80,1.0,196.0,,,,,,,[],,,,False,,,,87.9,1.0,i,1.0,True,1183.5,71.0,59.0,40.0,362.48477931528475,[],"[1280, 720]",ColorTask,134.0,81.0,,,HRV,HRV_0308,2022-11-30 22:01:15
,wl-rdm,199,700157,0.0-8.81-0.81,1.0,197.0,,,,,,,[],,,,False,,,,56.4,0.0,u,0.0,True,1925.1999998092651,116.0,59.0,40.0,259.0616070807448,[],"[1280, 720]",ColorTask,135.0,82.0,,,HRV,HRV_0308,2022-11-30 22:01:15
,wl-rdm,200,702556,0.0-8.82-0.82,1.0,198.0,,,,,,,[],,,,False,,,,73.6,1.0,i,1.0,True,1004.2000002861023,61.0,59.0,40.0,313.58445323927407,[],"[1280, 720]",ColorTask,136.0,83.0,,,HRV,HRV_0308,2022-11-30 22:01:15
,wl-rdm,201,705906,0.0-8.83-0.83,1.0,199.0,,,,,,,[],,,,False,,,,53.2,1.0,i,1.0,True,2014.5,121.0,59.0,40.0,252.07116852345305,[],"[1280, 720]",ColorTask,137.0,84.0,,,HRV,HRV_0308,2022-11-30 22:01:15
,wl-rdm,202,709356,0.0-8.84-0.84,1.0,200.0,,,,,,,[],,,,False,,,,53.2,0.0,u,0.0,True,2176.9000000953674,131.0,59.0,40.0,212.06367271887365,[],"[1280, 720]",ColorTask,138.0,85.0,,,HRV,HRV_0308,2022-11-30 22:01:15
,wl-rdm,203,711840,0.0-8.85-0.85,1.0,201.0,,,,,,,[],,,,False,,,,53.2,0.0,i,1.0,False,1064.2000002861023,64.0,59.0,40.0,336.2616239099066,[],"[1280, 720]",ColorTask,137.0,86.0,,,HRV,HRV_0308,2022-11-30 22:01:15
,wl-rdm,204,714423,0.0-8.86-0.86,1.0,202.0,,,,,,,[],,,,False,,,,56.4,0.0,u,0.0,True,1285.0999999046326,78.0,59.0,40.0,227.0861582722584,[],"[1280, 720]",ColorTask,138.0,87.0,,,HRV,HRV_0308,2022-11-30 22:01:15
,wl-rdm,205,717073,0.0-8.87-0.87,1.0,203.0,,,,,,,[],,,,False,,,,50.0,1.0,u,0.0,False,1253.1999998092651,76.0,59.0,40.0,316.11828681057483,[],"[1280, 720]",ColorTask,137.0,88.0,,,HRV,HRV_0308,2022-11-30 22:01:15
,wl-rdm,206,720373,0.0-8.88-0.88,1.0,204.0,,,,,,,[],,,,False,,,,56.4,0.0,u,0.0,True,1922.1999998092651,116.0,59.0,40.0,309.08512768345156,[],"[1280, 720]",ColorTask,138.0,89.0,,,HRV,HRV_0308,2022-11-30 22:01:15
,wl-rdm,207,722589,0.0-8.89-0.89,1.0,205.0,,,,,,,[],,,,False,,,,73.6,1.0,i,1.0,True,810.5999999046326,49.0,59.0,40.0,322.8538962864641,[],"[1280, 720]",ColorTask,139.0,90.0,,,HRV,HRV_0308,2022-11-30 22:01:15
,wl-rdm,208,724956,0.0-8.90-0.90,1.0,206.0,,,,,,,[],,,,False,,,,73.6,1.0,i,1.0,True,938.5,57.0,59.0,40.0,359.52111343456147,[],"[1280, 720]",ColorTask,140.0,91.0,,,HRV,HRV_0308,2022-11-30 22:01:15
,wl-rdm,209,728105,0.0-8.91-0.91,1.0,207.0,,,,,,,[],,,,False,,,,62.5,0.0,u,0.0,True,1797.0999999046326,108.0,59.0,40.0,272.40442306479645,[],"[1280, 720]",ColorTask,141.0,92.0,,,HRV,HRV_0308,2022-11-30 22:01:15
,wl-rdm,210,730088,0.0-8.92-0.92,1.0,208.0,,,,,,,[],,,,False,,,,73.6,0.0,u,0.0,True,691.2999997138977,42.0,59.0,40.0,211.6417621723675,[],"[1280, 720]",ColorTask,142.0,93.0,,,HRV,HRV_0308,2022-11-30 22:01:15
,wl-rdm,211,732523,0.0-8.93-0.93,1.0,209.0,,,,,,,[],,,,False,,,,73.6,1.0,i,1.0,True,1103.3000001907349,67.0,59.0,40.0,255.8489570744827,[],"[1280, 720]",ColorTask,143.0,94.0,,,HRV,HRV_0308,2022-11-30 22:01:15
,wl-rdm,212,734639,0.0-8.94-0.94,1.0,210.0,,,,,,,[],,,,False,,,,62.5,0.0,u,0.0,True,809.0000004768372,49.0,59.0,40.0,226.20979585640845,[],"[1280, 720]",ColorTask,144.0,95.0,,,HRV,HRV_0308,2022-11-30 22:01:15
,wl-rdm,213,737388,0.0-8.95-0.95,1.0,211.0,,,,,,,[],,,,False,,,,73.6,0.0,u,0.0,True,1320.9000000953674,80.0,59.0,40.0,363.6988257830108,[],"[1280, 720]",ColorTask,145.0,96.0,,,HRV,HRV_0308,2022-11-30 22:01:15
,wl-rdm,214,740556,0.0-8.96-0.96,1.0,212.0,,,,,,,[],,,,False,,,,50.0,0.0,i,1.0,False,1872.2999997138977,113.0,59.0,40.0,211.76023641966742,[],"[1280, 720]",ColorTask,144.0,97.0,,,HRV,HRV_0308,2022-11-30 22:01:15
,wl-rdm,215,743906,0.0-8.97-0.97,1.0,213.0,,,,,,,[],,,,False,,,,53.2,1.0,u,0.0,False,1918.5999999046326,116.0,59.0,40.0,337.0934993061772,[],"[1280, 720]",ColorTask,143.0,98.0,,,HRV,HRV_0308,2022-11-30 22:01:15
,wl-rdm,216,747056,0.0-8.98-0.98,1.0,214.0,,,,,,,[],,,,False,,,,56.4,1.0,i,1.0,True,1847.1999998092651,111.0,59.0,40.0,242.38264592304114,[],"[1280, 720]",ColorTask,144.0,99.0,,,HRV,HRV_0308,2022-11-30 22:01:15
,wl-rdm,217,749239,0.0-8.99-0.99,1.0,215.0,,,,,,,[],,,,False,,,,73.6,0.0,u,0.0,True,820.0,50.0,59.0,40.0,269.65783694734296,[],"[1280, 720]",ColorTask,145.0,100.0,,,HRV,HRV_0308,2022-11-30 22:01:15
,wl-rdm,218,752155,0.0-8.100-0.100,1.0,216.0,,,,,,,[],,,,False,,,,53.2,1.0,i,1.0,True,1626.6000003814697,98.0,59.0,40.0,218.5131284001234,[],"[1280, 720]",ColorTask,146.0,101.0,,,HRV,HRV_0308,2022-11-30 22:01:15
,wl-rdm,219,754572,0.0-8.101-0.101,1.0,217.0,,,,,,,[],,,,False,,,,62.5,0.0,u,0.0,True,1088.0999999046326,66.0,59.0,40.0,264.95692795663837,[],"[1280, 720]",ColorTask,147.0,102.0,,,HRV,HRV_0308,2022-11-30 22:01:15
,wl-rdm,220,757805,0.0-8.102-0.102,1.0,218.0,,,,,,,[],,,,False,,,,62.5,0.0,u,0.0,True,1899.2999997138977,114.0,59.0,40.0,275.82657152199897,[],"[1280, 720]",ColorTask,148.0,103.0,,,HRV,HRV_0308,2022-11-30 22:01:15
,wl-rdm,221,759738,0.0-8.103-0.103,1.0,219.0,,,,,,,[],,,,False,,,,87.9,0.0,u,0.0,True,615.3999996185303,37.0,59.0,40.0,250.75965868927688,[],"[1280, 720]",ColorTask,149.0,104.0,,,HRV,HRV_0308,2022-11-30 22:01:15
,wl-rdm,222,762839,0.0-8.104-0.104,1.0,220.0,,,,,,,[],,,,False,,,,62.5,0.0,u,0.0,True,1779.1999998092651,107.0,59.0,40.0,233.90039476412585,[],"[1280, 720]",ColorTask,150.0,105.0,,,HRV,HRV_0308,2022-11-30 22:01:15
,wl-rdm,223,765089,0.0-8.105-0.105,1.0,221.0,,,,,,,[],,,,False,,,,62.5,1.0,i,1.0,True,845.4000000953674,51.0,59.0,40.0,338.67437202165297,[],"[1280, 720]",ColorTask,151.0,106.0,,,HRV,HRV_0308,2022-11-30 22:01:15
,wl-rdm,224,766922,0.0-8.106-0.106,1.0,222.0,,,,,,,[],,,,False,,,,87.9,1.0,i,1.0,True,505.6000003814697,31.0,59.0,40.0,259.61140131302477,[],"[1280, 720]",ColorTask,152.0,107.0,,,HRV,HRV_0308,2022-11-30 22:01:15
,wl-rdm,225,769888,0.0-8.107-0.107,1.0,223.0,,,,,,,[],,,,False,,,,50.0,0.0,i,1.0,False,1563.5999999046326,94.0,59.0,40.0,326.77077513342925,[],"[1280, 720]",ColorTask,151.0,108.0,,,HRV,HRV_0308,2022-11-30 22:01:15
,wl-html-button-response,226,773711,0.0-9.0-0.0,,,,,,,,,,3820.9000000953674,,0,,,,,,,,,,,,,,,,,,,,<h3>End of this session. Thank you!</h3><br>,['Close window'],HRV,HRV_0308,2022-11-30 22:01:15
