trialN,stimuli,trialStartTime,trialStartTime_UNIX,stimulus1,stimulus2,stimulus1Bid,stimulus2Bid,delta,selected,rt,rt_UNIX,rt_perfnow,receivedResponse,rsp,trialEndTime,trialDuration,trialEndTime_UNIX,trialDuration_UNIX,exp,subjectId,date
0,"[{'imgObject': {}, 'id': 'ice cream sundae 002', 'src': '/static/foodstim60/ice cream sundae 002.jpg', 'key': 'u', 'origWidth': 409, 'origHeight': 409, 'width': 409, 'height': 409, 'widthPercent': 0.45, 'rescaleHeight': False, 'trialN': 0, 'loaded': True, 'loadedTime': 2239.800000190735, 'positionName': 'LEFT', 'positionCoords': [819.8, 515.5], 'bid': 6.43}, {'imgObject': {}, 'id': 'bagel plain', 'src': '/static/foodstim60/bagel plain.jpg', 'key': 'i', 'origWidth': 410, 'origHeight': 410, 'width': 410, 'height': 410, 'widthPercent': 0.45, 'rescaleHeight': False, 'trialN': 0, 'loaded': True, 'loadedTime': 2244.5, 'positionName': 'RIGHT', 'positionCoords': [1331.2, 515], 'bid': 3.86}]",3027.300000190735,1669843578875,ice cream sundae 002,bagel plain,6.43,3.86,-2.57,ice cream sundae 002,1815.1999998092651,1815,1815.6999998092651,True,u,5350.699999809265,2323.3999996185303,1669843581198,2323,HRV,HRV_0308,2022-11-30 21:32:32
1,"[{'imgObject': {}, 'id': 'cherries', 'src': '/static/foodstim60/cherries.jpg', 'key': 'u', 'origWidth': 410, 'origHeight': 411, 'width': 410, 'height': 411, 'widthPercent': 0.45, 'rescaleHeight': False, 'trialN': 1, 'loaded': True, 'loadedTime': 2250.800000190735, 'positionName': 'LEFT', 'positionCoords': [818.8, 514.5], 'bid': 2.51}, {'imgObject': {}, 'id': 'mac & cheese', 'src': '/static/foodstim60/mac & cheese.jpg', 'key': 'i', 'origWidth': 410, 'origHeight': 410, 'width': 410, 'height': 410, 'widthPercent': 0.45, 'rescaleHeight': False, 'trialN': 1, 'loaded': True, 'loadedTime': 2255.4000000953674, 'positionName': 'RIGHT', 'positionCoords': [1331.2, 515], 'bid': 2.34}]",5350.900000095367,1669843581198,cherries,mac & cheese,2.51,2.34,-0.16999999999999993,mac & cheese,1363.5,1364,1363.6999998092651,True,i,7222.599999904633,1871.6999998092651,1669843583070,1872,HRV,HRV_0308,2022-11-30 21:32:32
2,"[{'imgObject': {}, 'id': 'banana', 'src': '/static/foodstim60/banana.jpg', 'key': 'u', 'origWidth': 410, 'origHeight': 410, 'width': 410, 'height': 410, 'widthPercent': 0.45, 'rescaleHeight': False, 'trialN': 2, 'loaded': True, 'loadedTime': 2266.300000190735, 'positionName': 'LEFT', 'positionCoords': [818.8, 515], 'bid': 4.43}, {'imgObject': {}, 'id': 'omelette', 'src': '/static/foodstim60/omelette.jpg', 'key': 'i', 'origWidth': 410, 'origHeight': 409, 'width': 410, 'height': 409, 'widthPercent': 0.45, 'rescaleHeight': False, 'trialN': 2, 'loaded': True, 'loadedTime': 2296.699999809265, 'positionName': 'RIGHT', 'positionCoords': [1331.2, 515.5], 'bid': 4.71}]",7222.800000190735,1669843583070,banana,omelette,4.43,4.71,0.28000000000000025,omelette,2088.5999999046326,2089,2088.7999997138977,True,i,9814.800000190735,2592.0,1669843585662,2592,HRV,HRV_0308,2022-11-30 21:32:32
3,"[{'imgObject': {}, 'id': 'cherries', 'src': '/static/foodstim60/cherries.jpg', 'key': 'u', 'origWidth': 410, 'origHeight': 411, 'width': 410, 'height': 411, 'widthPercent': 0.45, 'rescaleHeight': False, 'trialN': 3, 'loaded': True, 'loadedTime': 2252.9000000953674, 'positionName': 'LEFT', 'positionCoords': [818.8, 514.5], 'bid': 2.51}, {'imgObject': {}, 'id': 'veggieswithdip', 'src': '/static/foodstim60/veggieswithdip.jpg', 'key': 'i', 'origWidth': 409, 'origHeight': 409, 'width': 409, 'height': 409, 'widthPercent': 0.45, 'rescaleHeight': False, 'trialN': 3, 'loaded': True, 'loadedTime': 2298.199999809265, 'positionName': 'RIGHT', 'positionCoords': [1331.2, 515.5], 'bid': 0.19}]",9814.900000095367,1669843585662,cherries,veggieswithdip,2.51,0.19,-2.32,cherries,990.7999997138977,991,990.9000000953674,True,u,11310.900000095367,1496.0,1669843587158,1496,HRV,HRV_0308,2022-11-30 21:32:32
4,"[{'imgObject': {}, 'id': 'corn cob', 'src': '/static/foodstim60/corn cob.jpg', 'key': 'u', 'origWidth': 411, 'origHeight': 411, 'width': 411, 'height': 411, 'widthPercent': 0.45, 'rescaleHeight': False, 'trialN': 4, 'loaded': True, 'loadedTime': 2356.5999999046326, 'positionName': 'LEFT', 'positionCoords': [817.8, 514.5], 'bid': 1.76}, {'imgObject': {}, 'id': 'hashbrowns', 'src': '/static/foodstim60/hashbrowns.jpg', 'key': 'i', 'origWidth': 411, 'origHeight': 410, 'width': 411, 'height': 410, 'widthPercent': 0.45, 'rescaleHeight': False, 'trialN': 4, 'loaded': True, 'loadedTime': 2383.0999999046326, 'positionName': 'RIGHT', 'positionCoords': [1331.2, 515], 'bid': 2}]",11311.099999904633,1669843587159,corn cob,hashbrowns,1.76,2.0,0.24,hashbrowns,1229.2000002861023,1229,1229.4000000953674,True,i,13046.900000095367,1735.8000001907349,1669843588894,1735,HRV,HRV_0308,2022-11-30 21:32:32
5,"[{'imgObject': {}, 'id': 'edamame', 'src': '/static/foodstim60/edamame.jpg', 'key': 'u', 'origWidth': 409, 'origHeight': 410, 'width': 409, 'height': 410, 'widthPercent': 0.45, 'rescaleHeight': False, 'trialN': 5, 'loaded': True, 'loadedTime': 2392.9000000953674, 'positionName': 'LEFT', 'positionCoords': [819.8, 515], 'bid': 0.08}, {'imgObject': {}, 'id': 'mango', 'src': '/static/foodstim60/mango.jpg', 'key': 'i', 'origWidth': 411, 'origHeight': 411, 'width': 411, 'height': 411, 'widthPercent': 0.45, 'rescaleHeight': False, 'trialN': 5, 'loaded': True, 'loadedTime': 2410.5, 'positionName': 'RIGHT', 'positionCoords': [1331.2, 514.5], 'bid': 0.75}]",13047.099999904633,1669843588895,edamame,mango,0.08,0.75,0.67,mango,1698.2000002861023,1698,1698.3000001907349,True,i,15247.0,2199.9000000953674,1669843591095,2200,HRV,HRV_0308,2022-11-30 21:32:32
6,"[{'imgObject': {}, 'id': 'eggsalad', 'src': '/static/foodstim60/eggsalad.jpg', 'key': 'u', 'origWidth': 410, 'origHeight': 409, 'width': 410, 'height': 409, 'widthPercent': 0.45, 'rescaleHeight': False, 'trialN': 6, 'loaded': True, 'loadedTime': 2435.0999999046326, 'positionName': 'LEFT', 'positionCoords': [818.8, 515.5], 'bid': 5.18}, {'imgObject': {}, 'id': 'ice cream sundae 002', 'src': '/static/foodstim60/ice cream sundae 002.jpg', 'key': 'i', 'origWidth': 409, 'origHeight': 409, 'width': 409, 'height': 409, 'widthPercent': 0.45, 'rescaleHeight': False, 'trialN': 6, 'loaded': True, 'loadedTime': 2240.699999809265, 'positionName': 'RIGHT', 'positionCoords': [1331.2, 515.5], 'bid': 6.43}]",15247.199999809265,1669843591095,eggsalad,ice cream sundae 002,5.18,6.43,1.25,ice cream sundae 002,2078.1000003814697,2078,2078.2000002861023,True,i,17831.099999904633,2583.9000000953674,1669843593679,2584,HRV,HRV_0308,2022-11-30 21:32:32
7,"[{'imgObject': {}, 'id': 'grilled chicken strips', 'src': '/static/foodstim60/grilled chicken strips.jpg', 'key': 'u', 'origWidth': 410, 'origHeight': 411, 'width': 410, 'height': 411, 'widthPercent': 0.45, 'rescaleHeight': False, 'trialN': 7, 'loaded': True, 'loadedTime': 2452.699999809265, 'positionName': 'LEFT', 'positionCoords': [818.8, 514.5], 'bid': 5}, {'imgObject': {}, 'id': 'fried eggs', 'src': '/static/foodstim60/fried eggs.jpg', 'key': 'i', 'origWidth': 410, 'origHeight': 410, 'width': 410, 'height': 410, 'widthPercent': 0.45, 'rescaleHeight': False, 'trialN': 7, 'loaded': True, 'loadedTime': 2493.9000000953674, 'positionName': 'RIGHT', 'positionCoords': [1331.2, 515], 'bid': 5}]",17831.199999809265,1669843593679,grilled chicken strips,fried eggs,5.0,5.0,0.0,grilled chicken strips,1752.0,1752,1752.2000002861023,True,u,20087.300000190735,2256.1000003814697,1669843595935,2256,HRV,HRV_0308,2022-11-30 21:32:32
8,"[{'imgObject': {}, 'id': 'turkeysandwich', 'src': '/static/foodstim60/turkeysandwich.jpg', 'key': 'u', 'origWidth': 409, 'origHeight': 409, 'width': 409, 'height': 409, 'widthPercent': 0.45, 'rescaleHeight': False, 'trialN': 8, 'loaded': True, 'loadedTime': 2511.4000000953674, 'positionName': 'LEFT', 'positionCoords': [819.8, 515.5], 'bid': 5.61}, {'imgObject': {}, 'id': 'kiwi', 'src': '/static/foodstim60/kiwi.jpg', 'key': 'i', 'origWidth': 410, 'origHeight': 410, 'width': 410, 'height': 410, 'widthPercent': 0.45, 'rescaleHeight': False, 'trialN': 8, 'loaded': True, 'loadedTime': 2529, 'positionName': 'RIGHT', 'positionCoords': [1331.2, 515], 'bid': 1.04}]",20087.400000095367,1669843595935,turkeysandwich,kiwi,5.61,1.04,-4.57,turkeysandwich,892.9000000953674,893,893.0999999046326,True,u,21487.199999809265,1399.7999997138977,1669843597335,1400,HRV,HRV_0308,2022-11-30 21:32:32
9,"[{'imgObject': {}, 'id': 'chickenfingers', 'src': '/static/foodstim60/chickenfingers.jpg', 'key': 'u', 'origWidth': 410, 'origHeight': 410, 'width': 410, 'height': 410, 'widthPercent': 0.45, 'rescaleHeight': False, 'trialN': 9, 'loaded': True, 'loadedTime': 2530.800000190735, 'positionName': 'LEFT', 'positionCoords': [818.8, 515], 'bid': 9.33}, {'imgObject': {}, 'id': 'corn cob', 'src': '/static/foodstim60/corn cob.jpg', 'key': 'i', 'origWidth': 411, 'origHeight': 411, 'width': 411, 'height': 411, 'widthPercent': 0.45, 'rescaleHeight': False, 'trialN': 9, 'loaded': True, 'loadedTime': 2345.4000000953674, 'positionName': 'RIGHT', 'positionCoords': [1331.2, 514.5], 'bid': 1.76}]",21487.400000095367,1669843597335,chickenfingers,corn cob,9.33,1.76,-7.57,chickenfingers,813.5999999046326,814,813.9000000953674,True,u,22807.300000190735,1319.9000000953674,1669843598655,1320,HRV,HRV_0308,2022-11-30 21:32:32
10,"[{'imgObject': {}, 'id': 'yogurt no spoon', 'src': '/static/foodstim60/yogurt no spoon.jpg', 'key': 'u', 'origWidth': 411, 'origHeight': 410, 'width': 411, 'height': 410, 'widthPercent': 0.45, 'rescaleHeight': False, 'trialN': 10, 'loaded': True, 'loadedTime': 2537, 'positionName': 'LEFT', 'positionCoords': [817.8, 515], 'bid': 2.64}, {'imgObject': {}, 'id': 'mac & cheese', 'src': '/static/foodstim60/mac & cheese.jpg', 'key': 'i', 'origWidth': 410, 'origHeight': 410, 'width': 410, 'height': 410, 'widthPercent': 0.45, 'rescaleHeight': False, 'trialN': 10, 'loaded': True, 'loadedTime': 2257.0999999046326, 'positionName': 'RIGHT', 'positionCoords': [1331.2, 515], 'bid': 2.34}]",22807.5,1669843598655,yogurt no spoon,mac & cheese,2.64,2.34,-0.30000000000000027,mac & cheese,1328.5,1330,1328.9000000953674,True,i,24639.300000190735,1831.8000001907349,1669843600488,1833,HRV,HRV_0308,2022-11-30 21:32:32
11,"[{'imgObject': {}, 'id': 'cheerios', 'src': '/static/foodstim60/cheerios.jpg', 'key': 'u', 'origWidth': 409, 'origHeight': 410, 'width': 409, 'height': 410, 'widthPercent': 0.45, 'rescaleHeight': False, 'trialN': 11, 'loaded': True, 'loadedTime': 2555.0999999046326, 'positionName': 'LEFT', 'positionCoords': [819.8, 515], 'bid': 1.01}, {'imgObject': {}, 'id': 'fried eggs', 'src': '/static/foodstim60/fried eggs.jpg', 'key': 'i', 'origWidth': 410, 'origHeight': 410, 'width': 410, 'height': 410, 'widthPercent': 0.45, 'rescaleHeight': False, 'trialN': 11, 'loaded': True, 'loadedTime': 2494.0999999046326, 'positionName': 'RIGHT', 'positionCoords': [1331.2, 515], 'bid': 5}]",24639.5,1669843600488,cheerios,fried eggs,1.01,5.0,3.99,fried eggs,1239.5,1240,1239.6999998092651,True,i,26383.599999904633,1744.0999999046326,1669843602232,1744,HRV,HRV_0308,2022-11-30 21:32:32
12,"[{'imgObject': {}, 'id': 'sweetpotato', 'src': '/static/foodstim60/sweetpotato.jpg', 'key': 'u', 'origWidth': 410, 'origHeight': 410, 'width': 410, 'height': 410, 'widthPercent': 0.45, 'rescaleHeight': False, 'trialN': 12, 'loaded': True, 'loadedTime': 2571.4000000953674, 'positionName': 'LEFT', 'positionCoords': [818.8, 515], 'bid': 0.1}, {'imgObject': {}, 'id': 'tacos', 'src': '/static/foodstim60/tacos.jpg', 'key': 'i', 'origWidth': 411, 'origHeight': 411, 'width': 411, 'height': 411, 'widthPercent': 0.45, 'rescaleHeight': False, 'trialN': 12, 'loaded': True, 'loadedTime': 2598.0999999046326, 'positionName': 'RIGHT', 'positionCoords': [1331.2, 514.5], 'bid': 1.07}]",26383.699999809265,1669843602233,sweetpotato,tacos,0.1,1.07,0.9700000000000001,sweetpotato,2318.300000190735,2318,2318.5,True,u,29207.5,2823.800000190735,1669843605057,2824,HRV,HRV_0308,2022-11-30 21:32:32
13,"[{'imgObject': {}, 'id': 'rigatoni and sauce', 'src': '/static/foodstim60/rigatoni and sauce.jpg', 'key': 'u', 'origWidth': 410, 'origHeight': 411, 'width': 410, 'height': 411, 'widthPercent': 0.45, 'rescaleHeight': False, 'trialN': 13, 'loaded': True, 'loadedTime': 2613.199999809265, 'positionName': 'LEFT', 'positionCoords': [818.8, 514.5], 'bid': 0.21}, {'imgObject': {}, 'id': 'fruitsalad', 'src': '/static/foodstim60/fruitsalad.jpg', 'key': 'i', 'origWidth': 410, 'origHeight': 410, 'width': 410, 'height': 410, 'widthPercent': 0.45, 'rescaleHeight': False, 'trialN': 13, 'loaded': True, 'loadedTime': 2632.300000190735, 'positionName': 'RIGHT', 'positionCoords': [1331.2, 515], 'bid': 0.42}]",29207.699999809265,1669843605057,rigatoni and sauce,fruitsalad,0.21,0.42,0.21,rigatoni and sauce,1446.1000003814697,1446,1446.4000000953674,True,u,31158.599999904633,1950.9000000953674,1669843607008,1951,HRV,HRV_0308,2022-11-30 21:32:32
14,"[{'imgObject': {}, 'id': 'burrito', 'src': '/static/foodstim60/burrito.jpg', 'key': 'u', 'origWidth': 410, 'origHeight': 410, 'width': 410, 'height': 410, 'widthPercent': 0.45, 'rescaleHeight': False, 'trialN': 14, 'loaded': True, 'loadedTime': 2656.699999809265, 'positionName': 'LEFT', 'positionCoords': [818.8, 515], 'bid': 1.68}, {'imgObject': {}, 'id': 'blueberries', 'src': '/static/foodstim60/blueberries.jpg', 'key': 'i', 'origWidth': 411, 'origHeight': 411, 'width': 411, 'height': 411, 'widthPercent': 0.45, 'rescaleHeight': False, 'trialN': 14, 'loaded': True, 'loadedTime': 2693.4000000953674, 'positionName': 'RIGHT', 'positionCoords': [1331.2, 514.5], 'bid': 2.06}]",31158.800000190735,1669843607008,burrito,blueberries,1.68,2.06,0.3800000000000001,burrito,2255.3999996185303,2255,2255.5,True,u,33918.699999809265,2759.8999996185303,1669843609768,2760,HRV,HRV_0308,2022-11-30 21:32:32
15,"[{'imgObject': {}, 'id': 'grilled chicken strips', 'src': '/static/foodstim60/grilled chicken strips.jpg', 'key': 'u', 'origWidth': 410, 'origHeight': 411, 'width': 410, 'height': 411, 'widthPercent': 0.45, 'rescaleHeight': False, 'trialN': 15, 'loaded': True, 'loadedTime': 2459.800000190735, 'positionName': 'LEFT', 'positionCoords': [818.8, 514.5], 'bid': 5}, {'imgObject': {}, 'id': 'chicken nuggets2', 'src': '/static/foodstim60/chicken nuggets2.jpg', 'key': 'i', 'origWidth': 410, 'origHeight': 409, 'width': 410, 'height': 409, 'widthPercent': 0.45, 'rescaleHeight': False, 'trialN': 15, 'loaded': True, 'loadedTime': 2714.4000000953674, 'positionName': 'RIGHT', 'positionCoords': [1331.2, 515.5], 'bid': 7.91}]",33918.90000009537,1669843609768,grilled chicken strips,chicken nuggets2,5.0,7.91,2.91,chicken nuggets2,922.7999997138977,923,923.0,True,i,35342.800000190735,1423.9000000953674,1669843611192,1424,HRV,HRV_0308,2022-11-30 21:32:32
16,"[{'imgObject': {}, 'id': 'eggs', 'src': '/static/foodstim60/eggs.jpg', 'key': 'u', 'origWidth': 409, 'origHeight': 409, 'width': 409, 'height': 409, 'widthPercent': 0.45, 'rescaleHeight': False, 'trialN': 16, 'loaded': True, 'loadedTime': 2714.5, 'positionName': 'LEFT', 'positionCoords': [819.8, 515.5], 'bid': 1.02}, {'imgObject': {}, 'id': 'rigatoni and sauce', 'src': '/static/foodstim60/rigatoni and sauce.jpg', 'key': 'i', 'origWidth': 410, 'origHeight': 411, 'width': 410, 'height': 411, 'widthPercent': 0.45, 'rescaleHeight': False, 'trialN': 16, 'loaded': True, 'loadedTime': 2621.5999999046326, 'positionName': 'RIGHT', 'positionCoords': [1331.2, 514.5], 'bid': 0.21}]",35342.90000009537,1669843611192,eggs,rigatoni and sauce,1.02,0.21,-0.81,rigatoni and sauce,2130.7999997138977,2131,2131.0,True,i,37974.800000190735,2631.9000000953674,1669843613824,2632,HRV,HRV_0308,2022-11-30 21:32:32
17,"[{'imgObject': {}, 'id': 'lox', 'src': '/static/foodstim60/lox.jpg', 'key': 'u', 'origWidth': 410, 'origHeight': 411, 'width': 410, 'height': 411, 'widthPercent': 0.45, 'rescaleHeight': False, 'trialN': 17, 'loaded': True, 'loadedTime': 2735.5, 'positionName': 'LEFT', 'positionCoords': [818.8, 514.5], 'bid': 0.11}, {'imgObject': {}, 'id': 'apple slices', 'src': '/static/foodstim60/apple slices.jpg', 'key': 'i', 'origWidth': 409, 'origHeight': 410, 'width': 409, 'height': 410, 'widthPercent': 0.45, 'rescaleHeight': False, 'trialN': 17, 'loaded': True, 'loadedTime': 2745.199999809265, 'positionName': 'RIGHT', 'positionCoords': [1331.2, 515], 'bid': 1.07}]",37975.09999990463,1669843613824,lox,apple slices,0.11,1.07,0.9600000000000001,apple slices,1209.5,1210,1209.7000002861023,True,i,39687.0,1711.9000000953674,1669843615536,1712,HRV,HRV_0308,2022-11-30 21:32:32
18,"[{'imgObject': {}, 'id': 'granola w milk', 'src': '/static/foodstim60/granola w milk.jpg', 'key': 'u', 'origWidth': 410, 'origHeight': 410, 'width': 410, 'height': 410, 'widthPercent': 0.45, 'rescaleHeight': False, 'trialN': 18, 'loaded': True, 'loadedTime': 2747, 'positionName': 'LEFT', 'positionCoords': [818.8, 515], 'bid': 0.86}, {'imgObject': {}, 'id': 'cantaloupe', 'src': '/static/foodstim60/cantaloupe.jpg', 'key': 'i', 'origWidth': 409, 'origHeight': 409, 'width': 409, 'height': 409, 'widthPercent': 0.45, 'rescaleHeight': False, 'trialN': 18, 'loaded': True, 'loadedTime': 2750, 'positionName': 'RIGHT', 'positionCoords': [1331.2, 515.5], 'bid': 0.88}]",39687.300000190735,1669843615536,granola w milk,cantaloupe,0.86,0.88,0.020000000000000018,granola w milk,1772.2999997138977,1773,1772.3999996185303,True,u,41967.0,2279.699999809265,1669843617816,2280,HRV,HRV_0308,2022-11-30 21:32:32
19,"[{'imgObject': {}, 'id': 'burrito', 'src': '/static/foodstim60/burrito.jpg', 'key': 'u', 'origWidth': 410, 'origHeight': 410, 'width': 410, 'height': 410, 'widthPercent': 0.45, 'rescaleHeight': False, 'trialN': 19, 'loaded': True, 'loadedTime': 2649.699999809265, 'positionName': 'LEFT', 'positionCoords': [818.8, 515], 'bid': 1.68}, {'imgObject': {}, 'id': 'blackbeanswithrice', 'src': '/static/foodstim60/blackbeanswithrice.jpg', 'key': 'i', 'origWidth': 410, 'origHeight': 410, 'width': 410, 'height': 410, 'widthPercent': 0.45, 'rescaleHeight': False, 'trialN': 19, 'loaded': True, 'loadedTime': 2751.800000190735, 'positionName': 'RIGHT', 'positionCoords': [1331.2, 515], 'bid': 0.48}]",41967.09999990463,1669843617816,burrito,blackbeanswithrice,1.68,0.48,-1.2,burrito,1104.5,1105,1104.8000001907349,True,u,43575.199999809265,1608.0999999046326,1669843619424,1608,HRV,HRV_0308,2022-11-30 21:32:32
20,"[{'imgObject': {}, 'id': 'chicken nuggets2', 'src': '/static/foodstim60/chicken nuggets2.jpg', 'key': 'u', 'origWidth': 410, 'origHeight': 409, 'width': 410, 'height': 409, 'widthPercent': 0.45, 'rescaleHeight': False, 'trialN': 20, 'loaded': True, 'loadedTime': 2694.699999809265, 'positionName': 'LEFT', 'positionCoords': [818.8, 515.5], 'bid': 7.91}, {'imgObject': {}, 'id': 'burrito', 'src': '/static/foodstim60/burrito.jpg', 'key': 'i', 'origWidth': 410, 'origHeight': 410, 'width': 410, 'height': 410, 'widthPercent': 0.45, 'rescaleHeight': False, 'trialN': 20, 'loaded': True, 'loadedTime': 2656.300000190735, 'positionName': 'RIGHT', 'positionCoords': [1331.2, 515], 'bid': 1.68}]",43575.300000190735,1669843619424,chicken nuggets2,burrito,7.91,1.68,-6.23,chicken nuggets2,907.3999996185303,908,907.5999999046326,True,u,44991.199999809265,1415.8999996185303,1669843620840,1416,HRV,HRV_0308,2022-11-30 21:32:32
21,"[{'imgObject': {}, 'id': 'hotdog w must', 'src': '/static/foodstim60/hotdog w must.jpg', 'key': 'u', 'origWidth': 409, 'origHeight': 409, 'width': 409, 'height': 409, 'widthPercent': 0.45, 'rescaleHeight': False, 'trialN': 21, 'loaded': True, 'loadedTime': 2757.4000000953674, 'positionName': 'LEFT', 'positionCoords': [819.8, 515.5], 'bid': 5.69}, {'imgObject': {}, 'id': 'tacos', 'src': '/static/foodstim60/tacos.jpg', 'key': 'i', 'origWidth': 411, 'origHeight': 411, 'width': 411, 'height': 411, 'widthPercent': 0.45, 'rescaleHeight': False, 'trialN': 21, 'loaded': True, 'loadedTime': 2579.5, 'positionName': 'RIGHT', 'positionCoords': [1331.2, 514.5], 'bid': 1.07}]",44991.40000009537,1669843620840,hotdog w must,tacos,5.69,1.07,-4.62,hotdog w must,796.0999999046326,797,796.1999998092651,True,u,46295.09999990463,1303.6999998092651,1669843622144,1304,HRV,HRV_0308,2022-11-30 21:32:32
22,"[{'imgObject': {}, 'id': 'lox', 'src': '/static/foodstim60/lox.jpg', 'key': 'u', 'origWidth': 410, 'origHeight': 411, 'width': 410, 'height': 411, 'widthPercent': 0.45, 'rescaleHeight': False, 'trialN': 22, 'loaded': True, 'loadedTime': 2735.5999999046326, 'positionName': 'LEFT', 'positionCoords': [818.8, 514.5], 'bid': 0.11}, {'imgObject': {}, 'id': 'popsicles', 'src': '/static/foodstim60/popsicles.jpg', 'key': 'i', 'origWidth': 410, 'origHeight': 410, 'width': 410, 'height': 410, 'widthPercent': 0.45, 'rescaleHeight': False, 'trialN': 22, 'loaded': True, 'loadedTime': 2769.5999999046326, 'positionName': 'RIGHT', 'positionCoords': [1331.2, 515], 'bid': 0.07}]",46295.199999809265,1669843622144,lox,popsicles,0.11,0.07,-0.039999999999999994,popsicles,1346.2000002861023,1347,1346.4000000953674,True,i,48143.300000190735,1848.1000003814697,1669843623992,1848,HRV,HRV_0308,2022-11-30 21:32:32
23,"[{'imgObject': {}, 'id': 'fruitsalad', 'src': '/static/foodstim60/fruitsalad.jpg', 'key': 'u', 'origWidth': 410, 'origHeight': 410, 'width': 410, 'height': 410, 'widthPercent': 0.45, 'rescaleHeight': False, 'trialN': 23, 'loaded': True, 'loadedTime': 2639.9000000953674, 'positionName': 'LEFT', 'positionCoords': [818.8, 515], 'bid': 0.42}, {'imgObject': {}, 'id': 'blackbeanswithrice', 'src': '/static/foodstim60/blackbeanswithrice.jpg', 'key': 'i', 'origWidth': 410, 'origHeight': 410, 'width': 410, 'height': 410, 'widthPercent': 0.45, 'rescaleHeight': False, 'trialN': 23, 'loaded': True, 'loadedTime': 2751.5999999046326, 'positionName': 'RIGHT', 'positionCoords': [1331.2, 515], 'bid': 0.48}]",48143.5,1669843623992,fruitsalad,blackbeanswithrice,0.42,0.48,0.06,fruitsalad,1116.9000000953674,1118,1117.3000001907349,True,u,49767.300000190735,1623.8000001907349,1669843625616,1624,HRV,HRV_0308,2022-11-30 21:32:32
24,"[{'imgObject': {}, 'id': 'turkeysandwich', 'src': '/static/foodstim60/turkeysandwich.jpg', 'key': 'u', 'origWidth': 409, 'origHeight': 409, 'width': 409, 'height': 409, 'widthPercent': 0.45, 'rescaleHeight': False, 'trialN': 24, 'loaded': True, 'loadedTime': 2517.800000190735, 'positionName': 'LEFT', 'positionCoords': [819.8, 515.5], 'bid': 5.61}, {'imgObject': {}, 'id': 'Tribe humus pita', 'src': '/static/foodstim60/Tribe humus pita.jpg', 'key': 'i', 'origWidth': 411, 'origHeight': 411, 'width': 411, 'height': 411, 'widthPercent': 0.45, 'rescaleHeight': False, 'trialN': 24, 'loaded': True, 'loadedTime': 2769.699999809265, 'positionName': 'RIGHT', 'positionCoords': [1331.2, 514.5], 'bid': 2.29}]",49767.40000009537,1669843625616,turkeysandwich,Tribe humus pita,5.61,2.29,-3.3200000000000003,turkeysandwich,1216.9000000953674,1218,1217.2999997138977,True,u,51487.40000009537,1720.0,1669843627336,1720,HRV,HRV_0308,2022-11-30 21:32:32
25,"[{'imgObject': {}, 'id': 'cherries', 'src': '/static/foodstim60/cherries.jpg', 'key': 'u', 'origWidth': 410, 'origHeight': 411, 'width': 410, 'height': 411, 'widthPercent': 0.45, 'rescaleHeight': False, 'trialN': 25, 'loaded': True, 'loadedTime': 2250.5, 'positionName': 'LEFT', 'positionCoords': [818.8, 514.5], 'bid': 2.51}, {'imgObject': {}, 'id': 'salad w chicken', 'src': '/static/foodstim60/salad w chicken.jpg', 'key': 'i', 'origWidth': 411, 'origHeight': 411, 'width': 411, 'height': 411, 'widthPercent': 0.45, 'rescaleHeight': False, 'trialN': 25, 'loaded': True, 'loadedTime': 2789.300000190735, 'positionName': 'RIGHT', 'positionCoords': [1331.2, 514.5], 'bid': 5.99}]",51487.5,1669843627336,cherries,salad w chicken,2.51,5.99,3.4800000000000004,salad w chicken,992.8000001907349,994,993.3000001907349,True,i,52983.40000009537,1495.9000000953674,1669843628832,1496,HRV,HRV_0308,2022-11-30 21:32:32
26,"[{'imgObject': {}, 'id': 'turkey sandwich', 'src': '/static/foodstim60/turkey sandwich.jpg', 'key': 'u', 'origWidth': 409, 'origHeight': 409, 'width': 409, 'height': 409, 'widthPercent': 0.45, 'rescaleHeight': False, 'trialN': 26, 'loaded': True, 'loadedTime': 2807.199999809265, 'positionName': 'LEFT', 'positionCoords': [819.8, 515.5], 'bid': 5.79}, {'imgObject': {}, 'id': 'mac & cheese', 'src': '/static/foodstim60/mac & cheese.jpg', 'key': 'i', 'origWidth': 410, 'origHeight': 410, 'width': 410, 'height': 410, 'widthPercent': 0.45, 'rescaleHeight': False, 'trialN': 26, 'loaded': True, 'loadedTime': 2254.4000000953674, 'positionName': 'RIGHT', 'positionCoords': [1331.2, 515], 'bid': 2.34}]",52983.59999990463,1669843628833,turkey sandwich,mac & cheese,5.79,2.34,-3.45,turkey sandwich,1790.9000000953674,1791,1791.0,True,u,55279.59999990463,2296.0,1669843631129,2296,HRV,HRV_0308,2022-11-30 21:32:32
27,"[{'imgObject': {}, 'id': 'cocktailshrimp', 'src': '/static/foodstim60/cocktailshrimp.jpg', 'key': 'u', 'origWidth': 410, 'origHeight': 410, 'width': 410, 'height': 410, 'widthPercent': 0.45, 'rescaleHeight': False, 'trialN': 27, 'loaded': True, 'loadedTime': 2824.9000000953674, 'positionName': 'LEFT', 'positionCoords': [818.8, 515], 'bid': 4.86}, {'imgObject': {}, 'id': 'fried eggs', 'src': '/static/foodstim60/fried eggs.jpg', 'key': 'i', 'origWidth': 410, 'origHeight': 410, 'width': 410, 'height': 410, 'widthPercent': 0.45, 'rescaleHeight': False, 'trialN': 27, 'loaded': True, 'loadedTime': 2467, 'positionName': 'RIGHT', 'positionCoords': [1331.2, 515], 'bid': 5}]",55279.699999809265,1669843631129,cocktailshrimp,fried eggs,4.86,5.0,0.13999999999999968,cocktailshrimp,1753.5,1753,1753.7000002861023,True,u,57534.699999809265,2255.0,1669843633384,2255,HRV,HRV_0308,2022-11-30 21:32:32
28,"[{'imgObject': {}, 'id': 'ice cream sundae 002', 'src': '/static/foodstim60/ice cream sundae 002.jpg', 'key': 'u', 'origWidth': 409, 'origHeight': 409, 'width': 409, 'height': 409, 'widthPercent': 0.45, 'rescaleHeight': False, 'trialN': 28, 'loaded': True, 'loadedTime': 2238.800000190735, 'positionName': 'LEFT', 'positionCoords': [819.8, 515.5], 'bid': 6.43}, {'imgObject': {}, 'id': 'burger', 'src': '/static/foodstim60/burger.jpg', 'key': 'i', 'origWidth': 409, 'origHeight': 409, 'width': 409, 'height': 409, 'widthPercent': 0.45, 'rescaleHeight': False, 'trialN': 28, 'loaded': True, 'loadedTime': 2835.800000190735, 'positionName': 'RIGHT', 'positionCoords': [1331.2, 515.5], 'bid': 6.62}]",57534.90000009537,1669843633384,ice cream sundae 002,burger,6.43,6.62,0.1900000000000004,ice cream sundae 002,1665.2999997138977,1665,1665.4000000953674,True,u,59702.699999809265,2167.7999997138977,1669843635552,2168,HRV,HRV_0308,2022-11-30 21:32:32
29,"[{'imgObject': {}, 'id': 'salad w chicken', 'src': '/static/foodstim60/salad w chicken.jpg', 'key': 'u', 'origWidth': 411, 'origHeight': 411, 'width': 411, 'height': 411, 'widthPercent': 0.45, 'rescaleHeight': False, 'trialN': 29, 'loaded': True, 'loadedTime': 2789.300000190735, 'positionName': 'LEFT', 'positionCoords': [817.8, 514.5], 'bid': 5.99}, {'imgObject': {}, 'id': 'omelette', 'src': '/static/foodstim60/omelette.jpg', 'key': 'i', 'origWidth': 410, 'origHeight': 409, 'width': 410, 'height': 409, 'widthPercent': 0.45, 'rescaleHeight': False, 'trialN': 29, 'loaded': True, 'loadedTime': 2278.0999999046326, 'positionName': 'RIGHT', 'positionCoords': [1331.2, 515.5], 'bid': 4.71}]",59702.800000190735,1669843635552,salad w chicken,omelette,5.99,4.71,-1.2800000000000002,salad w chicken,1027.2999997138977,1027,1027.5999999046326,True,u,61230.90000009537,1528.0999999046326,1669843637080,1528,HRV,HRV_0308,2022-11-30 21:32:32
30,"[{'imgObject': {}, 'id': 'popsicles', 'src': '/static/foodstim60/popsicles.jpg', 'key': 'u', 'origWidth': 410, 'origHeight': 410, 'width': 410, 'height': 410, 'widthPercent': 0.45, 'rescaleHeight': False, 'trialN': 30, 'loaded': True, 'loadedTime': 2768.199999809265, 'positionName': 'LEFT', 'positionCoords': [818.8, 515], 'bid': 0.07}, {'imgObject': {}, 'id': 'olives', 'src': '/static/foodstim60/olives.jpg', 'key': 'i', 'origWidth': 410, 'origHeight': 410, 'width': 410, 'height': 410, 'widthPercent': 0.45, 'rescaleHeight': False, 'trialN': 30, 'loaded': True, 'loadedTime': 2836.800000190735, 'positionName': 'RIGHT', 'positionCoords': [1331.2, 515], 'bid': 0.07}]",61231.0,1669843637080,popsicles,olives,0.07,0.07,0.0,popsicles,2012.0,2012,2012.1999998092651,True,u,63750.800000190735,2519.800000190735,1669843639600,2520,HRV,HRV_0308,2022-11-30 21:32:32
31,"[{'imgObject': {}, 'id': 'bagel and cc', 'src': '/static/foodstim60/bagel and cc.jpg', 'key': 'u', 'origWidth': 410, 'origHeight': 410, 'width': 410, 'height': 410, 'widthPercent': 0.45, 'rescaleHeight': False, 'trialN': 31, 'loaded': True, 'loadedTime': 2848, 'positionName': 'LEFT', 'positionCoords': [818.8, 515], 'bid': 4.83}, {'imgObject': {}, 'id': 'cocktailshrimp', 'src': '/static/foodstim60/cocktailshrimp.jpg', 'key': 'i', 'origWidth': 410, 'origHeight': 410, 'width': 410, 'height': 410, 'widthPercent': 0.45, 'rescaleHeight': False, 'trialN': 31, 'loaded': True, 'loadedTime': 2825.0999999046326, 'positionName': 'RIGHT', 'positionCoords': [1331.2, 515], 'bid': 4.86}]",63750.90000009537,1669843639600,bagel and cc,cocktailshrimp,4.83,4.86,0.03000000000000025,cocktailshrimp,1889.4000000953674,1890,1889.9000000953674,True,i,66143.0,2392.0999999046326,1669843641992,2392,HRV,HRV_0308,2022-11-30 21:32:32
32,"[{'imgObject': {}, 'id': 'olives', 'src': '/static/foodstim60/olives.jpg', 'key': 'u', 'origWidth': 410, 'origHeight': 410, 'width': 410, 'height': 410, 'widthPercent': 0.45, 'rescaleHeight': False, 'trialN': 32, 'loaded': True, 'loadedTime': 2835.9000000953674, 'positionName': 'LEFT', 'positionCoords': [818.8, 515], 'bid': 0.07}, {'imgObject': {}, 'id': 'cheerios', 'src': '/static/foodstim60/cheerios.jpg', 'key': 'i', 'origWidth': 409, 'origHeight': 410, 'width': 409, 'height': 410, 'widthPercent': 0.45, 'rescaleHeight': False, 'trialN': 32, 'loaded': True, 'loadedTime': 2545.300000190735, 'positionName': 'RIGHT', 'positionCoords': [1331.2, 515], 'bid': 1.01}]",66143.09999990463,1669843641992,olives,cheerios,0.07,1.01,0.94,cheerios,1519.8000001907349,1520,1520.0,True,i,68167.0,2023.9000000953674,1669843644016,2024,HRV,HRV_0308,2022-11-30 21:32:32
33,"[{'imgObject': {}, 'id': 'raisin bran w milk', 'src': '/static/foodstim60/raisin bran w milk.jpg', 'key': 'u', 'origWidth': 411, 'origHeight': 411, 'width': 411, 'height': 411, 'widthPercent': 0.45, 'rescaleHeight': False, 'trialN': 33, 'loaded': True, 'loadedTime': 2850.199999809265, 'positionName': 'LEFT', 'positionCoords': [817.8, 514.5], 'bid': 1.39}, {'imgObject': {}, 'id': 'cherry tomato', 'src': '/static/foodstim60/cherry tomato.jpg', 'key': 'i', 'origWidth': 410, 'origHeight': 410, 'width': 410, 'height': 410, 'widthPercent': 0.45, 'rescaleHeight': False, 'trialN': 33, 'loaded': True, 'loadedTime': 2891.699999809265, 'positionName': 'RIGHT', 'positionCoords': [1331.2, 515], 'bid': 0.42}]",68167.19999980927,1669843644016,raisin bran w milk,cherry tomato,1.39,0.42,-0.97,raisin bran w milk,1046.7000002861023,1047,1047.0,True,u,69719.09999990463,1551.9000000953674,1669843645568,1552,HRV,HRV_0308,2022-11-30 21:32:32
34,"[{'imgObject': {}, 'id': 'mango', 'src': '/static/foodstim60/mango.jpg', 'key': 'u', 'origWidth': 411, 'origHeight': 411, 'width': 411, 'height': 411, 'widthPercent': 0.45, 'rescaleHeight': False, 'trialN': 34, 'loaded': True, 'loadedTime': 2412, 'positionName': 'LEFT', 'positionCoords': [817.8, 514.5], 'bid': 0.75}, {'imgObject': {}, 'id': 'seaweed', 'src': '/static/foodstim60/seaweed.jpg', 'key': 'i', 'origWidth': 410, 'origHeight': 410, 'width': 410, 'height': 410, 'widthPercent': 0.45, 'rescaleHeight': False, 'trialN': 34, 'loaded': True, 'loadedTime': 2892.9000000953674, 'positionName': 'RIGHT', 'positionCoords': [1331.2, 515], 'bid': 4.75}]",69719.19999980927,1669843645568,mango,seaweed,0.75,4.75,4.0,seaweed,986.7000002861023,987,986.9000000953674,True,i,71207.19999980927,1488.0,1669843647056,1488,HRV,HRV_0308,2022-11-30 21:32:32
35,"[{'imgObject': {}, 'id': 'seaweed', 'src': '/static/foodstim60/seaweed.jpg', 'key': 'u', 'origWidth': 410, 'origHeight': 410, 'width': 410, 'height': 410, 'widthPercent': 0.45, 'rescaleHeight': False, 'trialN': 35, 'loaded': True, 'loadedTime': 2893, 'positionName': 'LEFT', 'positionCoords': [818.8, 515], 'bid': 4.75}, {'imgObject': {}, 'id': 'mashed potato', 'src': '/static/foodstim60/mashed potato.jpg', 'key': 'i', 'origWidth': 409, 'origHeight': 409, 'width': 409, 'height': 409, 'widthPercent': 0.45, 'rescaleHeight': False, 'trialN': 35, 'loaded': True, 'loadedTime': 2903.0999999046326, 'positionName': 'RIGHT', 'positionCoords': [1331.2, 515.5], 'bid': 4.5}]",71207.30000019073,1669843647056,seaweed,mashed potato,4.75,4.5,-0.25,seaweed,2016.5,2017,2016.6999998092651,True,u,73727.19999980927,2519.8999996185303,1669843649576,2520,HRV,HRV_0308,2022-11-30 21:32:32
36,"[{'imgObject': {}, 'id': 'eggsalad', 'src': '/static/foodstim60/eggsalad.jpg', 'key': 'u', 'origWidth': 410, 'origHeight': 409, 'width': 410, 'height': 409, 'widthPercent': 0.45, 'rescaleHeight': False, 'trialN': 36, 'loaded': True, 'loadedTime': 2434.800000190735, 'positionName': 'LEFT', 'positionCoords': [818.8, 515.5], 'bid': 5.18}, {'imgObject': {}, 'id': 'eggs', 'src': '/static/foodstim60/eggs.jpg', 'key': 'i', 'origWidth': 409, 'origHeight': 409, 'width': 409, 'height': 409, 'widthPercent': 0.45, 'rescaleHeight': False, 'trialN': 36, 'loaded': True, 'loadedTime': 2715.300000190735, 'positionName': 'RIGHT', 'positionCoords': [1331.2, 515.5], 'bid': 1.02}]",73727.40000009537,1669843649576,eggsalad,eggs,5.18,1.02,-4.16,eggsalad,1076.4000000953674,1077,1076.5999999046326,True,u,75311.30000019073,1583.9000000953674,1669843651160,1584,HRV,HRV_0308,2022-11-30 21:32:32
37,"[{'imgObject': {}, 'id': 'burger', 'src': '/static/foodstim60/burger.jpg', 'key': 'u', 'origWidth': 409, 'origHeight': 409, 'width': 409, 'height': 409, 'widthPercent': 0.45, 'rescaleHeight': False, 'trialN': 37, 'loaded': True, 'loadedTime': 2835.800000190735, 'positionName': 'LEFT', 'positionCoords': [819.8, 515.5], 'bid': 6.62}, {'imgObject': {}, 'id': 'turkeysandwich', 'src': '/static/foodstim60/turkeysandwich.jpg', 'key': 'i', 'origWidth': 409, 'origHeight': 409, 'width': 409, 'height': 409, 'widthPercent': 0.45, 'rescaleHeight': False, 'trialN': 37, 'loaded': True, 'loadedTime': 2495.4000000953674, 'positionName': 'RIGHT', 'positionCoords': [1331.2, 515.5], 'bid': 5.61}]",75311.40000009537,1669843651160,burger,turkeysandwich,6.62,5.61,-1.0099999999999998,burger,1777.6999998092651,1778,1778.0,True,u,77591.40000009537,2280.0,1669843653440,2280,HRV,HRV_0308,2022-11-30 21:32:32
38,"[{'imgObject': {}, 'id': 'sushi w_condiments', 'src': '/static/foodstim60/sushi w_condiments.jpg', 'key': 'u', 'origWidth': 410, 'origHeight': 410, 'width': 410, 'height': 410, 'widthPercent': 0.45, 'rescaleHeight': False, 'trialN': 38, 'loaded': True, 'loadedTime': 2911.300000190735, 'positionName': 'LEFT', 'positionCoords': [818.8, 515], 'bid': 8.58}, {'imgObject': {}, 'id': 'fried eggs', 'src': '/static/foodstim60/fried eggs.jpg', 'key': 'i', 'origWidth': 410, 'origHeight': 410, 'width': 410, 'height': 410, 'widthPercent': 0.45, 'rescaleHeight': False, 'trialN': 38, 'loaded': True, 'loadedTime': 2485, 'positionName': 'RIGHT', 'positionCoords': [1331.2, 515], 'bid': 5}]",77591.59999990463,1669843653440,sushi w_condiments,fried eggs,8.58,5.0,-3.58,sushi w_condiments,1519.0,1520,1519.4000000953674,True,u,79615.5,2023.9000000953674,1669843655464,2024,HRV,HRV_0308,2022-11-30 21:32:32
39,"[{'imgObject': {}, 'id': 'cantaloupe', 'src': '/static/foodstim60/cantaloupe.jpg', 'key': 'u', 'origWidth': 409, 'origHeight': 409, 'width': 409, 'height': 409, 'widthPercent': 0.45, 'rescaleHeight': False, 'trialN': 39, 'loaded': True, 'loadedTime': 2750.5999999046326, 'positionName': 'LEFT', 'positionCoords': [819.8, 515.5], 'bid': 0.88}, {'imgObject': {}, 'id': 'mango', 'src': '/static/foodstim60/mango.jpg', 'key': 'i', 'origWidth': 411, 'origHeight': 411, 'width': 411, 'height': 411, 'widthPercent': 0.45, 'rescaleHeight': False, 'trialN': 39, 'loaded': True, 'loadedTime': 2427, 'positionName': 'RIGHT', 'positionCoords': [1331.2, 514.5], 'bid': 0.75}]",79615.69999980927,1669843655465,cantaloupe,mango,0.88,0.75,-0.13,cantaloupe,2038.9000000953674,2039,2039.0,True,u,82158.59999990463,2542.9000000953674,1669843658008,2543,HRV,HRV_0308,2022-11-30 21:32:32
40,"[{'imgObject': {}, 'id': 'pear', 'src': '/static/foodstim60/pear.jpg', 'key': 'u', 'origWidth': 411, 'origHeight': 410, 'width': 411, 'height': 410, 'widthPercent': 0.45, 'rescaleHeight': False, 'trialN': 40, 'loaded': True, 'loadedTime': 2919.0999999046326, 'positionName': 'LEFT', 'positionCoords': [817.8, 515], 'bid': 1.35}, {'imgObject': {}, 'id': 'cheerios', 'src': '/static/foodstim60/cheerios.jpg', 'key': 'i', 'origWidth': 409, 'origHeight': 410, 'width': 409, 'height': 410, 'widthPercent': 0.45, 'rescaleHeight': False, 'trialN': 40, 'loaded': True, 'loadedTime': 2555.0999999046326, 'positionName': 'RIGHT', 'positionCoords': [1331.2, 515], 'bid': 1.01}]",82158.69999980927,1669843658008,pear,cheerios,1.35,1.01,-0.3400000000000001,cheerios,1259.8000001907349,1260,1260.1000003814697,True,i,83926.59999990463,1767.9000000953674,1669843659776,1768,HRV,HRV_0308,2022-11-30 21:32:32
41,"[{'imgObject': {}, 'id': 'veggieswithdip', 'src': '/static/foodstim60/veggieswithdip.jpg', 'key': 'u', 'origWidth': 409, 'origHeight': 409, 'width': 409, 'height': 409, 'widthPercent': 0.45, 'rescaleHeight': False, 'trialN': 41, 'loaded': True, 'loadedTime': 2308.800000190735, 'positionName': 'LEFT', 'positionCoords': [819.8, 515.5], 'bid': 0.19}, {'imgObject': {}, 'id': 'cheerios', 'src': '/static/foodstim60/cheerios.jpg', 'key': 'i', 'origWidth': 409, 'origHeight': 410, 'width': 409, 'height': 410, 'widthPercent': 0.45, 'rescaleHeight': False, 'trialN': 41, 'loaded': True, 'loadedTime': 2554.5999999046326, 'positionName': 'RIGHT', 'positionCoords': [1331.2, 515], 'bid': 1.01}]",83926.80000019073,1669843659776,veggieswithdip,cheerios,0.19,1.01,0.8200000000000001,cheerios,1215.7999997138977,1217,1215.8999996185303,True,i,85646.80000019073,1720.0,1669843661497,1721,HRV,HRV_0308,2022-11-30 21:32:32
42,"[{'imgObject': {}, 'id': 'blueberries', 'src': '/static/foodstim60/blueberries.jpg', 'key': 'u', 'origWidth': 411, 'origHeight': 411, 'width': 411, 'height': 411, 'widthPercent': 0.45, 'rescaleHeight': False, 'trialN': 42, 'loaded': True, 'loadedTime': 2684.199999809265, 'positionName': 'LEFT', 'positionCoords': [817.8, 514.5], 'bid': 2.06}, {'imgObject': {}, 'id': 'strawberries', 'src': '/static/foodstim60/strawberries.jpg', 'key': 'i', 'origWidth': 410, 'origHeight': 410, 'width': 410, 'height': 410, 'widthPercent': 0.45, 'rescaleHeight': False, 'trialN': 42, 'loaded': True, 'loadedTime': 2919.5, 'positionName': 'RIGHT', 'positionCoords': [1331.2, 515], 'bid': 1.21}]",85646.90000009537,1669843661497,blueberries,strawberries,2.06,1.21,-0.8500000000000001,blueberries,897.5,898,897.6999998092651,True,u,87046.80000019073,1399.9000000953674,1669843662897,1400,HRV,HRV_0308,2022-11-30 21:32:32
43,"[{'imgObject': {}, 'id': 'blueberries', 'src': '/static/foodstim60/blueberries.jpg', 'key': 'u', 'origWidth': 411, 'origHeight': 411, 'width': 411, 'height': 411, 'widthPercent': 0.45, 'rescaleHeight': False, 'trialN': 43, 'loaded': True, 'loadedTime': 2675.199999809265, 'positionName': 'LEFT', 'positionCoords': [817.8, 514.5], 'bid': 2.06}, {'imgObject': {}, 'id': 'olives', 'src': '/static/foodstim60/olives.jpg', 'key': 'i', 'origWidth': 410, 'origHeight': 410, 'width': 410, 'height': 410, 'widthPercent': 0.45, 'rescaleHeight': False, 'trialN': 43, 'loaded': True, 'loadedTime': 2847.699999809265, 'positionName': 'RIGHT', 'positionCoords': [1331.2, 515], 'bid': 0.07}]",87046.90000009537,1669843662897,blueberries,olives,2.06,0.07,-1.99,blueberries,773.7999997138977,774,774.0,True,u,88326.80000019073,1279.9000000953674,1669843664177,1280,HRV,HRV_0308,2022-11-30 21:32:32
44,"[{'imgObject': {}, 'id': 'chickenfingers', 'src': '/static/foodstim60/chickenfingers.jpg', 'key': 'u', 'origWidth': 410, 'origHeight': 410, 'width': 410, 'height': 410, 'widthPercent': 0.45, 'rescaleHeight': False, 'trialN': 44, 'loaded': True, 'loadedTime': 2530, 'positionName': 'LEFT', 'positionCoords': [818.8, 515], 'bid': 9.33}, {'imgObject': {}, 'id': 'chicken nuggets2', 'src': '/static/foodstim60/chicken nuggets2.jpg', 'key': 'i', 'origWidth': 410, 'origHeight': 409, 'width': 410, 'height': 409, 'widthPercent': 0.45, 'rescaleHeight': False, 'trialN': 44, 'loaded': True, 'loadedTime': 2694.800000190735, 'positionName': 'RIGHT', 'positionCoords': [1331.2, 515.5], 'bid': 7.91}]",88327.0,1669843664177,chickenfingers,chicken nuggets2,9.33,7.91,-1.42,chickenfingers,1122.4000000953674,1123,1122.5,True,u,89951.0,1624.0,1669843665801,1624,HRV,HRV_0308,2022-11-30 21:32:32
45,"[{'imgObject': {}, 'id': 'corn cob', 'src': '/static/foodstim60/corn cob.jpg', 'key': 'u', 'origWidth': 411, 'origHeight': 411, 'width': 411, 'height': 411, 'widthPercent': 0.45, 'rescaleHeight': False, 'trialN': 45, 'loaded': True, 'loadedTime': 2336.4000000953674, 'positionName': 'LEFT', 'positionCoords': [817.8, 514.5], 'bid': 1.76}, {'imgObject': {}, 'id': 'mango', 'src': '/static/foodstim60/mango.jpg', 'key': 'i', 'origWidth': 411, 'origHeight': 411, 'width': 411, 'height': 411, 'widthPercent': 0.45, 'rescaleHeight': False, 'trialN': 45, 'loaded': True, 'loadedTime': 2411.699999809265, 'positionName': 'RIGHT', 'positionCoords': [1331.2, 514.5], 'bid': 0.75}]",89951.0,1669843665801,corn cob,mango,1.76,0.75,-1.01,corn cob,1513.3000001907349,1514,1513.5,True,u,91966.90000009537,2015.9000000953674,1669843667817,2016,HRV,HRV_0308,2022-11-30 21:32:32
46,"[{'imgObject': {}, 'id': 'salmon', 'src': '/static/foodstim60/salmon.jpg', 'key': 'u', 'origWidth': 410, 'origHeight': 409, 'width': 410, 'height': 409, 'widthPercent': 0.45, 'rescaleHeight': False, 'trialN': 46, 'loaded': True, 'loadedTime': 2938, 'positionName': 'LEFT', 'positionCoords': [818.8, 515.5], 'bid': 2.03}, {'imgObject': {}, 'id': 'hashbrowns', 'src': '/static/foodstim60/hashbrowns.jpg', 'key': 'i', 'origWidth': 411, 'origHeight': 410, 'width': 411, 'height': 410, 'widthPercent': 0.45, 'rescaleHeight': False, 'trialN': 46, 'loaded': True, 'loadedTime': 2364.9000000953674, 'positionName': 'RIGHT', 'positionCoords': [1331.2, 515], 'bid': 2}]",91967.09999990463,1669843667817,salmon,hashbrowns,2.03,2.0,-0.029999999999999805,hashbrowns,1928.0999999046326,1928,1928.3000001907349,True,i,94399.09999990463,2432.0,1669843670249,2432,HRV,HRV_0308,2022-11-30 21:32:32
47,"[{'imgObject': {}, 'id': 'froot loops w milk', 'src': '/static/foodstim60/froot loops w milk.jpg', 'key': 'u', 'origWidth': 410, 'origHeight': 410, 'width': 410, 'height': 410, 'widthPercent': 0.45, 'rescaleHeight': False, 'trialN': 47, 'loaded': True, 'loadedTime': 2947.699999809265, 'positionName': 'LEFT', 'positionCoords': [818.8, 515], 'bid': 0.68}, {'imgObject': {}, 'id': 'omelette', 'src': '/static/foodstim60/omelette.jpg', 'key': 'i', 'origWidth': 410, 'origHeight': 409, 'width': 410, 'height': 409, 'widthPercent': 0.45, 'rescaleHeight': False, 'trialN': 47, 'loaded': True, 'loadedTime': 2278.300000190735, 'positionName': 'RIGHT', 'positionCoords': [1331.2, 515.5], 'bid': 4.71}]",94399.19999980927,1669843670249,froot loops w milk,omelette,0.68,4.71,4.03,omelette,844.0,845,844.3000001907349,True,i,95751.19999980927,1352.0,1669843671601,1352,HRV,HRV_0308,2022-11-30 21:32:32
48,"[{'imgObject': {}, 'id': 'cheerios', 'src': '/static/foodstim60/cheerios.jpg', 'key': 'u', 'origWidth': 409, 'origHeight': 410, 'width': 409, 'height': 410, 'widthPercent': 0.45, 'rescaleHeight': False, 'trialN': 48, 'loaded': True, 'loadedTime': 2555, 'positionName': 'LEFT', 'positionCoords': [819.8, 515], 'bid': 1.01}, {'imgObject': {}, 'id': 'kiwi', 'src': '/static/foodstim60/kiwi.jpg', 'key': 'i', 'origWidth': 410, 'origHeight': 410, 'width': 410, 'height': 410, 'widthPercent': 0.45, 'rescaleHeight': False, 'trialN': 48, 'loaded': True, 'loadedTime': 2528.0999999046326, 'positionName': 'RIGHT', 'positionCoords': [1331.2, 515], 'bid': 1.04}]",95751.30000019073,1669843671601,cheerios,kiwi,1.01,1.04,0.030000000000000027,cheerios,1300.8999996185303,1301,1301.0999999046326,True,u,97559.30000019073,1808.0,1669843673409,1808,HRV,HRV_0308,2022-11-30 21:32:32
49,"[{'imgObject': {}, 'id': 'sushi w_condiments', 'src': '/static/foodstim60/sushi w_condiments.jpg', 'key': 'u', 'origWidth': 410, 'origHeight': 410, 'width': 410, 'height': 410, 'widthPercent': 0.45, 'rescaleHeight': False, 'trialN': 49, 'loaded': True, 'loadedTime': 2911.5, 'positionName': 'LEFT', 'positionCoords': [818.8, 515], 'bid': 8.58}, {'imgObject': {}, 'id': 'omelette', 'src': '/static/foodstim60/omelette.jpg', 'key': 'i', 'origWidth': 410, 'origHeight': 409, 'width': 410, 'height': 409, 'widthPercent': 0.45, 'rescaleHeight': False, 'trialN': 49, 'loaded': True, 'loadedTime': 2289.300000190735, 'positionName': 'RIGHT', 'positionCoords': [1331.2, 515.5], 'bid': 4.71}]",97559.30000019073,1669843673409,sushi w_condiments,omelette,8.58,4.71,-3.87,sushi w_condiments,1050.0,1051,1050.1999998092651,True,u,99111.19999980927,1551.8999996185303,1669843674961,1552,HRV,HRV_0308,2022-11-30 21:32:32
50,"[{'imgObject': {}, 'id': 'edamame', 'src': '/static/foodstim60/edamame.jpg', 'key': 'u', 'origWidth': 409, 'origHeight': 410, 'width': 409, 'height': 410, 'widthPercent': 0.45, 'rescaleHeight': False, 'trialN': 50, 'loaded': True, 'loadedTime': 2409.4000000953674, 'positionName': 'LEFT', 'positionCoords': [819.8, 515], 'bid': 0.08}, {'imgObject': {}, 'id': 'cherry tomato', 'src': '/static/foodstim60/cherry tomato.jpg', 'key': 'i', 'origWidth': 410, 'origHeight': 410, 'width': 410, 'height': 410, 'widthPercent': 0.45, 'rescaleHeight': False, 'trialN': 50, 'loaded': True, 'loadedTime': 2890.300000190735, 'positionName': 'RIGHT', 'positionCoords': [1331.2, 515], 'bid': 0.42}]",99111.30000019073,1669843674961,edamame,cherry tomato,0.08,0.42,0.33999999999999997,cherry tomato,1662.7999997138977,1663,1663.0,True,i,101279.30000019073,2168.0,1669843677129,2168,HRV,HRV_0308,2022-11-30 21:32:32
51,"[{'imgObject': {}, 'id': 'cantaloupe', 'src': '/static/foodstim60/cantaloupe.jpg', 'key': 'u', 'origWidth': 409, 'origHeight': 409, 'width': 409, 'height': 409, 'widthPercent': 0.45, 'rescaleHeight': False, 'trialN': 51, 'loaded': True, 'loadedTime': 2750.0999999046326, 'positionName': 'LEFT', 'positionCoords': [819.8, 515.5], 'bid': 0.88}, {'imgObject': {}, 'id': 'apple slices', 'src': '/static/foodstim60/apple slices.jpg', 'key': 'i', 'origWidth': 409, 'origHeight': 410, 'width': 409, 'height': 410, 'widthPercent': 0.45, 'rescaleHeight': False, 'trialN': 51, 'loaded': True, 'loadedTime': 2746.699999809265, 'positionName': 'RIGHT', 'positionCoords': [1331.2, 515], 'bid': 1.07}]",101279.40000009537,1669843677129,cantaloupe,apple slices,0.88,1.07,0.19000000000000006,apple slices,2077.5999999046326,2078,2078.0,True,i,103863.40000009537,2584.0,1669843679713,2584,HRV,HRV_0308,2022-11-30 21:32:32
52,"[{'imgObject': {}, 'id': 'cantaloupe', 'src': '/static/foodstim60/cantaloupe.jpg', 'key': 'u', 'origWidth': 409, 'origHeight': 409, 'width': 409, 'height': 409, 'widthPercent': 0.45, 'rescaleHeight': False, 'trialN': 52, 'loaded': True, 'loadedTime': 2750.300000190735, 'positionName': 'LEFT', 'positionCoords': [819.8, 515.5], 'bid': 0.88}, {'imgObject': {}, 'id': 'cocktailshrimp', 'src': '/static/foodstim60/cocktailshrimp.jpg', 'key': 'i', 'origWidth': 410, 'origHeight': 410, 'width': 410, 'height': 410, 'widthPercent': 0.45, 'rescaleHeight': False, 'trialN': 52, 'loaded': True, 'loadedTime': 2824.5999999046326, 'positionName': 'RIGHT', 'positionCoords': [1331.2, 515], 'bid': 4.86}]",103863.5,1669843679714,cantaloupe,cocktailshrimp,0.88,4.86,3.9800000000000004,cocktailshrimp,1044.5,1044,1044.8000001907349,True,i,105415.5,1552.0,1669843681266,1552,HRV,HRV_0308,2022-11-30 21:32:32
53,"[{'imgObject': {}, 'id': 'steak', 'src': '/static/foodstim60/steak.jpg', 'key': 'u', 'origWidth': 410, 'origHeight': 410, 'width': 410, 'height': 410, 'widthPercent': 0.45, 'rescaleHeight': False, 'trialN': 53, 'loaded': True, 'loadedTime': 2949.5, 'positionName': 'LEFT', 'positionCoords': [818.8, 515], 'bid': 9.41}, {'imgObject': {}, 'id': 'turkeysandwich', 'src': '/static/foodstim60/turkeysandwich.jpg', 'key': 'i', 'origWidth': 409, 'origHeight': 409, 'width': 409, 'height': 409, 'widthPercent': 0.45, 'rescaleHeight': False, 'trialN': 53, 'loaded': True, 'loadedTime': 2502.199999809265, 'positionName': 'RIGHT', 'positionCoords': [1331.2, 515.5], 'bid': 5.61}]",105415.59999990463,1669843681266,steak,turkeysandwich,9.41,5.61,-3.8,steak,1056.3000001907349,1056,1056.5999999046326,True,u,106975.5,1559.9000000953674,1669843682826,1560,HRV,HRV_0308,2022-11-30 21:32:32
54,"[{'imgObject': {}, 'id': 'mashed potato', 'src': '/static/foodstim60/mashed potato.jpg', 'key': 'u', 'origWidth': 409, 'origHeight': 409, 'width': 409, 'height': 409, 'widthPercent': 0.45, 'rescaleHeight': False, 'trialN': 54, 'loaded': True, 'loadedTime': 2903.4000000953674, 'positionName': 'LEFT', 'positionCoords': [819.8, 515.5], 'bid': 4.5}, {'imgObject': {}, 'id': 'banana', 'src': '/static/foodstim60/banana.jpg', 'key': 'i', 'origWidth': 410, 'origHeight': 410, 'width': 410, 'height': 410, 'widthPercent': 0.45, 'rescaleHeight': False, 'trialN': 54, 'loaded': True, 'loadedTime': 2262.300000190735, 'positionName': 'RIGHT', 'positionCoords': [1331.2, 515], 'bid': 4.43}]",106975.69999980927,1669843682826,mashed potato,banana,4.5,4.43,-0.07000000000000028,mashed potato,2603.4000000953674,2603,2603.800000190735,True,u,110086.69999980927,3111.0,1669843685937,3111,HRV,HRV_0308,2022-11-30 21:32:32
55,"[{'imgObject': {}, 'id': 'sushi w_condiments', 'src': '/static/foodstim60/sushi w_condiments.jpg', 'key': 'u', 'origWidth': 410, 'origHeight': 410, 'width': 410, 'height': 410, 'widthPercent': 0.45, 'rescaleHeight': False, 'trialN': 55, 'loaded': True, 'loadedTime': 2911.199999809265, 'positionName': 'LEFT', 'positionCoords': [818.8, 515], 'bid': 8.58}, {'imgObject': {}, 'id': 'chicken nuggets2', 'src': '/static/foodstim60/chicken nuggets2.jpg', 'key': 'i', 'origWidth': 410, 'origHeight': 409, 'width': 410, 'height': 409, 'widthPercent': 0.45, 'rescaleHeight': False, 'trialN': 55, 'loaded': True, 'loadedTime': 2695, 'positionName': 'RIGHT', 'positionCoords': [1331.2, 515.5], 'bid': 7.91}]",110086.80000019073,1669843685937,sushi w_condiments,chicken nuggets2,8.58,7.91,-0.6699999999999999,chicken nuggets2,1794.0,1794,1794.5,True,i,112382.80000019073,2296.0,1669843688233,2296,HRV,HRV_0308,2022-11-30 21:32:32
56,"[{'imgObject': {}, 'id': 'banana', 'src': '/static/foodstim60/banana.jpg', 'key': 'u', 'origWidth': 410, 'origHeight': 410, 'width': 410, 'height': 410, 'widthPercent': 0.45, 'rescaleHeight': False, 'trialN': 56, 'loaded': True, 'loadedTime': 2266.0999999046326, 'positionName': 'LEFT', 'positionCoords': [818.8, 515], 'bid': 4.43}, {'imgObject': {}, 'id': 'fruitsalad', 'src': '/static/foodstim60/fruitsalad.jpg', 'key': 'i', 'origWidth': 410, 'origHeight': 410, 'width': 410, 'height': 410, 'widthPercent': 0.45, 'rescaleHeight': False, 'trialN': 56, 'loaded': True, 'loadedTime': 2631.5999999046326, 'positionName': 'RIGHT', 'positionCoords': [1331.2, 515], 'bid': 0.42}]",112382.90000009537,1669843688233,banana,fruitsalad,4.43,0.42,-4.01,banana,1053.7999997138977,1054,1054.0,True,u,113942.80000019073,1559.9000000953674,1669843689793,1560,HRV,HRV_0308,2022-11-30 21:32:32
57,"[{'imgObject': {}, 'id': 'chicken nuggets2', 'src': '/static/foodstim60/chicken nuggets2.jpg', 'key': 'u', 'origWidth': 410, 'origHeight': 409, 'width': 410, 'height': 409, 'widthPercent': 0.45, 'rescaleHeight': False, 'trialN': 57, 'loaded': True, 'loadedTime': 2693.800000190735, 'positionName': 'LEFT', 'positionCoords': [818.8, 515.5], 'bid': 7.91}, {'imgObject': {}, 'id': 'hotdog w must', 'src': '/static/foodstim60/hotdog w must.jpg', 'key': 'i', 'origWidth': 409, 'origHeight': 409, 'width': 409, 'height': 409, 'widthPercent': 0.45, 'rescaleHeight': False, 'trialN': 57, 'loaded': True, 'loadedTime': 2757.5, 'positionName': 'RIGHT', 'positionCoords': [1331.2, 515.5], 'bid': 5.69}]",113942.90000009537,1669843689793,chicken nuggets2,hotdog w must,7.91,5.69,-2.2199999999999998,chicken nuggets2,1065.7999997138977,1066,1066.0999999046326,True,u,115510.80000019073,1567.9000000953674,1669843691361,1568,HRV,HRV_0308,2022-11-30 21:32:32
58,"[{'imgObject': {}, 'id': 'shreddedwheatwithmilk', 'src': '/static/foodstim60/shreddedwheatwithmilk.jpg', 'key': 'u', 'origWidth': 410, 'origHeight': 410, 'width': 410, 'height': 410, 'widthPercent': 0.45, 'rescaleHeight': False, 'trialN': 58, 'loaded': True, 'loadedTime': 2958.199999809265, 'positionName': 'LEFT', 'positionCoords': [818.8, 515], 'bid': 1.53}, {'imgObject': {}, 'id': 'raisin bran w milk', 'src': '/static/foodstim60/raisin bran w milk.jpg', 'key': 'i', 'origWidth': 411, 'origHeight': 411, 'width': 411, 'height': 411, 'widthPercent': 0.45, 'rescaleHeight': False, 'trialN': 58, 'loaded': True, 'loadedTime': 2868.5999999046326, 'positionName': 'RIGHT', 'positionCoords': [1331.2, 514.5], 'bid': 1.39}]",115511.0,1669843691361,shreddedwheatwithmilk,raisin bran w milk,1.53,1.39,-0.14000000000000012,shreddedwheatwithmilk,2130.5999999046326,2131,2130.800000190735,True,u,118143.0,2632.0,1669843693993,2632,HRV,HRV_0308,2022-11-30 21:32:32
59,"[{'imgObject': {}, 'id': 'cocktailshrimp', 'src': '/static/foodstim60/cocktailshrimp.jpg', 'key': 'u', 'origWidth': 410, 'origHeight': 410, 'width': 410, 'height': 410, 'widthPercent': 0.45, 'rescaleHeight': False, 'trialN': 59, 'loaded': True, 'loadedTime': 2807.800000190735, 'positionName': 'LEFT', 'positionCoords': [818.8, 515], 'bid': 4.86}, {'imgObject': {}, 'id': 'burger', 'src': '/static/foodstim60/burger.jpg', 'key': 'i', 'origWidth': 409, 'origHeight': 409, 'width': 409, 'height': 409, 'widthPercent': 0.45, 'rescaleHeight': False, 'trialN': 59, 'loaded': True, 'loadedTime': 2835.800000190735, 'positionName': 'RIGHT', 'positionCoords': [1331.2, 515.5], 'bid': 6.62}]",118143.19999980927,1669843693993,cocktailshrimp,burger,4.86,6.62,1.7599999999999998,burger,1703.6000003814697,1704,1703.9000000953674,True,i,120351.09999990463,2207.9000000953674,1669843696201,2208,HRV,HRV_0308,2022-11-30 21:32:32
60,"[{'imgObject': {}, 'id': 'bagel plain', 'src': '/static/foodstim60/bagel plain.jpg', 'key': 'u', 'origWidth': 410, 'origHeight': 410, 'width': 410, 'height': 410, 'widthPercent': 0.45, 'rescaleHeight': False, 'trialN': 60, 'loaded': True, 'loadedTime': 2247.9000000953674, 'positionName': 'LEFT', 'positionCoords': [818.8, 515], 'bid': 3.86}, {'imgObject': {}, 'id': 'cherries', 'src': '/static/foodstim60/cherries.jpg', 'key': 'i', 'origWidth': 410, 'origHeight': 411, 'width': 410, 'height': 411, 'widthPercent': 0.45, 'rescaleHeight': False, 'trialN': 60, 'loaded': True, 'loadedTime': 2250.5999999046326, 'positionName': 'RIGHT', 'positionCoords': [1331.2, 514.5], 'bid': 2.51}]",120351.19999980927,1669843696201,bagel plain,cherries,3.86,2.51,-1.35,bagel plain,1761.3000001907349,1762,1761.5,True,u,122615.19999980927,2264.0,1669843698465,2264,HRV,HRV_0308,2022-11-30 21:32:32
61,"[{'imgObject': {}, 'id': 'kiwi', 'src': '/static/foodstim60/kiwi.jpg', 'key': 'u', 'origWidth': 410, 'origHeight': 410, 'width': 410, 'height': 410, 'widthPercent': 0.45, 'rescaleHeight': False, 'trialN': 61, 'loaded': True, 'loadedTime': 2526.4000000953674, 'positionName': 'LEFT', 'positionCoords': [818.8, 515], 'bid': 1.04}, {'imgObject': {}, 'id': 'cherry tomato', 'src': '/static/foodstim60/cherry tomato.jpg', 'key': 'i', 'origWidth': 410, 'origHeight': 410, 'width': 410, 'height': 410, 'widthPercent': 0.45, 'rescaleHeight': False, 'trialN': 61, 'loaded': True, 'loadedTime': 2891.699999809265, 'positionName': 'RIGHT', 'positionCoords': [1331.2, 515], 'bid': 0.42}]",122615.30000019073,1669843698465,kiwi,cherry tomato,1.04,0.42,-0.6200000000000001,cherry tomato,2411.199999809265,2412,2411.3999996185303,True,i,125535.40000009537,2920.0999999046326,1669843701385,2920,HRV,HRV_0308,2022-11-30 21:32:32
62,"[{'imgObject': {}, 'id': 'apple slices', 'src': '/static/foodstim60/apple slices.jpg', 'key': 'u', 'origWidth': 409, 'origHeight': 410, 'width': 409, 'height': 410, 'widthPercent': 0.45, 'rescaleHeight': False, 'trialN': 62, 'loaded': True, 'loadedTime': 2745.300000190735, 'positionName': 'LEFT', 'positionCoords': [819.8, 515], 'bid': 1.07}, {'imgObject': {}, 'id': 'turkey sandwich', 'src': '/static/foodstim60/turkey sandwich.jpg', 'key': 'i', 'origWidth': 409, 'origHeight': 409, 'width': 409, 'height': 409, 'widthPercent': 0.45, 'rescaleHeight': False, 'trialN': 62, 'loaded': True, 'loadedTime': 2807.4000000953674, 'positionName': 'RIGHT', 'positionCoords': [1331.2, 515.5], 'bid': 5.79}]",125535.5,1669843701386,apple slices,turkey sandwich,1.07,5.79,4.72,turkey sandwich,1268.9000000953674,1269,1269.0999999046326,True,i,127311.40000009537,1775.9000000953674,1669843703161,1775,HRV,HRV_0308,2022-11-30 21:32:32
63,"[{'imgObject': {}, 'id': 'chickenfingers', 'src': '/static/foodstim60/chickenfingers.jpg', 'key': 'u', 'origWidth': 410, 'origHeight': 410, 'width': 410, 'height': 410, 'widthPercent': 0.45, 'rescaleHeight': False, 'trialN': 63, 'loaded': True, 'loadedTime': 2530.5, 'positionName': 'LEFT', 'positionCoords': [818.8, 515], 'bid': 9.33}, {'imgObject': {}, 'id': 'steak', 'src': '/static/foodstim60/steak.jpg', 'key': 'i', 'origWidth': 410, 'origHeight': 410, 'width': 410, 'height': 410, 'widthPercent': 0.45, 'rescaleHeight': False, 'trialN': 63, 'loaded': True, 'loadedTime': 2949.4000000953674, 'positionName': 'RIGHT', 'positionCoords': [1331.2, 515], 'bid': 9.41}]",127311.5,1669843703162,chickenfingers,steak,9.33,9.41,0.08000000000000007,chickenfingers,1200.9000000953674,1201,1201.1999998092651,True,u,129015.5,1704.0,1669843704865,1703,HRV,HRV_0308,2022-11-30 21:32:32
64,"[{'imgObject': {}, 'id': 'cherries', 'src': '/static/foodstim60/cherries.jpg', 'key': 'u', 'origWidth': 410, 'origHeight': 411, 'width': 410, 'height': 411, 'widthPercent': 0.45, 'rescaleHeight': False, 'trialN': 64, 'loaded': True, 'loadedTime': 2251.4000000953674, 'positionName': 'LEFT', 'positionCoords': [818.8, 514.5], 'bid': 2.51}, {'imgObject': {}, 'id': 'seaweed', 'src': '/static/foodstim60/seaweed.jpg', 'key': 'i', 'origWidth': 410, 'origHeight': 410, 'width': 410, 'height': 410, 'widthPercent': 0.45, 'rescaleHeight': False, 'trialN': 64, 'loaded': True, 'loadedTime': 2891.800000190735, 'positionName': 'RIGHT', 'positionCoords': [1331.2, 515], 'bid': 4.75}]",129015.59999990463,1669843704866,cherries,seaweed,2.51,4.75,2.24,seaweed,1407.9000000953674,1408,1408.0999999046326,True,i,130927.5,1911.9000000953674,1669843706778,1912,HRV,HRV_0308,2022-11-30 21:32:32
65,"[{'imgObject': {}, 'id': 'steak', 'src': '/static/foodstim60/steak.jpg', 'key': 'u', 'origWidth': 410, 'origHeight': 410, 'width': 410, 'height': 410, 'widthPercent': 0.45, 'rescaleHeight': False, 'trialN': 65, 'loaded': True, 'loadedTime': 2949.0999999046326, 'positionName': 'LEFT', 'positionCoords': [818.8, 515], 'bid': 9.41}, {'imgObject': {}, 'id': 'sushi w_condiments', 'src': '/static/foodstim60/sushi w_condiments.jpg', 'key': 'i', 'origWidth': 410, 'origHeight': 410, 'width': 410, 'height': 410, 'widthPercent': 0.45, 'rescaleHeight': False, 'trialN': 65, 'loaded': True, 'loadedTime': 2904.4000000953674, 'positionName': 'RIGHT', 'positionCoords': [1331.2, 515], 'bid': 8.58}]",130927.59999990463,1669843706778,steak,sushi w_condiments,9.41,8.58,-0.8300000000000001,steak,1036.7000002861023,1037,1037.0,True,u,132471.59999990463,1544.0,1669843708322,1544,HRV,HRV_0308,2022-11-30 21:32:32
66,"[{'imgObject': {}, 'id': 'salmon', 'src': '/static/foodstim60/salmon.jpg', 'key': 'u', 'origWidth': 410, 'origHeight': 409, 'width': 410, 'height': 409, 'widthPercent': 0.45, 'rescaleHeight': False, 'trialN': 66, 'loaded': True, 'loadedTime': 2937.5999999046326, 'positionName': 'LEFT', 'positionCoords': [818.8, 515.5], 'bid': 2.03}, {'imgObject': {}, 'id': 'avocado', 'src': '/static/foodstim60/avocado.jpg', 'key': 'i', 'origWidth': 409, 'origHeight': 409, 'width': 409, 'height': 409, 'widthPercent': 0.45, 'rescaleHeight': False, 'trialN': 66, 'loaded': True, 'loadedTime': 2959.4000000953674, 'positionName': 'RIGHT', 'positionCoords': [1331.2, 515.5], 'bid': 0.07}]",132471.69999980927,1669843708322,salmon,avocado,2.03,0.07,-1.9599999999999997,salmon,1566.5,1566,1566.8000001907349,True,u,134542.69999980927,2071.0,1669843710393,2071,HRV,HRV_0308,2022-11-30 21:32:32
67,"[{'imgObject': {}, 'id': 'apple slices', 'src': '/static/foodstim60/apple slices.jpg', 'key': 'u', 'origWidth': 409, 'origHeight': 410, 'width': 409, 'height': 410, 'widthPercent': 0.45, 'rescaleHeight': False, 'trialN': 67, 'loaded': True, 'loadedTime': 2746.199999809265, 'positionName': 'LEFT', 'positionCoords': [819.8, 515], 'bid': 1.07}, {'imgObject': {}, 'id': 'pear', 'src': '/static/foodstim60/pear.jpg', 'key': 'i', 'origWidth': 411, 'origHeight': 410, 'width': 411, 'height': 410, 'widthPercent': 0.45, 'rescaleHeight': False, 'trialN': 67, 'loaded': True, 'loadedTime': 2911.5999999046326, 'positionName': 'RIGHT', 'positionCoords': [1331.2, 515], 'bid': 1.35}]",134542.80000019073,1669843710393,apple slices,pear,1.07,1.35,0.28,pear,2018.3999996185303,2018,2018.5999999046326,True,i,137062.69999980927,2519.8999996185303,1669843712913,2520,HRV,HRV_0308,2022-11-30 21:32:32
68,"[{'imgObject': {}, 'id': 'hashbrowns', 'src': '/static/foodstim60/hashbrowns.jpg', 'key': 'u', 'origWidth': 411, 'origHeight': 410, 'width': 411, 'height': 410, 'widthPercent': 0.45, 'rescaleHeight': False, 'trialN': 68, 'loaded': True, 'loadedTime': 2374.5, 'positionName': 'LEFT', 'positionCoords': [817.8, 515], 'bid': 2}, {'imgObject': {}, 'id': 'steak', 'src': '/static/foodstim60/steak.jpg', 'key': 'i', 'origWidth': 410, 'origHeight': 410, 'width': 410, 'height': 410, 'widthPercent': 0.45, 'rescaleHeight': False, 'trialN': 68, 'loaded': True, 'loadedTime': 2949, 'positionName': 'RIGHT', 'positionCoords': [1331.2, 515], 'bid': 9.41}]",137062.90000009537,1669843712913,hashbrowns,steak,2.0,9.41,7.41,steak,866.1999998092651,866,866.5,True,i,138430.80000019073,1367.9000000953674,1669843714281,1368,HRV,HRV_0308,2022-11-30 21:32:32
69,"[{'imgObject': {}, 'id': 'fried eggs', 'src': '/static/foodstim60/fried eggs.jpg', 'key': 'u', 'origWidth': 410, 'origHeight': 410, 'width': 410, 'height': 410, 'widthPercent': 0.45, 'rescaleHeight': False, 'trialN': 69, 'loaded': True, 'loadedTime': 2476.300000190735, 'positionName': 'LEFT', 'positionCoords': [818.8, 515], 'bid': 5}, {'imgObject': {}, 'id': 'mashed potato', 'src': '/static/foodstim60/mashed potato.jpg', 'key': 'i', 'origWidth': 409, 'origHeight': 409, 'width': 409, 'height': 409, 'widthPercent': 0.45, 'rescaleHeight': False, 'trialN': 69, 'loaded': True, 'loadedTime': 2903.4000000953674, 'positionName': 'RIGHT', 'positionCoords': [1331.2, 515.5], 'bid': 4.5}]",138431.0,1669843714281,fried eggs,mashed potato,5.0,4.5,-0.5,fried eggs,1171.1999998092651,1171,1171.3000001907349,True,u,140102.90000009537,1671.9000000953674,1669843715953,1672,HRV,HRV_0308,2022-11-30 21:32:32
70,"[{'imgObject': {}, 'id': 'strawberries', 'src': '/static/foodstim60/strawberries.jpg', 'key': 'u', 'origWidth': 410, 'origHeight': 410, 'width': 410, 'height': 410, 'widthPercent': 0.45, 'rescaleHeight': False, 'trialN': 70, 'loaded': True, 'loadedTime': 2920.199999809265, 'positionName': 'LEFT', 'positionCoords': [818.8, 515], 'bid': 1.21}, {'imgObject': {}, 'id': 'salad w chicken', 'src': '/static/foodstim60/salad w chicken.jpg', 'key': 'i', 'origWidth': 411, 'origHeight': 411, 'width': 411, 'height': 411, 'widthPercent': 0.45, 'rescaleHeight': False, 'trialN': 70, 'loaded': True, 'loadedTime': 2789.800000190735, 'positionName': 'RIGHT', 'positionCoords': [1331.2, 514.5], 'bid': 5.99}]",140102.90000009537,1669843715953,strawberries,salad w chicken,1.21,5.99,4.78,salad w chicken,820.5999999046326,821,820.7999997138977,True,i,141430.90000009537,1328.0,1669843717281,1328,HRV,HRV_0308,2022-11-30 21:32:32
71,"[{'imgObject': {}, 'id': 'roastedpotatoes', 'src': '/static/foodstim60/roastedpotatoes.jpg', 'key': 'u', 'origWidth': 409, 'origHeight': 410, 'width': 409, 'height': 410, 'widthPercent': 0.45, 'rescaleHeight': False, 'trialN': 71, 'loaded': True, 'loadedTime': 2981.199999809265, 'positionName': 'LEFT', 'positionCoords': [819.8, 515], 'bid': 6.42}, {'imgObject': {}, 'id': 'steak', 'src': '/static/foodstim60/steak.jpg', 'key': 'i', 'origWidth': 410, 'origHeight': 410, 'width': 410, 'height': 410, 'widthPercent': 0.45, 'rescaleHeight': False, 'trialN': 71, 'loaded': True, 'loadedTime': 2949.0999999046326, 'positionName': 'RIGHT', 'positionCoords': [1331.2, 515], 'bid': 9.41}]",141431.0,1669843717281,roastedpotatoes,steak,6.42,9.41,2.99,steak,1100.0,1100,1100.3000001907349,True,i,143039.0,1608.0,1669843718889,1608,HRV,HRV_0308,2022-11-30 21:32:32
72,"[{'imgObject': {}, 'id': 'orange slices', 'src': '/static/foodstim60/orange slices.jpg', 'key': 'u', 'origWidth': 409, 'origHeight': 410, 'width': 409, 'height': 410, 'widthPercent': 0.45, 'rescaleHeight': False, 'trialN': 72, 'loaded': True, 'loadedTime': 2981.5, 'positionName': 'LEFT', 'positionCoords': [819.8, 515], 'bid': 2.01}, {'imgObject': {}, 'id': 'popsicles', 'src': '/static/foodstim60/popsicles.jpg', 'key': 'i', 'origWidth': 410, 'origHeight': 410, 'width': 410, 'height': 410, 'widthPercent': 0.45, 'rescaleHeight': False, 'trialN': 72, 'loaded': True, 'loadedTime': 2758.300000190735, 'positionName': 'RIGHT', 'positionCoords': [1331.2, 515], 'bid': 0.07}]",143039.09999990463,1669843718889,orange slices,popsicles,2.01,0.07,-1.9399999999999997,orange slices,818.0,818,818.0999999046326,True,u,144359.30000019073,1320.2000002861023,1669843720209,1320,HRV,HRV_0308,2022-11-30 21:32:32
73,"[{'imgObject': {}, 'id': 'granola w milk', 'src': '/static/foodstim60/granola w milk.jpg', 'key': 'u', 'origWidth': 410, 'origHeight': 410, 'width': 410, 'height': 410, 'widthPercent': 0.45, 'rescaleHeight': False, 'trialN': 73, 'loaded': True, 'loadedTime': 2748.5, 'positionName': 'LEFT', 'positionCoords': [818.8, 515], 'bid': 0.86}, {'imgObject': {}, 'id': 'bagel and cc', 'src': '/static/foodstim60/bagel and cc.jpg', 'key': 'i', 'origWidth': 410, 'origHeight': 410, 'width': 410, 'height': 410, 'widthPercent': 0.45, 'rescaleHeight': False, 'trialN': 73, 'loaded': True, 'loadedTime': 2848.9000000953674, 'positionName': 'RIGHT', 'positionCoords': [1331.2, 515], 'bid': 4.83}]",144359.40000009537,1669843720209,granola w milk,bagel and cc,0.86,4.83,3.97,bagel and cc,1273.5999999046326,1275,1273.9000000953674,True,i,146135.09999990463,1775.6999998092651,1669843721986,1777,HRV,HRV_0308,2022-11-30 21:32:32
74,"[{'imgObject': {}, 'id': 'grilled chicken strips', 'src': '/static/foodstim60/grilled chicken strips.jpg', 'key': 'u', 'origWidth': 410, 'origHeight': 411, 'width': 410, 'height': 411, 'widthPercent': 0.45, 'rescaleHeight': False, 'trialN': 74, 'loaded': True, 'loadedTime': 2466.699999809265, 'positionName': 'LEFT', 'positionCoords': [818.8, 514.5], 'bid': 5}, {'imgObject': {}, 'id': 'salmon', 'src': '/static/foodstim60/salmon.jpg', 'key': 'i', 'origWidth': 410, 'origHeight': 409, 'width': 410, 'height': 409, 'widthPercent': 0.45, 'rescaleHeight': False, 'trialN': 74, 'loaded': True, 'loadedTime': 2938.0999999046326, 'positionName': 'RIGHT', 'positionCoords': [1331.2, 515.5], 'bid': 2.03}]",146135.19999980927,1669843721986,grilled chicken strips,salmon,5.0,2.03,-2.97,grilled chicken strips,1974.7000002861023,1975,1975.0,True,u,148615.19999980927,2480.0,1669843724466,2480,HRV,HRV_0308,2022-11-30 21:32:32
75,"[{'imgObject': {}, 'id': 'cherry tomato', 'src': '/static/foodstim60/cherry tomato.jpg', 'key': 'u', 'origWidth': 410, 'origHeight': 410, 'width': 410, 'height': 410, 'widthPercent': 0.45, 'rescaleHeight': False, 'trialN': 75, 'loaded': True, 'loadedTime': 2891.5, 'positionName': 'LEFT', 'positionCoords': [818.8, 515], 'bid': 0.42}, {'imgObject': {}, 'id': 'blackbeanswithrice', 'src': '/static/foodstim60/blackbeanswithrice.jpg', 'key': 'i', 'origWidth': 410, 'origHeight': 410, 'width': 410, 'height': 410, 'widthPercent': 0.45, 'rescaleHeight': False, 'trialN': 75, 'loaded': True, 'loadedTime': 2750.699999809265, 'positionName': 'RIGHT', 'positionCoords': [1331.2, 515], 'bid': 0.48}]",148615.40000009537,1669843724466,cherry tomato,blackbeanswithrice,0.42,0.48,0.06,cherry tomato,894.5,895,894.6999998092651,True,u,150015.30000019073,1399.9000000953674,1669843725866,1400,HRV,HRV_0308,2022-11-30 21:32:32
76,"[{'imgObject': {}, 'id': 'cherry tomato', 'src': '/static/foodstim60/cherry tomato.jpg', 'key': 'u', 'origWidth': 410, 'origHeight': 410, 'width': 410, 'height': 410, 'widthPercent': 0.45, 'rescaleHeight': False, 'trialN': 76, 'loaded': True, 'loadedTime': 2891.4000000953674, 'positionName': 'LEFT', 'positionCoords': [818.8, 515], 'bid': 0.42}, {'imgObject': {}, 'id': 'rigatoni and sauce', 'src': '/static/foodstim60/rigatoni and sauce.jpg', 'key': 'i', 'origWidth': 410, 'origHeight': 411, 'width': 410, 'height': 411, 'widthPercent': 0.45, 'rescaleHeight': False, 'trialN': 76, 'loaded': True, 'loadedTime': 2622, 'positionName': 'RIGHT', 'positionCoords': [1331.2, 514.5], 'bid': 0.21}]",150015.40000009537,1669843725866,cherry tomato,rigatoni and sauce,0.42,0.21,-0.21,rigatoni and sauce,1549.7999997138977,1550,1550.0,True,i,152071.40000009537,2056.0,1669843727922,2056,HRV,HRV_0308,2022-11-30 21:32:32
77,"[{'imgObject': {}, 'id': 'raspberries', 'src': '/static/foodstim60/raspberries.jpg', 'key': 'u', 'origWidth': 411, 'origHeight': 411, 'width': 411, 'height': 411, 'widthPercent': 0.45, 'rescaleHeight': False, 'trialN': 77, 'loaded': True, 'loadedTime': 2983.9000000953674, 'positionName': 'LEFT', 'positionCoords': [817.8, 514.5], 'bid': 1.7}, {'imgObject': {}, 'id': 'cherries', 'src': '/static/foodstim60/cherries.jpg', 'key': 'i', 'origWidth': 410, 'origHeight': 411, 'width': 410, 'height': 411, 'widthPercent': 0.45, 'rescaleHeight': False, 'trialN': 77, 'loaded': True, 'loadedTime': 2249.5, 'positionName': 'RIGHT', 'positionCoords': [1331.2, 514.5], 'bid': 2.51}]",152071.5,1669843727922,raspberries,cherries,1.7,2.51,0.8099999999999998,cherries,1419.3000001907349,1420,1419.5,True,i,153999.5,1928.0,1669843729850,1928,HRV,HRV_0308,2022-11-30 21:32:32
78,"[{'imgObject': {}, 'id': 'Tribe humus pita', 'src': '/static/foodstim60/Tribe humus pita.jpg', 'key': 'u', 'origWidth': 411, 'origHeight': 411, 'width': 411, 'height': 411, 'widthPercent': 0.45, 'rescaleHeight': False, 'trialN': 78, 'loaded': True, 'loadedTime': 2779.0999999046326, 'positionName': 'LEFT', 'positionCoords': [817.8, 514.5], 'bid': 2.29}, {'imgObject': {}, 'id': 'raisin bran w milk', 'src': '/static/foodstim60/raisin bran w milk.jpg', 'key': 'i', 'origWidth': 411, 'origHeight': 411, 'width': 411, 'height': 411, 'widthPercent': 0.45, 'rescaleHeight': False, 'trialN': 78, 'loaded': True, 'loadedTime': 2868.800000190735, 'positionName': 'RIGHT', 'positionCoords': [1331.2, 514.5], 'bid': 1.39}]",153999.5,1669843729850,Tribe humus pita,raisin bran w milk,2.29,1.39,-0.9000000000000001,Tribe humus pita,1196.1999998092651,1197,1196.4000000953674,True,u,155703.5,1704.0,1669843731554,1704,HRV,HRV_0308,2022-11-30 21:32:32
79,"[{'imgObject': {}, 'id': 'cherry tomato', 'src': '/static/foodstim60/cherry tomato.jpg', 'key': 'u', 'origWidth': 410, 'origHeight': 410, 'width': 410, 'height': 410, 'widthPercent': 0.45, 'rescaleHeight': False, 'trialN': 79, 'loaded': True, 'loadedTime': 2891.5, 'positionName': 'LEFT', 'positionCoords': [818.8, 515], 'bid': 0.42}, {'imgObject': {}, 'id': 'bagel plain', 'src': '/static/foodstim60/bagel plain.jpg', 'key': 'i', 'origWidth': 410, 'origHeight': 410, 'width': 410, 'height': 410, 'widthPercent': 0.45, 'rescaleHeight': False, 'trialN': 79, 'loaded': True, 'loadedTime': 2245.800000190735, 'positionName': 'RIGHT', 'positionCoords': [1331.2, 515], 'bid': 3.86}]",155703.59999990463,1669843731555,cherry tomato,bagel plain,0.42,3.86,3.44,bagel plain,1659.0999999046326,1659,1659.2000002861023,True,i,157871.5,2167.9000000953674,1669843733722,2167,HRV,HRV_0308,2022-11-30 21:32:32
80,"[{'imgObject': {}, 'id': 'lox', 'src': '/static/foodstim60/lox.jpg', 'key': 'u', 'origWidth': 410, 'origHeight': 411, 'width': 410, 'height': 411, 'widthPercent': 0.45, 'rescaleHeight': False, 'trialN': 80, 'loaded': True, 'loadedTime': 2724.9000000953674, 'positionName': 'LEFT', 'positionCoords': [818.8, 514.5], 'bid': 0.11}, {'imgObject': {}, 'id': 'luckycharms', 'src': '/static/foodstim60/luckycharms.jpg', 'key': 'i', 'origWidth': 410, 'origHeight': 409, 'width': 410, 'height': 409, 'widthPercent': 0.45, 'rescaleHeight': False, 'trialN': 80, 'loaded': True, 'loadedTime': 2988.0999999046326, 'positionName': 'RIGHT', 'positionCoords': [1331.2, 515.5], 'bid': 1}]",157871.69999980927,1669843733723,lox,luckycharms,0.11,1.0,0.89,luckycharms,1029.8000001907349,1030,1030.1000003814697,True,i,159406.69999980927,1535.0,1669843735258,1535,HRV,HRV_0308,2022-11-30 21:32:32
81,"[{'imgObject': {}, 'id': 'veggieswithdip', 'src': '/static/foodstim60/veggieswithdip.jpg', 'key': 'u', 'origWidth': 409, 'origHeight': 409, 'width': 409, 'height': 409, 'widthPercent': 0.45, 'rescaleHeight': False, 'trialN': 81, 'loaded': True, 'loadedTime': 2298.300000190735, 'positionName': 'LEFT', 'positionCoords': [819.8, 515.5], 'bid': 0.19}, {'imgObject': {}, 'id': 'lox', 'src': '/static/foodstim60/lox.jpg', 'key': 'i', 'origWidth': 410, 'origHeight': 411, 'width': 410, 'height': 411, 'widthPercent': 0.45, 'rescaleHeight': False, 'trialN': 81, 'loaded': True, 'loadedTime': 2744.199999809265, 'positionName': 'RIGHT', 'positionCoords': [1331.2, 514.5], 'bid': 0.11}]",159406.80000019073,1669843735258,veggieswithdip,lox,0.19,0.11,-0.08,veggieswithdip,1507.7999997138977,1508,1508.0,True,u,161422.69999980927,2015.8999996185303,1669843737274,2016,HRV,HRV_0308,2022-11-30 21:32:32
82,"[{'imgObject': {}, 'id': 'orange slices', 'src': '/static/foodstim60/orange slices.jpg', 'key': 'u', 'origWidth': 409, 'origHeight': 410, 'width': 409, 'height': 410, 'widthPercent': 0.45, 'rescaleHeight': False, 'trialN': 82, 'loaded': True, 'loadedTime': 2983.4000000953674, 'positionName': 'LEFT', 'positionCoords': [819.8, 515], 'bid': 2.01}, {'imgObject': {}, 'id': 'salmon', 'src': '/static/foodstim60/salmon.jpg', 'key': 'i', 'origWidth': 410, 'origHeight': 409, 'width': 410, 'height': 409, 'widthPercent': 0.45, 'rescaleHeight': False, 'trialN': 82, 'loaded': True, 'loadedTime': 2929, 'positionName': 'RIGHT', 'positionCoords': [1331.2, 515.5], 'bid': 2.03}]",161422.90000009537,1669843737274,orange slices,salmon,2.01,2.03,0.020000000000000018,salmon,1221.9000000953674,1222,1222.2999997138977,True,i,163150.80000019073,1727.9000000953674,1669843739002,1728,HRV,HRV_0308,2022-11-30 21:32:32
83,"[{'imgObject': {}, 'id': 'hashbrowns', 'src': '/static/foodstim60/hashbrowns.jpg', 'key': 'u', 'origWidth': 411, 'origHeight': 410, 'width': 411, 'height': 410, 'widthPercent': 0.45, 'rescaleHeight': False, 'trialN': 83, 'loaded': True, 'loadedTime': 2374.199999809265, 'positionName': 'LEFT', 'positionCoords': [817.8, 515], 'bid': 2}, {'imgObject': {}, 'id': 'baked potato', 'src': '/static/foodstim60/baked potato.jpg', 'key': 'i', 'origWidth': 409, 'origHeight': 410, 'width': 409, 'height': 410, 'widthPercent': 0.45, 'rescaleHeight': False, 'trialN': 83, 'loaded': True, 'loadedTime': 2988.4000000953674, 'positionName': 'RIGHT', 'positionCoords': [1331.2, 515], 'bid': 2.3000000000000003}]",163151.0,1669843739002,hashbrowns,baked potato,2.0,2.3000000000000003,0.30000000000000027,hashbrowns,1500.4000000953674,1501,1500.6999998092651,True,u,165158.90000009537,2007.9000000953674,1669843741010,2008,HRV,HRV_0308,2022-11-30 21:32:32
84,"[{'imgObject': {}, 'id': 'avocado', 'src': '/static/foodstim60/avocado.jpg', 'key': 'u', 'origWidth': 409, 'origHeight': 409, 'width': 409, 'height': 409, 'widthPercent': 0.45, 'rescaleHeight': False, 'trialN': 84, 'loaded': True, 'loadedTime': 2959.800000190735, 'positionName': 'LEFT', 'positionCoords': [819.8, 515.5], 'bid': 0.07}, {'imgObject': {}, 'id': 'edamame', 'src': '/static/foodstim60/edamame.jpg', 'key': 'i', 'origWidth': 409, 'origHeight': 410, 'width': 409, 'height': 410, 'widthPercent': 0.45, 'rescaleHeight': False, 'trialN': 84, 'loaded': True, 'loadedTime': 2383.9000000953674, 'positionName': 'RIGHT', 'positionCoords': [1331.2, 515], 'bid': 0.08}]",165159.0,1669843741010,avocado,edamame,0.07,0.08,0.009999999999999995,avocado,1969.4000000953674,1970,1969.5999999046326,True,u,167631.0,2472.0,1669843743482,2472,HRV,HRV_0308,2022-11-30 21:32:32
85,"[{'imgObject': {}, 'id': 'Grapes', 'src': '/static/foodstim60/Grapes.jpg', 'key': 'u', 'origWidth': 411, 'origHeight': 411, 'width': 411, 'height': 411, 'widthPercent': 0.45, 'rescaleHeight': False, 'trialN': 85, 'loaded': True, 'loadedTime': 3022.9000000953674, 'positionName': 'LEFT', 'positionCoords': [817.8, 514.5], 'bid': 2.25}, {'imgObject': {}, 'id': 'baked potato', 'src': '/static/foodstim60/baked potato.jpg', 'key': 'i', 'origWidth': 409, 'origHeight': 410, 'width': 409, 'height': 410, 'widthPercent': 0.45, 'rescaleHeight': False, 'trialN': 85, 'loaded': True, 'loadedTime': 2989.699999809265, 'positionName': 'RIGHT', 'positionCoords': [1331.2, 515], 'bid': 2.3000000000000003}]",167631.09999990463,1669843743482,Grapes,baked potato,2.25,2.3000000000000003,0.050000000000000266,Grapes,2160.4000000953674,2161,2160.5,True,u,170295.09999990463,2664.0,1669843746146,2664,HRV,HRV_0308,2022-11-30 21:32:32
86,"[{'imgObject': {}, 'id': 'salad w chicken', 'src': '/static/foodstim60/salad w chicken.jpg', 'key': 'u', 'origWidth': 411, 'origHeight': 411, 'width': 411, 'height': 411, 'widthPercent': 0.45, 'rescaleHeight': False, 'trialN': 86, 'loaded': True, 'loadedTime': 2788, 'positionName': 'LEFT', 'positionCoords': [817.8, 514.5], 'bid': 5.99}, {'imgObject': {}, 'id': 'chickenfingers', 'src': '/static/foodstim60/chickenfingers.jpg', 'key': 'i', 'origWidth': 410, 'origHeight': 410, 'width': 410, 'height': 410, 'widthPercent': 0.45, 'rescaleHeight': False, 'trialN': 86, 'loaded': True, 'loadedTime': 2529.0999999046326, 'positionName': 'RIGHT', 'positionCoords': [1331.2, 515], 'bid': 9.33}]",170295.19999980927,1669843746146,salad w chicken,chickenfingers,5.99,9.33,3.34,chickenfingers,992.0,992,992.3000001907349,True,i,171791.09999990463,1495.9000000953674,1669843747642,1496,HRV,HRV_0308,2022-11-30 21:32:32
87,"[{'imgObject': {}, 'id': 'froot loops w milk', 'src': '/static/foodstim60/froot loops w milk.jpg', 'key': 'u', 'origWidth': 410, 'origHeight': 410, 'width': 410, 'height': 410, 'widthPercent': 0.45, 'rescaleHeight': False, 'trialN': 87, 'loaded': True, 'loadedTime': 2948, 'positionName': 'LEFT', 'positionCoords': [818.8, 515], 'bid': 0.68}, {'imgObject': {}, 'id': 'granola w milk', 'src': '/static/foodstim60/granola w milk.jpg', 'key': 'i', 'origWidth': 410, 'origHeight': 410, 'width': 410, 'height': 410, 'widthPercent': 0.45, 'rescaleHeight': False, 'trialN': 87, 'loaded': True, 'loadedTime': 2748.0999999046326, 'positionName': 'RIGHT', 'positionCoords': [1331.2, 515], 'bid': 0.86}]",171791.19999980927,1669843747642,froot loops w milk,granola w milk,0.68,0.86,0.17999999999999994,froot loops w milk,1097.3000001907349,1098,1097.5,True,u,173391.19999980927,1600.0,1669843749242,1600,HRV,HRV_0308,2022-11-30 21:32:32
88,"[{'imgObject': {}, 'id': 'pear', 'src': '/static/foodstim60/pear.jpg', 'key': 'u', 'origWidth': 411, 'origHeight': 410, 'width': 411, 'height': 410, 'widthPercent': 0.45, 'rescaleHeight': False, 'trialN': 88, 'loaded': True, 'loadedTime': 2912.300000190735, 'positionName': 'LEFT', 'positionCoords': [817.8, 515], 'bid': 1.35}, {'imgObject': {}, 'id': 'strawberries', 'src': '/static/foodstim60/strawberries.jpg', 'key': 'i', 'origWidth': 410, 'origHeight': 410, 'width': 410, 'height': 410, 'widthPercent': 0.45, 'rescaleHeight': False, 'trialN': 88, 'loaded': True, 'loadedTime': 2928.5, 'positionName': 'RIGHT', 'positionCoords': [1331.2, 515], 'bid': 1.21}]",173391.30000019073,1669843749242,pear,strawberries,1.35,1.21,-0.14000000000000012,pear,1455.8999996185303,1456,1456.1999998092651,True,u,175351.19999980927,1959.8999996185303,1669843751202,1960,HRV,HRV_0308,2022-11-30 21:32:32
89,"[{'imgObject': {}, 'id': 'apple slices', 'src': '/static/foodstim60/apple slices.jpg', 'key': 'u', 'origWidth': 409, 'origHeight': 410, 'width': 409, 'height': 410, 'widthPercent': 0.45, 'rescaleHeight': False, 'trialN': 89, 'loaded': True, 'loadedTime': 2746.5, 'positionName': 'LEFT', 'positionCoords': [819.8, 515], 'bid': 1.07}, {'imgObject': {}, 'id': 'tacos', 'src': '/static/foodstim60/tacos.jpg', 'key': 'i', 'origWidth': 411, 'origHeight': 411, 'width': 411, 'height': 411, 'widthPercent': 0.45, 'rescaleHeight': False, 'trialN': 89, 'loaded': True, 'loadedTime': 2588.300000190735, 'positionName': 'RIGHT', 'positionCoords': [1331.2, 514.5], 'bid': 1.07}]",175351.40000009537,1669843751202,apple slices,tacos,1.07,1.07,0.0,apple slices,1229.6999998092651,1230,1230.0,True,u,177087.30000019073,1735.9000000953674,1669843752938,1736,HRV,HRV_0308,2022-11-30 21:32:32
90,"[{'imgObject': {}, 'id': 'olives', 'src': '/static/foodstim60/olives.jpg', 'key': 'u', 'origWidth': 410, 'origHeight': 410, 'width': 410, 'height': 410, 'widthPercent': 0.45, 'rescaleHeight': False, 'trialN': 90, 'loaded': True, 'loadedTime': 2836.800000190735, 'positionName': 'LEFT', 'positionCoords': [818.8, 515], 'bid': 0.07}, {'imgObject': {}, 'id': 'edamame', 'src': '/static/foodstim60/edamame.jpg', 'key': 'i', 'origWidth': 409, 'origHeight': 410, 'width': 409, 'height': 410, 'widthPercent': 0.45, 'rescaleHeight': False, 'trialN': 90, 'loaded': True, 'loadedTime': 2401.4000000953674, 'positionName': 'RIGHT', 'positionCoords': [1331.2, 515], 'bid': 0.08}]",191631.0,1669843767482,olives,edamame,0.07,0.08,0.009999999999999995,olives,1994.6999998092651,1995,1994.9000000953674,True,u,194126.90000009537,2495.9000000953674,1669843769978,2496,HRV,HRV_0308,2022-11-30 21:32:32
91,"[{'imgObject': {}, 'id': 'fruitsalad', 'src': '/static/foodstim60/fruitsalad.jpg', 'key': 'u', 'origWidth': 410, 'origHeight': 410, 'width': 410, 'height': 410, 'widthPercent': 0.45, 'rescaleHeight': False, 'trialN': 91, 'loaded': True, 'loadedTime': 2648.5, 'positionName': 'LEFT', 'positionCoords': [818.8, 515], 'bid': 0.42}, {'imgObject': {}, 'id': 'shreddedwheatwithmilk', 'src': '/static/foodstim60/shreddedwheatwithmilk.jpg', 'key': 'i', 'origWidth': 410, 'origHeight': 410, 'width': 410, 'height': 410, 'widthPercent': 0.45, 'rescaleHeight': False, 'trialN': 91, 'loaded': True, 'loadedTime': 2958.300000190735, 'positionName': 'RIGHT', 'positionCoords': [1331.2, 515], 'bid': 1.53}]",194127.09999990463,1669843769978,fruitsalad,shreddedwheatwithmilk,0.42,1.53,1.11,shreddedwheatwithmilk,1239.5999999046326,1240,1239.8000001907349,True,i,195871.0,1743.9000000953674,1669843771722,1744,HRV,HRV_0308,2022-11-30 21:32:32
92,"[{'imgObject': {}, 'id': 'veggieswithdip', 'src': '/static/foodstim60/veggieswithdip.jpg', 'key': 'u', 'origWidth': 409, 'origHeight': 409, 'width': 409, 'height': 409, 'widthPercent': 0.45, 'rescaleHeight': False, 'trialN': 92, 'loaded': True, 'loadedTime': 2297, 'positionName': 'LEFT', 'positionCoords': [819.8, 515.5], 'bid': 0.19}, {'imgObject': {}, 'id': 'sweetpotato', 'src': '/static/foodstim60/sweetpotato.jpg', 'key': 'i', 'origWidth': 410, 'origHeight': 410, 'width': 410, 'height': 410, 'widthPercent': 0.45, 'rescaleHeight': False, 'trialN': 92, 'loaded': True, 'loadedTime': 2579.4000000953674, 'positionName': 'RIGHT', 'positionCoords': [1331.2, 515], 'bid': 0.1}]",195871.19999980927,1669843771722,veggieswithdip,sweetpotato,0.19,0.1,-0.09,sweetpotato,2755.4000000953674,2756,2755.7000002861023,True,i,199135.19999980927,3264.0,1669843774986,3264,HRV,HRV_0308,2022-11-30 21:32:32
93,"[{'imgObject': {}, 'id': 'froot loops w milk', 'src': '/static/foodstim60/froot loops w milk.jpg', 'key': 'u', 'origWidth': 410, 'origHeight': 410, 'width': 410, 'height': 410, 'widthPercent': 0.45, 'rescaleHeight': False, 'trialN': 93, 'loaded': True, 'loadedTime': 2938.9000000953674, 'positionName': 'LEFT', 'positionCoords': [818.8, 515], 'bid': 0.68}, {'imgObject': {}, 'id': 'raspberries', 'src': '/static/foodstim60/raspberries.jpg', 'key': 'i', 'origWidth': 411, 'origHeight': 411, 'width': 411, 'height': 411, 'widthPercent': 0.45, 'rescaleHeight': False, 'trialN': 93, 'loaded': True, 'loadedTime': 2985.800000190735, 'positionName': 'RIGHT', 'positionCoords': [1331.2, 514.5], 'bid': 1.7}]",199135.19999980927,1669843774986,froot loops w milk,raspberries,0.68,1.7,1.02,froot loops w milk,2231.5,2232,2231.800000190735,True,u,201871.30000019073,2736.1000003814697,1669843777722,2736,HRV,HRV_0308,2022-11-30 21:32:32
94,"[{'imgObject': {}, 'id': 'raspberries', 'src': '/static/foodstim60/raspberries.jpg', 'key': 'u', 'origWidth': 411, 'origHeight': 411, 'width': 411, 'height': 411, 'widthPercent': 0.45, 'rescaleHeight': False, 'trialN': 94, 'loaded': True, 'loadedTime': 2985.699999809265, 'positionName': 'LEFT', 'positionCoords': [817.8, 514.5], 'bid': 1.7}, {'imgObject': {}, 'id': 'burrito', 'src': '/static/foodstim60/burrito.jpg', 'key': 'i', 'origWidth': 410, 'origHeight': 410, 'width': 410, 'height': 410, 'widthPercent': 0.45, 'rescaleHeight': False, 'trialN': 94, 'loaded': True, 'loadedTime': 2667, 'positionName': 'RIGHT', 'positionCoords': [1331.2, 515], 'bid': 1.68}]",201871.5,1669843777722,raspberries,burrito,1.7,1.68,-0.020000000000000018,burrito,1278.0,1279,1278.1999998092651,True,i,203655.40000009537,1783.9000000953674,1669843779506,1784,HRV,HRV_0308,2022-11-30 21:32:32
95,"[{'imgObject': {}, 'id': 'chickenfingers', 'src': '/static/foodstim60/chickenfingers.jpg', 'key': 'u', 'origWidth': 410, 'origHeight': 410, 'width': 410, 'height': 410, 'widthPercent': 0.45, 'rescaleHeight': False, 'trialN': 95, 'loaded': True, 'loadedTime': 2530.9000000953674, 'positionName': 'LEFT', 'positionCoords': [818.8, 515], 'bid': 9.33}, {'imgObject': {}, 'id': 'seaweed', 'src': '/static/foodstim60/seaweed.jpg', 'key': 'i', 'origWidth': 410, 'origHeight': 410, 'width': 410, 'height': 410, 'widthPercent': 0.45, 'rescaleHeight': False, 'trialN': 95, 'loaded': True, 'loadedTime': 2892.800000190735, 'positionName': 'RIGHT', 'positionCoords': [1331.2, 515], 'bid': 4.75}]",203655.5,1669843779506,chickenfingers,seaweed,9.33,4.75,-4.58,chickenfingers,784.0,785,784.1999998092651,True,u,204943.40000009537,1287.9000000953674,1669843780794,1288,HRV,HRV_0308,2022-11-30 21:32:32
96,"[{'imgObject': {}, 'id': 'chicken nuggets2', 'src': '/static/foodstim60/chicken nuggets2.jpg', 'key': 'u', 'origWidth': 410, 'origHeight': 409, 'width': 410, 'height': 409, 'widthPercent': 0.45, 'rescaleHeight': False, 'trialN': 96, 'loaded': True, 'loadedTime': 2705.199999809265, 'positionName': 'LEFT', 'positionCoords': [818.8, 515.5], 'bid': 7.91}, {'imgObject': {}, 'id': 'mashed potato', 'src': '/static/foodstim60/mashed potato.jpg', 'key': 'i', 'origWidth': 409, 'origHeight': 409, 'width': 409, 'height': 409, 'widthPercent': 0.45, 'rescaleHeight': False, 'trialN': 96, 'loaded': True, 'loadedTime': 2903.5, 'positionName': 'RIGHT', 'positionCoords': [1331.2, 515.5], 'bid': 4.5}]",204943.59999990463,1669843780794,chicken nuggets2,mashed potato,7.91,4.5,-3.41,chicken nuggets2,641.8000001907349,643,642.0,True,u,206087.5,1143.9000000953674,1669843781940,1146,HRV,HRV_0308,2022-11-30 21:32:32
97,"[{'imgObject': {}, 'id': 'Tribe humus pita', 'src': '/static/foodstim60/Tribe humus pita.jpg', 'key': 'u', 'origWidth': 411, 'origHeight': 411, 'width': 411, 'height': 411, 'widthPercent': 0.45, 'rescaleHeight': False, 'trialN': 97, 'loaded': True, 'loadedTime': 2770.4000000953674, 'positionName': 'LEFT', 'positionCoords': [817.8, 514.5], 'bid': 2.29}, {'imgObject': {}, 'id': 'corn cob', 'src': '/static/foodstim60/corn cob.jpg', 'key': 'i', 'origWidth': 411, 'origHeight': 411, 'width': 411, 'height': 411, 'widthPercent': 0.45, 'rescaleHeight': False, 'trialN': 97, 'loaded': True, 'loadedTime': 2355.199999809265, 'positionName': 'RIGHT', 'positionCoords': [1331.2, 514.5], 'bid': 1.76}]",206087.69999980927,1669843781940,Tribe humus pita,corn cob,2.29,1.76,-0.53,Tribe humus pita,1873.7000002861023,1874,1873.9000000953674,True,u,208463.59999990463,2375.9000000953674,1669843784316,2376,HRV,HRV_0308,2022-11-30 21:32:32
98,"[{'imgObject': {}, 'id': 'veggieswithdip', 'src': '/static/foodstim60/veggieswithdip.jpg', 'key': 'u', 'origWidth': 409, 'origHeight': 409, 'width': 409, 'height': 409, 'widthPercent': 0.45, 'rescaleHeight': False, 'trialN': 98, 'loaded': True, 'loadedTime': 2316, 'positionName': 'LEFT', 'positionCoords': [819.8, 515.5], 'bid': 0.19}, {'imgObject': {}, 'id': 'avocado', 'src': '/static/foodstim60/avocado.jpg', 'key': 'i', 'origWidth': 409, 'origHeight': 409, 'width': 409, 'height': 409, 'widthPercent': 0.45, 'rescaleHeight': False, 'trialN': 98, 'loaded': True, 'loadedTime': 2959.5999999046326, 'positionName': 'RIGHT', 'positionCoords': [1331.2, 515.5], 'bid': 0.07}]",208463.69999980927,1669843784316,veggieswithdip,avocado,0.19,0.07,-0.12,veggieswithdip,2026.6000003814697,2027,2026.8000001907349,True,u,210990.69999980927,2527.0,1669843786843,2527,HRV,HRV_0308,2022-11-30 21:32:32
99,"[{'imgObject': {}, 'id': 'sweetpotato', 'src': '/static/foodstim60/sweetpotato.jpg', 'key': 'u', 'origWidth': 410, 'origHeight': 410, 'width': 410, 'height': 410, 'widthPercent': 0.45, 'rescaleHeight': False, 'trialN': 99, 'loaded': True, 'loadedTime': 2564.5999999046326, 'positionName': 'LEFT', 'positionCoords': [818.8, 515], 'bid': 0.1}, {'imgObject': {}, 'id': 'baked potato', 'src': '/static/foodstim60/baked potato.jpg', 'key': 'i', 'origWidth': 409, 'origHeight': 410, 'width': 409, 'height': 410, 'widthPercent': 0.45, 'rescaleHeight': False, 'trialN': 99, 'loaded': True, 'loadedTime': 3021.5, 'positionName': 'RIGHT', 'positionCoords': [1331.2, 515], 'bid': 2.3000000000000003}]",210990.80000019073,1669843786843,sweetpotato,baked potato,0.1,2.3000000000000003,2.2,baked potato,1768.8999996185303,1769,1769.1999998092651,True,i,213262.69999980927,2271.8999996185303,1669843789115,2272,HRV,HRV_0308,2022-11-30 21:32:32
100,"[{'imgObject': {}, 'id': 'baked potato', 'src': '/static/foodstim60/baked potato.jpg', 'key': 'u', 'origWidth': 409, 'origHeight': 410, 'width': 409, 'height': 410, 'widthPercent': 0.45, 'rescaleHeight': False, 'trialN': 100, 'loaded': True, 'loadedTime': 3021.199999809265, 'positionName': 'LEFT', 'positionCoords': [819.8, 515], 'bid': 2.3000000000000003}, {'imgObject': {}, 'id': 'hotdog w must', 'src': '/static/foodstim60/hotdog w must.jpg', 'key': 'i', 'origWidth': 409, 'origHeight': 409, 'width': 409, 'height': 409, 'widthPercent': 0.45, 'rescaleHeight': False, 'trialN': 100, 'loaded': True, 'loadedTime': 2753.199999809265, 'positionName': 'RIGHT', 'positionCoords': [1331.2, 515.5], 'bid': 5.69}]",213262.80000019073,1669843789115,baked potato,hotdog w must,2.3000000000000003,5.69,3.39,hotdog w must,1161.5,1162,1161.6999998092651,True,i,214926.80000019073,1664.0,1669843790779,1664,HRV,HRV_0308,2022-11-30 21:32:32
101,"[{'imgObject': {}, 'id': 'blueberries', 'src': '/static/foodstim60/blueberries.jpg', 'key': 'u', 'origWidth': 411, 'origHeight': 411, 'width': 411, 'height': 411, 'widthPercent': 0.45, 'rescaleHeight': False, 'trialN': 101, 'loaded': True, 'loadedTime': 2684.5, 'positionName': 'LEFT', 'positionCoords': [817.8, 514.5], 'bid': 2.06}, {'imgObject': {}, 'id': 'Grapes', 'src': '/static/foodstim60/Grapes.jpg', 'key': 'i', 'origWidth': 411, 'origHeight': 411, 'width': 411, 'height': 411, 'widthPercent': 0.45, 'rescaleHeight': False, 'trialN': 101, 'loaded': True, 'loadedTime': 3021.699999809265, 'positionName': 'RIGHT', 'positionCoords': [1331.2, 514.5], 'bid': 2.25}]",214927.0,1669843790779,blueberries,Grapes,2.06,2.25,0.18999999999999995,Grapes,1900.3000001907349,1901,1900.5999999046326,True,i,217334.80000019073,2407.800000190735,1669843793187,2408,HRV,HRV_0308,2022-11-30 21:32:32
102,"[{'imgObject': {}, 'id': 'fried eggs', 'src': '/static/foodstim60/fried eggs.jpg', 'key': 'u', 'origWidth': 410, 'origHeight': 410, 'width': 410, 'height': 410, 'widthPercent': 0.45, 'rescaleHeight': False, 'trialN': 102, 'loaded': True, 'loadedTime': 2484.5999999046326, 'positionName': 'LEFT', 'positionCoords': [818.8, 515], 'bid': 5}, {'imgObject': {}, 'id': 'blueberries', 'src': '/static/foodstim60/blueberries.jpg', 'key': 'i', 'origWidth': 411, 'origHeight': 411, 'width': 411, 'height': 411, 'widthPercent': 0.45, 'rescaleHeight': False, 'trialN': 102, 'loaded': True, 'loadedTime': 2693.5999999046326, 'positionName': 'RIGHT', 'positionCoords': [1331.2, 514.5], 'bid': 2.06}]",217335.0,1669843793187,fried eggs,blueberries,5.0,2.06,-2.94,fried eggs,1351.0999999046326,1351,1351.3000001907349,True,u,219190.90000009537,1855.9000000953674,1669843795043,1856,HRV,HRV_0308,2022-11-30 21:32:32
103,"[{'imgObject': {}, 'id': 'Grapes', 'src': '/static/foodstim60/Grapes.jpg', 'key': 'u', 'origWidth': 411, 'origHeight': 411, 'width': 411, 'height': 411, 'widthPercent': 0.45, 'rescaleHeight': False, 'trialN': 103, 'loaded': True, 'loadedTime': 3023.4000000953674, 'positionName': 'LEFT', 'positionCoords': [817.8, 514.5], 'bid': 2.25}, {'imgObject': {}, 'id': 'eggsalad', 'src': '/static/foodstim60/eggsalad.jpg', 'key': 'i', 'origWidth': 410, 'origHeight': 409, 'width': 410, 'height': 409, 'widthPercent': 0.45, 'rescaleHeight': False, 'trialN': 103, 'loaded': True, 'loadedTime': 2444.300000190735, 'positionName': 'RIGHT', 'positionCoords': [1331.2, 515.5], 'bid': 5.18}]",219191.09999990463,1669843795043,Grapes,eggsalad,2.25,5.18,2.9299999999999997,eggsalad,928.0,928,928.2000002861023,True,i,220623.0,1431.9000000953674,1669843796475,1432,HRV,HRV_0308,2022-11-30 21:32:32
104,"[{'imgObject': {}, 'id': 'blueberries', 'src': '/static/foodstim60/blueberries.jpg', 'key': 'u', 'origWidth': 411, 'origHeight': 411, 'width': 411, 'height': 411, 'widthPercent': 0.45, 'rescaleHeight': False, 'trialN': 104, 'loaded': True, 'loadedTime': 2674.300000190735, 'positionName': 'LEFT', 'positionCoords': [817.8, 514.5], 'bid': 2.06}, {'imgObject': {}, 'id': 'Tribe humus pita', 'src': '/static/foodstim60/Tribe humus pita.jpg', 'key': 'i', 'origWidth': 411, 'origHeight': 411, 'width': 411, 'height': 411, 'widthPercent': 0.45, 'rescaleHeight': False, 'trialN': 104, 'loaded': True, 'loadedTime': 2779, 'positionName': 'RIGHT', 'positionCoords': [1331.2, 514.5], 'bid': 2.29}]",220623.19999980927,1669843796475,blueberries,Tribe humus pita,2.06,2.29,0.22999999999999998,Tribe humus pita,1613.8000001907349,1614,1614.0,True,i,222743.09999990463,2119.9000000953674,1669843798595,2120,HRV,HRV_0308,2022-11-30 21:32:32
105,"[{'imgObject': {}, 'id': 'turkey sandwich', 'src': '/static/foodstim60/turkey sandwich.jpg', 'key': 'u', 'origWidth': 409, 'origHeight': 409, 'width': 409, 'height': 409, 'widthPercent': 0.45, 'rescaleHeight': False, 'trialN': 105, 'loaded': True, 'loadedTime': 2806.9000000953674, 'positionName': 'LEFT', 'positionCoords': [819.8, 515.5], 'bid': 5.79}, {'imgObject': {}, 'id': 'turkeysandwich', 'src': '/static/foodstim60/turkeysandwich.jpg', 'key': 'i', 'origWidth': 409, 'origHeight': 409, 'width': 409, 'height': 409, 'widthPercent': 0.45, 'rescaleHeight': False, 'trialN': 105, 'loaded': True, 'loadedTime': 2511, 'positionName': 'RIGHT', 'positionCoords': [1331.2, 515.5], 'bid': 5.61}]",222743.19999980927,1669843798595,turkey sandwich,turkeysandwich,5.79,5.61,-0.17999999999999972,turkey sandwich,2315.0,2316,2315.300000190735,True,u,225559.19999980927,2816.0,1669843801411,2816,HRV,HRV_0308,2022-11-30 21:32:32
106,"[{'imgObject': {}, 'id': 'salad w chicken', 'src': '/static/foodstim60/salad w chicken.jpg', 'key': 'u', 'origWidth': 411, 'origHeight': 411, 'width': 411, 'height': 411, 'widthPercent': 0.45, 'rescaleHeight': False, 'trialN': 106, 'loaded': True, 'loadedTime': 2789.4000000953674, 'positionName': 'LEFT', 'positionCoords': [817.8, 514.5], 'bid': 5.99}, {'imgObject': {}, 'id': 'ice cream sundae 002', 'src': '/static/foodstim60/ice cream sundae 002.jpg', 'key': 'i', 'origWidth': 409, 'origHeight': 409, 'width': 409, 'height': 409, 'widthPercent': 0.45, 'rescaleHeight': False, 'trialN': 106, 'loaded': True, 'loadedTime': 2237.5999999046326, 'positionName': 'RIGHT', 'positionCoords': [1331.2, 515.5], 'bid': 6.43}]",225559.40000009537,1669843801412,salad w chicken,ice cream sundae 002,5.99,6.43,0.4399999999999995,salad w chicken,1783.5,1783,1783.5999999046326,True,u,227847.19999980927,2287.7999997138977,1669843803699,2287,HRV,HRV_0308,2022-11-30 21:32:32
107,"[{'imgObject': {}, 'id': 'olives', 'src': '/static/foodstim60/olives.jpg', 'key': 'u', 'origWidth': 410, 'origHeight': 410, 'width': 410, 'height': 410, 'widthPercent': 0.45, 'rescaleHeight': False, 'trialN': 107, 'loaded': True, 'loadedTime': 2836.9000000953674, 'positionName': 'LEFT', 'positionCoords': [818.8, 515], 'bid': 0.07}, {'imgObject': {}, 'id': 'froot loops w milk', 'src': '/static/foodstim60/froot loops w milk.jpg', 'key': 'i', 'origWidth': 410, 'origHeight': 410, 'width': 410, 'height': 410, 'widthPercent': 0.45, 'rescaleHeight': False, 'trialN': 107, 'loaded': True, 'loadedTime': 2948.199999809265, 'positionName': 'RIGHT', 'positionCoords': [1331.2, 515], 'bid': 0.68}]",227847.40000009537,1669843803700,olives,froot loops w milk,0.07,0.68,0.6100000000000001,froot loops w milk,2152.4000000953674,2152,2152.5999999046326,True,i,230503.40000009537,2656.0,1669843806356,2656,HRV,HRV_0308,2022-11-30 21:32:32
108,"[{'imgObject': {}, 'id': 'luckycharms', 'src': '/static/foodstim60/luckycharms.jpg', 'key': 'u', 'origWidth': 410, 'origHeight': 409, 'width': 410, 'height': 409, 'widthPercent': 0.45, 'rescaleHeight': False, 'trialN': 108, 'loaded': True, 'loadedTime': 2988.199999809265, 'positionName': 'LEFT', 'positionCoords': [818.8, 515.5], 'bid': 1}, {'imgObject': {}, 'id': 'eggs', 'src': '/static/foodstim60/eggs.jpg', 'key': 'i', 'origWidth': 409, 'origHeight': 409, 'width': 409, 'height': 409, 'widthPercent': 0.45, 'rescaleHeight': False, 'trialN': 108, 'loaded': True, 'loadedTime': 2715.4000000953674, 'positionName': 'RIGHT', 'positionCoords': [1331.2, 515.5], 'bid': 1.02}]",230503.5,1669843806356,luckycharms,eggs,1.0,1.02,0.020000000000000018,luckycharms,2555.199999809265,2555,2555.5,True,u,233567.59999990463,3064.0999999046326,1669843809420,3064,HRV,HRV_0308,2022-11-30 21:32:32
109,"[{'imgObject': {}, 'id': 'hashbrowns', 'src': '/static/foodstim60/hashbrowns.jpg', 'key': 'u', 'origWidth': 411, 'origHeight': 410, 'width': 411, 'height': 410, 'widthPercent': 0.45, 'rescaleHeight': False, 'trialN': 109, 'loaded': True, 'loadedTime': 2383, 'positionName': 'LEFT', 'positionCoords': [817.8, 515], 'bid': 2}, {'imgObject': {}, 'id': 'bagel plain', 'src': '/static/foodstim60/bagel plain.jpg', 'key': 'i', 'origWidth': 410, 'origHeight': 410, 'width': 410, 'height': 410, 'widthPercent': 0.45, 'rescaleHeight': False, 'trialN': 109, 'loaded': True, 'loadedTime': 2247.300000190735, 'positionName': 'RIGHT', 'positionCoords': [1331.2, 515], 'bid': 3.86}]",233567.69999980927,1669843809420,hashbrowns,bagel plain,2.0,3.86,1.8599999999999999,hashbrowns,2183.300000190735,2183,2183.5,True,u,236254.59999990463,2686.9000000953674,1669843812107,2687,HRV,HRV_0308,2022-11-30 21:32:32
