trialN,stimuli,question,trialStartTime,trialStartTime_UNIX,stimulus1,rt,receivedResponse,rating,trialEndTime,trialDuration,stimulus1Loaded,exp,subjectId,date
0,"[{'imgObject': {}, 'id': 'cherry tomato', 'src': '/static/foodstim60/cherry tomato.jpg', 'key': 'NaN', 'origWidth': 410, 'origHeight': 410, 'width': 410, 'height': 410, 'widthPercent': 0.8, 'rescaleHeight': True, 'trialN': 0, 'loaded': True, 'loadedTime': 2420.4000000953674, 'positionName': 'CENTER', 'positionCoords': [1075, 515]}]",Rate how much you want to eat this food from 0 (least) to 10 (most).,3291.4000000953674,1669843131706,cherry tomato,4836.5,True,0.05,8127.900000095367,4836.5,True,HRV,HRV_0308,2022-11-30 21:21:55
1,"[{'imgObject': {}, 'id': 'veggieswithdip', 'src': '/static/foodstim60/veggieswithdip.jpg', 'key': 'NaN', 'origWidth': 409, 'origHeight': 409, 'width': 409, 'height': 409, 'widthPercent': 0.8, 'rescaleHeight': True, 'trialN': 1, 'loaded': True, 'loadedTime': 2502.2000002861023, 'positionName': 'CENTER', 'positionCoords': [1075.5, 515.5]}]",Rate how much you want to eat this food from 0 (least) to 10 (most).,8130.10000038147,1669843136544,veggieswithdip,4382.699999809265,True,1.11,12512.800000190735,4382.699999809265,True,HRV,HRV_0308,2022-11-30 21:21:55
2,"[{'imgObject': {}, 'id': 'cherries', 'src': '/static/foodstim60/cherries.jpg', 'key': 'NaN', 'origWidth': 410, 'origHeight': 411, 'width': 410, 'height': 411, 'widthPercent': 0.8, 'rescaleHeight': True, 'trialN': 2, 'loaded': True, 'loadedTime': 2438.2000002861023, 'positionName': 'CENTER', 'positionCoords': [1075, 514.5]}]",Rate how much you want to eat this food from 0 (least) to 10 (most).,12513.60000038147,1669843140928,cherries,2227.0999999046326,True,2.12,14740.700000286102,2227.0999999046326,True,HRV,HRV_0308,2022-11-30 21:21:55
3,"[{'imgObject': {}, 'id': 'raisin bran w milk', 'src': '/static/foodstim60/raisin bran w milk.jpg', 'key': 'NaN', 'origWidth': 411, 'origHeight': 411, 'width': 411, 'height': 411, 'widthPercent': 0.8, 'rescaleHeight': True, 'trialN': 3, 'loaded': True, 'loadedTime': 2437, 'positionName': 'CENTER', 'positionCoords': [1074.5, 514.5]}]",Rate how much you want to eat this food from 0 (least) to 10 (most).,14741.700000286102,1669843143156,raisin bran w milk,2925.9000000953674,True,1.36,17667.60000038147,2925.9000000953674,True,HRV,HRV_0308,2022-11-30 21:21:55
4,"[{'imgObject': {}, 'id': 'chicken nuggets2', 'src': '/static/foodstim60/chicken nuggets2.jpg', 'key': 'NaN', 'origWidth': 410, 'origHeight': 409, 'width': 410, 'height': 409, 'widthPercent': 0.8, 'rescaleHeight': True, 'trialN': 4, 'loaded': True, 'loadedTime': 2439.300000190735, 'positionName': 'CENTER', 'positionCoords': [1075, 515.5]}]",Rate how much you want to eat this food from 0 (least) to 10 (most).,17668.5,1669843146083,chicken nuggets2,6028.0,True,8.94,23696.5,6028.0,True,HRV,HRV_0308,2022-11-30 21:21:55
5,"[{'imgObject': {}, 'id': 'granola w milk', 'src': '/static/foodstim60/granola w milk.jpg', 'key': 'NaN', 'origWidth': 410, 'origHeight': 410, 'width': 410, 'height': 410, 'widthPercent': 0.8, 'rescaleHeight': True, 'trialN': 5, 'loaded': True, 'loadedTime': 2435.9000000953674, 'positionName': 'CENTER', 'positionCoords': [1075, 515]}]",Rate how much you want to eat this food from 0 (least) to 10 (most).,23697.400000095367,1669843152112,granola w milk,4017.0,True,2.47,27714.400000095367,4017.0,True,HRV,HRV_0308,2022-11-30 21:21:55
6,"[{'imgObject': {}, 'id': 'eggs', 'src': '/static/foodstim60/eggs.jpg', 'key': 'NaN', 'origWidth': 409, 'origHeight': 409, 'width': 409, 'height': 409, 'widthPercent': 0.8, 'rescaleHeight': True, 'trialN': 6, 'loaded': True, 'loadedTime': 2505.1000003814697, 'positionName': 'CENTER', 'positionCoords': [1075.5, 515.5]}]",Rate how much you want to eat this food from 0 (least) to 10 (most).,27715.300000190735,1669843156130,eggs,2350.0,True,1.67,30065.300000190735,2350.0,True,HRV,HRV_0308,2022-11-30 21:21:55
7,"[{'imgObject': {}, 'id': 'kiwi', 'src': '/static/foodstim60/kiwi.jpg', 'key': 'NaN', 'origWidth': 410, 'origHeight': 410, 'width': 410, 'height': 410, 'widthPercent': 0.8, 'rescaleHeight': True, 'trialN': 7, 'loaded': True, 'loadedTime': 2528.300000190735, 'positionName': 'CENTER', 'positionCoords': [1075, 515]}]",Rate how much you want to eat this food from 0 (least) to 10 (most).,30066.200000286102,1669843158481,kiwi,2962.0999999046326,True,1.17,33028.300000190735,2962.0999999046326,True,HRV,HRV_0308,2022-11-30 21:21:55
8,"[{'imgObject': {}, 'id': 'fruitsalad', 'src': '/static/foodstim60/fruitsalad.jpg', 'key': 'NaN', 'origWidth': 410, 'origHeight': 410, 'width': 410, 'height': 410, 'widthPercent': 0.8, 'rescaleHeight': True, 'trialN': 8, 'loaded': True, 'loadedTime': 2546.2000002861023, 'positionName': 'CENTER', 'positionCoords': [1075, 515]}]",Rate how much you want to eat this food from 0 (least) to 10 (most).,33029.300000190735,1669843161444,fruitsalad,3500.9000000953674,True,0.77,36530.2000002861,3500.9000000953674,True,HRV,HRV_0308,2022-11-30 21:21:55
9,"[{'imgObject': {}, 'id': 'turkeysandwich', 'src': '/static/foodstim60/turkeysandwich.jpg', 'key': 'NaN', 'origWidth': 409, 'origHeight': 409, 'width': 409, 'height': 409, 'widthPercent': 0.8, 'rescaleHeight': True, 'trialN': 9, 'loaded': True, 'loadedTime': 2536.300000190735, 'positionName': 'CENTER', 'positionCoords': [1075.5, 515.5]}]",Rate how much you want to eat this food from 0 (least) to 10 (most).,36531.2000002861,1669843164945,turkeysandwich,3306.0,True,5.71,39837.2000002861,3306.0,True,HRV,HRV_0308,2022-11-30 21:21:55
10,"[{'imgObject': {}, 'id': 'omelette', 'src': '/static/foodstim60/omelette.jpg', 'key': 'NaN', 'origWidth': 410, 'origHeight': 409, 'width': 410, 'height': 409, 'widthPercent': 0.8, 'rescaleHeight': True, 'trialN': 10, 'loaded': True, 'loadedTime': 2547.2000002861023, 'positionName': 'CENTER', 'positionCoords': [1075, 515.5]}]",Rate how much you want to eat this food from 0 (least) to 10 (most).,39838.40000009537,1669843168253,omelette,2625.5999999046326,True,4.75,42464.0,2625.5999999046326,True,HRV,HRV_0308,2022-11-30 21:21:55
11,"[{'imgObject': {}, 'id': 'strawberries', 'src': '/static/foodstim60/strawberries.jpg', 'key': 'NaN', 'origWidth': 410, 'origHeight': 410, 'width': 410, 'height': 410, 'widthPercent': 0.8, 'rescaleHeight': True, 'trialN': 11, 'loaded': True, 'loadedTime': 2591.5, 'positionName': 'CENTER', 'positionCoords': [1075, 515]}]",Rate how much you want to eat this food from 0 (least) to 10 (most).,42464.90000009537,1669843170879,strawberries,1968.0,True,0.53,44432.90000009537,1968.0,True,HRV,HRV_0308,2022-11-30 21:21:55
12,"[{'imgObject': {}, 'id': 'steak', 'src': '/static/foodstim60/steak.jpg', 'key': 'NaN', 'origWidth': 410, 'origHeight': 410, 'width': 410, 'height': 410, 'widthPercent': 0.8, 'rescaleHeight': True, 'trialN': 12, 'loaded': True, 'loadedTime': 2596, 'positionName': 'CENTER', 'positionCoords': [1075, 515]}]",Rate how much you want to eat this food from 0 (least) to 10 (most).,44433.800000190735,1669843172848,steak,5547.0,True,9.5,49980.800000190735,5547.0,True,HRV,HRV_0308,2022-11-30 21:21:55
13,"[{'imgObject': {}, 'id': 'blackbeanswithrice', 'src': '/static/foodstim60/blackbeanswithrice.jpg', 'key': 'NaN', 'origWidth': 410, 'origHeight': 410, 'width': 410, 'height': 410, 'widthPercent': 0.8, 'rescaleHeight': True, 'trialN': 13, 'loaded': True, 'loadedTime': 2619.2000002861023, 'positionName': 'CENTER', 'positionCoords': [1075, 515]}]",Rate how much you want to eat this food from 0 (least) to 10 (most).,49981.800000190735,1669843178397,blackbeanswithrice,2978.0,True,0.66,52959.800000190735,2978.0,True,HRV,HRV_0308,2022-11-30 21:21:55
14,"[{'imgObject': {}, 'id': 'mango', 'src': '/static/foodstim60/mango.jpg', 'key': 'NaN', 'origWidth': 411, 'origHeight': 411, 'width': 411, 'height': 411, 'widthPercent': 0.8, 'rescaleHeight': True, 'trialN': 14, 'loaded': True, 'loadedTime': 2642, 'positionName': 'CENTER', 'positionCoords': [1074.5, 514.5]}]",Rate how much you want to eat this food from 0 (least) to 10 (most).,52960.800000190735,1669843181376,mango,3148.9000000953674,True,0.56,56109.7000002861,3148.9000000953674,True,HRV,HRV_0308,2022-11-30 21:21:55
15,"[{'imgObject': {}, 'id': 'Grapes', 'src': '/static/foodstim60/Grapes.jpg', 'key': 'NaN', 'origWidth': 411, 'origHeight': 411, 'width': 411, 'height': 411, 'widthPercent': 0.8, 'rescaleHeight': True, 'trialN': 15, 'loaded': True, 'loadedTime': 2632.6000003814697, 'positionName': 'CENTER', 'positionCoords': [1074.5, 514.5]}]",Rate how much you want to eat this food from 0 (least) to 10 (most).,56110.60000038147,1669843184526,Grapes,3409.8999996185303,True,3.39,59520.5,3409.8999996185303,True,HRV,HRV_0308,2022-11-30 21:21:55
16,"[{'imgObject': {}, 'id': 'salad w chicken', 'src': '/static/foodstim60/salad w chicken.jpg', 'key': 'NaN', 'origWidth': 411, 'origHeight': 411, 'width': 411, 'height': 411, 'widthPercent': 0.8, 'rescaleHeight': True, 'trialN': 16, 'loaded': True, 'loadedTime': 2642.9000000953674, 'positionName': 'CENTER', 'positionCoords': [1074.5, 514.5]}]",Rate how much you want to eat this food from 0 (least) to 10 (most).,59521.60000038147,1669843187937,salad w chicken,6730.799999713898,True,6.03,66252.40000009537,6730.799999713898,True,HRV,HRV_0308,2022-11-30 21:21:55
17,"[{'imgObject': {}, 'id': 'lox', 'src': '/static/foodstim60/lox.jpg', 'key': 'NaN', 'origWidth': 410, 'origHeight': 411, 'width': 410, 'height': 411, 'widthPercent': 0.8, 'rescaleHeight': True, 'trialN': 17, 'loaded': True, 'loadedTime': 2684.6000003814697, 'positionName': 'CENTER', 'positionCoords': [1075, 514.5]}]",Rate how much you want to eat this food from 0 (least) to 10 (most).,66253.30000019073,1669843194668,lox,3482.0999999046326,True,0.04,69735.40000009537,3482.0999999046326,True,HRV,HRV_0308,2022-11-30 21:21:55
18,"[{'imgObject': {}, 'id': 'raspberries', 'src': '/static/foodstim60/raspberries.jpg', 'key': 'NaN', 'origWidth': 411, 'origHeight': 411, 'width': 411, 'height': 411, 'widthPercent': 0.8, 'rescaleHeight': True, 'trialN': 18, 'loaded': True, 'loadedTime': 2681.800000190735, 'positionName': 'CENTER', 'positionCoords': [1074.5, 514.5]}]",Rate how much you want to eat this food from 0 (least) to 10 (most).,69736.10000038147,1669843198151,raspberries,2144.199999809265,True,1.03,71880.30000019073,2144.199999809265,True,HRV,HRV_0308,2022-11-30 21:21:55
19,"[{'imgObject': {}, 'id': 'rigatoni', 'src': '/static/foodstim60/rigatoni.jpg', 'key': 'NaN', 'origWidth': 411, 'origHeight': 411, 'width': 411, 'height': 411, 'widthPercent': 0.8, 'rescaleHeight': True, 'trialN': 19, 'loaded': True, 'loadedTime': 2705.7000002861023, 'positionName': 'CENTER', 'positionCoords': [1074.5, 514.5]}]",Rate how much you want to eat this food from 0 (least) to 10 (most).,71881.2000002861,1669843200296,rigatoni,2845.0,True,0.65,74726.2000002861,2845.0,True,HRV,HRV_0308,2022-11-30 21:21:55
20,"[{'imgObject': {}, 'id': 'ice cream sundae 002', 'src': '/static/foodstim60/ice cream sundae 002.jpg', 'key': 'NaN', 'origWidth': 409, 'origHeight': 409, 'width': 409, 'height': 409, 'widthPercent': 0.8, 'rescaleHeight': True, 'trialN': 20, 'loaded': True, 'loadedTime': 2716.6000003814697, 'positionName': 'CENTER', 'positionCoords': [1075.5, 515.5]}]",Rate how much you want to eat this food from 0 (least) to 10 (most).,74727.30000019073,1669843203142,ice cream sundae 002,2687.800000190735,True,6.18,77415.10000038147,2687.800000190735,True,HRV,HRV_0308,2022-11-30 21:21:55
21,"[{'imgObject': {}, 'id': 'edamame', 'src': '/static/foodstim60/edamame.jpg', 'key': 'NaN', 'origWidth': 409, 'origHeight': 410, 'width': 409, 'height': 410, 'widthPercent': 0.8, 'rescaleHeight': True, 'trialN': 21, 'loaded': True, 'loadedTime': 2730.6000003814697, 'positionName': 'CENTER', 'positionCoords': [1075.5, 515]}]",Rate how much you want to eat this food from 0 (least) to 10 (most).,77416.0,1669843205831,edamame,2717.1000003814697,True,0.13,80133.10000038147,2717.1000003814697,True,HRV,HRV_0308,2022-11-30 21:21:55
22,"[{'imgObject': {}, 'id': 'yogurt no spoon', 'src': '/static/foodstim60/yogurt no spoon.jpg', 'key': 'NaN', 'origWidth': 411, 'origHeight': 410, 'width': 411, 'height': 410, 'widthPercent': 0.8, 'rescaleHeight': True, 'trialN': 22, 'loaded': True, 'loadedTime': 2728.2000002861023, 'positionName': 'CENTER', 'positionCoords': [1074.5, 515]}]",Rate how much you want to eat this food from 0 (least) to 10 (most).,80134.10000038147,1669843208549,yogurt no spoon,3299.8999996185303,True,2.64,83434.0,3299.8999996185303,True,HRV,HRV_0308,2022-11-30 21:21:55
23,"[{'imgObject': {}, 'id': 'eggsalad', 'src': '/static/foodstim60/eggsalad.jpg', 'key': 'NaN', 'origWidth': 410, 'origHeight': 409, 'width': 410, 'height': 409, 'widthPercent': 0.8, 'rescaleHeight': True, 'trialN': 23, 'loaded': True, 'loadedTime': 2764.9000000953674, 'positionName': 'CENTER', 'positionCoords': [1075, 515.5]}]",Rate how much you want to eat this food from 0 (least) to 10 (most).,83435.2000002861,1669843211850,eggsalad,4168.699999809265,True,5.94,87603.90000009537,4168.699999809265,True,HRV,HRV_0308,2022-11-30 21:21:55
24,"[{'imgObject': {}, 'id': 'bagel and cc', 'src': '/static/foodstim60/bagel and cc.jpg', 'key': 'NaN', 'origWidth': 410, 'origHeight': 410, 'width': 410, 'height': 410, 'widthPercent': 0.8, 'rescaleHeight': True, 'trialN': 24, 'loaded': True, 'loadedTime': 2774, 'positionName': 'CENTER', 'positionCoords': [1075, 515]}]",Rate how much you want to eat this food from 0 (least) to 10 (most).,87604.80000019073,1669843216020,bagel and cc,3320.0,True,4.67,90924.80000019073,3320.0,True,HRV,HRV_0308,2022-11-30 21:21:55
25,"[{'imgObject': {}, 'id': 'luckycharms', 'src': '/static/foodstim60/luckycharms.jpg', 'key': 'NaN', 'origWidth': 410, 'origHeight': 409, 'width': 410, 'height': 409, 'widthPercent': 0.8, 'rescaleHeight': True, 'trialN': 25, 'loaded': True, 'loadedTime': 2788.7000002861023, 'positionName': 'CENTER', 'positionCoords': [1075, 515.5]}]",Rate how much you want to eat this food from 0 (least) to 10 (most).,90925.5,1669843219341,luckycharms,3245.300000190735,True,2.09,94170.80000019073,3245.300000190735,True,HRV,HRV_0308,2022-11-30 21:21:55
26,"[{'imgObject': {}, 'id': 'blueberries', 'src': '/static/foodstim60/blueberries.jpg', 'key': 'NaN', 'origWidth': 411, 'origHeight': 411, 'width': 411, 'height': 411, 'widthPercent': 0.8, 'rescaleHeight': True, 'trialN': 26, 'loaded': True, 'loadedTime': 2799.300000190735, 'positionName': 'CENTER', 'positionCoords': [1074.5, 514.5]}]",Rate how much you want to eat this food from 0 (least) to 10 (most).,94171.5,1669843222587,blueberries,2365.2000002861023,True,1.3900000000000001,96536.7000002861,2365.2000002861023,True,HRV,HRV_0308,2022-11-30 21:21:55
27,"[{'imgObject': {}, 'id': 'tacos', 'src': '/static/foodstim60/tacos.jpg', 'key': 'NaN', 'origWidth': 411, 'origHeight': 411, 'width': 411, 'height': 411, 'widthPercent': 0.8, 'rescaleHeight': True, 'trialN': 27, 'loaded': True, 'loadedTime': 2813.300000190735, 'positionName': 'CENTER', 'positionCoords': [1074.5, 514.5]}]",Rate how much you want to eat this food from 0 (least) to 10 (most).,96537.60000038147,1669843224953,tacos,4582.299999713898,True,0.1,101119.90000009537,4582.299999713898,True,HRV,HRV_0308,2022-11-30 21:21:55
28,"[{'imgObject': {}, 'id': 'salmon', 'src': '/static/foodstim60/salmon.jpg', 'key': 'NaN', 'origWidth': 410, 'origHeight': 409, 'width': 410, 'height': 409, 'widthPercent': 0.8, 'rescaleHeight': True, 'trialN': 28, 'loaded': True, 'loadedTime': 2817.6000003814697, 'positionName': 'CENTER', 'positionCoords': [1075, 515.5]}]",Rate how much you want to eat this food from 0 (least) to 10 (most).,101120.80000019073,1669843229536,salmon,2498.699999809265,True,1.71,103619.5,2498.699999809265,True,HRV,HRV_0308,2022-11-30 21:21:55
29,"[{'imgObject': {}, 'id': 'burrito', 'src': '/static/foodstim60/burrito.jpg', 'key': 'NaN', 'origWidth': 410, 'origHeight': 410, 'width': 410, 'height': 410, 'widthPercent': 0.8, 'rescaleHeight': True, 'trialN': 29, 'loaded': True, 'loadedTime': 2848, 'positionName': 'CENTER', 'positionCoords': [1075, 515]}]",Rate how much you want to eat this food from 0 (least) to 10 (most).,103620.30000019073,1669843232035,burrito,3408.0999999046326,True,1.31,107028.40000009537,3408.0999999046326,True,HRV,HRV_0308,2022-11-30 21:21:55
30,"[{'imgObject': {}, 'id': 'sweetpotato', 'src': '/static/foodstim60/sweetpotato.jpg', 'key': 'NaN', 'origWidth': 410, 'origHeight': 410, 'width': 410, 'height': 410, 'widthPercent': 0.8, 'rescaleHeight': True, 'trialN': 30, 'loaded': True, 'loadedTime': 2858, 'positionName': 'CENTER', 'positionCoords': [1075, 515]}]",Rate how much you want to eat this food from 0 (least) to 10 (most).,107029.40000009537,1669843235445,sweetpotato,1983.0,True,0.09,109012.40000009537,1983.0,True,HRV,HRV_0308,2022-11-30 21:21:55
31,"[{'imgObject': {}, 'id': 'bagel plain', 'src': '/static/foodstim60/bagel plain.jpg', 'key': 'NaN', 'origWidth': 410, 'origHeight': 410, 'width': 410, 'height': 410, 'widthPercent': 0.8, 'rescaleHeight': True, 'trialN': 31, 'loaded': True, 'loadedTime': 2873.4000000953674, 'positionName': 'CENTER', 'positionCoords': [1075, 515]}]",Rate how much you want to eat this food from 0 (least) to 10 (most).,109013.40000009537,1669843237429,bagel plain,3185.800000190735,True,2.7,112199.2000002861,3185.800000190735,True,HRV,HRV_0308,2022-11-30 21:21:55
32,"[{'imgObject': {}, 'id': 'pear', 'src': '/static/foodstim60/pear.jpg', 'key': 'NaN', 'origWidth': 411, 'origHeight': 410, 'width': 411, 'height': 410, 'widthPercent': 0.8, 'rescaleHeight': True, 'trialN': 32, 'loaded': True, 'loadedTime': 2886.300000190735, 'positionName': 'CENTER', 'positionCoords': [1074.5, 515]}]",Rate how much you want to eat this food from 0 (least) to 10 (most).,112200.30000019073,1669843240617,pear,1693.0,True,0.96,113893.30000019073,1693.0,True,HRV,HRV_0308,2022-11-30 21:21:55
33,"[{'imgObject': {}, 'id': 'froot loops w milk', 'src': '/static/foodstim60/froot loops w milk.jpg', 'key': 'NaN', 'origWidth': 410, 'origHeight': 410, 'width': 410, 'height': 410, 'widthPercent': 0.8, 'rescaleHeight': True, 'trialN': 33, 'loaded': True, 'loadedTime': 2900.6000003814697, 'positionName': 'CENTER', 'positionCoords': [1075, 515]}]",Rate how much you want to eat this food from 0 (least) to 10 (most).,113894.40000009537,1669843242311,froot loops w milk,1669.7000002861023,True,0.58,115564.10000038147,1669.7000002861023,True,HRV,HRV_0308,2022-11-30 21:21:55
34,"[{'imgObject': {}, 'id': 'corn cob', 'src': '/static/foodstim60/corn cob.jpg', 'key': 'NaN', 'origWidth': 411, 'origHeight': 411, 'width': 411, 'height': 411, 'widthPercent': 0.8, 'rescaleHeight': True, 'trialN': 34, 'loaded': True, 'loadedTime': 2904.800000190735, 'positionName': 'CENTER', 'positionCoords': [1074.5, 514.5]}]",Rate how much you want to eat this food from 0 (least) to 10 (most).,115565.40000009537,1669843243982,corn cob,1651.8000001907349,True,2.02,117217.2000002861,1651.8000001907349,True,HRV,HRV_0308,2022-11-30 21:21:55
35,"[{'imgObject': {}, 'id': 'burger', 'src': '/static/foodstim60/burger.jpg', 'key': 'NaN', 'origWidth': 409, 'origHeight': 409, 'width': 409, 'height': 409, 'widthPercent': 0.8, 'rescaleHeight': True, 'trialN': 35, 'loaded': True, 'loadedTime': 2935.300000190735, 'positionName': 'CENTER', 'positionCoords': [1075.5, 515.5]}]",Rate how much you want to eat this food from 0 (least) to 10 (most).,117218.2000002861,1669843245635,burger,3449.7999997138977,True,6.74,120668.0,3449.7999997138977,True,HRV,HRV_0308,2022-11-30 21:21:55
36,"[{'imgObject': {}, 'id': 'turkey sandwich', 'src': '/static/foodstim60/turkey sandwich.jpg', 'key': 'NaN', 'origWidth': 409, 'origHeight': 409, 'width': 409, 'height': 409, 'widthPercent': 0.8, 'rescaleHeight': True, 'trialN': 36, 'loaded': True, 'loadedTime': 2950.800000190735, 'positionName': 'CENTER', 'positionCoords': [1075.5, 515.5]}]",Rate how much you want to eat this food from 0 (least) to 10 (most).,120668.80000019073,1669843249085,turkey sandwich,1988.1999998092651,True,6.05,122657.0,1988.1999998092651,True,HRV,HRV_0308,2022-11-30 21:21:55
37,"[{'imgObject': {}, 'id': 'sushi w_condiments', 'src': '/static/foodstim60/sushi w_condiments.jpg', 'key': 'NaN', 'origWidth': 410, 'origHeight': 410, 'width': 410, 'height': 410, 'widthPercent': 0.8, 'rescaleHeight': True, 'trialN': 37, 'loaded': True, 'loadedTime': 2960.300000190735, 'positionName': 'CENTER', 'positionCoords': [1075, 515]}]",Rate how much you want to eat this food from 0 (least) to 10 (most).,122657.80000019073,1669843251074,sushi w_condiments,1821.5,True,8.35,124479.30000019073,1821.5,True,HRV,HRV_0308,2022-11-30 21:21:55
38,"[{'imgObject': {}, 'id': 'rigatoni and sauce', 'src': '/static/foodstim60/rigatoni and sauce.jpg', 'key': 'NaN', 'origWidth': 410, 'origHeight': 411, 'width': 410, 'height': 411, 'widthPercent': 0.8, 'rescaleHeight': True, 'trialN': 38, 'loaded': True, 'loadedTime': 2981.800000190735, 'positionName': 'CENTER', 'positionCoords': [1075, 514.5]}]",Rate how much you want to eat this food from 0 (least) to 10 (most).,124480.5,1669843252897,rigatoni and sauce,2880.5,True,0.47000000000000003,127361.0,2880.5,True,HRV,HRV_0308,2022-11-30 21:21:55
39,"[{'imgObject': {}, 'id': 'cantaloupe', 'src': '/static/foodstim60/cantaloupe.jpg', 'key': 'NaN', 'origWidth': 409, 'origHeight': 409, 'width': 409, 'height': 409, 'widthPercent': 0.8, 'rescaleHeight': True, 'trialN': 39, 'loaded': True, 'loadedTime': 2992.1000003814697, 'positionName': 'CENTER', 'positionCoords': [1075.5, 515.5]}]",Rate how much you want to eat this food from 0 (least) to 10 (most).,127361.60000038147,1669843255778,cantaloupe,1857.2999997138977,True,0.39,129218.90000009537,1857.2999997138977,True,HRV,HRV_0308,2022-11-30 21:21:55
40,"[{'imgObject': {}, 'id': 'hashbrowns', 'src': '/static/foodstim60/hashbrowns.jpg', 'key': 'NaN', 'origWidth': 411, 'origHeight': 410, 'width': 411, 'height': 410, 'widthPercent': 0.8, 'rescaleHeight': True, 'trialN': 40, 'loaded': True, 'loadedTime': 2995.6000003814697, 'positionName': 'CENTER', 'positionCoords': [1074.5, 515]}]",Rate how much you want to eat this food from 0 (least) to 10 (most).,129219.80000019073,1669843257636,hashbrowns,4382.0,True,2.23,133601.80000019073,4382.0,True,HRV,HRV_0308,2022-11-30 21:21:55
41,"[{'imgObject': {}, 'id': 'olives', 'src': '/static/foodstim60/olives.jpg', 'key': 'NaN', 'origWidth': 410, 'origHeight': 410, 'width': 410, 'height': 410, 'widthPercent': 0.8, 'rescaleHeight': True, 'trialN': 41, 'loaded': True, 'loadedTime': 3021.9000000953674, 'positionName': 'CENTER', 'positionCoords': [1075, 515]}]",Rate how much you want to eat this food from 0 (least) to 10 (most).,133602.60000038147,1669843262019,olives,1790.0999999046326,True,0.03,135392.7000002861,1790.0999999046326,True,HRV,HRV_0308,2022-11-30 21:21:55
42,"[{'imgObject': {}, 'id': 'orange slices', 'src': '/static/foodstim60/orange slices.jpg', 'key': 'NaN', 'origWidth': 409, 'origHeight': 410, 'width': 409, 'height': 410, 'widthPercent': 0.8, 'rescaleHeight': True, 'trialN': 42, 'loaded': True, 'loadedTime': 3035.300000190735, 'positionName': 'CENTER', 'positionCoords': [1075.5, 515]}]",Rate how much you want to eat this food from 0 (least) to 10 (most).,135393.60000038147,1669843263810,orange slices,1737.0999999046326,True,1.53,137130.7000002861,1737.0999999046326,True,HRV,HRV_0308,2022-11-30 21:21:55
43,"[{'imgObject': {}, 'id': 'seaweed', 'src': '/static/foodstim60/seaweed.jpg', 'key': 'NaN', 'origWidth': 410, 'origHeight': 410, 'width': 410, 'height': 410, 'widthPercent': 0.8, 'rescaleHeight': True, 'trialN': 43, 'loaded': True, 'loadedTime': 3046.4000000953674, 'positionName': 'CENTER', 'positionCoords': [1075, 515]}]",Rate how much you want to eat this food from 0 (least) to 10 (most).,137131.40000009537,1669843265548,seaweed,2638.2000002861023,True,4.26,139769.60000038147,2638.2000002861023,True,HRV,HRV_0308,2022-11-30 21:21:55
44,"[{'imgObject': {}, 'id': 'apple slices', 'src': '/static/foodstim60/apple slices.jpg', 'key': 'NaN', 'origWidth': 409, 'origHeight': 410, 'width': 409, 'height': 410, 'widthPercent': 0.8, 'rescaleHeight': True, 'trialN': 44, 'loaded': True, 'loadedTime': 3070.5, 'positionName': 'CENTER', 'positionCoords': [1075.5, 515]}]",Rate how much you want to eat this food from 0 (least) to 10 (most).,139770.60000038147,1669843268187,apple slices,3081.8999996185303,True,1.71,142852.5,3081.8999996185303,True,HRV,HRV_0308,2022-11-30 21:21:55
45,"[{'imgObject': {}, 'id': 'cheerios', 'src': '/static/foodstim60/cheerios.jpg', 'key': 'NaN', 'origWidth': 409, 'origHeight': 410, 'width': 409, 'height': 410, 'widthPercent': 0.8, 'rescaleHeight': True, 'trialN': 45, 'loaded': True, 'loadedTime': 3079.6000003814697, 'positionName': 'CENTER', 'positionCoords': [1075.5, 515]}]",Rate how much you want to eat this food from 0 (least) to 10 (most).,142853.5,1669843271270,cheerios,2220.0,True,0.99,145073.5,2220.0,True,HRV,HRV_0308,2022-11-30 21:21:55
46,"[{'imgObject': {}, 'id': 'baked potato', 'src': '/static/foodstim60/baked potato.jpg', 'key': 'NaN', 'origWidth': 409, 'origHeight': 410, 'width': 409, 'height': 410, 'widthPercent': 0.8, 'rescaleHeight': True, 'trialN': 46, 'loaded': True, 'loadedTime': 3094.2000002861023, 'positionName': 'CENTER', 'positionCoords': [1075.5, 515]}]",Rate how much you want to eat this food from 0 (least) to 10 (most).,145074.30000019073,1669843273491,baked potato,1909.0999999046326,True,0.58,146983.40000009537,1909.0999999046326,True,HRV,HRV_0308,2022-11-30 21:21:55
47,"[{'imgObject': {}, 'id': 'banana', 'src': '/static/foodstim60/banana.jpg', 'key': 'NaN', 'origWidth': 410, 'origHeight': 410, 'width': 410, 'height': 410, 'widthPercent': 0.8, 'rescaleHeight': True, 'trialN': 47, 'loaded': True, 'loadedTime': 3110.5, 'positionName': 'CENTER', 'positionCoords': [1075, 515]}]",Rate how much you want to eat this food from 0 (least) to 10 (most).,146984.10000038147,1669843275400,banana,3986.199999809265,True,4.57,150970.30000019073,3986.199999809265,True,HRV,HRV_0308,2022-11-30 21:21:55
48,"[{'imgObject': {}, 'id': 'fried eggs', 'src': '/static/foodstim60/fried eggs.jpg', 'key': 'NaN', 'origWidth': 410, 'origHeight': 410, 'width': 410, 'height': 410, 'widthPercent': 0.8, 'rescaleHeight': True, 'trialN': 48, 'loaded': True, 'loadedTime': 3117.6000003814697, 'positionName': 'CENTER', 'positionCoords': [1075, 515]}]",Rate how much you want to eat this food from 0 (least) to 10 (most).,150971.0,1669843279387,fried eggs,3690.2000002861023,True,5.08,154661.2000002861,3690.2000002861023,True,HRV,HRV_0308,2022-11-30 21:21:55
49,"[{'imgObject': {}, 'id': 'Tribe humus pita', 'src': '/static/foodstim60/Tribe humus pita.jpg', 'key': 'NaN', 'origWidth': 411, 'origHeight': 411, 'width': 411, 'height': 411, 'widthPercent': 0.8, 'rescaleHeight': True, 'trialN': 49, 'loaded': True, 'loadedTime': 3139.4000000953674, 'positionName': 'CENTER', 'positionCoords': [1074.5, 514.5]}]",Rate how much you want to eat this food from 0 (least) to 10 (most).,154662.0,1669843283078,Tribe humus pita,3939.1000003814697,True,3.61,158601.10000038147,3939.1000003814697,True,HRV,HRV_0308,2022-11-30 21:21:55
50,"[{'imgObject': {}, 'id': 'shreddedwheatwithmilk', 'src': '/static/foodstim60/shreddedwheatwithmilk.jpg', 'key': 'NaN', 'origWidth': 410, 'origHeight': 410, 'width': 410, 'height': 410, 'widthPercent': 0.8, 'rescaleHeight': True, 'trialN': 50, 'loaded': True, 'loadedTime': 3160.5, 'positionName': 'CENTER', 'positionCoords': [1075, 515]}]",Rate how much you want to eat this food from 0 (least) to 10 (most).,158601.90000009537,1669843287018,shreddedwheatwithmilk,1937.2000002861023,True,3.0,160539.10000038147,1937.2000002861023,True,HRV,HRV_0308,2022-11-30 21:21:55
51,"[{'imgObject': {}, 'id': 'cocktailshrimp', 'src': '/static/foodstim60/cocktailshrimp.jpg', 'key': 'NaN', 'origWidth': 410, 'origHeight': 410, 'width': 410, 'height': 410, 'widthPercent': 0.8, 'rescaleHeight': True, 'trialN': 51, 'loaded': True, 'loadedTime': 3173.6000003814697, 'positionName': 'CENTER', 'positionCoords': [1075, 515]}]",Rate how much you want to eat this food from 0 (least) to 10 (most).,160539.80000019073,1669843288956,cocktailshrimp,2390.199999809265,True,4.3,162930.0,2390.199999809265,True,HRV,HRV_0308,2022-11-30 21:21:55
52,"[{'imgObject': {}, 'id': 'roastedpotatoes', 'src': '/static/foodstim60/roastedpotatoes.jpg', 'key': 'NaN', 'origWidth': 409, 'origHeight': 410, 'width': 409, 'height': 410, 'widthPercent': 0.8, 'rescaleHeight': True, 'trialN': 52, 'loaded': True, 'loadedTime': 3177.9000000953674, 'positionName': 'CENTER', 'positionCoords': [1075.5, 515]}]",Rate how much you want to eat this food from 0 (least) to 10 (most).,162931.0,1669843291347,roastedpotatoes,3693.800000190735,True,6.3500000000000005,166624.80000019073,3693.800000190735,True,HRV,HRV_0308,2022-11-30 21:21:55
53,"[{'imgObject': {}, 'id': 'mashed potato', 'src': '/static/foodstim60/mashed potato.jpg', 'key': 'NaN', 'origWidth': 409, 'origHeight': 409, 'width': 409, 'height': 409, 'widthPercent': 0.8, 'rescaleHeight': True, 'trialN': 53, 'loaded': True, 'loadedTime': 3201.800000190735, 'positionName': 'CENTER', 'positionCoords': [1075.5, 515.5]}]",Rate how much you want to eat this food from 0 (least) to 10 (most).,166625.7000002861,1669843295042,mashed potato,6774.0,True,4.32,173399.7000002861,6774.0,True,HRV,HRV_0308,2022-11-30 21:21:55
54,"[{'imgObject': {}, 'id': 'avocado', 'src': '/static/foodstim60/avocado.jpg', 'key': 'NaN', 'origWidth': 409, 'origHeight': 409, 'width': 409, 'height': 409, 'widthPercent': 0.8, 'rescaleHeight': True, 'trialN': 54, 'loaded': True, 'loadedTime': 3206, 'positionName': 'CENTER', 'positionCoords': [1075.5, 515.5]}]",Rate how much you want to eat this food from 0 (least) to 10 (most).,173400.7000002861,1669843301818,avocado,1719.0999999046326,True,0.14,175119.80000019073,1719.0999999046326,True,HRV,HRV_0308,2022-11-30 21:21:55
55,"[{'imgObject': {}, 'id': 'popsicles', 'src': '/static/foodstim60/popsicles.jpg', 'key': 'NaN', 'origWidth': 410, 'origHeight': 410, 'width': 410, 'height': 410, 'widthPercent': 0.8, 'rescaleHeight': True, 'trialN': 55, 'loaded': True, 'loadedTime': 3230.800000190735, 'positionName': 'CENTER', 'positionCoords': [1075, 515]}]",Rate how much you want to eat this food from 0 (least) to 10 (most).,175121.0,1669843303538,popsicles,1607.7000002861023,True,0.12,176728.7000002861,1607.7000002861023,True,HRV,HRV_0308,2022-11-30 21:21:55
56,"[{'imgObject': {}, 'id': 'mac & cheese', 'src': '/static/foodstim60/mac & cheese.jpg', 'key': 'NaN', 'origWidth': 410, 'origHeight': 410, 'width': 410, 'height': 410, 'widthPercent': 0.8, 'rescaleHeight': True, 'trialN': 56, 'loaded': True, 'loadedTime': 3243.5, 'positionName': 'CENTER', 'positionCoords': [1075, 515]}]",Rate how much you want to eat this food from 0 (least) to 10 (most).,176729.7000002861,1669843305147,mac & cheese,2702.0,True,3.37,179431.7000002861,2702.0,True,HRV,HRV_0308,2022-11-30 21:21:55
57,"[{'imgObject': {}, 'id': 'hotdog w must', 'src': '/static/foodstim60/hotdog w must.jpg', 'key': 'NaN', 'origWidth': 409, 'origHeight': 409, 'width': 409, 'height': 409, 'widthPercent': 0.8, 'rescaleHeight': True, 'trialN': 57, 'loaded': True, 'loadedTime': 3260, 'positionName': 'CENTER', 'positionCoords': [1075.5, 515.5]}]",Rate how much you want to eat this food from 0 (least) to 10 (most).,179432.60000038147,1669843307850,hotdog w must,2865.8999996185303,True,5.51,182298.5,2865.8999996185303,True,HRV,HRV_0308,2022-11-30 21:21:55
58,"[{'imgObject': {}, 'id': 'grilled chicken strips', 'src': '/static/foodstim60/grilled chicken strips.jpg', 'key': 'NaN', 'origWidth': 410, 'origHeight': 411, 'width': 410, 'height': 411, 'widthPercent': 0.8, 'rescaleHeight': True, 'trialN': 58, 'loaded': True, 'loadedTime': 3264.4000000953674, 'positionName': 'CENTER', 'positionCoords': [1075, 514.5]}]",Rate how much you want to eat this food from 0 (least) to 10 (most).,182299.10000038147,1669843310717,grilled chicken strips,3983.2999997138977,True,5.05,186282.40000009537,3983.2999997138977,True,HRV,HRV_0308,2022-11-30 21:21:55
59,"[{'imgObject': {}, 'id': 'chickenfingers', 'src': '/static/foodstim60/chickenfingers.jpg', 'key': 'NaN', 'origWidth': 410, 'origHeight': 410, 'width': 410, 'height': 410, 'widthPercent': 0.8, 'rescaleHeight': True, 'trialN': 59, 'loaded': True, 'loadedTime': 3290.800000190735, 'positionName': 'CENTER', 'positionCoords': [1075, 515]}]",Rate how much you want to eat this food from 0 (least) to 10 (most).,186283.2000002861,1669843314701,chickenfingers,2384.199999809265,True,8.84,188667.40000009537,2384.199999809265,True,HRV,HRV_0308,2022-11-30 21:21:55
