trialN,stimuli,question,trialStartTime,trialStartTime_UNIX,stimulus1,rt,receivedResponse,rating,trialEndTime,trialDuration,stimulus1Loaded,exp,subjectId,date
0,"[{'imgObject': {}, 'id': 'chickenfingers', 'src': '/static/foodstim60/chickenfingers.jpg', 'key': 'NaN', 'origWidth': 410, 'origHeight': 410, 'width': 374.40000000000003, 'height': 374.40000000000003, 'widthPercent': 0.8, 'rescaleHeight': True, 'trialN': 0, 'loaded': True, 'loadedTime': 2306.8999999910593, 'positionName': 'CENTER', 'positionCoords': [437.5, 101]}]",Rate how much you want to eat this food from 0 (least) to 10 (most).,3296.2999999970198,1669829864525,chickenfingers,3898.8999999910593,True,6.7,7195.199999988079,3898.8999999910593,True,HRV,HRV_0009,2022-11-30 17:40:21
1,"[{'imgObject': {}, 'id': 'Grapes', 'src': '/static/foodstim60/Grapes.jpg', 'key': 'NaN', 'origWidth': 411, 'origHeight': 411, 'width': 374.40000000000003, 'height': 374.40000000000003, 'widthPercent': 0.8, 'rescaleHeight': True, 'trialN': 1, 'loaded': True, 'loadedTime': 2381.8999999910593, 'positionName': 'CENTER', 'positionCoords': [437.5, 101]}]",Rate how much you want to eat this food from 0 (least) to 10 (most).,7200.399999991059,1669829868429,Grapes,2274.7999999970198,True,4.97,9475.199999988079,2274.7999999970198,True,HRV,HRV_0009,2022-11-30 17:40:21
2,"[{'imgObject': {}, 'id': 'Tribe humus pita', 'src': '/static/foodstim60/Tribe humus pita.jpg', 'key': 'NaN', 'origWidth': 411, 'origHeight': 411, 'width': 374.40000000000003, 'height': 374.40000000000003, 'widthPercent': 0.8, 'rescaleHeight': True, 'trialN': 2, 'loaded': True, 'loadedTime': 2336.5, 'positionName': 'CENTER', 'positionCoords': [437.5, 101]}]",Rate how much you want to eat this food from 0 (least) to 10 (most).,9477.79999999702,1669829870706,Tribe humus pita,2117.3999999910593,True,8.14,11595.199999988079,2117.3999999910593,True,HRV,HRV_0009,2022-11-30 17:40:21
3,"[{'imgObject': {}, 'id': 'burrito', 'src': '/static/foodstim60/burrito.jpg', 'key': 'NaN', 'origWidth': 410, 'origHeight': 410, 'width': 374.40000000000003, 'height': 374.40000000000003, 'widthPercent': 0.8, 'rescaleHeight': True, 'trialN': 3, 'loaded': True, 'loadedTime': 2349.5, 'positionName': 'CENTER', 'positionCoords': [437.5, 101]}]",Rate how much you want to eat this food from 0 (least) to 10 (most).,11597.79999999702,1669829872826,burrito,1933.3999999910593,True,1.9000000000000001,13531.199999988079,1933.3999999910593,True,HRV,HRV_0009,2022-11-30 17:40:21
4,"[{'imgObject': {}, 'id': 'yogurt no spoon', 'src': '/static/foodstim60/yogurt no spoon.jpg', 'key': 'NaN', 'origWidth': 411, 'origHeight': 410, 'width': 375.3131707317074, 'height': 374.40000000000003, 'widthPercent': 0.8, 'rescaleHeight': True, 'trialN': 4, 'loaded': True, 'loadedTime': 2445.5, 'positionName': 'CENTER', 'positionCoords': [437, 101]}]",Rate how much you want to eat this food from 0 (least) to 10 (most).,13533.89999999106,1669829874762,yogurt no spoon,2125.4000000059605,True,3.75,15659.29999999702,2125.4000000059605,True,HRV,HRV_0009,2022-11-30 17:40:21
5,"[{'imgObject': {}, 'id': 'cheerios', 'src': '/static/foodstim60/cheerios.jpg', 'key': 'NaN', 'origWidth': 409, 'origHeight': 410, 'width': 373.48682926829264, 'height': 374.40000000000003, 'widthPercent': 0.8, 'rescaleHeight': True, 'trialN': 5, 'loaded': True, 'loadedTime': 2389.3999999910593, 'positionName': 'CENTER', 'positionCoords': [438, 101]}]",Rate how much you want to eat this food from 0 (least) to 10 (most).,15661.699999988079,1669829876890,cheerios,1949.5,True,1.06,17611.19999998808,1949.5,True,HRV,HRV_0009,2022-11-30 17:40:21
6,"[{'imgObject': {}, 'id': 'omelette', 'src': '/static/foodstim60/omelette.jpg', 'key': 'NaN', 'origWidth': 410, 'origHeight': 409, 'width': 375.3154034229829, 'height': 374.40000000000003, 'widthPercent': 0.8, 'rescaleHeight': True, 'trialN': 6, 'loaded': True, 'loadedTime': 2359.7999999970198, 'positionName': 'CENTER', 'positionCoords': [437, 101]}]",Rate how much you want to eat this food from 0 (least) to 10 (most).,17613.89999999106,1669829878842,omelette,1981.4000000059605,True,5.04,19595.29999999702,1981.4000000059605,True,HRV,HRV_0009,2022-11-30 17:40:21
7,"[{'imgObject': {}, 'id': 'raspberries', 'src': '/static/foodstim60/raspberries.jpg', 'key': 'NaN', 'origWidth': 411, 'origHeight': 411, 'width': 374.40000000000003, 'height': 374.40000000000003, 'widthPercent': 0.8, 'rescaleHeight': True, 'trialN': 7, 'loaded': True, 'loadedTime': 2398.8999999910593, 'positionName': 'CENTER', 'positionCoords': [437.5, 101]}]",Rate how much you want to eat this food from 0 (least) to 10 (most).,19597.79999999702,1669829880826,raspberries,1925.5,True,1.32,21523.29999999702,1925.5,True,HRV,HRV_0009,2022-11-30 17:40:21
8,"[{'imgObject': {}, 'id': 'blueberries', 'src': '/static/foodstim60/blueberries.jpg', 'key': 'NaN', 'origWidth': 411, 'origHeight': 411, 'width': 374.40000000000003, 'height': 374.40000000000003, 'widthPercent': 0.8, 'rescaleHeight': True, 'trialN': 8, 'loaded': True, 'loadedTime': 2403.699999988079, 'positionName': 'CENTER', 'positionCoords': [437.5, 101]}]",Rate how much you want to eat this food from 0 (least) to 10 (most).,21525.89999999106,1669829882755,blueberries,2261.2999999970198,True,1.05,23787.19999998808,2261.2999999970198,True,HRV,HRV_0009,2022-11-30 17:40:21
9,"[{'imgObject': {}, 'id': 'shreddedwheatwithmilk', 'src': '/static/foodstim60/shreddedwheatwithmilk.jpg', 'key': 'NaN', 'origWidth': 410, 'origHeight': 410, 'width': 374.40000000000003, 'height': 374.40000000000003, 'widthPercent': 0.8, 'rescaleHeight': True, 'trialN': 9, 'loaded': True, 'loadedTime': 2436.8999999910593, 'positionName': 'CENTER', 'positionCoords': [437.5, 101]}]",Rate how much you want to eat this food from 0 (least) to 10 (most).,23790.29999999702,1669829885019,shreddedwheatwithmilk,2589.0,True,5.87,26379.29999999702,2589.0,True,HRV,HRV_0009,2022-11-30 17:40:21
10,"[{'imgObject': {}, 'id': 'seaweed', 'src': '/static/foodstim60/seaweed.jpg', 'key': 'NaN', 'origWidth': 410, 'origHeight': 410, 'width': 374.40000000000003, 'height': 374.40000000000003, 'widthPercent': 0.8, 'rescaleHeight': True, 'trialN': 10, 'loaded': True, 'loadedTime': 2468.8999999910593, 'positionName': 'CENTER', 'positionCoords': [437.5, 101]}]",Rate how much you want to eat this food from 0 (least) to 10 (most).,26382.29999999702,1669829887611,seaweed,1876.8999999910593,True,0.0,28259.19999998808,1876.8999999910593,True,HRV,HRV_0009,2022-11-30 17:40:21
11,"[{'imgObject': {}, 'id': 'popsicles', 'src': '/static/foodstim60/popsicles.jpg', 'key': 'NaN', 'origWidth': 410, 'origHeight': 410, 'width': 374.40000000000003, 'height': 374.40000000000003, 'widthPercent': 0.8, 'rescaleHeight': True, 'trialN': 11, 'loaded': True, 'loadedTime': 2450.699999988079, 'positionName': 'CENTER', 'positionCoords': [437.5, 101]}]",Rate how much you want to eat this food from 0 (least) to 10 (most).,28262.0,1669829889490,popsicles,2005.199999988079,True,0.49,30267.19999998808,2005.199999988079,True,HRV,HRV_0009,2022-11-30 17:40:21
12,"[{'imgObject': {}, 'id': 'orange slices', 'src': '/static/foodstim60/orange slices.jpg', 'key': 'NaN', 'origWidth': 409, 'origHeight': 410, 'width': 373.48682926829264, 'height': 374.40000000000003, 'widthPercent': 0.8, 'rescaleHeight': True, 'trialN': 12, 'loaded': True, 'loadedTime': 2472.7999999970198, 'positionName': 'CENTER', 'positionCoords': [438, 101]}]",Rate how much you want to eat this food from 0 (least) to 10 (most).,30270.19999998808,1669829891498,orange slices,1853.0,True,3.0700000000000003,32123.19999998808,1853.0,True,HRV,HRV_0009,2022-11-30 17:40:21
13,"[{'imgObject': {}, 'id': 'eggsalad', 'src': '/static/foodstim60/eggsalad.jpg', 'key': 'NaN', 'origWidth': 410, 'origHeight': 409, 'width': 375.3154034229829, 'height': 374.40000000000003, 'widthPercent': 0.8, 'rescaleHeight': True, 'trialN': 13, 'loaded': True, 'loadedTime': 2481.199999988079, 'positionName': 'CENTER', 'positionCoords': [437, 101]}]",Rate how much you want to eat this food from 0 (least) to 10 (most).,32126.59999999404,1669829893355,eggsalad,3220.5,True,0.14,35347.09999999404,3220.5,True,HRV,HRV_0009,2022-11-30 17:40:21
14,"[{'imgObject': {}, 'id': 'salad w chicken', 'src': '/static/foodstim60/salad w chicken.jpg', 'key': 'NaN', 'origWidth': 411, 'origHeight': 411, 'width': 374.40000000000003, 'height': 374.40000000000003, 'widthPercent': 0.8, 'rescaleHeight': True, 'trialN': 14, 'loaded': True, 'loadedTime': 2541.2999999970198, 'positionName': 'CENTER', 'positionCoords': [437.5, 101]}]",Rate how much you want to eat this food from 0 (least) to 10 (most).,35350.09999999404,1669829896578,salad w chicken,2349.0,True,9.47,37699.09999999404,2349.0,True,HRV,HRV_0009,2022-11-30 17:40:21
15,"[{'imgObject': {}, 'id': 'raisin bran w milk', 'src': '/static/foodstim60/raisin bran w milk.jpg', 'key': 'NaN', 'origWidth': 411, 'origHeight': 411, 'width': 374.40000000000003, 'height': 374.40000000000003, 'widthPercent': 0.8, 'rescaleHeight': True, 'trialN': 15, 'loaded': True, 'loadedTime': 2496.699999988079, 'positionName': 'CENTER', 'positionCoords': [437.5, 101]}]",Rate how much you want to eat this food from 0 (least) to 10 (most).,37703.5,1669829898932,raisin bran w milk,1587.699999988079,True,8.72,39291.19999998808,1587.699999988079,True,HRV,HRV_0009,2022-11-30 17:40:21
16,"[{'imgObject': {}, 'id': 'ice cream sundae 002', 'src': '/static/foodstim60/ice cream sundae 002.jpg', 'key': 'NaN', 'origWidth': 409, 'origHeight': 409, 'width': 374.40000000000003, 'height': 374.40000000000003, 'widthPercent': 0.8, 'rescaleHeight': True, 'trialN': 16, 'loaded': True, 'loadedTime': 2512.7999999970198, 'positionName': 'CENTER', 'positionCoords': [437.5, 101]}]",Rate how much you want to eat this food from 0 (least) to 10 (most).,39294.29999999702,1669829900523,ice cream sundae 002,3108.8999999910593,True,3.93,42403.19999998808,3108.8999999910593,True,HRV,HRV_0009,2022-11-30 17:40:21
17,"[{'imgObject': {}, 'id': 'apple slices', 'src': '/static/foodstim60/apple slices.jpg', 'key': 'NaN', 'origWidth': 409, 'origHeight': 410, 'width': 373.48682926829264, 'height': 374.40000000000003, 'widthPercent': 0.8, 'rescaleHeight': True, 'trialN': 17, 'loaded': True, 'loadedTime': 2560.5, 'positionName': 'CENTER', 'positionCoords': [438, 101]}]",Rate how much you want to eat this food from 0 (least) to 10 (most).,42406.29999999702,1669829903635,apple slices,3012.8999999910593,True,5.05,45419.19999998808,3012.8999999910593,True,HRV,HRV_0009,2022-11-30 17:40:21
18,"[{'imgObject': {}, 'id': 'bagel and cc', 'src': '/static/foodstim60/bagel and cc.jpg', 'key': 'NaN', 'origWidth': 410, 'origHeight': 410, 'width': 374.40000000000003, 'height': 374.40000000000003, 'widthPercent': 0.8, 'rescaleHeight': True, 'trialN': 18, 'loaded': True, 'loadedTime': 2558.5999999940395, 'positionName': 'CENTER', 'positionCoords': [437.5, 101]}]",Rate how much you want to eat this food from 0 (least) to 10 (most).,45423.79999999702,1669829906652,bagel and cc,1947.2999999970198,True,5.87,47371.09999999404,1947.2999999970198,True,HRV,HRV_0009,2022-11-30 17:40:21
19,"[{'imgObject': {}, 'id': 'pear', 'src': '/static/foodstim60/pear.jpg', 'key': 'NaN', 'origWidth': 411, 'origHeight': 410, 'width': 375.3131707317074, 'height': 374.40000000000003, 'widthPercent': 0.8, 'rescaleHeight': True, 'trialN': 19, 'loaded': True, 'loadedTime': 2583.8999999910593, 'positionName': 'CENTER', 'positionCoords': [437, 101]}]",Rate how much you want to eat this food from 0 (least) to 10 (most).,47375.29999999702,1669829908604,pear,3323.8999999910593,True,3.91,50699.19999998808,3323.8999999910593,True,HRV,HRV_0009,2022-11-30 17:40:21
20,"[{'imgObject': {}, 'id': 'cherries', 'src': '/static/foodstim60/cherries.jpg', 'key': 'NaN', 'origWidth': 410, 'origHeight': 411, 'width': 373.48905109489056, 'height': 374.40000000000003, 'widthPercent': 0.8, 'rescaleHeight': True, 'trialN': 20, 'loaded': True, 'loadedTime': 2586.8999999910593, 'positionName': 'CENTER', 'positionCoords': [438, 101]}]",Rate how much you want to eat this food from 0 (least) to 10 (most).,50701.69999998808,1669829911930,cherries,1837.5,True,2.07,52539.19999998808,1837.5,True,HRV,HRV_0009,2022-11-30 17:40:21
21,"[{'imgObject': {}, 'id': 'strawberries', 'src': '/static/foodstim60/strawberries.jpg', 'key': 'NaN', 'origWidth': 410, 'origHeight': 410, 'width': 374.40000000000003, 'height': 374.40000000000003, 'widthPercent': 0.8, 'rescaleHeight': True, 'trialN': 21, 'loaded': True, 'loadedTime': 2600.0999999940395, 'positionName': 'CENTER', 'positionCoords': [437.5, 101]}]",Rate how much you want to eat this food from 0 (least) to 10 (most).,52541.59999999404,1669829913770,strawberries,2549.5999999940395,True,2.71,55091.19999998808,2549.5999999940395,True,HRV,HRV_0009,2022-11-30 17:40:21
22,"[{'imgObject': {}, 'id': 'cherry tomato', 'src': '/static/foodstim60/cherry tomato.jpg', 'key': 'NaN', 'origWidth': 410, 'origHeight': 410, 'width': 374.40000000000003, 'height': 374.40000000000003, 'widthPercent': 0.8, 'rescaleHeight': True, 'trialN': 22, 'loaded': True, 'loadedTime': 2610.7999999970198, 'positionName': 'CENTER', 'positionCoords': [437.5, 101]}]",Rate how much you want to eat this food from 0 (least) to 10 (most).,55093.79999999702,1669829916322,cherry tomato,3037.3999999910593,True,4.0600000000000005,58131.19999998808,3037.3999999910593,True,HRV,HRV_0009,2022-11-30 17:40:21
23,"[{'imgObject': {}, 'id': 'banana', 'src': '/static/foodstim60/banana.jpg', 'key': 'NaN', 'origWidth': 410, 'origHeight': 410, 'width': 374.40000000000003, 'height': 374.40000000000003, 'widthPercent': 0.8, 'rescaleHeight': True, 'trialN': 23, 'loaded': True, 'loadedTime': 2660.0999999940395, 'positionName': 'CENTER', 'positionCoords': [437.5, 101]}]",Rate how much you want to eat this food from 0 (least) to 10 (most).,58133.89999999106,1669829919362,banana,1877.2999999970198,True,6.68,60011.19999998808,1877.2999999970198,True,HRV,HRV_0009,2022-11-30 17:40:21
24,"[{'imgObject': {}, 'id': 'sweetpotato', 'src': '/static/foodstim60/sweetpotato.jpg', 'key': 'NaN', 'origWidth': 410, 'origHeight': 410, 'width': 374.40000000000003, 'height': 374.40000000000003, 'widthPercent': 0.8, 'rescaleHeight': True, 'trialN': 24, 'loaded': True, 'loadedTime': 2627.0999999940395, 'positionName': 'CENTER', 'positionCoords': [437.5, 101]}]",Rate how much you want to eat this food from 0 (least) to 10 (most).,60014.59999999404,1669829921243,sweetpotato,3116.5,True,7.61,63131.09999999404,3116.5,True,HRV,HRV_0009,2022-11-30 17:40:21
25,"[{'imgObject': {}, 'id': 'bagel plain', 'src': '/static/foodstim60/bagel plain.jpg', 'key': 'NaN', 'origWidth': 410, 'origHeight': 410, 'width': 374.40000000000003, 'height': 374.40000000000003, 'widthPercent': 0.8, 'rescaleHeight': True, 'trialN': 25, 'loaded': True, 'loadedTime': 2664.2999999970198, 'positionName': 'CENTER', 'positionCoords': [437.5, 101]}]",Rate how much you want to eat this food from 0 (least) to 10 (most).,63135.0,1669829924363,bagel plain,1892.199999988079,True,6.24,65027.19999998808,1892.199999988079,True,HRV,HRV_0009,2022-11-30 17:40:21
26,"[{'imgObject': {}, 'id': 'eggs', 'src': '/static/foodstim60/eggs.jpg', 'key': 'NaN', 'origWidth': 409, 'origHeight': 409, 'width': 374.40000000000003, 'height': 374.40000000000003, 'widthPercent': 0.8, 'rescaleHeight': True, 'trialN': 26, 'loaded': True, 'loadedTime': 2667.5999999940395, 'positionName': 'CENTER', 'positionCoords': [437.5, 101]}]",Rate how much you want to eat this food from 0 (least) to 10 (most).,65029.69999998808,1669829926258,eggs,5853.5,True,8.59,70883.19999998808,5853.5,True,HRV,HRV_0009,2022-11-30 17:40:21
27,"[{'imgObject': {}, 'id': 'veggieswithdip', 'src': '/static/foodstim60/veggieswithdip.jpg', 'key': 'NaN', 'origWidth': 409, 'origHeight': 409, 'width': 374.40000000000003, 'height': 374.40000000000003, 'widthPercent': 0.8, 'rescaleHeight': True, 'trialN': 27, 'loaded': True, 'loadedTime': 2679.3999999910593, 'positionName': 'CENTER', 'positionCoords': [437.5, 101]}]",Rate how much you want to eat this food from 0 (least) to 10 (most).,70885.89999999106,1669829932114,veggieswithdip,2301.2999999970198,True,9.02,73187.19999998808,2301.2999999970198,True,HRV,HRV_0009,2022-11-30 17:40:21
28,"[{'imgObject': {}, 'id': 'steak', 'src': '/static/foodstim60/steak.jpg', 'key': 'NaN', 'origWidth': 410, 'origHeight': 410, 'width': 374.40000000000003, 'height': 374.40000000000003, 'widthPercent': 0.8, 'rescaleHeight': True, 'trialN': 28, 'loaded': True, 'loadedTime': 2696.8999999910593, 'positionName': 'CENTER', 'positionCoords': [437.5, 101]}]",Rate how much you want to eat this food from 0 (least) to 10 (most).,73190.39999999106,1669829934419,steak,1788.7000000029802,True,9.950000000000001,74979.09999999404,1788.7000000029802,True,HRV,HRV_0009,2022-11-30 17:40:21
29,"[{'imgObject': {}, 'id': 'olives', 'src': '/static/foodstim60/olives.jpg', 'key': 'NaN', 'origWidth': 410, 'origHeight': 410, 'width': 374.40000000000003, 'height': 374.40000000000003, 'widthPercent': 0.8, 'rescaleHeight': True, 'trialN': 29, 'loaded': True, 'loadedTime': 2749, 'positionName': 'CENTER', 'positionCoords': [437.5, 101]}]",Rate how much you want to eat this food from 0 (least) to 10 (most).,74981.79999999702,1669829936210,olives,1981.3999999910593,True,0.0,76963.19999998808,1981.3999999910593,True,HRV,HRV_0009,2022-11-30 17:40:21
30,"[{'imgObject': {}, 'id': 'mashed potato', 'src': '/static/foodstim60/mashed potato.jpg', 'key': 'NaN', 'origWidth': 409, 'origHeight': 409, 'width': 374.40000000000003, 'height': 374.40000000000003, 'widthPercent': 0.8, 'rescaleHeight': True, 'trialN': 30, 'loaded': True, 'loadedTime': 2733.5999999940395, 'positionName': 'CENTER', 'positionCoords': [437.5, 101]}]",Rate how much you want to eat this food from 0 (least) to 10 (most).,76966.0,1669829938194,mashed potato,2341.2999999970198,True,2.75,79307.29999999702,2341.2999999970198,True,HRV,HRV_0009,2022-11-30 17:40:21
31,"[{'imgObject': {}, 'id': 'hotdog w must', 'src': '/static/foodstim60/hotdog w must.jpg', 'key': 'NaN', 'origWidth': 409, 'origHeight': 409, 'width': 374.40000000000003, 'height': 374.40000000000003, 'widthPercent': 0.8, 'rescaleHeight': True, 'trialN': 31, 'loaded': True, 'loadedTime': 2786.2999999970198, 'positionName': 'CENTER', 'positionCoords': [437.5, 101]}]",Rate how much you want to eat this food from 0 (least) to 10 (most).,79310.79999999702,1669829940539,hotdog w must,2692.3999999910593,True,6.140000000000001,82003.19999998808,2692.3999999910593,True,HRV,HRV_0009,2022-11-30 17:40:21
32,"[{'imgObject': {}, 'id': 'rigatoni', 'src': '/static/foodstim60/rigatoni.jpg', 'key': 'NaN', 'origWidth': 411, 'origHeight': 411, 'width': 374.40000000000003, 'height': 374.40000000000003, 'widthPercent': 0.8, 'rescaleHeight': True, 'trialN': 32, 'loaded': True, 'loadedTime': 2758, 'positionName': 'CENTER', 'positionCoords': [437.5, 101]}]",Rate how much you want to eat this food from 0 (least) to 10 (most).,82006.09999999404,1669829943234,rigatoni,2517.0999999940395,True,2.38,84523.19999998808,2517.0999999940395,True,HRV,HRV_0009,2022-11-30 17:40:21
33,"[{'imgObject': {}, 'id': 'sushi w_condiments', 'src': '/static/foodstim60/sushi w_condiments.jpg', 'key': 'NaN', 'origWidth': 410, 'origHeight': 410, 'width': 374.40000000000003, 'height': 374.40000000000003, 'widthPercent': 0.8, 'rescaleHeight': True, 'trialN': 33, 'loaded': True, 'loadedTime': 2798, 'positionName': 'CENTER', 'positionCoords': [437.5, 101]}]",Rate how much you want to eat this food from 0 (least) to 10 (most).,84526.19999998808,1669829945754,sushi w_condiments,2220.9000000059605,True,8.540000000000001,86747.09999999404,2220.9000000059605,True,HRV,HRV_0009,2022-11-30 17:40:21
34,"[{'imgObject': {}, 'id': 'mac & cheese', 'src': '/static/foodstim60/mac & cheese.jpg', 'key': 'NaN', 'origWidth': 410, 'origHeight': 410, 'width': 374.40000000000003, 'height': 374.40000000000003, 'widthPercent': 0.8, 'rescaleHeight': True, 'trialN': 34, 'loaded': True, 'loadedTime': 2810.7999999970198, 'positionName': 'CENTER', 'positionCoords': [437.5, 101]}]",Rate how much you want to eat this food from 0 (least) to 10 (most).,86750.09999999404,1669829947978,mac & cheese,2381.0999999940395,True,9.290000000000001,89131.19999998808,2381.0999999940395,True,HRV,HRV_0009,2022-11-30 17:40:21
35,"[{'imgObject': {}, 'id': 'chicken nuggets2', 'src': '/static/foodstim60/chicken nuggets2.jpg', 'key': 'NaN', 'origWidth': 410, 'origHeight': 409, 'width': 375.3154034229829, 'height': 374.40000000000003, 'widthPercent': 0.8, 'rescaleHeight': True, 'trialN': 35, 'loaded': True, 'loadedTime': 2837.2999999970198, 'positionName': 'CENTER', 'positionCoords': [437, 101]}]",Rate how much you want to eat this food from 0 (least) to 10 (most).,89134.39999999106,1669829950363,chicken nuggets2,4828.79999999702,True,4.03,93963.19999998808,4828.79999999702,True,HRV,HRV_0009,2022-11-30 17:40:21
36,"[{'imgObject': {}, 'id': 'roastedpotatoes', 'src': '/static/foodstim60/roastedpotatoes.jpg', 'key': 'NaN', 'origWidth': 409, 'origHeight': 410, 'width': 373.48682926829264, 'height': 374.40000000000003, 'widthPercent': 0.8, 'rescaleHeight': True, 'trialN': 36, 'loaded': True, 'loadedTime': 2937.7999999970198, 'positionName': 'CENTER', 'positionCoords': [438, 101]}]",Rate how much you want to eat this food from 0 (least) to 10 (most).,93966.5,1669829955195,roastedpotatoes,2228.699999988079,True,8.08,96195.19999998808,2228.699999988079,True,HRV,HRV_0009,2022-11-30 17:40:21
37,"[{'imgObject': {}, 'id': 'lox', 'src': '/static/foodstim60/lox.jpg', 'key': 'NaN', 'origWidth': 410, 'origHeight': 411, 'width': 373.48905109489056, 'height': 374.40000000000003, 'widthPercent': 0.8, 'rescaleHeight': True, 'trialN': 37, 'loaded': True, 'loadedTime': 2912.7999999970198, 'positionName': 'CENTER', 'positionCoords': [438, 101]}]",Rate how much you want to eat this food from 0 (least) to 10 (most).,96198.5,1669829957427,lox,3916.699999988079,True,1.56,100115.19999998808,3916.699999988079,True,HRV,HRV_0009,2022-11-30 17:40:21
38,"[{'imgObject': {}, 'id': 'corn cob', 'src': '/static/foodstim60/corn cob.jpg', 'key': 'NaN', 'origWidth': 411, 'origHeight': 411, 'width': 374.40000000000003, 'height': 374.40000000000003, 'widthPercent': 0.8, 'rescaleHeight': True, 'trialN': 38, 'loaded': True, 'loadedTime': 2940.199999988079, 'positionName': 'CENTER', 'positionCoords': [437.5, 101]}]",Rate how much you want to eat this food from 0 (least) to 10 (most).,100123.29999999702,1669829961352,corn cob,1911.7999999970198,True,7.890000000000001,102035.09999999404,1911.7999999970198,True,HRV,HRV_0009,2022-11-30 17:40:21
39,"[{'imgObject': {}, 'id': 'burger', 'src': '/static/foodstim60/burger.jpg', 'key': 'NaN', 'origWidth': 409, 'origHeight': 409, 'width': 374.40000000000003, 'height': 374.40000000000003, 'widthPercent': 0.8, 'rescaleHeight': True, 'trialN': 39, 'loaded': True, 'loadedTime': 2945.3999999910593, 'positionName': 'CENTER', 'positionCoords': [437.5, 101]}]",Rate how much you want to eat this food from 0 (least) to 10 (most).,102039.29999999702,1669829963268,burger,2043.8999999910593,True,9.89,104083.19999998808,2043.8999999910593,True,HRV,HRV_0009,2022-11-30 17:40:21
40,"[{'imgObject': {}, 'id': 'luckycharms', 'src': '/static/foodstim60/luckycharms.jpg', 'key': 'NaN', 'origWidth': 410, 'origHeight': 409, 'width': 375.3154034229829, 'height': 374.40000000000003, 'widthPercent': 0.8, 'rescaleHeight': True, 'trialN': 40, 'loaded': True, 'loadedTime': 2947.699999988079, 'positionName': 'CENTER', 'positionCoords': [437, 101]}]",Rate how much you want to eat this food from 0 (least) to 10 (most).,104085.59999999404,1669829965314,luckycharms,1941.5999999940395,True,8.290000000000001,106027.19999998808,1941.5999999940395,True,HRV,HRV_0009,2022-11-30 17:40:21
41,"[{'imgObject': {}, 'id': 'grilled chicken strips', 'src': '/static/foodstim60/grilled chicken strips.jpg', 'key': 'NaN', 'origWidth': 410, 'origHeight': 411, 'width': 373.48905109489056, 'height': 374.40000000000003, 'widthPercent': 0.8, 'rescaleHeight': True, 'trialN': 41, 'loaded': True, 'loadedTime': 2942.699999988079, 'positionName': 'CENTER', 'positionCoords': [438, 101]}]",Rate how much you want to eat this food from 0 (least) to 10 (most).,106029.69999998808,1669829967259,grilled chicken strips,2213.4000000059605,True,9.77,108243.09999999404,2213.4000000059605,True,HRV,HRV_0009,2022-11-30 17:40:21
42,"[{'imgObject': {}, 'id': 'tacos', 'src': '/static/foodstim60/tacos.jpg', 'key': 'NaN', 'origWidth': 411, 'origHeight': 411, 'width': 374.40000000000003, 'height': 374.40000000000003, 'widthPercent': 0.8, 'rescaleHeight': True, 'trialN': 42, 'loaded': True, 'loadedTime': 3022.5999999940395, 'positionName': 'CENTER', 'positionCoords': [437.5, 101]}]",Rate how much you want to eat this food from 0 (least) to 10 (most).,108245.69999998808,1669829969475,tacos,5621.5,True,2.38,113867.19999998808,5621.5,True,HRV,HRV_0009,2022-11-30 17:40:21
43,"[{'imgObject': {}, 'id': 'rigatoni and sauce', 'src': '/static/foodstim60/rigatoni and sauce.jpg', 'key': 'NaN', 'origWidth': 410, 'origHeight': 411, 'width': 373.48905109489056, 'height': 374.40000000000003, 'widthPercent': 0.8, 'rescaleHeight': True, 'trialN': 43, 'loaded': True, 'loadedTime': 3007.8999999910593, 'positionName': 'CENTER', 'positionCoords': [438, 101]}]",Rate how much you want to eat this food from 0 (least) to 10 (most).,113870.0,1669829975099,rigatoni and sauce,5781.0999999940395,True,9.81,119651.09999999404,5781.0999999940395,True,HRV,HRV_0009,2022-11-30 17:40:21
44,"[{'imgObject': {}, 'id': 'hashbrowns', 'src': '/static/foodstim60/hashbrowns.jpg', 'key': 'NaN', 'origWidth': 411, 'origHeight': 410, 'width': 375.3131707317074, 'height': 374.40000000000003, 'widthPercent': 0.8, 'rescaleHeight': True, 'trialN': 44, 'loaded': True, 'loadedTime': 3001.5999999940395, 'positionName': 'CENTER', 'positionCoords': [437, 101]}]",Rate how much you want to eat this food from 0 (least) to 10 (most).,119654.09999999404,1669829980883,hashbrowns,2645.0999999940395,True,0.1,122299.19999998808,2645.0999999940395,True,HRV,HRV_0009,2022-11-30 17:40:21
45,"[{'imgObject': {}, 'id': 'turkeysandwich', 'src': '/static/foodstim60/turkeysandwich.jpg', 'key': 'NaN', 'origWidth': 409, 'origHeight': 409, 'width': 374.40000000000003, 'height': 374.40000000000003, 'widthPercent': 0.8, 'rescaleHeight': True, 'trialN': 45, 'loaded': True, 'loadedTime': 2996.0999999940395, 'positionName': 'CENTER', 'positionCoords': [437.5, 101]}]",Rate how much you want to eat this food from 0 (least) to 10 (most).,122302.19999998808,1669829983531,turkeysandwich,2837.0,True,9.290000000000001,125139.19999998808,2837.0,True,HRV,HRV_0009,2022-11-30 17:40:21
46,"[{'imgObject': {}, 'id': 'edamame', 'src': '/static/foodstim60/edamame.jpg', 'key': 'NaN', 'origWidth': 409, 'origHeight': 410, 'width': 373.48682926829264, 'height': 374.40000000000003, 'widthPercent': 0.8, 'rescaleHeight': True, 'trialN': 46, 'loaded': True, 'loadedTime': 3047.5999999940395, 'positionName': 'CENTER', 'positionCoords': [438, 101]}]",Rate how much you want to eat this food from 0 (least) to 10 (most).,125142.19999998808,1669829986371,edamame,2349.0,True,0.34,127491.19999998808,2349.0,True,HRV,HRV_0009,2022-11-30 17:40:21
47,"[{'imgObject': {}, 'id': 'turkey sandwich', 'src': '/static/foodstim60/turkey sandwich.jpg', 'key': 'NaN', 'origWidth': 409, 'origHeight': 409, 'width': 374.40000000000003, 'height': 374.40000000000003, 'widthPercent': 0.8, 'rescaleHeight': True, 'trialN': 47, 'loaded': True, 'loadedTime': 3052.199999988079, 'positionName': 'CENTER', 'positionCoords': [437.5, 101]}]",Rate how much you want to eat this food from 0 (least) to 10 (most).,127494.29999999702,1669829988723,turkey sandwich,2188.7999999970198,True,9.290000000000001,129683.09999999404,2188.7999999970198,True,HRV,HRV_0009,2022-11-30 17:40:21
48,"[{'imgObject': {}, 'id': 'kiwi', 'src': '/static/foodstim60/kiwi.jpg', 'key': 'NaN', 'origWidth': 410, 'origHeight': 410, 'width': 374.40000000000003, 'height': 374.40000000000003, 'widthPercent': 0.8, 'rescaleHeight': True, 'trialN': 48, 'loaded': True, 'loadedTime': 3077.699999988079, 'positionName': 'CENTER', 'positionCoords': [437.5, 101]}]",Rate how much you want to eat this food from 0 (least) to 10 (most).,129685.5,1669829990914,kiwi,2181.5999999940395,True,0.07,131867.09999999404,2181.5999999940395,True,HRV,HRV_0009,2022-11-30 17:40:21
49,"[{'imgObject': {}, 'id': 'salmon', 'src': '/static/foodstim60/salmon.jpg', 'key': 'NaN', 'origWidth': 410, 'origHeight': 409, 'width': 375.3154034229829, 'height': 374.40000000000003, 'widthPercent': 0.8, 'rescaleHeight': True, 'trialN': 49, 'loaded': True, 'loadedTime': 3100, 'positionName': 'CENTER', 'positionCoords': [437, 101]}]",Rate how much you want to eat this food from 0 (least) to 10 (most).,131872.19999998808,1669829993101,salmon,2522.9000000059605,True,9.82,134395.09999999404,2522.9000000059605,True,HRV,HRV_0009,2022-11-30 17:40:21
50,"[{'imgObject': {}, 'id': 'granola w milk', 'src': '/static/foodstim60/granola w milk.jpg', 'key': 'NaN', 'origWidth': 410, 'origHeight': 410, 'width': 374.40000000000003, 'height': 374.40000000000003, 'widthPercent': 0.8, 'rescaleHeight': True, 'trialN': 50, 'loaded': True, 'loadedTime': 3083.199999988079, 'positionName': 'CENTER', 'positionCoords': [437.5, 101]}]",Rate how much you want to eat this food from 0 (least) to 10 (most).,134397.59999999404,1669829995626,granola w milk,2189.5999999940395,True,6.24,136587.19999998808,2189.5999999940395,True,HRV,HRV_0009,2022-11-30 17:40:21
51,"[{'imgObject': {}, 'id': 'fruitsalad', 'src': '/static/foodstim60/fruitsalad.jpg', 'key': 'NaN', 'origWidth': 410, 'origHeight': 410, 'width': 374.40000000000003, 'height': 374.40000000000003, 'widthPercent': 0.8, 'rescaleHeight': True, 'trialN': 51, 'loaded': True, 'loadedTime': 3109.199999988079, 'positionName': 'CENTER', 'positionCoords': [437.5, 101]}]",Rate how much you want to eat this food from 0 (least) to 10 (most).,136589.69999998808,1669829997819,fruitsalad,2181.5,True,1.32,138771.19999998808,2181.5,True,HRV,HRV_0009,2022-11-30 17:40:21
52,"[{'imgObject': {}, 'id': 'froot loops w milk', 'src': '/static/foodstim60/froot loops w milk.jpg', 'key': 'NaN', 'origWidth': 410, 'origHeight': 410, 'width': 374.40000000000003, 'height': 374.40000000000003, 'widthPercent': 0.8, 'rescaleHeight': True, 'trialN': 52, 'loaded': True, 'loadedTime': 3112.199999988079, 'positionName': 'CENTER', 'positionCoords': [437.5, 101]}]",Rate how much you want to eat this food from 0 (least) to 10 (most).,138773.89999999106,1669830000003,froot loops w milk,2149.2999999970198,True,8.67,140923.19999998808,2149.2999999970198,True,HRV,HRV_0009,2022-11-30 17:40:21
53,"[{'imgObject': {}, 'id': 'avocado', 'src': '/static/foodstim60/avocado.jpg', 'key': 'NaN', 'origWidth': 409, 'origHeight': 409, 'width': 374.40000000000003, 'height': 374.40000000000003, 'widthPercent': 0.8, 'rescaleHeight': True, 'trialN': 53, 'loaded': True, 'loadedTime': 3135.5999999940395, 'positionName': 'CENTER', 'positionCoords': [437.5, 101]}]",Rate how much you want to eat this food from 0 (least) to 10 (most).,140925.79999999702,1669830002155,avocado,2565.3999999910593,True,4.51,143491.19999998808,2565.3999999910593,True,HRV,HRV_0009,2022-11-30 17:40:21
54,"[{'imgObject': {}, 'id': 'blackbeanswithrice', 'src': '/static/foodstim60/blackbeanswithrice.jpg', 'key': 'NaN', 'origWidth': 410, 'origHeight': 410, 'width': 374.40000000000003, 'height': 374.40000000000003, 'widthPercent': 0.8, 'rescaleHeight': True, 'trialN': 54, 'loaded': True, 'loadedTime': 3160.0999999940395, 'positionName': 'CENTER', 'positionCoords': [437.5, 101]}]",Rate how much you want to eat this food from 0 (least) to 10 (most).,143494.0,1669830004723,blackbeanswithrice,2317.0999999940395,True,6.54,145811.09999999404,2317.0999999940395,True,HRV,HRV_0009,2022-11-30 17:40:21
55,"[{'imgObject': {}, 'id': 'mango', 'src': '/static/foodstim60/mango.jpg', 'key': 'NaN', 'origWidth': 411, 'origHeight': 411, 'width': 374.40000000000003, 'height': 374.40000000000003, 'widthPercent': 0.8, 'rescaleHeight': True, 'trialN': 55, 'loaded': True, 'loadedTime': 3162.0999999940395, 'positionName': 'CENTER', 'positionCoords': [437.5, 101]}]",Rate how much you want to eat this food from 0 (least) to 10 (most).,145814.0,1669830007043,mango,3221.199999988079,True,1.59,149035.19999998808,3221.199999988079,True,HRV,HRV_0009,2022-11-30 17:40:21
56,"[{'imgObject': {}, 'id': 'cantaloupe', 'src': '/static/foodstim60/cantaloupe.jpg', 'key': 'NaN', 'origWidth': 409, 'origHeight': 409, 'width': 374.40000000000003, 'height': 374.40000000000003, 'widthPercent': 0.8, 'rescaleHeight': True, 'trialN': 56, 'loaded': True, 'loadedTime': 3166, 'positionName': 'CENTER', 'positionCoords': [437.5, 101]}]",Rate how much you want to eat this food from 0 (least) to 10 (most).,149038.09999999404,1669830010266,cantaloupe,2581.0999999940395,True,3.0300000000000002,151619.19999998808,2581.0999999940395,True,HRV,HRV_0009,2022-11-30 17:40:21
57,"[{'imgObject': {}, 'id': 'cocktailshrimp', 'src': '/static/foodstim60/cocktailshrimp.jpg', 'key': 'NaN', 'origWidth': 410, 'origHeight': 410, 'width': 374.40000000000003, 'height': 374.40000000000003, 'widthPercent': 0.8, 'rescaleHeight': True, 'trialN': 57, 'loaded': True, 'loadedTime': 3220.199999988079, 'positionName': 'CENTER', 'positionCoords': [437.5, 101]}]",Rate how much you want to eat this food from 0 (least) to 10 (most).,151622.29999999702,1669830012851,cocktailshrimp,2076.8999999910593,True,8.48,153699.19999998808,2076.8999999910593,True,HRV,HRV_0009,2022-11-30 17:40:21
58,"[{'imgObject': {}, 'id': 'baked potato', 'src': '/static/foodstim60/baked potato.jpg', 'key': 'NaN', 'origWidth': 409, 'origHeight': 410, 'width': 373.48682926829264, 'height': 374.40000000000003, 'widthPercent': 0.8, 'rescaleHeight': True, 'trialN': 58, 'loaded': True, 'loadedTime': 3275.199999988079, 'positionName': 'CENTER', 'positionCoords': [438, 101]}]",Rate how much you want to eat this food from 0 (least) to 10 (most).,153703.69999998808,1669830014932,baked potato,2883.5,True,5.88,156587.19999998808,2883.5,True,HRV,HRV_0009,2022-11-30 17:40:21
59,"[{'imgObject': {}, 'id': 'fried eggs', 'src': '/static/foodstim60/fried eggs.jpg', 'key': 'NaN', 'origWidth': 410, 'origHeight': 410, 'width': 374.40000000000003, 'height': 374.40000000000003, 'widthPercent': 0.8, 'rescaleHeight': True, 'trialN': 59, 'loaded': True, 'loadedTime': 3288.5, 'positionName': 'CENTER', 'positionCoords': [437.5, 101]}]",Rate how much you want to eat this food from 0 (least) to 10 (most).,156590.5,1669830017819,fried eggs,1948.699999988079,True,9.47,158539.19999998808,1948.699999988079,True,HRV,HRV_0009,2022-11-30 17:40:21
