success,trial_type,trial_index,time_elapsed,internal_node_id,Block,TrialNumber,TrialTime,trialTimeDiff,FPS_avg,FPS_med,FPS_mode,TrialDur,winResizeTime,rt,block,button_pressed,MotCoh,MotDir,ColCoh,Color,ChoiceKey,Choice,Accuracy,RT,nFrames,FPS,PPD,missTrial,missTrialMsg,onsetDelay,fullScreenExitTime,canvCenter,TrialType,Score,BlockTrial,stimulus,button_labels,exp,subjectId,date
True,fullscreen,0,2659,0.0-0.0,0.0,1.0,,,,,,,,,,,,,,,,,,,,,,,,,,,,,,,,HRV,HRV_0009,2022-11-30 18:01:17
,wl-check-fps,1,7659,0.0-1.0,0.0,2.0,"[3061.8, 3068.1, 3073.6, 3091.3, 3108.1, 3124.6, 3141.2, 3158, 3174.7, 3191.3, 3207.9, 3224.8, 3241.5, 3258, 3274.8, 3291.3, 3308, 3324.8, 3341.2, 3357.9, 3374.8, 3391.2, 3407.9, 3424.4, 3441.2, 3457.8, 3474.5, 3491.1, 3507.8, 3524.6, 3541, 3557.6, 3574.4, 3591.5, 3608.6, 3624.3, 3641.4, 3658.5, 3674.3, 3692.3, 3709.2, 3725.2, 3742.4, 3758.6, 3778.4, 3794.8, 3813.6, 3825.1, 3841.7, 3857.8, 3874.5, 3894.2, 3907.9, 3928.3, 3954.2, 3966.7, 3974.9, 3991.5, 4008.1, 4024.6, 4041, 4058.5, 4074.1, 4090.8, 4107.8, 4124.5, 4140.7, 4157.8, 4174.1, 4190.8, 4207.7, 4224.1, 4240.4, 4257.5, 4274, 4290.8, 4307.7, 4323.9, 4340.7, 4357.5, 4374, 4390.5, 4407.7, 4424, 4440.7, 4457.6, 4474, 4490.7, 4507.5, 4523.8, 4540.6, 4557.2, 4573.8, 4590.6, 4607.4, 4624, 4640.8, 4659.5, 4673.8, 4690.5, 4707.4, 4723.9, 4740.4, 4757, 4777.6, 4793.7, 4813.1, 4824.1, 4841.8, 4857.4, 4873.9, 4890.6, 4910.7, 4951.4, 4959.8, 4965.1, 4974.7, 4992.4, 5010.6, 5023, 5040.3, 5057.1, 5074.3, 5089.5, 5107.9, 5123.4, 5141, 5158.1, 5172.7, 5189.9, 5207.9, 5223.4, 5239.3, 5258.2, 5272.7, 5290.2, 5306.8, 5324.1, 5339.2, 5356.9, 5374.2, 5389.8, 5408, 5425.2, 5439.5, 5459.2, 5473.3, 5489.6, 5509.9, 5524.1, 5539.8, 5558, 5573.4, 5589.1, 5608.1, 5623.3, 5639.3, 5657.9, 5674.5, 5689.1, 5707.9, 5723.8, 5739.1, 5759.9, 5778.1, 5794.1, 5806.6, 5822.2, 5839.4, 5857.8, 5872.4, 5891.1, 5908.1, 5924.9, 5963.3, 5968.5, 5978.4, 5992.4, 6007.7, 6022.5, 6039.9, 6057.6, 6072.9, 6089.7, 6108, 6122, 6139.5, 6157.9, 6173.9, 6189.4, 6207.7, 6222.9, 6238.8, 6255.7, 6272.2, 6288.7, 6305.8, 6322.3, 6338.7, 6357.5, 6371.9, 6389.1, 6407.2, 6423.7, 6439, 6457.6, 6472.9, 6488.5, 6505.7, 6523.4, 6538.7, 6556, 6572.5, 6590.4, 6606, 6622.6, 6640, 6655.2, 6672.6, 6688.6, 6706.1, 6722.6, 6738.7, 6756, 6777.2, 6793.3, 6807.6, 6823.3, 6840.8, 6856.7, 6879.5, 6891.3, 6907.3, 6922.6, 6943.5, 6960.5, 6977.5, 6988.5, 7007.5, 7021.9, 7039.3, 7057.5, 7071.5, 7088.9, 7107.4, 7123.8, 7138.7, 7155.8, 7172.4, 7188.2, 7205.3, 7223.1, 7238.2, 7255.5, 7273, 7288.3, 7307.6, 7323.3, 7338.8, 7356.7, 7373.2, 7389, 7404.8, 7423.1, 7438.4, 7455.6, 7473.1, 7488.1, 7507.1, 7522.2, 7538, 7555.4, 7572.9, 7588.9, 7604.7, 7623, 7639.6, 7657.1, 7673, 7689.6, 7704.7, 7723.8, 7738.6, 7756.4, 7778.7, 7794.3, 7804.8, 7821.3, 7840.6, 7865.4, 7874.3, 7890.3, 7906.9, 7923.5, 7943, 7965.5, 7977.7, 7991.7, 8007.6, 8024.5]","[8.5, 6.3, 5.5, 17.7, 16.8, 16.5, 16.6, 16.8, 16.7, 16.6, 16.6, 16.9, 16.7, 16.5, 16.8, 16.5, 16.7, 16.8, 16.4, 16.7, 16.9, 16.4, 16.7, 16.5, 16.8, 16.6, 16.7, 16.6, 16.7, 16.8, 16.4, 16.6, 16.8, 17.1, 17.1, 15.7, 17.1, 17.1, 15.8, 18, 16.9, 16, 17.2, 16.2, 19.8, 16.4, 18.8, 11.5, 16.6, 16.1, 16.7, 19.7, 13.7, 20.4, 25.9, 12.5, 8.2, 16.6, 16.6, 16.5, 16.4, 17.5, 15.6, 16.7, 17, 16.7, 16.2, 17.1, 16.3, 16.7, 16.9, 16.4, 16.3, 17.1, 16.5, 16.8, 16.9, 16.2, 16.8, 16.8, 16.5, 16.5, 17.2, 16.3, 16.7, 16.9, 16.4, 16.7, 16.8, 16.3, 16.8, 16.6, 16.6, 16.8, 16.8, 16.6, 16.8, 18.7, 14.3, 16.7, 16.9, 16.5, 16.5, 16.6, 20.6, 16.1, 19.4, 11, 17.7, 15.6, 16.5, 16.7, 20.1, 40.7, 8.4, 5.3, 9.6, 17.7, 18.2, 12.4, 17.3, 16.8, 17.2, 15.2, 18.4, 15.5, 17.6, 17.1, 14.6, 17.2, 18, 15.5, 15.9, 18.9, 14.5, 17.5, 16.6, 17.3, 15.1, 17.7, 17.3, 15.6, 18.2, 17.2, 14.3, 19.7, 14.1, 16.3, 20.3, 14.2, 15.7, 18.2, 15.4, 15.7, 19, 15.2, 16, 18.6, 16.6, 14.6, 18.8, 15.9, 15.3, 20.8, 18.2, 16, 12.5, 15.6, 17.2, 18.4, 14.6, 18.7, 17, 16.8, 38.4, 5.2, 9.9, 14, 15.3, 14.8, 17.4, 17.7, 15.3, 16.8, 18.3, 14, 17.5, 18.4, 16, 15.5, 18.3, 15.2, 15.9, 16.9, 16.5, 16.5, 17.1, 16.5, 16.4, 18.8, 14.4, 17.2, 18.1, 16.5, 15.3, 18.6, 15.3, 15.6, 17.2, 17.7, 15.3, 17.3, 16.5, 17.9, 15.6, 16.6, 17.4, 15.2, 17.4, 16, 17.5, 16.5, 16.1, 17.3, 21.2, 16.1, 14.3, 15.7, 17.5, 15.9, 22.8, 11.8, 16, 15.3, 20.9, 17, 17, 11, 19, 14.4, 17.4, 18.2, 14, 17.4, 18.5, 16.4, 14.9, 17.1, 16.6, 15.8, 17.1, 17.8, 15.1, 17.3, 17.5, 15.3, 19.3, 15.7, 15.5, 17.9, 16.5, 15.8, 15.8, 18.3, 15.3, 17.2, 17.5, 15, 19, 15.1, 15.8, 17.4, 17.5, 16, 15.8, 18.3, 16.6, 17.5, 15.9, 16.6, 15.1, 19.1, 14.8, 17.8, 22.3, 15.6, 10.5, 16.5, 19.3, 24.8, 8.9, 16, 16.6, 16.6, 19.5, 22.5, 12.2, 14, 15.9, 16.9]",60.0,67.0,60.0,4991.2,[],,,,,,,,,,,,,,,,,,,,,,,,,HRV,HRV_0009,2022-11-30 18:01:17
,wl-html-keyboard-response,2,19870,0.0-2.0-0.0,0.0,3.0,,,,,,,,10179.79999999702,0.0,0,,,,,,,,,,,,,,,,,,,,,,HRV,HRV_0009,2022-11-30 18:01:17
,wl-rdm,3,26903,0.0-3.0-0.0,0.0,4.0,,,,,,,[],,,,0.0,0.0,87.9,0.0,u,0.0,True,1387.9000000059605,84.0,60.0,40.0,False,,3000.0,[],"[624.5, 288]",ColorTask_Demo,,,,,HRV,HRV_0009,2022-11-30 18:01:17
,wl-rdm,4,31567,0.0-3.0-1.0,0.0,5.0,,,,,,,[],,,,0.0,0.0,87.9,1.0,i,1.0,True,571.7999999970198,35.0,60.0,40.0,False,,2000.0,[],"[624.5, 288]",ColorTask_Demo,,,,,HRV,HRV_0009,2022-11-30 18:01:17
,wl-html-keyboard-response,5,37804,0.0-3.0-2.0,0.0,6.0,,,,,,,,4232.4000000059605,0.0,1,,,,,,,,,,,,,,,,,,,,,,HRV,HRV_0009,2022-11-30 18:01:17
,wl-html-keyboard-response,6,45109,0.0-4.0-0.0,0.0,7.0,,,,,,,,5301.100000008941,0.0,0,,,,,,,,,,,,,,,,,,,,,,HRV,HRV_0009,2022-11-30 18:01:17
,wl-html-keyboard-response,7,55236,0.0-5.0-0.0,0.0,8.0,,,,,,,,8116.79999999702,0.0,0,,,,,,,,,,,,,,,,,,,,,,HRV,HRV_0009,2022-11-30 18:01:17
,wl-rdm,8,57673,0.0-6.0-0.0,0.0,9.0,,,,,,,[],,,,,,87.9,1.0,i,1.0,True,1149.8999999910593,70.0,60.0,40.0,False,,217.77528003182746,[],"[624.5, 288]",ColorTask,1.0,1.0,,,HRV,HRV_0009,2022-11-30 18:01:17
,wl-rdm,9,60452,0.0-6.1-0.1,0.0,10.0,,,,,,,[],,,,,,53.2,1.0,u,0.0,False,1448.7000000029802,87.0,60.0,40.0,False,,265.92306385694417,[],"[624.5, 288]",ColorTask,0.0,2.0,,,HRV,HRV_0009,2022-11-30 18:01:17
,wl-rdm,10,62600,0.0-6.2-0.2,0.0,11.0,,,,,,,[],,,,,,73.6,0.0,u,0.0,True,814.4000000059605,48.0,60.0,40.0,False,,249.0058536909183,[],"[624.5, 288]",ColorTask,1.0,3.0,,,HRV,HRV_0009,2022-11-30 18:01:17
,wl-rdm,11,64932,0.0-6.3-0.3,0.0,12.0,,,,,,,[],,,,,,50.0,1.0,u,0.0,False,1020.2999999970198,62.0,60.0,40.0,False,,229.59114855743735,[],"[624.5, 288]",ColorTask,0.0,4.0,,,HRV,HRV_0009,2022-11-30 18:01:17
,wl-rdm,12,67165,0.0-6.4-0.4,0.0,13.0,,,,,,,[],,,,,,73.6,1.0,i,1.0,True,849.5999999791384,51.0,60.0,40.0,False,,311.89145989398827,[],"[624.5, 288]",ColorTask,1.0,5.0,,,HRV,HRV_0009,2022-11-30 18:01:17
,wl-rdm,13,69317,0.0-6.5-0.5,0.0,14.0,,,,,,,[],,,,,,87.9,0.0,u,0.0,True,731.7000000029802,45.0,60.0,40.0,False,,338.78351658841234,[],"[624.5, 288]",ColorTask,2.0,6.0,,,HRV,HRV_0009,2022-11-30 18:01:17
,wl-rdm,14,71611,0.0-6.6-0.6,0.0,15.0,,,,,,,[],,,,,,53.2,1.0,i,1.0,True,1015.0,59.0,60.0,40.0,False,,205.93304831901457,[],"[624.5, 288]",ColorTask,3.0,7.0,,,HRV,HRV_0009,2022-11-30 18:01:17
,wl-rdm,15,74046,0.0-6.7-0.7,0.0,16.0,,,,,,,[],,,,,,73.6,0.0,u,0.0,True,1107.5999999940395,67.0,60.0,40.0,False,,247.3783418541163,[],"[624.5, 288]",ColorTask,4.0,8.0,,,HRV,HRV_0009,2022-11-30 18:01:17
,wl-rdm,16,76494,0.0-6.8-0.8,0.0,17.0,,,,,,,[],,,,,,73.6,0.0,u,0.0,True,1129.8999999910593,68.0,60.0,40.0,False,,240.70065110781275,[],"[624.5, 288]",ColorTask,5.0,9.0,,,HRV,HRV_0009,2022-11-30 18:01:17
,wl-rdm,17,79008,0.0-6.9-0.9,0.0,18.0,,,,,,,[],,,,,,50.0,0.0,u,0.0,True,1208.7999999970198,66.0,60.0,40.0,False,,238.07128015915833,[],"[624.5, 288]",ColorTask,6.0,10.0,,,HRV,HRV_0009,2022-11-30 18:01:17
,wl-rdm,18,81640,0.0-6.10-0.10,0.0,19.0,,,,,,,[],,,,,,53.2,1.0,i,1.0,True,1318.7000000029802,78.0,60.0,40.0,False,,213.71475725253094,[],"[624.5, 288]",ColorTask,7.0,11.0,,,HRV,HRV_0009,2022-11-30 18:01:17
,wl-rdm,19,84160,0.0-6.11-0.11,0.0,20.0,,,,,,,[],,,,,,62.5,1.0,i,1.0,True,1210.7999999970198,70.0,60.0,40.0,False,,224.90865441350985,[],"[624.5, 288]",ColorTask,8.0,12.0,,,HRV,HRV_0009,2022-11-30 18:01:17
,wl-rdm,20,86655,0.0-6.12-0.12,0.0,21.0,,,,,,,[],,,,,,73.6,1.0,i,1.0,True,1177.199999988079,66.0,60.0,40.0,False,,235.9581570957959,[],"[624.5, 288]",ColorTask,9.0,13.0,,,HRV,HRV_0009,2022-11-30 18:01:17
,wl-rdm,21,89487,0.0-6.13-0.13,0.0,22.0,,,,,,,[],,,,,,53.2,1.0,u,0.0,False,1550.7999999970198,81.0,60.0,40.0,False,,200.92565370193338,[],"[624.5, 288]",ColorTask,8.0,14.0,,,HRV,HRV_0009,2022-11-30 18:01:17
,wl-rdm,22,91889,0.0-6.14-0.14,0.0,23.0,,,,,,,[],,,,,,62.5,1.0,i,1.0,True,1032.0999999940395,55.0,60.0,40.0,False,,280.84828553101363,[],"[624.5, 288]",ColorTask,9.0,15.0,,,HRV,HRV_0009,2022-11-30 18:01:17
,wl-rdm,23,94518,0.0-6.15-0.15,0.0,24.0,,,,,,,[],,,,,,56.4,1.0,i,1.0,True,1253.7000000029802,69.0,60.0,40.0,False,,283.70357798587014,[],"[624.5, 288]",ColorTask,10.0,16.0,,,HRV,HRV_0009,2022-11-30 18:01:17
,wl-rdm,24,97122,0.0-6.16-0.16,0.0,25.0,,,,,,,[],,,,,,53.2,0.0,u,0.0,True,1298.4000000059605,76.0,60.0,40.0,False,,233.85850381808973,[],"[624.5, 288]",ColorTask,11.0,17.0,,,HRV,HRV_0009,2022-11-30 18:01:17
,wl-rdm,25,99811,0.0-6.17-0.17,0.0,26.0,,,,,,,[],,,,,,53.2,1.0,i,1.0,True,1402.5999999940395,81.0,60.0,40.0,False,,218.29863240332813,[],"[624.5, 288]",ColorTask,12.0,18.0,,,HRV,HRV_0009,2022-11-30 18:01:17
,wl-rdm,26,102285,0.0-6.18-0.18,0.0,27.0,,,,,,,[],,,,,,62.5,0.0,u,0.0,True,1078.6000000089407,64.0,60.0,40.0,False,,314.5502767069778,[],"[624.5, 288]",ColorTask,13.0,19.0,,,HRV,HRV_0009,2022-11-30 18:01:17
,wl-rdm,27,105361,0.0-6.19-0.19,0.0,28.0,,,,,,,[],,,,,,56.4,0.0,u,0.0,True,1770.7999999970198,105.0,60.0,40.0,False,,239.0206713955885,[],"[624.5, 288]",ColorTask,14.0,20.0,,,HRV,HRV_0009,2022-11-30 18:01:17
,wl-rdm,28,108143,0.0-6.20-0.20,0.0,29.0,,,,,,,[],,,,,,73.6,1.0,i,1.0,True,1309.699999988079,78.0,60.0,40.0,False,,370.6862505734474,[],"[624.5, 288]",ColorTask,15.0,21.0,,,HRV,HRV_0009,2022-11-30 18:01:17
,wl-rdm,29,111089,0.0-6.21-0.21,0.0,30.0,,,,,,,[],,,,,,56.4,1.0,i,1.0,True,1636.8999999910593,98.0,60.0,40.0,False,,228.52355096108874,[],"[624.5, 288]",ColorTask,16.0,22.0,,,HRV,HRV_0009,2022-11-30 18:01:17
,wl-rdm,30,113609,0.0-6.22-0.22,0.0,31.0,,,,,,,[],,,,,,73.6,1.0,i,1.0,True,1239.300000011921,75.0,60.0,40.0,False,,217.20499856019484,[],"[624.5, 288]",ColorTask,17.0,23.0,,,HRV,HRV_0009,2022-11-30 18:01:17
,wl-rdm,31,116270,0.0-6.23-0.23,0.0,32.0,,,,,,,[],,,,,,73.6,0.0,u,0.0,True,1256.5,75.0,60.0,40.0,False,,303.23817189101817,[],"[624.5, 288]",ColorTask,18.0,24.0,,,HRV,HRV_0009,2022-11-30 18:01:17
,wl-rdm,32,118991,0.0-6.24-0.24,0.0,33.0,,,,,,,[],,,,,,56.4,0.0,u,0.0,True,1418.699999988079,85.0,60.0,40.0,False,,211.4488515628503,[],"[624.5, 288]",ColorTask,19.0,25.0,,,HRV,HRV_0009,2022-11-30 18:01:17
,wl-rdm,33,122368,0.0-6.25-0.25,0.0,34.0,,,,,,,[],,,,,,53.2,0.0,i,1.0,False,2092.499999985099,126.0,60.0,40.0,False,,227.34977166393833,[],"[624.5, 288]",ColorTask,18.0,26.0,,,HRV,HRV_0009,2022-11-30 18:01:17
,wl-rdm,34,125052,0.0-6.26-0.26,0.0,35.0,,,,,,,[],,,,,,87.9,0.0,u,0.0,True,1391.2000000178814,83.0,60.0,40.0,False,,231.8018761740243,[],"[624.5, 288]",ColorTask,19.0,27.0,,,HRV,HRV_0009,2022-11-30 18:01:17
,wl-rdm,35,128100,0.0-6.27-0.27,0.0,36.0,,,,,,,[],,,,,,53.2,0.0,u,0.0,True,1616.7000000029802,94.0,60.0,40.0,False,,354.9384627617229,[],"[624.5, 288]",ColorTask,20.0,28.0,,,HRV,HRV_0009,2022-11-30 18:01:17
,wl-rdm,36,131549,0.0-6.28-0.28,0.0,37.0,,,,,,,[],,,,,,73.6,1.0,i,1.0,True,2024.8999999910593,115.0,60.0,40.0,False,,334.4130322301142,[],"[624.5, 288]",ColorTask,21.0,29.0,,,HRV,HRV_0009,2022-11-30 18:01:17
,wl-rdm,37,134047,0.0-6.29-0.29,0.0,38.0,,,,,,,[],,,,,,73.6,0.0,u,0.0,True,1079.0999999940395,64.0,60.0,40.0,False,,342.3357170954679,[],"[624.5, 288]",ColorTask,22.0,30.0,,,HRV,HRV_0009,2022-11-30 18:01:17
,wl-rdm,38,136579,0.0-6.30-0.30,0.0,39.0,,,,,,,[],,,,,,87.9,0.0,u,0.0,True,1191.2000000029802,68.0,60.0,40.0,False,,260.2038187831665,[],"[624.5, 288]",ColorTask,23.0,31.0,,,HRV,HRV_0009,2022-11-30 18:01:17
,wl-rdm,39,139444,0.0-6.31-0.31,0.0,40.0,,,,,,,[],,,,,,62.5,0.0,u,0.0,True,1511.5,89.0,60.0,40.0,False,,283.3129238757833,[],"[624.5, 288]",ColorTask,24.0,32.0,,,HRV,HRV_0009,2022-11-30 18:01:17
,wl-rdm,40,142092,0.0-6.32-0.32,0.0,41.0,,,,,,,[],,,,,,87.9,0.0,u,0.0,True,1249.8999999910593,74.0,60.0,40.0,False,,330.4366924645211,[],"[624.5, 288]",ColorTask,25.0,33.0,,,HRV,HRV_0009,2022-11-30 18:01:17
,wl-rdm,41,145072,0.0-6.33-0.33,0.0,42.0,,,,,,,[],,,,,,50.0,0.0,u,0.0,True,1652.8999999910593,96.0,60.0,40.0,False,,258.02552867915733,[],"[624.5, 288]",ColorTask,26.0,34.0,,,HRV,HRV_0009,2022-11-30 18:01:17
,wl-rdm,42,147770,0.0-6.34-0.34,0.0,43.0,,,,,,,[],,,,,,73.6,0.0,u,0.0,True,1412.4000000059605,85.0,60.0,40.0,False,,207.58506346634894,[],"[624.5, 288]",ColorTask,27.0,35.0,,,HRV,HRV_0009,2022-11-30 18:01:17
,wl-rdm,43,150520,0.0-6.35-0.35,0.0,44.0,,,,,,,[],,,,,,50.0,0.0,u,0.0,True,1281.5999999940395,75.0,60.0,40.0,False,,384.5592780777718,[],"[624.5, 288]",ColorTask,28.0,36.0,,,HRV,HRV_0009,2022-11-30 18:01:17
,wl-rdm,44,153458,0.0-6.36-0.36,0.0,45.0,,,,,,,[],,,,,,62.5,0.0,u,0.0,True,1558.8999999910593,94.0,60.0,40.0,False,,311.0042598520551,[],"[624.5, 288]",ColorTask,29.0,37.0,,,HRV,HRV_0009,2022-11-30 18:01:17
,wl-rdm,45,155868,0.0-6.37-0.37,0.0,46.0,,,,,,,[],,,,,,87.9,0.0,u,0.0,True,1011.0999999940395,59.0,60.0,40.0,False,,321.7793387267568,[],"[624.5, 288]",ColorTask,30.0,38.0,,,HRV,HRV_0009,2022-11-30 18:01:17
,wl-rdm,46,158034,0.0-6.38-0.38,0.0,47.0,,,,,,,[],,,,,,87.9,1.0,i,1.0,True,783.7999999970198,46.0,60.0,40.0,False,,296.4469126654898,[],"[624.5, 288]",ColorTask,31.0,39.0,,,HRV,HRV_0009,2022-11-30 18:01:17
,wl-rdm,47,160081,0.0-6.39-0.39,0.0,48.0,,,,,,,[],,,,,,87.9,1.0,i,1.0,True,636.7000000178814,36.0,60.0,40.0,False,,335.5768620732383,[],"[624.5, 288]",ColorTask,32.0,40.0,,,HRV,HRV_0009,2022-11-30 18:01:17
,wl-rdm,48,162165,0.0-6.40-0.40,0.0,49.0,,,,,,,[],,,,,,87.9,1.0,i,1.0,True,720.6999999880791,39.0,60.0,40.0,False,,300.12666225995406,[],"[624.5, 288]",ColorTask,33.0,41.0,,,HRV,HRV_0009,2022-11-30 18:01:17
,wl-rdm,49,164664,0.0-6.41-0.41,0.0,50.0,,,,,,,[],,,,,,56.4,1.0,i,1.0,True,1052.699999988079,61.0,60.0,40.0,False,,367.8326053139297,[],"[624.5, 288]",ColorTask,34.0,42.0,,,HRV,HRV_0009,2022-11-30 18:01:17
,wl-rdm,50,167062,0.0-6.42-0.42,0.0,51.0,,,,,,,[],,,,,,56.4,0.0,u,0.0,True,973.7000000029802,56.0,60.0,40.0,False,,352.5238322257763,[],"[624.5, 288]",ColorTask,35.0,43.0,,,HRV,HRV_0009,2022-11-30 18:01:17
,wl-rdm,51,169561,0.0-6.43-0.43,0.0,52.0,,,,,,,[],,,,,,62.5,1.0,i,1.0,True,1125.4999999850988,66.0,60.0,40.0,False,,307.1458392093818,[],"[624.5, 288]",ColorTask,36.0,44.0,,,HRV,HRV_0009,2022-11-30 18:01:17
,wl-rdm,52,172543,0.0-6.44-0.44,0.0,53.0,,,,,,,[],,,,,,50.0,0.0,u,0.0,True,1584.4999999850988,85.0,60.0,40.0,False,,338.2075049477692,[],"[624.5, 288]",ColorTask,37.0,45.0,,,HRV,HRV_0009,2022-11-30 18:01:17
,wl-rdm,53,174875,0.0-6.45-0.45,0.0,54.0,,,,,,,[],,,,,,50.0,0.0,i,1.0,False,919.5999999940395,48.0,60.0,40.0,False,,336.40889752542296,[],"[624.5, 288]",ColorTask,36.0,46.0,,,HRV,HRV_0009,2022-11-30 18:01:17
,wl-rdm,54,177205,0.0-6.46-0.46,0.0,55.0,,,,,,,[],,,,,,56.4,0.0,u,0.0,True,1054.5999999940395,55.0,60.0,40.0,False,,207.63482029845227,[],"[624.5, 288]",ColorTask,37.0,47.0,,,HRV,HRV_0009,2022-11-30 18:01:17
,wl-rdm,55,179806,0.0-6.47-0.47,0.0,56.0,,,,,,,[],,,,,,62.5,0.0,u,0.0,True,1188.6000000089407,67.0,60.0,40.0,False,,339.28321628328666,[],"[624.5, 288]",ColorTask,38.0,48.0,,,HRV,HRV_0009,2022-11-30 18:01:17
,wl-rdm,56,182321,0.0-6.48-0.48,0.0,57.0,,,,,,,[],,,,,,53.2,1.0,u,0.0,False,1199.4000000059605,65.0,60.0,40.0,False,,208.7066508523834,[],"[624.5, 288]",ColorTask,37.0,49.0,,,HRV,HRV_0009,2022-11-30 18:01:17
,wl-rdm,57,184653,0.0-6.49-0.49,0.0,58.0,,,,,,,[],,,,,,62.5,1.0,i,1.0,True,918.6999999880791,52.0,60.0,40.0,False,,349.87085949677754,[],"[624.5, 288]",ColorTask,38.0,50.0,,,HRV,HRV_0009,2022-11-30 18:01:17
,wl-rdm,58,187135,0.0-6.50-0.50,0.0,59.0,,,,,,,[],,,,,,56.4,0.0,u,0.0,True,1188.2000000178814,66.0,60.0,40.0,False,,228.35058833526097,[],"[624.5, 288]",ColorTask,39.0,51.0,,,HRV,HRV_0009,2022-11-30 18:01:17
,wl-rdm,59,189529,0.0-6.51-0.51,0.0,60.0,,,,,,,[],,,,,,73.6,1.0,i,1.0,True,948.9000000059605,55.0,60.0,40.0,False,,384.15976034357345,[],"[624.5, 288]",ColorTask,40.0,52.0,,,HRV,HRV_0009,2022-11-30 18:01:17
,wl-rdm,60,191893,0.0-6.52-0.52,0.0,61.0,,,,,,,[],,,,,,53.2,0.0,u,0.0,True,1058.4000000059605,62.0,60.0,40.0,False,,230.65438604480573,[],"[624.5, 288]",ColorTask,41.0,53.0,,,HRV,HRV_0009,2022-11-30 18:01:17
,wl-rdm,61,193998,0.0-6.53-0.53,0.0,62.0,,,,,,,[],,,,,,73.6,0.0,u,0.0,True,786.6000000089407,46.0,60.0,40.0,False,,245.81011292792,[],"[624.5, 288]",ColorTask,42.0,54.0,,,HRV,HRV_0009,2022-11-30 18:01:17
,wl-rdm,62,196262,0.0-6.54-0.54,0.0,63.0,,,,,,,[],,,,,,73.6,1.0,i,1.0,True,916.2999999970198,54.0,60.0,40.0,False,,267.65098566657207,[],"[624.5, 288]",ColorTask,43.0,55.0,,,HRV,HRV_0009,2022-11-30 18:01:17
,wl-rdm,63,198362,0.0-6.55-0.55,0.0,64.0,,,,,,,[],,,,,,87.9,0.0,u,0.0,True,770.2999999970198,46.0,60.0,40.0,False,,247.8860430526944,[],"[624.5, 288]",ColorTask,44.0,56.0,,,HRV,HRV_0009,2022-11-30 18:01:17
,wl-rdm,64,200409,0.0-6.56-0.56,0.0,65.0,,,,,,,[],,,,,,87.9,1.0,i,1.0,True,704.2999999970198,40.0,60.0,40.0,False,,242.31117334379783,[],"[624.5, 288]",ColorTask,45.0,57.0,,,HRV,HRV_0009,2022-11-30 18:01:17
,wl-rdm,65,202477,0.0-6.57-0.57,0.0,66.0,,,,,,,[],,,,,,73.6,0.0,u,0.0,True,725.0,37.0,60.0,40.0,False,,281.35903479632884,[],"[624.5, 288]",ColorTask,46.0,58.0,,,HRV,HRV_0009,2022-11-30 18:01:17
,wl-rdm,66,204725,0.0-6.58-0.58,0.0,67.0,,,,,,,[],,,,,,87.9,0.0,u,0.0,True,825.3000000119209,41.0,60.0,40.0,False,,296.5820637315974,[],"[624.5, 288]",ColorTask,47.0,59.0,,,HRV,HRV_0009,2022-11-30 18:01:17
,wl-rdm,67,208649,0.0-6.59-0.59,0.0,68.0,,,,,,,[],,,,,,50.0,1.0,u,0.0,False,2488.5,133.0,60.0,40.0,False,,360.2414535870852,[],"[624.5, 288]",ColorTask,46.0,60.0,,,HRV,HRV_0009,2022-11-30 18:01:17
,wl-rdm,68,211360,0.0-6.60-0.60,0.0,69.0,,,,,,,[],,,,,,53.2,0.0,u,0.0,True,1361.5000000149012,72.0,60.0,40.0,False,,280.2139211793278,[],"[624.5, 288]",ColorTask,47.0,61.0,,,HRV,HRV_0009,2022-11-30 18:01:17
,wl-rdm,69,213338,0.0-6.61-0.61,0.0,70.0,,,,,,,[],,,,,,87.9,1.0,i,1.0,True,612.2000000029802,33.0,60.0,40.0,False,,293.16845463207665,[],"[624.5, 288]",ColorTask,48.0,62.0,,,HRV,HRV_0009,2022-11-30 18:01:17
,wl-rdm,70,216156,0.0-6.62-0.62,0.0,71.0,,,,,,,[],,,,,,50.0,1.0,i,1.0,True,1473.2000000029802,89.0,60.0,40.0,False,,277.2472109606526,[],"[624.5, 288]",ColorTask,49.0,63.0,,,HRV,HRV_0009,2022-11-30 18:01:17
,wl-rdm,71,219321,0.0-6.63-0.63,0.0,72.0,,,,,,,[],,,,,,56.4,0.0,i,1.0,False,1741.2999999970198,102.0,60.0,40.0,False,,337.3979624890867,[],"[624.5, 288]",ColorTask,48.0,64.0,,,HRV,HRV_0009,2022-11-30 18:01:17
,wl-rdm,72,221718,0.0-6.64-0.64,0.0,73.0,,,,,,,[],,,,,,50.0,1.0,u,0.0,False,1118.2000000029802,65.0,60.0,40.0,False,,226.4573648226057,[],"[624.5, 288]",ColorTask,47.0,65.0,,,HRV,HRV_0009,2022-11-30 18:01:17
,wl-rdm,73,224686,0.0-6.65-0.65,0.0,74.0,,,,,,,[],,,,,,56.4,1.0,i,1.0,True,1508.0999999940395,86.0,60.0,40.0,False,,368.2935961734164,[],"[624.5, 288]",ColorTask,48.0,66.0,,,HRV,HRV_0009,2022-11-30 18:01:17
,wl-rdm,74,226968,0.0-6.66-0.66,0.0,75.0,,,,,,,[],,,,,,87.9,0.0,u,0.0,True,854.8999999910593,50.0,60.0,40.0,False,,358.24948559670446,[],"[624.5, 288]",ColorTask,49.0,67.0,,,HRV,HRV_0009,2022-11-30 18:01:17
,wl-rdm,75,229279,0.0-6.67-0.67,0.0,76.0,,,,,,,[],,,,,,62.5,1.0,i,1.0,True,1002.3999999910593,58.0,60.0,40.0,False,,246.01077787202655,[],"[624.5, 288]",ColorTask,50.0,68.0,,,HRV,HRV_0009,2022-11-30 18:01:17
,wl-rdm,76,232327,0.0-6.68-0.68,0.0,77.0,,,,,,,[],,,,,,56.4,0.0,u,0.0,True,1700.300000011921,92.0,60.0,40.0,False,,275.0300605173588,[],"[624.5, 288]",ColorTask,51.0,69.0,,,HRV,HRV_0009,2022-11-30 18:01:17
,wl-rdm,77,235176,0.0-6.69-0.69,0.0,78.0,,,,,,,[],,,,,,53.2,1.0,i,1.0,True,1452.7000000029802,78.0,60.0,40.0,False,,319.49950613969867,[],"[624.5, 288]",ColorTask,52.0,70.0,,,HRV,HRV_0009,2022-11-30 18:01:17
,wl-rdm,78,238012,0.0-6.70-0.70,0.0,79.0,,,,,,,[],,,,,,50.0,0.0,i,1.0,False,1393.2999999970198,75.0,60.0,40.0,False,,357.064952331584,[],"[624.5, 288]",ColorTask,51.0,71.0,,,HRV,HRV_0009,2022-11-30 18:01:17
,wl-rdm,79,240531,0.0-6.71-0.71,0.0,80.0,,,,,,,[],,,,,,73.6,0.0,u,0.0,True,1164.2999999821186,65.0,60.0,40.0,False,,240.79672215885694,[],"[624.5, 288]",ColorTask,52.0,72.0,,,HRV,HRV_0009,2022-11-30 18:01:17
,wl-rdm,80,242827,0.0-6.72-0.72,0.0,81.0,,,,,,,[],,,,,,62.5,0.0,u,0.0,True,923.7000000178814,49.0,60.0,40.0,False,,287.28407956080946,[],"[624.5, 288]",ColorTask,53.0,73.0,,,HRV,HRV_0009,2022-11-30 18:01:17
,wl-rdm,81,245389,0.0-6.73-0.73,0.0,82.0,,,,,,,[],,,,,,62.5,1.0,i,1.0,True,1242.2999999970198,54.0,60.0,40.0,False,,234.9737376762976,[],"[624.5, 288]",ColorTask,54.0,74.0,,,HRV,HRV_0009,2022-11-30 18:01:17
,wl-rdm,82,248129,0.0-6.74-0.74,0.0,83.0,,,,,,,[],,,,,,62.5,1.0,i,1.0,True,1433.0999999940395,63.0,60.0,40.0,False,,230.58144799723854,[],"[624.5, 288]",ColorTask,55.0,75.0,,,HRV,HRV_0009,2022-11-30 18:01:17
,wl-rdm,83,251517,0.0-6.75-0.75,0.0,84.0,,,,,,,[],,,,,,56.4,1.0,i,1.0,True,1914.699999988079,77.0,60.0,40.0,False,,362.0194316411295,[],"[624.5, 288]",ColorTask,56.0,76.0,,,HRV,HRV_0009,2022-11-30 18:01:17
,wl-rdm,84,254227,0.0-6.76-0.76,0.0,85.0,,,,,,,[],,,,,,87.9,1.0,i,1.0,True,1277.2000000029802,54.0,60.0,40.0,False,,292.2028353028803,[],"[624.5, 288]",ColorTask,57.0,77.0,,,HRV,HRV_0009,2022-11-30 18:01:17
,wl-rdm,85,257887,0.0-6.77-0.77,0.0,86.0,,,,,,,[],,,,,,56.4,1.0,i,1.0,True,2273.7000000029802,99.0,60.0,40.0,False,,288.3011067688568,[],"[624.5, 288]",ColorTask,58.0,78.0,,,HRV,HRV_0009,2022-11-30 18:01:17
,wl-rdm,86,260747,0.0-6.78-0.78,0.0,87.0,,,,,,,[],,,,,,87.9,0.0,u,0.0,True,1458.1000000089407,77.0,60.0,40.0,False,,321.5680656026289,[],"[624.5, 288]",ColorTask,59.0,79.0,,,HRV,HRV_0009,2022-11-30 18:01:17
,wl-rdm,87,263778,0.0-6.79-0.79,0.0,88.0,,,,,,,[],,,,,,56.4,1.0,i,1.0,True,1716.3999999910593,90.0,60.0,40.0,False,,237.78969274859173,[],"[624.5, 288]",ColorTask,60.0,80.0,,,HRV,HRV_0009,2022-11-30 18:01:17
,wl-rdm,88,266739,0.0-6.80-0.80,0.0,89.0,,,,,,,[],,,,,,50.0,1.0,u,0.0,False,1502.9999999850988,79.0,60.0,40.0,False,,372.976521666061,[],"[624.5, 288]",ColorTask,59.0,81.0,,,HRV,HRV_0009,2022-11-30 18:01:17
,wl-rdm,89,269309,0.0-6.81-0.81,0.0,90.0,,,,,,,[],,,,,,73.6,1.0,i,1.0,True,1219.4000000059605,67.0,60.0,40.0,False,,284.07840230453377,[],"[624.5, 288]",ColorTask,60.0,82.0,,,HRV,HRV_0009,2022-11-30 18:01:17
,wl-rdm,90,272357,0.0-6.82-0.82,0.0,91.0,,,,,,,[],,,,,,53.2,0.0,u,0.0,True,1771.9000000059605,96.0,60.0,40.0,False,,213.18768072944815,[],"[624.5, 288]",ColorTask,61.0,83.0,,,HRV,HRV_0009,2022-11-30 18:01:17
,wl-rdm,91,275174,0.0-6.83-0.83,0.0,92.0,,,,,,,[],,,,,,53.2,0.0,u,0.0,True,1404.800000011921,80.0,60.0,40.0,False,,335.8733916568302,[],"[624.5, 288]",ColorTask,62.0,84.0,,,HRV,HRV_0009,2022-11-30 18:01:17
,wl-rdm,92,278274,0.0-6.84-0.84,0.0,93.0,,,,,,,[],,,,,,50.0,0.0,i,1.0,False,1751.9000000059605,98.0,60.0,40.0,False,,267.9798481680956,[],"[624.5, 288]",ColorTask,61.0,85.0,,,HRV,HRV_0009,2022-11-30 18:01:17
,wl-rdm,93,281018,0.0-6.85-0.85,0.0,94.0,,,,,,,[],,,,,,56.4,0.0,u,0.0,True,1249.0,75.0,60.0,40.0,False,,344.89920410196385,[],"[624.5, 288]",ColorTask,62.0,86.0,,,HRV,HRV_0009,2022-11-30 18:01:17
,wl-rdm,94,283605,0.0-6.86-0.86,0.0,95.0,,,,,,,[],,,,,,62.5,1.0,i,1.0,True,1242.6000000089407,72.0,60.0,40.0,False,,268.927857120074,[],"[624.5, 288]",ColorTask,63.0,87.0,,,HRV,HRV_0009,2022-11-30 18:01:17
,wl-rdm,95,286999,0.0-6.87-0.87,0.0,96.0,,,,,,,[],,,,,,56.4,1.0,u,0.0,False,2021.2999999970198,120.0,60.0,40.0,False,,282.63745466783877,[],"[624.5, 288]",ColorTask,62.0,88.0,,,HRV,HRV_0009,2022-11-30 18:01:17
,wl-rdm,96,290498,0.0-6.88-0.88,0.0,97.0,,,,,,,[],,,,,,50.0,1.0,u,0.0,False,2171.7999999970198,123.0,60.0,40.0,False,,246.51956214767284,[],"[624.5, 288]",ColorTask,61.0,89.0,,,HRV,HRV_0009,2022-11-30 18:01:17
,wl-rdm,97,293429,0.0-6.89-0.89,0.0,98.0,,,,,,,[],,,,,,62.5,0.0,u,0.0,True,1645.199999988079,89.0,60.0,40.0,False,,212.87012267802515,[],"[624.5, 288]",ColorTask,62.0,90.0,,,HRV,HRV_0009,2022-11-30 18:01:17
,wl-rdm,98,296861,0.0-6.90-0.90,0.0,99.0,,,,,,,[],,,,,,50.0,1.0,i,1.0,True,2112.6000000089407,109.0,60.0,40.0,False,,248.1449465246792,[],"[624.5, 288]",ColorTask,63.0,91.0,,,HRV,HRV_0009,2022-11-30 18:01:17
,wl-rdm,99,301208,0.0-6.91-0.91,0.0,99.0,,,,,,,[],,,,,,56.4,0.0,u,,,3375.999999985099,165.0,60.0,40.0,True,RT_timeout ,265.25480253977923,[],"[624.5, 288]",ColorTask,62.0,92.0,,,HRV,HRV_0009,2022-11-30 18:01:17
,wl-rdm,100,304225,0.0-6.92-0.92,0.0,100.0,,,,,,,[],,,,,,56.4,1.0,i,1.0,True,1552.2000000029802,83.0,60.0,40.0,False,,386.31743112093466,[],"[624.5, 288]",ColorTask,63.0,93.0,,,HRV,HRV_0009,2022-11-30 18:01:17
,wl-rdm,101,306900,0.0-6.93-0.93,0.0,101.0,,,,,,,[],,,,,,62.5,0.0,u,0.0,True,1260.2000000029802,57.0,60.0,40.0,False,,224.2283535402866,[],"[624.5, 288]",ColorTask,64.0,94.0,,,HRV,HRV_0009,2022-11-30 18:01:17
,wl-rdm,102,309969,0.0-6.94-0.94,0.0,102.0,,,,,,,[],,,,,,50.0,1.0,i,1.0,True,1615.5999999940395,70.0,60.0,40.0,False,,394.0636833725541,[],"[624.5, 288]",ColorTask,65.0,95.0,,,HRV,HRV_0009,2022-11-30 18:01:17
,wl-rdm,103,312977,0.0-6.95-0.95,0.0,103.0,,,,,,,[],,,,,,50.0,1.0,u,0.0,False,1728.300000011921,72.0,60.0,40.0,False,,205.4428288968483,[],"[624.5, 288]",ColorTask,64.0,96.0,,,HRV,HRV_0009,2022-11-30 18:01:17
,wl-rdm,104,315785,0.0-6.96-0.96,0.0,104.0,,,,,,,[],,,,,,53.2,0.0,i,1.0,False,1344.9000000059605,61.0,60.0,40.0,False,,368.5358436846619,[],"[624.5, 288]",ColorTask,63.0,97.0,,,HRV,HRV_0009,2022-11-30 18:01:17
,wl-rdm,105,319065,0.0-6.97-0.97,0.0,105.0,,,,,,,[],,,,,,50.0,0.0,i,1.0,False,1872.0999999940395,79.0,60.0,40.0,False,,295.1561851859334,[],"[624.5, 288]",ColorTask,62.0,98.0,,,HRV,HRV_0009,2022-11-30 18:01:17
,wl-rdm,106,322080,0.0-6.98-0.98,0.0,106.0,,,,,,,[],,,,,,62.5,0.0,u,0.0,True,1556.6000000089407,84.0,60.0,40.0,False,,368.76968585799506,[],"[624.5, 288]",ColorTask,63.0,99.0,,,HRV,HRV_0009,2022-11-30 18:01:17
,wl-rdm,107,324511,0.0-6.99-0.99,0.0,107.0,,,,,,,[],,,,,,62.5,1.0,i,1.0,True,1069.7999999970198,58.0,60.0,40.0,False,,251.30146912531998,[],"[624.5, 288]",ColorTask,64.0,100.0,,,HRV,HRV_0009,2022-11-30 18:01:17
,wl-rdm,108,327544,0.0-6.100-0.100,0.0,108.0,,,,,,,[],,,,,,53.2,1.0,i,1.0,True,1695.8999999910593,89.0,60.0,40.0,False,,255.535205405061,[],"[624.5, 288]",ColorTask,65.0,101.0,,,HRV,HRV_0009,2022-11-30 18:01:17
,wl-rdm,109,330526,0.0-6.101-0.101,0.0,109.0,,,,,,,[],,,,,,53.2,0.0,u,0.0,True,1677.199999988079,89.0,60.0,40.0,False,,218.58177711760771,[],"[624.5, 288]",ColorTask,66.0,102.0,,,HRV,HRV_0009,2022-11-30 18:01:17
,wl-rdm,110,332976,0.0-6.102-0.102,0.0,110.0,,,,,,,[],,,,,,62.5,0.0,u,0.0,True,1125.5,61.0,60.0,40.0,False,,220.4565469673669,[],"[624.5, 288]",ColorTask,67.0,103.0,,,HRV,HRV_0009,2022-11-30 18:01:17
,wl-rdm,111,336606,0.0-6.103-0.103,0.0,111.0,,,,,,,[],,,,,,53.2,1.0,i,1.0,True,2200.2000000178814,99.0,60.0,40.0,False,,335.5146472988182,[],"[624.5, 288]",ColorTask,68.0,104.0,,,HRV,HRV_0009,2022-11-30 18:01:17
,wl-rdm,112,339254,0.0-6.104-0.104,0.0,112.0,,,,,,,[],,,,,,50.0,0.0,i,1.0,False,1338.199999988079,55.0,60.0,40.0,False,,219.1274435114209,[],"[624.5, 288]",ColorTask,67.0,105.0,,,HRV,HRV_0009,2022-11-30 18:01:17
,wl-rdm,113,342271,0.0-6.105-0.105,0.0,113.0,,,,,,,[],,,,,,73.6,1.0,i,1.0,True,1612.199999988079,69.0,60.0,40.0,False,,333.8110635125156,[],"[624.5, 288]",ColorTask,68.0,106.0,,,HRV,HRV_0009,2022-11-30 18:01:17
,wl-rdm,114,345447,0.0-6.106-0.106,0.0,114.0,,,,,,,[],,,,,,56.4,0.0,u,0.0,True,1793.1000000089407,70.0,60.0,40.0,False,,268.28225343086956,[],"[624.5, 288]",ColorTask,69.0,107.0,,,HRV,HRV_0009,2022-11-30 18:01:17
,wl-rdm,115,347923,0.0-6.107-0.107,0.0,115.0,,,,,,,[],,,,,,87.9,1.0,i,1.0,True,988.0,43.0,60.0,40.0,False,,362.002153727842,[],"[624.5, 288]",ColorTask,70.0,108.0,,,HRV,HRV_0009,2022-11-30 18:01:17
,wl-rdm,116,349928,0.0-6.108-0.108,0.0,116.0,,,,,,,[],,,,,,87.9,1.0,i,1.0,True,680.9000000059605,37.0,60.0,40.0,False,,203.6524924365201,[],"[624.5, 288]",ColorTask,71.0,109.0,,,HRV,HRV_0009,2022-11-30 18:01:17
,wl-html-keyboard-response,117,364899,0.0-7.0-0.0,1.0,117.0,,,,,,,,12962.59999999404,1.0,0,,,,,,,,,,,,,,,,,,,,,,HRV,HRV_0009,2022-11-30 18:01:17
,wl-rdm,118,366978,0.0-8.0-0.0,1.0,118.0,,,,,,,[],,,,,,87.9,0.0,u,0.0,True,695.1000000089407,42.0,60.0,40.0,False,,304.46910607660755,[],"[624.5, 288]",ColorTask,72.0,1.0,,,HRV,HRV_0009,2022-11-30 18:01:17
,wl-rdm,119,370070,0.0-8.1-0.1,1.0,119.0,,,,,,,[],,,,,,53.2,0.0,u,0.0,True,1760.0999999940395,105.0,60.0,40.0,False,,283.025459024549,[],"[624.5, 288]",ColorTask,73.0,2.0,,,HRV,HRV_0009,2022-11-30 18:01:17
,wl-rdm,120,373304,0.0-8.2-0.2,1.0,120.0,,,,,,,[],,,,,,56.4,1.0,i,1.0,True,1788.0000000149012,102.0,60.0,40.0,False,,375.22570850531724,[],"[624.5, 288]",ColorTask,74.0,3.0,,,HRV,HRV_0009,2022-11-30 18:01:17
,wl-rdm,121,375385,0.0-8.3-0.3,1.0,121.0,,,,,,,[],,,,,,87.9,0.0,u,0.0,True,750.7000000029802,46.0,60.0,40.0,False,,250.11751335193102,[],"[624.5, 288]",ColorTask,75.0,4.0,,,HRV,HRV_0009,2022-11-30 18:01:17
,wl-rdm,122,377800,0.0-8.4-0.4,1.0,122.0,,,,,,,[],,,,,,62.5,0.0,u,0.0,True,1086.7000000029802,63.0,60.0,40.0,False,,238.20749761647204,[],"[624.5, 288]",ColorTask,76.0,5.0,,,HRV,HRV_0009,2022-11-30 18:01:17
,wl-rdm,123,381432,0.0-8.5-0.5,1.0,123.0,,,,,,,[],,,,,,56.4,0.0,u,0.0,True,2203.1000000089407,116.0,60.0,40.0,False,,368.02692472891783,[],"[624.5, 288]",ColorTask,77.0,6.0,,,HRV,HRV_0009,2022-11-30 18:01:17
,wl-rdm,124,384702,0.0-8.6-0.6,1.0,124.0,,,,,,,[],,,,,,62.5,0.0,u,0.0,True,1901.5999999940395,104.0,60.0,40.0,False,,280.5693803806445,[],"[624.5, 288]",ColorTask,78.0,7.0,,,HRV,HRV_0009,2022-11-30 18:01:17
,wl-rdm,125,387333,0.0-8.7-0.7,1.0,125.0,,,,,,,[],,,,,,73.6,1.0,i,1.0,True,1318.6000000089407,67.0,60.0,40.0,False,,244.54803085071183,[],"[624.5, 288]",ColorTask,79.0,8.0,,,HRV,HRV_0009,2022-11-30 18:01:17
,wl-rdm,126,390296,0.0-8.8-0.8,1.0,126.0,,,,,,,[],,,,,,53.2,1.0,i,1.0,True,1652.4000000059605,91.0,60.0,40.0,False,,227.06103868051704,[],"[624.5, 288]",ColorTask,80.0,9.0,,,HRV,HRV_0009,2022-11-30 18:01:17
,wl-rdm,127,392476,0.0-8.9-0.9,1.0,127.0,,,,,,,[],,,,,,87.9,0.0,u,0.0,True,725.2000000029802,40.0,60.0,40.0,False,,370.6546440279725,[],"[624.5, 288]",ColorTask,81.0,10.0,,,HRV,HRV_0009,2022-11-30 18:01:17
,wl-rdm,128,395874,0.0-8.10-0.10,1.0,128.0,,,,,,,[],,,,,,53.2,1.0,u,0.0,False,2033.4000000059605,95.0,60.0,40.0,False,,284.8022293848304,[],"[624.5, 288]",ColorTask,80.0,11.0,,,HRV,HRV_0009,2022-11-30 18:01:17
,wl-rdm,129,399307,0.0-8.11-0.11,1.0,129.0,,,,,,,[],,,,,,50.0,1.0,u,0.0,False,1968.7999999970198,89.0,60.0,40.0,False,,324.27234095740675,[],"[624.5, 288]",ColorTask,79.0,12.0,,,HRV,HRV_0009,2022-11-30 18:01:17
,wl-rdm,130,402126,0.0-8.12-0.12,1.0,130.0,,,,,,,[],,,,,,50.0,0.0,u,0.0,True,1338.5,58.0,60.0,40.0,False,,375.72212583581376,[],"[624.5, 288]",ColorTask,80.0,13.0,,,HRV,HRV_0009,2022-11-30 18:01:17
,wl-rdm,131,404904,0.0-8.13-0.13,1.0,131.0,,,,,,,[],,,,,,56.4,0.0,u,0.0,True,1356.699999988079,59.0,60.0,40.0,False,,332.33294342368185,[],"[624.5, 288]",ColorTask,81.0,14.0,,,HRV,HRV_0009,2022-11-30 18:01:17
,wl-rdm,132,407829,0.0-8.14-0.14,1.0,132.0,,,,,,,[],,,,,,50.0,0.0,u,0.0,True,1415.5,62.0,60.0,40.0,False,,396.34775036447735,[],"[624.5, 288]",ColorTask,82.0,15.0,,,HRV,HRV_0009,2022-11-30 18:01:17
,wl-rdm,133,410159,0.0-8.15-0.15,1.0,133.0,,,,,,,[],,,,,,73.6,0.0,u,0.0,True,894.0,49.0,60.0,40.0,False,,344.5078853380926,[],"[624.5, 288]",ColorTask,83.0,16.0,,,HRV,HRV_0009,2022-11-30 18:01:17
,wl-rdm,134,413398,0.0-8.16-0.16,1.0,134.0,,,,,,,[],,,,,,53.2,1.0,i,1.0,True,1884.8999999910593,99.0,60.0,40.0,False,,292.02479392526016,[],"[624.5, 288]",ColorTask,84.0,17.0,,,HRV,HRV_0009,2022-11-30 18:01:17
,wl-rdm,135,415547,0.0-8.17-0.17,1.0,135.0,,,,,,,[],,,,,,73.6,1.0,i,1.0,True,751.7999999970198,41.0,60.0,40.0,False,,298.5179056587145,[],"[624.5, 288]",ColorTask,85.0,18.0,,,HRV,HRV_0009,2022-11-30 18:01:17
,wl-rdm,136,417949,0.0-8.18-0.18,1.0,136.0,,,,,,,[],,,,,,53.2,1.0,i,1.0,True,976.7000000029802,54.0,60.0,40.0,False,,266.67277709185055,[],"[624.5, 288]",ColorTask,86.0,19.0,,,HRV,HRV_0009,2022-11-30 18:01:17
,wl-rdm,137,420079,0.0-8.19-0.19,1.0,137.0,,,,,,,[],,,,,,53.2,0.0,u,0.0,True,844.7000000029802,45.0,60.0,40.0,False,,212.78881477275218,[],"[624.5, 288]",ColorTask,87.0,20.0,,,HRV,HRV_0009,2022-11-30 18:01:17
,wl-rdm,138,422170,0.0-8.20-0.20,1.0,138.0,,,,,,,[],,,,,,62.5,1.0,i,1.0,True,754.1999999880791,41.0,60.0,40.0,False,,240.29938284470668,[],"[624.5, 288]",ColorTask,88.0,21.0,,,HRV,HRV_0009,2022-11-30 18:01:17
,wl-rdm,139,424314,0.0-8.21-0.21,1.0,139.0,,,,,,,[],,,,,,62.5,0.0,u,0.0,True,851.2999999970198,47.0,60.0,40.0,False,,206.10833043396516,[],"[624.5, 288]",ColorTask,89.0,22.0,,,HRV,HRV_0009,2022-11-30 18:01:17
,wl-rdm,140,426563,0.0-8.22-0.22,1.0,140.0,,,,,,,[],,,,,,87.9,1.0,i,1.0,True,872.0999999940395,37.0,60.0,40.0,False,,240.8823205932292,[],"[624.5, 288]",ColorTask,90.0,23.0,,,HRV,HRV_0009,2022-11-30 18:01:17
,wl-rdm,141,430473,0.0-8.23-0.23,1.0,141.0,,,,,,,[],,,,,,50.0,0.0,i,1.0,False,2458.0,109.0,60.0,40.0,False,,365.746748514125,[],"[624.5, 288]",ColorTask,89.0,24.0,,,HRV,HRV_0009,2022-11-30 18:01:17
,wl-rdm,142,434202,0.0-8.24-0.24,1.0,142.0,,,,,,,[],,,,,,53.2,0.0,u,0.0,True,2299.2999999970198,97.0,60.0,40.0,False,,280.25983330520853,[],"[624.5, 288]",ColorTask,90.0,25.0,,,HRV,HRV_0009,2022-11-30 18:01:17
,wl-rdm,143,437224,0.0-8.25-0.25,1.0,143.0,,,,,,,[],,,,,,56.4,1.0,u,0.0,False,1631.800000011921,72.0,60.0,40.0,False,,317.11391424351865,[],"[624.5, 288]",ColorTask,89.0,26.0,,,HRV,HRV_0009,2022-11-30 18:01:17
,wl-rdm,144,439516,0.0-8.26-0.26,1.0,144.0,,,,,,,[],,,,,,87.9,0.0,u,0.0,True,941.2000000029802,42.0,60.0,40.0,False,,226.53057072775889,[],"[624.5, 288]",ColorTask,90.0,27.0,,,HRV,HRV_0009,2022-11-30 18:01:17
,wl-rdm,145,441583,0.0-8.27-0.27,1.0,145.0,,,,,,,[],,,,,,53.2,0.0,u,0.0,True,770.0000000149012,39.0,60.0,40.0,False,,213.90482198474578,[],"[624.5, 288]",ColorTask,91.0,28.0,,,HRV,HRV_0009,2022-11-30 18:01:17
,wl-rdm,146,444348,0.0-8.28-0.28,1.0,146.0,,,,,,,[],,,,,,53.2,1.0,i,1.0,True,1490.199999988079,80.0,60.0,40.0,False,,206.9551922697906,[],"[624.5, 288]",ColorTask,92.0,29.0,,,HRV,HRV_0009,2022-11-30 18:01:17
,wl-rdm,147,448369,0.0-8.29-0.29,1.0,147.0,,,,,,,[],,,,,,56.4,1.0,i,1.0,True,2639.5,144.0,60.0,40.0,False,,301.90985758847876,[],"[624.5, 288]",ColorTask,93.0,30.0,,,HRV,HRV_0009,2022-11-30 18:01:17
,wl-rdm,148,451416,0.0-8.30-0.30,1.0,148.0,,,,,,,[],,,,,,50.0,0.0,i,1.0,False,1578.0999999940395,87.0,60.0,40.0,False,,394.6539411384799,[],"[624.5, 288]",ColorTask,92.0,31.0,,,HRV,HRV_0009,2022-11-30 18:01:17
,wl-rdm,149,454382,0.0-8.31-0.31,1.0,149.0,,,,,,,[],,,,,,50.0,0.0,i,1.0,False,1478.7000000029802,81.0,60.0,40.0,False,,399.9916629415649,[],"[624.5, 288]",ColorTask,91.0,32.0,,,HRV,HRV_0009,2022-11-30 18:01:17
,wl-rdm,150,457175,0.0-8.32-0.32,1.0,150.0,,,,,,,[],,,,,,62.5,1.0,i,1.0,True,1422.7000000029802,64.0,60.0,40.0,False,,280.66931363713115,[],"[624.5, 288]",ColorTask,92.0,33.0,,,HRV,HRV_0009,2022-11-30 18:01:17
,wl-rdm,151,459685,0.0-8.33-0.33,1.0,151.0,,,,,,,[],,,,,,62.5,0.0,u,0.0,True,1214.7999999970198,51.0,60.0,40.0,False,,201.25311272619876,[],"[624.5, 288]",ColorTask,93.0,34.0,,,HRV,HRV_0009,2022-11-30 18:01:17
,wl-rdm,152,463163,0.0-8.34-0.34,1.0,152.0,,,,,,,[],,,,,,50.0,1.0,u,0.0,False,2049.0,92.0,60.0,40.0,False,,336.258883976641,[],"[624.5, 288]",ColorTask,92.0,35.0,,,HRV,HRV_0009,2022-11-30 18:01:17
,wl-rdm,153,465842,0.0-8.35-0.35,1.0,153.0,,,,,,,[],,,,,,62.5,1.0,i,1.0,True,1371.1000000089407,57.0,60.0,40.0,False,,211.63980979630512,[],"[624.5, 288]",ColorTask,93.0,36.0,,,HRV,HRV_0009,2022-11-30 18:01:17
,wl-rdm,154,469268,0.0-8.36-0.36,1.0,154.0,,,,,,,[],,,,,,53.2,0.0,i,1.0,False,2008.8999999910593,83.0,60.0,40.0,False,,309.03722709619865,[],"[624.5, 288]",ColorTask,92.0,37.0,,,HRV,HRV_0009,2022-11-30 18:01:17
,wl-rdm,155,472704,0.0-8.37-0.37,1.0,155.0,,,,,,,[],,,,,,56.4,0.0,u,0.0,True,2107.0,114.0,60.0,40.0,False,,256.555418608382,[],"[624.5, 288]",ColorTask,93.0,38.0,,,HRV,HRV_0009,2022-11-30 18:01:17
,wl-rdm,156,475799,0.0-8.38-0.38,1.0,156.0,,,,,,,[],,,,,,56.4,1.0,i,1.0,True,1790.300000011921,96.0,60.0,40.0,False,,217.9050980083386,[],"[624.5, 288]",ColorTask,94.0,39.0,,,HRV,HRV_0009,2022-11-30 18:01:17
,wl-rdm,157,478629,0.0-8.39-0.39,1.0,157.0,,,,,,,[],,,,,,53.2,0.0,u,0.0,True,1539.9000000059605,84.0,60.0,40.0,False,,222.31201692842882,[],"[624.5, 288]",ColorTask,95.0,40.0,,,HRV,HRV_0009,2022-11-30 18:01:17
,wl-rdm,158,482180,0.0-8.40-0.40,1.0,158.0,,,,,,,[],,,,,,53.2,1.0,i,1.0,True,2241.6000000089407,118.0,60.0,40.0,False,,217.4747671862027,[],"[624.5, 288]",ColorTask,96.0,41.0,,,HRV,HRV_0009,2022-11-30 18:01:17
,wl-rdm,159,484783,0.0-8.41-0.41,1.0,159.0,,,,,,,[],,,,,,62.5,1.0,i,1.0,True,1254.7000000178814,63.0,60.0,40.0,False,,257.5900241804753,[],"[624.5, 288]",ColorTask,97.0,42.0,,,HRV,HRV_0009,2022-11-30 18:01:17
,wl-rdm,160,487868,0.0-8.42-0.42,1.0,160.0,,,,,,,[],,,,,,50.0,1.0,u,0.0,False,1746.7999999821186,75.0,60.0,40.0,False,,214.92637743755526,[],"[624.5, 288]",ColorTask,96.0,43.0,,,HRV,HRV_0009,2022-11-30 18:01:17
,wl-rdm,161,490941,0.0-8.43-0.43,1.0,161.0,,,,,,,[],,,,,,50.0,1.0,u,0.0,False,1702.7999999821186,75.0,60.0,40.0,False,,269.30813931614773,[],"[624.5, 288]",ColorTask,95.0,44.0,,,HRV,HRV_0009,2022-11-30 18:01:17
,wl-rdm,162,494014,0.0-8.44-0.44,1.0,162.0,,,,,,,[],,,,,,53.2,1.0,i,1.0,True,1628.0999999940395,68.0,60.0,40.0,False,,338.1689840880574,[],"[624.5, 288]",ColorTask,96.0,45.0,,,HRV,HRV_0009,2022-11-30 18:01:17
,wl-rdm,163,496353,0.0-8.45-0.45,1.0,163.0,,,,,,,[],,,,,,87.9,1.0,i,1.0,True,909.7999999970198,39.0,60.0,40.0,False,,372.68002288843184,[],"[624.5, 288]",ColorTask,97.0,46.0,,,HRV,HRV_0009,2022-11-30 18:01:17
,wl-rdm,164,499428,0.0-8.46-0.46,1.0,164.0,,,,,,,[],,,,,,62.5,1.0,i,1.0,True,1743.3999999910593,70.0,60.0,40.0,False,,204.80444867362147,[],"[624.5, 288]",ColorTask,98.0,47.0,,,HRV,HRV_0009,2022-11-30 18:01:17
,wl-rdm,165,502305,0.0-8.47-0.47,1.0,165.0,,,,,,,[],,,,,,56.4,0.0,u,0.0,True,1509.5999999791384,80.0,60.0,40.0,False,,287.8072410630894,[],"[624.5, 288]",ColorTask,99.0,48.0,,,HRV,HRV_0009,2022-11-30 18:01:17
,wl-rdm,166,505819,0.0-8.48-0.48,1.0,166.0,,,,,,,[],,,,,,56.4,0.0,i,1.0,False,2207.7999999970198,120.0,60.0,40.0,False,,222.956788853004,[],"[624.5, 288]",ColorTask,98.0,49.0,,,HRV,HRV_0009,2022-11-30 18:01:17
,wl-rdm,167,509364,0.0-8.49-0.49,1.0,167.0,,,,,,,[],,,,,,50.0,1.0,u,0.0,False,2128.6000000089407,113.0,60.0,40.0,False,,284.30956456207366,[],"[624.5, 288]",ColorTask,97.0,50.0,,,HRV,HRV_0009,2022-11-30 18:01:17
,wl-rdm,168,512662,0.0-8.50-0.50,1.0,168.0,,,,,,,[],,,,,,53.2,1.0,i,1.0,True,1868.7999999970198,100.0,60.0,40.0,False,,324.11813794422545,[],"[624.5, 288]",ColorTask,98.0,51.0,,,HRV,HRV_0009,2022-11-30 18:01:17
,wl-rdm,169,515204,0.0-8.51-0.51,1.0,169.0,,,,,,,[],,,,,,73.6,0.0,u,0.0,True,1084.0999999940395,49.0,60.0,40.0,False,,374.4110941498909,[],"[624.5, 288]",ColorTask,99.0,52.0,,,HRV,HRV_0009,2022-11-30 18:01:17
,wl-rdm,170,518598,0.0-8.52-0.52,1.0,170.0,,,,,,,[],,,,,,56.4,0.0,u,0.0,True,2074.0,90.0,60.0,40.0,False,,232.616432659806,[],"[624.5, 288]",ColorTask,100.0,53.0,,,HRV,HRV_0009,2022-11-30 18:01:17
,wl-rdm,171,521624,0.0-8.53-0.53,1.0,171.0,,,,,,,[],,,,,,56.4,1.0,i,1.0,True,1578.0999999940395,71.0,60.0,40.0,False,,347.5794367636812,[],"[624.5, 288]",ColorTask,101.0,54.0,,,HRV,HRV_0009,2022-11-30 18:01:17
,wl-rdm,172,524005,0.0-8.54-0.54,1.0,172.0,,,,,,,[],,,,,,87.9,0.0,u,0.0,True,1003.0000000149012,41.0,60.0,40.0,False,,289.98725997708266,[],"[624.5, 288]",ColorTask,102.0,55.0,,,HRV,HRV_0009,2022-11-30 18:01:17
,wl-rdm,173,526887,0.0-8.55-0.55,1.0,173.0,,,,,,,[],,,,,,87.9,0.0,u,0.0,True,1549.9999999850988,68.0,60.0,40.0,False,,211.073645362077,[],"[624.5, 288]",ColorTask,103.0,56.0,,,HRV,HRV_0009,2022-11-30 18:01:17
,wl-rdm,174,529953,0.0-8.56-0.56,1.0,174.0,,,,,,,[],,,,,,56.4,0.0,u,0.0,True,1787.699999988079,85.0,60.0,40.0,False,,203.39771637743695,[],"[624.5, 288]",ColorTask,104.0,57.0,,,HRV,HRV_0009,2022-11-30 18:01:17
,wl-rdm,175,532102,0.0-8.57-0.57,1.0,175.0,,,,,,,[],,,,,,87.9,0.0,u,0.0,True,724.9000000059605,39.0,60.0,40.0,False,,325.1244795559459,[],"[624.5, 288]",ColorTask,105.0,58.0,,,HRV,HRV_0009,2022-11-30 18:01:17
,wl-rdm,176,534567,0.0-8.58-0.58,1.0,176.0,,,,,,,[],,,,,,73.6,0.0,u,0.0,True,1153.699999988079,60.0,60.0,40.0,False,,236.27765316592306,[],"[624.5, 288]",ColorTask,106.0,59.0,,,HRV,HRV_0009,2022-11-30 18:01:17
,wl-rdm,177,538648,0.0-8.59-0.59,1.0,177.0,,,,,,,[],,,,,,50.0,1.0,u,0.0,False,2583.9000000059605,140.0,60.0,40.0,False,,394.7989059158199,[],"[624.5, 288]",ColorTask,105.0,60.0,,,HRV,HRV_0009,2022-11-30 18:01:17
,wl-rdm,178,541330,0.0-8.60-0.60,1.0,178.0,,,,,,,[],,,,,,62.5,0.0,u,0.0,True,1380.7999999970198,75.0,60.0,40.0,False,,221.58123713636834,[],"[624.5, 288]",ColorTask,106.0,61.0,,,HRV,HRV_0009,2022-11-30 18:01:17
,wl-rdm,179,543551,0.0-8.61-0.61,1.0,179.0,,,,,,,[],,,,,,62.5,0.0,u,0.0,True,863.6999999880791,46.0,60.0,40.0,False,,283.10587787386595,[],"[624.5, 288]",ColorTask,107.0,62.0,,,HRV,HRV_0009,2022-11-30 18:01:17
,wl-rdm,180,546617,0.0-8.62-0.62,1.0,180.0,,,,,,,[],,,,,,56.4,0.0,u,0.0,True,1563.7000000029802,65.0,60.0,40.0,False,,397.4671384486011,[],"[624.5, 288]",ColorTask,108.0,63.0,,,HRV,HRV_0009,2022-11-30 18:01:17
,wl-rdm,181,548640,0.0-8.63-0.63,1.0,181.0,,,,,,,[],,,,,,87.9,1.0,i,1.0,True,640.1000000089407,26.0,60.0,40.0,False,,235.05235099347283,[],"[624.5, 288]",ColorTask,109.0,64.0,,,HRV,HRV_0009,2022-11-30 18:01:17
,wl-rdm,182,552564,0.0-8.64-0.64,1.0,182.0,,,,,,,[],,,,,,50.0,0.0,u,0.0,True,2523.5,104.0,60.0,40.0,False,,287.6890860154165,[],"[624.5, 288]",ColorTask,110.0,65.0,,,HRV,HRV_0009,2022-11-30 18:01:17
,wl-rdm,183,554891,0.0-8.65-0.65,1.0,183.0,,,,,,,[],,,,,,87.9,1.0,i,1.0,True,974.6999999880791,43.0,60.0,40.0,False,,254.60112162439233,[],"[624.5, 288]",ColorTask,111.0,66.0,,,HRV,HRV_0009,2022-11-30 18:01:17
,wl-rdm,184,558163,0.0-8.66-0.66,1.0,184.0,,,,,,,[],,,,,,56.4,1.0,i,1.0,True,1883.0999999940395,83.0,60.0,40.0,False,,306.6252802355673,[],"[624.5, 288]",ColorTask,112.0,67.0,,,HRV,HRV_0009,2022-11-30 18:01:17
,wl-rdm,185,560322,0.0-8.67-0.67,1.0,185.0,,,,,,,[],,,,,,73.6,1.0,i,1.0,True,820.7000000178814,44.0,60.0,40.0,False,,262.82323248457544,[],"[624.5, 288]",ColorTask,113.0,68.0,,,HRV,HRV_0009,2022-11-30 18:01:17
,wl-rdm,186,562569,0.0-8.68-0.68,1.0,186.0,,,,,,,[],,,,,,56.4,0.0,u,0.0,True,965.8999999910593,53.0,60.0,40.0,False,,202.28373287435818,[],"[624.5, 288]",ColorTask,114.0,69.0,,,HRV,HRV_0009,2022-11-30 18:01:17
,wl-rdm,187,565251,0.0-8.69-0.69,1.0,187.0,,,,,,,[],,,,,,62.5,1.0,i,1.0,True,1272.0999999940395,68.0,60.0,40.0,False,,258.6954232086734,[],"[624.5, 288]",ColorTask,115.0,70.0,,,HRV,HRV_0009,2022-11-30 18:01:17
,wl-rdm,188,567300,0.0-8.70-0.70,1.0,188.0,,,,,,,[],,,,,,73.6,1.0,i,1.0,True,747.2000000029802,37.0,60.0,40.0,False,,227.35183342459584,[],"[624.5, 288]",ColorTask,116.0,71.0,,,HRV,HRV_0009,2022-11-30 18:01:17
,wl-rdm,189,571130,0.0-8.71-0.71,1.0,189.0,,,,,,,[],,,,,,50.0,1.0,i,1.0,True,2407.5,133.0,60.0,40.0,False,,346.6986940581428,[],"[624.5, 288]",ColorTask,117.0,72.0,,,HRV,HRV_0009,2022-11-30 18:01:17
,wl-rdm,190,573197,0.0-8.72-0.72,1.0,190.0,,,,,,,[],,,,,,62.5,0.0,u,0.0,True,776.9999999850988,42.0,60.0,40.0,False,,225.90512219282732,[],"[624.5, 288]",ColorTask,118.0,73.0,,,HRV,HRV_0009,2022-11-30 18:01:17
,wl-rdm,191,575940,0.0-8.73-0.73,1.0,191.0,,,,,,,[],,,,,,73.6,0.0,u,0.0,True,1200.3999999910593,55.0,60.0,40.0,False,,398.78226575534325,[],"[624.5, 288]",ColorTask,119.0,74.0,,,HRV,HRV_0009,2022-11-30 18:01:17
,wl-rdm,192,578852,0.0-8.74-0.74,1.0,192.0,,,,,,,[],,,,,,62.5,0.0,u,0.0,True,1362.0999999940395,59.0,60.0,40.0,False,,334.41308326767944,[],"[624.5, 288]",ColorTask,120.0,75.0,,,HRV,HRV_0009,2022-11-30 18:01:17
,wl-rdm,193,581410,0.0-8.75-0.75,1.0,193.0,,,,,,,[],,,,,,87.9,1.0,i,1.0,True,1130.8999999910593,46.0,60.0,40.0,False,,327.84633376023976,[],"[624.5, 288]",ColorTask,121.0,76.0,,,HRV,HRV_0009,2022-11-30 18:01:17
,wl-rdm,194,584491,0.0-8.76-0.76,1.0,194.0,,,,,,,[],,,,,,73.6,0.0,u,0.0,True,1635.7000000029802,68.0,60.0,40.0,False,,340.7418144671176,[],"[624.5, 288]",ColorTask,122.0,77.0,,,HRV,HRV_0009,2022-11-30 18:01:17
,wl-rdm,195,587445,0.0-8.77-0.77,1.0,195.0,,,,,,,[],,,,,,73.6,1.0,i,1.0,True,1612.6000000089407,68.0,60.0,40.0,False,,255.92099472233377,[],"[624.5, 288]",ColorTask,123.0,78.0,,,HRV,HRV_0009,2022-11-30 18:01:17
,wl-rdm,196,591455,0.0-8.78-0.78,1.0,196.0,,,,,,,[],,,,,,53.2,0.0,u,0.0,True,2567.0,130.0,60.0,40.0,False,,350.85151538439254,[],"[624.5, 288]",ColorTask,124.0,79.0,,,HRV,HRV_0009,2022-11-30 18:01:17
,wl-rdm,197,593557,0.0-8.79-0.79,1.0,197.0,,,,,,,[],,,,,,87.9,0.0,u,0.0,True,630.7000000029802,35.0,60.0,40.0,False,,378.1039336626545,[],"[624.5, 288]",ColorTask,125.0,80.0,,,HRV,HRV_0009,2022-11-30 18:01:17
,wl-rdm,198,596874,0.0-8.80-0.80,1.0,198.0,,,,,,,[],,,,,,56.4,1.0,i,1.0,True,1843.6000000089407,102.0,60.0,40.0,False,,344.5543394780328,[],"[624.5, 288]",ColorTask,126.0,81.0,,,HRV,HRV_0009,2022-11-30 18:01:17
,wl-rdm,199,599000,0.0-8.81-0.81,1.0,199.0,,,,,,,[],,,,,,87.9,0.0,u,0.0,True,820.0999999940395,43.0,60.0,40.0,False,,222.66307535349472,[],"[624.5, 288]",ColorTask,127.0,82.0,,,HRV,HRV_0009,2022-11-30 18:01:17
,wl-rdm,200,601264,0.0-8.82-0.82,1.0,200.0,,,,,,,[],,,,,,73.6,1.0,i,1.0,True,867.4999999850988,49.0,60.0,40.0,False,,326.7482863939115,[],"[624.5, 288]",ColorTask,128.0,83.0,,,HRV,HRV_0009,2022-11-30 18:01:17
,wl-rdm,201,604821,0.0-8.83-0.83,1.0,201.0,,,,,,,[],,,,,,53.2,0.0,i,1.0,False,2219.8999999910593,114.0,60.0,40.0,False,,229.91747929710343,[],"[624.5, 288]",ColorTask,127.0,84.0,,,HRV,HRV_0009,2022-11-30 18:01:17
,wl-rdm,202,607655,0.0-8.84-0.84,1.0,202.0,,,,,,,[],,,,,,73.6,1.0,i,1.0,True,1443.5,64.0,60.0,40.0,False,,276.75745939438195,[],"[624.5, 288]",ColorTask,128.0,85.0,,,HRV,HRV_0009,2022-11-30 18:01:17
,wl-rdm,203,611263,0.0-8.85-0.85,1.0,203.0,,,,,,,[],,,,,,50.0,0.0,i,1.0,False,2116.6000000089407,93.0,60.0,40.0,False,,395.81532279805856,[],"[624.5, 288]",ColorTask,127.0,86.0,,,HRV,HRV_0009,2022-11-30 18:01:17
,wl-rdm,204,614526,0.0-8.86-0.86,1.0,204.0,,,,,,,[],,,,,,62.5,1.0,i,1.0,True,1965.5999999940395,83.0,60.0,40.0,False,,206.93311557854616,[],"[624.5, 288]",ColorTask,128.0,87.0,,,HRV,HRV_0009,2022-11-30 18:01:17
,wl-rdm,205,616730,0.0-8.87-0.87,1.0,205.0,,,,,,,[],,,,,,87.9,1.0,i,1.0,True,910.9000000059605,39.0,60.0,40.0,False,,207.10535876815914,[],"[624.5, 288]",ColorTask,129.0,88.0,,,HRV,HRV_0009,2022-11-30 18:01:17
,wl-rdm,206,620155,0.0-8.88-0.88,1.0,206.0,,,,,,,[],,,,,,53.2,0.0,u,0.0,True,1974.2999999970198,95.0,60.0,40.0,False,,356.87891573149545,[],"[624.5, 288]",ColorTask,130.0,89.0,,,HRV,HRV_0009,2022-11-30 18:01:17
,wl-rdm,207,622314,0.0-8.89-0.89,1.0,207.0,,,,,,,[],,,,,,73.6,0.0,u,0.0,True,801.2000000029802,46.0,60.0,40.0,False,,284.7829207599016,[],"[624.5, 288]",ColorTask,131.0,90.0,,,HRV,HRV_0009,2022-11-30 18:01:17
,wl-rdm,208,624637,0.0-8.90-0.90,1.0,208.0,,,,,,,[],,,,,,62.5,0.0,u,0.0,True,985.1999999880791,52.0,60.0,40.0,False,,254.6215203267237,[],"[624.5, 288]",ColorTask,132.0,91.0,,,HRV,HRV_0009,2022-11-30 18:01:17
,wl-rdm,209,627469,0.0-8.91-0.91,1.0,209.0,,,,,,,[],,,,,,62.5,1.0,i,1.0,True,1526.0,81.0,60.0,40.0,False,,222.36813695867616,[],"[624.5, 288]",ColorTask,133.0,92.0,,,HRV,HRV_0009,2022-11-30 18:01:17
,wl-rdm,210,630359,0.0-8.92-0.92,1.0,210.0,,,,,,,[],,,,,,56.4,1.0,i,1.0,True,1601.5999999940395,87.0,60.0,40.0,False,,213.90800428523343,[],"[624.5, 288]",ColorTask,134.0,93.0,,,HRV,HRV_0009,2022-11-30 18:01:17
,wl-rdm,211,633319,0.0-8.93-0.93,1.0,211.0,,,,,,,[],,,,,,53.2,1.0,u,0.0,False,1634.6000000089407,86.0,60.0,40.0,False,,238.82798059047244,[],"[624.5, 288]",ColorTask,133.0,94.0,,,HRV,HRV_0009,2022-11-30 18:01:17
,wl-rdm,212,635822,0.0-8.94-0.94,1.0,212.0,,,,,,,[],,,,,,87.9,1.0,i,1.0,True,1099.4999999850988,47.0,60.0,40.0,False,,250.94605178716995,[],"[624.5, 288]",ColorTask,134.0,95.0,,,HRV,HRV_0009,2022-11-30 18:01:17
,wl-rdm,213,638199,0.0-8.95-0.95,1.0,213.0,,,,,,,[],,,,,,73.6,1.0,i,1.0,True,1085.7000000029802,45.0,60.0,40.0,False,,211.34838333232767,[],"[624.5, 288]",ColorTask,135.0,96.0,,,HRV,HRV_0009,2022-11-30 18:01:17
,wl-rdm,214,640628,0.0-8.96-0.96,1.0,214.0,,,,,,,[],,,,,,73.6,0.0,u,0.0,True,988.4999999850988,39.0,60.0,40.0,False,,346.242113569229,[],"[624.5, 288]",ColorTask,136.0,97.0,,,HRV,HRV_0009,2022-11-30 18:01:17
,wl-rdm,215,644611,0.0-8.97-0.97,1.0,215.0,,,,,,,[],,,,,,50.0,1.0,i,1.0,True,2606.7000000029802,111.0,60.0,40.0,False,,277.5991995476192,[],"[624.5, 288]",ColorTask,137.0,98.0,,,HRV,HRV_0009,2022-11-30 18:01:17
,wl-rdm,216,646805,0.0-8.98-0.98,1.0,216.0,,,,,,,[],,,,,,73.6,0.0,u,0.0,True,766.5999999940395,34.0,60.0,40.0,False,,341.1424430446332,[],"[624.5, 288]",ColorTask,138.0,99.0,,,HRV,HRV_0009,2022-11-30 18:01:17
,wl-rdm,217,650788,0.0-8.99-0.99,1.0,217.0,,,,,,,[],,,,,,50.0,0.0,u,0.0,True,2608.6000000089407,127.0,60.0,40.0,False,,304.5869861481449,[],"[624.5, 288]",ColorTask,139.0,100.0,,,HRV,HRV_0009,2022-11-30 18:01:17
,wl-rdm,218,652938,0.0-8.100-0.100,1.0,218.0,,,,,,,[],,,,,,73.6,0.0,u,0.0,True,868.7000000029802,47.0,60.0,40.0,False,,200.5363292637652,[],"[624.5, 288]",ColorTask,140.0,101.0,,,HRV,HRV_0009,2022-11-30 18:01:17
,wl-rdm,219,657385,0.0-8.101-0.101,1.0,218.0,,,,,,,[],,,,,,56.4,1.0,i,,,3222.300000011921,159.0,60.0,40.0,True,RT_timeout ,352.3099515740317,[],"[624.5, 288]",ColorTask,139.0,102.0,,,HRV,HRV_0009,2022-11-30 18:01:17
,wl-rdm,220,659650,0.0-8.102-0.102,1.0,219.0,,,,,,,[],,,,,,62.5,1.0,i,1.0,True,939.6999999880791,51.0,60.0,40.0,False,,241.69307605961686,[],"[624.5, 288]",ColorTask,140.0,103.0,,,HRV,HRV_0009,2022-11-30 18:01:17
,wl-rdm,221,662948,0.0-8.103-0.103,1.0,220.0,,,,,,,[],,,,,,56.4,1.0,i,1.0,True,2018.6000000089407,110.0,60.0,40.0,False,,213.0922269081179,[],"[624.5, 288]",ColorTask,141.0,104.0,,,HRV,HRV_0009,2022-11-30 18:01:17
,wl-rdm,222,665264,0.0-8.104-0.104,1.0,221.0,,,,,,,[],,,,,,87.9,1.0,i,1.0,True,869.2000000029802,39.0,60.0,40.0,False,,338.20006665020736,[],"[624.5, 288]",ColorTask,142.0,105.0,,,HRV,HRV_0009,2022-11-30 18:01:17
,wl-rdm,223,668913,0.0-8.105-0.105,1.0,222.0,,,,,,,[],,,,,,50.0,0.0,u,0.0,True,2215.9000000059605,95.0,60.0,40.0,False,,333.72580143449005,[],"[624.5, 288]",ColorTask,143.0,106.0,,,HRV,HRV_0009,2022-11-30 18:01:17
,wl-rdm,224,672696,0.0-8.106-0.106,1.0,223.0,,,,,,,[],,,,,,50.0,1.0,i,1.0,True,2284.199999988079,100.0,60.0,40.0,False,,381.06222009213656,[],"[624.5, 288]",ColorTask,144.0,107.0,,,HRV,HRV_0009,2022-11-30 18:01:17
,wl-rdm,225,674959,0.0-8.107-0.107,1.0,224.0,,,,,,,[],,,,,,87.9,1.0,i,1.0,True,933.9000000059605,39.0,60.0,40.0,False,,258.30805116436153,[],"[624.5, 288]",ColorTask,145.0,108.0,,,HRV,HRV_0009,2022-11-30 18:01:17
,wl-rdm,226,678000,0.0-8.108-0.108,1.0,225.0,,,,,,,[],,,,,,73.6,1.0,i,1.0,True,1767.2000000029802,77.0,60.0,40.0,False,,210.03926138888383,[],"[624.5, 288]",ColorTask,146.0,109.0,,,HRV,HRV_0009,2022-11-30 18:01:17
,wl-html-button-response,227,681367,0.0-9.0-0.0,,,,,,,,,,3359.0,,0,,,,,,,,,,,,,,,,,,,,<h3>End of this session. Thank you!</h3><br>,['Close window'],HRV,HRV_0009,2022-11-30 18:01:17
