trialN,stimuli,trialStartTime,trialStartTime_UNIX,stimulus1,stimulus2,stimulus1Bid,stimulus2Bid,delta,selected,rt,rt_UNIX,rt_perfnow,receivedResponse,rsp,trialEndTime,trialDuration,trialEndTime_UNIX,trialDuration_UNIX,exp,subjectId,date
0,"[{'imgObject': {}, 'id': 'luckycharms', 'src': '/static/foodstim60/luckycharms.jpg', 'key': 'u', 'origWidth': 410, 'origHeight': 409, 'width': 410, 'height': 409, 'widthPercent': 0.45, 'rescaleHeight': False, 'trialN': 0, 'loaded': True, 'loadedTime': 3402.9000000059605, 'positionName': 'LEFT', 'positionCoords': [189.52, 83.5], 'bid': 6.11}, {'imgObject': {}, 'id': 'bagel plain', 'src': '/static/foodstim60/bagel plain.jpg', 'key': 'i', 'origWidth': 410, 'origHeight': 410, 'width': 410, 'height': 410, 'widthPercent': 0.45, 'rescaleHeight': False, 'trialN': 0, 'loaded': True, 'loadedTime': 3425.800000011921, 'positionName': 'RIGHT', 'positionCoords': [649.48, 83], 'bid': 5.93}]",4112.600000008941,1669830222917,luckycharms,bagel plain,6.11,5.93,-0.1800000000000006,bagel plain,1021.8999999910593,1023,1023.2000000029802,True,i,5636.9000000059605,1524.2999999970198,1669830224441,1524,HRV,HRV_0009,2022-11-30 17:49:51
1,"[{'imgObject': {}, 'id': 'turkeysandwich', 'src': '/static/foodstim60/turkeysandwich.jpg', 'key': 'u', 'origWidth': 409, 'origHeight': 409, 'width': 409, 'height': 409, 'widthPercent': 0.45, 'rescaleHeight': False, 'trialN': 1, 'loaded': True, 'loadedTime': 3427.2000000029802, 'positionName': 'LEFT', 'positionCoords': [190.52, 83.5], 'bid': 9.58}, {'imgObject': {}, 'id': 'sushi w_condiments', 'src': '/static/foodstim60/sushi w_condiments.jpg', 'key': 'i', 'origWidth': 410, 'origHeight': 410, 'width': 410, 'height': 410, 'widthPercent': 0.45, 'rescaleHeight': False, 'trialN': 1, 'loaded': True, 'loadedTime': 3435.9000000059605, 'positionName': 'RIGHT', 'positionCoords': [649.48, 83], 'bid': 9.34}]",5637.600000008941,1669830224442,turkeysandwich,sushi w_condiments,9.58,9.34,-0.2400000000000002,turkeysandwich,1316.0999999940395,1317,1316.7999999970198,True,u,7464.20000000298,1826.5999999940395,1669830226268,1826,HRV,HRV_0009,2022-11-30 17:49:51
2,"[{'imgObject': {}, 'id': 'turkey sandwich', 'src': '/static/foodstim60/turkey sandwich.jpg', 'key': 'u', 'origWidth': 409, 'origHeight': 409, 'width': 409, 'height': 409, 'widthPercent': 0.45, 'rescaleHeight': False, 'trialN': 2, 'loaded': True, 'loadedTime': 3447.6000000089407, 'positionName': 'LEFT', 'positionCoords': [190.52, 83.5], 'bid': 8.61}, {'imgObject': {}, 'id': 'veggieswithdip', 'src': '/static/foodstim60/veggieswithdip.jpg', 'key': 'i', 'origWidth': 409, 'origHeight': 409, 'width': 409, 'height': 409, 'widthPercent': 0.45, 'rescaleHeight': False, 'trialN': 2, 'loaded': True, 'loadedTime': 3452.800000011921, 'positionName': 'RIGHT', 'positionCoords': [649.48, 83.5], 'bid': 6.94}]",7464.600000008941,1669830226269,turkey sandwich,veggieswithdip,8.61,6.94,-1.669999999999999,turkey sandwich,1534.0999999940395,1535,1534.8999999910593,True,u,9503.5,2038.8999999910593,1669830228308,2039,HRV,HRV_0009,2022-11-30 17:49:51
3,"[{'imgObject': {}, 'id': 'mango', 'src': '/static/foodstim60/mango.jpg', 'key': 'u', 'origWidth': 411, 'origHeight': 411, 'width': 411, 'height': 411, 'widthPercent': 0.45, 'rescaleHeight': False, 'trialN': 3, 'loaded': True, 'loadedTime': 3464.6000000089407, 'positionName': 'LEFT', 'positionCoords': [188.52, 82.5], 'bid': 1.11}, {'imgObject': {}, 'id': 'corn cob', 'src': '/static/foodstim60/corn cob.jpg', 'key': 'i', 'origWidth': 411, 'origHeight': 411, 'width': 411, 'height': 411, 'widthPercent': 0.45, 'rescaleHeight': False, 'trialN': 3, 'loaded': True, 'loadedTime': 3470.800000011921, 'positionName': 'RIGHT', 'positionCoords': [649.48, 82.5], 'bid': 6.5200000000000005}]",9503.90000000596,1669830228308,mango,corn cob,1.11,6.5200000000000005,5.41,corn cob,1333.7000000029802,1335,1334.5,True,i,11352.10000000894,1848.2000000029802,1669830230156,1848,HRV,HRV_0009,2022-11-30 17:49:51
4,"[{'imgObject': {}, 'id': 'mac & cheese', 'src': '/static/foodstim60/mac & cheese.jpg', 'key': 'u', 'origWidth': 410, 'origHeight': 410, 'width': 410, 'height': 410, 'widthPercent': 0.45, 'rescaleHeight': False, 'trialN': 4, 'loaded': True, 'loadedTime': 3489.4000000059605, 'positionName': 'LEFT', 'positionCoords': [189.52, 83], 'bid': 7.85}, {'imgObject': {}, 'id': 'fruitsalad', 'src': '/static/foodstim60/fruitsalad.jpg', 'key': 'i', 'origWidth': 410, 'origHeight': 410, 'width': 410, 'height': 410, 'widthPercent': 0.45, 'rescaleHeight': False, 'trialN': 4, 'loaded': True, 'loadedTime': 3489.6000000089407, 'positionName': 'RIGHT', 'positionCoords': [649.48, 83], 'bid': 1.9}]",11352.800000011921,1669830230157,mac & cheese,fruitsalad,7.85,1.9,-5.949999999999999,mac & cheese,1288.5999999940395,1289,1289.2999999970198,True,u,13155.0,1802.199999988079,1669830231959,1802,HRV,HRV_0009,2022-11-30 17:49:51
5,"[{'imgObject': {}, 'id': 'yogurt no spoon', 'src': '/static/foodstim60/yogurt no spoon.jpg', 'key': 'u', 'origWidth': 411, 'origHeight': 410, 'width': 411, 'height': 410, 'widthPercent': 0.45, 'rescaleHeight': False, 'trialN': 5, 'loaded': True, 'loadedTime': 3517.2000000029802, 'positionName': 'LEFT', 'positionCoords': [188.52, 83], 'bid': 4.79}, {'imgObject': {}, 'id': 'rigatoni', 'src': '/static/foodstim60/rigatoni.jpg', 'key': 'i', 'origWidth': 411, 'origHeight': 411, 'width': 411, 'height': 411, 'widthPercent': 0.45, 'rescaleHeight': False, 'trialN': 5, 'loaded': True, 'loadedTime': 3543.5, 'positionName': 'RIGHT', 'positionCoords': [649.48, 82.5], 'bid': 4.91}]",13155.60000000894,1669830231960,yogurt no spoon,rigatoni,4.79,4.91,0.1200000000000001,yogurt no spoon,1031.2000000029802,1032,1032.0,True,u,14693.300000011921,1537.7000000029802,1669830233498,1538,HRV,HRV_0009,2022-11-30 17:49:51
6,"[{'imgObject': {}, 'id': 'seaweed', 'src': '/static/foodstim60/seaweed.jpg', 'key': 'u', 'origWidth': 410, 'origHeight': 410, 'width': 410, 'height': 410, 'widthPercent': 0.45, 'rescaleHeight': False, 'trialN': 6, 'loaded': True, 'loadedTime': 3548, 'positionName': 'LEFT', 'positionCoords': [189.52, 83], 'bid': 0.15}, {'imgObject': {}, 'id': 'mango', 'src': '/static/foodstim60/mango.jpg', 'key': 'i', 'origWidth': 411, 'origHeight': 411, 'width': 411, 'height': 411, 'widthPercent': 0.45, 'rescaleHeight': False, 'trialN': 6, 'loaded': True, 'loadedTime': 3462.4000000059605, 'positionName': 'RIGHT', 'positionCoords': [649.48, 82.5], 'bid': 1.11}]",14693.90000000596,1669830233498,seaweed,mango,0.15,1.11,0.9600000000000001,seaweed,2208.0999999940395,2209,2209.0,True,u,17410.5,2716.5999999940395,1669830236215,2717,HRV,HRV_0009,2022-11-30 17:49:51
7,"[{'imgObject': {}, 'id': 'corn cob', 'src': '/static/foodstim60/corn cob.jpg', 'key': 'u', 'origWidth': 411, 'origHeight': 411, 'width': 411, 'height': 411, 'widthPercent': 0.45, 'rescaleHeight': False, 'trialN': 7, 'loaded': True, 'loadedTime': 3472.7000000029802, 'positionName': 'LEFT', 'positionCoords': [188.52, 82.5], 'bid': 6.5200000000000005}, {'imgObject': {}, 'id': 'bagel and cc', 'src': '/static/foodstim60/bagel and cc.jpg', 'key': 'i', 'origWidth': 410, 'origHeight': 410, 'width': 410, 'height': 410, 'widthPercent': 0.45, 'rescaleHeight': False, 'trialN': 7, 'loaded': True, 'loadedTime': 3635.9000000059605, 'positionName': 'RIGHT', 'positionCoords': [649.48, 83], 'bid': 6.2700000000000005}]",17411.0,1669830236215,corn cob,bagel and cc,6.5200000000000005,6.2700000000000005,-0.25,bagel and cc,904.2000000029802,906,906.3000000119209,True,i,18820.70000000298,1409.7000000029802,1669830237625,1410,HRV,HRV_0009,2022-11-30 17:49:51
8,"[{'imgObject': {}, 'id': 'roastedpotatoes', 'src': '/static/foodstim60/roastedpotatoes.jpg', 'key': 'u', 'origWidth': 409, 'origHeight': 410, 'width': 409, 'height': 410, 'widthPercent': 0.45, 'rescaleHeight': False, 'trialN': 8, 'loaded': True, 'loadedTime': 3554.5, 'positionName': 'LEFT', 'positionCoords': [190.52, 83], 'bid': 8.51}, {'imgObject': {}, 'id': 'shreddedwheatwithmilk', 'src': '/static/foodstim60/shreddedwheatwithmilk.jpg', 'key': 'i', 'origWidth': 410, 'origHeight': 410, 'width': 410, 'height': 410, 'widthPercent': 0.45, 'rescaleHeight': False, 'trialN': 8, 'loaded': True, 'loadedTime': 3581.1000000089407, 'positionName': 'RIGHT', 'positionCoords': [649.48, 83], 'bid': 5.0200000000000005}]",18821.20000000298,1669830237625,roastedpotatoes,shreddedwheatwithmilk,8.51,5.0200000000000005,-3.4899999999999993,roastedpotatoes,1265.1000000089407,1266,1266.0,True,u,20598.60000000894,1777.4000000059605,1669830239403,1778,HRV,HRV_0009,2022-11-30 17:49:51
9,"[{'imgObject': {}, 'id': 'avocado', 'src': '/static/foodstim60/avocado.jpg', 'key': 'u', 'origWidth': 409, 'origHeight': 409, 'width': 409, 'height': 409, 'widthPercent': 0.45, 'rescaleHeight': False, 'trialN': 9, 'loaded': True, 'loadedTime': 3606.6000000089407, 'positionName': 'LEFT', 'positionCoords': [190.52, 83.5], 'bid': 4.6000000000000005}, {'imgObject': {}, 'id': 'shreddedwheatwithmilk', 'src': '/static/foodstim60/shreddedwheatwithmilk.jpg', 'key': 'i', 'origWidth': 410, 'origHeight': 410, 'width': 410, 'height': 410, 'widthPercent': 0.45, 'rescaleHeight': False, 'trialN': 9, 'loaded': True, 'loadedTime': 3578.5, 'positionName': 'RIGHT', 'positionCoords': [649.48, 83], 'bid': 5.0200000000000005}]",20599.0,1669830239403,avocado,shreddedwheatwithmilk,4.6000000000000005,5.0200000000000005,0.41999999999999993,shreddedwheatwithmilk,1704.5,1722,1721.7000000029802,True,i,22825.80000001192,2226.800000011921,1669830241630,2227,HRV,HRV_0009,2022-11-30 17:49:51
10,"[{'imgObject': {}, 'id': 'mango', 'src': '/static/foodstim60/mango.jpg', 'key': 'u', 'origWidth': 411, 'origHeight': 411, 'width': 411, 'height': 411, 'widthPercent': 0.45, 'rescaleHeight': False, 'trialN': 10, 'loaded': True, 'loadedTime': 3464.1000000089407, 'positionName': 'LEFT', 'positionCoords': [188.52, 82.5], 'bid': 1.11}, {'imgObject': {}, 'id': 'cheerios', 'src': '/static/foodstim60/cheerios.jpg', 'key': 'i', 'origWidth': 409, 'origHeight': 410, 'width': 409, 'height': 410, 'widthPercent': 0.45, 'rescaleHeight': False, 'trialN': 10, 'loaded': True, 'loadedTime': 3613.7000000029802, 'positionName': 'RIGHT', 'positionCoords': [649.48, 83], 'bid': 4.22}]",22826.30000001192,1669830241630,mango,cheerios,1.11,4.22,3.1099999999999994,cheerios,980.7999999970198,982,981.6999999880791,True,i,24322.5,1496.199999988079,1669830243127,1497,HRV,HRV_0009,2022-11-30 17:49:51
11,"[{'imgObject': {}, 'id': 'shreddedwheatwithmilk', 'src': '/static/foodstim60/shreddedwheatwithmilk.jpg', 'key': 'u', 'origWidth': 410, 'origHeight': 410, 'width': 410, 'height': 410, 'widthPercent': 0.45, 'rescaleHeight': False, 'trialN': 11, 'loaded': True, 'loadedTime': 3580.7000000029802, 'positionName': 'LEFT', 'positionCoords': [189.52, 83], 'bid': 5.0200000000000005}, {'imgObject': {}, 'id': 'cantaloupe', 'src': '/static/foodstim60/cantaloupe.jpg', 'key': 'i', 'origWidth': 409, 'origHeight': 409, 'width': 409, 'height': 409, 'widthPercent': 0.45, 'rescaleHeight': False, 'trialN': 11, 'loaded': True, 'loadedTime': 3640.4000000059605, 'positionName': 'RIGHT', 'positionCoords': [649.48, 83.5], 'bid': 5.32}]",24322.80000001192,1669830243127,shreddedwheatwithmilk,cantaloupe,5.0200000000000005,5.32,0.2999999999999998,shreddedwheatwithmilk,1292,1293,1292.7999999970198,True,u,26121.60000000894,1798.7999999970198,1669830244926,1799,HRV,HRV_0009,2022-11-30 17:49:51
12,"[{'imgObject': {}, 'id': 'sweetpotato', 'src': '/static/foodstim60/sweetpotato.jpg', 'key': 'u', 'origWidth': 410, 'origHeight': 410, 'width': 410, 'height': 410, 'widthPercent': 0.45, 'rescaleHeight': False, 'trialN': 12, 'loaded': True, 'loadedTime': 3646.7000000029802, 'positionName': 'LEFT', 'positionCoords': [189.52, 83], 'bid': 8.49}, {'imgObject': {}, 'id': 'roastedpotatoes', 'src': '/static/foodstim60/roastedpotatoes.jpg', 'key': 'i', 'origWidth': 409, 'origHeight': 410, 'width': 409, 'height': 410, 'widthPercent': 0.45, 'rescaleHeight': False, 'trialN': 12, 'loaded': True, 'loadedTime': 3572.7000000029802, 'positionName': 'RIGHT', 'positionCoords': [649.48, 83], 'bid': 8.51}]",26122.0,1669830244926,sweetpotato,roastedpotatoes,8.49,8.51,0.019999999999999574,roastedpotatoes,950.1000000089407,951,950.9000000059605,True,i,27575.20000000298,1453.2000000029802,1669830246379,1453,HRV,HRV_0009,2022-11-30 17:49:51
13,"[{'imgObject': {}, 'id': 'pear', 'src': '/static/foodstim60/pear.jpg', 'key': 'u', 'origWidth': 411, 'origHeight': 410, 'width': 411, 'height': 410, 'widthPercent': 0.45, 'rescaleHeight': False, 'trialN': 13, 'loaded': True, 'loadedTime': 3672.300000011921, 'positionName': 'LEFT', 'positionCoords': [188.52, 83], 'bid': 3.77}, {'imgObject': {}, 'id': 'sushi w_condiments', 'src': '/static/foodstim60/sushi w_condiments.jpg', 'key': 'i', 'origWidth': 410, 'origHeight': 410, 'width': 410, 'height': 410, 'widthPercent': 0.45, 'rescaleHeight': False, 'trialN': 13, 'loaded': True, 'loadedTime': 3439.800000011921, 'positionName': 'RIGHT', 'positionCoords': [649.48, 83], 'bid': 9.34}]",27575.60000000894,1669830246380,pear,sushi w_condiments,3.77,9.34,5.57,sushi w_condiments,1309.0999999940395,1310,1310.0999999940395,True,i,29388.20000000298,1812.5999999940395,1669830248192,1812,HRV,HRV_0009,2022-11-30 17:49:51
14,"[{'imgObject': {}, 'id': 'Tribe humus pita', 'src': '/static/foodstim60/Tribe humus pita.jpg', 'key': 'u', 'origWidth': 411, 'origHeight': 411, 'width': 411, 'height': 411, 'widthPercent': 0.45, 'rescaleHeight': False, 'trialN': 14, 'loaded': True, 'loadedTime': 3676.5, 'positionName': 'LEFT', 'positionCoords': [188.52, 82.5], 'bid': 6.41}, {'imgObject': {}, 'id': 'rigatoni', 'src': '/static/foodstim60/rigatoni.jpg', 'key': 'i', 'origWidth': 411, 'origHeight': 411, 'width': 411, 'height': 411, 'widthPercent': 0.45, 'rescaleHeight': False, 'trialN': 14, 'loaded': True, 'loadedTime': 3544.300000011921, 'positionName': 'RIGHT', 'positionCoords': [649.48, 82.5], 'bid': 4.91}]",29388.70000000298,1669830248193,Tribe humus pita,rigatoni,6.41,4.91,-1.5,Tribe humus pita,1196.1000000089407,1197,1197.0,True,u,31097.70000000298,1709.0,1669830249902,1709,HRV,HRV_0009,2022-11-30 17:49:51
15,"[{'imgObject': {}, 'id': 'granola w milk', 'src': '/static/foodstim60/granola w milk.jpg', 'key': 'u', 'origWidth': 410, 'origHeight': 410, 'width': 410, 'height': 410, 'widthPercent': 0.45, 'rescaleHeight': False, 'trialN': 15, 'loaded': True, 'loadedTime': 3701.1000000089407, 'positionName': 'LEFT', 'positionCoords': [189.52, 83], 'bid': 5.96}, {'imgObject': {}, 'id': 'olives', 'src': '/static/foodstim60/olives.jpg', 'key': 'i', 'origWidth': 410, 'origHeight': 410, 'width': 410, 'height': 410, 'widthPercent': 0.45, 'rescaleHeight': False, 'trialN': 15, 'loaded': True, 'loadedTime': 3705.800000011921, 'positionName': 'RIGHT', 'positionCoords': [649.48, 83], 'bid': 0.17}]",31098.0,1669830249902,granola w milk,olives,5.96,0.17,-5.79,granola w milk,1406.2000000029802,1402,1407.2000000029802,True,u,33009.90000000596,1911.9000000059605,1669830251809,1907,HRV,HRV_0009,2022-11-30 17:49:51
16,"[{'imgObject': {}, 'id': 'cherry tomato', 'src': '/static/foodstim60/cherry tomato.jpg', 'key': 'u', 'origWidth': 410, 'origHeight': 410, 'width': 410, 'height': 410, 'widthPercent': 0.45, 'rescaleHeight': False, 'trialN': 16, 'loaded': True, 'loadedTime': 3745.7000000029802, 'positionName': 'LEFT', 'positionCoords': [189.52, 83], 'bid': 4.7}, {'imgObject': {}, 'id': 'avocado', 'src': '/static/foodstim60/avocado.jpg', 'key': 'i', 'origWidth': 409, 'origHeight': 409, 'width': 409, 'height': 409, 'widthPercent': 0.45, 'rescaleHeight': False, 'trialN': 16, 'loaded': True, 'loadedTime': 3610, 'positionName': 'RIGHT', 'positionCoords': [649.48, 83.5], 'bid': 4.6000000000000005}]",33010.30000001192,1669830251809,cherry tomato,avocado,4.7,4.6000000000000005,-0.09999999999999964,avocado,1945.8999999910593,1947,1946.7999999970198,True,i,35469.70000000298,2459.3999999910593,1669830254269,2460,HRV,HRV_0009,2022-11-30 17:49:51
17,"[{'imgObject': {}, 'id': 'lox', 'src': '/static/foodstim60/lox.jpg', 'key': 'u', 'origWidth': 410, 'origHeight': 411, 'width': 410, 'height': 411, 'widthPercent': 0.45, 'rescaleHeight': False, 'trialN': 17, 'loaded': True, 'loadedTime': 3764.6000000089407, 'positionName': 'LEFT', 'positionCoords': [189.52, 82.5], 'bid': 0.86}, {'imgObject': {}, 'id': 'bagel and cc', 'src': '/static/foodstim60/bagel and cc.jpg', 'key': 'i', 'origWidth': 410, 'origHeight': 410, 'width': 410, 'height': 410, 'widthPercent': 0.45, 'rescaleHeight': False, 'trialN': 17, 'loaded': True, 'loadedTime': 3635, 'positionName': 'RIGHT', 'positionCoords': [649.48, 83], 'bid': 6.2700000000000005}]",35470.20000000298,1669830254269,lox,bagel and cc,0.86,6.2700000000000005,5.41,bagel and cc,1067.2000000029802,1068,1068.1000000089407,True,i,37042.20000000298,1572.0,1669830255841,1572,HRV,HRV_0009,2022-11-30 17:49:51
18,"[{'imgObject': {}, 'id': 'sushi w_condiments', 'src': '/static/foodstim60/sushi w_condiments.jpg', 'key': 'u', 'origWidth': 410, 'origHeight': 410, 'width': 410, 'height': 410, 'widthPercent': 0.45, 'rescaleHeight': False, 'trialN': 18, 'loaded': True, 'loadedTime': 3440.300000011921, 'positionName': 'LEFT', 'positionCoords': [189.52, 83], 'bid': 9.34}, {'imgObject': {}, 'id': 'luckycharms', 'src': '/static/foodstim60/luckycharms.jpg', 'key': 'i', 'origWidth': 410, 'origHeight': 409, 'width': 410, 'height': 409, 'widthPercent': 0.45, 'rescaleHeight': False, 'trialN': 18, 'loaded': True, 'loadedTime': 3404, 'positionName': 'RIGHT', 'positionCoords': [649.48, 83.5], 'bid': 6.11}]",37042.60000000894,1669830255842,sushi w_condiments,luckycharms,9.34,6.11,-3.2299999999999995,luckycharms,899.5999999940395,901,901.2000000029802,True,i,38455.10000000894,1412.5,1669830257254,1412,HRV,HRV_0009,2022-11-30 17:49:51
19,"[{'imgObject': {}, 'id': 'Grapes', 'src': '/static/foodstim60/Grapes.jpg', 'key': 'u', 'origWidth': 411, 'origHeight': 411, 'width': 411, 'height': 411, 'widthPercent': 0.45, 'rescaleHeight': False, 'trialN': 19, 'loaded': True, 'loadedTime': 3800.5, 'positionName': 'LEFT', 'positionCoords': [188.52, 82.5], 'bid': 3.79}, {'imgObject': {}, 'id': 'banana', 'src': '/static/foodstim60/banana.jpg', 'key': 'i', 'origWidth': 410, 'origHeight': 410, 'width': 410, 'height': 410, 'widthPercent': 0.45, 'rescaleHeight': False, 'trialN': 19, 'loaded': True, 'loadedTime': 3808.2000000029802, 'positionName': 'RIGHT', 'positionCoords': [649.48, 83], 'bid': 5.6000000000000005}]",38455.5,1669830257255,Grapes,banana,3.79,5.6000000000000005,1.8100000000000005,banana,2147.2000000029802,2148,2148.0,True,i,41114.20000000298,2658.7000000029802,1669830259913,2658,HRV,HRV_0009,2022-11-30 17:49:51
20,"[{'imgObject': {}, 'id': 'rigatoni', 'src': '/static/foodstim60/rigatoni.jpg', 'key': 'u', 'origWidth': 411, 'origHeight': 411, 'width': 411, 'height': 411, 'widthPercent': 0.45, 'rescaleHeight': False, 'trialN': 20, 'loaded': True, 'loadedTime': 3544.1000000089407, 'positionName': 'LEFT', 'positionCoords': [188.52, 82.5], 'bid': 4.91}, {'imgObject': {}, 'id': 'fruitsalad', 'src': '/static/foodstim60/fruitsalad.jpg', 'key': 'i', 'origWidth': 410, 'origHeight': 410, 'width': 410, 'height': 410, 'widthPercent': 0.45, 'rescaleHeight': False, 'trialN': 20, 'loaded': True, 'loadedTime': 3494.9000000059605, 'positionName': 'RIGHT', 'positionCoords': [649.48, 83], 'bid': 1.9}]",41114.70000000298,1669830259914,rigatoni,fruitsalad,4.91,1.9,-3.0100000000000002,rigatoni,1316,1318,1318.5,True,u,42939.0,1824.2999999970198,1669830261738,1824,HRV,HRV_0009,2022-11-30 17:49:51
21,"[{'imgObject': {}, 'id': 'chickenfingers', 'src': '/static/foodstim60/chickenfingers.jpg', 'key': 'u', 'origWidth': 410, 'origHeight': 410, 'width': 410, 'height': 410, 'widthPercent': 0.45, 'rescaleHeight': False, 'trialN': 21, 'loaded': True, 'loadedTime': 3810.4000000059605, 'positionName': 'LEFT', 'positionCoords': [189.52, 83], 'bid': 9.17}, {'imgObject': {}, 'id': 'granola w milk', 'src': '/static/foodstim60/granola w milk.jpg', 'key': 'i', 'origWidth': 410, 'origHeight': 410, 'width': 410, 'height': 410, 'widthPercent': 0.45, 'rescaleHeight': False, 'trialN': 21, 'loaded': True, 'loadedTime': 3701.300000011921, 'positionName': 'RIGHT', 'positionCoords': [649.48, 83], 'bid': 5.96}]",42939.40000000596,1669830261739,chickenfingers,granola w milk,9.17,5.96,-3.21,chickenfingers,1152.2000000029802,1153,1153.0999999940395,True,u,44599.30000001192,1659.9000000059605,1669830263398,1659,HRV,HRV_0009,2022-11-30 17:49:51
22,"[{'imgObject': {}, 'id': 'eggs', 'src': '/static/foodstim60/eggs.jpg', 'key': 'u', 'origWidth': 409, 'origHeight': 409, 'width': 409, 'height': 409, 'widthPercent': 0.45, 'rescaleHeight': False, 'trialN': 22, 'loaded': True, 'loadedTime': 3834.6000000089407, 'positionName': 'LEFT', 'positionCoords': [190.52, 83.5], 'bid': 9.73}, {'imgObject': {}, 'id': 'avocado', 'src': '/static/foodstim60/avocado.jpg', 'key': 'i', 'origWidth': 409, 'origHeight': 409, 'width': 409, 'height': 409, 'widthPercent': 0.45, 'rescaleHeight': False, 'trialN': 22, 'loaded': True, 'loadedTime': 3608.4000000059605, 'positionName': 'RIGHT', 'positionCoords': [649.48, 83.5], 'bid': 4.6000000000000005}]",44599.70000000298,1669830263399,eggs,avocado,9.73,4.6000000000000005,-5.13,eggs,1196,1197,1196.9000000059605,True,u,46301.40000000596,1701.7000000029802,1669830265100,1701,HRV,HRV_0009,2022-11-30 17:49:51
23,"[{'imgObject': {}, 'id': 'shreddedwheatwithmilk', 'src': '/static/foodstim60/shreddedwheatwithmilk.jpg', 'key': 'u', 'origWidth': 410, 'origHeight': 410, 'width': 410, 'height': 410, 'widthPercent': 0.45, 'rescaleHeight': False, 'trialN': 23, 'loaded': True, 'loadedTime': 3582.6000000089407, 'positionName': 'LEFT', 'positionCoords': [189.52, 83], 'bid': 5.0200000000000005}, {'imgObject': {}, 'id': 'pear', 'src': '/static/foodstim60/pear.jpg', 'key': 'i', 'origWidth': 411, 'origHeight': 410, 'width': 411, 'height': 410, 'widthPercent': 0.45, 'rescaleHeight': False, 'trialN': 23, 'loaded': True, 'loadedTime': 3672.5, 'positionName': 'RIGHT', 'positionCoords': [649.48, 83], 'bid': 3.77}]",46301.80000001192,1669830265101,shreddedwheatwithmilk,pear,5.0200000000000005,3.77,-1.2500000000000004,shreddedwheatwithmilk,895.0999999940395,896,895.8999999910593,True,u,47710.0,1408.199999988079,1669830266509,1408,HRV,HRV_0009,2022-11-30 17:49:51
24,"[{'imgObject': {}, 'id': 'eggsalad', 'src': '/static/foodstim60/eggsalad.jpg', 'key': 'u', 'origWidth': 410, 'origHeight': 409, 'width': 410, 'height': 409, 'widthPercent': 0.45, 'rescaleHeight': False, 'trialN': 24, 'loaded': True, 'loadedTime': 3864.2000000029802, 'positionName': 'LEFT', 'positionCoords': [189.52, 83.5], 'bid': 0.09}, {'imgObject': {}, 'id': 'popsicles', 'src': '/static/foodstim60/popsicles.jpg', 'key': 'i', 'origWidth': 410, 'origHeight': 410, 'width': 410, 'height': 410, 'widthPercent': 0.45, 'rescaleHeight': False, 'trialN': 24, 'loaded': True, 'loadedTime': 3872.300000011921, 'positionName': 'RIGHT', 'positionCoords': [649.48, 83], 'bid': 0.04}]",47710.40000000596,1669830266510,eggsalad,popsicles,0.09,0.04,-0.049999999999999996,popsicles,1415,1416,1416.0,True,i,49631.60000000894,1921.2000000029802,1669830268431,1921,HRV,HRV_0009,2022-11-30 17:49:51
25,"[{'imgObject': {}, 'id': 'blueberries', 'src': '/static/foodstim60/blueberries.jpg', 'key': 'u', 'origWidth': 411, 'origHeight': 411, 'width': 411, 'height': 411, 'widthPercent': 0.45, 'rescaleHeight': False, 'trialN': 25, 'loaded': True, 'loadedTime': 3876.800000011921, 'positionName': 'LEFT', 'positionCoords': [188.52, 82.5], 'bid': 1.59}, {'imgObject': {}, 'id': 'cherry tomato', 'src': '/static/foodstim60/cherry tomato.jpg', 'key': 'i', 'origWidth': 410, 'origHeight': 410, 'width': 410, 'height': 410, 'widthPercent': 0.45, 'rescaleHeight': False, 'trialN': 25, 'loaded': True, 'loadedTime': 3739.6000000089407, 'positionName': 'RIGHT', 'positionCoords': [649.48, 83], 'bid': 4.7}]",49632.0,1669830268431,blueberries,cherry tomato,1.59,4.7,3.1100000000000003,blueberries,1926.5,1927,1927.300000011921,True,u,52069.20000000298,2437.2000000029802,1669830270868,2437,HRV,HRV_0009,2022-11-30 17:49:51
26,"[{'imgObject': {}, 'id': 'sweetpotato', 'src': '/static/foodstim60/sweetpotato.jpg', 'key': 'u', 'origWidth': 410, 'origHeight': 410, 'width': 410, 'height': 410, 'widthPercent': 0.45, 'rescaleHeight': False, 'trialN': 26, 'loaded': True, 'loadedTime': 3647.4000000059605, 'positionName': 'LEFT', 'positionCoords': [189.52, 83], 'bid': 8.49}, {'imgObject': {}, 'id': 'raspberries', 'src': '/static/foodstim60/raspberries.jpg', 'key': 'i', 'origWidth': 411, 'origHeight': 411, 'width': 411, 'height': 411, 'widthPercent': 0.45, 'rescaleHeight': False, 'trialN': 26, 'loaded': True, 'loadedTime': 3880.4000000059605, 'positionName': 'RIGHT', 'positionCoords': [649.48, 82.5], 'bid': 2.65}]",52069.60000000894,1669830270869,sweetpotato,raspberries,8.49,2.65,-5.84,sweetpotato,1390.5,1391,1391.5999999940395,True,u,53974.70000000298,1905.0999999940395,1669830272774,1905,HRV,HRV_0009,2022-11-30 17:49:51
27,"[{'imgObject': {}, 'id': 'raisin bran w milk', 'src': '/static/foodstim60/raisin bran w milk.jpg', 'key': 'u', 'origWidth': 411, 'origHeight': 411, 'width': 411, 'height': 411, 'widthPercent': 0.45, 'rescaleHeight': False, 'trialN': 27, 'loaded': True, 'loadedTime': 3898.4000000059605, 'positionName': 'LEFT', 'positionCoords': [188.52, 82.5], 'bid': 4.92}, {'imgObject': {}, 'id': 'chicken nuggets2', 'src': '/static/foodstim60/chicken nuggets2.jpg', 'key': 'i', 'origWidth': 410, 'origHeight': 409, 'width': 410, 'height': 409, 'widthPercent': 0.45, 'rescaleHeight': False, 'trialN': 27, 'loaded': True, 'loadedTime': 3905.9000000059605, 'positionName': 'RIGHT', 'positionCoords': [649.48, 83.5], 'bid': 4.97}]",53975.0,1669830272774,raisin bran w milk,chicken nuggets2,4.92,4.97,0.04999999999999982,raisin bran w milk,1708.7000000029802,1710,1709.6000000089407,True,u,56195.60000000894,2220.6000000089407,1669830274995,2221,HRV,HRV_0009,2022-11-30 17:49:51
28,"[{'imgObject': {}, 'id': 'salmon', 'src': '/static/foodstim60/salmon.jpg', 'key': 'u', 'origWidth': 410, 'origHeight': 409, 'width': 410, 'height': 409, 'widthPercent': 0.45, 'rescaleHeight': False, 'trialN': 28, 'loaded': True, 'loadedTime': 3911.2000000029802, 'positionName': 'LEFT', 'positionCoords': [189.52, 83.5], 'bid': 9.84}, {'imgObject': {}, 'id': 'burger', 'src': '/static/foodstim60/burger.jpg', 'key': 'i', 'origWidth': 409, 'origHeight': 409, 'width': 409, 'height': 409, 'widthPercent': 0.45, 'rescaleHeight': False, 'trialN': 28, 'loaded': True, 'loadedTime': 3912.9000000059605, 'positionName': 'RIGHT', 'positionCoords': [649.48, 83.5], 'bid': 8.65}]",56195.90000000596,1669830274995,salmon,burger,9.84,8.65,-1.1899999999999995,burger,2353.5999999940395,2354,2354.5,True,i,59053.40000000596,2857.5,1669830277853,2858,HRV,HRV_0009,2022-11-30 17:49:51
29,"[{'imgObject': {}, 'id': 'grilled chicken strips', 'src': '/static/foodstim60/grilled chicken strips.jpg', 'key': 'u', 'origWidth': 410, 'origHeight': 411, 'width': 410, 'height': 411, 'widthPercent': 0.45, 'rescaleHeight': False, 'trialN': 29, 'loaded': True, 'loadedTime': 3934.4000000059605, 'positionName': 'LEFT', 'positionCoords': [189.52, 82.5], 'bid': 10}, {'imgObject': {}, 'id': 'chicken nuggets2', 'src': '/static/foodstim60/chicken nuggets2.jpg', 'key': 'i', 'origWidth': 410, 'origHeight': 409, 'width': 410, 'height': 409, 'widthPercent': 0.45, 'rescaleHeight': False, 'trialN': 29, 'loaded': True, 'loadedTime': 3900.300000011921, 'positionName': 'RIGHT', 'positionCoords': [649.48, 83.5], 'bid': 4.97}]",59053.80000001192,1669830277853,grilled chicken strips,chicken nuggets2,10.0,4.97,-5.03,grilled chicken strips,1340.5,1341,1341.2999999970198,True,u,60910.60000000894,1856.7999999970198,1669830279710,1857,HRV,HRV_0009,2022-11-30 17:49:51
30,"[{'imgObject': {}, 'id': 'turkey sandwich', 'src': '/static/foodstim60/turkey sandwich.jpg', 'key': 'u', 'origWidth': 409, 'origHeight': 409, 'width': 409, 'height': 409, 'widthPercent': 0.45, 'rescaleHeight': False, 'trialN': 30, 'loaded': True, 'loadedTime': 3448, 'positionName': 'LEFT', 'positionCoords': [190.52, 83.5], 'bid': 8.61}, {'imgObject': {}, 'id': 'steak', 'src': '/static/foodstim60/steak.jpg', 'key': 'i', 'origWidth': 410, 'origHeight': 410, 'width': 410, 'height': 410, 'widthPercent': 0.45, 'rescaleHeight': False, 'trialN': 30, 'loaded': True, 'loadedTime': 3938.800000011921, 'positionName': 'RIGHT', 'positionCoords': [649.48, 83], 'bid': 9.84}]",60911.0,1669830279710,turkey sandwich,steak,8.61,9.84,1.2300000000000004,steak,1042.2000000029802,1043,1043.1000000089407,True,i,62455.5,1544.5,1669830281255,1545,HRV,HRV_0009,2022-11-30 17:49:51
31,"[{'imgObject': {}, 'id': 'steak', 'src': '/static/foodstim60/steak.jpg', 'key': 'u', 'origWidth': 410, 'origHeight': 410, 'width': 410, 'height': 410, 'widthPercent': 0.45, 'rescaleHeight': False, 'trialN': 31, 'loaded': True, 'loadedTime': 3939.300000011921, 'positionName': 'LEFT', 'positionCoords': [189.52, 83], 'bid': 9.84}, {'imgObject': {}, 'id': 'fried eggs', 'src': '/static/foodstim60/fried eggs.jpg', 'key': 'i', 'origWidth': 410, 'origHeight': 410, 'width': 410, 'height': 410, 'widthPercent': 0.45, 'rescaleHeight': False, 'trialN': 31, 'loaded': True, 'loadedTime': 3944, 'positionName': 'RIGHT', 'positionCoords': [649.48, 83], 'bid': 9.9}]",62456.0,1669830281255,steak,fried eggs,9.84,9.9,0.0600000000000005,steak,1078.7000000029802,1080,1079.5,True,u,64042.10000000894,1586.1000000089407,1669830282841,1586,HRV,HRV_0009,2022-11-30 17:49:51
32,"[{'imgObject': {}, 'id': 'bagel plain', 'src': '/static/foodstim60/bagel plain.jpg', 'key': 'u', 'origWidth': 410, 'origHeight': 410, 'width': 410, 'height': 410, 'widthPercent': 0.45, 'rescaleHeight': False, 'trialN': 32, 'loaded': True, 'loadedTime': 3407.300000011921, 'positionName': 'LEFT', 'positionCoords': [189.52, 83], 'bid': 5.93}, {'imgObject': {}, 'id': 'hashbrowns', 'src': '/static/foodstim60/hashbrowns.jpg', 'key': 'i', 'origWidth': 411, 'origHeight': 410, 'width': 411, 'height': 410, 'widthPercent': 0.45, 'rescaleHeight': False, 'trialN': 32, 'loaded': True, 'loadedTime': 3965.2000000029802, 'positionName': 'RIGHT', 'positionCoords': [649.48, 83], 'bid': 0.15}]",64042.5,1669830282842,bagel plain,hashbrowns,5.93,0.15,-5.779999999999999,bagel plain,1370.4000000059605,1371,1371.300000011921,True,u,65923.0,1880.5,1669830284722,1880,HRV,HRV_0009,2022-11-30 17:49:51
33,"[{'imgObject': {}, 'id': 'veggieswithdip', 'src': '/static/foodstim60/veggieswithdip.jpg', 'key': 'u', 'origWidth': 409, 'origHeight': 409, 'width': 409, 'height': 409, 'widthPercent': 0.45, 'rescaleHeight': False, 'trialN': 33, 'loaded': True, 'loadedTime': 3457.300000011921, 'positionName': 'LEFT', 'positionCoords': [190.52, 83.5], 'bid': 6.94}, {'imgObject': {}, 'id': 'blueberries', 'src': '/static/foodstim60/blueberries.jpg', 'key': 'i', 'origWidth': 411, 'origHeight': 411, 'width': 411, 'height': 411, 'widthPercent': 0.45, 'rescaleHeight': False, 'trialN': 33, 'loaded': True, 'loadedTime': 3876.6000000089407, 'positionName': 'RIGHT', 'positionCoords': [649.48, 82.5], 'bid': 1.59}]",65923.30000001192,1669830284722,veggieswithdip,blueberries,6.94,1.59,-5.3500000000000005,veggieswithdip,1484.0999999940395,1485,1484.8999999910593,True,u,67922.40000000596,1999.0999999940395,1669830286722,2000,HRV,HRV_0009,2022-11-30 17:49:51
34,"[{'imgObject': {}, 'id': 'ice cream sundae 002', 'src': '/static/foodstim60/ice cream sundae 002.jpg', 'key': 'u', 'origWidth': 409, 'origHeight': 409, 'width': 409, 'height': 409, 'widthPercent': 0.45, 'rescaleHeight': False, 'trialN': 34, 'loaded': True, 'loadedTime': 3974.4000000059605, 'positionName': 'LEFT', 'positionCoords': [190.52, 83.5], 'bid': 3.34}, {'imgObject': {}, 'id': 'eggsalad', 'src': '/static/foodstim60/eggsalad.jpg', 'key': 'i', 'origWidth': 410, 'origHeight': 409, 'width': 410, 'height': 409, 'widthPercent': 0.45, 'rescaleHeight': False, 'trialN': 34, 'loaded': True, 'loadedTime': 3849, 'positionName': 'RIGHT', 'positionCoords': [649.48, 83.5], 'bid': 0.09}]",67922.90000000596,1669830286722,ice cream sundae 002,eggsalad,3.34,0.09,-3.25,ice cream sundae 002,1662.9000000059605,1664,1664.0999999940395,True,u,70111.70000000298,2188.7999999970198,1669830288911,2189,HRV,HRV_0009,2022-11-30 17:49:51
35,"[{'imgObject': {}, 'id': 'froot loops w milk', 'src': '/static/foodstim60/froot loops w milk.jpg', 'key': 'u', 'origWidth': 410, 'origHeight': 410, 'width': 410, 'height': 410, 'widthPercent': 0.45, 'rescaleHeight': False, 'trialN': 35, 'loaded': True, 'loadedTime': 3979.300000011921, 'positionName': 'LEFT', 'positionCoords': [189.52, 83], 'bid': 3.75}, {'imgObject': {}, 'id': 'apple slices', 'src': '/static/foodstim60/apple slices.jpg', 'key': 'i', 'origWidth': 409, 'origHeight': 410, 'width': 409, 'height': 410, 'widthPercent': 0.45, 'rescaleHeight': False, 'trialN': 35, 'loaded': True, 'loadedTime': 3999.800000011921, 'positionName': 'RIGHT', 'positionCoords': [649.48, 83], 'bid': 3.45}]",70111.90000000596,1669830288911,froot loops w milk,apple slices,3.75,3.45,-0.2999999999999998,apple slices,2081.9000000059605,2083,2082.7000000029802,True,i,72705.0,2593.0999999940395,1669830291504,2593,HRV,HRV_0009,2022-11-30 17:49:51
36,"[{'imgObject': {}, 'id': 'fruitsalad', 'src': '/static/foodstim60/fruitsalad.jpg', 'key': 'u', 'origWidth': 410, 'origHeight': 410, 'width': 410, 'height': 410, 'widthPercent': 0.45, 'rescaleHeight': False, 'trialN': 36, 'loaded': True, 'loadedTime': 3496.4000000059605, 'positionName': 'LEFT', 'positionCoords': [189.52, 83], 'bid': 1.9}, {'imgObject': {}, 'id': 'orange slices', 'src': '/static/foodstim60/orange slices.jpg', 'key': 'i', 'origWidth': 409, 'origHeight': 410, 'width': 409, 'height': 410, 'widthPercent': 0.45, 'rescaleHeight': False, 'trialN': 36, 'loaded': True, 'loadedTime': 4000.9000000059605, 'positionName': 'RIGHT', 'positionCoords': [649.48, 83], 'bid': 3.58}]",72705.30000001192,1669830291504,fruitsalad,orange slices,1.9,3.58,1.6800000000000002,orange slices,1778.699999988079,1780,1779.5,True,i,74995.70000000298,2290.3999999910593,1669830293795,2291,HRV,HRV_0009,2022-11-30 17:49:51
37,"[{'imgObject': {}, 'id': 'sweetpotato', 'src': '/static/foodstim60/sweetpotato.jpg', 'key': 'u', 'origWidth': 410, 'origHeight': 410, 'width': 410, 'height': 410, 'widthPercent': 0.45, 'rescaleHeight': False, 'trialN': 37, 'loaded': True, 'loadedTime': 3644.5, 'positionName': 'LEFT', 'positionCoords': [189.52, 83], 'bid': 8.49}, {'imgObject': {}, 'id': 'turkey sandwich', 'src': '/static/foodstim60/turkey sandwich.jpg', 'key': 'i', 'origWidth': 409, 'origHeight': 409, 'width': 409, 'height': 409, 'widthPercent': 0.45, 'rescaleHeight': False, 'trialN': 37, 'loaded': True, 'loadedTime': 3447.2000000029802, 'positionName': 'RIGHT', 'positionCoords': [649.48, 83.5], 'bid': 8.61}]",74995.90000000596,1669830293795,sweetpotato,turkey sandwich,8.49,8.61,0.11999999999999922,turkey sandwich,1534.7000000029802,1536,1535.5,True,i,77032.10000000894,2036.2000000029802,1669830295831,2036,HRV,HRV_0009,2022-11-30 17:49:51
38,"[{'imgObject': {}, 'id': 'salad w chicken', 'src': '/static/foodstim60/salad w chicken.jpg', 'key': 'u', 'origWidth': 411, 'origHeight': 411, 'width': 411, 'height': 411, 'widthPercent': 0.45, 'rescaleHeight': False, 'trialN': 38, 'loaded': True, 'loadedTime': 4029.6000000089407, 'positionName': 'LEFT', 'positionCoords': [188.52, 82.5], 'bid': 9.63}, {'imgObject': {}, 'id': 'Tribe humus pita', 'src': '/static/foodstim60/Tribe humus pita.jpg', 'key': 'i', 'origWidth': 411, 'origHeight': 411, 'width': 411, 'height': 411, 'widthPercent': 0.45, 'rescaleHeight': False, 'trialN': 38, 'loaded': True, 'loadedTime': 3678.7000000029802, 'positionName': 'RIGHT', 'positionCoords': [649.48, 82.5], 'bid': 6.41}]",77032.40000000596,1669830295832,salad w chicken,Tribe humus pita,9.63,6.41,-3.2200000000000006,salad w chicken,1508,1508,1508.9000000059605,True,u,79048.10000000894,2015.7000000029802,1669830297847,2015,HRV,HRV_0009,2022-11-30 17:49:51
39,"[{'imgObject': {}, 'id': 'seaweed', 'src': '/static/foodstim60/seaweed.jpg', 'key': 'u', 'origWidth': 410, 'origHeight': 410, 'width': 410, 'height': 410, 'widthPercent': 0.45, 'rescaleHeight': False, 'trialN': 39, 'loaded': True, 'loadedTime': 3551.5, 'positionName': 'LEFT', 'positionCoords': [189.52, 83], 'bid': 0.15}, {'imgObject': {}, 'id': 'hashbrowns', 'src': '/static/foodstim60/hashbrowns.jpg', 'key': 'i', 'origWidth': 411, 'origHeight': 410, 'width': 411, 'height': 410, 'widthPercent': 0.45, 'rescaleHeight': False, 'trialN': 39, 'loaded': True, 'loadedTime': 3965.1000000089407, 'positionName': 'RIGHT', 'positionCoords': [649.48, 83], 'bid': 0.15}]",79048.5,1669830297848,seaweed,hashbrowns,0.15,0.15,0.0,NaN,NaN,NaN,,False,NaN,83067.10000000894,4018.6000000089407,1669830301866,4018,HRV,HRV_0009,2022-11-30 17:49:51
40,"[{'imgObject': {}, 'id': 'popsicles', 'src': '/static/foodstim60/popsicles.jpg', 'key': 'u', 'origWidth': 410, 'origHeight': 410, 'width': 410, 'height': 410, 'widthPercent': 0.45, 'rescaleHeight': False, 'trialN': 40, 'loaded': True, 'loadedTime': 3870.6000000089407, 'positionName': 'LEFT', 'positionCoords': [189.52, 83], 'bid': 0.04}, {'imgObject': {}, 'id': 'blueberries', 'src': '/static/foodstim60/blueberries.jpg', 'key': 'i', 'origWidth': 411, 'origHeight': 411, 'width': 411, 'height': 411, 'widthPercent': 0.45, 'rescaleHeight': False, 'trialN': 40, 'loaded': True, 'loadedTime': 3876.800000011921, 'positionName': 'RIGHT', 'positionCoords': [649.48, 82.5], 'bid': 1.59}]",83068.20000000298,1669830301867,popsicles,blueberries,0.04,1.59,1.55,popsicles,2384.9000000059605,2386,2385.7000000029802,True,u,85956.60000000894,2888.4000000059605,1669830304756,2889,HRV,HRV_0009,2022-11-30 17:49:51
41,"[{'imgObject': {}, 'id': 'hashbrowns', 'src': '/static/foodstim60/hashbrowns.jpg', 'key': 'u', 'origWidth': 411, 'origHeight': 410, 'width': 411, 'height': 410, 'widthPercent': 0.45, 'rescaleHeight': False, 'trialN': 41, 'loaded': True, 'loadedTime': 3965.5, 'positionName': 'LEFT', 'positionCoords': [188.52, 83], 'bid': 0.15}, {'imgObject': {}, 'id': 'cherries', 'src': '/static/foodstim60/cherries.jpg', 'key': 'i', 'origWidth': 410, 'origHeight': 411, 'width': 410, 'height': 411, 'widthPercent': 0.45, 'rescaleHeight': False, 'trialN': 41, 'loaded': True, 'loadedTime': 4015.1000000089407, 'positionName': 'RIGHT', 'positionCoords': [649.48, 82.5], 'bid': 2.47}]",85957.0,1669830304756,hashbrowns,cherries,0.15,2.47,2.3200000000000003,hashbrowns,2572,2573,2572.9000000059605,True,u,89031.70000000298,3074.7000000029802,1669830307831,3075,HRV,HRV_0009,2022-11-30 17:49:51
42,"[{'imgObject': {}, 'id': 'rigatoni', 'src': '/static/foodstim60/rigatoni.jpg', 'key': 'u', 'origWidth': 411, 'origHeight': 411, 'width': 411, 'height': 411, 'widthPercent': 0.45, 'rescaleHeight': False, 'trialN': 42, 'loaded': True, 'loadedTime': 3524.4000000059605, 'positionName': 'LEFT', 'positionCoords': [188.52, 82.5], 'bid': 4.91}, {'imgObject': {}, 'id': 'salmon', 'src': '/static/foodstim60/salmon.jpg', 'key': 'i', 'origWidth': 410, 'origHeight': 409, 'width': 410, 'height': 409, 'widthPercent': 0.45, 'rescaleHeight': False, 'trialN': 42, 'loaded': True, 'loadedTime': 3912.6000000089407, 'positionName': 'RIGHT', 'positionCoords': [649.48, 83.5], 'bid': 9.84}]",89032.20000000298,1669830307831,rigatoni,salmon,4.91,9.84,4.93,salmon,994.4000000059605,995,995.1000000089407,True,i,90534.20000000298,1502.0,1669830309333,1502,HRV,HRV_0009,2022-11-30 17:49:51
43,"[{'imgObject': {}, 'id': 'eggs', 'src': '/static/foodstim60/eggs.jpg', 'key': 'u', 'origWidth': 409, 'origHeight': 409, 'width': 409, 'height': 409, 'widthPercent': 0.45, 'rescaleHeight': False, 'trialN': 43, 'loaded': True, 'loadedTime': 3838.300000011921, 'positionName': 'LEFT', 'positionCoords': [190.52, 83.5], 'bid': 9.73}, {'imgObject': {}, 'id': 'blackbeanswithrice', 'src': '/static/foodstim60/blackbeanswithrice.jpg', 'key': 'i', 'origWidth': 410, 'origHeight': 410, 'width': 410, 'height': 410, 'widthPercent': 0.45, 'rescaleHeight': False, 'trialN': 43, 'loaded': True, 'loadedTime': 4018.7000000029802, 'positionName': 'RIGHT', 'positionCoords': [649.48, 83], 'bid': 6.91}]",90534.60000000894,1669830309334,eggs,blackbeanswithrice,9.73,6.91,-2.8200000000000003,blackbeanswithrice,1730.5999999940395,1731,1731.3999999910593,True,i,92768.90000000596,2234.2999999970198,1669830311573,2239,HRV,HRV_0009,2022-11-30 17:49:51
44,"[{'imgObject': {}, 'id': 'hashbrowns', 'src': '/static/foodstim60/hashbrowns.jpg', 'key': 'u', 'origWidth': 411, 'origHeight': 410, 'width': 411, 'height': 410, 'widthPercent': 0.45, 'rescaleHeight': False, 'trialN': 44, 'loaded': True, 'loadedTime': 3964.9000000059605, 'positionName': 'LEFT', 'positionCoords': [188.52, 83], 'bid': 0.15}, {'imgObject': {}, 'id': 'eggsalad', 'src': '/static/foodstim60/eggsalad.jpg', 'key': 'i', 'origWidth': 410, 'origHeight': 409, 'width': 410, 'height': 409, 'widthPercent': 0.45, 'rescaleHeight': False, 'trialN': 44, 'loaded': True, 'loadedTime': 3839.6000000089407, 'positionName': 'RIGHT', 'positionCoords': [649.48, 83.5], 'bid': 0.09}]",92769.30000001192,1669830311574,hashbrowns,eggsalad,0.15,0.09,-0.06,hashbrowns,1895.699999988079,1896,1896.5999999940395,True,u,95169.90000000596,2400.5999999940395,1669830313974,2400,HRV,HRV_0009,2022-11-30 17:49:51
45,"[{'imgObject': {}, 'id': 'blueberries', 'src': '/static/foodstim60/blueberries.jpg', 'key': 'u', 'origWidth': 411, 'origHeight': 411, 'width': 411, 'height': 411, 'widthPercent': 0.45, 'rescaleHeight': False, 'trialN': 45, 'loaded': True, 'loadedTime': 3876.300000011921, 'positionName': 'LEFT', 'positionCoords': [188.52, 82.5], 'bid': 1.59}, {'imgObject': {}, 'id': 'olives', 'src': '/static/foodstim60/olives.jpg', 'key': 'i', 'origWidth': 410, 'origHeight': 410, 'width': 410, 'height': 410, 'widthPercent': 0.45, 'rescaleHeight': False, 'trialN': 45, 'loaded': True, 'loadedTime': 3729.300000011921, 'positionName': 'RIGHT', 'positionCoords': [649.48, 83], 'bid': 0.17}]",95170.30000001192,1669830313975,blueberries,olives,1.59,0.17,-1.4200000000000002,blueberries,861.5,862,862.2999999970198,True,u,96547.5,1377.199999988079,1669830315352,1377,HRV,HRV_0009,2022-11-30 17:49:51
46,"[{'imgObject': {}, 'id': 'chicken nuggets2', 'src': '/static/foodstim60/chicken nuggets2.jpg', 'key': 'u', 'origWidth': 410, 'origHeight': 409, 'width': 410, 'height': 409, 'widthPercent': 0.45, 'rescaleHeight': False, 'trialN': 46, 'loaded': True, 'loadedTime': 3905.800000011921, 'positionName': 'LEFT', 'positionCoords': [189.52, 83.5], 'bid': 4.97}, {'imgObject': {}, 'id': 'cantaloupe', 'src': '/static/foodstim60/cantaloupe.jpg', 'key': 'i', 'origWidth': 409, 'origHeight': 409, 'width': 409, 'height': 409, 'widthPercent': 0.45, 'rescaleHeight': False, 'trialN': 46, 'loaded': True, 'loadedTime': 3641.300000011921, 'positionName': 'RIGHT', 'positionCoords': [649.48, 83.5], 'bid': 5.32}]",96547.90000000596,1669830315352,chicken nuggets2,cantaloupe,4.97,5.32,0.35000000000000053,chicken nuggets2,1861.5,1863,1862.5999999940395,True,u,98922.30000001192,2374.4000000059605,1669830317727,2375,HRV,HRV_0009,2022-11-30 17:49:51
47,"[{'imgObject': {}, 'id': 'burrito', 'src': '/static/foodstim60/burrito.jpg', 'key': 'u', 'origWidth': 410, 'origHeight': 410, 'width': 410, 'height': 410, 'widthPercent': 0.45, 'rescaleHeight': False, 'trialN': 47, 'loaded': True, 'loadedTime': 4049.2000000029802, 'positionName': 'LEFT', 'positionCoords': [189.52, 83], 'bid': 1.62}, {'imgObject': {}, 'id': 'baked potato', 'src': '/static/foodstim60/baked potato.jpg', 'key': 'i', 'origWidth': 409, 'origHeight': 410, 'width': 409, 'height': 410, 'widthPercent': 0.45, 'rescaleHeight': False, 'trialN': 47, 'loaded': True, 'loadedTime': 4057.9000000059605, 'positionName': 'RIGHT', 'positionCoords': [649.48, 83], 'bid': 7.79}]",98922.80000001192,1669830317727,burrito,baked potato,1.62,7.79,6.17,baked potato,1335.5,1337,1336.2999999970198,True,i,100767.10000000894,1844.2999999970198,1669830319571,1844,HRV,HRV_0009,2022-11-30 17:49:51
48,"[{'imgObject': {}, 'id': 'steak', 'src': '/static/foodstim60/steak.jpg', 'key': 'u', 'origWidth': 410, 'origHeight': 410, 'width': 410, 'height': 410, 'widthPercent': 0.45, 'rescaleHeight': False, 'trialN': 48, 'loaded': True, 'loadedTime': 3939.7000000029802, 'positionName': 'LEFT', 'positionCoords': [189.52, 83], 'bid': 9.84}, {'imgObject': {}, 'id': 'baked potato', 'src': '/static/foodstim60/baked potato.jpg', 'key': 'i', 'origWidth': 409, 'origHeight': 410, 'width': 409, 'height': 410, 'widthPercent': 0.45, 'rescaleHeight': False, 'trialN': 48, 'loaded': True, 'loadedTime': 4050.6000000089407, 'positionName': 'RIGHT', 'positionCoords': [649.48, 83], 'bid': 7.79}]",100767.40000000596,1669830319572,steak,baked potato,9.84,7.79,-2.05,steak,883.5,884,884.2999999970198,True,u,102154.5,1387.0999999940395,1669830320959,1387,HRV,HRV_0009,2022-11-30 17:49:51
49,"[{'imgObject': {}, 'id': 'sushi w_condiments', 'src': '/static/foodstim60/sushi w_condiments.jpg', 'key': 'u', 'origWidth': 410, 'origHeight': 410, 'width': 410, 'height': 410, 'widthPercent': 0.45, 'rescaleHeight': False, 'trialN': 49, 'loaded': True, 'loadedTime': 3441.800000011921, 'positionName': 'LEFT', 'positionCoords': [189.52, 83], 'bid': 9.34}, {'imgObject': {}, 'id': 'veggieswithdip', 'src': '/static/foodstim60/veggieswithdip.jpg', 'key': 'i', 'origWidth': 409, 'origHeight': 409, 'width': 409, 'height': 409, 'widthPercent': 0.45, 'rescaleHeight': False, 'trialN': 49, 'loaded': True, 'loadedTime': 3454.5, 'positionName': 'RIGHT', 'positionCoords': [649.48, 83.5], 'bid': 6.94}]",102154.90000000596,1669830320959,sushi w_condiments,veggieswithdip,9.34,6.94,-2.3999999999999995,sushi w_condiments,1428.7000000029802,1430,1429.5999999940395,True,u,104095.20000000298,1940.2999999970198,1669830322900,1941,HRV,HRV_0009,2022-11-30 17:49:51
50,"[{'imgObject': {}, 'id': 'lox', 'src': '/static/foodstim60/lox.jpg', 'key': 'u', 'origWidth': 410, 'origHeight': 411, 'width': 410, 'height': 411, 'widthPercent': 0.45, 'rescaleHeight': False, 'trialN': 50, 'loaded': True, 'loadedTime': 3792.2000000029802, 'positionName': 'LEFT', 'positionCoords': [189.52, 82.5], 'bid': 0.86}, {'imgObject': {}, 'id': 'olives', 'src': '/static/foodstim60/olives.jpg', 'key': 'i', 'origWidth': 410, 'origHeight': 410, 'width': 410, 'height': 410, 'widthPercent': 0.45, 'rescaleHeight': False, 'trialN': 50, 'loaded': True, 'loadedTime': 3706.2000000029802, 'positionName': 'RIGHT', 'positionCoords': [649.48, 83], 'bid': 0.17}]",104095.5,1669830322900,lox,olives,0.86,0.17,-0.69,lox,1716.4000000059605,1718,1718.6000000089407,True,u,106315.40000000596,2219.9000000059605,1669830325120,2220,HRV,HRV_0009,2022-11-30 17:49:51
51,"[{'imgObject': {}, 'id': 'rigatoni and sauce', 'src': '/static/foodstim60/rigatoni and sauce.jpg', 'key': 'u', 'origWidth': 410, 'origHeight': 411, 'width': 410, 'height': 411, 'widthPercent': 0.45, 'rescaleHeight': False, 'trialN': 51, 'loaded': True, 'loadedTime': 4059.800000011921, 'positionName': 'LEFT', 'positionCoords': [189.52, 82.5], 'bid': 8.67}, {'imgObject': {}, 'id': 'chickenfingers', 'src': '/static/foodstim60/chickenfingers.jpg', 'key': 'i', 'origWidth': 410, 'origHeight': 410, 'width': 410, 'height': 410, 'widthPercent': 0.45, 'rescaleHeight': False, 'trialN': 51, 'loaded': True, 'loadedTime': 3834.2000000029802, 'positionName': 'RIGHT', 'positionCoords': [649.48, 83], 'bid': 9.17}]",106315.80000001192,1669830325120,rigatoni and sauce,chickenfingers,8.67,9.17,0.5,chickenfingers,2202.199999988079,2203,2203.199999988079,True,i,109030.60000000894,2714.7999999970198,1669830327835,2715,HRV,HRV_0009,2022-11-30 17:49:51
52,"[{'imgObject': {}, 'id': 'omelette', 'src': '/static/foodstim60/omelette.jpg', 'key': 'u', 'origWidth': 410, 'origHeight': 409, 'width': 410, 'height': 409, 'widthPercent': 0.45, 'rescaleHeight': False, 'trialN': 52, 'loaded': True, 'loadedTime': 4062.5, 'positionName': 'LEFT', 'positionCoords': [189.52, 83.5], 'bid': 9.77}, {'imgObject': {}, 'id': 'cherry tomato', 'src': '/static/foodstim60/cherry tomato.jpg', 'key': 'i', 'origWidth': 410, 'origHeight': 410, 'width': 410, 'height': 410, 'widthPercent': 0.45, 'rescaleHeight': False, 'trialN': 52, 'loaded': True, 'loadedTime': 3731.800000011921, 'positionName': 'RIGHT', 'positionCoords': [649.48, 83], 'bid': 4.7}]",109030.90000000596,1669830327835,omelette,cherry tomato,9.77,4.7,-5.069999999999999,omelette,923.5999999940395,925,924.4000000059605,True,u,110463.10000000894,1432.2000000029802,1669830329268,1433,HRV,HRV_0009,2022-11-30 17:49:51
53,"[{'imgObject': {}, 'id': 'blackbeanswithrice', 'src': '/static/foodstim60/blackbeanswithrice.jpg', 'key': 'u', 'origWidth': 410, 'origHeight': 410, 'width': 410, 'height': 410, 'widthPercent': 0.45, 'rescaleHeight': False, 'trialN': 53, 'loaded': True, 'loadedTime': 4021.4000000059605, 'positionName': 'LEFT', 'positionCoords': [189.52, 83], 'bid': 6.91}, {'imgObject': {}, 'id': 'corn cob', 'src': '/static/foodstim60/corn cob.jpg', 'key': 'i', 'origWidth': 411, 'origHeight': 411, 'width': 411, 'height': 411, 'widthPercent': 0.45, 'rescaleHeight': False, 'trialN': 53, 'loaded': True, 'loadedTime': 3471.5, 'positionName': 'RIGHT', 'positionCoords': [649.48, 82.5], 'bid': 6.5200000000000005}]",110463.40000000596,1669830329268,blackbeanswithrice,corn cob,6.91,6.5200000000000005,-0.3899999999999997,blackbeanswithrice,1761.7999999970198,1762,1762.5999999940395,True,u,112735.60000000894,2272.2000000029802,1669830331540,2272,HRV,HRV_0009,2022-11-30 17:49:51
54,"[{'imgObject': {}, 'id': 'apple slices', 'src': '/static/foodstim60/apple slices.jpg', 'key': 'u', 'origWidth': 409, 'origHeight': 410, 'width': 409, 'height': 410, 'widthPercent': 0.45, 'rescaleHeight': False, 'trialN': 54, 'loaded': True, 'loadedTime': 4000.300000011921, 'positionName': 'LEFT', 'positionCoords': [190.52, 83], 'bid': 3.45}, {'imgObject': {}, 'id': 'ice cream sundae 002', 'src': '/static/foodstim60/ice cream sundae 002.jpg', 'key': 'i', 'origWidth': 409, 'origHeight': 409, 'width': 409, 'height': 409, 'widthPercent': 0.45, 'rescaleHeight': False, 'trialN': 54, 'loaded': True, 'loadedTime': 3973.2000000029802, 'positionName': 'RIGHT', 'positionCoords': [649.48, 83.5], 'bid': 3.34}]",112736.0,1669830331540,apple slices,ice cream sundae 002,3.45,3.34,-0.11000000000000032,apple slices,2625.9000000059605,2628,2627.4000000059605,True,u,115878.10000000894,3142.1000000089407,1669830334682,3142,HRV,HRV_0009,2022-11-30 17:49:51
55,"[{'imgObject': {}, 'id': 'cocktailshrimp', 'src': '/static/foodstim60/cocktailshrimp.jpg', 'key': 'u', 'origWidth': 410, 'origHeight': 410, 'width': 410, 'height': 410, 'widthPercent': 0.45, 'rescaleHeight': False, 'trialN': 55, 'loaded': True, 'loadedTime': 4071.5, 'positionName': 'LEFT', 'positionCoords': [189.52, 83], 'bid': 9.71}, {'imgObject': {}, 'id': 'omelette', 'src': '/static/foodstim60/omelette.jpg', 'key': 'i', 'origWidth': 410, 'origHeight': 409, 'width': 410, 'height': 409, 'widthPercent': 0.45, 'rescaleHeight': False, 'trialN': 55, 'loaded': True, 'loadedTime': 4065.1000000089407, 'positionName': 'RIGHT', 'positionCoords': [649.48, 83.5], 'bid': 9.77}]",115878.5,1669830334683,cocktailshrimp,omelette,9.71,9.77,0.05999999999999872,omelette,2453.4000000059605,2454,2454.2000000029802,True,i,118843.90000000596,2965.4000000059605,1669830337648,2965,HRV,HRV_0009,2022-11-30 17:49:51
56,"[{'imgObject': {}, 'id': 'cherries', 'src': '/static/foodstim60/cherries.jpg', 'key': 'u', 'origWidth': 410, 'origHeight': 411, 'width': 410, 'height': 411, 'widthPercent': 0.45, 'rescaleHeight': False, 'trialN': 56, 'loaded': True, 'loadedTime': 4015.2000000029802, 'positionName': 'LEFT', 'positionCoords': [189.52, 82.5], 'bid': 2.47}, {'imgObject': {}, 'id': 'raisin bran w milk', 'src': '/static/foodstim60/raisin bran w milk.jpg', 'key': 'i', 'origWidth': 411, 'origHeight': 411, 'width': 411, 'height': 411, 'widthPercent': 0.45, 'rescaleHeight': False, 'trialN': 56, 'loaded': True, 'loadedTime': 3899.6000000089407, 'positionName': 'RIGHT', 'positionCoords': [649.48, 82.5], 'bid': 4.92}]",118844.30000001192,1669830337649,cherries,raisin bran w milk,2.47,4.92,2.4499999999999997,raisin bran w milk,1035,1037,1036.8999999910593,True,i,120382.60000000894,1538.2999999970198,1669830339187,1538,HRV,HRV_0009,2022-11-30 17:49:51
57,"[{'imgObject': {}, 'id': 'fruitsalad', 'src': '/static/foodstim60/fruitsalad.jpg', 'key': 'u', 'origWidth': 410, 'origHeight': 410, 'width': 410, 'height': 410, 'widthPercent': 0.45, 'rescaleHeight': False, 'trialN': 57, 'loaded': True, 'loadedTime': 3495.5, 'positionName': 'LEFT', 'positionCoords': [189.52, 83], 'bid': 1.9}, {'imgObject': {}, 'id': 'raspberries', 'src': '/static/foodstim60/raspberries.jpg', 'key': 'i', 'origWidth': 411, 'origHeight': 411, 'width': 411, 'height': 411, 'widthPercent': 0.45, 'rescaleHeight': False, 'trialN': 57, 'loaded': True, 'loadedTime': 3880.800000011921, 'positionName': 'RIGHT', 'positionCoords': [649.48, 82.5], 'bid': 2.65}]",120383.10000000894,1669830339187,fruitsalad,raspberries,1.9,2.65,0.75,raspberries,1747.0999999940395,1748,1748.0,True,i,122633.20000000298,2250.0999999940395,1669830341438,2251,HRV,HRV_0009,2022-11-30 17:49:51
58,"[{'imgObject': {}, 'id': 'baked potato', 'src': '/static/foodstim60/baked potato.jpg', 'key': 'u', 'origWidth': 409, 'origHeight': 410, 'width': 409, 'height': 410, 'widthPercent': 0.45, 'rescaleHeight': False, 'trialN': 58, 'loaded': True, 'loadedTime': 4057.2000000029802, 'positionName': 'LEFT', 'positionCoords': [190.52, 83], 'bid': 7.79}, {'imgObject': {}, 'id': 'hotdog w must', 'src': '/static/foodstim60/hotdog w must.jpg', 'key': 'i', 'origWidth': 409, 'origHeight': 409, 'width': 409, 'height': 409, 'widthPercent': 0.45, 'rescaleHeight': False, 'trialN': 58, 'loaded': True, 'loadedTime': 4076.5, 'positionName': 'RIGHT', 'positionCoords': [649.48, 83.5], 'bid': 8.01}]",122633.5,1669830341438,baked potato,hotdog w must,7.79,8.01,0.21999999999999975,hotdog w must,1520.7000000029802,1522,1521.9000000059605,True,i,124667.20000000298,2033.7000000029802,1669830343472,2034,HRV,HRV_0009,2022-11-30 17:49:51
59,"[{'imgObject': {}, 'id': 'roastedpotatoes', 'src': '/static/foodstim60/roastedpotatoes.jpg', 'key': 'u', 'origWidth': 409, 'origHeight': 410, 'width': 409, 'height': 410, 'widthPercent': 0.45, 'rescaleHeight': False, 'trialN': 59, 'loaded': True, 'loadedTime': 3552.4000000059605, 'positionName': 'LEFT', 'positionCoords': [190.52, 83], 'bid': 8.51}, {'imgObject': {}, 'id': 'omelette', 'src': '/static/foodstim60/omelette.jpg', 'key': 'i', 'origWidth': 410, 'origHeight': 409, 'width': 410, 'height': 409, 'widthPercent': 0.45, 'rescaleHeight': False, 'trialN': 59, 'loaded': True, 'loadedTime': 4064.800000011921, 'positionName': 'RIGHT', 'positionCoords': [649.48, 83.5], 'bid': 9.77}]",124667.80000001192,1669830343472,roastedpotatoes,omelette,8.51,9.77,1.2599999999999998,omelette,2175.5,2177,2177.0,True,i,127355.0,2687.199999988079,1669830346159,2687,HRV,HRV_0009,2022-11-30 17:49:51
60,"[{'imgObject': {}, 'id': 'olives', 'src': '/static/foodstim60/olives.jpg', 'key': 'u', 'origWidth': 410, 'origHeight': 410, 'width': 410, 'height': 410, 'widthPercent': 0.45, 'rescaleHeight': False, 'trialN': 60, 'loaded': True, 'loadedTime': 3730, 'positionName': 'LEFT', 'positionCoords': [189.52, 83], 'bid': 0.17}, {'imgObject': {}, 'id': 'froot loops w milk', 'src': '/static/foodstim60/froot loops w milk.jpg', 'key': 'i', 'origWidth': 410, 'origHeight': 410, 'width': 410, 'height': 410, 'widthPercent': 0.45, 'rescaleHeight': False, 'trialN': 60, 'loaded': True, 'loadedTime': 3995.7000000029802, 'positionName': 'RIGHT', 'positionCoords': [649.48, 83], 'bid': 3.75}]",127355.30000001192,1669830346160,olives,froot loops w milk,0.17,3.75,3.58,froot loops w milk,1348.0999999940395,1349,1349.0999999940395,True,i,129205.40000000596,1850.0999999940395,1669830348010,1850,HRV,HRV_0009,2022-11-30 17:49:51
61,"[{'imgObject': {}, 'id': 'steak', 'src': '/static/foodstim60/steak.jpg', 'key': 'u', 'origWidth': 410, 'origHeight': 410, 'width': 410, 'height': 410, 'widthPercent': 0.45, 'rescaleHeight': False, 'trialN': 61, 'loaded': True, 'loadedTime': 3941, 'positionName': 'LEFT', 'positionCoords': [189.52, 83], 'bid': 9.84}, {'imgObject': {}, 'id': 'salmon', 'src': '/static/foodstim60/salmon.jpg', 'key': 'i', 'origWidth': 410, 'origHeight': 409, 'width': 410, 'height': 409, 'widthPercent': 0.45, 'rescaleHeight': False, 'trialN': 61, 'loaded': True, 'loadedTime': 3908.800000011921, 'positionName': 'RIGHT', 'positionCoords': [649.48, 83.5], 'bid': 9.84}]",129205.90000000596,1669830348010,steak,salmon,9.84,9.84,0.0,steak,948.4000000059605,950,949.4000000059605,True,u,130666.30000001192,1460.4000000059605,1669830349471,1461,HRV,HRV_0009,2022-11-30 17:49:51
62,"[{'imgObject': {}, 'id': 'cocktailshrimp', 'src': '/static/foodstim60/cocktailshrimp.jpg', 'key': 'u', 'origWidth': 410, 'origHeight': 410, 'width': 410, 'height': 410, 'widthPercent': 0.45, 'rescaleHeight': False, 'trialN': 62, 'loaded': True, 'loadedTime': 4066.5, 'positionName': 'LEFT', 'positionCoords': [189.52, 83], 'bid': 9.71}, {'imgObject': {}, 'id': 'grilled chicken strips', 'src': '/static/foodstim60/grilled chicken strips.jpg', 'key': 'i', 'origWidth': 410, 'origHeight': 411, 'width': 410, 'height': 411, 'widthPercent': 0.45, 'rescaleHeight': False, 'trialN': 62, 'loaded': True, 'loadedTime': 3935.7000000029802, 'positionName': 'RIGHT', 'positionCoords': [649.48, 82.5], 'bid': 10}]",130666.70000000298,1669830349471,cocktailshrimp,grilled chicken strips,9.71,10.0,0.28999999999999915,grilled chicken strips,2541.1000000089407,2542,2542.0,True,i,133711.5,3044.7999999970198,1669830352516,3045,HRV,HRV_0009,2022-11-30 17:49:51
63,"[{'imgObject': {}, 'id': 'yogurt no spoon', 'src': '/static/foodstim60/yogurt no spoon.jpg', 'key': 'u', 'origWidth': 411, 'origHeight': 410, 'width': 411, 'height': 410, 'widthPercent': 0.45, 'rescaleHeight': False, 'trialN': 63, 'loaded': True, 'loadedTime': 3521.2000000029802, 'positionName': 'LEFT', 'positionCoords': [188.52, 83], 'bid': 4.79}, {'imgObject': {}, 'id': 'banana', 'src': '/static/foodstim60/banana.jpg', 'key': 'i', 'origWidth': 410, 'origHeight': 410, 'width': 410, 'height': 410, 'widthPercent': 0.45, 'rescaleHeight': False, 'trialN': 63, 'loaded': True, 'loadedTime': 3809.7000000029802, 'positionName': 'RIGHT', 'positionCoords': [649.48, 83], 'bid': 5.6000000000000005}]",133712.0,1669830352516,yogurt no spoon,banana,4.79,5.6000000000000005,0.8100000000000005,yogurt no spoon,1765.6000000089407,1767,1766.7000000029802,True,u,135989.70000000298,2277.7000000029802,1669830354794,2278,HRV,HRV_0009,2022-11-30 17:49:51
64,"[{'imgObject': {}, 'id': 'tacos', 'src': '/static/foodstim60/tacos.jpg', 'key': 'u', 'origWidth': 411, 'origHeight': 411, 'width': 411, 'height': 411, 'widthPercent': 0.45, 'rescaleHeight': False, 'trialN': 64, 'loaded': True, 'loadedTime': 4079.800000011921, 'positionName': 'LEFT', 'positionCoords': [188.52, 82.5], 'bid': 3.08}, {'imgObject': {}, 'id': 'roastedpotatoes', 'src': '/static/foodstim60/roastedpotatoes.jpg', 'key': 'i', 'origWidth': 409, 'origHeight': 410, 'width': 409, 'height': 410, 'widthPercent': 0.45, 'rescaleHeight': False, 'trialN': 64, 'loaded': True, 'loadedTime': 3556.300000011921, 'positionName': 'RIGHT', 'positionCoords': [649.48, 83], 'bid': 8.51}]",135990.10000000894,1669830354794,tacos,roastedpotatoes,3.08,8.51,5.43,roastedpotatoes,1032.2999999970198,1034,1033.2000000029802,True,i,137524.10000000894,1534.0,1669830356328,1534,HRV,HRV_0009,2022-11-30 17:49:51
65,"[{'imgObject': {}, 'id': 'yogurt no spoon', 'src': '/static/foodstim60/yogurt no spoon.jpg', 'key': 'u', 'origWidth': 411, 'origHeight': 410, 'width': 411, 'height': 410, 'widthPercent': 0.45, 'rescaleHeight': False, 'trialN': 65, 'loaded': True, 'loadedTime': 3520.5, 'positionName': 'LEFT', 'positionCoords': [188.52, 83], 'bid': 4.79}, {'imgObject': {}, 'id': 'bagel and cc', 'src': '/static/foodstim60/bagel and cc.jpg', 'key': 'i', 'origWidth': 410, 'origHeight': 410, 'width': 410, 'height': 410, 'widthPercent': 0.45, 'rescaleHeight': False, 'trialN': 65, 'loaded': True, 'loadedTime': 3636.1000000089407, 'positionName': 'RIGHT', 'positionCoords': [649.48, 83], 'bid': 6.2700000000000005}]",137524.5,1669830356329,yogurt no spoon,bagel and cc,4.79,6.2700000000000005,1.4800000000000004,bagel and cc,1900.2000000029802,1901,1901.1000000089407,True,i,139933.20000000298,2408.7000000029802,1669830358738,2409,HRV,HRV_0009,2022-11-30 17:49:51
66,"[{'imgObject': {}, 'id': 'cocktailshrimp', 'src': '/static/foodstim60/cocktailshrimp.jpg', 'key': 'u', 'origWidth': 410, 'origHeight': 410, 'width': 410, 'height': 410, 'widthPercent': 0.45, 'rescaleHeight': False, 'trialN': 66, 'loaded': True, 'loadedTime': 4070, 'positionName': 'LEFT', 'positionCoords': [189.52, 83], 'bid': 9.71}, {'imgObject': {}, 'id': 'cheerios', 'src': '/static/foodstim60/cheerios.jpg', 'key': 'i', 'origWidth': 409, 'origHeight': 410, 'width': 409, 'height': 410, 'widthPercent': 0.45, 'rescaleHeight': False, 'trialN': 66, 'loaded': True, 'loadedTime': 3614.2000000029802, 'positionName': 'RIGHT', 'positionCoords': [649.48, 83], 'bid': 4.22}]",139933.60000000894,1669830358738,cocktailshrimp,cheerios,9.71,4.22,-5.490000000000001,cocktailshrimp,1236.8999999910593,1238,1237.7000000029802,True,u,141680.80000001192,1747.2000000029802,1669830360485,1747,HRV,HRV_0009,2022-11-30 17:49:51
67,"[{'imgObject': {}, 'id': 'edamame', 'src': '/static/foodstim60/edamame.jpg', 'key': 'u', 'origWidth': 409, 'origHeight': 410, 'width': 409, 'height': 410, 'widthPercent': 0.45, 'rescaleHeight': False, 'trialN': 67, 'loaded': True, 'loadedTime': 4098, 'positionName': 'LEFT', 'positionCoords': [190.52, 83], 'bid': 0.94}, {'imgObject': {}, 'id': 'apple slices', 'src': '/static/foodstim60/apple slices.jpg', 'key': 'i', 'origWidth': 409, 'origHeight': 410, 'width': 409, 'height': 410, 'widthPercent': 0.45, 'rescaleHeight': False, 'trialN': 67, 'loaded': True, 'loadedTime': 3998.9000000059605, 'positionName': 'RIGHT', 'positionCoords': [649.48, 83], 'bid': 3.45}]",141681.30000001192,1669830360486,edamame,apple slices,0.94,3.45,2.5100000000000002,apple slices,2337.2999999970198,2338,2338.199999988079,True,i,144529.70000000298,2848.3999999910593,1669830363334,2848,HRV,HRV_0009,2022-11-30 17:49:51
68,"[{'imgObject': {}, 'id': 'chicken nuggets2', 'src': '/static/foodstim60/chicken nuggets2.jpg', 'key': 'u', 'origWidth': 410, 'origHeight': 409, 'width': 410, 'height': 409, 'widthPercent': 0.45, 'rescaleHeight': False, 'trialN': 68, 'loaded': True, 'loadedTime': 3906.1000000089407, 'positionName': 'LEFT', 'positionCoords': [189.52, 83.5], 'bid': 4.97}, {'imgObject': {}, 'id': 'luckycharms', 'src': '/static/foodstim60/luckycharms.jpg', 'key': 'i', 'origWidth': 410, 'origHeight': 409, 'width': 410, 'height': 409, 'widthPercent': 0.45, 'rescaleHeight': False, 'trialN': 68, 'loaded': True, 'loadedTime': 3403.300000011921, 'positionName': 'RIGHT', 'positionCoords': [649.48, 83.5], 'bid': 6.11}]",144529.90000000596,1669830363334,chicken nuggets2,luckycharms,4.97,6.11,1.1400000000000006,luckycharms,1961.7999999970198,1963,1962.5999999940395,True,i,146993.5,2463.5999999940395,1669830365798,2464,HRV,HRV_0009,2022-11-30 17:49:51
69,"[{'imgObject': {}, 'id': 'omelette', 'src': '/static/foodstim60/omelette.jpg', 'key': 'u', 'origWidth': 410, 'origHeight': 409, 'width': 410, 'height': 409, 'widthPercent': 0.45, 'rescaleHeight': False, 'trialN': 69, 'loaded': True, 'loadedTime': 4066, 'positionName': 'LEFT', 'positionCoords': [189.52, 83.5], 'bid': 9.77}, {'imgObject': {}, 'id': 'eggs', 'src': '/static/foodstim60/eggs.jpg', 'key': 'i', 'origWidth': 409, 'origHeight': 409, 'width': 409, 'height': 409, 'widthPercent': 0.45, 'rescaleHeight': False, 'trialN': 69, 'loaded': True, 'loadedTime': 3836.2000000029802, 'positionName': 'RIGHT', 'positionCoords': [649.48, 83.5], 'bid': 9.73}]",146994.0,1669830365798,omelette,eggs,9.77,9.73,-0.03999999999999915,omelette,1590.800000011921,1592,1591.7000000029802,True,u,149092.20000000298,2098.2000000029802,1669830367897,2099,HRV,HRV_0009,2022-11-30 17:49:51
70,"[{'imgObject': {}, 'id': 'rigatoni and sauce', 'src': '/static/foodstim60/rigatoni and sauce.jpg', 'key': 'u', 'origWidth': 410, 'origHeight': 411, 'width': 410, 'height': 411, 'widthPercent': 0.45, 'rescaleHeight': False, 'trialN': 70, 'loaded': True, 'loadedTime': 4061.7000000029802, 'positionName': 'LEFT', 'positionCoords': [189.52, 82.5], 'bid': 8.67}, {'imgObject': {}, 'id': 'bagel plain', 'src': '/static/foodstim60/bagel plain.jpg', 'key': 'i', 'origWidth': 410, 'origHeight': 410, 'width': 410, 'height': 410, 'widthPercent': 0.45, 'rescaleHeight': False, 'trialN': 70, 'loaded': True, 'loadedTime': 3424.7000000029802, 'positionName': 'RIGHT', 'positionCoords': [649.48, 83], 'bid': 5.93}]",149092.60000000894,1669830367897,rigatoni and sauce,bagel plain,8.67,5.93,-2.74,rigatoni and sauce,1285,1286,1285.7000000029802,True,u,150888.20000000298,1795.5999999940395,1669830369693,1796,HRV,HRV_0009,2022-11-30 17:49:51
71,"[{'imgObject': {}, 'id': 'salad w chicken', 'src': '/static/foodstim60/salad w chicken.jpg', 'key': 'u', 'origWidth': 411, 'origHeight': 411, 'width': 411, 'height': 411, 'widthPercent': 0.45, 'rescaleHeight': False, 'trialN': 71, 'loaded': True, 'loadedTime': 4029.1000000089407, 'positionName': 'LEFT', 'positionCoords': [188.52, 82.5], 'bid': 9.63}, {'imgObject': {}, 'id': 'cocktailshrimp', 'src': '/static/foodstim60/cocktailshrimp.jpg', 'key': 'i', 'origWidth': 410, 'origHeight': 410, 'width': 410, 'height': 410, 'widthPercent': 0.45, 'rescaleHeight': False, 'trialN': 71, 'loaded': True, 'loadedTime': 4071.300000011921, 'positionName': 'RIGHT', 'positionCoords': [649.48, 83], 'bid': 9.71}]",150888.70000000298,1669830369693,salad w chicken,cocktailshrimp,9.63,9.71,0.08000000000000007,salad w chicken,1282.9000000059605,1284,1283.7999999970198,True,u,152682.80000001192,1794.1000000089407,1669830371487,1794,HRV,HRV_0009,2022-11-30 17:49:51
72,"[{'imgObject': {}, 'id': 'tacos', 'src': '/static/foodstim60/tacos.jpg', 'key': 'u', 'origWidth': 411, 'origHeight': 411, 'width': 411, 'height': 411, 'widthPercent': 0.45, 'rescaleHeight': False, 'trialN': 72, 'loaded': True, 'loadedTime': 4078.300000011921, 'positionName': 'LEFT', 'positionCoords': [188.52, 82.5], 'bid': 3.08}, {'imgObject': {}, 'id': 'kiwi', 'src': '/static/foodstim60/kiwi.jpg', 'key': 'i', 'origWidth': 410, 'origHeight': 410, 'width': 410, 'height': 410, 'widthPercent': 0.45, 'rescaleHeight': False, 'trialN': 72, 'loaded': True, 'loadedTime': 4098.4000000059605, 'positionName': 'RIGHT', 'positionCoords': [649.48, 83], 'bid': 0.33}]",152683.20000000298,1669830371488,tacos,kiwi,3.08,0.33,-2.75,tacos,1177.2000000029802,1175,1178.2000000029802,True,u,154365.80000001192,1682.6000000089407,1669830373167,1679,HRV,HRV_0009,2022-11-30 17:49:51
73,"[{'imgObject': {}, 'id': 'fried eggs', 'src': '/static/foodstim60/fried eggs.jpg', 'key': 'u', 'origWidth': 410, 'origHeight': 410, 'width': 410, 'height': 410, 'widthPercent': 0.45, 'rescaleHeight': False, 'trialN': 73, 'loaded': True, 'loadedTime': 3941.7000000029802, 'positionName': 'LEFT', 'positionCoords': [189.52, 83], 'bid': 9.9}, {'imgObject': {}, 'id': 'raisin bran w milk', 'src': '/static/foodstim60/raisin bran w milk.jpg', 'key': 'i', 'origWidth': 411, 'origHeight': 411, 'width': 411, 'height': 411, 'widthPercent': 0.45, 'rescaleHeight': False, 'trialN': 73, 'loaded': True, 'loadedTime': 3881.300000011921, 'positionName': 'RIGHT', 'positionCoords': [649.48, 82.5], 'bid': 4.92}]",154366.10000000894,1669830373168,fried eggs,raisin bran w milk,9.9,4.92,-4.98,raisin bran w milk,1617,1617,1617.8999999910593,True,i,156496.30000001192,2130.2000000029802,1669830375298,2130,HRV,HRV_0009,2022-11-30 17:49:51
74,"[{'imgObject': {}, 'id': 'mashed potato', 'src': '/static/foodstim60/mashed potato.jpg', 'key': 'u', 'origWidth': 409, 'origHeight': 409, 'width': 409, 'height': 409, 'widthPercent': 0.45, 'rescaleHeight': False, 'trialN': 74, 'loaded': True, 'loadedTime': 4104.4000000059605, 'positionName': 'LEFT', 'positionCoords': [190.52, 83.5], 'bid': 3.77}, {'imgObject': {}, 'id': 'tacos', 'src': '/static/foodstim60/tacos.jpg', 'key': 'i', 'origWidth': 411, 'origHeight': 411, 'width': 411, 'height': 411, 'widthPercent': 0.45, 'rescaleHeight': False, 'trialN': 74, 'loaded': True, 'loadedTime': 4079.1000000089407, 'positionName': 'RIGHT', 'positionCoords': [649.48, 82.5], 'bid': 3.08}]",156496.5,1669830375298,mashed potato,tacos,3.77,3.08,-0.69,tacos,2583.9000000059605,2587,2587.1000000089407,True,i,159584.90000000596,3088.4000000059605,1669830378386,3088,HRV,HRV_0009,2022-11-30 17:49:51
75,"[{'imgObject': {}, 'id': 'raspberries', 'src': '/static/foodstim60/raspberries.jpg', 'key': 'u', 'origWidth': 411, 'origHeight': 411, 'width': 411, 'height': 411, 'widthPercent': 0.45, 'rescaleHeight': False, 'trialN': 75, 'loaded': True, 'loadedTime': 3880.5, 'positionName': 'LEFT', 'positionCoords': [188.52, 82.5], 'bid': 2.65}, {'imgObject': {}, 'id': 'chicken nuggets2', 'src': '/static/foodstim60/chicken nuggets2.jpg', 'key': 'i', 'origWidth': 410, 'origHeight': 409, 'width': 410, 'height': 409, 'widthPercent': 0.45, 'rescaleHeight': False, 'trialN': 75, 'loaded': True, 'loadedTime': 3903.1000000089407, 'positionName': 'RIGHT', 'positionCoords': [649.48, 83.5], 'bid': 4.97}]",159585.40000000596,1669830378387,raspberries,chicken nuggets2,2.65,4.97,2.32,chicken nuggets2,2307.0999999940395,2308,2308.0,True,i,162398.90000000596,2813.5,1669830381200,2813,HRV,HRV_0009,2022-11-30 17:49:51
76,"[{'imgObject': {}, 'id': 'seaweed', 'src': '/static/foodstim60/seaweed.jpg', 'key': 'u', 'origWidth': 410, 'origHeight': 410, 'width': 410, 'height': 410, 'widthPercent': 0.45, 'rescaleHeight': False, 'trialN': 76, 'loaded': True, 'loadedTime': 3550.9000000059605, 'positionName': 'LEFT', 'positionCoords': [189.52, 83], 'bid': 0.15}, {'imgObject': {}, 'id': 'apple slices', 'src': '/static/foodstim60/apple slices.jpg', 'key': 'i', 'origWidth': 409, 'origHeight': 410, 'width': 409, 'height': 410, 'widthPercent': 0.45, 'rescaleHeight': False, 'trialN': 76, 'loaded': True, 'loadedTime': 4000.1000000089407, 'positionName': 'RIGHT', 'positionCoords': [649.48, 83], 'bid': 3.45}]",162399.20000000298,1669830381201,seaweed,apple slices,0.15,3.45,3.3000000000000003,apple slices,1169,1169,1169.7999999970198,True,i,164083.70000000298,1684.5,1669830382885,1684,HRV,HRV_0009,2022-11-30 17:49:51
77,"[{'imgObject': {}, 'id': 'turkeysandwich', 'src': '/static/foodstim60/turkeysandwich.jpg', 'key': 'u', 'origWidth': 409, 'origHeight': 409, 'width': 409, 'height': 409, 'widthPercent': 0.45, 'rescaleHeight': False, 'trialN': 77, 'loaded': True, 'loadedTime': 3431.300000011921, 'positionName': 'LEFT', 'positionCoords': [190.52, 83.5], 'bid': 9.58}, {'imgObject': {}, 'id': 'mashed potato', 'src': '/static/foodstim60/mashed potato.jpg', 'key': 'i', 'origWidth': 409, 'origHeight': 409, 'width': 409, 'height': 409, 'widthPercent': 0.45, 'rescaleHeight': False, 'trialN': 77, 'loaded': True, 'loadedTime': 4105.100000008941, 'positionName': 'RIGHT', 'positionCoords': [649.48, 83.5], 'bid': 3.77}]",164084.0,1669830382885,turkeysandwich,mashed potato,9.58,3.77,-5.8100000000000005,turkeysandwich,1364.6000000089407,1366,1365.4000000059605,True,u,165963.70000000298,1879.7000000029802,1669830384765,1880,HRV,HRV_0009,2022-11-30 17:49:51
78,"[{'imgObject': {}, 'id': 'strawberries', 'src': '/static/foodstim60/strawberries.jpg', 'key': 'u', 'origWidth': 410, 'origHeight': 410, 'width': 410, 'height': 410, 'widthPercent': 0.45, 'rescaleHeight': False, 'trialN': 78, 'loaded': True, 'loadedTime': 4106.300000011921, 'positionName': 'LEFT', 'positionCoords': [189.52, 83], 'bid': 1.46}, {'imgObject': {}, 'id': 'hashbrowns', 'src': '/static/foodstim60/hashbrowns.jpg', 'key': 'i', 'origWidth': 411, 'origHeight': 410, 'width': 411, 'height': 410, 'widthPercent': 0.45, 'rescaleHeight': False, 'trialN': 78, 'loaded': True, 'loadedTime': 3964.5, 'positionName': 'RIGHT', 'positionCoords': [649.48, 83], 'bid': 0.15}]",165964.10000000894,1669830384765,strawberries,hashbrowns,1.46,0.15,-1.31,strawberries,3045.0999999940395,3047,3046.2000000029802,True,u,169513.60000000894,3549.5,1669830388315,3550,HRV,HRV_0009,2022-11-30 17:49:51
79,"[{'imgObject': {}, 'id': 'turkey sandwich', 'src': '/static/foodstim60/turkey sandwich.jpg', 'key': 'u', 'origWidth': 409, 'origHeight': 409, 'width': 409, 'height': 409, 'widthPercent': 0.45, 'rescaleHeight': False, 'trialN': 79, 'loaded': True, 'loadedTime': 3448.300000011921, 'positionName': 'LEFT', 'positionCoords': [190.52, 83.5], 'bid': 8.61}, {'imgObject': {}, 'id': 'cantaloupe', 'src': '/static/foodstim60/cantaloupe.jpg', 'key': 'i', 'origWidth': 409, 'origHeight': 409, 'width': 409, 'height': 409, 'widthPercent': 0.45, 'rescaleHeight': False, 'trialN': 79, 'loaded': True, 'loadedTime': 3639.4000000059605, 'positionName': 'RIGHT', 'positionCoords': [649.48, 83.5], 'bid': 5.32}]",169514.10000000894,1669830388315,turkey sandwich,cantaloupe,8.61,5.32,-3.289999999999999,turkey sandwich,1102.7000000029802,1104,1103.5999999940395,True,u,171125.40000000596,1611.2999999970198,1669830389927,1612,HRV,HRV_0009,2022-11-30 17:49:51
80,"[{'imgObject': {}, 'id': 'bagel and cc', 'src': '/static/foodstim60/bagel and cc.jpg', 'key': 'u', 'origWidth': 410, 'origHeight': 410, 'width': 410, 'height': 410, 'widthPercent': 0.45, 'rescaleHeight': False, 'trialN': 80, 'loaded': True, 'loadedTime': 3636.9000000059605, 'positionName': 'LEFT', 'positionCoords': [189.52, 83], 'bid': 6.2700000000000005}, {'imgObject': {}, 'id': 'mac & cheese', 'src': '/static/foodstim60/mac & cheese.jpg', 'key': 'i', 'origWidth': 410, 'origHeight': 410, 'width': 410, 'height': 410, 'widthPercent': 0.45, 'rescaleHeight': False, 'trialN': 80, 'loaded': True, 'loadedTime': 3473.300000011921, 'positionName': 'RIGHT', 'positionCoords': [649.48, 83], 'bid': 7.85}]",171125.70000000298,1669830389927,bagel and cc,mac & cheese,6.2700000000000005,7.85,1.5799999999999992,mac & cheese,1953.1000000089407,1954,1953.9000000059605,True,i,173595.40000000596,2469.7000000029802,1669830392397,2470,HRV,HRV_0009,2022-11-30 17:49:51
81,"[{'imgObject': {}, 'id': 'edamame', 'src': '/static/foodstim60/edamame.jpg', 'key': 'u', 'origWidth': 409, 'origHeight': 410, 'width': 409, 'height': 410, 'widthPercent': 0.45, 'rescaleHeight': False, 'trialN': 81, 'loaded': True, 'loadedTime': 4084, 'positionName': 'LEFT', 'positionCoords': [190.52, 83], 'bid': 0.94}, {'imgObject': {}, 'id': 'kiwi', 'src': '/static/foodstim60/kiwi.jpg', 'key': 'i', 'origWidth': 410, 'origHeight': 410, 'width': 410, 'height': 410, 'widthPercent': 0.45, 'rescaleHeight': False, 'trialN': 81, 'loaded': True, 'loadedTime': 4100.4000000059605, 'positionName': 'RIGHT', 'positionCoords': [649.48, 83], 'bid': 0.33}]",173595.60000000894,1669830392397,edamame,kiwi,0.94,0.33,-0.6099999999999999,edamame,1597.3999999910593,1605,1605.2000000029802,True,u,175710.30000001192,2114.7000000029802,1669830394512,2115,HRV,HRV_0009,2022-11-30 17:49:51
82,"[{'imgObject': {}, 'id': 'Tribe humus pita', 'src': '/static/foodstim60/Tribe humus pita.jpg', 'key': 'u', 'origWidth': 411, 'origHeight': 411, 'width': 411, 'height': 411, 'widthPercent': 0.45, 'rescaleHeight': False, 'trialN': 82, 'loaded': True, 'loadedTime': 3677, 'positionName': 'LEFT', 'positionCoords': [188.52, 82.5], 'bid': 6.41}, {'imgObject': {}, 'id': 'bagel and cc', 'src': '/static/foodstim60/bagel and cc.jpg', 'key': 'i', 'origWidth': 410, 'origHeight': 410, 'width': 410, 'height': 410, 'widthPercent': 0.45, 'rescaleHeight': False, 'trialN': 82, 'loaded': True, 'loadedTime': 3635.5, 'positionName': 'RIGHT', 'positionCoords': [649.48, 83], 'bid': 6.2700000000000005}]",175710.70000000298,1669830394512,Tribe humus pita,bagel and cc,6.41,6.2700000000000005,-0.13999999999999968,Tribe humus pita,1277.7000000029802,1279,1278.7000000029802,True,u,177494.0,1783.2999999970198,1669830396295,1783,HRV,HRV_0009,2022-11-30 17:49:51
83,"[{'imgObject': {}, 'id': 'steak', 'src': '/static/foodstim60/steak.jpg', 'key': 'u', 'origWidth': 410, 'origHeight': 410, 'width': 410, 'height': 410, 'widthPercent': 0.45, 'rescaleHeight': False, 'trialN': 83, 'loaded': True, 'loadedTime': 3940.800000011921, 'positionName': 'LEFT', 'positionCoords': [189.52, 83], 'bid': 9.84}, {'imgObject': {}, 'id': 'yogurt no spoon', 'src': '/static/foodstim60/yogurt no spoon.jpg', 'key': 'i', 'origWidth': 411, 'origHeight': 410, 'width': 411, 'height': 410, 'widthPercent': 0.45, 'rescaleHeight': False, 'trialN': 83, 'loaded': True, 'loadedTime': 3520.800000011921, 'positionName': 'RIGHT', 'positionCoords': [649.48, 83], 'bid': 4.79}]",177494.40000000596,1669830396296,steak,yogurt no spoon,9.84,4.79,-5.05,steak,903.7000000029802,904,904.5,True,u,178904.40000000596,1410.0,1669830397706,1410,HRV,HRV_0009,2022-11-30 17:49:51
84,"[{'imgObject': {}, 'id': 'fruitsalad', 'src': '/static/foodstim60/fruitsalad.jpg', 'key': 'u', 'origWidth': 410, 'origHeight': 410, 'width': 410, 'height': 410, 'widthPercent': 0.45, 'rescaleHeight': False, 'trialN': 84, 'loaded': True, 'loadedTime': 3493.1000000089407, 'positionName': 'LEFT', 'positionCoords': [189.52, 83], 'bid': 1.9}, {'imgObject': {}, 'id': 'cherries', 'src': '/static/foodstim60/cherries.jpg', 'key': 'i', 'origWidth': 410, 'origHeight': 411, 'width': 410, 'height': 411, 'widthPercent': 0.45, 'rescaleHeight': False, 'trialN': 84, 'loaded': True, 'loadedTime': 4014.7000000029802, 'positionName': 'RIGHT', 'positionCoords': [649.48, 82.5], 'bid': 2.47}]",178904.80000001192,1669830397706,fruitsalad,cherries,1.9,2.47,0.5700000000000003,fruitsalad,1644.2999999970198,1645,1645.199999988079,True,u,181059.20000000298,2154.3999999910593,1669830399860,2154,HRV,HRV_0009,2022-11-30 17:49:51
85,"[{'imgObject': {}, 'id': 'orange slices', 'src': '/static/foodstim60/orange slices.jpg', 'key': 'u', 'origWidth': 409, 'origHeight': 410, 'width': 409, 'height': 410, 'widthPercent': 0.45, 'rescaleHeight': False, 'trialN': 85, 'loaded': True, 'loadedTime': 4008.1000000089407, 'positionName': 'LEFT', 'positionCoords': [190.52, 83], 'bid': 3.58}, {'imgObject': {}, 'id': 'ice cream sundae 002', 'src': '/static/foodstim60/ice cream sundae 002.jpg', 'key': 'i', 'origWidth': 409, 'origHeight': 409, 'width': 409, 'height': 409, 'widthPercent': 0.45, 'rescaleHeight': False, 'trialN': 85, 'loaded': True, 'loadedTime': 3966.9000000059605, 'positionName': 'RIGHT', 'positionCoords': [649.48, 83.5], 'bid': 3.34}]",181059.5,1669830399861,orange slices,ice cream sundae 002,3.58,3.34,-0.2400000000000002,orange slices,1314.5,1315,1315.300000011921,True,u,182881.30000001192,1821.800000011921,1669830401683,1822,HRV,HRV_0009,2022-11-30 17:49:51
86,"[{'imgObject': {}, 'id': 'chickenfingers', 'src': '/static/foodstim60/chickenfingers.jpg', 'key': 'u', 'origWidth': 410, 'origHeight': 410, 'width': 410, 'height': 410, 'widthPercent': 0.45, 'rescaleHeight': False, 'trialN': 86, 'loaded': True, 'loadedTime': 3817.6000000089407, 'positionName': 'LEFT', 'positionCoords': [189.52, 83], 'bid': 9.17}, {'imgObject': {}, 'id': 'froot loops w milk', 'src': '/static/foodstim60/froot loops w milk.jpg', 'key': 'i', 'origWidth': 410, 'origHeight': 410, 'width': 410, 'height': 410, 'widthPercent': 0.45, 'rescaleHeight': False, 'trialN': 86, 'loaded': True, 'loadedTime': 3996, 'positionName': 'RIGHT', 'positionCoords': [649.48, 83], 'bid': 3.75}]",182881.60000000894,1669830401683,chickenfingers,froot loops w milk,9.17,3.75,-5.42,chickenfingers,1282.7999999970198,1284,1284.0999999940395,True,u,184676.30000001192,1794.7000000029802,1669830403478,1795,HRV,HRV_0009,2022-11-30 17:49:51
87,"[{'imgObject': {}, 'id': 'turkeysandwich', 'src': '/static/foodstim60/turkeysandwich.jpg', 'key': 'u', 'origWidth': 409, 'origHeight': 409, 'width': 409, 'height': 409, 'widthPercent': 0.45, 'rescaleHeight': False, 'trialN': 87, 'loaded': True, 'loadedTime': 3430, 'positionName': 'LEFT', 'positionCoords': [190.52, 83.5], 'bid': 9.58}, {'imgObject': {}, 'id': 'salmon', 'src': '/static/foodstim60/salmon.jpg', 'key': 'i', 'origWidth': 410, 'origHeight': 409, 'width': 410, 'height': 409, 'widthPercent': 0.45, 'rescaleHeight': False, 'trialN': 87, 'loaded': True, 'loadedTime': 3911.9000000059605, 'positionName': 'RIGHT', 'positionCoords': [649.48, 83.5], 'bid': 9.84}]",184676.70000000298,1669830403478,turkeysandwich,salmon,9.58,9.84,0.2599999999999998,turkeysandwich,1709.1000000089407,1710,1709.9000000059605,True,u,186891.70000000298,2215.0,1669830405693,2215,HRV,HRV_0009,2022-11-30 17:49:51
88,"[{'imgObject': {}, 'id': 'kiwi', 'src': '/static/foodstim60/kiwi.jpg', 'key': 'u', 'origWidth': 410, 'origHeight': 410, 'width': 410, 'height': 410, 'widthPercent': 0.45, 'rescaleHeight': False, 'trialN': 88, 'loaded': True, 'loadedTime': 4100.20000000298, 'positionName': 'LEFT', 'positionCoords': [189.52, 83], 'bid': 0.33}, {'imgObject': {}, 'id': 'pear', 'src': '/static/foodstim60/pear.jpg', 'key': 'i', 'origWidth': 411, 'origHeight': 410, 'width': 411, 'height': 410, 'widthPercent': 0.45, 'rescaleHeight': False, 'trialN': 88, 'loaded': True, 'loadedTime': 3666, 'positionName': 'RIGHT', 'positionCoords': [649.48, 83], 'bid': 3.77}]",186892.10000000894,1669830405693,kiwi,pear,0.33,3.77,3.44,pear,1149.2999999970198,1152,1151.2000000029802,True,i,188557.20000000298,1665.0999999940395,1669830407359,1666,HRV,HRV_0009,2022-11-30 17:49:51
89,"[{'imgObject': {}, 'id': 'sweetpotato', 'src': '/static/foodstim60/sweetpotato.jpg', 'key': 'u', 'origWidth': 410, 'origHeight': 410, 'width': 410, 'height': 410, 'widthPercent': 0.45, 'rescaleHeight': False, 'trialN': 89, 'loaded': True, 'loadedTime': 3646.9000000059605, 'positionName': 'LEFT', 'positionCoords': [189.52, 83], 'bid': 8.49}, {'imgObject': {}, 'id': 'grilled chicken strips', 'src': '/static/foodstim60/grilled chicken strips.jpg', 'key': 'i', 'origWidth': 410, 'origHeight': 411, 'width': 410, 'height': 411, 'widthPercent': 0.45, 'rescaleHeight': False, 'trialN': 89, 'loaded': True, 'loadedTime': 3934.9000000059605, 'positionName': 'RIGHT', 'positionCoords': [649.48, 82.5], 'bid': 10}]",188557.60000000894,1669830407359,sweetpotato,grilled chicken strips,8.49,10.0,1.5099999999999998,grilled chicken strips,1399.5999999940395,1400,1400.5,True,i,190469.0,1911.3999999910593,1669830409270,1911,HRV,HRV_0009,2022-11-30 17:49:51
90,"[{'imgObject': {}, 'id': 'rigatoni and sauce', 'src': '/static/foodstim60/rigatoni and sauce.jpg', 'key': 'u', 'origWidth': 410, 'origHeight': 411, 'width': 410, 'height': 411, 'widthPercent': 0.45, 'rescaleHeight': False, 'trialN': 90, 'loaded': True, 'loadedTime': 4062, 'positionName': 'LEFT', 'positionCoords': [189.52, 82.5], 'bid': 8.67}, {'imgObject': {}, 'id': 'fried eggs', 'src': '/static/foodstim60/fried eggs.jpg', 'key': 'i', 'origWidth': 410, 'origHeight': 410, 'width': 410, 'height': 410, 'widthPercent': 0.45, 'rescaleHeight': False, 'trialN': 90, 'loaded': True, 'loadedTime': 3944.9000000059605, 'positionName': 'RIGHT', 'positionCoords': [649.48, 83], 'bid': 9.9}]",194010.20000000298,1669830412812,rigatoni and sauce,fried eggs,8.67,9.9,1.2300000000000004,rigatoni and sauce,1940.4000000059605,1944,1944.7999999970198,True,u,196463.40000000596,2453.2000000029802,1669830415265,2453,HRV,HRV_0009,2022-11-30 17:49:51
91,"[{'imgObject': {}, 'id': 'shreddedwheatwithmilk', 'src': '/static/foodstim60/shreddedwheatwithmilk.jpg', 'key': 'u', 'origWidth': 410, 'origHeight': 410, 'width': 410, 'height': 410, 'widthPercent': 0.45, 'rescaleHeight': False, 'trialN': 91, 'loaded': True, 'loadedTime': 3581.300000011921, 'positionName': 'LEFT', 'positionCoords': [189.52, 83], 'bid': 5.0200000000000005}, {'imgObject': {}, 'id': 'raisin bran w milk', 'src': '/static/foodstim60/raisin bran w milk.jpg', 'key': 'i', 'origWidth': 411, 'origHeight': 411, 'width': 411, 'height': 411, 'widthPercent': 0.45, 'rescaleHeight': False, 'trialN': 91, 'loaded': True, 'loadedTime': 3898.9000000059605, 'positionName': 'RIGHT', 'positionCoords': [649.48, 82.5], 'bid': 4.92}]",196463.70000000298,1669830415265,shreddedwheatwithmilk,raisin bran w milk,5.0200000000000005,4.92,-0.10000000000000053,raisin bran w milk,1665.2000000029802,1666,1666.2000000029802,True,i,198633.10000000894,2169.4000000059605,1669830417434,2169,HRV,HRV_0009,2022-11-30 17:49:51
92,"[{'imgObject': {}, 'id': 'cantaloupe', 'src': '/static/foodstim60/cantaloupe.jpg', 'key': 'u', 'origWidth': 409, 'origHeight': 409, 'width': 409, 'height': 409, 'widthPercent': 0.45, 'rescaleHeight': False, 'trialN': 92, 'loaded': True, 'loadedTime': 3637.300000011921, 'positionName': 'LEFT', 'positionCoords': [190.52, 83.5], 'bid': 5.32}, {'imgObject': {}, 'id': 'eggsalad', 'src': '/static/foodstim60/eggsalad.jpg', 'key': 'i', 'origWidth': 410, 'origHeight': 409, 'width': 410, 'height': 409, 'widthPercent': 0.45, 'rescaleHeight': False, 'trialN': 92, 'loaded': True, 'loadedTime': 3864.6000000089407, 'positionName': 'RIGHT', 'positionCoords': [649.48, 83.5], 'bid': 0.09}]",198633.5,1669830417435,cantaloupe,eggsalad,5.32,0.09,-5.23,cantaloupe,1371.6000000089407,1372,1372.5,True,u,200507.20000000298,1873.7000000029802,1669830419309,1874,HRV,HRV_0009,2022-11-30 17:49:51
93,"[{'imgObject': {}, 'id': 'granola w milk', 'src': '/static/foodstim60/granola w milk.jpg', 'key': 'u', 'origWidth': 410, 'origHeight': 410, 'width': 410, 'height': 410, 'widthPercent': 0.45, 'rescaleHeight': False, 'trialN': 93, 'loaded': True, 'loadedTime': 3698.5, 'positionName': 'LEFT', 'positionCoords': [189.52, 83], 'bid': 5.96}, {'imgObject': {}, 'id': 'raisin bran w milk', 'src': '/static/foodstim60/raisin bran w milk.jpg', 'key': 'i', 'origWidth': 411, 'origHeight': 411, 'width': 411, 'height': 411, 'widthPercent': 0.45, 'rescaleHeight': False, 'trialN': 93, 'loaded': True, 'loadedTime': 3897.9000000059605, 'positionName': 'RIGHT', 'positionCoords': [649.48, 82.5], 'bid': 4.92}]",200507.70000000298,1669830419309,granola w milk,raisin bran w milk,5.96,4.92,-1.04,raisin bran w milk,1487.2999999970198,1488,1488.2000000029802,True,i,202510.60000000894,2002.9000000059605,1669830421312,2003,HRV,HRV_0009,2022-11-30 17:49:51
94,"[{'imgObject': {}, 'id': 'tacos', 'src': '/static/foodstim60/tacos.jpg', 'key': 'u', 'origWidth': 411, 'origHeight': 411, 'width': 411, 'height': 411, 'widthPercent': 0.45, 'rescaleHeight': False, 'trialN': 94, 'loaded': True, 'loadedTime': 4080, 'positionName': 'LEFT', 'positionCoords': [188.52, 82.5], 'bid': 3.08}, {'imgObject': {}, 'id': 'popsicles', 'src': '/static/foodstim60/popsicles.jpg', 'key': 'i', 'origWidth': 410, 'origHeight': 410, 'width': 410, 'height': 410, 'widthPercent': 0.45, 'rescaleHeight': False, 'trialN': 94, 'loaded': True, 'loadedTime': 3864.800000011921, 'positionName': 'RIGHT', 'positionCoords': [649.48, 83], 'bid': 0.04}]",202510.90000000596,1669830421312,tacos,popsicles,3.08,0.04,-3.04,tacos,1575.7000000029802,1577,1576.5,True,u,204601.30000001192,2090.4000000059605,1669830423403,2091,HRV,HRV_0009,2022-11-30 17:49:51
95,"[{'imgObject': {}, 'id': 'burrito', 'src': '/static/foodstim60/burrito.jpg', 'key': 'u', 'origWidth': 410, 'origHeight': 410, 'width': 410, 'height': 410, 'widthPercent': 0.45, 'rescaleHeight': False, 'trialN': 95, 'loaded': True, 'loadedTime': 4050.300000011921, 'positionName': 'LEFT', 'positionCoords': [189.52, 83], 'bid': 1.62}, {'imgObject': {}, 'id': 'yogurt no spoon', 'src': '/static/foodstim60/yogurt no spoon.jpg', 'key': 'i', 'origWidth': 411, 'origHeight': 410, 'width': 411, 'height': 410, 'widthPercent': 0.45, 'rescaleHeight': False, 'trialN': 95, 'loaded': True, 'loadedTime': 3520, 'positionName': 'RIGHT', 'positionCoords': [649.48, 83], 'bid': 4.79}]",204601.90000000596,1669830423403,burrito,yogurt no spoon,1.62,4.79,3.17,yogurt no spoon,1300.5999999940395,1303,1302.9000000059605,True,i,206416.90000000596,1815.0,1669830425218,1815,HRV,HRV_0009,2022-11-30 17:49:51
96,"[{'imgObject': {}, 'id': 'olives', 'src': '/static/foodstim60/olives.jpg', 'key': 'u', 'origWidth': 410, 'origHeight': 410, 'width': 410, 'height': 410, 'widthPercent': 0.45, 'rescaleHeight': False, 'trialN': 96, 'loaded': True, 'loadedTime': 3702.800000011921, 'positionName': 'LEFT', 'positionCoords': [189.52, 83], 'bid': 0.17}, {'imgObject': {}, 'id': 'raspberries', 'src': '/static/foodstim60/raspberries.jpg', 'key': 'i', 'origWidth': 411, 'origHeight': 411, 'width': 411, 'height': 411, 'widthPercent': 0.45, 'rescaleHeight': False, 'trialN': 96, 'loaded': True, 'loadedTime': 3877.2000000029802, 'positionName': 'RIGHT', 'positionCoords': [649.48, 82.5], 'bid': 2.65}]",206417.20000000298,1669830425219,olives,raspberries,0.17,2.65,2.48,raspberries,2124.7000000029802,2126,2126.1000000089407,True,i,209057.20000000298,2640.0,1669830427859,2640,HRV,HRV_0009,2022-11-30 17:49:51
97,"[{'imgObject': {}, 'id': 'sweetpotato', 'src': '/static/foodstim60/sweetpotato.jpg', 'key': 'u', 'origWidth': 410, 'origHeight': 410, 'width': 410, 'height': 410, 'widthPercent': 0.45, 'rescaleHeight': False, 'trialN': 97, 'loaded': True, 'loadedTime': 3665.4000000059605, 'positionName': 'LEFT', 'positionCoords': [189.52, 83], 'bid': 8.49}, {'imgObject': {}, 'id': 'eggs', 'src': '/static/foodstim60/eggs.jpg', 'key': 'i', 'origWidth': 409, 'origHeight': 409, 'width': 409, 'height': 409, 'widthPercent': 0.45, 'rescaleHeight': False, 'trialN': 97, 'loaded': True, 'loadedTime': 3837.800000011921, 'positionName': 'RIGHT', 'positionCoords': [649.48, 83.5], 'bid': 9.73}]",209057.80000001192,1669830427859,sweetpotato,eggs,8.49,9.73,1.2400000000000002,eggs,1767.7999999970198,1769,1768.7999999970198,True,i,211330.10000000894,2272.2999999970198,1669830430131,2272,HRV,HRV_0009,2022-11-30 17:49:51
98,"[{'imgObject': {}, 'id': 'cherry tomato', 'src': '/static/foodstim60/cherry tomato.jpg', 'key': 'u', 'origWidth': 410, 'origHeight': 410, 'width': 410, 'height': 410, 'widthPercent': 0.45, 'rescaleHeight': False, 'trialN': 98, 'loaded': True, 'loadedTime': 3731.5, 'positionName': 'LEFT', 'positionCoords': [189.52, 83], 'bid': 4.7}, {'imgObject': {}, 'id': 'cantaloupe', 'src': '/static/foodstim60/cantaloupe.jpg', 'key': 'i', 'origWidth': 409, 'origHeight': 409, 'width': 409, 'height': 409, 'widthPercent': 0.45, 'rescaleHeight': False, 'trialN': 98, 'loaded': True, 'loadedTime': 3641.6000000089407, 'positionName': 'RIGHT', 'positionCoords': [649.48, 83.5], 'bid': 5.32}]",211330.70000000298,1669830430132,cherry tomato,cantaloupe,4.7,5.32,0.6200000000000001,cantaloupe,1404.7000000029802,1406,1405.7000000029802,True,i,213246.30000001192,1915.6000000089407,1669830432048,1916,HRV,HRV_0009,2022-11-30 17:49:51
99,"[{'imgObject': {}, 'id': 'rigatoni and sauce', 'src': '/static/foodstim60/rigatoni and sauce.jpg', 'key': 'u', 'origWidth': 410, 'origHeight': 411, 'width': 410, 'height': 411, 'widthPercent': 0.45, 'rescaleHeight': False, 'trialN': 99, 'loaded': True, 'loadedTime': 4062.300000011921, 'positionName': 'LEFT', 'positionCoords': [189.52, 82.5], 'bid': 8.67}, {'imgObject': {}, 'id': 'eggs', 'src': '/static/foodstim60/eggs.jpg', 'key': 'i', 'origWidth': 409, 'origHeight': 409, 'width': 409, 'height': 409, 'widthPercent': 0.45, 'rescaleHeight': False, 'trialN': 99, 'loaded': True, 'loadedTime': 3838, 'positionName': 'RIGHT', 'positionCoords': [649.48, 83.5], 'bid': 9.73}]",213246.90000000596,1669830432048,rigatoni and sauce,eggs,8.67,9.73,1.0600000000000005,rigatoni and sauce,1134.0999999940395,1139,1136.2000000029802,True,u,214897.80000001192,1650.9000000059605,1669830433702,1654,HRV,HRV_0009,2022-11-30 17:49:51
100,"[{'imgObject': {}, 'id': 'ice cream sundae 002', 'src': '/static/foodstim60/ice cream sundae 002.jpg', 'key': 'u', 'origWidth': 409, 'origHeight': 409, 'width': 409, 'height': 409, 'widthPercent': 0.45, 'rescaleHeight': False, 'trialN': 100, 'loaded': True, 'loadedTime': 3970.300000011921, 'positionName': 'LEFT', 'positionCoords': [190.52, 83.5], 'bid': 3.34}, {'imgObject': {}, 'id': 'Grapes', 'src': '/static/foodstim60/Grapes.jpg', 'key': 'i', 'origWidth': 411, 'origHeight': 411, 'width': 411, 'height': 411, 'widthPercent': 0.45, 'rescaleHeight': False, 'trialN': 100, 'loaded': True, 'loadedTime': 3799.300000011921, 'positionName': 'RIGHT', 'positionCoords': [649.48, 82.5], 'bid': 3.79}]",214898.10000000894,1669830433702,ice cream sundae 002,Grapes,3.34,3.79,0.4500000000000002,Grapes,1340.5,1342,1341.3999999910593,True,i,216750.40000000596,1852.2999999970198,1669830435555,1853,HRV,HRV_0009,2022-11-30 17:49:51
101,"[{'imgObject': {}, 'id': 'lox', 'src': '/static/foodstim60/lox.jpg', 'key': 'u', 'origWidth': 410, 'origHeight': 411, 'width': 410, 'height': 411, 'widthPercent': 0.45, 'rescaleHeight': False, 'trialN': 101, 'loaded': True, 'loadedTime': 3746.1000000089407, 'positionName': 'LEFT', 'positionCoords': [189.52, 82.5], 'bid': 0.86}, {'imgObject': {}, 'id': 'ice cream sundae 002', 'src': '/static/foodstim60/ice cream sundae 002.jpg', 'key': 'i', 'origWidth': 409, 'origHeight': 409, 'width': 409, 'height': 409, 'widthPercent': 0.45, 'rescaleHeight': False, 'trialN': 101, 'loaded': True, 'loadedTime': 3973.800000011921, 'positionName': 'RIGHT', 'positionCoords': [649.48, 83.5], 'bid': 3.34}]",216750.70000000298,1669830435555,lox,ice cream sundae 002,0.86,3.34,2.48,lox,1614.5,1616,1616.5,True,u,218876.90000000596,2126.2000000029802,1669830437681,2126,HRV,HRV_0009,2022-11-30 17:49:51
102,"[{'imgObject': {}, 'id': 'steak', 'src': '/static/foodstim60/steak.jpg', 'key': 'u', 'origWidth': 410, 'origHeight': 410, 'width': 410, 'height': 410, 'widthPercent': 0.45, 'rescaleHeight': False, 'trialN': 102, 'loaded': True, 'loadedTime': 3936.2000000029802, 'positionName': 'LEFT', 'positionCoords': [189.52, 83], 'bid': 9.84}, {'imgObject': {}, 'id': 'sushi w_condiments', 'src': '/static/foodstim60/sushi w_condiments.jpg', 'key': 'i', 'origWidth': 410, 'origHeight': 410, 'width': 410, 'height': 410, 'widthPercent': 0.45, 'rescaleHeight': False, 'trialN': 102, 'loaded': True, 'loadedTime': 3440.7000000029802, 'positionName': 'RIGHT', 'positionCoords': [649.48, 83], 'bid': 9.34}]",218877.20000000298,1669830437681,steak,sushi w_condiments,9.84,9.34,-0.5,sushi w_condiments,980.7999999970198,982,981.7000000029802,True,i,220368.30000001192,1491.1000000089407,1669830439172,1491,HRV,HRV_0009,2022-11-30 17:49:51
103,"[{'imgObject': {}, 'id': 'raspberries', 'src': '/static/foodstim60/raspberries.jpg', 'key': 'u', 'origWidth': 411, 'origHeight': 411, 'width': 411, 'height': 411, 'widthPercent': 0.45, 'rescaleHeight': False, 'trialN': 103, 'loaded': True, 'loadedTime': 3879.7000000029802, 'positionName': 'LEFT', 'positionCoords': [188.52, 82.5], 'bid': 2.65}, {'imgObject': {}, 'id': 'tacos', 'src': '/static/foodstim60/tacos.jpg', 'key': 'i', 'origWidth': 411, 'origHeight': 411, 'width': 411, 'height': 411, 'widthPercent': 0.45, 'rescaleHeight': False, 'trialN': 103, 'loaded': True, 'loadedTime': 4078.7000000029802, 'positionName': 'RIGHT', 'positionCoords': [649.48, 82.5], 'bid': 3.08}]",220368.70000000298,1669830439173,raspberries,tacos,2.65,3.08,0.43000000000000016,tacos,1492.5,1493,1493.4000000059605,True,i,222369.10000000894,2000.4000000059605,1669830441173,2000,HRV,HRV_0009,2022-11-30 17:49:51
104,"[{'imgObject': {}, 'id': 'mango', 'src': '/static/foodstim60/mango.jpg', 'key': 'u', 'origWidth': 411, 'origHeight': 411, 'width': 411, 'height': 411, 'widthPercent': 0.45, 'rescaleHeight': False, 'trialN': 104, 'loaded': True, 'loadedTime': 3463.6000000089407, 'positionName': 'LEFT', 'positionCoords': [188.52, 82.5], 'bid': 1.11}, {'imgObject': {}, 'id': 'strawberries', 'src': '/static/foodstim60/strawberries.jpg', 'key': 'i', 'origWidth': 410, 'origHeight': 410, 'width': 410, 'height': 410, 'widthPercent': 0.45, 'rescaleHeight': False, 'trialN': 104, 'loaded': True, 'loadedTime': 4110.800000011921, 'positionName': 'RIGHT', 'positionCoords': [649.48, 83], 'bid': 1.46}]",222369.5,1669830441174,mango,strawberries,1.11,1.46,0.34999999999999987,strawberries,2015.800000011921,2017,2017.4000000059605,True,i,224900.40000000596,2530.9000000059605,1669830443705,2531,HRV,HRV_0009,2022-11-30 17:49:51
105,"[{'imgObject': {}, 'id': 'salmon', 'src': '/static/foodstim60/salmon.jpg', 'key': 'u', 'origWidth': 410, 'origHeight': 409, 'width': 410, 'height': 409, 'widthPercent': 0.45, 'rescaleHeight': False, 'trialN': 105, 'loaded': True, 'loadedTime': 3912.300000011921, 'positionName': 'LEFT', 'positionCoords': [189.52, 83.5], 'bid': 9.84}, {'imgObject': {}, 'id': 'mac & cheese', 'src': '/static/foodstim60/mac & cheese.jpg', 'key': 'i', 'origWidth': 410, 'origHeight': 410, 'width': 410, 'height': 410, 'widthPercent': 0.45, 'rescaleHeight': False, 'trialN': 105, 'loaded': True, 'loadedTime': 3487.5, 'positionName': 'RIGHT', 'positionCoords': [649.48, 83], 'bid': 7.85}]",224900.90000000596,1669830443705,salmon,mac & cheese,9.84,7.85,-1.9900000000000002,salmon,1121.4000000059605,1122,1122.2000000029802,True,u,226535.60000000894,1634.7000000029802,1669830445340,1635,HRV,HRV_0009,2022-11-30 17:49:51
106,"[{'imgObject': {}, 'id': 'blackbeanswithrice', 'src': '/static/foodstim60/blackbeanswithrice.jpg', 'key': 'u', 'origWidth': 410, 'origHeight': 410, 'width': 410, 'height': 410, 'widthPercent': 0.45, 'rescaleHeight': False, 'trialN': 106, 'loaded': True, 'loadedTime': 4023, 'positionName': 'LEFT', 'positionCoords': [189.52, 83], 'bid': 6.91}, {'imgObject': {}, 'id': 'chicken nuggets2', 'src': '/static/foodstim60/chicken nuggets2.jpg', 'key': 'i', 'origWidth': 410, 'origHeight': 409, 'width': 410, 'height': 409, 'widthPercent': 0.45, 'rescaleHeight': False, 'trialN': 106, 'loaded': True, 'loadedTime': 3904.6000000089407, 'positionName': 'RIGHT', 'positionCoords': [649.48, 83.5], 'bid': 4.97}]",226536.0,1669830445340,blackbeanswithrice,chicken nuggets2,6.91,4.97,-1.9400000000000004,chicken nuggets2,1848.300000011921,1850,1850.300000011921,True,i,228891.20000000298,2355.2000000029802,1669830447695,2355,HRV,HRV_0009,2022-11-30 17:49:51
107,"[{'imgObject': {}, 'id': 'burger', 'src': '/static/foodstim60/burger.jpg', 'key': 'u', 'origWidth': 409, 'origHeight': 409, 'width': 409, 'height': 409, 'widthPercent': 0.45, 'rescaleHeight': False, 'trialN': 107, 'loaded': True, 'loadedTime': 3918.5, 'positionName': 'LEFT', 'positionCoords': [190.52, 83.5], 'bid': 8.65}, {'imgObject': {}, 'id': 'baked potato', 'src': '/static/foodstim60/baked potato.jpg', 'key': 'i', 'origWidth': 409, 'origHeight': 410, 'width': 409, 'height': 410, 'widthPercent': 0.45, 'rescaleHeight': False, 'trialN': 107, 'loaded': True, 'loadedTime': 4054.5, 'positionName': 'RIGHT', 'positionCoords': [649.48, 83], 'bid': 7.79}]",228891.70000000298,1669830447696,burger,baked potato,8.65,7.79,-0.8600000000000003,burger,1183.5,1184,1184.4000000059605,True,u,230584.60000000894,1692.9000000059605,1669830449389,1693,HRV,HRV_0009,2022-11-30 17:49:51
108,"[{'imgObject': {}, 'id': 'hotdog w must', 'src': '/static/foodstim60/hotdog w must.jpg', 'key': 'u', 'origWidth': 409, 'origHeight': 409, 'width': 409, 'height': 409, 'widthPercent': 0.45, 'rescaleHeight': False, 'trialN': 108, 'loaded': True, 'loadedTime': 4075.4000000059605, 'positionName': 'LEFT', 'positionCoords': [190.52, 83.5], 'bid': 8.01}, {'imgObject': {}, 'id': 'fried eggs', 'src': '/static/foodstim60/fried eggs.jpg', 'key': 'i', 'origWidth': 410, 'origHeight': 410, 'width': 410, 'height': 410, 'widthPercent': 0.45, 'rescaleHeight': False, 'trialN': 108, 'loaded': True, 'loadedTime': 3945.2000000029802, 'positionName': 'RIGHT', 'positionCoords': [649.48, 83], 'bid': 9.9}]",230585.0,1669830449389,hotdog w must,fried eggs,8.01,9.9,1.8900000000000006,hotdog w must,1087.7000000029802,1089,1088.7000000029802,True,u,232195.20000000298,1610.2000000029802,1669830450999,1610,HRV,HRV_0009,2022-11-30 17:49:51
