Answer,C_Pay,Question,QuestionNum,jitter,C_Trial,C_QPresent,rsp,C_SWK,C_SWK_rt,C_AnswerPresent,C_WorthPresent,C_Worth,C_Worth_rt,C_TrialEnd,exp,subjectId,date
J,2,What's the only letter that doesn't appear in the periodic table of elements?,309,1.342,0,2708.5999999940395,t,W,6730.20000000298,11948.20000000298,15965.89999999106,3,539.1000000089407,18371.39999999106,HRV,HRV_0009,2022-11-30 17:35:03
Liffey,5,What river runs through Dublin?   ,253,0.908,1,18371.59999999404,q,S,3325.7999999970198,,,,,23127.39999999106,HRV,HRV_0009,2022-11-30 17:35:03
Zinfindel,4,"What grape, used to make a popular California wine, is called Primitivo in Europe?  ",403,0.715,2,23127.39999999106,q,S,5358.20000000298,,,,,29724.29999999702,HRV,HRV_0009,2022-11-30 17:35:03
A Cheeta born in 1932,4,Who is the world's oldest (non-human) primate on record?  ,369,1.489,3,29724.29999999702,q,S,4768.9000000059605,,,,,36494.5,HRV,HRV_0009,2022-11-30 17:35:03
Sunrise or sunset,3,"When is the optical phenomenon called a ""green flash"" or ""green ray"" visible?  ",313,1.728,4,36494.59999999404,q,S,5646.5,,,,,44384.39999999106,HRV,HRV_0009,2022-11-30 17:35:03
"Third finger, left hand ",6,What part of his body did Keith Richards insure for a million pounds?,243,0.532,5,44384.59999999404,p,K,7222.79999999702,,,,,52665.79999999702,HRV,HRV_0009,2022-11-30 17:35:03
The Oxford English Dictionary,4,"W.C. Minor, a murderer, spent the last decades of his life in an insane asylum writing hundreds of entries for what reference work? ",121,1.147,6,52665.89999999106,t,W,8493.60000000894,63676.5,67688.09999999404,1,699.7999999970198,70079.70000000298,HRV,HRV_0009,2022-11-30 17:35:03
Canadian Oil,7,What is canola an abbreviation for?,436,0.916,7,70079.79999999702,q,S,3675.7999999970198,,,,,75190.79999999702,HRV,HRV_0009,2022-11-30 17:35:03
The bishop,2,Which chess piece was originally called 'the elephant'? ,334,1.185,8,75190.89999999106,t,W,5031.4000000059605,82733.59999999404,86742.89999999106,4,1722.6000000089407,90171.59999999404,HRV,HRV_0009,2022-11-30 17:35:03
A red giant ,1,"What kind of enormous, cool star will our own sun become in five billion years? ",224,0.64,9,90171.70000000298,p,K,4479.29999999702,,,,,95818.09999999404,HRV,HRV_0009,2022-11-30 17:35:03
Giant squid,6,What is the largest creature without a backbone? ,203,1.383,10,95818.29999999702,p,K,4956.5,,,,,102674.5,HRV,HRV_0009,2022-11-30 17:35:03
"Cle(a)veland, Ohio",2,The name of which city permanently lost its first 'a' when the first issue of a newspaper was published in 1831 and they had to shorten it to fit on the paper's masthead?,102,1.6,11,102674.5,,,,,,,,112182.0,HRV,HRV_0009,2022-11-30 17:35:03
Twenty-fourth ,3,Which Constitutional Amendment deals with poll taxes? ,335,1.105,12,112182.0,q,S,3786.7999999970198,,,,,117583.29999999702,HRV,HRV_0009,2022-11-30 17:35:03
Mice,5,"After humans, what's the worlds most abundant mammal species?",16,0.584,13,117583.5,q,S,5158.899999991059,,,,,123842.5,HRV,HRV_0009,2022-11-30 17:35:03
Echinoderms,4,"Starfish belong to what animal phylum, whose name means ""spiny skin""? ",85,1.824,14,123842.5,q,S,2522.3999999910593,,,,,128704.59999999404,HRV,HRV_0009,2022-11-30 17:35:03
the skin and bones of animals,4,What is gelatin made from?,445,0.968,15,128704.59999999404,p,K,2545.0,,,,,132769.0,HRV,HRV_0009,2022-11-30 17:35:03
The Super Bowl ,1,What rubber Wham-O toy inspired the name of one of the world's largest sporting events? ,255,0.959,16,132769.0,t,W,7106.399999991059,142397.59999999404,146406.59999999404,5,1620.7000000029802,149496.20000000298,HRV,HRV_0009,2022-11-30 17:35:03
Endeavour ,7,What is the name of the ship that carried Captain Cook to Australia?  ,208,1.162,17,149496.39999999106,p,K,3988.2000000029802,,,,,155163.09999999404,HRV,HRV_0009,2022-11-30 17:35:03
Marven (Marvin) Gardens,5,"What Margate City, NJ, housing area has been misspelled on the Monopoly board for almost 80 years?",229,1.693,18,155163.29999999702,q,S,5885.70000000298,,,,,163261.39999999106,HRV,HRV_0009,2022-11-30 17:35:03
Adlai Stevenson,5,Who twice lost presidential elections to Dwight Eisenhower in the 1950s?  ,375,0.828,19,163261.39999999106,p,K,4943.9000000059605,,,,,169561.70000000298,HRV,HRV_0009,2022-11-30 17:35:03
Bhutan,3,"Thimpu, the world's only capital city with no traffic lights, is the capital of what tiny kingdom?",114,0.559,20,169561.70000000298,q,S,4239.0,,,,,174870.29999999702,HRV,HRV_0009,2022-11-30 17:35:03
Frog,3,Certain types of which animal can be frozen solid and then continue living once thawed?,30,1.145,21,174870.29999999702,p,K,6826.9000000059605,,,,,183353.89999999106,HRV,HRV_0009,2022-11-30 17:35:03
Apples. They don't have caffeine but the natural sugar and vitamins release slowly and make you feel more awake. ,1,Whice fruit is effective than coffee at waking you up in the morning?,454,1.373,22,183353.89999999106,t,W,6601.800000011921,192474.20000000298,196495.89999999106,5,1475.300000011921,199858.20000000298,HRV,HRV_0009,2022-11-30 17:35:03
Sweden,3,What nation's dyslexic king Carl XVI Gustaf misspelled his own name on the accession document that gave him the throne?,237,1.297,23,199858.29999999702,q,S,5445.70000000298,,,,,207120.59999999404,HRV,HRV_0009,2022-11-30 17:35:03
Tears,6,"At 6-8 weeks, babies start producing what? ",23,1.18,24,207120.59999999404,q,S,2415.1000000089407,,,,,211236.59999999404,HRV,HRV_0009,2022-11-30 17:35:03
A soccer ball,1,What common item is usually made up of twelve pentagons and twenty hexagons?,154,1.228,25,211236.70000000298,t,W,4305.399999991059,218064.20000000298,222089.89999999106,2,1190.7000000029802,225034.09999999404,HRV,HRV_0009,2022-11-30 17:35:03
cooking,4,"If you suffer from Mageirocophobia, what are you scared of?",438,1.103,26,225034.20000000298,t,W,5288.79999999702,232841.29999999702,236860.79999999702,2,1601.9000000059605,240092.59999999404,HRV,HRV_0009,2022-11-30 17:35:03
Harmonica,1,"What's sometimes called a ""licking stick"" or a ""tin sandwich""?  ",301,1.685,27,240092.59999999404,q,S,3349.0,,,,,245649.09999999404,HRV,HRV_0009,2022-11-30 17:35:03
"the Red Hot Chili Peppers, followed closely by Meatloaf",3,Some bands share a name with a food. Which band named after a foodstuff has sold the most records?,439,1.277,28,245649.20000000298,q,S,6330.5999999940395,,,,,253783.09999999404,HRV,HRV_0009,2022-11-30 17:35:03
Woodrow Wilson,2,Which U.S. president's home was named Shadow Lawn?,356,0.509,29,253783.09999999404,t,W,4991.0,261290.59999999404,265310.89999999106,3,1100.4000000059605,267435.700000003,HRV,HRV_0009,2022-11-30 17:35:03
Tea leaves,2,Tasseomancy is a method of fortune telling that primarily uses what? ,418,1.464,30,267435.799999997,q,S,2684.5999999940395,,,,,272099.09999999404,HRV,HRV_0009,2022-11-30 17:35:03
Crocodiles,1,"Which animals swallow large stones, which remain in their bellies and are thought to be used as ballasts for diving?",330,0.578,31,272099.200000003,p,K,5163.199999988079,,,,,278354.700000003,HRV,HRV_0009,2022-11-30 17:35:03
Mickey Finn,2,What owner-bartender of Chicago's Lone Star Saloon was famous for his drug-laced drinks? ,241,1.526,32,278354.799999997,q,S,5372.0,,,,,285770.89999999106,HRV,HRV_0009,2022-11-30 17:35:03
The Korean War,3,"What 20th-century conflict was dubbed the ""forgotten war"" despite over 50,000 U.S. deaths?",126,1.977,33,285771.0,p,K,4763.399999991059,,,,,293025.700000003,HRV,HRV_0009,2022-11-30 17:35:03
Death,1,"In ancient Egypt, what was the penalty for killing a cat?",58,1.046,34,293025.89999999106,q,S,3172.300000011921,,,,,297764.09999999404,HRV,HRV_0009,2022-11-30 17:35:03
Poland,3,What EU nation was once led by a president and a prime minister who were identical twins? ,172,0.808,35,297764.09999999404,q,S,4055.0,,,,,303157.09999999404,HRV,HRV_0009,2022-11-30 17:35:03
The names of the Great Lakes ,2,"What are you trying to remember if you use the mnemonic ""HOMES""?  ",138,1.606,36,303157.200000003,q,S,6217.0,,,,,311511.09999999404,HRV,HRV_0009,2022-11-30 17:35:03
On a Jell-O box,2,"Where would you see the consumer warning ""Do not use fresh or frozen pineapple, kiwi, ginger-root, papaya, figs, or guava""?",411,1.792,37,311511.200000003,q,S,6026.29999999702,,,,,319854.59999999404,HRV,HRV_0009,2022-11-30 17:35:03
Bacon,3,"In Britain, what kind of meat comes in rashers?",397,0.555,38,319854.59999999404,q,S,3151.5,,,,,324080.5,HRV,HRV_0009,2022-11-30 17:35:03
Xanadu ,2,What 1980 film is named for the legendary square-shaped capital of Kublai Khan? ,123,1.468,39,324080.59999999404,q,S,6951.79999999702,,,,,333018.299999997,HRV,HRV_0009,2022-11-30 17:35:03
Midnight Cowboy ,5,What was the only X-rated film to win the Academy Award for Best Picture?  ,293,1.158,40,333018.299999997,q,S,3124.7000000029802,,,,,337817.0,HRV,HRV_0009,2022-11-30 17:35:03
"Intercourse, Pennsylvania",4,"What Amish country village in Pennsylvania, where ""Witness"" was filmed, is a frequent victim of street-sign theft?",130,1.777,41,337817.09999999404,q,S,4858.79999999702,,,,,344970.59999999404,HRV,HRV_0009,2022-11-30 17:35:03
Air bags,2,"Sodium azide, a highly toxic chemical, is best-known for being used to develop what lifesaving devices?",84,1.239,42,344970.700000003,q,S,4864.399999991059,,,,,351600.59999999404,HRV,HRV_0009,2022-11-30 17:35:03
Cricket,4,"What sport used the term ""home run"" long before baseball?  ",260,1.939,43,351600.700000003,q,S,4297.899999991059,,,,,358351.59999999404,HRV,HRV_0009,2022-11-30 17:35:03
It causes sour foods subsequently consumed to taste sweet. ,6,Why is the Synsepalum dulcificum berry called the miracle fruit?,464,0.936,44,358351.59999999404,q,S,3665.5,,,,,363469.09999999404,HRV,HRV_0009,2022-11-30 17:35:03
Tooth,7,What is the only part of the body that can't repair itself? ,210,1.742,45,363469.09999999404,q,S,3460.5,,,,,369189.0,HRV,HRV_0009,2022-11-30 17:35:03
Broccoli! ,7,Whice vegeteable has more vitamin C than an orange and as much calcium as whole milk?,456,1.276,46,369189.09999999404,q,S,6661.79999999702,,,,,377647.200000003,HRV,HRV_0009,2022-11-30 17:35:03
Smurfette,1,"Who did Gargamel create using ingredients like crocodile tears, the tip of an adder's tongue and a hard stone for a heart?",364,1.684,47,377647.200000003,p,K,5701.29999999702,,,,,385556.59999999404,HRV,HRV_0009,2022-11-30 17:35:03
Tuxedo Club ,1,What New York country club lent its name to the kind of dinner jacket first worn there in 1886?  ,238,0.636,48,385556.59999999404,t,W,7426.20000000298,395495.700000003,399525.0,4,1729.8999999910593,402410.89999999106,HRV,HRV_0009,2022-11-30 17:35:03
Asparagus,5,what vegetable loses its flavour the quickest?,451,1.201,49,402410.89999999106,q,S,3286.7000000029802,,,,,407420.09999999404,HRV,HRV_0009,2022-11-30 17:35:03
A Spoonful of Sugar ,6,What classic Disney song was inspired by lyricist Robert Sherman's fiver-year old son receiving the Sabin polio vaccine at school?,420,1.62,50,407420.09999999404,q,S,3641.5,,,,,413213.09999999404,HRV,HRV_0009,2022-11-30 17:35:03
Dorito is Spanish for little golden things,6,What does Dorito actually mean?,434,1.044,51,413213.09999999404,q,S,3128.2000000029802,,,,,417905.39999999106,HRV,HRV_0009,2022-11-30 17:35:03
A wiki,1,"What kind of information resource takes its name from a Hawaiian word for ""quick""? ",225,1.815,52,417905.39999999106,q,S,4043.0,,,,,424287.200000003,HRV,HRV_0009,2022-11-30 17:35:03
OutKast,4,Who was sued in 1999 by Rosa Parks after they used her name to title a hit song?  ,379,1.306,53,424287.200000003,q,S,5608.0,,,,,431725.39999999106,HRV,HRV_0009,2022-11-30 17:35:03
Habanero,2,What chili pepper was believed the hottest in the world until the Naga Jolokia pepper was discovered in India in 2000?,401,0.855,54,431725.39999999106,q,S,5928.800000011921,,,,,439029.89999999106,HRV,HRV_0009,2022-11-30 17:35:03
It sits beside the Finger Lakes ,2,"Why is Oneida Lake, near Syracuse, New York, sometimes called ""the thumb""?",393,1.813,55,439030.0,q,S,2899.0999999940395,,,,,444252.59999999404,HRV,HRV_0009,2022-11-30 17:35:03
A mine shaft passage,7,What is an adit?  ,197,1.982,56,444252.59999999404,q,S,2229.4000000059605,,,,,448987.299999997,HRV,HRV_0009,2022-11-30 17:35:03
Pen(n)sylvania ,1,What proper name is spelled unusually with a single 'n' both on the Liberty Bell and in the U.S. Constitution? ,249,1.548,57,448987.299999997,t,W,6351.5999999940395,457843.299999997,461859.39999999106,5,2826.1000000089407,466750.200000003,HRV,HRV_0009,2022-11-30 17:35:03
Every jar of peanut butter must be at least 90% peanuts,4,What percentage of peanuts is found in a standard jar of peanut butter?,423,1.391,58,466750.200000003,p,K,4393.399999991059,,,,,473053.200000003,HRV,HRV_0009,2022-11-30 17:35:03
pastry,3,Choux and filo are two types of what food product?,446,0.62,59,473053.200000003,p,K,2545.5,,,,,476726.299999997,HRV,HRV_0009,2022-11-30 17:35:03
Nutmeg,4,What slightly hallucinogenic spice did Malcolm X use to get high while in prison? ,407,0.911,60,476726.39999999106,q,S,4547.100000008941,,,,,482718.5,HRV,HRV_0009,2022-11-30 17:35:03
Your blind spot,4,What's the more common name for the retinal scotoma caused by the optic nerve? ,303,0.706,61,482718.5,q,S,3020.8999999910593,,,,,486959.89999999106,HRV,HRV_0009,2022-11-30 17:35:03
Claudius,6,Which Roman emperor had a speech impediment?  ,351,0.507,62,486960.0,q,S,2273.0,,,,,490253.700000003,HRV,HRV_0009,2022-11-30 17:35:03
It's stamped on the coin's edge.,7,"What is unusual about the ""in God We Trust"" Motto on the U.S. Mint's recent presidential dollar coins?",215,0.734,63,490253.700000003,q,S,7674.29999999702,,,,,499192.5,HRV,HRV_0009,2022-11-30 17:35:03
An otter,6,What animal lives in a holt? ,133,1.835,64,499192.59999999404,q,S,1828.4000000059605,,,,,503372.09999999404,HRV,HRV_0009,2022-11-30 17:35:03
"A peanut is a legume, not a nut",7,What type of food is a peanut?,447,1.839,65,503372.200000003,p,K,2337.2999999970198,,,,,508076.0,HRV,HRV_0009,2022-11-30 17:35:03
Blue,2,Lobster blood is what color?,73,1.036,66,508076.0,p,K,1921.2000000029802,,,,,511558.5,HRV,HRV_0009,2022-11-30 17:35:03
Robert Lincoln ,1,Who was the only person to be nearby at three different presidential assassinations? ,382,0.962,67,511558.59999999404,t,W,7809.20000000298,521884.59999999404,525913.8999999911,4,2996.4000000059605,530392.8999999911,HRV,HRV_0009,2022-11-30 17:35:03
Silicon,7,What element is combined with oxygen to make up the mineral quartz?,269,1.615,68,530393.0,q,S,3372.5999999940395,,,,,535910.200000003,HRV,HRV_0009,2022-11-30 17:35:03
Germany,2,Which European country was the first to produce decaffeinated coffee? ,412,1.031,69,535910.299999997,q,S,2631.9000000059605,,,,,540094.700000003,HRV,HRV_0009,2022-11-30 17:35:03
Tobacco,6,"In 2005, Bhutan became the first country to entirely ban what?",57,0.951,70,540094.799999997,q,S,3245.7000000029802,,,,,544815.099999994,HRV,HRV_0009,2022-11-30 17:35:03
A Galapagos giant tortoise ,4,"What kind of animal was Hariet, who died at the Queensland Zoo in 2006 and was claimed to have belonged to Charles Darwin?",223,0.799,71,544815.200000003,q,S,4080.8999999910593,,,,,550223.5,HRV,HRV_0009,2022-11-30 17:35:03
Utah,4,"What US state advertised ""The Greatest Snow on Earth"" on its license plates? ",273,1.549,72,550223.700000003,q,S,4628.29999999702,,,,,556915.8999999911,HRV,HRV_0009,2022-11-30 17:35:03
New Jersey's Rutgers,1,Which U.S. state's leading public university is the only one not to be named for the state?  ,357,1.566,73,556915.8999999911,t,W,8319.0,567758.5,571775.5,4,2074.7000000029802,575923.200000003,HRV,HRV_0009,2022-11-30 17:35:03
Walt Disney,5,Which person has been awarded the most Oscars ever? ,349,1.665,74,575923.200000003,q,S,2827.0,,,,,580933.700000003,HRV,HRV_0009,2022-11-30 17:35:03
Giant squid,1,Which animal can have eyes that are a foot in diameter? ,324,1.577,75,580933.700000003,q,S,2577.8999999910593,,,,,585615.599999994,HRV,HRV_0009,2022-11-30 17:35:03
Australia,6,What country has six sheep for every human? ,158,1.362,76,585615.599999994,q,S,2540.5,,,,,590046.3999999911,HRV,HRV_0009,2022-11-30 17:35:03
"Puffer fish, if they are prepared incorrectly thheir poison could kill the eater. ",5,Cooking which food requires over two years of training?,461,0.576,77,590046.3999999911,q,S,3344.2000000029802,,,,,594477.299999997,HRV,HRV_0009,2022-11-30 17:35:03
Kiwi,6,"Which bird species has survived more than 70 million years, despite the fact that it lays one egg a year and is nearly blind?",331,1.211,78,594477.3999999911,q,S,6100.100000008941,,,,,602317.0,HRV,HRV_0009,2022-11-30 17:35:03
