success,trial_type,trial_index,time_elapsed,internal_node_id,Block,TrialNumber,TrialTime,trialTimeDiff,FPS_avg,FPS_med,FPS_mode,TrialDur,winResizeTime,rt,block,button_pressed,MotCoh,MotDir,ColCoh,Color,ChoiceKey,Choice,Accuracy,RT,nFrames,FPS,PPD,missTrial,missTrialMsg,onsetDelay,fullScreenExitTime,canvCenter,TrialType,Score,BlockTrial,stimulus,button_labels,exp,subjectId,date
True,fullscreen,0,1956,0.0-0.0,0.0,1.0,,,,,,,,,,,,,,,,,,,,,,,,,,,,,,,,HRV,HRV_0255,2022-11-30 19:50:10
,wl-check-fps,1,6947,0.0-1.0,0.0,2.0,"[2347.5, 2352.5, 2369.1, 2386.1, 2402.8, 2419.9, 2436.2, 2452.9, 2469.6, 2487, 2503, 2519.7, 2536.1, 2552.9, 2569.4, 2586, 2602.7, 2619.3, 2636.1, 2652.6, 2669.3, 2686.1, 2702.7, 2719.4, 2735.8, 2752.6, 2769.4, 2786.2, 2802.7, 2819.4, 2836, 2852.6, 2869.3, 2886.2, 2902.7, 2919.5, 2936, 2952.9, 2969.3, 2986.1, 3002.6, 3019.3, 3036.3, 3052.6, 3069.5, 3086.1, 3102.5, 3119.1, 3135.8, 3152.5, 3169.3, 3186, 3202.5, 3219.1, 3235.9, 3252.5, 3269.3, 3286, 3302.6, 3319.2, 3335.9, 3352.6, 3369.1, 3385.9, 3402.5, 3419.2, 3435.9, 3452.6, 3469.3, 3485.8, 3502.5, 3519.2, 3536, 3552.5, 3569.3, 3585.8, 3602.6, 3619.3, 3635.8, 3652.6, 3669.2, 3685.9, 3702.5, 3719.2, 3735.8, 3752.6, 3769.2, 3785.8, 3802.5, 3819.2, 3836, 3852.6, 3869.2, 3886, 3902.5, 3919.2, 3935.9, 3952.5, 3969.4, 3985.8, 4002.6, 4019.2, 4035.9, 4052.5, 4069.2, 4085.9, 4102.6, 4119.1, 4135.8, 4152.6, 4169.2, 4185.7, 4202.6, 4219.2, 4235.9, 4252.5, 4269.2, 4285.9, 4302.6, 4319.3, 4335.9, 4352.6, 4369.3, 4386, 4402.6, 4419.4, 4435.9, 4452.6, 4469.3, 4485.9, 4502.6, 4519.2, 4535.9, 4552.7, 4569.2, 4585.9, 4602.6, 4619.2, 4636, 4652.7, 4669.2, 4686, 4702.5, 4719.3, 4735.8, 4752.5, 4769.4, 4785.8, 4802.5, 4819.3, 4835.9, 4852.6, 4869.3, 4885.9, 4902.5, 4919.3, 4935.9, 4952.7, 4969.4, 4986, 5002.7, 5019.3, 5036, 5052.5, 5069.2, 5085.9, 5102.4, 5119.3, 5136, 5152.6, 5169.3, 5186, 5202.5, 5219.2, 5235.8, 5252.5, 5269.2, 5286, 5302.7, 5319.3, 5336, 5352.6, 5369.4, 5386, 5402.7, 5419.3, 5435.9, 5452.6, 5469.2, 5486, 5502.6, 5519.4, 5536, 5552.5, 5569.3, 5586.1, 5602.6, 5619.2, 5636, 5652.7, 5669.4, 5685.9, 5702.7, 5719.3, 5736, 5752.7, 5769.3, 5786, 5802.7, 5819.3, 5835.9, 5852.6, 5869.2, 5886, 5902.7, 5919.4, 5936.1, 5952.6, 5969.3, 5986, 6002.7, 6019.5, 6036.1, 6052.6, 6069.3, 6086, 6102.6, 6119.4, 6136.1, 6152.5, 6169.3, 6186, 6202.8, 6219.3, 6235.9, 6252.5, 6269.3, 6286.1, 6302.6, 6319.3, 6336.1, 6352.5, 6369.3, 6386.2, 6402.7, 6419.3, 6435.9, 6452.6, 6469.3, 6486, 6502.8, 6519.4, 6536.1, 6552.6, 6569.4, 6586, 6602.6, 6619.4, 6636.1, 6652.6, 6669.5, 6686.1, 6702.5, 6719.3, 6735.8, 6752.8, 6769.3, 6786, 6802.6, 6819.3, 6836, 6852.7, 6869.5, 6886, 6902.7, 6919.3, 6936, 6952.8, 6969.4, 6986.1, 7002.7, 7019.2, 7036.1, 7052.8, 7069.5, 7086, 7102.7, 7119.3, 7136.1, 7152.7, 7169.5, 7186, 7202.8, 7219.4, 7235.9, 7252.7, 7269.4, 7286, 7302.6, 7319.4]","[0.8, 5, 16.6, 17, 16.7, 17.1, 16.3, 16.7, 16.7, 17.4, 16, 16.7, 16.4, 16.8, 16.5, 16.6, 16.7, 16.6, 16.8, 16.5, 16.7, 16.8, 16.6, 16.7, 16.4, 16.8, 16.8, 16.8, 16.5, 16.7, 16.6, 16.6, 16.7, 16.9, 16.5, 16.8, 16.5, 16.9, 16.4, 16.8, 16.5, 16.7, 17, 16.3, 16.9, 16.6, 16.4, 16.6, 16.7, 16.7, 16.8, 16.7, 16.5, 16.6, 16.8, 16.6, 16.8, 16.7, 16.6, 16.6, 16.7, 16.7, 16.5, 16.8, 16.6, 16.7, 16.7, 16.7, 16.7, 16.5, 16.7, 16.7, 16.8, 16.5, 16.8, 16.5, 16.8, 16.7, 16.5, 16.8, 16.6, 16.7, 16.6, 16.7, 16.6, 16.8, 16.6, 16.6, 16.7, 16.7, 16.8, 16.6, 16.6, 16.8, 16.5, 16.7, 16.7, 16.6, 16.9, 16.4, 16.8, 16.6, 16.7, 16.6, 16.7, 16.7, 16.7, 16.5, 16.7, 16.8, 16.6, 16.5, 16.9, 16.6, 16.7, 16.6, 16.7, 16.7, 16.7, 16.7, 16.6, 16.7, 16.7, 16.7, 16.6, 16.8, 16.5, 16.7, 16.7, 16.6, 16.7, 16.6, 16.7, 16.8, 16.5, 16.7, 16.7, 16.6, 16.8, 16.7, 16.5, 16.8, 16.5, 16.8, 16.5, 16.7, 16.9, 16.4, 16.7, 16.8, 16.6, 16.7, 16.7, 16.6, 16.6, 16.8, 16.6, 16.8, 16.7, 16.6, 16.7, 16.6, 16.7, 16.5, 16.7, 16.7, 16.5, 16.9, 16.7, 16.6, 16.7, 16.7, 16.5, 16.7, 16.6, 16.7, 16.7, 16.8, 16.7, 16.6, 16.7, 16.6, 16.8, 16.6, 16.7, 16.6, 16.6, 16.7, 16.6, 16.8, 16.6, 16.8, 16.6, 16.5, 16.8, 16.8, 16.5, 16.6, 16.8, 16.7, 16.7, 16.5, 16.8, 16.6, 16.7, 16.7, 16.6, 16.7, 16.7, 16.6, 16.6, 16.7, 16.6, 16.8, 16.7, 16.7, 16.7, 16.5, 16.7, 16.7, 16.7, 16.8, 16.6, 16.5, 16.7, 16.7, 16.6, 16.8, 16.7, 16.4, 16.8, 16.7, 16.8, 16.5, 16.6, 16.6, 16.8, 16.8, 16.5, 16.7, 16.8, 16.4, 16.8, 16.9, 16.5, 16.6, 16.6, 16.7, 16.7, 16.7, 16.8, 16.6, 16.7, 16.5, 16.8, 16.6, 16.6, 16.8, 16.7, 16.5, 16.9, 16.6, 16.4, 16.8, 16.5, 17, 16.5, 16.7, 16.6, 16.7, 16.7, 16.7, 16.8, 16.5, 16.7, 16.6, 16.7, 16.8, 16.6, 16.7, 16.6, 16.5, 16.9, 16.7, 16.7, 16.5, 16.7, 16.6, 16.8, 16.6, 16.8, 16.5, 16.8, 16.6, 16.5, 16.8, 16.7, 16.6, 16.6, 16.8]",60.0,60.0,60.0,4989.3,[],,,,,,,,,,,,,,,,,,,,,,,,,HRV,HRV_0255,2022-11-30 19:50:10
,wl-html-keyboard-response,2,25451,0.0-2.0-0.0,0.0,3.0,,,,,,,,16491.599999964237,0.0,0,,,,,,,,,,,,,,,,,,,,,,HRV,HRV_0255,2022-11-30 19:50:10
,wl-rdm,3,31998,0.0-3.0-0.0,0.0,4.0,,,,,,,[],,,,0.0,0.0,87.9,0.0,u,0.0,True,980.0000000596046,59.0,60.0,40.0,False,,3000.0,[],"[960, 540]",ColorTask_Demo,,,,,HRV,HRV_0255,2022-11-30 19:50:10
,wl-rdm,4,36815,0.0-3.0-1.0,0.0,5.0,,,,,,,[],,,,0.0,0.0,87.9,1.0,i,1.0,True,749.0000000596046,45.0,60.0,40.0,False,,2000.0,[],"[960, 540]",ColorTask_Demo,,,,,HRV,HRV_0255,2022-11-30 19:50:10
,wl-html-keyboard-response,5,41807,0.0-3.0-2.0,0.0,6.0,,,,,,,,2983.699999988079,0.0,1,,,,,,,,,,,,,,,,,,,,,,HRV,HRV_0255,2022-11-30 19:50:10
,wl-html-keyboard-response,6,50940,0.0-4.0-0.0,0.0,7.0,,,,,,,,7120.100000023842,0.0,0,,,,,,,,,,,,,,,,,,,,,,HRV,HRV_0255,2022-11-30 19:50:10
,wl-html-keyboard-response,7,61116,0.0-5.0-0.0,0.0,8.0,,,,,,,,8171.300000011921,0.0,0,,,,,,,,,,,,,,,,,,,,,,HRV,HRV_0255,2022-11-30 19:50:10
,wl-rdm,8,63399,0.0-6.0-0.0,0.0,9.0,,,,,,,[],,,,,,87.9,1.0,u,0.0,False,941.0,57.0,60.0,40.0,False,,263.51504104755304,[],"[960, 540]",ColorTask,-1.0,1.0,,,HRV,HRV_0255,2022-11-30 19:50:10
,wl-rdm,9,65433,0.0-6.1-0.1,0.0,10.0,,,,,,,[],,,,,,56.4,0.0,u,0.0,True,755.5,46.0,60.0,40.0,False,,210.68960565220254,[],"[960, 540]",ColorTask,0.0,2.0,,,HRV,HRV_0255,2022-11-30 19:50:10
,wl-rdm,10,67716,0.0-6.2-0.2,0.0,11.0,,,,,,,[],,,,,,53.2,0.0,u,0.0,True,868.3000000119209,53.0,60.0,40.0,False,,336.56344277778703,[],"[960, 540]",ColorTask,1.0,3.0,,,HRV,HRV_0255,2022-11-30 19:50:10
,wl-rdm,11,69700,0.0-6.3-0.3,0.0,12.0,,,,,,,[],,,,,,53.2,0.0,u,0.0,True,695.1000000238419,42.0,60.0,40.0,False,,215.74447692681863,[],"[960, 540]",ColorTask,2.0,4.0,,,HRV,HRV_0255,2022-11-30 19:50:10
,wl-rdm,12,71700,0.0-6.4-0.4,0.0,13.0,,,,,,,[],,,,,,53.2,1.0,u,0.0,False,594.5,36.0,60.0,40.0,False,,327.4183319430487,[],"[960, 540]",ColorTask,1.0,5.0,,,HRV,HRV_0255,2022-11-30 19:50:10
,wl-rdm,13,73933,0.0-6.5-0.5,0.0,14.0,,,,,,,[],,,,,,87.9,0.0,u,0.0,True,784.3000000119209,48.0,60.0,40.0,False,,370.98057068188456,[],"[960, 540]",ColorTask,2.0,6.0,,,HRV,HRV_0255,2022-11-30 19:50:10
,wl-rdm,14,76083,0.0-6.6-0.6,0.0,15.0,,,,,,,[],,,,,,87.9,0.0,u,0.0,True,728.3000000119209,44.0,60.0,40.0,False,,344.87605579698095,[],"[960, 540]",ColorTask,3.0,7.0,,,HRV,HRV_0255,2022-11-30 19:50:10
,wl-rdm,15,78183,0.0-6.7-0.7,0.0,16.0,,,,,,,[],,,,,,62.5,0.0,i,1.0,False,648.3999999761581,39.0,60.0,40.0,False,,383.6682353555369,[],"[960, 540]",ColorTask,2.0,8.0,,,HRV,HRV_0255,2022-11-30 19:50:10
,wl-rdm,16,80250,0.0-6.8-0.8,0.0,17.0,,,,,,,[],,,,,,56.4,0.0,u,0.0,True,754.4999999403954,46.0,60.0,40.0,False,,243.57421057341776,[],"[960, 540]",ColorTask,3.0,9.0,,,HRV,HRV_0255,2022-11-30 19:50:10
,wl-rdm,17,82450,0.0-6.9-0.9,0.0,18.0,,,,,,,[],,,,,,53.2,1.0,u,0.0,False,870.6999999880791,53.0,60.0,40.0,False,,255.02623723522993,[],"[960, 540]",ColorTask,2.0,10.0,,,HRV,HRV_0255,2022-11-30 19:50:10
,wl-rdm,18,84767,0.0-6.10-0.10,0.0,19.0,,,,,,,[],,,,,,50.0,0.0,u,0.0,True,957.7000000476837,58.0,60.0,40.0,False,,288.34505795758946,[],"[960, 540]",ColorTask,3.0,11.0,,,HRV,HRV_0255,2022-11-30 19:50:10
,wl-rdm,19,86750,0.0-6.11-0.11,0.0,20.0,,,,,,,[],,,,,,53.2,0.0,u,0.0,True,683.2999999523163,41.0,60.0,40.0,False,,227.10662579177847,[],"[960, 540]",ColorTask,4.0,12.0,,,HRV,HRV_0255,2022-11-30 19:50:10
,wl-rdm,20,88800,0.0-6.12-0.12,0.0,21.0,,,,,,,[],,,,,,73.6,1.0,u,0.0,False,647.8999999761581,39.0,60.0,40.0,False,,322.5581626182154,[],"[960, 540]",ColorTask,3.0,13.0,,,HRV,HRV_0255,2022-11-30 19:50:10
,wl-rdm,21,90851,0.0-6.13-0.13,0.0,22.0,,,,,,,[],,,,,,50.0,1.0,u,0.0,False,712.6999999880791,43.0,60.0,40.0,False,,263.3241383777058,[],"[960, 540]",ColorTask,2.0,14.0,,,HRV,HRV_0255,2022-11-30 19:50:10
,wl-rdm,22,93167,0.0-6.14-0.14,0.0,23.0,,,,,,,[],,,,,,87.9,0.0,u,0.0,True,957.7999999523163,58.0,60.0,40.0,False,,275.56520322554024,[],"[960, 540]",ColorTask,3.0,15.0,,,HRV,HRV_0255,2022-11-30 19:50:10
,wl-rdm,23,96151,0.0-6.15-0.15,0.0,24.0,,,,,,,[],,,,,,53.2,0.0,u,0.0,True,1641.2999999523163,99.0,60.0,40.0,False,,271.72014236035216,[],"[960, 540]",ColorTask,4.0,16.0,,,HRV,HRV_0255,2022-11-30 19:50:10
,wl-rdm,24,98234,0.0-6.16-0.16,0.0,25.0,,,,,,,[],,,,,,73.6,1.0,i,1.0,True,696.1999999880791,42.0,60.0,40.0,False,,300.04677403425217,[],"[960, 540]",ColorTask,5.0,17.0,,,HRV,HRV_0255,2022-11-30 19:50:10
,wl-rdm,25,100317,0.0-6.17-0.17,0.0,26.0,,,,,,,[],,,,,,50.0,0.0,i,1.0,False,718.0999999642372,44.0,60.0,40.0,False,,270.09007827394953,[],"[960, 540]",ColorTask,4.0,18.0,,,HRV,HRV_0255,2022-11-30 19:50:10
,wl-rdm,26,102251,0.0-6.18-0.18,0.0,27.0,,,,,,,[],,,,,,73.6,0.0,u,0.0,True,595.6999999880791,36.0,60.0,40.0,False,,257.97588687861946,[],"[960, 540]",ColorTask,5.0,19.0,,,HRV,HRV_0255,2022-11-30 19:50:10
,wl-rdm,27,104368,0.0-6.19-0.19,0.0,28.0,,,,,,,[],,,,,,73.6,1.0,i,1.0,True,773.1000000238419,47.0,60.0,40.0,False,,271.70248092774574,[],"[960, 540]",ColorTask,6.0,20.0,,,HRV,HRV_0255,2022-11-30 19:50:10
,wl-rdm,28,106651,0.0-6.20-0.20,0.0,29.0,,,,,,,[],,,,,,73.6,1.0,i,1.0,True,845.1999999284744,51.0,60.0,40.0,False,,350.2951913871432,[],"[960, 540]",ColorTask,7.0,21.0,,,HRV,HRV_0255,2022-11-30 19:50:10
,wl-rdm,29,108834,0.0-6.21-0.21,0.0,30.0,,,,,,,[],,,,,,73.6,0.0,u,0.0,True,821.1999999880791,50.0,60.0,40.0,False,,267.4515725002716,[],"[960, 540]",ColorTask,8.0,22.0,,,HRV,HRV_0255,2022-11-30 19:50:10
,wl-rdm,30,110951,0.0-6.22-0.22,0.0,31.0,,,,,,,[],,,,,,53.2,0.0,u,0.0,True,740.4000000357628,45.0,60.0,40.0,False,,316.20940615195224,[],"[960, 540]",ColorTask,9.0,23.0,,,HRV,HRV_0255,2022-11-30 19:50:10
,wl-rdm,31,113268,0.0-6.23-0.23,0.0,32.0,,,,,,,[],,,,,,53.2,1.0,i,1.0,True,977.2000000476837,59.0,60.0,40.0,False,,267.16834903680035,[],"[960, 540]",ColorTask,10.0,24.0,,,HRV,HRV_0255,2022-11-30 19:50:10
,wl-rdm,32,115435,0.0-6.24-0.24,0.0,33.0,,,,,,,[],,,,,,50.0,1.0,u,0.0,False,753.9000000357628,46.0,60.0,40.0,False,,324.5167997804979,[],"[960, 540]",ColorTask,9.0,25.0,,,HRV,HRV_0255,2022-11-30 19:50:10
,wl-rdm,33,117635,0.0-6.25-0.25,0.0,34.0,,,,,,,[],,,,,,56.4,1.0,u,0.0,False,927.9000000357628,56.0,60.0,40.0,False,,209.77432896568888,[],"[960, 540]",ColorTask,8.0,26.0,,,HRV,HRV_0255,2022-11-30 19:50:10
,wl-rdm,34,119585,0.0-6.26-0.26,0.0,35.0,,,,,,,[],,,,,,50.0,1.0,i,1.0,True,622.5,38.0,60.0,40.0,False,,237.38380694218196,[],"[960, 540]",ColorTask,9.0,27.0,,,HRV,HRV_0255,2022-11-30 19:50:10
,wl-rdm,35,121835,0.0-6.27-0.27,0.0,36.0,,,,,,,[],,,,,,56.4,1.0,i,1.0,True,969.8000000119209,59.0,60.0,40.0,False,,206.28106356197313,[],"[960, 540]",ColorTask,10.0,28.0,,,HRV,HRV_0255,2022-11-30 19:50:10
,wl-rdm,36,124318,0.0-6.28-0.28,0.0,37.0,,,,,,,[],,,,,,87.9,0.0,i,1.0,False,1017.8000000119209,62.0,60.0,40.0,False,,373.589971580329,[],"[960, 540]",ColorTask,9.0,29.0,,,HRV,HRV_0255,2022-11-30 19:50:10
,wl-rdm,37,126735,0.0-6.29-0.29,0.0,38.0,,,,,,,[],,,,,,56.4,0.0,u,0.0,True,956.8000000119209,58.0,60.0,40.0,False,,389.60781358238796,[],"[960, 540]",ColorTask,10.0,30.0,,,HRV,HRV_0255,2022-11-30 19:50:10
,wl-rdm,38,129102,0.0-6.30-0.30,0.0,39.0,,,,,,,[],,,,,,53.2,1.0,i,1.0,True,1075.699999988079,65.0,60.0,40.0,False,,215.9125754102205,[],"[960, 540]",ColorTask,11.0,31.0,,,HRV,HRV_0255,2022-11-30 19:50:10
,wl-rdm,39,131368,0.0-6.31-0.31,0.0,40.0,,,,,,,[],,,,,,53.2,1.0,i,1.0,True,956.2999999523163,58.0,60.0,40.0,False,,226.93448428065233,[],"[960, 540]",ColorTask,12.0,32.0,,,HRV,HRV_0255,2022-11-30 19:50:10
,wl-rdm,40,133669,0.0-6.32-0.32,0.0,41.0,,,,,,,[],,,,,,62.5,0.0,i,1.0,False,884.9000000357628,54.0,60.0,40.0,False,,331.3013545078437,[],"[960, 540]",ColorTask,11.0,33.0,,,HRV,HRV_0255,2022-11-30 19:50:10
,wl-rdm,41,138135,0.0-6.33-0.33,0.0,41.0,,,,,,,[],,,,,,62.5,1.0,i,,,3079.0,179.0,60.0,40.0,True,RT_timeout ,395.8874958433262,[],"[960, 540]",ColorTask,10.0,34.0,,,HRV,HRV_0255,2022-11-30 19:50:10
,wl-rdm,42,140469,0.0-6.34-0.34,0.0,42.0,,,,,,,[],,,,,,50.0,0.0,i,1.0,False,1051.3999999761581,64.0,60.0,40.0,False,,203.3212746302334,[],"[960, 540]",ColorTask,9.0,35.0,,,HRV,HRV_0255,2022-11-30 19:50:10
,wl-rdm,43,142519,0.0-6.35-0.35,0.0,43.0,,,,,,,[],,,,,,87.9,1.0,i,1.0,True,690.5999999642372,42.0,60.0,40.0,False,,285.86692088351094,[],"[960, 540]",ColorTask,10.0,36.0,,,HRV,HRV_0255,2022-11-30 19:50:10
,wl-rdm,44,144802,0.0-6.36-0.36,0.0,44.0,,,,,,,[],,,,,,53.2,1.0,i,1.0,True,912.1999999880791,55.0,60.0,40.0,False,,285.60905553988505,[],"[960, 540]",ColorTask,11.0,37.0,,,HRV,HRV_0255,2022-11-30 19:50:10
,wl-rdm,45,146702,0.0-6.37-0.37,0.0,45.0,,,,,,,[],,,,,,87.9,0.0,u,0.0,True,599.0,36.0,60.0,40.0,False,,247.0340837259725,[],"[960, 540]",ColorTask,12.0,38.0,,,HRV,HRV_0255,2022-11-30 19:50:10
,wl-rdm,46,148686,0.0-6.38-0.38,0.0,46.0,,,,,,,[],,,,,,50.0,0.0,i,1.0,False,684.6999999880791,42.0,60.0,40.0,False,,200.51015431658584,[],"[960, 540]",ColorTask,11.0,39.0,,,HRV,HRV_0255,2022-11-30 19:50:10
,wl-rdm,47,151053,0.0-6.39-0.39,0.0,47.0,,,,,,,[],,,,,,50.0,0.0,i,1.0,False,1009.7000000476837,61.0,60.0,40.0,False,,274.5068654103976,[],"[960, 540]",ColorTask,10.0,40.0,,,HRV,HRV_0255,2022-11-30 19:50:10
,wl-rdm,48,153169,0.0-6.40-0.40,0.0,48.0,,,,,,,[],,,,,,87.9,0.0,i,1.0,False,813.2999999523163,49.0,60.0,40.0,False,,221.3473478362461,[],"[960, 540]",ColorTask,9.0,41.0,,,HRV,HRV_0255,2022-11-30 19:50:10
,wl-rdm,49,155269,0.0-6.41-0.41,0.0,49.0,,,,,,,[],,,,,,62.5,1.0,i,1.0,True,718.1999999880791,44.0,60.0,40.0,False,,286.5456357459441,[],"[960, 540]",ColorTask,10.0,42.0,,,HRV,HRV_0255,2022-11-30 19:50:10
,wl-rdm,50,157469,0.0-6.42-0.42,0.0,50.0,,,,,,,[],,,,,,50.0,0.0,i,1.0,False,883.1999999880791,53.0,60.0,40.0,False,,261.96955786809355,[],"[960, 540]",ColorTask,9.0,43.0,,,HRV,HRV_0255,2022-11-30 19:50:10
,wl-rdm,51,159486,0.0-6.43-0.43,0.0,51.0,,,,,,,[],,,,,,73.6,0.0,u,0.0,True,732.6000000238419,44.0,60.0,40.0,False,,224.90008377813768,[],"[960, 540]",ColorTask,10.0,44.0,,,HRV,HRV_0255,2022-11-30 19:50:10
,wl-rdm,52,161603,0.0-6.44-0.44,0.0,52.0,,,,,,,[],,,,,,50.0,1.0,i,1.0,True,761.3999999761581,46.0,60.0,40.0,False,,275.06466273076325,[],"[960, 540]",ColorTask,11.0,45.0,,,HRV,HRV_0255,2022-11-30 19:50:10
,wl-rdm,53,163670,0.0-6.45-0.45,0.0,53.0,,,,,,,[],,,,,,50.0,0.0,i,1.0,False,734.8000000119209,45.0,60.0,40.0,False,,248.46314719468796,[],"[960, 540]",ColorTask,10.0,46.0,,,HRV,HRV_0255,2022-11-30 19:50:10
,wl-rdm,54,165670,0.0-6.46-0.46,0.0,54.0,,,,,,,[],,,,,,73.6,1.0,i,1.0,True,658.7000000476837,40.0,60.0,40.0,False,,251.81812908443922,[],"[960, 540]",ColorTask,11.0,47.0,,,HRV,HRV_0255,2022-11-30 19:50:10
,wl-rdm,55,167870,0.0-6.47-0.47,0.0,55.0,,,,,,,[],,,,,,53.2,0.0,i,1.0,False,865.4000000357628,52.0,60.0,40.0,False,,282.3026877422892,[],"[960, 540]",ColorTask,10.0,48.0,,,HRV,HRV_0255,2022-11-30 19:50:10
,wl-rdm,56,170137,0.0-6.48-0.48,0.0,56.0,,,,,,,[],,,,,,87.9,0.0,u,0.0,True,864.4000000357628,52.0,60.0,40.0,False,,326.15072730549736,[],"[960, 540]",ColorTask,11.0,49.0,,,HRV,HRV_0255,2022-11-30 19:50:10
,wl-rdm,57,172037,0.0-6.49-0.49,0.0,57.0,,,,,,,[],,,,,,50.0,1.0,i,1.0,True,584.7000000476837,36.0,60.0,40.0,False,,240.59640977624326,[],"[960, 540]",ColorTask,12.0,50.0,,,HRV,HRV_0255,2022-11-30 19:50:10
,wl-rdm,58,173954,0.0-6.50-0.50,0.0,58.0,,,,,,,[],,,,,,87.9,1.0,i,1.0,True,605.0999999642372,37.0,60.0,40.0,False,,218.43448811051633,[],"[960, 540]",ColorTask,13.0,51.0,,,HRV,HRV_0255,2022-11-30 19:50:10
,wl-rdm,59,176353,0.0-6.51-0.51,0.0,59.0,,,,,,,[],,,,,,56.4,0.0,u,0.0,True,979.5999999642372,59.0,60.0,40.0,False,,341.0411706450361,[],"[960, 540]",ColorTask,14.0,52.0,,,HRV,HRV_0255,2022-11-30 19:50:10
,wl-rdm,60,178354,0.0-6.52-0.52,0.0,60.0,,,,,,,[],,,,,,53.2,1.0,i,1.0,True,712.9000000357628,43.0,60.0,40.0,False,,203.6386219026859,[],"[960, 540]",ColorTask,15.0,53.0,,,HRV,HRV_0255,2022-11-30 19:50:10
,wl-rdm,61,181187,0.0-6.53-0.53,0.0,61.0,,,,,,,[],,,,,,62.5,0.0,i,1.0,False,1453.4000000357628,88.0,60.0,40.0,False,,288.3577708199263,[],"[960, 540]",ColorTask,14.0,54.0,,,HRV,HRV_0255,2022-11-30 19:50:10
,wl-rdm,62,183221,0.0-6.54-0.54,0.0,62.0,,,,,,,[],,,,,,87.9,1.0,i,1.0,True,701.6000000238419,43.0,60.0,40.0,False,,235.85580495202862,[],"[960, 540]",ColorTask,15.0,55.0,,,HRV,HRV_0255,2022-11-30 19:50:10
,wl-rdm,63,185787,0.0-6.55-0.55,0.0,63.0,,,,,,,[],,,,,,62.5,0.0,i,1.0,False,1269.800000011921,77.0,60.0,40.0,False,,204.68769785712257,[],"[960, 540]",ColorTask,14.0,56.0,,,HRV,HRV_0255,2022-11-30 19:50:10
,wl-rdm,64,187704,0.0-6.56-0.56,0.0,64.0,,,,,,,[],,,,,,62.5,1.0,i,1.0,True,589.7000000476837,36.0,60.0,40.0,False,,241.85708816563007,[],"[960, 540]",ColorTask,15.0,57.0,,,HRV,HRV_0255,2022-11-30 19:50:10
,wl-rdm,65,190104,0.0-6.57-0.57,0.0,65.0,,,,,,,[],,,,,,50.0,1.0,i,1.0,True,1023.0,62.0,60.0,40.0,False,,289.55147880245454,[],"[960, 540]",ColorTask,16.0,58.0,,,HRV,HRV_0255,2022-11-30 19:50:10
,wl-rdm,66,192504,0.0-6.58-0.58,0.0,66.0,,,,,,,[],,,,,,56.4,1.0,u,0.0,False,1073.3999999761581,65.0,60.0,40.0,False,,246.3784702023455,[],"[960, 540]",ColorTask,15.0,59.0,,,HRV,HRV_0255,2022-11-30 19:50:10
,wl-rdm,67,194471,0.0-6.59-0.59,0.0,67.0,,,,,,,[],,,,,,62.5,1.0,i,1.0,True,564.6999999880791,34.0,60.0,40.0,False,,341.52566696690445,[],"[960, 540]",ColorTask,16.0,60.0,,,HRV,HRV_0255,2022-11-30 19:50:10
,wl-rdm,68,196404,0.0-6.60-0.60,0.0,68.0,,,,,,,[],,,,,,62.5,1.0,i,1.0,True,626.3000000119209,38.0,60.0,40.0,False,,239.00831013476784,[],"[960, 540]",ColorTask,17.0,61.0,,,HRV,HRV_0255,2022-11-30 19:50:10
,wl-rdm,69,198354,0.0-6.61-0.61,0.0,69.0,,,,,,,[],,,,,,56.4,1.0,i,1.0,True,595.5,36.0,60.0,40.0,False,,274.6430875454183,[],"[960, 540]",ColorTask,18.0,62.0,,,HRV,HRV_0255,2022-11-30 19:50:10
,wl-rdm,70,200405,0.0-6.62-0.62,0.0,70.0,,,,,,,[],,,,,,62.5,1.0,i,1.0,True,635.2000000476837,39.0,60.0,40.0,False,,323.2899102575349,[],"[960, 540]",ColorTask,19.0,63.0,,,HRV,HRV_0255,2022-11-30 19:50:10
,wl-rdm,71,202488,0.0-6.63-0.63,0.0,71.0,,,,,,,[],,,,,,53.2,1.0,i,1.0,True,797.8999999761581,48.0,60.0,40.0,False,,210.91448309009868,[],"[960, 540]",ColorTask,20.0,64.0,,,HRV,HRV_0255,2022-11-30 19:50:10
,wl-rdm,72,204821,0.0-6.64-0.64,0.0,72.0,,,,,,,[],,,,,,62.5,1.0,i,1.0,True,909.1999999880791,55.0,60.0,40.0,False,,346.6580082133745,[],"[960, 540]",ColorTask,21.0,65.0,,,HRV,HRV_0255,2022-11-30 19:50:10
,wl-rdm,73,207221,0.0-6.65-0.65,0.0,73.0,,,,,,,[],,,,,,56.4,0.0,i,1.0,False,1058.6000000238419,64.0,60.0,40.0,False,,268.2452274058461,[],"[960, 540]",ColorTask,20.0,66.0,,,HRV,HRV_0255,2022-11-30 19:50:10
,wl-rdm,74,209288,0.0-6.66-0.66,0.0,74.0,,,,,,,[],,,,,,73.6,1.0,i,1.0,True,673.4000000357628,41.0,60.0,40.0,False,,300.4152281258,[],"[960, 540]",ColorTask,21.0,67.0,,,HRV,HRV_0255,2022-11-30 19:50:10
,wl-rdm,75,211422,0.0-6.67-0.67,0.0,75.0,,,,,,,[],,,,,,50.0,1.0,u,0.0,False,866.2000000476837,52.0,60.0,40.0,False,,207.48746260074077,[],"[960, 540]",ColorTask,20.0,68.0,,,HRV,HRV_0255,2022-11-30 19:50:10
,wl-rdm,76,213588,0.0-6.68-0.68,0.0,76.0,,,,,,,[],,,,,,62.5,0.0,i,1.0,False,868.3000000119209,53.0,60.0,40.0,False,,201.4066680190613,[],"[960, 540]",ColorTask,19.0,69.0,,,HRV,HRV_0255,2022-11-30 19:50:10
,wl-rdm,77,215622,0.0-6.69-0.69,0.0,77.0,,,,,,,[],,,,,,87.9,1.0,i,1.0,True,575.8999999761581,35.0,60.0,40.0,False,,369.3823322878276,[],"[960, 540]",ColorTask,20.0,70.0,,,HRV,HRV_0255,2022-11-30 19:50:10
,wl-rdm,78,218089,0.0-6.70-0.70,0.0,78.0,,,,,,,[],,,,,,73.6,0.0,u,0.0,True,1114.0,67.0,60.0,40.0,False,,267.5022246468587,[],"[960, 540]",ColorTask,21.0,71.0,,,HRV,HRV_0255,2022-11-30 19:50:10
,wl-rdm,79,220972,0.0-6.71-0.71,0.0,79.0,,,,,,,[],,,,,,56.4,0.0,u,0.0,True,1526.6000000238419,92.0,60.0,40.0,False,,289.8923059703729,[],"[960, 540]",ColorTask,22.0,72.0,,,HRV,HRV_0255,2022-11-30 19:50:10
,wl-rdm,80,223139,0.0-6.72-0.72,0.0,80.0,,,,,,,[],,,,,,87.9,1.0,i,1.0,True,695.1999999880791,42.0,60.0,40.0,False,,397.4611256107919,[],"[960, 540]",ColorTask,23.0,73.0,,,HRV,HRV_0255,2022-11-30 19:50:10
,wl-rdm,81,225255,0.0-6.73-0.73,0.0,81.0,,,,,,,[],,,,,,87.9,0.0,u,0.0,True,723.3000000119209,44.0,60.0,40.0,False,,320.01701935641836,[],"[960, 540]",ColorTask,24.0,74.0,,,HRV,HRV_0255,2022-11-30 19:50:10
,wl-rdm,82,227405,0.0-6.74-0.74,0.0,82.0,,,,,,,[],,,,,,56.4,1.0,u,0.0,False,749.5000000596046,45.0,60.0,40.0,False,,342.2167129122495,[],"[960, 540]",ColorTask,23.0,75.0,,,HRV,HRV_0255,2022-11-30 19:50:10
,wl-rdm,83,229789,0.0-6.75-0.75,0.0,83.0,,,,,,,[],,,,,,62.5,0.0,u,0.0,True,1051.199999988079,64.0,60.0,40.0,False,,261.28213952074844,[],"[960, 540]",ColorTask,24.0,76.0,,,HRV,HRV_0255,2022-11-30 19:50:10
,wl-rdm,84,231722,0.0-6.76-0.76,0.0,84.0,,,,,,,[],,,,,,62.5,1.0,i,1.0,True,594.6000000238419,36.0,60.0,40.0,False,,271.02531302243193,[],"[960, 540]",ColorTask,25.0,77.0,,,HRV,HRV_0255,2022-11-30 19:50:10
,wl-rdm,85,233722,0.0-6.77-0.77,0.0,85.0,,,,,,,[],,,,,,50.0,1.0,u,0.0,False,678.7000000476837,41.0,60.0,40.0,False,,245.2457478863944,[],"[960, 540]",ColorTask,24.0,78.0,,,HRV,HRV_0255,2022-11-30 19:50:10
,wl-rdm,86,235989,0.0-6.78-0.78,0.0,86.0,,,,,,,[],,,,,,62.5,1.0,i,1.0,True,975.4000000357628,59.0,60.0,40.0,False,,229.1516162334619,[],"[960, 540]",ColorTask,25.0,79.0,,,HRV,HRV_0255,2022-11-30 19:50:10
,wl-rdm,87,238272,0.0-6.79-0.79,0.0,87.0,,,,,,,[],,,,,,87.9,1.0,i,1.0,True,814.0999999642372,49.0,60.0,40.0,False,,398.329340637898,[],"[960, 540]",ColorTask,26.0,80.0,,,HRV,HRV_0255,2022-11-30 19:50:10
,wl-rdm,88,240506,0.0-6.80-0.80,0.0,88.0,,,,,,,[],,,,,,50.0,0.0,u,0.0,True,904.1000000238419,55.0,60.0,40.0,False,,254.0400640711361,[],"[960, 540]",ColorTask,27.0,81.0,,,HRV,HRV_0255,2022-11-30 19:50:10
,wl-rdm,89,242823,0.0-6.81-0.81,0.0,89.0,,,,,,,[],,,,,,50.0,0.0,i,1.0,False,1023.6999999880791,62.0,60.0,40.0,False,,227.42716103834294,[],"[960, 540]",ColorTask,26.0,82.0,,,HRV,HRV_0255,2022-11-30 19:50:10
,wl-rdm,90,244806,0.0-6.82-0.82,0.0,90.0,,,,,,,[],,,,,,87.9,1.0,i,1.0,True,607.0999999642372,37.0,60.0,40.0,False,,307.1588235910572,[],"[960, 540]",ColorTask,27.0,83.0,,,HRV,HRV_0255,2022-11-30 19:50:10
,wl-rdm,91,246889,0.0-6.83-0.83,0.0,91.0,,,,,,,[],,,,,,73.6,0.0,i,1.0,False,721.0,44.0,60.0,40.0,False,,287.7505248866213,[],"[960, 540]",ColorTask,26.0,84.0,,,HRV,HRV_0255,2022-11-30 19:50:10
,wl-rdm,92,248889,0.0-6.84-0.84,0.0,92.0,,,,,,,[],,,,,,62.5,0.0,i,1.0,False,571.2000000476837,35.0,60.0,40.0,False,,333.96964004625545,[],"[960, 540]",ColorTask,25.0,85.0,,,HRV,HRV_0255,2022-11-30 19:50:10
,wl-rdm,93,250873,0.0-6.85-0.85,0.0,93.0,,,,,,,[],,,,,,73.6,0.0,u,0.0,True,704.6999999880791,43.0,60.0,40.0,False,,214.91517124060607,[],"[960, 540]",ColorTask,26.0,86.0,,,HRV,HRV_0255,2022-11-30 19:50:10
,wl-rdm,94,253073,0.0-6.86-0.86,0.0,94.0,,,,,,,[],,,,,,62.5,0.0,u,0.0,True,855.4000000357628,52.0,60.0,40.0,False,,252.7043893167556,[],"[960, 540]",ColorTask,27.0,87.0,,,HRV,HRV_0255,2022-11-30 19:50:10
,wl-rdm,95,255356,0.0-6.87-0.87,0.0,95.0,,,,,,,[],,,,,,73.6,0.0,u,0.0,True,925.8000000119209,56.0,60.0,40.0,False,,298.8490199627755,[],"[960, 540]",ColorTask,28.0,88.0,,,HRV,HRV_0255,2022-11-30 19:50:10
,wl-rdm,96,256440,0.0-6.88-0.88,0.0,95.0,,,,,,,[],,,,,,53.2,0.0,u,,,248.10000002384186,0.0,60.0,40.0,True,too_early ,285.55131983607697,[],"[960, 540]",ColorTask,27.0,89.0,,,HRV,HRV_0255,2022-11-30 19:50:10
,wl-rdm,97,258756,0.0-6.89-0.89,0.0,96.0,,,,,,,[],,,,,,56.4,1.0,i,1.0,True,984.6999999880791,60.0,60.0,40.0,False,,245.40295246394646,[],"[960, 540]",ColorTask,28.0,90.0,,,HRV,HRV_0255,2022-11-30 19:50:10
,wl-rdm,98,261123,0.0-6.90-0.90,0.0,97.0,,,,,,,[],,,,,,56.4,0.0,u,0.0,True,977.6999999880791,59.0,60.0,40.0,False,,312.254026437608,[],"[960, 540]",ColorTask,29.0,91.0,,,HRV,HRV_0255,2022-11-30 19:50:10
,wl-rdm,99,263123,0.0-6.91-0.91,0.0,98.0,,,,,,,[],,,,,,56.4,1.0,i,1.0,True,652.9999999403954,40.0,60.0,40.0,False,,265.89070232382875,[],"[960, 540]",ColorTask,30.0,92.0,,,HRV,HRV_0255,2022-11-30 19:50:10
,wl-rdm,100,265590,0.0-6.92-0.92,0.0,99.0,,,,,,,[],,,,,,56.4,0.0,u,0.0,True,1091.4000000357628,66.0,60.0,40.0,False,,297.48395441262187,[],"[960, 540]",ColorTask,31.0,93.0,,,HRV,HRV_0255,2022-11-30 19:50:10
,wl-rdm,101,267523,0.0-6.93-0.93,0.0,100.0,,,,,,,[],,,,,,87.9,1.0,i,1.0,True,635.6999999880791,39.0,60.0,40.0,False,,213.01885842538917,[],"[960, 540]",ColorTask,32.0,94.0,,,HRV,HRV_0255,2022-11-30 19:50:10
,wl-rdm,102,270157,0.0-6.94-0.94,0.0,101.0,,,,,,,[],,,,,,62.5,1.0,i,1.0,True,1292.1000000238419,78.0,60.0,40.0,False,,272.8716135522197,[],"[960, 540]",ColorTask,33.0,95.0,,,HRV,HRV_0255,2022-11-30 19:50:10
,wl-rdm,103,272207,0.0-6.95-0.95,0.0,102.0,,,,,,,[],,,,,,73.6,0.0,u,0.0,True,640.8000000119209,39.0,60.0,40.0,False,,324.9682685447716,[],"[960, 540]",ColorTask,34.0,96.0,,,HRV,HRV_0255,2022-11-30 19:50:10
,wl-rdm,104,274390,0.0-6.96-0.96,0.0,103.0,,,,,,,[],,,,,,56.4,1.0,i,1.0,True,757.6999999880791,46.0,60.0,40.0,False,,337.05254202775404,[],"[960, 540]",ColorTask,35.0,97.0,,,HRV,HRV_0255,2022-11-30 19:50:10
,wl-rdm,105,276390,0.0-6.97-0.97,0.0,104.0,,,,,,,[],,,,,,53.2,0.0,u,0.0,True,657.5,40.0,60.0,40.0,False,,254.5542942217816,[],"[960, 540]",ColorTask,36.0,98.0,,,HRV,HRV_0255,2022-11-30 19:50:10
,wl-rdm,106,278374,0.0-6.98-0.98,0.0,105.0,,,,,,,[],,,,,,56.4,1.0,i,1.0,True,625.0,38.0,60.0,40.0,False,,270.0770938060384,[],"[960, 540]",ColorTask,37.0,99.0,,,HRV,HRV_0255,2022-11-30 19:50:10
,wl-rdm,107,280291,0.0-6.99-0.99,0.0,106.0,,,,,,,[],,,,,,73.6,1.0,i,1.0,True,544.1999999880791,33.0,60.0,40.0,False,,303.7903964992345,[],"[960, 540]",ColorTask,38.0,100.0,,,HRV,HRV_0255,2022-11-30 19:50:10
,wl-rdm,108,282407,0.0-6.100-0.100,0.0,107.0,,,,,,,[],,,,,,87.9,0.0,u,0.0,True,673.8999999761581,41.0,60.0,40.0,False,,361.35803175034516,[],"[960, 540]",ColorTask,39.0,101.0,,,HRV,HRV_0255,2022-11-30 19:50:10
,wl-rdm,109,284357,0.0-6.101-0.101,0.0,108.0,,,,,,,[],,,,,,53.2,0.0,i,1.0,False,615.8999999165535,37.0,60.0,40.0,False,,267.9780666103111,[],"[960, 540]",ColorTask,38.0,102.0,,,HRV,HRV_0255,2022-11-30 19:50:10
,wl-rdm,110,286457,0.0-6.102-0.102,0.0,109.0,,,,,,,[],,,,,,62.5,0.0,u,0.0,True,738.0,45.0,60.0,40.0,False,,267.99736938888094,[],"[960, 540]",ColorTask,39.0,103.0,,,HRV,HRV_0255,2022-11-30 19:50:10
,wl-rdm,111,288424,0.0-6.103-0.103,0.0,110.0,,,,,,,[],,,,,,73.6,1.0,i,1.0,True,663.8000000119209,40.0,60.0,40.0,False,,220.08297284777458,[],"[960, 540]",ColorTask,40.0,104.0,,,HRV,HRV_0255,2022-11-30 19:50:10
,wl-rdm,112,290508,0.0-6.104-0.104,0.0,111.0,,,,,,,[],,,,,,53.2,1.0,i,1.0,True,618.6000000238419,38.0,60.0,40.0,False,,372.4363594031558,[],"[960, 540]",ColorTask,41.0,105.0,,,HRV,HRV_0255,2022-11-30 19:50:10
,wl-rdm,113,292941,0.0-6.105-0.105,0.0,112.0,,,,,,,[],,,,,,53.2,0.0,u,0.0,True,1025.6000000238419,62.0,60.0,40.0,False,,345.41413292165623,[],"[960, 540]",ColorTask,42.0,106.0,,,HRV,HRV_0255,2022-11-30 19:50:10
,wl-rdm,114,295008,0.0-6.106-0.106,0.0,113.0,,,,,,,[],,,,,,50.0,1.0,u,0.0,False,614.3999999761581,37.0,60.0,40.0,False,,378.4501908232822,[],"[960, 540]",ColorTask,41.0,107.0,,,HRV,HRV_0255,2022-11-30 19:50:10
,wl-rdm,115,296958,0.0-6.107-0.107,0.0,114.0,,,,,,,[],,,,,,73.6,0.0,u,0.0,True,591.4000000357628,36.0,60.0,40.0,False,,271.7521011985608,[],"[960, 540]",ColorTask,42.0,108.0,,,HRV,HRV_0255,2022-11-30 19:50:10
,wl-rdm,116,299225,0.0-6.108-0.108,0.0,115.0,,,,,,,[],,,,,,73.6,1.0,i,1.0,True,862.8000000119209,52.0,60.0,40.0,False,,343.0812794645176,[],"[960, 540]",ColorTask,43.0,109.0,,,HRV,HRV_0255,2022-11-30 19:50:10
,wl-rdm,117,301441,0.0-6.109-0.109,0.0,116.0,,,,,,,[],,,,,,56.4,0.0,u,0.0,True,945.3000000119209,57.0,60.0,40.0,False,,206.75027936434313,[],"[960, 540]",ColorTask,44.0,110.0,,,HRV,HRV_0255,2022-11-30 19:50:10
,wl-html-keyboard-response,118,327960,0.0-7.0-0.0,1.0,117.0,,,,,,,,24507.80000001192,1.0,0,,,,,,,,,,,,,,,,,,,,,,HRV,HRV_0255,2022-11-30 19:50:10
,wl-rdm,119,329926,0.0-8.0-0.0,1.0,118.0,,,,,,,[],,,,,,73.6,1.0,i,1.0,True,690.6999999880791,42.0,60.0,40.0,False,,215.9533772953337,[],"[960, 540]",ColorTask,45.0,1.0,,,HRV,HRV_0255,2022-11-30 19:50:10
,wl-rdm,120,331926,0.0-8.1-0.1,1.0,119.0,,,,,,,[],,,,,,73.6,1.0,i,1.0,True,691.7999999523163,42.0,60.0,40.0,False,,229.71822908129198,[],"[960, 540]",ColorTask,46.0,2.0,,,HRV,HRV_0255,2022-11-30 19:50:10
,wl-rdm,121,333826,0.0-8.2-0.2,1.0,120.0,,,,,,,[],,,,,,53.2,0.0,u,0.0,True,562.3000000119209,34.0,60.0,40.0,False,,253.6593234815951,[],"[960, 540]",ColorTask,47.0,3.0,,,HRV,HRV_0255,2022-11-30 19:50:10
,wl-rdm,122,335576,0.0-8.3-0.3,1.0,121.0,,,,,,,[],,,,,,62.5,0.0,u,0.0,True,455.9000000357628,28.0,60.0,40.0,False,,206.51675272585544,[],"[960, 540]",ColorTask,48.0,4.0,,,HRV,HRV_0255,2022-11-30 19:50:10
,wl-rdm,123,337576,0.0-8.4-0.4,1.0,122.0,,,,,,,[],,,,,,56.4,0.0,i,1.0,False,689.1000000238419,42.0,60.0,40.0,False,,222.98117772866783,[],"[960, 540]",ColorTask,47.0,5.0,,,HRV,HRV_0255,2022-11-30 19:50:10
,wl-rdm,124,339493,0.0-8.5-0.5,1.0,123.0,,,,,,,[],,,,,,50.0,0.0,i,1.0,False,634.0,39.0,60.0,40.0,False,,209.99008008391232,[],"[960, 540]",ColorTask,46.0,6.0,,,HRV,HRV_0255,2022-11-30 19:50:10
,wl-rdm,125,341276,0.0-8.6-0.6,1.0,124.0,,,,,,,[],,,,,,53.2,1.0,u,0.0,False,476.4000000357628,29.0,60.0,40.0,False,,219.2182346326858,[],"[960, 540]",ColorTask,45.0,7.0,,,HRV,HRV_0255,2022-11-30 19:50:10
,wl-rdm,126,343260,0.0-8.7-0.7,1.0,125.0,,,,,,,[],,,,,,73.6,0.0,i,1.0,False,651.6999999880791,40.0,60.0,40.0,False,,236.40232245494593,[],"[960, 540]",ColorTask,44.0,8.0,,,HRV,HRV_0255,2022-11-30 19:50:10
,wl-rdm,127,345293,0.0-8.8-0.8,1.0,126.0,,,,,,,[],,,,,,62.5,0.0,u,0.0,True,568.3000000119209,35.0,60.0,40.0,False,,379.2447194677788,[],"[960, 540]",ColorTask,45.0,9.0,,,HRV,HRV_0255,2022-11-30 19:50:10
,wl-rdm,128,347144,0.0-8.9-0.9,1.0,127.0,,,,,,,[],,,,,,53.2,0.0,i,1.0,False,573.0000000596046,35.0,60.0,40.0,False,,213.56564164518034,[],"[960, 540]",ColorTask,44.0,10.0,,,HRV,HRV_0255,2022-11-30 19:50:10
,wl-rdm,129,349310,0.0-8.10-0.10,1.0,128.0,,,,,,,[],,,,,,50.0,0.0,u,0.0,True,841.4000000357628,51.0,60.0,40.0,False,,255.76702770740013,[],"[960, 540]",ColorTask,45.0,11.0,,,HRV,HRV_0255,2022-11-30 19:50:10
,wl-rdm,130,351360,0.0-8.11-0.11,1.0,129.0,,,,,,,[],,,,,,73.6,1.0,i,1.0,True,738.8000000715256,45.0,60.0,40.0,False,,240.11569929267225,[],"[960, 540]",ColorTask,46.0,12.0,,,HRV,HRV_0255,2022-11-30 19:50:10
,wl-rdm,131,353360,0.0-8.12-0.12,1.0,130.0,,,,,,,[],,,,,,50.0,0.0,u,0.0,True,713.0000000596046,43.0,60.0,40.0,False,,219.3220084821752,[],"[960, 540]",ColorTask,47.0,13.0,,,HRV,HRV_0255,2022-11-30 19:50:10
,wl-rdm,132,355594,0.0-8.13-0.13,1.0,131.0,,,,,,,[],,,,,,50.0,1.0,u,0.0,False,771.0999999642372,47.0,60.0,40.0,False,,374.0307664666745,[],"[960, 540]",ColorTask,46.0,14.0,,,HRV,HRV_0255,2022-11-30 19:50:10
,wl-rdm,133,357561,0.0-8.14-0.14,1.0,132.0,,,,,,,[],,,,,,87.9,1.0,i,1.0,True,579.6000000238419,35.0,60.0,40.0,False,,327.47773850801207,[],"[960, 540]",ColorTask,47.0,15.0,,,HRV,HRV_0255,2022-11-30 19:50:10
,wl-rdm,134,359444,0.0-8.15-0.15,1.0,133.0,,,,,,,[],,,,,,87.9,0.0,u,0.0,True,510.60000002384186,31.0,60.0,40.0,False,,299.5716797853239,[],"[960, 540]",ColorTask,48.0,16.0,,,HRV,HRV_0255,2022-11-30 19:50:10
,wl-rdm,135,361594,0.0-8.16-0.16,1.0,134.0,,,,,,,[],,,,,,62.5,1.0,u,0.0,False,762.3000000119209,46.0,60.0,40.0,False,,307.976677623186,[],"[960, 540]",ColorTask,47.0,17.0,,,HRV,HRV_0255,2022-11-30 19:50:10
,wl-rdm,136,363544,0.0-8.17-0.17,1.0,135.0,,,,,,,[],,,,,,87.9,0.0,u,0.0,True,522.1000000238419,32.0,60.0,40.0,False,,354.44600658401976,[],"[960, 540]",ColorTask,48.0,18.0,,,HRV,HRV_0255,2022-11-30 19:50:10
,wl-rdm,137,365378,0.0-8.18-0.18,1.0,136.0,,,,,,,[],,,,,,73.6,1.0,i,1.0,True,545.8999999761581,33.0,60.0,40.0,False,,206.45388379085966,[],"[960, 540]",ColorTask,49.0,19.0,,,HRV,HRV_0255,2022-11-30 19:50:10
,wl-rdm,138,367444,0.0-8.19-0.19,1.0,137.0,,,,,,,[],,,,,,73.6,0.0,u,0.0,True,768.3999999761581,47.0,60.0,40.0,False,,200.579229896642,[],"[960, 540]",ColorTask,50.0,20.0,,,HRV,HRV_0255,2022-11-30 19:50:10
,wl-rdm,139,369678,0.0-8.20-0.20,1.0,138.0,,,,,,,[],,,,,,53.2,0.0,u,0.0,True,933.3999999761581,56.0,60.0,40.0,False,,222.4519820561543,[],"[960, 540]",ColorTask,51.0,21.0,,,HRV,HRV_0255,2022-11-30 19:50:10
,wl-rdm,140,371728,0.0-8.21-0.21,1.0,139.0,,,,,,,[],,,,,,62.5,1.0,u,0.0,False,714.4999999403954,43.0,60.0,40.0,False,,262.21856802135335,[],"[960, 540]",ColorTask,50.0,22.0,,,HRV,HRV_0255,2022-11-30 19:50:10
,wl-rdm,141,373728,0.0-8.22-0.22,1.0,140.0,,,,,,,[],,,,,,62.5,0.0,u,0.0,True,523.1000000238419,32.0,60.0,40.0,False,,399.36758929707105,[],"[960, 540]",ColorTask,51.0,23.0,,,HRV,HRV_0255,2022-11-30 19:50:10
,wl-rdm,142,375911,0.0-8.23-0.23,1.0,141.0,,,,,,,[],,,,,,73.6,0.0,u,0.0,True,731.5,44.0,60.0,40.0,False,,380.8370680553728,[],"[960, 540]",ColorTask,52.0,24.0,,,HRV,HRV_0255,2022-11-30 19:50:10
,wl-rdm,143,377811,0.0-8.24-0.24,1.0,142.0,,,,,,,[],,,,,,56.4,0.0,u,0.0,True,494.0999999642372,30.0,60.0,40.0,False,,332.88220913903973,[],"[960, 540]",ColorTask,53.0,25.0,,,HRV,HRV_0255,2022-11-30 19:50:10
,wl-rdm,144,379761,0.0-8.25-0.25,1.0,143.0,,,,,,,[],,,,,,87.9,0.0,u,0.0,True,596.1999999880791,36.0,60.0,40.0,False,,274.9345418702445,[],"[960, 540]",ColorTask,54.0,26.0,,,HRV,HRV_0255,2022-11-30 19:50:10
,wl-rdm,145,381695,0.0-8.26-0.26,1.0,144.0,,,,,,,[],,,,,,53.2,0.0,i,1.0,False,632.1999999880791,38.0,60.0,40.0,False,,222.72069291344056,[],"[960, 540]",ColorTask,53.0,27.0,,,HRV,HRV_0255,2022-11-30 19:50:10
,wl-rdm,146,383545,0.0-8.27-0.27,1.0,145.0,,,,,,,[],,,,,,87.9,1.0,i,1.0,True,538.7000000476837,33.0,60.0,40.0,False,,231.27680308703458,[],"[960, 540]",ColorTask,54.0,28.0,,,HRV,HRV_0255,2022-11-30 19:50:10
,wl-rdm,147,385512,0.0-8.28-0.28,1.0,146.0,,,,,,,[],,,,,,53.2,1.0,u,0.0,False,657.1000000238419,40.0,60.0,40.0,False,,221.21165894821692,[],"[960, 540]",ColorTask,53.0,29.0,,,HRV,HRV_0255,2022-11-30 19:50:10
,wl-rdm,148,387562,0.0-8.29-0.29,1.0,147.0,,,,,,,[],,,,,,50.0,1.0,i,1.0,True,762.0,46.0,60.0,40.0,False,,227.8667815890269,[],"[960, 540]",ColorTask,54.0,30.0,,,HRV,HRV_0255,2022-11-30 19:50:10
,wl-rdm,149,389529,0.0-8.30-0.30,1.0,148.0,,,,,,,[],,,,,,73.6,0.0,u,0.0,True,589.3000000119209,36.0,60.0,40.0,False,,296.49195526987745,[],"[960, 540]",ColorTask,55.0,31.0,,,HRV,HRV_0255,2022-11-30 19:50:10
,wl-rdm,150,391462,0.0-8.31-0.31,1.0,149.0,,,,,,,[],,,,,,73.6,0.0,u,0.0,True,549.6000000238419,33.0,60.0,40.0,False,,325.831771133847,[],"[960, 540]",ColorTask,56.0,32.0,,,HRV,HRV_0255,2022-11-30 19:50:10
,wl-rdm,151,393495,0.0-8.32-0.32,1.0,150.0,,,,,,,[],,,,,,62.5,1.0,i,1.0,True,607.0,37.0,60.0,40.0,False,,345.8725869200922,[],"[960, 540]",ColorTask,57.0,33.0,,,HRV,HRV_0255,2022-11-30 19:50:10
,wl-rdm,152,395646,0.0-8.33-0.33,1.0,151.0,,,,,,,[],,,,,,62.5,1.0,u,0.0,False,775.7000000476837,47.0,60.0,40.0,False,,285.0105296788813,[],"[960, 540]",ColorTask,56.0,34.0,,,HRV,HRV_0255,2022-11-30 19:50:10
,wl-rdm,153,397562,0.0-8.34-0.34,1.0,152.0,,,,,,,[],,,,,,87.9,1.0,i,1.0,True,503.9000000357628,31.0,60.0,40.0,False,,331.38452108602496,[],"[960, 540]",ColorTask,57.0,35.0,,,HRV,HRV_0255,2022-11-30 19:50:10
,wl-rdm,154,399629,0.0-8.35-0.35,1.0,153.0,,,,,,,[],,,,,,53.2,1.0,i,1.0,True,759.4000000357628,46.0,60.0,40.0,False,,230.44867032971277,[],"[960, 540]",ColorTask,58.0,36.0,,,HRV,HRV_0255,2022-11-30 19:50:10
,wl-rdm,155,401679,0.0-8.36-0.36,1.0,154.0,,,,,,,[],,,,,,56.4,0.0,u,0.0,True,707.3000000119209,43.0,60.0,40.0,False,,259.44328178356807,[],"[960, 540]",ColorTask,59.0,37.0,,,HRV,HRV_0255,2022-11-30 19:50:10
,wl-rdm,156,403629,0.0-8.37-0.37,1.0,155.0,,,,,,,[],,,,,,56.4,1.0,u,0.0,False,583.0,35.0,60.0,40.0,False,,306.2341247520183,[],"[960, 540]",ColorTask,58.0,38.0,,,HRV,HRV_0255,2022-11-30 19:50:10
,wl-rdm,157,405596,0.0-8.38-0.38,1.0,156.0,,,,,,,[],,,,,,87.9,0.0,u,0.0,True,585.0999999642372,36.0,60.0,40.0,False,,293.9041956936034,[],"[960, 540]",ColorTask,59.0,39.0,,,HRV,HRV_0255,2022-11-30 19:50:10
,wl-rdm,158,407513,0.0-8.39-0.39,1.0,157.0,,,,,,,[],,,,,,87.9,0.0,u,0.0,True,496.39999997615814,30.0,60.0,40.0,False,,360.0924341863221,[],"[960, 540]",ColorTask,60.0,40.0,,,HRV,HRV_0255,2022-11-30 19:50:10
,wl-rdm,159,409679,0.0-8.40-0.40,1.0,158.0,,,,,,,[],,,,,,73.6,1.0,i,1.0,True,847.5999999642372,51.0,60.0,40.0,False,,256.3204729981764,[],"[960, 540]",ColorTask,61.0,41.0,,,HRV,HRV_0255,2022-11-30 19:50:10
,wl-rdm,160,411963,0.0-8.41-0.41,1.0,159.0,,,,,,,[],,,,,,62.5,1.0,u,0.0,False,819.8999999761581,50.0,60.0,40.0,False,,391.1432983426084,[],"[960, 540]",ColorTask,60.0,42.0,,,HRV,HRV_0255,2022-11-30 19:50:10
,wl-rdm,161,414179,0.0-8.42-0.42,1.0,160.0,,,,,,,[],,,,,,50.0,1.0,i,1.0,True,910.5999999642372,55.0,60.0,40.0,False,,217.45248224866677,[],"[960, 540]",ColorTask,61.0,43.0,,,HRV,HRV_0255,2022-11-30 19:50:10
,wl-rdm,162,416163,0.0-8.43-0.43,1.0,161.0,,,,,,,[],,,,,,87.9,1.0,i,1.0,True,620.2000000476837,38.0,60.0,40.0,False,,271.89328747280143,[],"[960, 540]",ColorTask,62.0,44.0,,,HRV,HRV_0255,2022-11-30 19:50:10
,wl-rdm,163,418430,0.0-8.44-0.44,1.0,162.0,,,,,,,[],,,,,,62.5,0.0,u,0.0,True,892.1000000238419,54.0,60.0,40.0,False,,299.76368789536025,[],"[960, 540]",ColorTask,63.0,45.0,,,HRV,HRV_0255,2022-11-30 19:50:10
,wl-rdm,164,420430,0.0-8.45-0.45,1.0,163.0,,,,,,,[],,,,,,56.4,1.0,i,1.0,True,650.0,39.0,60.0,40.0,False,,268.2704597953469,[],"[960, 540]",ColorTask,64.0,46.0,,,HRV,HRV_0255,2022-11-30 19:50:10
,wl-rdm,165,422680,0.0-8.46-0.46,1.0,164.0,,,,,,,[],,,,,,50.0,1.0,u,0.0,False,798.1999999880791,48.0,60.0,40.0,False,,368.494073282189,[],"[960, 540]",ColorTask,63.0,47.0,,,HRV,HRV_0255,2022-11-30 19:50:10
,wl-rdm,166,424713,0.0-8.47-0.47,1.0,165.0,,,,,,,[],,,,,,73.6,0.0,u,0.0,True,721.3999999761581,44.0,60.0,40.0,False,,246.29426292908965,[],"[960, 540]",ColorTask,64.0,48.0,,,HRV,HRV_0255,2022-11-30 19:50:10
,wl-rdm,167,426980,0.0-8.48-0.48,1.0,166.0,,,,,,,[],,,,,,87.9,1.0,i,1.0,True,809.6000000238419,49.0,60.0,40.0,False,,396.42368533895547,[],"[960, 540]",ColorTask,65.0,49.0,,,HRV,HRV_0255,2022-11-30 19:50:10
,wl-rdm,168,428897,0.0-8.49-0.49,1.0,167.0,,,,,,,[],,,,,,56.4,1.0,i,1.0,True,629.4000000357628,38.0,60.0,40.0,False,,231.9243761406986,[],"[960, 540]",ColorTask,66.0,50.0,,,HRV,HRV_0255,2022-11-30 19:50:10
,wl-rdm,169,430813,0.0-8.50-0.50,1.0,168.0,,,,,,,[],,,,,,87.9,0.0,u,0.0,True,601.3999999761581,37.0,60.0,40.0,False,,249.6152349875525,[],"[960, 540]",ColorTask,67.0,51.0,,,HRV,HRV_0255,2022-11-30 19:50:10
,wl-rdm,170,432797,0.0-8.51-0.51,1.0,169.0,,,,,,,[],,,,,,73.6,1.0,i,1.0,True,609.6999999880791,37.0,60.0,40.0,False,,297.0973267275299,[],"[960, 540]",ColorTask,68.0,52.0,,,HRV,HRV_0255,2022-11-30 19:50:10
,wl-rdm,171,434747,0.0-8.52-0.52,1.0,170.0,,,,,,,[],,,,,,56.4,1.0,u,0.0,False,511.5,31.0,60.0,40.0,False,,360.65163392362444,[],"[960, 540]",ColorTask,67.0,53.0,,,HRV,HRV_0255,2022-11-30 19:50:10
,wl-rdm,172,437014,0.0-8.53-0.53,1.0,171.0,,,,,,,[],,,,,,50.0,1.0,i,1.0,True,990.8000000119209,60.0,60.0,40.0,False,,207.70217791300234,[],"[960, 540]",ColorTask,68.0,54.0,,,HRV,HRV_0255,2022-11-30 19:50:10
,wl-rdm,173,439164,0.0-8.54-0.54,1.0,172.0,,,,,,,[],,,,,,56.4,1.0,i,1.0,True,751.4000000357628,46.0,60.0,40.0,False,,325.2722529734061,[],"[960, 540]",ColorTask,69.0,55.0,,,HRV,HRV_0255,2022-11-30 19:50:10
,wl-rdm,174,441447,0.0-8.55-0.55,1.0,173.0,,,,,,,[],,,,,,56.4,1.0,u,0.0,False,864.1999999880791,52.0,60.0,40.0,False,,360.6651822777736,[],"[960, 540]",ColorTask,68.0,56.0,,,HRV,HRV_0255,2022-11-30 19:50:10
,wl-rdm,175,443714,0.0-8.56-0.56,1.0,174.0,,,,,,,[],,,,,,56.4,0.0,u,0.0,True,936.9999999403954,57.0,60.0,40.0,False,,253.89529673105187,[],"[960, 540]",ColorTask,69.0,57.0,,,HRV,HRV_0255,2022-11-30 19:50:10
,wl-rdm,176,445664,0.0-8.57-0.57,1.0,175.0,,,,,,,[],,,,,,87.9,0.0,u,0.0,True,639.0,39.0,60.0,40.0,False,,235.54872915899486,[],"[960, 540]",ColorTask,70.0,58.0,,,HRV,HRV_0255,2022-11-30 19:50:10
,wl-rdm,177,447664,0.0-8.58-0.58,1.0,176.0,,,,,,,[],,,,,,73.6,1.0,i,1.0,True,714.0,43.0,60.0,40.0,False,,205.20483891472492,[],"[960, 540]",ColorTask,71.0,59.0,,,HRV,HRV_0255,2022-11-30 19:50:10
,wl-rdm,178,449647,0.0-8.59-0.59,1.0,177.0,,,,,,,[],,,,,,62.5,0.0,u,0.0,True,689.5999999642372,42.0,60.0,40.0,False,,213.8302098201141,[],"[960, 540]",ColorTask,72.0,60.0,,,HRV,HRV_0255,2022-11-30 19:50:10
,wl-rdm,179,451864,0.0-8.60-0.60,1.0,178.0,,,,,,,[],,,,,,56.4,0.0,u,0.0,True,806.0,49.0,60.0,40.0,False,,331.6404972529406,[],"[960, 540]",ColorTask,73.0,61.0,,,HRV,HRV_0255,2022-11-30 19:50:10
,wl-rdm,180,453998,0.0-8.61-0.61,1.0,179.0,,,,,,,[],,,,,,50.0,0.0,u,0.0,True,842.2999999523163,51.0,60.0,40.0,False,,206.0637283210225,[],"[960, 540]",ColorTask,74.0,62.0,,,HRV,HRV_0255,2022-11-30 19:50:10
,wl-rdm,181,455831,0.0-8.62-0.62,1.0,180.0,,,,,,,[],,,,,,73.6,1.0,i,1.0,True,480.80000001192093,29.0,60.0,40.0,False,,289.2604772318464,[],"[960, 540]",ColorTask,75.0,63.0,,,HRV,HRV_0255,2022-11-30 19:50:10
,wl-rdm,182,457731,0.0-8.63-0.63,1.0,181.0,,,,,,,[],,,,,,53.2,1.0,u,0.0,False,610.5,37.0,60.0,40.0,False,,222.97604509141075,[],"[960, 540]",ColorTask,74.0,64.0,,,HRV,HRV_0255,2022-11-30 19:50:10
,wl-rdm,183,459981,0.0-8.64-0.64,1.0,182.0,,,,,,,[],,,,,,50.0,1.0,i,1.0,True,892.6000000238419,54.0,60.0,40.0,False,,279.84200400427716,[],"[960, 540]",ColorTask,75.0,65.0,,,HRV,HRV_0255,2022-11-30 19:50:10
,wl-rdm,184,462048,0.0-8.65-0.65,1.0,183.0,,,,,,,[],,,,,,53.2,1.0,i,1.0,True,614.2000000476837,37.0,60.0,40.0,False,,367.7858757321401,[],"[960, 540]",ColorTask,76.0,66.0,,,HRV,HRV_0255,2022-11-30 19:50:10
,wl-rdm,185,464048,0.0-8.66-0.66,1.0,184.0,,,,,,,[],,,,,,62.5,1.0,i,1.0,True,680.6999999880791,41.0,60.0,40.0,False,,241.74379219935088,[],"[960, 540]",ColorTask,77.0,67.0,,,HRV,HRV_0255,2022-11-30 19:50:10
,wl-rdm,186,466065,0.0-8.67-0.67,1.0,185.0,,,,,,,[],,,,,,50.0,1.0,u,0.0,False,696.8000000119209,42.0,60.0,40.0,False,,249.3846504268605,[],"[960, 540]",ColorTask,76.0,68.0,,,HRV,HRV_0255,2022-11-30 19:50:10
,wl-rdm,187,467998,0.0-8.68-0.68,1.0,186.0,,,,,,,[],,,,,,73.6,0.0,u,0.0,True,623.6999999880791,38.0,60.0,40.0,False,,237.1836922068101,[],"[960, 540]",ColorTask,77.0,69.0,,,HRV,HRV_0255,2022-11-30 19:50:10
,wl-rdm,188,469864,0.0-8.69-0.69,1.0,187.0,,,,,,,[],,,,,,73.6,1.0,i,1.0,True,512.3999999761581,31.0,60.0,40.0,False,,287.8924920024025,[],"[960, 540]",ColorTask,78.0,70.0,,,HRV,HRV_0255,2022-11-30 19:50:10
,wl-rdm,189,471781,0.0-8.70-0.70,1.0,188.0,,,,,,,[],,,,,,73.6,0.0,u,0.0,True,582.4000000357628,35.0,60.0,40.0,False,,272.9858524046371,[],"[960, 540]",ColorTask,79.0,71.0,,,HRV,HRV_0255,2022-11-30 19:50:10
,wl-rdm,190,473781,0.0-8.71-0.71,1.0,189.0,,,,,,,[],,,,,,62.5,1.0,i,1.0,True,607.5999999642372,37.0,60.0,40.0,False,,329.4194177328271,[],"[960, 540]",ColorTask,80.0,72.0,,,HRV,HRV_0255,2022-11-30 19:50:10
,wl-rdm,191,475981,0.0-8.72-0.72,1.0,190.0,,,,,,,[],,,,,,56.4,0.0,u,0.0,True,774.3999999761581,47.0,60.0,40.0,False,,354.23672191613326,[],"[960, 540]",ColorTask,81.0,73.0,,,HRV,HRV_0255,2022-11-30 19:50:10
,wl-rdm,192,477965,0.0-8.73-0.73,1.0,191.0,,,,,,,[],,,,,,50.0,0.0,i,1.0,False,659.0,40.0,60.0,40.0,False,,234.70314151884446,[],"[960, 540]",ColorTask,80.0,74.0,,,HRV,HRV_0255,2022-11-30 19:50:10
,wl-rdm,193,480565,0.0-8.74-0.74,1.0,192.0,,,,,,,[],,,,,,56.4,0.0,u,0.0,True,1199.699999988079,72.0,60.0,40.0,False,,341.72344292377966,[],"[960, 540]",ColorTask,81.0,75.0,,,HRV,HRV_0255,2022-11-30 19:50:10
,wl-rdm,194,482582,0.0-8.75-0.75,1.0,193.0,,,,,,,[],,,,,,53.2,1.0,i,1.0,True,632.6000000238419,38.0,60.0,40.0,False,,305.75560453304786,[],"[960, 540]",ColorTask,82.0,76.0,,,HRV,HRV_0255,2022-11-30 19:50:10
,wl-rdm,195,484915,0.0-8.76-0.76,1.0,194.0,,,,,,,[],,,,,,53.2,0.0,i,1.0,False,1051.6000000238419,64.0,60.0,40.0,False,,202.37244519758661,[],"[960, 540]",ColorTask,81.0,77.0,,,HRV,HRV_0255,2022-11-30 19:50:10
,wl-rdm,196,487915,0.0-8.77-0.77,1.0,195.0,,,,,,,[],,,,,,53.2,0.0,i,1.0,False,1643.4000000357628,99.0,60.0,40.0,False,,296.0588144754656,[],"[960, 540]",ColorTask,80.0,78.0,,,HRV,HRV_0255,2022-11-30 19:50:10
,wl-rdm,197,489882,0.0-8.78-0.78,1.0,196.0,,,,,,,[],,,,,,53.2,1.0,i,1.0,True,678.2999999523163,41.0,60.0,40.0,False,,205.3837435150787,[],"[960, 540]",ColorTask,81.0,79.0,,,HRV,HRV_0255,2022-11-30 19:50:10
,wl-rdm,198,491865,0.0-8.79-0.79,1.0,197.0,,,,,,,[],,,,,,87.9,1.0,i,1.0,True,662.3999999761581,40.0,60.0,40.0,False,,233.314252856093,[],"[960, 540]",ColorTask,82.0,80.0,,,HRV,HRV_0255,2022-11-30 19:50:10
,wl-rdm,199,494449,0.0-8.80-0.80,1.0,198.0,,,,,,,[],,,,,,53.2,1.0,u,0.0,False,1161.9000000357628,70.0,60.0,40.0,False,,361.08645928173246,[],"[960, 540]",ColorTask,81.0,81.0,,,HRV,HRV_0255,2022-11-30 19:50:10
,wl-rdm,200,496982,0.0-8.81-0.81,1.0,199.0,,,,,,,[],,,,,,53.2,0.0,i,1.0,False,1090.0,66.0,60.0,40.0,False,,375.5470648248645,[],"[960, 540]",ColorTask,80.0,82.0,,,HRV,HRV_0255,2022-11-30 19:50:10
,wl-rdm,201,499166,0.0-8.82-0.82,1.0,200.0,,,,,,,[],,,,,,50.0,1.0,i,1.0,True,824.6000000238419,50.0,60.0,40.0,False,,270.41547831036667,[],"[960, 540]",ColorTask,81.0,83.0,,,HRV,HRV_0255,2022-11-30 19:50:10
,wl-rdm,202,501583,0.0-8.83-0.83,1.0,201.0,,,,,,,[],,,,,,53.2,0.0,u,0.0,True,990.1000000238419,60.0,60.0,40.0,False,,363.55972036212825,[],"[960, 540]",ColorTask,82.0,84.0,,,HRV,HRV_0255,2022-11-30 19:50:10
,wl-rdm,203,503566,0.0-8.84-0.84,1.0,202.0,,,,,,,[],,,,,,50.0,0.0,i,1.0,False,715.3999999761581,43.0,60.0,40.0,False,,205.4945216189922,[],"[960, 540]",ColorTask,81.0,85.0,,,HRV,HRV_0255,2022-11-30 19:50:10
,wl-rdm,204,505749,0.0-8.85-0.85,1.0,203.0,,,,,,,[],,,,,,56.4,0.0,u,0.0,True,858.3000000119209,52.0,60.0,40.0,False,,237.62152539243777,[],"[960, 540]",ColorTask,82.0,86.0,,,HRV,HRV_0255,2022-11-30 19:50:10
,wl-rdm,205,507766,0.0-8.86-0.86,1.0,204.0,,,,,,,[],,,,,,62.5,0.0,u,0.0,True,724.5,44.0,60.0,40.0,False,,211.84401019151866,[],"[960, 540]",ColorTask,83.0,87.0,,,HRV,HRV_0255,2022-11-30 19:50:10
,wl-rdm,206,509866,0.0-8.87-0.87,1.0,205.0,,,,,,,[],,,,,,87.9,0.0,u,0.0,True,811.5999999642372,49.0,60.0,40.0,False,,216.18157098080297,[],"[960, 540]",ColorTask,84.0,88.0,,,HRV,HRV_0255,2022-11-30 19:50:10
,wl-rdm,207,511916,0.0-8.88-0.88,1.0,206.0,,,,,,,[],,,,,,56.4,0.0,i,1.0,False,684.9000000357628,42.0,60.0,40.0,False,,281.2105463629341,[],"[960, 540]",ColorTask,83.0,89.0,,,HRV,HRV_0255,2022-11-30 19:50:10
,wl-rdm,208,513999,0.0-8.89-0.89,1.0,207.0,,,,,,,[],,,,,,50.0,1.0,u,0.0,False,780.7999999523163,47.0,60.0,40.0,False,,222.08831459008482,[],"[960, 540]",ColorTask,82.0,90.0,,,HRV,HRV_0255,2022-11-30 19:50:10
,wl-rdm,209,515933,0.0-8.90-0.90,1.0,208.0,,,,,,,[],,,,,,62.5,1.0,i,1.0,True,649.9000000357628,39.0,60.0,40.0,False,,205.44741571685523,[],"[960, 540]",ColorTask,83.0,91.0,,,HRV,HRV_0255,2022-11-30 19:50:10
,wl-rdm,210,518200,0.0-8.91-0.91,1.0,209.0,,,,,,,[],,,,,,50.0,0.0,u,0.0,True,963.6000000238419,58.0,60.0,40.0,False,,226.22393510114262,[],"[960, 540]",ColorTask,84.0,92.0,,,HRV,HRV_0255,2022-11-30 19:50:10
,wl-rdm,211,520183,0.0-8.92-0.92,1.0,210.0,,,,,,,[],,,,,,87.9,1.0,i,1.0,True,631.2000000476837,38.0,60.0,40.0,False,,268.59506862540485,[],"[960, 540]",ColorTask,85.0,93.0,,,HRV,HRV_0255,2022-11-30 19:50:10
,wl-rdm,212,522167,0.0-8.93-0.93,1.0,211.0,,,,,,,[],,,,,,62.5,0.0,u,0.0,True,606.3000000119209,37.0,60.0,40.0,False,,303.70643906033973,[],"[960, 540]",ColorTask,86.0,94.0,,,HRV,HRV_0255,2022-11-30 19:50:10
,wl-rdm,213,524300,0.0-8.94-0.94,1.0,212.0,,,,,,,[],,,,,,62.5,0.0,u,0.0,True,692.6000000238419,42.0,60.0,40.0,False,,360.6155063222445,[],"[960, 540]",ColorTask,87.0,95.0,,,HRV,HRV_0255,2022-11-30 19:50:10
,wl-rdm,214,526167,0.0-8.95-0.95,1.0,213.0,,,,,,,[],,,,,,87.9,0.0,u,0.0,True,581.0,35.0,60.0,40.0,False,,224.69679728291757,[],"[960, 540]",ColorTask,88.0,96.0,,,HRV,HRV_0255,2022-11-30 19:50:10
,wl-rdm,215,528150,0.0-8.96-0.96,1.0,214.0,,,,,,,[],,,,,,62.5,0.0,u,0.0,True,714.1000000238419,43.0,60.0,40.0,False,,210.77578086404705,[],"[960, 540]",ColorTask,89.0,97.0,,,HRV,HRV_0255,2022-11-30 19:50:10
,wl-rdm,216,530084,0.0-8.97-0.97,1.0,215.0,,,,,,,[],,,,,,50.0,0.0,i,1.0,False,618.2000000476837,38.0,60.0,40.0,False,,232.78131157463534,[],"[960, 540]",ColorTask,88.0,98.0,,,HRV,HRV_0255,2022-11-30 19:50:10
,wl-rdm,217,532134,0.0-8.98-0.98,1.0,216.0,,,,,,,[],,,,,,50.0,0.0,u,0.0,True,649.6999999880791,39.0,60.0,40.0,False,,327.3310064573935,[],"[960, 540]",ColorTask,89.0,99.0,,,HRV,HRV_0255,2022-11-30 19:50:10
,wl-rdm,218,534284,0.0-8.99-0.99,1.0,217.0,,,,,,,[],,,,,,56.4,1.0,i,1.0,True,851.3999999761581,52.0,60.0,40.0,False,,201.39007127493636,[],"[960, 540]",ColorTask,90.0,100.0,,,HRV,HRV_0255,2022-11-30 19:50:10
,wl-rdm,219,536251,0.0-8.100-0.100,1.0,218.0,,,,,,,[],,,,,,73.6,0.0,u,0.0,True,660.3999999761581,40.0,60.0,40.0,False,,240.29795080619982,[],"[960, 540]",ColorTask,91.0,101.0,,,HRV,HRV_0255,2022-11-30 19:50:10
,wl-rdm,220,538718,0.0-8.101-0.101,1.0,219.0,,,,,,,[],,,,,,56.4,1.0,i,1.0,True,1058.3999999761581,64.0,60.0,40.0,False,,328.5292250999542,[],"[960, 540]",ColorTask,92.0,102.0,,,HRV,HRV_0255,2022-11-30 19:50:10
,wl-rdm,221,540834,0.0-8.102-0.102,1.0,220.0,,,,,,,[],,,,,,53.2,0.0,u,0.0,True,660.8000000715256,40.0,60.0,40.0,False,,392.79528029202777,[],"[960, 540]",ColorTask,93.0,103.0,,,HRV,HRV_0255,2022-11-30 19:50:10
,wl-rdm,222,542818,0.0-8.103-0.103,1.0,221.0,,,,,,,[],,,,,,56.4,1.0,u,0.0,False,662.3999999761581,40.0,60.0,40.0,False,,245.61643675419003,[],"[960, 540]",ColorTask,92.0,104.0,,,HRV,HRV_0255,2022-11-30 19:50:10
,wl-rdm,223,545084,0.0-8.104-0.104,1.0,222.0,,,,,,,[],,,,,,87.9,1.0,i,1.0,True,925.9000000357628,56.0,60.0,40.0,False,,262.5110510847761,[],"[960, 540]",ColorTask,93.0,105.0,,,HRV,HRV_0255,2022-11-30 19:50:10
,wl-rdm,224,547301,0.0-8.105-0.105,1.0,223.0,,,,,,,[],,,,,,53.2,1.0,u,0.0,False,917.9000000357628,56.0,60.0,40.0,False,,208.05417567365384,[],"[960, 540]",ColorTask,92.0,106.0,,,HRV,HRV_0255,2022-11-30 19:50:10
,wl-rdm,225,549334,0.0-8.106-0.106,1.0,224.0,,,,,,,[],,,,,,87.9,1.0,i,1.0,True,581.2999999523163,35.0,60.0,40.0,False,,389.0837202191381,[],"[960, 540]",ColorTask,93.0,107.0,,,HRV,HRV_0255,2022-11-30 19:50:10
,wl-rdm,226,551418,0.0-8.107-0.107,1.0,225.0,,,,,,,[],,,,,,62.5,1.0,i,1.0,True,695.1999999880791,42.0,60.0,40.0,False,,304.52658692580553,[],"[960, 540]",ColorTask,94.0,108.0,,,HRV,HRV_0255,2022-11-30 19:50:10
,wl-html-button-response,227,553812,0.0-9.0-0.0,,,,,,,,,,2391.199999988079,,0,,,,,,,,,,,,,,,,,,,,<h3>End of this session. Thank you!</h3><br>,['Close window'],HRV,HRV_0255,2022-11-30 19:50:10
