trialN,stimuli,trialStartTime,trialStartTime_UNIX,stimulus1,stimulus2,stimulus1Bid,stimulus2Bid,delta,selected,rt,rt_UNIX,rt_perfnow,receivedResponse,rsp,trialEndTime,trialDuration,trialEndTime_UNIX,trialDuration_UNIX,exp,subjectId,date
0,"[{'imgObject': {}, 'id': 'strawberries', 'src': '/static/foodstim60/strawberries.jpg', 'key': 'u', 'origWidth': 410, 'origHeight': 410, 'width': 410, 'height': 410, 'widthPercent': 0.45, 'rescaleHeight': False, 'trialN': 0, 'loaded': True, 'loadedTime': 21606, 'positionName': 'LEFT', 'positionCoords': [511.6, 335], 'bid': 5.79}, {'imgObject': {}, 'id': 'turkey sandwich', 'src': '/static/foodstim60/turkey sandwich.jpg', 'key': 'i', 'origWidth': 409, 'origHeight': 409, 'width': 409, 'height': 409, 'widthPercent': 0.45, 'rescaleHeight': False, 'trialN': 0, 'loaded': True, 'loadedTime': 21657.69999998808, 'positionName': 'RIGHT', 'positionCoords': [998.4, 335.5], 'bid': 8.05}]",22115.100000023842,1669836985093,strawberries,turkey sandwich,5.79,8.05,2.2600000000000007,turkey sandwich,986.0999999642372,987,986.5999999642372,True,i,23607.5,1492.3999999761581,1669836986586,1493,HRV,HRV_0255,2022-11-30 19:40:52
1,"[{'imgObject': {}, 'id': 'kiwi', 'src': '/static/foodstim60/kiwi.jpg', 'key': 'u', 'origWidth': 410, 'origHeight': 410, 'width': 410, 'height': 410, 'widthPercent': 0.45, 'rescaleHeight': False, 'trialN': 1, 'loaded': True, 'loadedTime': 21660.5, 'positionName': 'LEFT', 'positionCoords': [511.6, 335], 'bid': 7.48}, {'imgObject': {}, 'id': 'edamame', 'src': '/static/foodstim60/edamame.jpg', 'key': 'i', 'origWidth': 409, 'origHeight': 410, 'width': 409, 'height': 410, 'widthPercent': 0.45, 'rescaleHeight': False, 'trialN': 1, 'loaded': True, 'loadedTime': 21664.30000001192, 'positionName': 'RIGHT', 'positionCoords': [998.4, 335], 'bid': 7.51}]",23607.80000001192,1669836986586,kiwi,edamame,7.48,7.51,0.02999999999999936,edamame,861.6000000238419,862,862.0,True,i,24986.69999998808,1378.8999999761581,1669836987965,1379,HRV,HRV_0255,2022-11-30 19:40:52
2,"[{'imgObject': {}, 'id': 'steak', 'src': '/static/foodstim60/steak.jpg', 'key': 'u', 'origWidth': 410, 'origHeight': 410, 'width': 410, 'height': 410, 'widthPercent': 0.45, 'rescaleHeight': False, 'trialN': 2, 'loaded': True, 'loadedTime': 21665.900000035763, 'positionName': 'LEFT', 'positionCoords': [511.6, 335], 'bid': 1.58}, {'imgObject': {}, 'id': 'cantaloupe', 'src': '/static/foodstim60/cantaloupe.jpg', 'key': 'i', 'origWidth': 409, 'origHeight': 409, 'width': 409, 'height': 409, 'widthPercent': 0.45, 'rescaleHeight': False, 'trialN': 2, 'loaded': True, 'loadedTime': 21672.5, 'positionName': 'RIGHT', 'positionCoords': [998.4, 335.5], 'bid': 1.41}]",24987.0,1669836987965,steak,cantaloupe,1.58,1.41,-0.17000000000000015,cantaloupe,874.1999999880791,875,874.5,True,i,26370.69999998808,1383.699999988079,1669836989349,1384,HRV,HRV_0255,2022-11-30 19:40:52
3,"[{'imgObject': {}, 'id': 'chicken nuggets2', 'src': '/static/foodstim60/chicken nuggets2.jpg', 'key': 'u', 'origWidth': 410, 'origHeight': 409, 'width': 410, 'height': 409, 'widthPercent': 0.45, 'rescaleHeight': False, 'trialN': 3, 'loaded': True, 'loadedTime': 21674.600000023842, 'positionName': 'LEFT', 'positionCoords': [511.6, 335.5], 'bid': 3.41}, {'imgObject': {}, 'id': 'Grapes', 'src': '/static/foodstim60/Grapes.jpg', 'key': 'i', 'origWidth': 411, 'origHeight': 411, 'width': 411, 'height': 411, 'widthPercent': 0.45, 'rescaleHeight': False, 'trialN': 3, 'loaded': True, 'loadedTime': 21677.69999998808, 'positionName': 'RIGHT', 'positionCoords': [998.4, 334.5], 'bid': 4.57}]",26370.900000035763,1669836989349,chicken nuggets2,Grapes,3.41,4.57,1.1600000000000001,Grapes,1674.3999999761581,1675,1674.5999999642372,True,i,28550.600000023842,2179.699999988079,1669836991529,2180,HRV,HRV_0255,2022-11-30 19:40:52
4,"[{'imgObject': {}, 'id': 'cantaloupe', 'src': '/static/foodstim60/cantaloupe.jpg', 'key': 'u', 'origWidth': 409, 'origHeight': 409, 'width': 409, 'height': 409, 'widthPercent': 0.45, 'rescaleHeight': False, 'trialN': 4, 'loaded': True, 'loadedTime': 21669.600000023842, 'positionName': 'LEFT', 'positionCoords': [512.6, 335.5], 'bid': 1.41}, {'imgObject': {}, 'id': 'eggsalad', 'src': '/static/foodstim60/eggsalad.jpg', 'key': 'i', 'origWidth': 410, 'origHeight': 409, 'width': 410, 'height': 409, 'widthPercent': 0.45, 'rescaleHeight': False, 'trialN': 4, 'loaded': True, 'loadedTime': 21679.30000001192, 'positionName': 'RIGHT', 'positionCoords': [998.4, 335.5], 'bid': 0.07}]",28550.80000001192,1669836991529,cantaloupe,eggsalad,1.41,0.07,-1.3399999999999999,cantaloupe,1006.5,1007,1006.8999999761581,True,u,30074.80000001192,1524.0,1669836993053,1524,HRV,HRV_0255,2022-11-30 19:40:52
5,"[{'imgObject': {}, 'id': 'olives', 'src': '/static/foodstim60/olives.jpg', 'key': 'u', 'origWidth': 410, 'origHeight': 410, 'width': 410, 'height': 410, 'widthPercent': 0.45, 'rescaleHeight': False, 'trialN': 5, 'loaded': True, 'loadedTime': 21680.19999998808, 'positionName': 'LEFT', 'positionCoords': [511.6, 335], 'bid': 5.97}, {'imgObject': {}, 'id': 'chickenfingers', 'src': '/static/foodstim60/chickenfingers.jpg', 'key': 'i', 'origWidth': 410, 'origHeight': 410, 'width': 410, 'height': 410, 'widthPercent': 0.45, 'rescaleHeight': False, 'trialN': 5, 'loaded': True, 'loadedTime': 21681.80000001192, 'positionName': 'RIGHT', 'positionCoords': [998.4, 335], 'bid': 8.14}]",30075.100000023842,1669836993053,olives,chickenfingers,5.97,8.14,2.170000000000001,chickenfingers,746.3999999761581,747,746.8999999761581,True,i,31333.900000035763,1258.800000011921,1669836994312,1259,HRV,HRV_0255,2022-11-30 19:40:52
6,"[{'imgObject': {}, 'id': 'hotdog w must', 'src': '/static/foodstim60/hotdog w must.jpg', 'key': 'u', 'origWidth': 409, 'origHeight': 409, 'width': 409, 'height': 409, 'widthPercent': 0.45, 'rescaleHeight': False, 'trialN': 6, 'loaded': True, 'loadedTime': 21684.5, 'positionName': 'LEFT', 'positionCoords': [512.6, 335.5], 'bid': 4.96}, {'imgObject': {}, 'id': 'lox', 'src': '/static/foodstim60/lox.jpg', 'key': 'i', 'origWidth': 410, 'origHeight': 411, 'width': 410, 'height': 411, 'widthPercent': 0.45, 'rescaleHeight': False, 'trialN': 6, 'loaded': True, 'loadedTime': 21709.400000035763, 'positionName': 'RIGHT', 'positionCoords': [998.4, 334.5], 'bid': 5.0200000000000005}]",31334.19999998808,1669836994312,hotdog w must,lox,4.96,5.0200000000000005,0.0600000000000005,hotdog w must,1015.2000000476837,1016,1015.5,True,u,32857.69999998808,1523.5,1669836995836,1524,HRV,HRV_0255,2022-11-30 19:40:52
7,"[{'imgObject': {}, 'id': 'popsicles', 'src': '/static/foodstim60/popsicles.jpg', 'key': 'u', 'origWidth': 410, 'origHeight': 410, 'width': 410, 'height': 410, 'widthPercent': 0.45, 'rescaleHeight': False, 'trialN': 7, 'loaded': True, 'loadedTime': 22112.80000001192, 'positionName': 'LEFT', 'positionCoords': [511.6, 335], 'bid': 6.28}, {'imgObject': {}, 'id': 'grilled chicken strips', 'src': '/static/foodstim60/grilled chicken strips.jpg', 'key': 'i', 'origWidth': 410, 'origHeight': 411, 'width': 410, 'height': 411, 'widthPercent': 0.45, 'rescaleHeight': False, 'trialN': 7, 'loaded': True, 'loadedTime': 21711.900000035763, 'positionName': 'RIGHT', 'positionCoords': [998.4, 334.5], 'bid': 6.29}]",32858.0,1669836995836,popsicles,grilled chicken strips,6.28,6.29,0.009999999999999787,grilled chicken strips,1299.4000000357628,1300,1299.800000011921,True,i,34661.19999998808,1803.199999988079,1669836997639,1803,HRV,HRV_0255,2022-11-30 19:40:52
8,"[{'imgObject': {}, 'id': 'turkey sandwich', 'src': '/static/foodstim60/turkey sandwich.jpg', 'key': 'u', 'origWidth': 409, 'origHeight': 409, 'width': 409, 'height': 409, 'widthPercent': 0.45, 'rescaleHeight': False, 'trialN': 8, 'loaded': True, 'loadedTime': 21642.100000023842, 'positionName': 'LEFT', 'positionCoords': [512.6, 335.5], 'bid': 8.05}, {'imgObject': {}, 'id': 'burger', 'src': '/static/foodstim60/burger.jpg', 'key': 'i', 'origWidth': 409, 'origHeight': 409, 'width': 409, 'height': 409, 'widthPercent': 0.45, 'rescaleHeight': False, 'trialN': 8, 'loaded': True, 'loadedTime': 21717.30000001192, 'positionName': 'RIGHT', 'positionCoords': [998.4, 335.5], 'bid': 6.71}]",34661.40000003576,1669836997640,turkey sandwich,burger,8.05,6.71,-1.3400000000000007,turkey sandwich,655.7999999523163,656,656.0999999642372,True,u,35827.0,1165.5999999642372,1669836998805,1165,HRV,HRV_0255,2022-11-30 19:40:52
9,"[{'imgObject': {}, 'id': 'mango', 'src': '/static/foodstim60/mango.jpg', 'key': 'u', 'origWidth': 411, 'origHeight': 411, 'width': 411, 'height': 411, 'widthPercent': 0.45, 'rescaleHeight': False, 'trialN': 9, 'loaded': True, 'loadedTime': 21719.600000023842, 'positionName': 'LEFT', 'positionCoords': [510.6, 334.5], 'bid': 2.02}, {'imgObject': {}, 'id': 'froot loops w milk', 'src': '/static/foodstim60/froot loops w milk.jpg', 'key': 'i', 'origWidth': 410, 'origHeight': 410, 'width': 410, 'height': 410, 'widthPercent': 0.45, 'rescaleHeight': False, 'trialN': 9, 'loaded': True, 'loadedTime': 21745.400000035763, 'positionName': 'RIGHT', 'positionCoords': [998.4, 335], 'bid': 2.17}]",35827.30000001192,1669836998806,mango,froot loops w milk,2.02,2.17,0.1499999999999999,froot loops w milk,834.0,834,834.3000000119209,True,i,37167.19999998808,1339.8999999761581,1669837000145,1339,HRV,HRV_0255,2022-11-30 19:40:52
10,"[{'imgObject': {}, 'id': 'turkeysandwich', 'src': '/static/foodstim60/turkeysandwich.jpg', 'key': 'u', 'origWidth': 409, 'origHeight': 409, 'width': 409, 'height': 409, 'widthPercent': 0.45, 'rescaleHeight': False, 'trialN': 10, 'loaded': True, 'loadedTime': 21748.600000023842, 'positionName': 'LEFT', 'positionCoords': [512.6, 335.5], 'bid': 7.26}, {'imgObject': {}, 'id': 'olives', 'src': '/static/foodstim60/olives.jpg', 'key': 'i', 'origWidth': 410, 'origHeight': 410, 'width': 410, 'height': 410, 'widthPercent': 0.45, 'rescaleHeight': False, 'trialN': 10, 'loaded': True, 'loadedTime': 21680.600000023842, 'positionName': 'RIGHT', 'positionCoords': [998.4, 335], 'bid': 5.97}]",37167.40000003576,1669837000146,turkeysandwich,olives,7.26,5.97,-1.29,turkeysandwich,829.7999999523163,830,830.1999999880791,True,u,38507.0,1339.5999999642372,1669837001485,1339,HRV,HRV_0255,2022-11-30 19:40:52
11,"[{'imgObject': {}, 'id': 'veggieswithdip', 'src': '/static/foodstim60/veggieswithdip.jpg', 'key': 'u', 'origWidth': 409, 'origHeight': 409, 'width': 409, 'height': 409, 'widthPercent': 0.45, 'rescaleHeight': False, 'trialN': 11, 'loaded': True, 'loadedTime': 21749.600000023842, 'positionName': 'LEFT', 'positionCoords': [512.6, 335.5], 'bid': 5.41}, {'imgObject': {}, 'id': 'popsicles', 'src': '/static/foodstim60/popsicles.jpg', 'key': 'i', 'origWidth': 410, 'origHeight': 410, 'width': 410, 'height': 410, 'widthPercent': 0.45, 'rescaleHeight': False, 'trialN': 11, 'loaded': True, 'loadedTime': 22114.400000035763, 'positionName': 'RIGHT', 'positionCoords': [998.4, 335], 'bid': 6.28}]",38507.19999998808,1669837001486,veggieswithdip,popsicles,5.41,6.28,0.8700000000000001,veggieswithdip,770.1000000238419,770,770.4000000357628,True,u,39782.30000001192,1275.1000000238419,1669837002761,1275,HRV,HRV_0255,2022-11-30 19:40:52
12,"[{'imgObject': {}, 'id': 'rigatoni', 'src': '/static/foodstim60/rigatoni.jpg', 'key': 'u', 'origWidth': 411, 'origHeight': 411, 'width': 411, 'height': 411, 'widthPercent': 0.45, 'rescaleHeight': False, 'trialN': 12, 'loaded': True, 'loadedTime': 21754.5, 'positionName': 'LEFT', 'positionCoords': [510.6, 334.5], 'bid': 0.19}, {'imgObject': {}, 'id': 'granola w milk', 'src': '/static/foodstim60/granola w milk.jpg', 'key': 'i', 'origWidth': 410, 'origHeight': 410, 'width': 410, 'height': 410, 'widthPercent': 0.45, 'rescaleHeight': False, 'trialN': 12, 'loaded': True, 'loadedTime': 21757.30000001192, 'positionName': 'RIGHT', 'positionCoords': [998.4, 335], 'bid': 1.48}]",39782.60000002384,1669837002761,rigatoni,granola w milk,0.19,1.48,1.29,rigatoni,886.6999999880791,887,887.0,True,u,41186.60000002384,1404.0,1669837004165,1404,HRV,HRV_0255,2022-11-30 19:40:52
13,"[{'imgObject': {}, 'id': 'blackbeanswithrice', 'src': '/static/foodstim60/blackbeanswithrice.jpg', 'key': 'u', 'origWidth': 410, 'origHeight': 410, 'width': 410, 'height': 410, 'widthPercent': 0.45, 'rescaleHeight': False, 'trialN': 13, 'loaded': True, 'loadedTime': 21759, 'positionName': 'LEFT', 'positionCoords': [511.6, 335], 'bid': 1.82}, {'imgObject': {}, 'id': 'cocktailshrimp', 'src': '/static/foodstim60/cocktailshrimp.jpg', 'key': 'i', 'origWidth': 410, 'origHeight': 410, 'width': 410, 'height': 410, 'widthPercent': 0.45, 'rescaleHeight': False, 'trialN': 13, 'loaded': True, 'loadedTime': 21784.900000035763, 'positionName': 'RIGHT', 'positionCoords': [998.4, 335], 'bid': 4.39}]",41186.80000001192,1669837004165,blackbeanswithrice,cocktailshrimp,1.82,4.39,2.5699999999999994,cocktailshrimp,1202.8999999761581,1203,1203.199999988079,True,i,42898.19999998808,1711.3999999761581,1669837005877,1712,HRV,HRV_0255,2022-11-30 19:40:52
14,"[{'imgObject': {}, 'id': 'hashbrowns', 'src': '/static/foodstim60/hashbrowns.jpg', 'key': 'u', 'origWidth': 411, 'origHeight': 410, 'width': 411, 'height': 410, 'widthPercent': 0.45, 'rescaleHeight': False, 'trialN': 14, 'loaded': True, 'loadedTime': 21812.900000035763, 'positionName': 'LEFT', 'positionCoords': [510.6, 335], 'bid': 3.85}, {'imgObject': {}, 'id': 'chickenfingers', 'src': '/static/foodstim60/chickenfingers.jpg', 'key': 'i', 'origWidth': 410, 'origHeight': 410, 'width': 410, 'height': 410, 'widthPercent': 0.45, 'rescaleHeight': False, 'trialN': 14, 'loaded': True, 'loadedTime': 21681.600000023842, 'positionName': 'RIGHT', 'positionCoords': [998.4, 335], 'bid': 8.14}]",42898.40000003576,1669837005877,hashbrowns,chickenfingers,3.85,8.14,4.290000000000001,chickenfingers,690.8999999761581,691,691.2999999523163,True,i,44106.19999998808,1207.7999999523163,1669837007085,1208,HRV,HRV_0255,2022-11-30 19:40:52
15,"[{'imgObject': {}, 'id': 'lox', 'src': '/static/foodstim60/lox.jpg', 'key': 'u', 'origWidth': 410, 'origHeight': 411, 'width': 410, 'height': 411, 'widthPercent': 0.45, 'rescaleHeight': False, 'trialN': 15, 'loaded': True, 'loadedTime': 21709.5, 'positionName': 'LEFT', 'positionCoords': [511.6, 334.5], 'bid': 5.0200000000000005}, {'imgObject': {}, 'id': 'seaweed', 'src': '/static/foodstim60/seaweed.jpg', 'key': 'i', 'origWidth': 410, 'origHeight': 410, 'width': 410, 'height': 410, 'widthPercent': 0.45, 'rescaleHeight': False, 'trialN': 15, 'loaded': True, 'loadedTime': 21828.19999998808, 'positionName': 'RIGHT', 'positionCoords': [998.4, 335], 'bid': 0.66}]",44106.5,1669837007085,lox,seaweed,5.0200000000000005,0.66,-4.36,lox,802.8000000119209,803,803.1000000238419,True,u,45426.0,1319.5,1669837008404,1319,HRV,HRV_0255,2022-11-30 19:40:52
16,"[{'imgObject': {}, 'id': 'shreddedwheatwithmilk', 'src': '/static/foodstim60/shreddedwheatwithmilk.jpg', 'key': 'u', 'origWidth': 410, 'origHeight': 410, 'width': 410, 'height': 410, 'widthPercent': 0.45, 'rescaleHeight': False, 'trialN': 16, 'loaded': True, 'loadedTime': 21843.900000035763, 'positionName': 'LEFT', 'positionCoords': [511.6, 335], 'bid': 1.76}, {'imgObject': {}, 'id': 'banana', 'src': '/static/foodstim60/banana.jpg', 'key': 'i', 'origWidth': 410, 'origHeight': 410, 'width': 410, 'height': 410, 'widthPercent': 0.45, 'rescaleHeight': False, 'trialN': 16, 'loaded': True, 'loadedTime': 21890.600000023842, 'positionName': 'RIGHT', 'positionCoords': [998.4, 335], 'bid': 1.83}]",45426.19999998808,1669837008404,shreddedwheatwithmilk,banana,1.76,1.83,0.07000000000000006,banana,1051.1000000238419,1052,1051.4000000357628,True,i,46984.30000001192,1558.1000000238419,1669837009963,1559,HRV,HRV_0255,2022-11-30 19:40:52
17,"[{'imgObject': {}, 'id': 'corn cob', 'src': '/static/foodstim60/corn cob.jpg', 'key': 'u', 'origWidth': 411, 'origHeight': 411, 'width': 411, 'height': 411, 'widthPercent': 0.45, 'rescaleHeight': False, 'trialN': 17, 'loaded': True, 'loadedTime': 21892.19999998808, 'positionName': 'LEFT', 'positionCoords': [510.6, 334.5], 'bid': 0.26}, {'imgObject': {}, 'id': 'seaweed', 'src': '/static/foodstim60/seaweed.jpg', 'key': 'i', 'origWidth': 410, 'origHeight': 410, 'width': 410, 'height': 410, 'widthPercent': 0.45, 'rescaleHeight': False, 'trialN': 17, 'loaded': True, 'loadedTime': 21828.400000035763, 'positionName': 'RIGHT', 'positionCoords': [998.4, 335], 'bid': 0.66}]",46984.60000002384,1669837009963,corn cob,seaweed,0.26,0.66,0.4,seaweed,1356.699999988079,1357,1357.0999999642372,True,i,48850.0,1865.3999999761581,1669837011828,1865,HRV,HRV_0255,2022-11-30 19:40:52
18,"[{'imgObject': {}, 'id': 'salad w chicken', 'src': '/static/foodstim60/salad w chicken.jpg', 'key': 'u', 'origWidth': 411, 'origHeight': 411, 'width': 411, 'height': 411, 'widthPercent': 0.45, 'rescaleHeight': False, 'trialN': 18, 'loaded': True, 'loadedTime': 21905.30000001192, 'positionName': 'LEFT', 'positionCoords': [510.6, 334.5], 'bid': 5.01}, {'imgObject': {}, 'id': 'corn cob', 'src': '/static/foodstim60/corn cob.jpg', 'key': 'i', 'origWidth': 411, 'origHeight': 411, 'width': 411, 'height': 411, 'widthPercent': 0.45, 'rescaleHeight': False, 'trialN': 18, 'loaded': True, 'loadedTime': 21892.5, 'positionName': 'RIGHT', 'positionCoords': [998.4, 334.5], 'bid': 0.26}]",48850.30000001192,1669837011829,salad w chicken,corn cob,5.01,0.26,-4.75,salad w chicken,771.0,771,771.3000000119209,True,u,50123.80000001192,1273.5,1669837013102,1273,HRV,HRV_0255,2022-11-30 19:40:52
19,"[{'imgObject': {}, 'id': 'roastedpotatoes', 'src': '/static/foodstim60/roastedpotatoes.jpg', 'key': 'u', 'origWidth': 409, 'origHeight': 410, 'width': 409, 'height': 410, 'widthPercent': 0.45, 'rescaleHeight': False, 'trialN': 19, 'loaded': True, 'loadedTime': 21921.5, 'positionName': 'LEFT', 'positionCoords': [512.6, 335], 'bid': 7.16}, {'imgObject': {}, 'id': 'Grapes', 'src': '/static/foodstim60/Grapes.jpg', 'key': 'i', 'origWidth': 411, 'origHeight': 411, 'width': 411, 'height': 411, 'widthPercent': 0.45, 'rescaleHeight': False, 'trialN': 19, 'loaded': True, 'loadedTime': 21675.80000001192, 'positionName': 'RIGHT', 'positionCoords': [998.4, 334.5], 'bid': 4.57}]",50124.0,1669837013102,roastedpotatoes,Grapes,7.16,4.57,-2.59,roastedpotatoes,1017.3000000119209,1018,1017.6000000238419,True,u,51657.10000002384,1533.1000000238419,1669837014635,1533,HRV,HRV_0255,2022-11-30 19:40:52
20,"[{'imgObject': {}, 'id': 'roastedpotatoes', 'src': '/static/foodstim60/roastedpotatoes.jpg', 'key': 'u', 'origWidth': 409, 'origHeight': 410, 'width': 409, 'height': 410, 'widthPercent': 0.45, 'rescaleHeight': False, 'trialN': 20, 'loaded': True, 'loadedTime': 21920.19999998808, 'positionName': 'LEFT', 'positionCoords': [512.6, 335], 'bid': 7.16}, {'imgObject': {}, 'id': 'mango', 'src': '/static/foodstim60/mango.jpg', 'key': 'i', 'origWidth': 411, 'origHeight': 411, 'width': 411, 'height': 411, 'widthPercent': 0.45, 'rescaleHeight': False, 'trialN': 20, 'loaded': True, 'loadedTime': 21724.5, 'positionName': 'RIGHT', 'positionCoords': [998.4, 334.5], 'bid': 2.02}]",51657.40000003576,1669837014636,roastedpotatoes,mango,7.16,2.02,-5.140000000000001,roastedpotatoes,731.7999999523163,732,732.0999999642372,True,u,52904.90000003576,1247.5,1669837015883,1247,HRV,HRV_0255,2022-11-30 19:40:52
21,"[{'imgObject': {}, 'id': 'steak', 'src': '/static/foodstim60/steak.jpg', 'key': 'u', 'origWidth': 410, 'origHeight': 410, 'width': 410, 'height': 410, 'widthPercent': 0.45, 'rescaleHeight': False, 'trialN': 21, 'loaded': True, 'loadedTime': 21668.100000023842, 'positionName': 'LEFT', 'positionCoords': [511.6, 335], 'bid': 1.58}, {'imgObject': {}, 'id': 'corn cob', 'src': '/static/foodstim60/corn cob.jpg', 'key': 'i', 'origWidth': 411, 'origHeight': 411, 'width': 411, 'height': 411, 'widthPercent': 0.45, 'rescaleHeight': False, 'trialN': 21, 'loaded': True, 'loadedTime': 21890.80000001192, 'positionName': 'RIGHT', 'positionCoords': [998.4, 334.5], 'bid': 0.26}]",52905.0,1669837015883,steak,corn cob,1.58,0.26,-1.32,steak,1652.6000000238419,1653,1652.9000000357628,True,u,55073.80000001192,2168.800000011921,1669837018052,2169,HRV,HRV_0255,2022-11-30 19:40:52
22,"[{'imgObject': {}, 'id': 'burrito', 'src': '/static/foodstim60/burrito.jpg', 'key': 'u', 'origWidth': 410, 'origHeight': 410, 'width': 410, 'height': 410, 'widthPercent': 0.45, 'rescaleHeight': False, 'trialN': 22, 'loaded': True, 'loadedTime': 21924.600000023842, 'positionName': 'LEFT', 'positionCoords': [511.6, 335], 'bid': 4.17}, {'imgObject': {}, 'id': 'hotdog w must', 'src': '/static/foodstim60/hotdog w must.jpg', 'key': 'i', 'origWidth': 409, 'origHeight': 409, 'width': 409, 'height': 409, 'widthPercent': 0.45, 'rescaleHeight': False, 'trialN': 22, 'loaded': True, 'loadedTime': 21703.5, 'positionName': 'RIGHT', 'positionCoords': [998.4, 335.5], 'bid': 4.96}]",55074.10000002384,1669837018052,burrito,hotdog w must,4.17,4.96,0.79,hotdog w must,1147.199999988079,1148,1147.5999999642372,True,i,56725.90000003576,1651.800000011921,1669837019704,1652,HRV,HRV_0255,2022-11-30 19:40:52
23,"[{'imgObject': {}, 'id': 'chicken nuggets2', 'src': '/static/foodstim60/chicken nuggets2.jpg', 'key': 'u', 'origWidth': 410, 'origHeight': 409, 'width': 410, 'height': 409, 'widthPercent': 0.45, 'rescaleHeight': False, 'trialN': 23, 'loaded': True, 'loadedTime': 21674.400000035763, 'positionName': 'LEFT', 'positionCoords': [511.6, 335.5], 'bid': 3.41}, {'imgObject': {}, 'id': 'steak', 'src': '/static/foodstim60/steak.jpg', 'key': 'i', 'origWidth': 410, 'origHeight': 410, 'width': 410, 'height': 410, 'widthPercent': 0.45, 'rescaleHeight': False, 'trialN': 23, 'loaded': True, 'loadedTime': 21667, 'positionName': 'RIGHT', 'positionCoords': [998.4, 335], 'bid': 1.58}]",56726.0,1669837019704,chicken nuggets2,steak,3.41,1.58,-1.83,chicken nuggets2,935.3000000119209,936,935.6999999880791,True,u,58165.10000002384,1439.1000000238419,1669837021143,1439,HRV,HRV_0255,2022-11-30 19:40:52
24,"[{'imgObject': {}, 'id': 'cheerios', 'src': '/static/foodstim60/cheerios.jpg', 'key': 'u', 'origWidth': 409, 'origHeight': 410, 'width': 409, 'height': 410, 'widthPercent': 0.45, 'rescaleHeight': False, 'trialN': 24, 'loaded': True, 'loadedTime': 21940.5, 'positionName': 'LEFT', 'positionCoords': [512.6, 335], 'bid': 2.52}, {'imgObject': {}, 'id': 'edamame', 'src': '/static/foodstim60/edamame.jpg', 'key': 'i', 'origWidth': 409, 'origHeight': 410, 'width': 409, 'height': 410, 'widthPercent': 0.45, 'rescaleHeight': False, 'trialN': 24, 'loaded': True, 'loadedTime': 21665.600000023842, 'positionName': 'RIGHT', 'positionCoords': [998.4, 335], 'bid': 7.51}]",58165.40000003576,1669837021144,cheerios,edamame,2.52,7.51,4.99,edamame,743.7999999523163,744,744.1999999880791,True,i,59419.19999998808,1253.7999999523163,1669837022398,1254,HRV,HRV_0255,2022-11-30 19:40:52
25,"[{'imgObject': {}, 'id': 'bagel and cc', 'src': '/static/foodstim60/bagel and cc.jpg', 'key': 'u', 'origWidth': 410, 'origHeight': 410, 'width': 410, 'height': 410, 'widthPercent': 0.45, 'rescaleHeight': False, 'trialN': 25, 'loaded': True, 'loadedTime': 21942.19999998808, 'positionName': 'LEFT', 'positionCoords': [511.6, 335], 'bid': 8.19}, {'imgObject': {}, 'id': 'turkeysandwich', 'src': '/static/foodstim60/turkeysandwich.jpg', 'key': 'i', 'origWidth': 409, 'origHeight': 409, 'width': 409, 'height': 409, 'widthPercent': 0.45, 'rescaleHeight': False, 'trialN': 25, 'loaded': True, 'loadedTime': 21748.100000023842, 'positionName': 'RIGHT', 'positionCoords': [998.4, 335.5], 'bid': 7.26}]",59419.5,1669837022398,bagel and cc,turkeysandwich,8.19,7.26,-0.9299999999999997,bagel and cc,673.6999999880791,674,674.1999999880791,True,u,60602.19999998808,1182.699999988079,1669837023581,1183,HRV,HRV_0255,2022-11-30 19:40:52
26,"[{'imgObject': {}, 'id': 'seaweed', 'src': '/static/foodstim60/seaweed.jpg', 'key': 'u', 'origWidth': 410, 'origHeight': 410, 'width': 410, 'height': 410, 'widthPercent': 0.45, 'rescaleHeight': False, 'trialN': 26, 'loaded': True, 'loadedTime': 21828.600000023842, 'positionName': 'LEFT', 'positionCoords': [511.6, 335], 'bid': 0.66}, {'imgObject': {}, 'id': 'sweetpotato', 'src': '/static/foodstim60/sweetpotato.jpg', 'key': 'i', 'origWidth': 410, 'origHeight': 410, 'width': 410, 'height': 410, 'widthPercent': 0.45, 'rescaleHeight': False, 'trialN': 26, 'loaded': True, 'loadedTime': 21950.19999998808, 'positionName': 'RIGHT', 'positionCoords': [998.4, 335], 'bid': 1.29}]",60602.40000003576,1669837023581,seaweed,sweetpotato,0.66,1.29,0.63,sweetpotato,850.6999999880791,851,851.0999999642372,True,i,61956.80000001192,1354.3999999761581,1669837024935,1354,HRV,HRV_0255,2022-11-30 19:40:52
27,"[{'imgObject': {}, 'id': 'apple slices', 'src': '/static/foodstim60/apple slices.jpg', 'key': 'u', 'origWidth': 409, 'origHeight': 410, 'width': 409, 'height': 410, 'widthPercent': 0.45, 'rescaleHeight': False, 'trialN': 27, 'loaded': True, 'loadedTime': 21953.69999998808, 'positionName': 'LEFT', 'positionCoords': [512.6, 335], 'bid': 3.1}, {'imgObject': {}, 'id': 'salad w chicken', 'src': '/static/foodstim60/salad w chicken.jpg', 'key': 'i', 'origWidth': 411, 'origHeight': 411, 'width': 411, 'height': 411, 'widthPercent': 0.45, 'rescaleHeight': False, 'trialN': 27, 'loaded': True, 'loadedTime': 21906.5, 'positionName': 'RIGHT', 'positionCoords': [998.4, 334.5], 'bid': 5.01}]",61956.90000003576,1669837024935,apple slices,salad w chicken,3.1,5.01,1.9099999999999997,salad w chicken,1040.5,1041,1040.8999999761581,True,i,63510.19999998808,1553.2999999523163,1669837026489,1554,HRV,HRV_0255,2022-11-30 19:40:52
28,"[{'imgObject': {}, 'id': 'blackbeanswithrice', 'src': '/static/foodstim60/blackbeanswithrice.jpg', 'key': 'u', 'origWidth': 410, 'origHeight': 410, 'width': 410, 'height': 410, 'widthPercent': 0.45, 'rescaleHeight': False, 'trialN': 28, 'loaded': True, 'loadedTime': 21770.900000035763, 'positionName': 'LEFT', 'positionCoords': [511.6, 335], 'bid': 1.82}, {'imgObject': {}, 'id': 'raisin bran w milk', 'src': '/static/foodstim60/raisin bran w milk.jpg', 'key': 'i', 'origWidth': 411, 'origHeight': 411, 'width': 411, 'height': 411, 'widthPercent': 0.45, 'rescaleHeight': False, 'trialN': 28, 'loaded': True, 'loadedTime': 21957.400000035763, 'positionName': 'RIGHT', 'positionCoords': [998.4, 334.5], 'bid': 2.01}]",63510.5,1669837026489,blackbeanswithrice,raisin bran w milk,1.82,2.01,0.18999999999999972,raisin bran w milk,806.8000000119209,807,807.1000000238419,True,i,64828.80000001192,1318.300000011921,1669837027807,1318,HRV,HRV_0255,2022-11-30 19:40:52
29,"[{'imgObject': {}, 'id': 'edamame', 'src': '/static/foodstim60/edamame.jpg', 'key': 'u', 'origWidth': 409, 'origHeight': 410, 'width': 409, 'height': 410, 'widthPercent': 0.45, 'rescaleHeight': False, 'trialN': 29, 'loaded': True, 'loadedTime': 21662.69999998808, 'positionName': 'LEFT', 'positionCoords': [512.6, 335], 'bid': 7.51}, {'imgObject': {}, 'id': 'chickenfingers', 'src': '/static/foodstim60/chickenfingers.jpg', 'key': 'i', 'origWidth': 410, 'origHeight': 410, 'width': 410, 'height': 410, 'widthPercent': 0.45, 'rescaleHeight': False, 'trialN': 29, 'loaded': True, 'loadedTime': 21680.80000001192, 'positionName': 'RIGHT', 'positionCoords': [998.4, 335], 'bid': 8.14}]",64829.0,1669837027807,edamame,chickenfingers,7.51,8.14,0.6300000000000008,edamame,672.1999999880791,673,672.5,True,u,66009.0,1180.0,1669837028987,1180,HRV,HRV_0255,2022-11-30 19:40:52
30,"[{'imgObject': {}, 'id': 'omelette', 'src': '/static/foodstim60/omelette.jpg', 'key': 'u', 'origWidth': 410, 'origHeight': 409, 'width': 410, 'height': 409, 'widthPercent': 0.45, 'rescaleHeight': False, 'trialN': 30, 'loaded': True, 'loadedTime': 21960.600000023842, 'positionName': 'LEFT', 'positionCoords': [511.6, 335.5], 'bid': 1.71}, {'imgObject': {}, 'id': 'fried eggs', 'src': '/static/foodstim60/fried eggs.jpg', 'key': 'i', 'origWidth': 410, 'origHeight': 410, 'width': 410, 'height': 410, 'widthPercent': 0.45, 'rescaleHeight': False, 'trialN': 30, 'loaded': True, 'loadedTime': 21964.600000023842, 'positionName': 'RIGHT', 'positionCoords': [998.4, 335], 'bid': 0}]",66009.10000002384,1669837028987,omelette,fried eggs,1.71,0.0,-1.71,omelette,1171.8999999761581,1173,1172.0999999642372,True,u,67692.80000001192,1683.699999988079,1669837030671,1684,HRV,HRV_0255,2022-11-30 19:40:52
31,"[{'imgObject': {}, 'id': 'ice cream sundae 002', 'src': '/static/foodstim60/ice cream sundae 002.jpg', 'key': 'u', 'origWidth': 409, 'origHeight': 409, 'width': 409, 'height': 409, 'widthPercent': 0.45, 'rescaleHeight': False, 'trialN': 31, 'loaded': True, 'loadedTime': 21966.400000035763, 'positionName': 'LEFT', 'positionCoords': [512.6, 335.5], 'bid': 7.88}, {'imgObject': {}, 'id': 'mac & cheese', 'src': '/static/foodstim60/mac & cheese.jpg', 'key': 'i', 'origWidth': 410, 'origHeight': 410, 'width': 410, 'height': 410, 'widthPercent': 0.45, 'rescaleHeight': False, 'trialN': 31, 'loaded': True, 'loadedTime': 21982.80000001192, 'positionName': 'RIGHT', 'positionCoords': [998.4, 335], 'bid': 6.55}]",67693.0,1669837030671,ice cream sundae 002,mac & cheese,7.88,6.55,-1.33,ice cream sundae 002,1184.300000011921,1185,1184.699999988079,True,u,69387.40000003576,1694.4000000357628,1669837032366,1695,HRV,HRV_0255,2022-11-30 19:40:52
32,"[{'imgObject': {}, 'id': 'baked potato', 'src': '/static/foodstim60/baked potato.jpg', 'key': 'u', 'origWidth': 409, 'origHeight': 410, 'width': 409, 'height': 410, 'widthPercent': 0.45, 'rescaleHeight': False, 'trialN': 32, 'loaded': True, 'loadedTime': 21996.5, 'positionName': 'LEFT', 'positionCoords': [512.6, 335], 'bid': 2.51}, {'imgObject': {}, 'id': 'raspberries', 'src': '/static/foodstim60/raspberries.jpg', 'key': 'i', 'origWidth': 411, 'origHeight': 411, 'width': 411, 'height': 411, 'widthPercent': 0.45, 'rescaleHeight': False, 'trialN': 32, 'loaded': True, 'loadedTime': 22014.69999998808, 'positionName': 'RIGHT', 'positionCoords': [998.4, 334.5], 'bid': 7.51}]",69387.69999998808,1669837032366,baked potato,raspberries,2.51,7.51,5.0,raspberries,1049.5,1050,1049.9000000357628,True,i,70944.90000003576,1557.2000000476837,1669837033923,1557,HRV,HRV_0255,2022-11-30 19:40:52
33,"[{'imgObject': {}, 'id': 'corn cob', 'src': '/static/foodstim60/corn cob.jpg', 'key': 'u', 'origWidth': 411, 'origHeight': 411, 'width': 411, 'height': 411, 'widthPercent': 0.45, 'rescaleHeight': False, 'trialN': 33, 'loaded': True, 'loadedTime': 21892.69999998808, 'positionName': 'LEFT', 'positionCoords': [510.6, 334.5], 'bid': 0.26}, {'imgObject': {}, 'id': 'avocado', 'src': '/static/foodstim60/avocado.jpg', 'key': 'i', 'origWidth': 409, 'origHeight': 409, 'width': 409, 'height': 409, 'widthPercent': 0.45, 'rescaleHeight': False, 'trialN': 33, 'loaded': True, 'loadedTime': 22016.80000001192, 'positionName': 'RIGHT', 'positionCoords': [998.4, 335.5], 'bid': 1.05}]",70945.10000002384,1669837033923,corn cob,avocado,0.26,1.05,0.79,corn cob,988.0999999642372,989,988.3999999761581,True,u,72437.69999998808,1492.5999999642372,1669837035416,1493,HRV,HRV_0255,2022-11-30 19:40:52
34,"[{'imgObject': {}, 'id': 'roastedpotatoes', 'src': '/static/foodstim60/roastedpotatoes.jpg', 'key': 'u', 'origWidth': 409, 'origHeight': 410, 'width': 409, 'height': 410, 'widthPercent': 0.45, 'rescaleHeight': False, 'trialN': 34, 'loaded': True, 'loadedTime': 21921.30000001192, 'positionName': 'LEFT', 'positionCoords': [512.6, 335], 'bid': 7.16}, {'imgObject': {}, 'id': 'chickenfingers', 'src': '/static/foodstim60/chickenfingers.jpg', 'key': 'i', 'origWidth': 410, 'origHeight': 410, 'width': 410, 'height': 410, 'widthPercent': 0.45, 'rescaleHeight': False, 'trialN': 34, 'loaded': True, 'loadedTime': 21681.80000001192, 'positionName': 'RIGHT', 'positionCoords': [998.4, 335], 'bid': 8.14}]",72437.90000003576,1669837035416,roastedpotatoes,chickenfingers,7.16,8.14,0.9800000000000004,chickenfingers,935.3999999761581,936,935.7999999523163,True,i,73888.0,1450.0999999642372,1669837036866,1450,HRV,HRV_0255,2022-11-30 19:40:52
35,"[{'imgObject': {}, 'id': 'omelette', 'src': '/static/foodstim60/omelette.jpg', 'key': 'u', 'origWidth': 410, 'origHeight': 409, 'width': 410, 'height': 409, 'widthPercent': 0.45, 'rescaleHeight': False, 'trialN': 35, 'loaded': True, 'loadedTime': 21960.5, 'positionName': 'LEFT', 'positionCoords': [511.6, 335.5], 'bid': 1.71}, {'imgObject': {}, 'id': 'steak', 'src': '/static/foodstim60/steak.jpg', 'key': 'i', 'origWidth': 410, 'origHeight': 410, 'width': 410, 'height': 410, 'widthPercent': 0.45, 'rescaleHeight': False, 'trialN': 35, 'loaded': True, 'loadedTime': 21667.5, 'positionName': 'RIGHT', 'positionCoords': [998.4, 335], 'bid': 1.58}]",73888.19999998808,1669837036867,omelette,steak,1.71,1.58,-0.1299999999999999,omelette,781.1000000238419,781,781.4000000357628,True,u,75183.90000003576,1295.7000000476837,1669837038162,1295,HRV,HRV_0255,2022-11-30 19:40:52
36,"[{'imgObject': {}, 'id': 'rigatoni and sauce', 'src': '/static/foodstim60/rigatoni and sauce.jpg', 'key': 'u', 'origWidth': 410, 'origHeight': 411, 'width': 410, 'height': 411, 'widthPercent': 0.45, 'rescaleHeight': False, 'trialN': 36, 'loaded': True, 'loadedTime': 22017.900000035763, 'positionName': 'LEFT', 'positionCoords': [511.6, 334.5], 'bid': 2.31}, {'imgObject': {}, 'id': 'kiwi', 'src': '/static/foodstim60/kiwi.jpg', 'key': 'i', 'origWidth': 410, 'origHeight': 410, 'width': 410, 'height': 410, 'widthPercent': 0.45, 'rescaleHeight': False, 'trialN': 36, 'loaded': True, 'loadedTime': 21662.100000023842, 'positionName': 'RIGHT', 'positionCoords': [998.4, 335], 'bid': 7.48}]",75184.10000002384,1669837038162,rigatoni and sauce,kiwi,2.31,7.48,5.17,kiwi,941.5,942,941.8999999761581,True,i,76632.80000001192,1448.699999988079,1669837039611,1449,HRV,HRV_0255,2022-11-30 19:40:52
37,"[{'imgObject': {}, 'id': 'mango', 'src': '/static/foodstim60/mango.jpg', 'key': 'u', 'origWidth': 411, 'origHeight': 411, 'width': 411, 'height': 411, 'widthPercent': 0.45, 'rescaleHeight': False, 'trialN': 37, 'loaded': True, 'loadedTime': 21718.30000001192, 'positionName': 'LEFT', 'positionCoords': [510.6, 334.5], 'bid': 2.02}, {'imgObject': {}, 'id': 'avocado', 'src': '/static/foodstim60/avocado.jpg', 'key': 'i', 'origWidth': 409, 'origHeight': 409, 'width': 409, 'height': 409, 'widthPercent': 0.45, 'rescaleHeight': False, 'trialN': 37, 'loaded': True, 'loadedTime': 22015.900000035763, 'positionName': 'RIGHT', 'positionCoords': [998.4, 335.5], 'bid': 1.05}]",76632.90000003576,1669837039611,mango,avocado,2.02,1.05,-0.97,mango,908.2999999523163,909,908.6999999880791,True,u,78050.80000001192,1417.8999999761581,1669837041029,1418,HRV,HRV_0255,2022-11-30 19:40:52
38,"[{'imgObject': {}, 'id': 'hotdog w must', 'src': '/static/foodstim60/hotdog w must.jpg', 'key': 'u', 'origWidth': 409, 'origHeight': 409, 'width': 409, 'height': 409, 'widthPercent': 0.45, 'rescaleHeight': False, 'trialN': 38, 'loaded': True, 'loadedTime': 21706.400000035763, 'positionName': 'LEFT', 'positionCoords': [512.6, 335.5], 'bid': 4.96}, {'imgObject': {}, 'id': 'bagel plain', 'src': '/static/foodstim60/bagel plain.jpg', 'key': 'i', 'origWidth': 410, 'origHeight': 410, 'width': 410, 'height': 410, 'widthPercent': 0.45, 'rescaleHeight': False, 'trialN': 38, 'loaded': True, 'loadedTime': 22019.5, 'positionName': 'RIGHT', 'positionCoords': [998.4, 335], 'bid': 4.93}]",78051.0,1669837041029,hotdog w must,bagel plain,4.96,4.93,-0.03000000000000025,hotdog w must,578.3000000119209,579,578.6999999880791,True,u,79142.69999998808,1091.699999988079,1669837042121,1092,HRV,HRV_0255,2022-11-30 19:40:52
39,"[{'imgObject': {}, 'id': 'salmon', 'src': '/static/foodstim60/salmon.jpg', 'key': 'u', 'origWidth': 410, 'origHeight': 409, 'width': 410, 'height': 409, 'widthPercent': 0.45, 'rescaleHeight': False, 'trialN': 39, 'loaded': True, 'loadedTime': 22020.30000001192, 'positionName': 'LEFT', 'positionCoords': [511.6, 335.5], 'bid': 3.09}, {'imgObject': {}, 'id': 'cantaloupe', 'src': '/static/foodstim60/cantaloupe.jpg', 'key': 'i', 'origWidth': 409, 'origHeight': 409, 'width': 409, 'height': 409, 'widthPercent': 0.45, 'rescaleHeight': False, 'trialN': 39, 'loaded': True, 'loadedTime': 21670.80000001192, 'positionName': 'RIGHT', 'positionCoords': [998.4, 335.5], 'bid': 1.41}]",79142.90000003576,1669837042121,salmon,cantaloupe,3.09,1.41,-1.68,cantaloupe,934.5,935,934.8999999761581,True,i,80589.69999998808,1446.7999999523163,1669837043568,1447,HRV,HRV_0255,2022-11-30 19:40:52
40,"[{'imgObject': {}, 'id': 'rigatoni and sauce', 'src': '/static/foodstim60/rigatoni and sauce.jpg', 'key': 'u', 'origWidth': 410, 'origHeight': 411, 'width': 410, 'height': 411, 'widthPercent': 0.45, 'rescaleHeight': False, 'trialN': 40, 'loaded': True, 'loadedTime': 22018.30000001192, 'positionName': 'LEFT', 'positionCoords': [511.6, 334.5], 'bid': 2.31}, {'imgObject': {}, 'id': 'mango', 'src': '/static/foodstim60/mango.jpg', 'key': 'i', 'origWidth': 411, 'origHeight': 411, 'width': 411, 'height': 411, 'widthPercent': 0.45, 'rescaleHeight': False, 'trialN': 40, 'loaded': True, 'loadedTime': 21727.5, 'positionName': 'RIGHT', 'positionCoords': [998.4, 334.5], 'bid': 2.02}]",80589.90000003576,1669837043568,rigatoni and sauce,mango,2.31,2.02,-0.29000000000000004,mango,847.3999999761581,848,847.6999999880791,True,i,81943.90000003576,1354.0,1669837044922,1354,HRV,HRV_0255,2022-11-30 19:40:52
41,"[{'imgObject': {}, 'id': 'turkeysandwich', 'src': '/static/foodstim60/turkeysandwich.jpg', 'key': 'u', 'origWidth': 409, 'origHeight': 409, 'width': 409, 'height': 409, 'widthPercent': 0.45, 'rescaleHeight': False, 'trialN': 41, 'loaded': True, 'loadedTime': 21748.900000035763, 'positionName': 'LEFT', 'positionCoords': [512.6, 335.5], 'bid': 7.26}, {'imgObject': {}, 'id': 'froot loops w milk', 'src': '/static/foodstim60/froot loops w milk.jpg', 'key': 'i', 'origWidth': 410, 'origHeight': 410, 'width': 410, 'height': 410, 'widthPercent': 0.45, 'rescaleHeight': False, 'trialN': 41, 'loaded': True, 'loadedTime': 21741.900000035763, 'positionName': 'RIGHT', 'positionCoords': [998.4, 335], 'bid': 2.17}]",81944.19999998808,1669837044922,turkeysandwich,froot loops w milk,7.26,2.17,-5.09,turkeysandwich,1452.9000000357628,1454,1453.4000000357628,True,u,83907.0,1962.800000011921,1669837046885,1963,HRV,HRV_0255,2022-11-30 19:40:52
42,"[{'imgObject': {}, 'id': 'cocktailshrimp', 'src': '/static/foodstim60/cocktailshrimp.jpg', 'key': 'u', 'origWidth': 410, 'origHeight': 410, 'width': 410, 'height': 410, 'widthPercent': 0.45, 'rescaleHeight': False, 'trialN': 42, 'loaded': True, 'loadedTime': 21772, 'positionName': 'LEFT', 'positionCoords': [511.6, 335], 'bid': 4.39}, {'imgObject': {}, 'id': 'sushi w_condiments', 'src': '/static/foodstim60/sushi w_condiments.jpg', 'key': 'i', 'origWidth': 410, 'origHeight': 410, 'width': 410, 'height': 410, 'widthPercent': 0.45, 'rescaleHeight': False, 'trialN': 42, 'loaded': True, 'loadedTime': 22025.5, 'positionName': 'RIGHT', 'positionCoords': [998.4, 335], 'bid': 8.56}]",83907.10000002384,1669837046885,cocktailshrimp,sushi w_condiments,4.39,8.56,4.170000000000001,sushi w_condiments,842.0999999642372,843,842.5,True,i,85255.80000001192,1348.699999988079,1669837048234,1349,HRV,HRV_0255,2022-11-30 19:40:52
43,"[{'imgObject': {}, 'id': 'hashbrowns', 'src': '/static/foodstim60/hashbrowns.jpg', 'key': 'u', 'origWidth': 411, 'origHeight': 410, 'width': 411, 'height': 410, 'widthPercent': 0.45, 'rescaleHeight': False, 'trialN': 43, 'loaded': True, 'loadedTime': 21799.600000023842, 'positionName': 'LEFT', 'positionCoords': [510.6, 335], 'bid': 3.85}, {'imgObject': {}, 'id': 'bagel plain', 'src': '/static/foodstim60/bagel plain.jpg', 'key': 'i', 'origWidth': 410, 'origHeight': 410, 'width': 410, 'height': 410, 'widthPercent': 0.45, 'rescaleHeight': False, 'trialN': 43, 'loaded': True, 'loadedTime': 22018.69999998808, 'positionName': 'RIGHT', 'positionCoords': [998.4, 335], 'bid': 4.93}]",85256.10000002384,1669837048234,hashbrowns,bagel plain,3.85,4.93,1.0799999999999996,hashbrowns,1293.300000011921,1294,1293.5999999642372,True,u,87062.40000003576,1806.300000011921,1669837050041,1807,HRV,HRV_0255,2022-11-30 19:40:52
44,"[{'imgObject': {}, 'id': 'kiwi', 'src': '/static/foodstim60/kiwi.jpg', 'key': 'u', 'origWidth': 410, 'origHeight': 410, 'width': 410, 'height': 410, 'widthPercent': 0.45, 'rescaleHeight': False, 'trialN': 44, 'loaded': True, 'loadedTime': 21661.80000001192, 'positionName': 'LEFT', 'positionCoords': [511.6, 335], 'bid': 7.48}, {'imgObject': {}, 'id': 'ice cream sundae 002', 'src': '/static/foodstim60/ice cream sundae 002.jpg', 'key': 'i', 'origWidth': 409, 'origHeight': 409, 'width': 409, 'height': 409, 'widthPercent': 0.45, 'rescaleHeight': False, 'trialN': 44, 'loaded': True, 'loadedTime': 21981.30000001192, 'positionName': 'RIGHT', 'positionCoords': [998.4, 335.5], 'bid': 7.88}]",87062.60000002384,1669837050041,kiwi,ice cream sundae 002,7.48,7.88,0.39999999999999947,ice cream sundae 002,2166.599999964237,2167,2167.0,True,i,89745.10000002384,2682.5,1669837052723,2682,HRV,HRV_0255,2022-11-30 19:40:52
45,"[{'imgObject': {}, 'id': 'cantaloupe', 'src': '/static/foodstim60/cantaloupe.jpg', 'key': 'u', 'origWidth': 409, 'origHeight': 409, 'width': 409, 'height': 409, 'widthPercent': 0.45, 'rescaleHeight': False, 'trialN': 45, 'loaded': True, 'loadedTime': 21671.100000023842, 'positionName': 'LEFT', 'positionCoords': [512.6, 335.5], 'bid': 1.41}, {'imgObject': {}, 'id': 'tacos', 'src': '/static/foodstim60/tacos.jpg', 'key': 'i', 'origWidth': 411, 'origHeight': 411, 'width': 411, 'height': 411, 'widthPercent': 0.45, 'rescaleHeight': False, 'trialN': 45, 'loaded': True, 'loadedTime': 22028.80000001192, 'positionName': 'RIGHT', 'positionCoords': [998.4, 334.5], 'bid': 5.71}]",89745.30000001192,1669837052724,cantaloupe,tacos,1.41,5.71,4.3,tacos,1523.6000000238419,1524,1524.300000011921,True,i,91781.19999998808,2035.8999999761581,1669837054759,2035,HRV,HRV_0255,2022-11-30 19:40:52
46,"[{'imgObject': {}, 'id': 'roastedpotatoes', 'src': '/static/foodstim60/roastedpotatoes.jpg', 'key': 'u', 'origWidth': 409, 'origHeight': 410, 'width': 409, 'height': 410, 'widthPercent': 0.45, 'rescaleHeight': False, 'trialN': 46, 'loaded': True, 'loadedTime': 21921, 'positionName': 'LEFT', 'positionCoords': [512.6, 335], 'bid': 7.16}, {'imgObject': {}, 'id': 'strawberries', 'src': '/static/foodstim60/strawberries.jpg', 'key': 'i', 'origWidth': 410, 'origHeight': 410, 'width': 410, 'height': 410, 'widthPercent': 0.45, 'rescaleHeight': False, 'trialN': 46, 'loaded': True, 'loadedTime': 21618.80000001192, 'positionName': 'RIGHT', 'positionCoords': [998.4, 335], 'bid': 5.79}]",91781.30000001192,1669837054760,roastedpotatoes,strawberries,7.16,5.79,-1.37,roastedpotatoes,728.0,728,728.3000000119209,True,u,93024.90000003576,1243.6000000238419,1669837056003,1243,HRV,HRV_0255,2022-11-30 19:40:52
47,"[{'imgObject': {}, 'id': 'hashbrowns', 'src': '/static/foodstim60/hashbrowns.jpg', 'key': 'u', 'origWidth': 411, 'origHeight': 410, 'width': 411, 'height': 410, 'widthPercent': 0.45, 'rescaleHeight': False, 'trialN': 47, 'loaded': True, 'loadedTime': 21813.100000023842, 'positionName': 'LEFT', 'positionCoords': [510.6, 335], 'bid': 3.85}, {'imgObject': {}, 'id': 'apple slices', 'src': '/static/foodstim60/apple slices.jpg', 'key': 'i', 'origWidth': 409, 'origHeight': 410, 'width': 409, 'height': 410, 'widthPercent': 0.45, 'rescaleHeight': False, 'trialN': 47, 'loaded': True, 'loadedTime': 21953.600000023842, 'positionName': 'RIGHT', 'positionCoords': [998.4, 335], 'bid': 3.1}]",93025.10000002384,1669837056003,hashbrowns,apple slices,3.85,3.1,-0.75,hashbrowns,820.1999999880791,821,820.5999999642372,True,u,94348.80000001192,1323.699999988079,1669837057327,1324,HRV,HRV_0255,2022-11-30 19:40:52
48,"[{'imgObject': {}, 'id': 'popsicles', 'src': '/static/foodstim60/popsicles.jpg', 'key': 'u', 'origWidth': 410, 'origHeight': 410, 'width': 410, 'height': 410, 'widthPercent': 0.45, 'rescaleHeight': False, 'trialN': 48, 'loaded': True, 'loadedTime': 22114.5, 'positionName': 'LEFT', 'positionCoords': [511.6, 335], 'bid': 6.28}, {'imgObject': {}, 'id': 'strawberries', 'src': '/static/foodstim60/strawberries.jpg', 'key': 'i', 'origWidth': 410, 'origHeight': 410, 'width': 410, 'height': 410, 'widthPercent': 0.45, 'rescaleHeight': False, 'trialN': 48, 'loaded': True, 'loadedTime': 21537.100000023842, 'positionName': 'RIGHT', 'positionCoords': [998.4, 335], 'bid': 5.79}]",94349.0,1669837057327,popsicles,strawberries,6.28,5.79,-0.4900000000000002,popsicles,848.3000000119209,849,848.6000000238419,True,u,95705.60000002384,1356.6000000238419,1669837058684,1357,HRV,HRV_0255,2022-11-30 19:40:52
49,"[{'imgObject': {}, 'id': 'blueberries', 'src': '/static/foodstim60/blueberries.jpg', 'key': 'u', 'origWidth': 411, 'origHeight': 411, 'width': 411, 'height': 411, 'widthPercent': 0.45, 'rescaleHeight': False, 'trialN': 49, 'loaded': True, 'loadedTime': 22031.69999998808, 'positionName': 'LEFT', 'positionCoords': [510.6, 334.5], 'bid': 7.69}, {'imgObject': {}, 'id': 'turkey sandwich', 'src': '/static/foodstim60/turkey sandwich.jpg', 'key': 'i', 'origWidth': 409, 'origHeight': 409, 'width': 409, 'height': 409, 'widthPercent': 0.45, 'rescaleHeight': False, 'trialN': 49, 'loaded': True, 'loadedTime': 21641.19999998808, 'positionName': 'RIGHT', 'positionCoords': [998.4, 335.5], 'bid': 8.05}]",95705.80000001192,1669837058684,blueberries,turkey sandwich,7.69,8.05,0.3600000000000003,turkey sandwich,867.6999999880791,868,868.1000000238419,True,i,97081.60000002384,1375.800000011921,1669837060060,1376,HRV,HRV_0255,2022-11-30 19:40:52
50,"[{'imgObject': {}, 'id': 'eggs', 'src': '/static/foodstim60/eggs.jpg', 'key': 'u', 'origWidth': 409, 'origHeight': 409, 'width': 409, 'height': 409, 'widthPercent': 0.45, 'rescaleHeight': False, 'trialN': 50, 'loaded': True, 'loadedTime': 22036.69999998808, 'positionName': 'LEFT', 'positionCoords': [512.6, 335.5], 'bid': 0}, {'imgObject': {}, 'id': 'avocado', 'src': '/static/foodstim60/avocado.jpg', 'key': 'i', 'origWidth': 409, 'origHeight': 409, 'width': 409, 'height': 409, 'widthPercent': 0.45, 'rescaleHeight': False, 'trialN': 50, 'loaded': True, 'loadedTime': 22015.100000023842, 'positionName': 'RIGHT', 'positionCoords': [998.4, 335.5], 'bid': 1.05}]",97081.90000003576,1669837060060,eggs,avocado,0.0,1.05,1.05,avocado,1307.199999988079,1308,1307.5999999642372,True,i,98902.0,1820.0999999642372,1669837061880,1820,HRV,HRV_0255,2022-11-30 19:40:52
51,"[{'imgObject': {}, 'id': 'grilled chicken strips', 'src': '/static/foodstim60/grilled chicken strips.jpg', 'key': 'u', 'origWidth': 410, 'origHeight': 411, 'width': 410, 'height': 411, 'widthPercent': 0.45, 'rescaleHeight': False, 'trialN': 51, 'loaded': True, 'loadedTime': 21712.5, 'positionName': 'LEFT', 'positionCoords': [511.6, 334.5], 'bid': 6.29}, {'imgObject': {}, 'id': 'pear', 'src': '/static/foodstim60/pear.jpg', 'key': 'i', 'origWidth': 411, 'origHeight': 410, 'width': 411, 'height': 410, 'widthPercent': 0.45, 'rescaleHeight': False, 'trialN': 51, 'loaded': True, 'loadedTime': 22055.80000001192, 'positionName': 'RIGHT', 'positionCoords': [998.4, 335], 'bid': 5.66}]",98902.19999998808,1669837061880,grilled chicken strips,pear,6.29,5.66,-0.6299999999999999,grilled chicken strips,911.2000000476837,912,911.5,True,u,100317.10000002384,1414.9000000357628,1669837063295,1415,HRV,HRV_0255,2022-11-30 19:40:52
52,"[{'imgObject': {}, 'id': 'rigatoni and sauce', 'src': '/static/foodstim60/rigatoni and sauce.jpg', 'key': 'u', 'origWidth': 410, 'origHeight': 411, 'width': 410, 'height': 411, 'widthPercent': 0.45, 'rescaleHeight': False, 'trialN': 52, 'loaded': True, 'loadedTime': 22018.5, 'positionName': 'LEFT', 'positionCoords': [511.6, 334.5], 'bid': 2.31}, {'imgObject': {}, 'id': 'cantaloupe', 'src': '/static/foodstim60/cantaloupe.jpg', 'key': 'i', 'origWidth': 409, 'origHeight': 409, 'width': 409, 'height': 409, 'widthPercent': 0.45, 'rescaleHeight': False, 'trialN': 52, 'loaded': True, 'loadedTime': 21672.100000023842, 'positionName': 'RIGHT', 'positionCoords': [998.4, 335.5], 'bid': 1.41}]",100317.30000001192,1669837063296,rigatoni and sauce,cantaloupe,2.31,1.41,-0.9000000000000001,cantaloupe,751.8999999761581,752,752.3000000119209,True,i,101580.80000001192,1263.5,1669837064559,1263,HRV,HRV_0255,2022-11-30 19:40:52
53,"[{'imgObject': {}, 'id': 'salmon', 'src': '/static/foodstim60/salmon.jpg', 'key': 'u', 'origWidth': 410, 'origHeight': 409, 'width': 410, 'height': 409, 'widthPercent': 0.45, 'rescaleHeight': False, 'trialN': 53, 'loaded': True, 'loadedTime': 22022, 'positionName': 'LEFT', 'positionCoords': [511.6, 335.5], 'bid': 3.09}, {'imgObject': {}, 'id': 'orange slices', 'src': '/static/foodstim60/orange slices.jpg', 'key': 'i', 'origWidth': 409, 'origHeight': 410, 'width': 409, 'height': 410, 'widthPercent': 0.45, 'rescaleHeight': False, 'trialN': 53, 'loaded': True, 'loadedTime': 22059.69999998808, 'positionName': 'RIGHT', 'positionCoords': [998.4, 335], 'bid': 2.72}]",101580.90000003576,1669837064559,salmon,orange slices,3.09,2.72,-0.36999999999999966,orange slices,1448.5999999642372,1449,1448.8999999761581,True,i,103543.90000003576,1963.0,1669837066522,1963,HRV,HRV_0255,2022-11-30 19:40:52
54,"[{'imgObject': {}, 'id': 'bagel plain', 'src': '/static/foodstim60/bagel plain.jpg', 'key': 'u', 'origWidth': 410, 'origHeight': 410, 'width': 410, 'height': 410, 'widthPercent': 0.45, 'rescaleHeight': False, 'trialN': 54, 'loaded': True, 'loadedTime': 22019.69999998808, 'positionName': 'LEFT', 'positionCoords': [511.6, 335], 'bid': 4.93}, {'imgObject': {}, 'id': 'orange slices', 'src': '/static/foodstim60/orange slices.jpg', 'key': 'i', 'origWidth': 409, 'origHeight': 410, 'width': 409, 'height': 410, 'widthPercent': 0.45, 'rescaleHeight': False, 'trialN': 54, 'loaded': True, 'loadedTime': 22057.900000035763, 'positionName': 'RIGHT', 'positionCoords': [998.4, 335], 'bid': 2.72}]",103544.19999998808,1669837066522,bagel plain,orange slices,4.93,2.72,-2.2099999999999995,bagel plain,725.1000000238419,726,725.4000000357628,True,u,104783.80000001192,1239.6000000238419,1669837067762,1240,HRV,HRV_0255,2022-11-30 19:40:52
55,"[{'imgObject': {}, 'id': 'orange slices', 'src': '/static/foodstim60/orange slices.jpg', 'key': 'u', 'origWidth': 409, 'origHeight': 410, 'width': 409, 'height': 410, 'widthPercent': 0.45, 'rescaleHeight': False, 'trialN': 55, 'loaded': True, 'loadedTime': 22060.19999998808, 'positionName': 'LEFT', 'positionCoords': [512.6, 335], 'bid': 2.72}, {'imgObject': {}, 'id': 'fruitsalad', 'src': '/static/foodstim60/fruitsalad.jpg', 'key': 'i', 'origWidth': 410, 'origHeight': 410, 'width': 410, 'height': 410, 'widthPercent': 0.45, 'rescaleHeight': False, 'trialN': 55, 'loaded': True, 'loadedTime': 22060.400000035763, 'positionName': 'RIGHT', 'positionCoords': [998.4, 335], 'bid': 7.56}]",104784.10000002384,1669837067762,orange slices,fruitsalad,2.72,7.56,4.84,fruitsalad,1485.0999999642372,1486,1485.3999999761581,True,i,106781.19999998808,1997.0999999642372,1669837069760,1998,HRV,HRV_0255,2022-11-30 19:40:52
56,"[{'imgObject': {}, 'id': 'grilled chicken strips', 'src': '/static/foodstim60/grilled chicken strips.jpg', 'key': 'u', 'origWidth': 410, 'origHeight': 411, 'width': 410, 'height': 411, 'widthPercent': 0.45, 'rescaleHeight': False, 'trialN': 56, 'loaded': True, 'loadedTime': 21714.400000035763, 'positionName': 'LEFT', 'positionCoords': [511.6, 334.5], 'bid': 6.29}, {'imgObject': {}, 'id': 'blackbeanswithrice', 'src': '/static/foodstim60/blackbeanswithrice.jpg', 'key': 'i', 'origWidth': 410, 'origHeight': 410, 'width': 410, 'height': 410, 'widthPercent': 0.45, 'rescaleHeight': False, 'trialN': 56, 'loaded': True, 'loadedTime': 21770.80000001192, 'positionName': 'RIGHT', 'positionCoords': [998.4, 335], 'bid': 1.82}]",106781.40000003576,1669837069760,grilled chicken strips,blackbeanswithrice,6.29,1.82,-4.47,grilled chicken strips,720.1999999880791,720,720.5,True,u,108011.60000002384,1230.199999988079,1669837070990,1230,HRV,HRV_0255,2022-11-30 19:40:52
57,"[{'imgObject': {}, 'id': 'shreddedwheatwithmilk', 'src': '/static/foodstim60/shreddedwheatwithmilk.jpg', 'key': 'u', 'origWidth': 410, 'origHeight': 410, 'width': 410, 'height': 410, 'widthPercent': 0.45, 'rescaleHeight': False, 'trialN': 57, 'loaded': True, 'loadedTime': 21844.100000023842, 'positionName': 'LEFT', 'positionCoords': [511.6, 335], 'bid': 1.76}, {'imgObject': {}, 'id': 'rigatoni and sauce', 'src': '/static/foodstim60/rigatoni and sauce.jpg', 'key': 'i', 'origWidth': 410, 'origHeight': 411, 'width': 410, 'height': 411, 'widthPercent': 0.45, 'rescaleHeight': False, 'trialN': 57, 'loaded': True, 'loadedTime': 22016.900000035763, 'positionName': 'RIGHT', 'positionCoords': [998.4, 334.5], 'bid': 2.31}]",108011.90000003576,1669837070990,shreddedwheatwithmilk,rigatoni and sauce,1.76,2.31,0.55,shreddedwheatwithmilk,945.2999999523163,946,945.6999999880791,True,u,109474.80000001192,1462.8999999761581,1669837072453,1463,HRV,HRV_0255,2022-11-30 19:40:52
58,"[{'imgObject': {}, 'id': 'steak', 'src': '/static/foodstim60/steak.jpg', 'key': 'u', 'origWidth': 410, 'origHeight': 410, 'width': 410, 'height': 410, 'widthPercent': 0.45, 'rescaleHeight': False, 'trialN': 58, 'loaded': True, 'loadedTime': 21668.100000023842, 'positionName': 'LEFT', 'positionCoords': [511.6, 335], 'bid': 1.58}, {'imgObject': {}, 'id': 'strawberries', 'src': '/static/foodstim60/strawberries.jpg', 'key': 'i', 'origWidth': 410, 'origHeight': 410, 'width': 410, 'height': 410, 'widthPercent': 0.45, 'rescaleHeight': False, 'trialN': 58, 'loaded': True, 'loadedTime': 21605.80000001192, 'positionName': 'RIGHT', 'positionCoords': [998.4, 335], 'bid': 5.79}]",109474.90000003576,1669837072453,steak,strawberries,1.58,5.79,4.21,steak,946.3999999761581,947,946.7999999523163,True,u,110933.80000001192,1458.8999999761581,1669837073912,1459,HRV,HRV_0255,2022-11-30 19:40:52
59,"[{'imgObject': {}, 'id': 'Tribe humus pita', 'src': '/static/foodstim60/Tribe humus pita.jpg', 'key': 'u', 'origWidth': 411, 'origHeight': 411, 'width': 411, 'height': 411, 'widthPercent': 0.45, 'rescaleHeight': False, 'trialN': 59, 'loaded': True, 'loadedTime': 22082.19999998808, 'positionName': 'LEFT', 'positionCoords': [510.6, 334.5], 'bid': 9.93}, {'imgObject': {}, 'id': 'sushi w_condiments', 'src': '/static/foodstim60/sushi w_condiments.jpg', 'key': 'i', 'origWidth': 410, 'origHeight': 410, 'width': 410, 'height': 410, 'widthPercent': 0.45, 'rescaleHeight': False, 'trialN': 59, 'loaded': True, 'loadedTime': 22026.30000001192, 'positionName': 'RIGHT', 'positionCoords': [998.4, 335], 'bid': 8.56}]",110934.10000002384,1669837073912,Tribe humus pita,sushi w_condiments,9.93,8.56,-1.3699999999999992,sushi w_condiments,623.1999999880791,624,623.5999999642372,True,i,112060.0,1125.8999999761581,1669837075038,1126,HRV,HRV_0255,2022-11-30 19:40:52
60,"[{'imgObject': {}, 'id': 'olives', 'src': '/static/foodstim60/olives.jpg', 'key': 'u', 'origWidth': 410, 'origHeight': 410, 'width': 410, 'height': 410, 'widthPercent': 0.45, 'rescaleHeight': False, 'trialN': 60, 'loaded': True, 'loadedTime': 21679.400000035763, 'positionName': 'LEFT', 'positionCoords': [511.6, 335], 'bid': 5.97}, {'imgObject': {}, 'id': 'grilled chicken strips', 'src': '/static/foodstim60/grilled chicken strips.jpg', 'key': 'i', 'origWidth': 410, 'origHeight': 411, 'width': 410, 'height': 411, 'widthPercent': 0.45, 'rescaleHeight': False, 'trialN': 60, 'loaded': True, 'loadedTime': 21712.400000035763, 'positionName': 'RIGHT', 'positionCoords': [998.4, 334.5], 'bid': 6.29}]",112060.10000002384,1669837075038,olives,grilled chicken strips,5.97,6.29,0.3200000000000003,grilled chicken strips,1337.199999988079,1338,1337.5,True,i,113912.10000002384,1852.0,1669837076890,1852,HRV,HRV_0255,2022-11-30 19:40:52
61,"[{'imgObject': {}, 'id': 'eggsalad', 'src': '/static/foodstim60/eggsalad.jpg', 'key': 'u', 'origWidth': 410, 'origHeight': 409, 'width': 410, 'height': 409, 'widthPercent': 0.45, 'rescaleHeight': False, 'trialN': 61, 'loaded': True, 'loadedTime': 21679, 'positionName': 'LEFT', 'positionCoords': [511.6, 335.5], 'bid': 0.07}, {'imgObject': {}, 'id': 'shreddedwheatwithmilk', 'src': '/static/foodstim60/shreddedwheatwithmilk.jpg', 'key': 'i', 'origWidth': 410, 'origHeight': 410, 'width': 410, 'height': 410, 'widthPercent': 0.45, 'rescaleHeight': False, 'trialN': 61, 'loaded': True, 'loadedTime': 21842.900000035763, 'positionName': 'RIGHT', 'positionCoords': [998.4, 335], 'bid': 1.76}]",113912.19999998808,1669837076891,eggsalad,shreddedwheatwithmilk,0.07,1.76,1.69,shreddedwheatwithmilk,901.2000000476837,901,901.6000000238419,True,i,115325.40000003576,1413.2000000476837,1669837078304,1413,HRV,HRV_0255,2022-11-30 19:40:52
62,"[{'imgObject': {}, 'id': 'cherry tomato', 'src': '/static/foodstim60/cherry tomato.jpg', 'key': 'u', 'origWidth': 410, 'origHeight': 410, 'width': 410, 'height': 410, 'widthPercent': 0.45, 'rescaleHeight': False, 'trialN': 62, 'loaded': True, 'loadedTime': 22083.100000023842, 'positionName': 'LEFT', 'positionCoords': [511.6, 335], 'bid': 2.65}, {'imgObject': {}, 'id': 'avocado', 'src': '/static/foodstim60/avocado.jpg', 'key': 'i', 'origWidth': 409, 'origHeight': 409, 'width': 409, 'height': 409, 'widthPercent': 0.45, 'rescaleHeight': False, 'trialN': 62, 'loaded': True, 'loadedTime': 22016, 'positionName': 'RIGHT', 'positionCoords': [998.4, 335.5], 'bid': 1.05}]",115325.5,1669837078304,cherry tomato,avocado,2.65,1.05,-1.5999999999999999,avocado,1167.6000000238419,1168,1168.0,True,i,117010.10000002384,1684.6000000238419,1669837079988,1684,HRV,HRV_0255,2022-11-30 19:40:52
63,"[{'imgObject': {}, 'id': 'corn cob', 'src': '/static/foodstim60/corn cob.jpg', 'key': 'u', 'origWidth': 411, 'origHeight': 411, 'width': 411, 'height': 411, 'widthPercent': 0.45, 'rescaleHeight': False, 'trialN': 63, 'loaded': True, 'loadedTime': 21892.69999998808, 'positionName': 'LEFT', 'positionCoords': [510.6, 334.5], 'bid': 0.26}, {'imgObject': {}, 'id': 'banana', 'src': '/static/foodstim60/banana.jpg', 'key': 'i', 'origWidth': 410, 'origHeight': 410, 'width': 410, 'height': 410, 'widthPercent': 0.45, 'rescaleHeight': False, 'trialN': 63, 'loaded': True, 'loadedTime': 21873, 'positionName': 'RIGHT', 'positionCoords': [998.4, 335], 'bid': 1.83}]",117010.40000003576,1669837079989,corn cob,banana,0.26,1.83,1.57,banana,827.0999999642372,827,827.3999999761581,True,i,118349.30000001192,1338.8999999761581,1669837081328,1339,HRV,HRV_0255,2022-11-30 19:40:52
64,"[{'imgObject': {}, 'id': 'popsicles', 'src': '/static/foodstim60/popsicles.jpg', 'key': 'u', 'origWidth': 410, 'origHeight': 410, 'width': 410, 'height': 410, 'widthPercent': 0.45, 'rescaleHeight': False, 'trialN': 64, 'loaded': True, 'loadedTime': 22114.30000001192, 'positionName': 'LEFT', 'positionCoords': [511.6, 335], 'bid': 6.28}, {'imgObject': {}, 'id': 'shreddedwheatwithmilk', 'src': '/static/foodstim60/shreddedwheatwithmilk.jpg', 'key': 'i', 'origWidth': 410, 'origHeight': 410, 'width': 410, 'height': 410, 'widthPercent': 0.45, 'rescaleHeight': False, 'trialN': 64, 'loaded': True, 'loadedTime': 21857.30000001192, 'positionName': 'RIGHT', 'positionCoords': [998.4, 335], 'bid': 1.76}]",118349.40000003576,1669837081328,popsicles,shreddedwheatwithmilk,6.28,1.76,-4.5200000000000005,popsicles,871.7999999523163,872,872.1999999880791,True,u,119723.80000001192,1374.3999999761581,1669837082702,1374,HRV,HRV_0255,2022-11-30 19:40:52
65,"[{'imgObject': {}, 'id': 'mac & cheese', 'src': '/static/foodstim60/mac & cheese.jpg', 'key': 'u', 'origWidth': 410, 'origHeight': 410, 'width': 410, 'height': 410, 'widthPercent': 0.45, 'rescaleHeight': False, 'trialN': 65, 'loaded': True, 'loadedTime': 21982.69999998808, 'positionName': 'LEFT', 'positionCoords': [511.6, 335], 'bid': 6.55}, {'imgObject': {}, 'id': 'tacos', 'src': '/static/foodstim60/tacos.jpg', 'key': 'i', 'origWidth': 411, 'origHeight': 411, 'width': 411, 'height': 411, 'widthPercent': 0.45, 'rescaleHeight': False, 'trialN': 65, 'loaded': True, 'loadedTime': 22026.900000035763, 'positionName': 'RIGHT', 'positionCoords': [998.4, 334.5], 'bid': 5.71}]",119724.10000002384,1669837082702,mac & cheese,tacos,6.55,5.71,-0.8399999999999999,tacos,849.0999999642372,850,849.5999999642372,True,i,121089.40000003576,1365.300000011921,1669837084068,1366,HRV,HRV_0255,2022-11-30 19:40:52
66,"[{'imgObject': {}, 'id': 'raspberries', 'src': '/static/foodstim60/raspberries.jpg', 'key': 'u', 'origWidth': 411, 'origHeight': 411, 'width': 411, 'height': 411, 'widthPercent': 0.45, 'rescaleHeight': False, 'trialN': 66, 'loaded': True, 'loadedTime': 21998.400000035763, 'positionName': 'LEFT', 'positionCoords': [510.6, 334.5], 'bid': 7.51}, {'imgObject': {}, 'id': 'Tribe humus pita', 'src': '/static/foodstim60/Tribe humus pita.jpg', 'key': 'i', 'origWidth': 411, 'origHeight': 411, 'width': 411, 'height': 411, 'widthPercent': 0.45, 'rescaleHeight': False, 'trialN': 66, 'loaded': True, 'loadedTime': 22082, 'positionName': 'RIGHT', 'positionCoords': [998.4, 334.5], 'bid': 9.93}]",121089.80000001192,1669837084068,raspberries,Tribe humus pita,7.51,9.93,2.42,Tribe humus pita,843.5,844,843.8000000119209,True,i,122440.90000003576,1351.1000000238419,1669837085419,1351,HRV,HRV_0255,2022-11-30 19:40:52
67,"[{'imgObject': {}, 'id': 'lox', 'src': '/static/foodstim60/lox.jpg', 'key': 'u', 'origWidth': 410, 'origHeight': 411, 'width': 410, 'height': 411, 'widthPercent': 0.45, 'rescaleHeight': False, 'trialN': 67, 'loaded': True, 'loadedTime': 21710.100000023842, 'positionName': 'LEFT', 'positionCoords': [511.6, 334.5], 'bid': 5.0200000000000005}, {'imgObject': {}, 'id': 'chicken nuggets2', 'src': '/static/foodstim60/chicken nuggets2.jpg', 'key': 'i', 'origWidth': 410, 'origHeight': 409, 'width': 410, 'height': 409, 'widthPercent': 0.45, 'rescaleHeight': False, 'trialN': 67, 'loaded': True, 'loadedTime': 21675.600000023842, 'positionName': 'RIGHT', 'positionCoords': [998.4, 335.5], 'bid': 3.41}]",122441.10000002384,1669837085419,lox,chicken nuggets2,5.0200000000000005,3.41,-1.6100000000000003,lox,892.0999999642372,893,892.5,True,u,123846.30000001192,1405.199999988079,1669837086825,1406,HRV,HRV_0255,2022-11-30 19:40:52
68,"[{'imgObject': {}, 'id': 'omelette', 'src': '/static/foodstim60/omelette.jpg', 'key': 'u', 'origWidth': 410, 'origHeight': 409, 'width': 410, 'height': 409, 'widthPercent': 0.45, 'rescaleHeight': False, 'trialN': 68, 'loaded': True, 'loadedTime': 21960.30000001192, 'positionName': 'LEFT', 'positionCoords': [511.6, 335.5], 'bid': 1.71}, {'imgObject': {}, 'id': 'granola w milk', 'src': '/static/foodstim60/granola w milk.jpg', 'key': 'i', 'origWidth': 410, 'origHeight': 410, 'width': 410, 'height': 410, 'widthPercent': 0.45, 'rescaleHeight': False, 'trialN': 68, 'loaded': True, 'loadedTime': 21755.19999998808, 'positionName': 'RIGHT', 'positionCoords': [998.4, 335], 'bid': 1.48}]",123846.40000003576,1669837086825,omelette,granola w milk,1.71,1.48,-0.22999999999999998,omelette,1286.8999999761581,1287,1287.2999999523163,True,u,125645.80000001192,1799.3999999761581,1669837088624,1799,HRV,HRV_0255,2022-11-30 19:40:52
69,"[{'imgObject': {}, 'id': 'yogurt no spoon', 'src': '/static/foodstim60/yogurt no spoon.jpg', 'key': 'u', 'origWidth': 411, 'origHeight': 410, 'width': 411, 'height': 410, 'widthPercent': 0.45, 'rescaleHeight': False, 'trialN': 69, 'loaded': True, 'loadedTime': 22099.80000001192, 'positionName': 'LEFT', 'positionCoords': [510.6, 335], 'bid': 5.75}, {'imgObject': {}, 'id': 'ice cream sundae 002', 'src': '/static/foodstim60/ice cream sundae 002.jpg', 'key': 'i', 'origWidth': 409, 'origHeight': 409, 'width': 409, 'height': 409, 'widthPercent': 0.45, 'rescaleHeight': False, 'trialN': 69, 'loaded': True, 'loadedTime': 21981.600000023842, 'positionName': 'RIGHT', 'positionCoords': [998.4, 335.5], 'bid': 7.88}]",125646.0,1669837088624,yogurt no spoon,ice cream sundae 002,5.75,7.88,2.13,ice cream sundae 002,1327.4000000357628,1328,1327.699999988079,True,i,127487.40000003576,1841.4000000357628,1669837090466,1842,HRV,HRV_0255,2022-11-30 19:40:52
70,"[{'imgObject': {}, 'id': 'banana', 'src': '/static/foodstim60/banana.jpg', 'key': 'u', 'origWidth': 410, 'origHeight': 410, 'width': 410, 'height': 410, 'widthPercent': 0.45, 'rescaleHeight': False, 'trialN': 70, 'loaded': True, 'loadedTime': 21858.600000023842, 'positionName': 'LEFT', 'positionCoords': [511.6, 335], 'bid': 1.83}, {'imgObject': {}, 'id': 'mac & cheese', 'src': '/static/foodstim60/mac & cheese.jpg', 'key': 'i', 'origWidth': 410, 'origHeight': 410, 'width': 410, 'height': 410, 'widthPercent': 0.45, 'rescaleHeight': False, 'trialN': 70, 'loaded': True, 'loadedTime': 21981.900000035763, 'positionName': 'RIGHT', 'positionCoords': [998.4, 335], 'bid': 6.55}]",127487.60000002384,1669837090466,banana,mac & cheese,1.83,6.55,4.72,mac & cheese,789.8000000119209,790,790.0999999642372,True,i,128786.60000002384,1299.0,1669837091765,1299,HRV,HRV_0255,2022-11-30 19:40:52
71,"[{'imgObject': {}, 'id': 'yogurt no spoon', 'src': '/static/foodstim60/yogurt no spoon.jpg', 'key': 'u', 'origWidth': 411, 'origHeight': 410, 'width': 411, 'height': 410, 'widthPercent': 0.45, 'rescaleHeight': False, 'trialN': 71, 'loaded': True, 'loadedTime': 22083.30000001192, 'positionName': 'LEFT', 'positionCoords': [510.6, 335], 'bid': 5.75}, {'imgObject': {}, 'id': 'mashed potato', 'src': '/static/foodstim60/mashed potato.jpg', 'key': 'i', 'origWidth': 409, 'origHeight': 409, 'width': 409, 'height': 409, 'widthPercent': 0.45, 'rescaleHeight': False, 'trialN': 71, 'loaded': True, 'loadedTime': 22100, 'positionName': 'RIGHT', 'positionCoords': [998.4, 335.5], 'bid': 4.41}]",128786.80000001192,1669837091765,yogurt no spoon,mashed potato,5.75,4.41,-1.3399999999999999,yogurt no spoon,978.3999999761581,979,978.8000000119209,True,u,130280.19999998808,1493.3999999761581,1669837093259,1494,HRV,HRV_0255,2022-11-30 19:40:52
72,"[{'imgObject': {}, 'id': 'yogurt no spoon', 'src': '/static/foodstim60/yogurt no spoon.jpg', 'key': 'u', 'origWidth': 411, 'origHeight': 410, 'width': 411, 'height': 410, 'widthPercent': 0.45, 'rescaleHeight': False, 'trialN': 72, 'loaded': True, 'loadedTime': 22099.69999998808, 'positionName': 'LEFT', 'positionCoords': [510.6, 335], 'bid': 5.75}, {'imgObject': {}, 'id': 'burger', 'src': '/static/foodstim60/burger.jpg', 'key': 'i', 'origWidth': 409, 'origHeight': 409, 'width': 409, 'height': 409, 'widthPercent': 0.45, 'rescaleHeight': False, 'trialN': 72, 'loaded': True, 'loadedTime': 21714.900000035763, 'positionName': 'RIGHT', 'positionCoords': [998.4, 335.5], 'bid': 6.71}]",130280.5,1669837093259,yogurt no spoon,burger,5.75,6.71,0.96,burger,844.4000000357628,845,844.6999999880791,True,i,131639.5,1359.0,1669837094618,1359,HRV,HRV_0255,2022-11-30 19:40:52
73,"[{'imgObject': {}, 'id': 'rigatoni', 'src': '/static/foodstim60/rigatoni.jpg', 'key': 'u', 'origWidth': 411, 'origHeight': 411, 'width': 411, 'height': 411, 'widthPercent': 0.45, 'rescaleHeight': False, 'trialN': 73, 'loaded': True, 'loadedTime': 21752.69999998808, 'positionName': 'LEFT', 'positionCoords': [510.6, 334.5], 'bid': 0.19}, {'imgObject': {}, 'id': 'fried eggs', 'src': '/static/foodstim60/fried eggs.jpg', 'key': 'i', 'origWidth': 410, 'origHeight': 410, 'width': 410, 'height': 410, 'widthPercent': 0.45, 'rescaleHeight': False, 'trialN': 73, 'loaded': True, 'loadedTime': 21965.30000001192, 'positionName': 'RIGHT', 'positionCoords': [998.4, 335], 'bid': 0}]",131639.69999998808,1669837094618,rigatoni,fried eggs,0.19,0.0,-0.19,fried eggs,869.5,870,869.9000000357628,True,i,133012.90000003576,1373.2000000476837,1669837095991,1373,HRV,HRV_0255,2022-11-30 19:40:52
74,"[{'imgObject': {}, 'id': 'cheerios', 'src': '/static/foodstim60/cheerios.jpg', 'key': 'u', 'origWidth': 409, 'origHeight': 410, 'width': 409, 'height': 410, 'widthPercent': 0.45, 'rescaleHeight': False, 'trialN': 74, 'loaded': True, 'loadedTime': 21937, 'positionName': 'LEFT', 'positionCoords': [512.6, 335], 'bid': 2.52}, {'imgObject': {}, 'id': 'luckycharms', 'src': '/static/foodstim60/luckycharms.jpg', 'key': 'i', 'origWidth': 410, 'origHeight': 409, 'width': 410, 'height': 409, 'widthPercent': 0.45, 'rescaleHeight': False, 'trialN': 74, 'loaded': True, 'loadedTime': 22102.19999998808, 'positionName': 'RIGHT', 'positionCoords': [998.4, 335.5], 'bid': 4.42}]",133013.30000001192,1669837095992,cheerios,luckycharms,2.52,4.42,1.9,luckycharms,1047.300000011921,1047,1047.699999988079,True,i,134566.0,1552.699999988079,1669837097544,1552,HRV,HRV_0255,2022-11-30 19:40:52
75,"[{'imgObject': {}, 'id': 'raisin bran w milk', 'src': '/static/foodstim60/raisin bran w milk.jpg', 'key': 'u', 'origWidth': 411, 'origHeight': 411, 'width': 411, 'height': 411, 'widthPercent': 0.45, 'rescaleHeight': False, 'trialN': 75, 'loaded': True, 'loadedTime': 21957.5, 'positionName': 'LEFT', 'positionCoords': [510.6, 334.5], 'bid': 2.01}, {'imgObject': {}, 'id': 'eggs', 'src': '/static/foodstim60/eggs.jpg', 'key': 'i', 'origWidth': 409, 'origHeight': 409, 'width': 409, 'height': 409, 'widthPercent': 0.45, 'rescaleHeight': False, 'trialN': 75, 'loaded': True, 'loadedTime': 22036.80000001192, 'positionName': 'RIGHT', 'positionCoords': [998.4, 335.5], 'bid': 0}]",134566.19999998808,1669837097544,raisin bran w milk,eggs,2.01,0.0,-2.01,raisin bran w milk,871.1000000238419,872,871.5,True,u,135942.10000002384,1375.9000000357628,1669837098920,1376,HRV,HRV_0255,2022-11-30 19:40:52
76,"[{'imgObject': {}, 'id': 'fried eggs', 'src': '/static/foodstim60/fried eggs.jpg', 'key': 'u', 'origWidth': 410, 'origHeight': 410, 'width': 410, 'height': 410, 'widthPercent': 0.45, 'rescaleHeight': False, 'trialN': 76, 'loaded': True, 'loadedTime': 21966.19999998808, 'positionName': 'LEFT', 'positionCoords': [511.6, 335], 'bid': 0}, {'imgObject': {}, 'id': 'eggs', 'src': '/static/foodstim60/eggs.jpg', 'key': 'i', 'origWidth': 409, 'origHeight': 409, 'width': 409, 'height': 409, 'widthPercent': 0.45, 'rescaleHeight': False, 'trialN': 76, 'loaded': True, 'loadedTime': 22036.5, 'positionName': 'RIGHT', 'positionCoords': [998.4, 335.5], 'bid': 0}]",135942.19999998808,1669837098921,fried eggs,eggs,0.0,0.0,0.0,fried eggs,1511.0,1511,1511.2000000476837,True,u,137956.69999998808,2014.5,1669837100935,2014,HRV,HRV_0255,2022-11-30 19:40:52
77,"[{'imgObject': {}, 'id': 'veggieswithdip', 'src': '/static/foodstim60/veggieswithdip.jpg', 'key': 'u', 'origWidth': 409, 'origHeight': 409, 'width': 409, 'height': 409, 'widthPercent': 0.45, 'rescaleHeight': False, 'trialN': 77, 'loaded': True, 'loadedTime': 21752.30000001192, 'positionName': 'LEFT', 'positionCoords': [512.6, 335.5], 'bid': 5.41}, {'imgObject': {}, 'id': 'avocado', 'src': '/static/foodstim60/avocado.jpg', 'key': 'i', 'origWidth': 409, 'origHeight': 409, 'width': 409, 'height': 409, 'widthPercent': 0.45, 'rescaleHeight': False, 'trialN': 77, 'loaded': True, 'loadedTime': 22016.600000023842, 'positionName': 'RIGHT', 'positionCoords': [998.4, 335.5], 'bid': 1.05}]",137956.90000003576,1669837100935,veggieswithdip,avocado,5.41,1.05,-4.36,veggieswithdip,1664.3999999761581,1665,1664.7999999523163,True,u,140131.5,2174.599999964237,1669837103110,2175,HRV,HRV_0255,2022-11-30 19:40:52
78,"[{'imgObject': {}, 'id': 'cherry tomato', 'src': '/static/foodstim60/cherry tomato.jpg', 'key': 'u', 'origWidth': 410, 'origHeight': 410, 'width': 410, 'height': 410, 'widthPercent': 0.45, 'rescaleHeight': False, 'trialN': 78, 'loaded': True, 'loadedTime': 22082.900000035763, 'positionName': 'LEFT', 'positionCoords': [511.6, 335], 'bid': 2.65}, {'imgObject': {}, 'id': 'cheerios', 'src': '/static/foodstim60/cheerios.jpg', 'key': 'i', 'origWidth': 409, 'origHeight': 410, 'width': 409, 'height': 410, 'widthPercent': 0.45, 'rescaleHeight': False, 'trialN': 78, 'loaded': True, 'loadedTime': 21940.80000001192, 'positionName': 'RIGHT', 'positionCoords': [998.4, 335], 'bid': 2.52}]",140131.60000002384,1669837103110,cherry tomato,cheerios,2.65,2.52,-0.1299999999999999,cheerios,913.5,914,913.8999999761581,True,i,141560.60000002384,1429.0,1669837104539,1429,HRV,HRV_0255,2022-11-30 19:40:52
79,"[{'imgObject': {}, 'id': 'orange slices', 'src': '/static/foodstim60/orange slices.jpg', 'key': 'u', 'origWidth': 409, 'origHeight': 410, 'width': 409, 'height': 410, 'widthPercent': 0.45, 'rescaleHeight': False, 'trialN': 79, 'loaded': True, 'loadedTime': 22060.400000035763, 'positionName': 'LEFT', 'positionCoords': [512.6, 335], 'bid': 2.72}, {'imgObject': {}, 'id': 'cheerios', 'src': '/static/foodstim60/cheerios.jpg', 'key': 'i', 'origWidth': 409, 'origHeight': 410, 'width': 409, 'height': 410, 'widthPercent': 0.45, 'rescaleHeight': False, 'trialN': 79, 'loaded': True, 'loadedTime': 21941.19999998808, 'positionName': 'RIGHT', 'positionCoords': [998.4, 335], 'bid': 2.52}]",141560.90000003576,1669837104539,orange slices,cheerios,2.72,2.52,-0.20000000000000018,cheerios,636.3999999761581,637,636.7999999523163,True,i,142712.60000002384,1151.699999988079,1669837105691,1152,HRV,HRV_0255,2022-11-30 19:40:52
80,"[{'imgObject': {}, 'id': 'hotdog w must', 'src': '/static/foodstim60/hotdog w must.jpg', 'key': 'u', 'origWidth': 409, 'origHeight': 409, 'width': 409, 'height': 409, 'widthPercent': 0.45, 'rescaleHeight': False, 'trialN': 80, 'loaded': True, 'loadedTime': 21689.69999998808, 'positionName': 'LEFT', 'positionCoords': [512.6, 335.5], 'bid': 4.96}, {'imgObject': {}, 'id': 'rigatoni', 'src': '/static/foodstim60/rigatoni.jpg', 'key': 'i', 'origWidth': 411, 'origHeight': 411, 'width': 411, 'height': 411, 'widthPercent': 0.45, 'rescaleHeight': False, 'trialN': 80, 'loaded': True, 'loadedTime': 21754.5, 'positionName': 'RIGHT', 'positionCoords': [998.4, 334.5], 'bid': 0.19}]",142712.80000001192,1669837105691,hotdog w must,rigatoni,4.96,0.19,-4.77,hotdog w must,740.5,741,740.8000000119209,True,u,143960.60000002384,1247.800000011921,1669837106939,1248,HRV,HRV_0255,2022-11-30 19:40:52
81,"[{'imgObject': {}, 'id': 'banana', 'src': '/static/foodstim60/banana.jpg', 'key': 'u', 'origWidth': 410, 'origHeight': 410, 'width': 410, 'height': 410, 'widthPercent': 0.45, 'rescaleHeight': False, 'trialN': 81, 'loaded': True, 'loadedTime': 21872.5, 'positionName': 'LEFT', 'positionCoords': [511.6, 335], 'bid': 1.83}, {'imgObject': {}, 'id': 'mashed potato', 'src': '/static/foodstim60/mashed potato.jpg', 'key': 'i', 'origWidth': 409, 'origHeight': 409, 'width': 409, 'height': 409, 'widthPercent': 0.45, 'rescaleHeight': False, 'trialN': 81, 'loaded': True, 'loadedTime': 22101, 'positionName': 'RIGHT', 'positionCoords': [998.4, 335.5], 'bid': 4.41}]",143960.80000001192,1669837106939,banana,mashed potato,1.83,4.41,2.58,mashed potato,980.3000000119209,981,980.6999999880791,True,i,145455.0,1494.199999988079,1669837108433,1494,HRV,HRV_0255,2022-11-30 19:40:52
82,"[{'imgObject': {}, 'id': 'orange slices', 'src': '/static/foodstim60/orange slices.jpg', 'key': 'u', 'origWidth': 409, 'origHeight': 410, 'width': 409, 'height': 410, 'widthPercent': 0.45, 'rescaleHeight': False, 'trialN': 82, 'loaded': True, 'loadedTime': 22060, 'positionName': 'LEFT', 'positionCoords': [512.6, 335], 'bid': 2.72}, {'imgObject': {}, 'id': 'sweetpotato', 'src': '/static/foodstim60/sweetpotato.jpg', 'key': 'i', 'origWidth': 410, 'origHeight': 410, 'width': 410, 'height': 410, 'widthPercent': 0.45, 'rescaleHeight': False, 'trialN': 82, 'loaded': True, 'loadedTime': 21949.600000023842, 'positionName': 'RIGHT', 'positionCoords': [998.4, 335], 'bid': 1.29}]",145455.19999998808,1669837108434,orange slices,sweetpotato,2.72,1.29,-1.4300000000000002,sweetpotato,926.0,926,926.4000000357628,True,i,146898.40000003576,1443.2000000476837,1669837109877,1443,HRV,HRV_0255,2022-11-30 19:40:52
83,"[{'imgObject': {}, 'id': 'veggieswithdip', 'src': '/static/foodstim60/veggieswithdip.jpg', 'key': 'u', 'origWidth': 409, 'origHeight': 409, 'width': 409, 'height': 409, 'widthPercent': 0.45, 'rescaleHeight': False, 'trialN': 83, 'loaded': True, 'loadedTime': 21751.900000035763, 'positionName': 'LEFT', 'positionCoords': [512.6, 335.5], 'bid': 5.41}, {'imgObject': {}, 'id': 'pear', 'src': '/static/foodstim60/pear.jpg', 'key': 'i', 'origWidth': 411, 'origHeight': 410, 'width': 411, 'height': 410, 'widthPercent': 0.45, 'rescaleHeight': False, 'trialN': 83, 'loaded': True, 'loadedTime': 22057, 'positionName': 'RIGHT', 'positionCoords': [998.4, 335], 'bid': 5.66}]",146898.60000002384,1669837109877,veggieswithdip,pear,5.41,5.66,0.25,veggieswithdip,730.5999999642372,731,730.8999999761581,True,u,148144.80000001192,1246.199999988079,1669837111123,1246,HRV,HRV_0255,2022-11-30 19:40:52
84,"[{'imgObject': {}, 'id': 'ice cream sundae 002', 'src': '/static/foodstim60/ice cream sundae 002.jpg', 'key': 'u', 'origWidth': 409, 'origHeight': 409, 'width': 409, 'height': 409, 'widthPercent': 0.45, 'rescaleHeight': False, 'trialN': 84, 'loaded': True, 'loadedTime': 21967.5, 'positionName': 'LEFT', 'positionCoords': [512.6, 335.5], 'bid': 7.88}, {'imgObject': {}, 'id': 'turkey sandwich', 'src': '/static/foodstim60/turkey sandwich.jpg', 'key': 'i', 'origWidth': 409, 'origHeight': 409, 'width': 409, 'height': 409, 'widthPercent': 0.45, 'rescaleHeight': False, 'trialN': 84, 'loaded': True, 'loadedTime': 21642.30000001192, 'positionName': 'RIGHT', 'positionCoords': [998.4, 335.5], 'bid': 8.05}]",148145.0,1669837111123,ice cream sundae 002,turkey sandwich,7.88,8.05,0.17000000000000082,turkey sandwich,1764.4000000357628,1765,1764.699999988079,True,i,150420.90000003576,2275.900000035763,1669837113399,2276,HRV,HRV_0255,2022-11-30 19:40:52
85,"[{'imgObject': {}, 'id': 'cherries', 'src': '/static/foodstim60/cherries.jpg', 'key': 'u', 'origWidth': 410, 'origHeight': 411, 'width': 410, 'height': 411, 'widthPercent': 0.45, 'rescaleHeight': False, 'trialN': 85, 'loaded': True, 'loadedTime': 22103.400000035763, 'positionName': 'LEFT', 'positionCoords': [511.6, 334.5], 'bid': 7.53}, {'imgObject': {}, 'id': 'bagel and cc', 'src': '/static/foodstim60/bagel and cc.jpg', 'key': 'i', 'origWidth': 410, 'origHeight': 410, 'width': 410, 'height': 410, 'widthPercent': 0.45, 'rescaleHeight': False, 'trialN': 85, 'loaded': True, 'loadedTime': 21944.5, 'positionName': 'RIGHT', 'positionCoords': [998.4, 335], 'bid': 8.19}]",150421.10000002384,1669837113399,cherries,bagel and cc,7.53,8.19,0.6599999999999993,bagel and cc,944.0,945,944.3999999761581,True,i,151883.80000001192,1462.699999988079,1669837114862,1463,HRV,HRV_0255,2022-11-30 19:40:52
86,"[{'imgObject': {}, 'id': 'popsicles', 'src': '/static/foodstim60/popsicles.jpg', 'key': 'u', 'origWidth': 410, 'origHeight': 410, 'width': 410, 'height': 410, 'widthPercent': 0.45, 'rescaleHeight': False, 'trialN': 86, 'loaded': True, 'loadedTime': 22114.600000023842, 'positionName': 'LEFT', 'positionCoords': [511.6, 335], 'bid': 6.28}, {'imgObject': {}, 'id': 'bagel and cc', 'src': '/static/foodstim60/bagel and cc.jpg', 'key': 'i', 'origWidth': 410, 'origHeight': 410, 'width': 410, 'height': 410, 'widthPercent': 0.45, 'rescaleHeight': False, 'trialN': 86, 'loaded': True, 'loadedTime': 21946, 'positionName': 'RIGHT', 'positionCoords': [998.4, 335], 'bid': 8.19}]",151884.10000002384,1669837114862,popsicles,bagel and cc,6.28,8.19,1.9099999999999993,bagel and cc,681.0999999642372,682,681.3999999761581,True,i,153068.10000002384,1184.0,1669837116046,1184,HRV,HRV_0255,2022-11-30 19:40:52
87,"[{'imgObject': {}, 'id': 'blackbeanswithrice', 'src': '/static/foodstim60/blackbeanswithrice.jpg', 'key': 'u', 'origWidth': 410, 'origHeight': 410, 'width': 410, 'height': 410, 'widthPercent': 0.45, 'rescaleHeight': False, 'trialN': 87, 'loaded': True, 'loadedTime': 21766.600000023842, 'positionName': 'LEFT', 'positionCoords': [511.6, 335], 'bid': 1.82}, {'imgObject': {}, 'id': 'shreddedwheatwithmilk', 'src': '/static/foodstim60/shreddedwheatwithmilk.jpg', 'key': 'i', 'origWidth': 410, 'origHeight': 410, 'width': 410, 'height': 410, 'widthPercent': 0.45, 'rescaleHeight': False, 'trialN': 87, 'loaded': True, 'loadedTime': 21844, 'positionName': 'RIGHT', 'positionCoords': [998.4, 335], 'bid': 1.76}]",153068.19999998808,1669837116046,blackbeanswithrice,shreddedwheatwithmilk,1.82,1.76,-0.06000000000000005,shreddedwheatwithmilk,752.9000000357628,754,753.3000000119209,True,i,154330.10000002384,1261.9000000357628,1669837117308,1262,HRV,HRV_0255,2022-11-30 19:40:52
88,"[{'imgObject': {}, 'id': 'froot loops w milk', 'src': '/static/foodstim60/froot loops w milk.jpg', 'key': 'u', 'origWidth': 410, 'origHeight': 410, 'width': 410, 'height': 410, 'widthPercent': 0.45, 'rescaleHeight': False, 'trialN': 88, 'loaded': True, 'loadedTime': 21727.80000001192, 'positionName': 'LEFT', 'positionCoords': [511.6, 335], 'bid': 2.17}, {'imgObject': {}, 'id': 'sweetpotato', 'src': '/static/foodstim60/sweetpotato.jpg', 'key': 'i', 'origWidth': 410, 'origHeight': 410, 'width': 410, 'height': 410, 'widthPercent': 0.45, 'rescaleHeight': False, 'trialN': 88, 'loaded': True, 'loadedTime': 21947.5, 'positionName': 'RIGHT', 'positionCoords': [998.4, 335], 'bid': 1.29}]",154330.40000003576,1669837117309,froot loops w milk,sweetpotato,2.17,1.29,-0.8799999999999999,froot loops w milk,722.6999999880791,723,723.0,True,u,155556.60000002384,1226.199999988079,1669837118535,1226,HRV,HRV_0255,2022-11-30 19:40:52
89,"[{'imgObject': {}, 'id': 'sushi w_condiments', 'src': '/static/foodstim60/sushi w_condiments.jpg', 'key': 'u', 'origWidth': 410, 'origHeight': 410, 'width': 410, 'height': 410, 'widthPercent': 0.45, 'rescaleHeight': False, 'trialN': 89, 'loaded': True, 'loadedTime': 22025.69999998808, 'positionName': 'LEFT', 'positionCoords': [511.6, 335], 'bid': 8.56}, {'imgObject': {}, 'id': 'fruitsalad', 'src': '/static/foodstim60/fruitsalad.jpg', 'key': 'i', 'origWidth': 410, 'origHeight': 410, 'width': 410, 'height': 410, 'widthPercent': 0.45, 'rescaleHeight': False, 'trialN': 89, 'loaded': True, 'loadedTime': 22077.100000023842, 'positionName': 'RIGHT', 'positionCoords': [998.4, 335], 'bid': 7.56}]",155556.69999998808,1669837118535,sushi w_condiments,fruitsalad,8.56,7.56,-1.0000000000000009,sushi w_condiments,720.4000000357628,721,720.7000000476837,True,u,156782.19999998808,1225.5,1669837119761,1226,HRV,HRV_0255,2022-11-30 19:40:52
90,"[{'imgObject': {}, 'id': 'salad w chicken', 'src': '/static/foodstim60/salad w chicken.jpg', 'key': 'u', 'origWidth': 411, 'origHeight': 411, 'width': 411, 'height': 411, 'widthPercent': 0.45, 'rescaleHeight': False, 'trialN': 90, 'loaded': True, 'loadedTime': 21906.30000001192, 'positionName': 'LEFT', 'positionCoords': [510.6, 334.5], 'bid': 5.01}, {'imgObject': {}, 'id': 'bagel plain', 'src': '/static/foodstim60/bagel plain.jpg', 'key': 'i', 'origWidth': 410, 'origHeight': 410, 'width': 410, 'height': 410, 'widthPercent': 0.45, 'rescaleHeight': False, 'trialN': 90, 'loaded': True, 'loadedTime': 22019.5, 'positionName': 'RIGHT', 'positionCoords': [998.4, 335], 'bid': 4.93}]",159565.80000001192,1669837122544,salad w chicken,bagel plain,5.01,4.93,-0.08000000000000007,salad w chicken,1535.5,1536,1536.0,True,u,161611.30000001192,2045.5,1669837124589,2045,HRV,HRV_0255,2022-11-30 19:40:52
91,"[{'imgObject': {}, 'id': 'blueberries', 'src': '/static/foodstim60/blueberries.jpg', 'key': 'u', 'origWidth': 411, 'origHeight': 411, 'width': 411, 'height': 411, 'widthPercent': 0.45, 'rescaleHeight': False, 'trialN': 91, 'loaded': True, 'loadedTime': 22032.69999998808, 'positionName': 'LEFT', 'positionCoords': [510.6, 334.5], 'bid': 7.69}, {'imgObject': {}, 'id': 'Tribe humus pita', 'src': '/static/foodstim60/Tribe humus pita.jpg', 'key': 'i', 'origWidth': 411, 'origHeight': 411, 'width': 411, 'height': 411, 'widthPercent': 0.45, 'rescaleHeight': False, 'trialN': 91, 'loaded': True, 'loadedTime': 22082.100000023842, 'positionName': 'RIGHT', 'positionCoords': [998.4, 334.5], 'bid': 9.93}]",161611.60000002384,1669837124590,blueberries,Tribe humus pita,7.69,9.93,2.2399999999999993,Tribe humus pita,833.5,834,833.8999999761581,True,i,162947.90000003576,1336.300000011921,1669837125926,1336,HRV,HRV_0255,2022-11-30 19:40:52
92,"[{'imgObject': {}, 'id': 'cherry tomato', 'src': '/static/foodstim60/cherry tomato.jpg', 'key': 'u', 'origWidth': 410, 'origHeight': 410, 'width': 410, 'height': 410, 'widthPercent': 0.45, 'rescaleHeight': False, 'trialN': 92, 'loaded': True, 'loadedTime': 22083.19999998808, 'positionName': 'LEFT', 'positionCoords': [511.6, 335], 'bid': 2.65}, {'imgObject': {}, 'id': 'cherries', 'src': '/static/foodstim60/cherries.jpg', 'key': 'i', 'origWidth': 410, 'origHeight': 411, 'width': 410, 'height': 411, 'widthPercent': 0.45, 'rescaleHeight': False, 'trialN': 92, 'loaded': True, 'loadedTime': 22103.5, 'positionName': 'RIGHT', 'positionCoords': [998.4, 334.5], 'bid': 7.53}]",162948.10000002384,1669837125926,cherry tomato,cherries,2.65,7.53,4.880000000000001,cherries,737.0,738,737.3999999761581,True,i,164190.90000003576,1242.800000011921,1669837127169,1243,HRV,HRV_0255,2022-11-30 19:40:52
93,"[{'imgObject': {}, 'id': 'sweetpotato', 'src': '/static/foodstim60/sweetpotato.jpg', 'key': 'u', 'origWidth': 410, 'origHeight': 410, 'width': 410, 'height': 410, 'widthPercent': 0.45, 'rescaleHeight': False, 'trialN': 93, 'loaded': True, 'loadedTime': 21948.30000001192, 'positionName': 'LEFT', 'positionCoords': [511.6, 335], 'bid': 1.29}, {'imgObject': {}, 'id': 'pear', 'src': '/static/foodstim60/pear.jpg', 'key': 'i', 'origWidth': 411, 'origHeight': 410, 'width': 411, 'height': 410, 'widthPercent': 0.45, 'rescaleHeight': False, 'trialN': 93, 'loaded': True, 'loadedTime': 22057.80000001192, 'positionName': 'RIGHT', 'positionCoords': [998.4, 335], 'bid': 5.66}]",164191.0,1669837127169,sweetpotato,pear,1.29,5.66,4.37,pear,901.9000000357628,902,902.3000000119209,True,i,165607.69999998808,1416.699999988079,1669837128586,1417,HRV,HRV_0255,2022-11-30 19:40:52
94,"[{'imgObject': {}, 'id': 'fried eggs', 'src': '/static/foodstim60/fried eggs.jpg', 'key': 'u', 'origWidth': 410, 'origHeight': 410, 'width': 410, 'height': 410, 'widthPercent': 0.45, 'rescaleHeight': False, 'trialN': 94, 'loaded': True, 'loadedTime': 21966.30000001192, 'positionName': 'LEFT', 'positionCoords': [511.6, 335], 'bid': 0}, {'imgObject': {}, 'id': 'Grapes', 'src': '/static/foodstim60/Grapes.jpg', 'key': 'i', 'origWidth': 411, 'origHeight': 411, 'width': 411, 'height': 411, 'widthPercent': 0.45, 'rescaleHeight': False, 'trialN': 94, 'loaded': True, 'loadedTime': 21677.100000023842, 'positionName': 'RIGHT', 'positionCoords': [998.4, 334.5], 'bid': 4.57}]",165608.0,1669837128586,fried eggs,Grapes,0.0,4.57,4.57,Grapes,869.0,869,869.4000000357628,True,i,166984.90000003576,1376.9000000357628,1669837129963,1377,HRV,HRV_0255,2022-11-30 19:40:52
95,"[{'imgObject': {}, 'id': 'eggs', 'src': '/static/foodstim60/eggs.jpg', 'key': 'u', 'origWidth': 409, 'origHeight': 409, 'width': 409, 'height': 409, 'widthPercent': 0.45, 'rescaleHeight': False, 'trialN': 95, 'loaded': True, 'loadedTime': 22036.900000035763, 'positionName': 'LEFT', 'positionCoords': [512.6, 335.5], 'bid': 0}, {'imgObject': {}, 'id': 'luckycharms', 'src': '/static/foodstim60/luckycharms.jpg', 'key': 'i', 'origWidth': 410, 'origHeight': 409, 'width': 410, 'height': 409, 'widthPercent': 0.45, 'rescaleHeight': False, 'trialN': 95, 'loaded': True, 'loadedTime': 22101.400000035763, 'positionName': 'RIGHT', 'positionCoords': [998.4, 335.5], 'bid': 4.42}]",166985.0,1669837129963,eggs,luckycharms,0.0,4.42,4.42,luckycharms,852.1000000238419,852,852.4000000357628,True,i,168343.60000002384,1358.6000000238419,1669837131322,1359,HRV,HRV_0255,2022-11-30 19:40:52
96,"[{'imgObject': {}, 'id': 'sushi w_condiments', 'src': '/static/foodstim60/sushi w_condiments.jpg', 'key': 'u', 'origWidth': 410, 'origHeight': 410, 'width': 410, 'height': 410, 'widthPercent': 0.45, 'rescaleHeight': False, 'trialN': 96, 'loaded': True, 'loadedTime': 22022.30000001192, 'positionName': 'LEFT', 'positionCoords': [511.6, 335], 'bid': 8.56}, {'imgObject': {}, 'id': 'grilled chicken strips', 'src': '/static/foodstim60/grilled chicken strips.jpg', 'key': 'i', 'origWidth': 410, 'origHeight': 411, 'width': 410, 'height': 411, 'widthPercent': 0.45, 'rescaleHeight': False, 'trialN': 96, 'loaded': True, 'loadedTime': 21710.19999998808, 'positionName': 'RIGHT', 'positionCoords': [998.4, 334.5], 'bid': 6.29}]",168343.90000003576,1669837131322,sushi w_condiments,grilled chicken strips,8.56,6.29,-2.2700000000000005,sushi w_condiments,685.1999999880791,686,685.5999999642372,True,u,169543.69999998808,1199.7999999523163,1669837132522,1200,HRV,HRV_0255,2022-11-30 19:40:52
97,"[{'imgObject': {}, 'id': 'apple slices', 'src': '/static/foodstim60/apple slices.jpg', 'key': 'u', 'origWidth': 409, 'origHeight': 410, 'width': 409, 'height': 410, 'widthPercent': 0.45, 'rescaleHeight': False, 'trialN': 97, 'loaded': True, 'loadedTime': 21950.80000001192, 'positionName': 'LEFT', 'positionCoords': [512.6, 335], 'bid': 3.1}, {'imgObject': {}, 'id': 'luckycharms', 'src': '/static/foodstim60/luckycharms.jpg', 'key': 'i', 'origWidth': 410, 'origHeight': 409, 'width': 410, 'height': 409, 'widthPercent': 0.45, 'rescaleHeight': False, 'trialN': 97, 'loaded': True, 'loadedTime': 22102.400000035763, 'positionName': 'RIGHT', 'positionCoords': [998.4, 335.5], 'bid': 4.42}]",169544.0,1669837132522,apple slices,luckycharms,3.1,4.42,1.3199999999999998,luckycharms,1093.1000000238419,1094,1093.5,True,i,171150.69999998808,1606.699999988079,1669837134129,1607,HRV,HRV_0255,2022-11-30 19:40:52
98,"[{'imgObject': {}, 'id': 'edamame', 'src': '/static/foodstim60/edamame.jpg', 'key': 'u', 'origWidth': 409, 'origHeight': 410, 'width': 409, 'height': 410, 'widthPercent': 0.45, 'rescaleHeight': False, 'trialN': 98, 'loaded': True, 'loadedTime': 21665.400000035763, 'positionName': 'LEFT', 'positionCoords': [512.6, 335], 'bid': 7.51}, {'imgObject': {}, 'id': 'strawberries', 'src': '/static/foodstim60/strawberries.jpg', 'key': 'i', 'origWidth': 410, 'origHeight': 410, 'width': 410, 'height': 410, 'widthPercent': 0.45, 'rescaleHeight': False, 'trialN': 98, 'loaded': True, 'loadedTime': 21619.19999998808, 'positionName': 'RIGHT', 'positionCoords': [998.4, 335], 'bid': 5.79}]",171150.80000001192,1669837134129,edamame,strawberries,7.51,5.79,-1.7199999999999998,edamame,606.5,607,606.8999999761581,True,u,172268.90000003576,1118.1000000238419,1669837135247,1118,HRV,HRV_0255,2022-11-30 19:40:52
99,"[{'imgObject': {}, 'id': 'froot loops w milk', 'src': '/static/foodstim60/froot loops w milk.jpg', 'key': 'u', 'origWidth': 410, 'origHeight': 410, 'width': 410, 'height': 410, 'widthPercent': 0.45, 'rescaleHeight': False, 'trialN': 99, 'loaded': True, 'loadedTime': 21745.69999998808, 'positionName': 'LEFT', 'positionCoords': [511.6, 335], 'bid': 2.17}, {'imgObject': {}, 'id': 'baked potato', 'src': '/static/foodstim60/baked potato.jpg', 'key': 'i', 'origWidth': 409, 'origHeight': 410, 'width': 409, 'height': 410, 'widthPercent': 0.45, 'rescaleHeight': False, 'trialN': 99, 'loaded': True, 'loadedTime': 21997.69999998808, 'positionName': 'RIGHT', 'positionCoords': [998.4, 335], 'bid': 2.51}]",172269.10000002384,1669837135247,froot loops w milk,baked potato,2.17,2.51,0.33999999999999986,froot loops w milk,847.8999999761581,848,848.3000000119209,True,u,173622.19999998808,1353.0999999642372,1669837136600,1353,HRV,HRV_0255,2022-11-30 19:40:52
100,"[{'imgObject': {}, 'id': 'seaweed', 'src': '/static/foodstim60/seaweed.jpg', 'key': 'u', 'origWidth': 410, 'origHeight': 410, 'width': 410, 'height': 410, 'widthPercent': 0.45, 'rescaleHeight': False, 'trialN': 100, 'loaded': True, 'loadedTime': 21828.69999998808, 'positionName': 'LEFT', 'positionCoords': [511.6, 335], 'bid': 0.66}, {'imgObject': {}, 'id': 'raisin bran w milk', 'src': '/static/foodstim60/raisin bran w milk.jpg', 'key': 'i', 'origWidth': 411, 'origHeight': 411, 'width': 411, 'height': 411, 'widthPercent': 0.45, 'rescaleHeight': False, 'trialN': 100, 'loaded': True, 'loadedTime': 21957, 'positionName': 'RIGHT', 'positionCoords': [998.4, 334.5], 'bid': 2.01}]",173622.30000001192,1669837136600,seaweed,raisin bran w milk,0.66,2.01,1.3499999999999996,raisin bran w milk,1334.800000011921,1336,1335.199999988079,True,i,175467.5,1845.199999988079,1669837138445,1845,HRV,HRV_0255,2022-11-30 19:40:52
101,"[{'imgObject': {}, 'id': 'ice cream sundae 002', 'src': '/static/foodstim60/ice cream sundae 002.jpg', 'key': 'u', 'origWidth': 409, 'origHeight': 409, 'width': 409, 'height': 409, 'widthPercent': 0.45, 'rescaleHeight': False, 'trialN': 101, 'loaded': True, 'loadedTime': 21967.69999998808, 'positionName': 'LEFT', 'positionCoords': [512.6, 335.5], 'bid': 7.88}, {'imgObject': {}, 'id': 'fruitsalad', 'src': '/static/foodstim60/fruitsalad.jpg', 'key': 'i', 'origWidth': 410, 'origHeight': 410, 'width': 410, 'height': 410, 'widthPercent': 0.45, 'rescaleHeight': False, 'trialN': 101, 'loaded': True, 'loadedTime': 22080.80000001192, 'positionName': 'RIGHT', 'positionCoords': [998.4, 335], 'bid': 7.56}]",175467.60000002384,1669837138446,ice cream sundae 002,fruitsalad,7.88,7.56,-0.3200000000000003,ice cream sundae 002,649.5999999642372,650,650.0,True,u,176631.30000001192,1163.699999988079,1669837139609,1163,HRV,HRV_0255,2022-11-30 19:40:52
102,"[{'imgObject': {}, 'id': 'Grapes', 'src': '/static/foodstim60/Grapes.jpg', 'key': 'u', 'origWidth': 411, 'origHeight': 411, 'width': 411, 'height': 411, 'widthPercent': 0.45, 'rescaleHeight': False, 'trialN': 102, 'loaded': True, 'loadedTime': 21677.600000023842, 'positionName': 'LEFT', 'positionCoords': [510.6, 334.5], 'bid': 4.57}, {'imgObject': {}, 'id': 'luckycharms', 'src': '/static/foodstim60/luckycharms.jpg', 'key': 'i', 'origWidth': 410, 'origHeight': 409, 'width': 410, 'height': 409, 'widthPercent': 0.45, 'rescaleHeight': False, 'trialN': 102, 'loaded': True, 'loadedTime': 22102.19999998808, 'positionName': 'RIGHT', 'positionCoords': [998.4, 335.5], 'bid': 4.42}]",176631.40000003576,1669837139609,Grapes,luckycharms,4.57,4.42,-0.15000000000000036,luckycharms,701.6999999880791,703,702.0999999642372,True,i,177838.80000001192,1207.3999999761581,1669837140817,1208,HRV,HRV_0255,2022-11-30 19:40:52
103,"[{'imgObject': {}, 'id': 'raspberries', 'src': '/static/foodstim60/raspberries.jpg', 'key': 'u', 'origWidth': 411, 'origHeight': 411, 'width': 411, 'height': 411, 'widthPercent': 0.45, 'rescaleHeight': False, 'trialN': 103, 'loaded': True, 'loadedTime': 22011.30000001192, 'positionName': 'LEFT', 'positionCoords': [510.6, 334.5], 'bid': 7.51}, {'imgObject': {}, 'id': 'cherries', 'src': '/static/foodstim60/cherries.jpg', 'key': 'i', 'origWidth': 410, 'origHeight': 411, 'width': 410, 'height': 411, 'widthPercent': 0.45, 'rescaleHeight': False, 'trialN': 103, 'loaded': True, 'loadedTime': 22102.600000023842, 'positionName': 'RIGHT', 'positionCoords': [998.4, 334.5], 'bid': 7.53}]",177838.90000003576,1669837140817,raspberries,cherries,7.51,7.53,0.020000000000000462,raspberries,749.6999999880791,750,750.0,True,u,179102.69999998808,1263.7999999523163,1669837142081,1264,HRV,HRV_0255,2022-11-30 19:40:52
104,"[{'imgObject': {}, 'id': 'olives', 'src': '/static/foodstim60/olives.jpg', 'key': 'u', 'origWidth': 410, 'origHeight': 410, 'width': 410, 'height': 410, 'widthPercent': 0.45, 'rescaleHeight': False, 'trialN': 104, 'loaded': True, 'loadedTime': 21680.5, 'positionName': 'LEFT', 'positionCoords': [511.6, 335], 'bid': 5.97}, {'imgObject': {}, 'id': 'omelette', 'src': '/static/foodstim60/omelette.jpg', 'key': 'i', 'origWidth': 410, 'origHeight': 409, 'width': 410, 'height': 409, 'widthPercent': 0.45, 'rescaleHeight': False, 'trialN': 104, 'loaded': True, 'loadedTime': 21959.600000023842, 'positionName': 'RIGHT', 'positionCoords': [998.4, 335.5], 'bid': 1.71}]",179103.0,1669837142081,olives,omelette,5.97,1.71,-4.26,omelette,758.1999999880791,759,758.5,True,i,180378.10000002384,1275.1000000238419,1669837143356,1275,HRV,HRV_0255,2022-11-30 19:40:52
105,"[{'imgObject': {}, 'id': 'olives', 'src': '/static/foodstim60/olives.jpg', 'key': 'u', 'origWidth': 410, 'origHeight': 410, 'width': 410, 'height': 410, 'widthPercent': 0.45, 'rescaleHeight': False, 'trialN': 105, 'loaded': True, 'loadedTime': 21680.100000023842, 'positionName': 'LEFT', 'positionCoords': [511.6, 335], 'bid': 5.97}, {'imgObject': {}, 'id': 'cherries', 'src': '/static/foodstim60/cherries.jpg', 'key': 'i', 'origWidth': 410, 'origHeight': 411, 'width': 410, 'height': 411, 'widthPercent': 0.45, 'rescaleHeight': False, 'trialN': 105, 'loaded': True, 'loadedTime': 22103.400000035763, 'positionName': 'RIGHT', 'positionCoords': [998.4, 334.5], 'bid': 7.53}]",180378.30000001192,1669837143356,olives,cherries,5.97,7.53,1.5600000000000005,olives,586.8999999761581,588,587.3999999761581,True,u,181471.69999998808,1093.3999999761581,1669837144450,1094,HRV,HRV_0255,2022-11-30 19:40:52
106,"[{'imgObject': {}, 'id': 'banana', 'src': '/static/foodstim60/banana.jpg', 'key': 'u', 'origWidth': 410, 'origHeight': 410, 'width': 410, 'height': 410, 'widthPercent': 0.45, 'rescaleHeight': False, 'trialN': 106, 'loaded': True, 'loadedTime': 21872.69999998808, 'positionName': 'LEFT', 'positionCoords': [511.6, 335], 'bid': 1.83}, {'imgObject': {}, 'id': 'raisin bran w milk', 'src': '/static/foodstim60/raisin bran w milk.jpg', 'key': 'i', 'origWidth': 411, 'origHeight': 411, 'width': 411, 'height': 411, 'widthPercent': 0.45, 'rescaleHeight': False, 'trialN': 106, 'loaded': True, 'loadedTime': 21955.900000035763, 'positionName': 'RIGHT', 'positionCoords': [998.4, 334.5], 'bid': 2.01}]",181471.69999998808,1669837144450,banana,raisin bran w milk,1.83,2.01,0.17999999999999972,banana,941.8000000119209,942,942.1000000238419,True,u,182924.69999998808,1453.0,1669837145903,1453,HRV,HRV_0255,2022-11-30 19:40:52
107,"[{'imgObject': {}, 'id': 'salmon', 'src': '/static/foodstim60/salmon.jpg', 'key': 'u', 'origWidth': 410, 'origHeight': 409, 'width': 410, 'height': 409, 'widthPercent': 0.45, 'rescaleHeight': False, 'trialN': 107, 'loaded': True, 'loadedTime': 22021.600000023842, 'positionName': 'LEFT', 'positionCoords': [511.6, 335.5], 'bid': 3.09}, {'imgObject': {}, 'id': 'hotdog w must', 'src': '/static/foodstim60/hotdog w must.jpg', 'key': 'i', 'origWidth': 409, 'origHeight': 409, 'width': 409, 'height': 409, 'widthPercent': 0.45, 'rescaleHeight': False, 'trialN': 107, 'loaded': True, 'loadedTime': 21706.80000001192, 'positionName': 'RIGHT', 'positionCoords': [998.4, 335.5], 'bid': 4.96}]",182924.90000003576,1669837145903,salmon,hotdog w must,3.09,4.96,1.87,hotdog w must,728.2999999523163,729,728.5999999642372,True,i,184165.40000003576,1240.5,1669837147143,1240,HRV,HRV_0255,2022-11-30 19:40:52
108,"[{'imgObject': {}, 'id': 'mac & cheese', 'src': '/static/foodstim60/mac & cheese.jpg', 'key': 'u', 'origWidth': 410, 'origHeight': 410, 'width': 410, 'height': 410, 'widthPercent': 0.45, 'rescaleHeight': False, 'trialN': 108, 'loaded': True, 'loadedTime': 21982.900000035763, 'positionName': 'LEFT', 'positionCoords': [511.6, 335], 'bid': 6.55}, {'imgObject': {}, 'id': 'Tribe humus pita', 'src': '/static/foodstim60/Tribe humus pita.jpg', 'key': 'i', 'origWidth': 411, 'origHeight': 411, 'width': 411, 'height': 411, 'widthPercent': 0.45, 'rescaleHeight': False, 'trialN': 108, 'loaded': True, 'loadedTime': 22082.100000023842, 'positionName': 'RIGHT', 'positionCoords': [998.4, 334.5], 'bid': 9.93}]",184165.60000002384,1669837147144,mac & cheese,Tribe humus pita,6.55,9.93,3.38,Tribe humus pita,815.3000000119209,815,815.5,True,i,185485.40000003576,1319.800000011921,1669837148463,1319,HRV,HRV_0255,2022-11-30 19:40:52
