trialN,stimuli,trialStartTime,trialStartTime_UNIX,stimulus1,stimulus2,stimulus1Bid,stimulus2Bid,delta,selected,rt,rt_UNIX,rt_perfnow,receivedResponse,rsp,trialEndTime,trialDuration,trialEndTime_UNIX,trialDuration_UNIX,exp,subjectId,date
0,"[{'imgObject': {}, 'id': 'salad w chicken', 'src': '/static/foodstim60/salad w chicken.jpg', 'key': 'u', 'origWidth': 411, 'origHeight': 411, 'width': 411, 'height': 411, 'widthPercent': 0.45, 'rescaleHeight': False, 'trialN': 0, 'loaded': True, 'loadedTime': 2244, 'positionName': 'LEFT', 'positionCoords': [510.6, 334.5], 'bid': 8.870000000000001}, {'imgObject': {}, 'id': 'ice cream sundae 002', 'src': '/static/foodstim60/ice cream sundae 002.jpg', 'key': 'i', 'origWidth': 409, 'origHeight': 409, 'width': 409, 'height': 409, 'widthPercent': 0.45, 'rescaleHeight': False, 'trialN': 0, 'loaded': True, 'loadedTime': 2308.8000000715256, 'positionName': 'RIGHT', 'positionCoords': [998.4, 335.5], 'bid': 9.12}]",3226.0,1669835414236,salad w chicken,ice cream sundae 002,8.870000000000001,9.12,0.24999999999999822,salad w chicken,1070.7000000476837,1074,1073.8000000715256,True,u,4800.700000047684,1574.7000000476837,1669835415810,1574,HRV,HRV_0246,2022-11-30 19:16:30
1,"[{'imgObject': {}, 'id': 'fried eggs', 'src': '/static/foodstim60/fried eggs.jpg', 'key': 'u', 'origWidth': 410, 'origHeight': 410, 'width': 410, 'height': 410, 'widthPercent': 0.45, 'rescaleHeight': False, 'trialN': 1, 'loaded': True, 'loadedTime': 2336.7000000476837, 'positionName': 'LEFT', 'positionCoords': [511.6, 335], 'bid': 7.33}, {'imgObject': {}, 'id': 'omelette', 'src': '/static/foodstim60/omelette.jpg', 'key': 'i', 'origWidth': 410, 'origHeight': 409, 'width': 410, 'height': 409, 'widthPercent': 0.45, 'rescaleHeight': False, 'trialN': 1, 'loaded': True, 'loadedTime': 2351.5, 'positionName': 'RIGHT', 'positionCoords': [998.4, 335.5], 'bid': 6.91}]",4801.0,1669835415811,fried eggs,omelette,7.33,6.91,-0.41999999999999993,fried eggs,1006.7000000476837,1007,1006.9000000953674,True,u,6313.5,1512.5,1669835417323,1512,HRV,HRV_0246,2022-11-30 19:16:30
2,"[{'imgObject': {}, 'id': 'luckycharms', 'src': '/static/foodstim60/luckycharms.jpg', 'key': 'u', 'origWidth': 410, 'origHeight': 409, 'width': 410, 'height': 409, 'widthPercent': 0.45, 'rescaleHeight': False, 'trialN': 2, 'loaded': True, 'loadedTime': 2277.100000023842, 'positionName': 'LEFT', 'positionCoords': [511.6, 335.5], 'bid': 1.96}, {'imgObject': {}, 'id': 'lox', 'src': '/static/foodstim60/lox.jpg', 'key': 'i', 'origWidth': 410, 'origHeight': 411, 'width': 410, 'height': 411, 'widthPercent': 0.45, 'rescaleHeight': False, 'trialN': 2, 'loaded': True, 'loadedTime': 2313, 'positionName': 'RIGHT', 'positionCoords': [998.4, 334.5], 'bid': 0.61}]",6313.800000071526,1669835417323,luckycharms,lox,1.96,0.61,-1.35,luckycharms,982.2999999523163,983,982.6000000238419,True,u,7800.5,1486.6999999284744,1669835418810,1487,HRV,HRV_0246,2022-11-30 19:16:30
3,"[{'imgObject': {}, 'id': 'burger', 'src': '/static/foodstim60/burger.jpg', 'key': 'u', 'origWidth': 409, 'origHeight': 409, 'width': 409, 'height': 409, 'widthPercent': 0.45, 'rescaleHeight': False, 'trialN': 3, 'loaded': True, 'loadedTime': 2390.4000000953674, 'positionName': 'LEFT', 'positionCoords': [512.6, 335.5], 'bid': 7.96}, {'imgObject': {}, 'id': 'salad w chicken', 'src': '/static/foodstim60/salad w chicken.jpg', 'key': 'i', 'origWidth': 411, 'origHeight': 411, 'width': 411, 'height': 411, 'widthPercent': 0.45, 'rescaleHeight': False, 'trialN': 3, 'loaded': True, 'loadedTime': 2199.3000000715256, 'positionName': 'RIGHT', 'positionCoords': [998.4, 334.5], 'bid': 8.870000000000001}]",7800.700000047684,1669835418810,burger,salad w chicken,7.96,8.870000000000001,0.910000000000001,burger,1168.6000000238419,1170,1169.2999999523163,True,u,9472.300000071526,1671.6000000238419,1669835420482,1672,HRV,HRV_0246,2022-11-30 19:16:30
4,"[{'imgObject': {}, 'id': 'eggs', 'src': '/static/foodstim60/eggs.jpg', 'key': 'u', 'origWidth': 409, 'origHeight': 409, 'width': 409, 'height': 409, 'widthPercent': 0.45, 'rescaleHeight': False, 'trialN': 4, 'loaded': True, 'loadedTime': 2410.8000000715256, 'positionName': 'LEFT', 'positionCoords': [512.6, 335.5], 'bid': 5.0600000000000005}, {'imgObject': {}, 'id': 'veggieswithdip', 'src': '/static/foodstim60/veggieswithdip.jpg', 'key': 'i', 'origWidth': 409, 'origHeight': 409, 'width': 409, 'height': 409, 'widthPercent': 0.45, 'rescaleHeight': False, 'trialN': 4, 'loaded': True, 'loadedTime': 2443.7000000476837, 'positionName': 'RIGHT', 'positionCoords': [998.4, 335.5], 'bid': 9.62}]",9472.600000023842,1669835420482,eggs,veggieswithdip,5.0600000000000005,9.62,4.559999999999999,veggieswithdip,959.2000000476837,960,959.5,True,i,10936.5,1463.8999999761581,1669835421946,1464,HRV,HRV_0246,2022-11-30 19:16:30
5,"[{'imgObject': {}, 'id': 'steak', 'src': '/static/foodstim60/steak.jpg', 'key': 'u', 'origWidth': 410, 'origHeight': 410, 'width': 410, 'height': 410, 'widthPercent': 0.45, 'rescaleHeight': False, 'trialN': 5, 'loaded': True, 'loadedTime': 2466.8000000715256, 'positionName': 'LEFT', 'positionCoords': [511.6, 335], 'bid': 3.22}, {'imgObject': {}, 'id': 'luckycharms', 'src': '/static/foodstim60/luckycharms.jpg', 'key': 'i', 'origWidth': 410, 'origHeight': 409, 'width': 410, 'height': 409, 'widthPercent': 0.45, 'rescaleHeight': False, 'trialN': 5, 'loaded': True, 'loadedTime': 2258.3000000715256, 'positionName': 'RIGHT', 'positionCoords': [998.4, 335.5], 'bid': 1.96}]",10936.700000047684,1669835421946,steak,luckycharms,3.22,1.96,-1.2600000000000002,luckycharms,1248.0,1249,1248.6000000238419,True,i,12692.700000047684,1756.0,1669835423702,1756,HRV,HRV_0246,2022-11-30 19:16:30
6,"[{'imgObject': {}, 'id': 'lox', 'src': '/static/foodstim60/lox.jpg', 'key': 'u', 'origWidth': 410, 'origHeight': 411, 'width': 410, 'height': 411, 'widthPercent': 0.45, 'rescaleHeight': False, 'trialN': 6, 'loaded': True, 'loadedTime': 2314, 'positionName': 'LEFT', 'positionCoords': [511.6, 334.5], 'bid': 0.61}, {'imgObject': {}, 'id': 'kiwi', 'src': '/static/foodstim60/kiwi.jpg', 'key': 'i', 'origWidth': 410, 'origHeight': 410, 'width': 410, 'height': 410, 'widthPercent': 0.45, 'rescaleHeight': False, 'trialN': 6, 'loaded': True, 'loadedTime': 2486.4000000953674, 'positionName': 'RIGHT', 'positionCoords': [998.4, 335], 'bid': 2.82}]",12692.800000071526,1669835423703,lox,kiwi,0.61,2.82,2.21,kiwi,1259.6000000238419,1260,1260.1999999284744,True,i,14455.800000071526,1763.0,1669835425466,1763,HRV,HRV_0246,2022-11-30 19:16:30
7,"[{'imgObject': {}, 'id': 'olives', 'src': '/static/foodstim60/olives.jpg', 'key': 'u', 'origWidth': 410, 'origHeight': 410, 'width': 410, 'height': 410, 'widthPercent': 0.45, 'rescaleHeight': False, 'trialN': 7, 'loaded': True, 'loadedTime': 2516.7000000476837, 'positionName': 'LEFT', 'positionCoords': [511.6, 335], 'bid': 6.32}, {'imgObject': {}, 'id': 'blackbeanswithrice', 'src': '/static/foodstim60/blackbeanswithrice.jpg', 'key': 'i', 'origWidth': 410, 'origHeight': 410, 'width': 410, 'height': 410, 'widthPercent': 0.45, 'rescaleHeight': False, 'trialN': 7, 'loaded': True, 'loadedTime': 2537.4000000953674, 'positionName': 'RIGHT', 'positionCoords': [998.4, 335], 'bid': 1.43}]",14456.100000023842,1669835425466,olives,blackbeanswithrice,6.32,1.43,-4.890000000000001,olives,896.7000000476837,897,897.3000000715256,True,u,15859.5,1403.3999999761581,1669835426869,1403,HRV,HRV_0246,2022-11-30 19:16:30
8,"[{'imgObject': {}, 'id': 'lox', 'src': '/static/foodstim60/lox.jpg', 'key': 'u', 'origWidth': 410, 'origHeight': 411, 'width': 410, 'height': 411, 'widthPercent': 0.45, 'rescaleHeight': False, 'trialN': 8, 'loaded': True, 'loadedTime': 2324.5, 'positionName': 'LEFT', 'positionCoords': [511.6, 334.5], 'bid': 0.61}, {'imgObject': {}, 'id': 'corn cob', 'src': '/static/foodstim60/corn cob.jpg', 'key': 'i', 'origWidth': 411, 'origHeight': 411, 'width': 411, 'height': 411, 'widthPercent': 0.45, 'rescaleHeight': False, 'trialN': 8, 'loaded': True, 'loadedTime': 2541.3000000715256, 'positionName': 'RIGHT', 'positionCoords': [998.4, 334.5], 'bid': 3.09}]",15859.900000095367,1669835426870,lox,corn cob,0.61,3.09,2.48,corn cob,1043.2999999523163,1043,1043.6999999284744,True,i,17408.400000095367,1548.5,1669835428418,1548,HRV,HRV_0246,2022-11-30 19:16:30
9,"[{'imgObject': {}, 'id': 'mango', 'src': '/static/foodstim60/mango.jpg', 'key': 'u', 'origWidth': 411, 'origHeight': 411, 'width': 411, 'height': 411, 'widthPercent': 0.45, 'rescaleHeight': False, 'trialN': 9, 'loaded': True, 'loadedTime': 2568, 'positionName': 'LEFT', 'positionCoords': [510.6, 334.5], 'bid': 0.7000000000000001}, {'imgObject': {}, 'id': 'sweetpotato', 'src': '/static/foodstim60/sweetpotato.jpg', 'key': 'i', 'origWidth': 410, 'origHeight': 410, 'width': 410, 'height': 410, 'widthPercent': 0.45, 'rescaleHeight': False, 'trialN': 9, 'loaded': True, 'loadedTime': 2584.4000000953674, 'positionName': 'RIGHT', 'positionCoords': [998.4, 335], 'bid': 2.13}]",17408.700000047684,1669835428418,mango,sweetpotato,0.7000000000000001,2.13,1.4299999999999997,sweetpotato,1183.8999999761581,1185,1184.6000000238419,True,i,19096.200000047684,1687.5,1669835430106,1688,HRV,HRV_0246,2022-11-30 19:16:30
10,"[{'imgObject': {}, 'id': 'eggs', 'src': '/static/foodstim60/eggs.jpg', 'key': 'u', 'origWidth': 409, 'origHeight': 409, 'width': 409, 'height': 409, 'widthPercent': 0.45, 'rescaleHeight': False, 'trialN': 10, 'loaded': True, 'loadedTime': 2415.8000000715256, 'positionName': 'LEFT', 'positionCoords': [512.6, 335.5], 'bid': 5.0600000000000005}, {'imgObject': {}, 'id': 'grilled chicken strips', 'src': '/static/foodstim60/grilled chicken strips.jpg', 'key': 'i', 'origWidth': 410, 'origHeight': 411, 'width': 410, 'height': 411, 'widthPercent': 0.45, 'rescaleHeight': False, 'trialN': 10, 'loaded': True, 'loadedTime': 2614.600000023842, 'positionName': 'RIGHT', 'positionCoords': [998.4, 334.5], 'bid': 6.16}]",19096.300000071526,1669835430106,eggs,grilled chicken strips,5.0600000000000005,6.16,1.0999999999999996,grilled chicken strips,1232.6000000238419,1233,1233.1999999284744,True,i,20832.100000023842,1735.7999999523163,1669835431842,1736,HRV,HRV_0246,2022-11-30 19:16:30
11,"[{'imgObject': {}, 'id': 'chickenfingers', 'src': '/static/foodstim60/chickenfingers.jpg', 'key': 'u', 'origWidth': 410, 'origHeight': 410, 'width': 410, 'height': 410, 'widthPercent': 0.45, 'rescaleHeight': False, 'trialN': 11, 'loaded': True, 'loadedTime': 2633.5, 'positionName': 'LEFT', 'positionCoords': [511.6, 335], 'bid': 8.72}, {'imgObject': {}, 'id': 'mac & cheese', 'src': '/static/foodstim60/mac & cheese.jpg', 'key': 'i', 'origWidth': 410, 'origHeight': 410, 'width': 410, 'height': 410, 'widthPercent': 0.45, 'rescaleHeight': False, 'trialN': 11, 'loaded': True, 'loadedTime': 2662.4000000953674, 'positionName': 'RIGHT', 'positionCoords': [998.4, 335], 'bid': 9.92}]",20832.200000047684,1669835431842,chickenfingers,mac & cheese,8.72,9.92,1.1999999999999993,mac & cheese,1240.3999999761581,1241,1240.7000000476837,True,i,22576.400000095367,1744.2000000476837,1669835433586,1744,HRV,HRV_0246,2022-11-30 19:16:30
12,"[{'imgObject': {}, 'id': 'baked potato', 'src': '/static/foodstim60/baked potato.jpg', 'key': 'u', 'origWidth': 409, 'origHeight': 410, 'width': 409, 'height': 410, 'widthPercent': 0.45, 'rescaleHeight': False, 'trialN': 12, 'loaded': True, 'loadedTime': 2672.5, 'positionName': 'LEFT', 'positionCoords': [512.6, 335], 'bid': 2.57}, {'imgObject': {}, 'id': 'seaweed', 'src': '/static/foodstim60/seaweed.jpg', 'key': 'i', 'origWidth': 410, 'origHeight': 410, 'width': 410, 'height': 410, 'widthPercent': 0.45, 'rescaleHeight': False, 'trialN': 12, 'loaded': True, 'loadedTime': 2704.100000023842, 'positionName': 'RIGHT', 'positionCoords': [998.4, 335], 'bid': 0.1}]",22576.700000047684,1669835433586,baked potato,seaweed,2.57,0.1,-2.4699999999999998,baked potato,920.1000000238419,921,920.7000000476837,True,u,24000.0,1423.2999999523163,1669835435010,1424,HRV,HRV_0246,2022-11-30 19:16:30
13,"[{'imgObject': {}, 'id': 'mango', 'src': '/static/foodstim60/mango.jpg', 'key': 'u', 'origWidth': 411, 'origHeight': 411, 'width': 411, 'height': 411, 'widthPercent': 0.45, 'rescaleHeight': False, 'trialN': 13, 'loaded': True, 'loadedTime': 2553.9000000953674, 'positionName': 'LEFT', 'positionCoords': [510.6, 334.5], 'bid': 0.7000000000000001}, {'imgObject': {}, 'id': 'yogurt no spoon', 'src': '/static/foodstim60/yogurt no spoon.jpg', 'key': 'i', 'origWidth': 411, 'origHeight': 410, 'width': 411, 'height': 410, 'widthPercent': 0.45, 'rescaleHeight': False, 'trialN': 13, 'loaded': True, 'loadedTime': 2722.5, 'positionName': 'RIGHT', 'positionCoords': [998.4, 335], 'bid': 6.01}]",24000.200000047684,1669835435010,mango,yogurt no spoon,0.7000000000000001,6.01,5.31,yogurt no spoon,1016.3999999761581,1017,1017.2000000476837,True,i,25520.400000095367,1520.2000000476837,1669835436530,1520,HRV,HRV_0246,2022-11-30 19:16:30
14,"[{'imgObject': {}, 'id': 'cherry tomato', 'src': '/static/foodstim60/cherry tomato.jpg', 'key': 'u', 'origWidth': 410, 'origHeight': 410, 'width': 410, 'height': 410, 'widthPercent': 0.45, 'rescaleHeight': False, 'trialN': 14, 'loaded': True, 'loadedTime': 2722.9000000953674, 'positionName': 'LEFT', 'positionCoords': [511.6, 335], 'bid': 2.85}, {'imgObject': {}, 'id': 'strawberries', 'src': '/static/foodstim60/strawberries.jpg', 'key': 'i', 'origWidth': 410, 'origHeight': 410, 'width': 410, 'height': 410, 'widthPercent': 0.45, 'rescaleHeight': False, 'trialN': 14, 'loaded': True, 'loadedTime': 2774.5, 'positionName': 'RIGHT', 'positionCoords': [998.4, 335], 'bid': 5.01}]",25520.600000023842,1669835436530,cherry tomato,strawberries,2.85,5.01,2.1599999999999997,strawberries,880.2000000476837,881,880.8000000715256,True,i,26904.600000023842,1384.0,1669835437914,1384,HRV,HRV_0246,2022-11-30 19:16:30
15,"[{'imgObject': {}, 'id': 'rigatoni', 'src': '/static/foodstim60/rigatoni.jpg', 'key': 'u', 'origWidth': 411, 'origHeight': 411, 'width': 411, 'height': 411, 'widthPercent': 0.45, 'rescaleHeight': False, 'trialN': 15, 'loaded': True, 'loadedTime': 2790.100000023842, 'positionName': 'LEFT', 'positionCoords': [510.6, 334.5], 'bid': 2.52}, {'imgObject': {}, 'id': 'Grapes', 'src': '/static/foodstim60/Grapes.jpg', 'key': 'i', 'origWidth': 411, 'origHeight': 411, 'width': 411, 'height': 411, 'widthPercent': 0.45, 'rescaleHeight': False, 'trialN': 15, 'loaded': True, 'loadedTime': 2794.2000000476837, 'positionName': 'RIGHT', 'positionCoords': [998.4, 334.5], 'bid': 3.47}]",26904.800000071526,1669835437915,rigatoni,Grapes,2.52,3.47,0.9500000000000002,Grapes,1656.7999999523163,1658,1657.5,True,i,29065.0,2160.1999999284744,1669835440075,2160,HRV,HRV_0246,2022-11-30 19:16:30
16,"[{'imgObject': {}, 'id': 'baked potato', 'src': '/static/foodstim60/baked potato.jpg', 'key': 'u', 'origWidth': 409, 'origHeight': 410, 'width': 409, 'height': 410, 'widthPercent': 0.45, 'rescaleHeight': False, 'trialN': 16, 'loaded': True, 'loadedTime': 2690.8000000715256, 'positionName': 'LEFT', 'positionCoords': [512.6, 335], 'bid': 2.57}, {'imgObject': {}, 'id': 'omelette', 'src': '/static/foodstim60/omelette.jpg', 'key': 'i', 'origWidth': 410, 'origHeight': 409, 'width': 410, 'height': 409, 'widthPercent': 0.45, 'rescaleHeight': False, 'trialN': 16, 'loaded': True, 'loadedTime': 2369.4000000953674, 'positionName': 'RIGHT', 'positionCoords': [998.4, 335.5], 'bid': 6.91}]",29065.100000023842,1669835440076,baked potato,omelette,2.57,6.91,4.34,omelette,1096.8999999761581,1097,1097.5,True,i,30664.100000023842,1599.0,1669835441675,1599,HRV,HRV_0246,2022-11-30 19:16:30
17,"[{'imgObject': {}, 'id': 'turkey sandwich', 'src': '/static/foodstim60/turkey sandwich.jpg', 'key': 'u', 'origWidth': 409, 'origHeight': 409, 'width': 409, 'height': 409, 'widthPercent': 0.45, 'rescaleHeight': False, 'trialN': 17, 'loaded': True, 'loadedTime': 2813.3000000715256, 'positionName': 'LEFT', 'positionCoords': [512.6, 335.5], 'bid': 8.36}, {'imgObject': {}, 'id': 'banana', 'src': '/static/foodstim60/banana.jpg', 'key': 'i', 'origWidth': 410, 'origHeight': 410, 'width': 410, 'height': 410, 'widthPercent': 0.45, 'rescaleHeight': False, 'trialN': 17, 'loaded': True, 'loadedTime': 2848.8000000715256, 'positionName': 'RIGHT', 'positionCoords': [998.4, 335], 'bid': 3.73}]",30664.200000047684,1669835441675,turkey sandwich,banana,8.36,3.73,-4.629999999999999,turkey sandwich,911.5,911,911.8999999761581,True,u,32080.300000071526,1416.1000000238419,1669835443091,1416,HRV,HRV_0246,2022-11-30 19:16:30
18,"[{'imgObject': {}, 'id': 'yogurt no spoon', 'src': '/static/foodstim60/yogurt no spoon.jpg', 'key': 'u', 'origWidth': 411, 'origHeight': 410, 'width': 411, 'height': 410, 'widthPercent': 0.45, 'rescaleHeight': False, 'trialN': 18, 'loaded': True, 'loadedTime': 2704.3000000715256, 'positionName': 'LEFT', 'positionCoords': [510.6, 335], 'bid': 6.01}, {'imgObject': {}, 'id': 'raspberries', 'src': '/static/foodstim60/raspberries.jpg', 'key': 'i', 'origWidth': 411, 'origHeight': 411, 'width': 411, 'height': 411, 'widthPercent': 0.45, 'rescaleHeight': False, 'trialN': 18, 'loaded': True, 'loadedTime': 2866.4000000953674, 'positionName': 'RIGHT', 'positionCoords': [998.4, 334.5], 'bid': 4.1}]",32080.400000095367,1669835443091,yogurt no spoon,raspberries,6.01,4.1,-1.9100000000000001,yogurt no spoon,995.0999999046326,995,995.3999999761581,True,u,33576.200000047684,1495.7999999523163,1669835444586,1495,HRV,HRV_0246,2022-11-30 19:16:30
19,"[{'imgObject': {}, 'id': 'raisin bran w milk', 'src': '/static/foodstim60/raisin bran w milk.jpg', 'key': 'u', 'origWidth': 411, 'origHeight': 411, 'width': 411, 'height': 411, 'widthPercent': 0.45, 'rescaleHeight': False, 'trialN': 19, 'loaded': True, 'loadedTime': 2875.9000000953674, 'positionName': 'LEFT', 'positionCoords': [510.6, 334.5], 'bid': 3.01}, {'imgObject': {}, 'id': 'cherry tomato', 'src': '/static/foodstim60/cherry tomato.jpg', 'key': 'i', 'origWidth': 410, 'origHeight': 410, 'width': 410, 'height': 410, 'widthPercent': 0.45, 'rescaleHeight': False, 'trialN': 19, 'loaded': True, 'loadedTime': 2738.4000000953674, 'positionName': 'RIGHT', 'positionCoords': [998.4, 335], 'bid': 2.85}]",33576.300000071526,1669835444587,raisin bran w milk,cherry tomato,3.01,2.85,-0.1599999999999997,raisin bran w milk,1263.1000000238419,1263,1263.3999999761581,True,u,35345.0,1768.6999999284744,1669835446355,1768,HRV,HRV_0246,2022-11-30 19:16:30
20,"[{'imgObject': {}, 'id': 'granola w milk', 'src': '/static/foodstim60/granola w milk.jpg', 'key': 'u', 'origWidth': 410, 'origHeight': 410, 'width': 410, 'height': 410, 'widthPercent': 0.45, 'rescaleHeight': False, 'trialN': 20, 'loaded': True, 'loadedTime': 2880, 'positionName': 'LEFT', 'positionCoords': [511.6, 335], 'bid': 4.07}, {'imgObject': {}, 'id': 'edamame', 'src': '/static/foodstim60/edamame.jpg', 'key': 'i', 'origWidth': 409, 'origHeight': 410, 'width': 409, 'height': 410, 'widthPercent': 0.45, 'rescaleHeight': False, 'trialN': 20, 'loaded': True, 'loadedTime': 2920.100000023842, 'positionName': 'RIGHT', 'positionCoords': [998.4, 335], 'bid': 1.88}]",35345.200000047684,1669835446356,granola w milk,edamame,4.07,1.88,-2.1900000000000004,granola w milk,1375.3999999761581,1376,1376.0,True,u,37223.90000009537,1878.7000000476837,1669835448234,1878,HRV,HRV_0246,2022-11-30 19:16:30
21,"[{'imgObject': {}, 'id': 'chicken nuggets2', 'src': '/static/foodstim60/chicken nuggets2.jpg', 'key': 'u', 'origWidth': 410, 'origHeight': 409, 'width': 410, 'height': 409, 'widthPercent': 0.45, 'rescaleHeight': False, 'trialN': 21, 'loaded': True, 'loadedTime': 2942.600000023842, 'positionName': 'LEFT', 'positionCoords': [511.6, 335.5], 'bid': 7.96}, {'imgObject': {}, 'id': 'hotdog w must', 'src': '/static/foodstim60/hotdog w must.jpg', 'key': 'i', 'origWidth': 409, 'origHeight': 409, 'width': 409, 'height': 409, 'widthPercent': 0.45, 'rescaleHeight': False, 'trialN': 21, 'loaded': True, 'loadedTime': 2968.7000000476837, 'positionName': 'RIGHT', 'positionCoords': [998.4, 335.5], 'bid': 6.71}]",37224.10000002384,1669835448234,chicken nuggets2,hotdog w must,7.96,6.71,-1.25,chicken nuggets2,1137.3000000715256,1138,1138.0,True,u,38863.700000047684,1639.6000000238419,1669835449874,1640,HRV,HRV_0246,2022-11-30 19:16:30
22,"[{'imgObject': {}, 'id': 'edamame', 'src': '/static/foodstim60/edamame.jpg', 'key': 'u', 'origWidth': 409, 'origHeight': 410, 'width': 409, 'height': 410, 'widthPercent': 0.45, 'rescaleHeight': False, 'trialN': 22, 'loaded': True, 'loadedTime': 2924.5, 'positionName': 'LEFT', 'positionCoords': [512.6, 335], 'bid': 1.88}, {'imgObject': {}, 'id': 'seaweed', 'src': '/static/foodstim60/seaweed.jpg', 'key': 'i', 'origWidth': 410, 'origHeight': 410, 'width': 410, 'height': 410, 'widthPercent': 0.45, 'rescaleHeight': False, 'trialN': 22, 'loaded': True, 'loadedTime': 2696.2000000476837, 'positionName': 'RIGHT', 'positionCoords': [998.4, 335], 'bid': 0.1}]",38863.800000071526,1669835449874,edamame,seaweed,1.88,0.1,-1.7799999999999998,edamame,1376.8999999761581,1378,1377.5,True,u,40744.700000047684,1880.8999999761581,1669835451755,1881,HRV,HRV_0246,2022-11-30 19:16:30
23,"[{'imgObject': {}, 'id': 'luckycharms', 'src': '/static/foodstim60/luckycharms.jpg', 'key': 'u', 'origWidth': 410, 'origHeight': 409, 'width': 410, 'height': 409, 'widthPercent': 0.45, 'rescaleHeight': False, 'trialN': 23, 'loaded': True, 'loadedTime': 2262.600000023842, 'positionName': 'LEFT', 'positionCoords': [511.6, 335.5], 'bid': 1.96}, {'imgObject': {}, 'id': 'edamame', 'src': '/static/foodstim60/edamame.jpg', 'key': 'i', 'origWidth': 409, 'origHeight': 410, 'width': 409, 'height': 410, 'widthPercent': 0.45, 'rescaleHeight': False, 'trialN': 23, 'loaded': True, 'loadedTime': 2919.9000000953674, 'positionName': 'RIGHT', 'positionCoords': [998.4, 335], 'bid': 1.88}]",40744.800000071526,1669835451755,luckycharms,edamame,1.96,1.88,-0.08000000000000007,luckycharms,1239.8999999761581,1241,1240.2999999523163,True,u,42487.40000009537,1742.6000000238419,1669835453498,1743,HRV,HRV_0246,2022-11-30 19:16:30
24,"[{'imgObject': {}, 'id': 'veggieswithdip', 'src': '/static/foodstim60/veggieswithdip.jpg', 'key': 'u', 'origWidth': 409, 'origHeight': 409, 'width': 409, 'height': 409, 'widthPercent': 0.45, 'rescaleHeight': False, 'trialN': 24, 'loaded': True, 'loadedTime': 2439.600000023842, 'positionName': 'LEFT', 'positionCoords': [512.6, 335.5], 'bid': 9.62}, {'imgObject': {}, 'id': 'fruitsalad', 'src': '/static/foodstim60/fruitsalad.jpg', 'key': 'i', 'origWidth': 410, 'origHeight': 410, 'width': 410, 'height': 410, 'widthPercent': 0.45, 'rescaleHeight': False, 'trialN': 24, 'loaded': True, 'loadedTime': 2985.5, 'positionName': 'RIGHT', 'positionCoords': [998.4, 335], 'bid': 8.65}]",42487.60000002384,1669835453498,veggieswithdip,fruitsalad,9.62,8.65,-0.9699999999999989,veggieswithdip,1009.8000000715256,1010,1010.3000000715256,True,u,44000.800000071526,1513.2000000476837,1669835455011,1513,HRV,HRV_0246,2022-11-30 19:16:30
25,"[{'imgObject': {}, 'id': 'froot loops w milk', 'src': '/static/foodstim60/froot loops w milk.jpg', 'key': 'u', 'origWidth': 410, 'origHeight': 410, 'width': 410, 'height': 410, 'widthPercent': 0.45, 'rescaleHeight': False, 'trialN': 25, 'loaded': True, 'loadedTime': 3000.5, 'positionName': 'LEFT', 'positionCoords': [511.6, 335], 'bid': 4.97}, {'imgObject': {}, 'id': 'kiwi', 'src': '/static/foodstim60/kiwi.jpg', 'key': 'i', 'origWidth': 410, 'origHeight': 410, 'width': 410, 'height': 410, 'widthPercent': 0.45, 'rescaleHeight': False, 'trialN': 25, 'loaded': True, 'loadedTime': 2467, 'positionName': 'RIGHT', 'positionCoords': [998.4, 335], 'bid': 2.82}]",44001.0,1669835455011,froot loops w milk,kiwi,4.97,2.82,-2.15,froot loops w milk,1239.8000000715256,1241,1240.4000000953674,True,u,45744.700000047684,1743.7000000476837,1669835456755,1744,HRV,HRV_0246,2022-11-30 19:16:30
26,"[{'imgObject': {}, 'id': 'sushi w_condiments', 'src': '/static/foodstim60/sushi w_condiments.jpg', 'key': 'u', 'origWidth': 410, 'origHeight': 410, 'width': 410, 'height': 410, 'widthPercent': 0.45, 'rescaleHeight': False, 'trialN': 26, 'loaded': True, 'loadedTime': 3012.8000000715256, 'positionName': 'LEFT', 'positionCoords': [511.6, 335], 'bid': 0.77}, {'imgObject': {}, 'id': 'mango', 'src': '/static/foodstim60/mango.jpg', 'key': 'i', 'origWidth': 411, 'origHeight': 411, 'width': 411, 'height': 411, 'widthPercent': 0.45, 'rescaleHeight': False, 'trialN': 26, 'loaded': True, 'loadedTime': 2562.8000000715256, 'positionName': 'RIGHT', 'positionCoords': [998.4, 334.5], 'bid': 0.7000000000000001}]",45744.90000009537,1669835456755,sushi w_condiments,mango,0.77,0.7000000000000001,-0.06999999999999995,sushi w_condiments,1272.0,1273,1272.6999999284744,True,u,47519.5,1774.5999999046326,1669835458530,1775,HRV,HRV_0246,2022-11-30 19:16:30
27,"[{'imgObject': {}, 'id': 'seaweed', 'src': '/static/foodstim60/seaweed.jpg', 'key': 'u', 'origWidth': 410, 'origHeight': 410, 'width': 410, 'height': 410, 'widthPercent': 0.45, 'rescaleHeight': False, 'trialN': 27, 'loaded': True, 'loadedTime': 2696.100000023842, 'positionName': 'LEFT', 'positionCoords': [511.6, 335], 'bid': 0.1}, {'imgObject': {}, 'id': 'lox', 'src': '/static/foodstim60/lox.jpg', 'key': 'i', 'origWidth': 410, 'origHeight': 411, 'width': 410, 'height': 411, 'widthPercent': 0.45, 'rescaleHeight': False, 'trialN': 27, 'loaded': True, 'loadedTime': 2328.5, 'positionName': 'RIGHT', 'positionCoords': [998.4, 334.5], 'bid': 0.61}]",47519.700000047684,1669835458530,seaweed,lox,0.1,0.61,0.51,seaweed,1656.3999999761581,1657,1656.7000000476837,True,u,49680.40000009537,2160.7000000476837,1669835460691,2161,HRV,HRV_0246,2022-11-30 19:16:30
28,"[{'imgObject': {}, 'id': 'steak', 'src': '/static/foodstim60/steak.jpg', 'key': 'u', 'origWidth': 410, 'origHeight': 410, 'width': 410, 'height': 410, 'widthPercent': 0.45, 'rescaleHeight': False, 'trialN': 28, 'loaded': True, 'loadedTime': 2448.4000000953674, 'positionName': 'LEFT', 'positionCoords': [511.6, 335], 'bid': 3.22}, {'imgObject': {}, 'id': 'corn cob', 'src': '/static/foodstim60/corn cob.jpg', 'key': 'i', 'origWidth': 411, 'origHeight': 411, 'width': 411, 'height': 411, 'widthPercent': 0.45, 'rescaleHeight': False, 'trialN': 28, 'loaded': True, 'loadedTime': 2553.8000000715256, 'positionName': 'RIGHT', 'positionCoords': [998.4, 334.5], 'bid': 3.09}]",49680.5,1669835460691,steak,corn cob,3.22,3.09,-0.13000000000000034,steak,1072.2000000476837,1073,1072.9000000953674,True,u,51255.5,1575.0,1669835462266,1575,HRV,HRV_0246,2022-11-30 19:16:30
29,"[{'imgObject': {}, 'id': 'yogurt no spoon', 'src': '/static/foodstim60/yogurt no spoon.jpg', 'key': 'u', 'origWidth': 411, 'origHeight': 410, 'width': 411, 'height': 410, 'widthPercent': 0.45, 'rescaleHeight': False, 'trialN': 29, 'loaded': True, 'loadedTime': 2713.3000000715256, 'positionName': 'LEFT', 'positionCoords': [510.6, 335], 'bid': 6.01}, {'imgObject': {}, 'id': 'burrito', 'src': '/static/foodstim60/burrito.jpg', 'key': 'i', 'origWidth': 410, 'origHeight': 410, 'width': 410, 'height': 410, 'widthPercent': 0.45, 'rescaleHeight': False, 'trialN': 29, 'loaded': True, 'loadedTime': 3022.3000000715256, 'positionName': 'RIGHT', 'positionCoords': [998.4, 335], 'bid': 6.01}]",51255.700000047684,1669835462266,yogurt no spoon,burrito,6.01,6.01,0.0,burrito,1385.1000000238419,1386,1385.7000000476837,True,i,53144.200000047684,1888.5,1669835464155,1889,HRV,HRV_0246,2022-11-30 19:16:30
30,"[{'imgObject': {}, 'id': 'chickenfingers', 'src': '/static/foodstim60/chickenfingers.jpg', 'key': 'u', 'origWidth': 410, 'origHeight': 410, 'width': 410, 'height': 410, 'widthPercent': 0.45, 'rescaleHeight': False, 'trialN': 30, 'loaded': True, 'loadedTime': 2625.600000023842, 'positionName': 'LEFT', 'positionCoords': [511.6, 335], 'bid': 8.72}, {'imgObject': {}, 'id': 'tacos', 'src': '/static/foodstim60/tacos.jpg', 'key': 'i', 'origWidth': 411, 'origHeight': 411, 'width': 411, 'height': 411, 'widthPercent': 0.45, 'rescaleHeight': False, 'trialN': 30, 'loaded': True, 'loadedTime': 3036.3000000715256, 'positionName': 'RIGHT', 'positionCoords': [998.4, 334.5], 'bid': 8.84}]",53144.300000071526,1669835464155,chickenfingers,tacos,8.72,8.84,0.11999999999999922,tacos,1017.5,1017,1017.6000000238419,True,i,54664.300000071526,1520.0,1669835465675,1520,HRV,HRV_0246,2022-11-30 19:16:30
31,"[{'imgObject': {}, 'id': 'eggsalad', 'src': '/static/foodstim60/eggsalad.jpg', 'key': 'u', 'origWidth': 410, 'origHeight': 409, 'width': 410, 'height': 409, 'widthPercent': 0.45, 'rescaleHeight': False, 'trialN': 31, 'loaded': True, 'loadedTime': 3049.7000000476837, 'positionName': 'LEFT', 'positionCoords': [511.6, 335.5], 'bid': 6.36}, {'imgObject': {}, 'id': 'bagel plain', 'src': '/static/foodstim60/bagel plain.jpg', 'key': 'i', 'origWidth': 410, 'origHeight': 410, 'width': 410, 'height': 410, 'widthPercent': 0.45, 'rescaleHeight': False, 'trialN': 31, 'loaded': True, 'loadedTime': 3059.2000000476837, 'positionName': 'RIGHT', 'positionCoords': [998.4, 335], 'bid': 6.4}]",54664.5,1669835465675,eggsalad,bagel plain,6.36,6.4,0.040000000000000036,bagel plain,1776.4000000953674,1777,1777.0,True,i,56944.10000002384,2279.600000023842,1669835467954,2279,HRV,HRV_0246,2022-11-30 19:16:30
32,"[{'imgObject': {}, 'id': 'granola w milk', 'src': '/static/foodstim60/granola w milk.jpg', 'key': 'u', 'origWidth': 410, 'origHeight': 410, 'width': 410, 'height': 410, 'widthPercent': 0.45, 'rescaleHeight': False, 'trialN': 32, 'loaded': True, 'loadedTime': 2902.600000023842, 'positionName': 'LEFT', 'positionCoords': [511.6, 335], 'bid': 4.07}, {'imgObject': {}, 'id': 'blueberries', 'src': '/static/foodstim60/blueberries.jpg', 'key': 'i', 'origWidth': 411, 'origHeight': 411, 'width': 411, 'height': 411, 'widthPercent': 0.45, 'rescaleHeight': False, 'trialN': 32, 'loaded': True, 'loadedTime': 3076.5, 'positionName': 'RIGHT', 'positionCoords': [998.4, 334.5], 'bid': 5.76}]",56944.200000047684,1669835467955,granola w milk,blueberries,4.07,5.76,1.6899999999999995,blueberries,1600.8999999761581,1601,1601.3999999761581,True,i,59048.200000047684,2104.0,1669835470058,2103,HRV,HRV_0246,2022-11-30 19:16:30
33,"[{'imgObject': {}, 'id': 'sushi w_condiments', 'src': '/static/foodstim60/sushi w_condiments.jpg', 'key': 'u', 'origWidth': 410, 'origHeight': 410, 'width': 410, 'height': 410, 'widthPercent': 0.45, 'rescaleHeight': False, 'trialN': 33, 'loaded': True, 'loadedTime': 3012.7000000476837, 'positionName': 'LEFT', 'positionCoords': [511.6, 335], 'bid': 0.77}, {'imgObject': {}, 'id': 'rigatoni', 'src': '/static/foodstim60/rigatoni.jpg', 'key': 'i', 'origWidth': 411, 'origHeight': 411, 'width': 411, 'height': 411, 'widthPercent': 0.45, 'rescaleHeight': False, 'trialN': 33, 'loaded': True, 'loadedTime': 2774.8000000715256, 'positionName': 'RIGHT', 'positionCoords': [998.4, 334.5], 'bid': 2.52}]",59048.300000071526,1669835470059,sushi w_condiments,rigatoni,0.77,2.52,1.75,sushi w_condiments,1408.6000000238419,1409,1409.2999999523163,True,u,60961.200000047684,1912.8999999761581,1669835471972,1913,HRV,HRV_0246,2022-11-30 19:16:30
34,"[{'imgObject': {}, 'id': 'Tribe humus pita', 'src': '/static/foodstim60/Tribe humus pita.jpg', 'key': 'u', 'origWidth': 411, 'origHeight': 411, 'width': 411, 'height': 411, 'widthPercent': 0.45, 'rescaleHeight': False, 'trialN': 34, 'loaded': True, 'loadedTime': 3092.8000000715256, 'positionName': 'LEFT', 'positionCoords': [510.6, 334.5], 'bid': 7.29}, {'imgObject': {}, 'id': 'avocado', 'src': '/static/foodstim60/avocado.jpg', 'key': 'i', 'origWidth': 409, 'origHeight': 409, 'width': 409, 'height': 409, 'widthPercent': 0.45, 'rescaleHeight': False, 'trialN': 34, 'loaded': True, 'loadedTime': 3107.8000000715256, 'positionName': 'RIGHT', 'positionCoords': [998.4, 335.5], 'bid': 8.07}]",60961.300000071526,1669835471972,Tribe humus pita,avocado,7.29,8.07,0.7800000000000002,avocado,2294.399999976158,2294,2294.600000023842,True,i,63761.5,2800.1999999284744,1669835474772,2800,HRV,HRV_0246,2022-11-30 19:16:30
35,"[{'imgObject': {}, 'id': 'omelette', 'src': '/static/foodstim60/omelette.jpg', 'key': 'u', 'origWidth': 410, 'origHeight': 409, 'width': 410, 'height': 409, 'widthPercent': 0.45, 'rescaleHeight': False, 'trialN': 35, 'loaded': True, 'loadedTime': 2365.2000000476837, 'positionName': 'LEFT', 'positionCoords': [511.6, 335.5], 'bid': 6.91}, {'imgObject': {}, 'id': 'turkey sandwich', 'src': '/static/foodstim60/turkey sandwich.jpg', 'key': 'i', 'origWidth': 409, 'origHeight': 409, 'width': 409, 'height': 409, 'widthPercent': 0.45, 'rescaleHeight': False, 'trialN': 35, 'loaded': True, 'loadedTime': 2820.5, 'positionName': 'RIGHT', 'positionCoords': [998.4, 335.5], 'bid': 8.36}]",63761.700000047684,1669835474772,omelette,turkey sandwich,6.91,8.36,1.4499999999999993,turkey sandwich,767.7000000476837,769,768.5,True,i,65032.200000047684,1270.5,1669835476043,1271,HRV,HRV_0246,2022-11-30 19:16:30
36,"[{'imgObject': {}, 'id': 'granola w milk', 'src': '/static/foodstim60/granola w milk.jpg', 'key': 'u', 'origWidth': 410, 'origHeight': 410, 'width': 410, 'height': 410, 'widthPercent': 0.45, 'rescaleHeight': False, 'trialN': 36, 'loaded': True, 'loadedTime': 2885.100000023842, 'positionName': 'LEFT', 'positionCoords': [511.6, 335], 'bid': 4.07}, {'imgObject': {}, 'id': 'banana', 'src': '/static/foodstim60/banana.jpg', 'key': 'i', 'origWidth': 410, 'origHeight': 410, 'width': 410, 'height': 410, 'widthPercent': 0.45, 'rescaleHeight': False, 'trialN': 36, 'loaded': True, 'loadedTime': 2835.5, 'positionName': 'RIGHT', 'positionCoords': [998.4, 335], 'bid': 3.73}]",65032.40000009537,1669835476043,granola w milk,banana,4.07,3.73,-0.3400000000000003,granola w milk,1024.5,1025,1024.8999999761581,True,u,66560.80000007153,1528.3999999761581,1669835477571,1528,HRV,HRV_0246,2022-11-30 19:16:30
37,"[{'imgObject': {}, 'id': 'strawberries', 'src': '/static/foodstim60/strawberries.jpg', 'key': 'u', 'origWidth': 410, 'origHeight': 410, 'width': 410, 'height': 410, 'widthPercent': 0.45, 'rescaleHeight': False, 'trialN': 37, 'loaded': True, 'loadedTime': 2751.3000000715256, 'positionName': 'LEFT', 'positionCoords': [511.6, 335], 'bid': 5.01}, {'imgObject': {}, 'id': 'popsicles', 'src': '/static/foodstim60/popsicles.jpg', 'key': 'i', 'origWidth': 410, 'origHeight': 410, 'width': 410, 'height': 410, 'widthPercent': 0.45, 'rescaleHeight': False, 'trialN': 37, 'loaded': True, 'loadedTime': 3215.2000000476837, 'positionName': 'RIGHT', 'positionCoords': [998.4, 335], 'bid': 4.92}]",66560.90000009537,1669835477571,strawberries,popsicles,5.01,4.92,-0.08999999999999986,strawberries,1367.0,1368,1367.5,True,u,68433.20000004768,1872.2999999523163,1669835479444,1873,HRV,HRV_0246,2022-11-30 19:16:30
38,"[{'imgObject': {}, 'id': 'salmon', 'src': '/static/foodstim60/salmon.jpg', 'key': 'u', 'origWidth': 410, 'origHeight': 409, 'width': 410, 'height': 409, 'widthPercent': 0.45, 'rescaleHeight': False, 'trialN': 38, 'loaded': True, 'loadedTime': 3108.7000000476837, 'positionName': 'LEFT', 'positionCoords': [511.6, 335.5], 'bid': 5.34}, {'imgObject': {}, 'id': 'olives', 'src': '/static/foodstim60/olives.jpg', 'key': 'i', 'origWidth': 410, 'origHeight': 410, 'width': 410, 'height': 410, 'widthPercent': 0.45, 'rescaleHeight': False, 'trialN': 38, 'loaded': True, 'loadedTime': 2508.8000000715256, 'positionName': 'RIGHT', 'positionCoords': [998.4, 335], 'bid': 6.32}]",68433.40000009537,1669835479444,salmon,olives,5.34,6.32,0.9800000000000004,olives,1270.1999999284744,1270,1270.3999999761581,True,i,70207.40000009537,1774.0,1669835481218,1774,HRV,HRV_0246,2022-11-30 19:16:30
39,"[{'imgObject': {}, 'id': 'avocado', 'src': '/static/foodstim60/avocado.jpg', 'key': 'u', 'origWidth': 409, 'origHeight': 409, 'width': 409, 'height': 409, 'widthPercent': 0.45, 'rescaleHeight': False, 'trialN': 39, 'loaded': True, 'loadedTime': 3105.8000000715256, 'positionName': 'LEFT', 'positionCoords': [512.6, 335.5], 'bid': 8.07}, {'imgObject': {}, 'id': 'chicken nuggets2', 'src': '/static/foodstim60/chicken nuggets2.jpg', 'key': 'i', 'origWidth': 410, 'origHeight': 409, 'width': 410, 'height': 409, 'widthPercent': 0.45, 'rescaleHeight': False, 'trialN': 39, 'loaded': True, 'loadedTime': 2951.4000000953674, 'positionName': 'RIGHT', 'positionCoords': [998.4, 335.5], 'bid': 7.96}]",70207.60000002384,1669835481218,avocado,chicken nuggets2,8.07,7.96,-0.11000000000000032,avocado,1721.1000000238419,1722,1721.8000000715256,True,u,72432.0,2224.399999976158,1669835483442,2224,HRV,HRV_0246,2022-11-30 19:16:30
40,"[{'imgObject': {}, 'id': 'mango', 'src': '/static/foodstim60/mango.jpg', 'key': 'u', 'origWidth': 411, 'origHeight': 411, 'width': 411, 'height': 411, 'widthPercent': 0.45, 'rescaleHeight': False, 'trialN': 40, 'loaded': True, 'loadedTime': 2584.2000000476837, 'positionName': 'LEFT', 'positionCoords': [510.6, 334.5], 'bid': 0.7000000000000001}, {'imgObject': {}, 'id': 'steak', 'src': '/static/foodstim60/steak.jpg', 'key': 'i', 'origWidth': 410, 'origHeight': 410, 'width': 410, 'height': 410, 'widthPercent': 0.45, 'rescaleHeight': False, 'trialN': 40, 'loaded': True, 'loadedTime': 2459.7000000476837, 'positionName': 'RIGHT', 'positionCoords': [998.4, 335], 'bid': 3.22}]",72432.20000004768,1669835483443,mango,steak,0.7000000000000001,3.22,2.52,steak,888.3999999761581,888,888.7999999523163,True,i,73824.40000009537,1392.2000000476837,1669835484835,1392,HRV,HRV_0246,2022-11-30 19:16:30
41,"[{'imgObject': {}, 'id': 'chickenfingers', 'src': '/static/foodstim60/chickenfingers.jpg', 'key': 'u', 'origWidth': 410, 'origHeight': 410, 'width': 410, 'height': 410, 'widthPercent': 0.45, 'rescaleHeight': False, 'trialN': 41, 'loaded': True, 'loadedTime': 2642.2000000476837, 'positionName': 'LEFT', 'positionCoords': [511.6, 335], 'bid': 8.72}, {'imgObject': {}, 'id': 'bagel and cc', 'src': '/static/foodstim60/bagel and cc.jpg', 'key': 'i', 'origWidth': 410, 'origHeight': 410, 'width': 410, 'height': 410, 'widthPercent': 0.45, 'rescaleHeight': False, 'trialN': 41, 'loaded': True, 'loadedTime': 3121.2000000476837, 'positionName': 'RIGHT', 'positionCoords': [998.4, 335], 'bid': 6.48}]",73824.5,1669835484835,chickenfingers,bagel and cc,8.72,6.48,-2.24,chickenfingers,1704.3000000715256,1705,1705.0,True,u,76032.20000004768,2207.7000000476837,1669835487043,2208,HRV,HRV_0246,2022-11-30 19:16:30
42,"[{'imgObject': {}, 'id': 'rigatoni and sauce', 'src': '/static/foodstim60/rigatoni and sauce.jpg', 'key': 'u', 'origWidth': 410, 'origHeight': 411, 'width': 410, 'height': 411, 'widthPercent': 0.45, 'rescaleHeight': False, 'trialN': 42, 'loaded': True, 'loadedTime': 3123.3000000715256, 'positionName': 'LEFT', 'positionCoords': [511.6, 334.5], 'bid': 7.36}, {'imgObject': {}, 'id': 'veggieswithdip', 'src': '/static/foodstim60/veggieswithdip.jpg', 'key': 'i', 'origWidth': 409, 'origHeight': 409, 'width': 409, 'height': 409, 'widthPercent': 0.45, 'rescaleHeight': False, 'trialN': 42, 'loaded': True, 'loadedTime': 2444, 'positionName': 'RIGHT', 'positionCoords': [998.4, 335.5], 'bid': 9.62}]",76032.40000009537,1669835487043,rigatoni and sauce,veggieswithdip,7.36,9.62,2.259999999999999,veggieswithdip,1208.0,1208,1208.5999999046326,True,i,77744.80000007153,1712.3999999761581,1669835488755,1712,HRV,HRV_0246,2022-11-30 19:16:30
43,"[{'imgObject': {}, 'id': 'roastedpotatoes', 'src': '/static/foodstim60/roastedpotatoes.jpg', 'key': 'u', 'origWidth': 409, 'origHeight': 410, 'width': 409, 'height': 410, 'widthPercent': 0.45, 'rescaleHeight': False, 'trialN': 43, 'loaded': True, 'loadedTime': 3132.2000000476837, 'positionName': 'LEFT', 'positionCoords': [512.6, 335], 'bid': 8.18}, {'imgObject': {}, 'id': 'cocktailshrimp', 'src': '/static/foodstim60/cocktailshrimp.jpg', 'key': 'i', 'origWidth': 410, 'origHeight': 410, 'width': 410, 'height': 410, 'widthPercent': 0.45, 'rescaleHeight': False, 'trialN': 43, 'loaded': True, 'loadedTime': 3137.600000023842, 'positionName': 'RIGHT', 'positionCoords': [998.4, 335], 'bid': 8.120000000000001}]",77745.0,1669835488755,roastedpotatoes,cocktailshrimp,8.18,8.120000000000001,-0.05999999999999872,cocktailshrimp,1319.8000000715256,1321,1320.5,True,i,79568.40000009537,1823.4000000953674,1669835490579,1824,HRV,HRV_0246,2022-11-30 19:16:30
44,"[{'imgObject': {}, 'id': 'cherries', 'src': '/static/foodstim60/cherries.jpg', 'key': 'u', 'origWidth': 410, 'origHeight': 411, 'width': 410, 'height': 411, 'widthPercent': 0.45, 'rescaleHeight': False, 'trialN': 44, 'loaded': True, 'loadedTime': 3160.4000000953674, 'positionName': 'LEFT', 'positionCoords': [511.6, 334.5], 'bid': 7.96}, {'imgObject': {}, 'id': 'burger', 'src': '/static/foodstim60/burger.jpg', 'key': 'i', 'origWidth': 409, 'origHeight': 409, 'width': 409, 'height': 409, 'widthPercent': 0.45, 'rescaleHeight': False, 'trialN': 44, 'loaded': True, 'loadedTime': 2382.5, 'positionName': 'RIGHT', 'positionCoords': [998.4, 335.5], 'bid': 7.96}]",79568.60000002384,1669835490579,cherries,burger,7.96,7.96,0.0,cherries,1599.8999999761581,1600,1600.5,True,u,81673.30000007153,2104.7000000476837,1669835492684,2105,HRV,HRV_0246,2022-11-30 19:16:30
45,"[{'imgObject': {}, 'id': 'sweetpotato', 'src': '/static/foodstim60/sweetpotato.jpg', 'key': 'u', 'origWidth': 410, 'origHeight': 410, 'width': 410, 'height': 410, 'widthPercent': 0.45, 'rescaleHeight': False, 'trialN': 45, 'loaded': True, 'loadedTime': 2595.2000000476837, 'positionName': 'LEFT', 'positionCoords': [511.6, 335], 'bid': 2.13}, {'imgObject': {}, 'id': 'baked potato', 'src': '/static/foodstim60/baked potato.jpg', 'key': 'i', 'origWidth': 409, 'origHeight': 410, 'width': 409, 'height': 410, 'widthPercent': 0.45, 'rescaleHeight': False, 'trialN': 45, 'loaded': True, 'loadedTime': 2686.2000000476837, 'positionName': 'RIGHT', 'positionCoords': [998.4, 335], 'bid': 2.57}]",81673.30000007153,1669835492684,sweetpotato,baked potato,2.13,2.57,0.43999999999999995,baked potato,1399.2999999523163,1400,1399.8999999761581,True,i,83576.40000009537,1903.1000000238419,1669835494587,1903,HRV,HRV_0246,2022-11-30 19:16:30
46,"[{'imgObject': {}, 'id': 'cherry tomato', 'src': '/static/foodstim60/cherry tomato.jpg', 'key': 'u', 'origWidth': 410, 'origHeight': 410, 'width': 410, 'height': 410, 'widthPercent': 0.45, 'rescaleHeight': False, 'trialN': 46, 'loaded': True, 'loadedTime': 2738.100000023842, 'positionName': 'LEFT', 'positionCoords': [511.6, 335], 'bid': 2.85}, {'imgObject': {}, 'id': 'fried eggs', 'src': '/static/foodstim60/fried eggs.jpg', 'key': 'i', 'origWidth': 410, 'origHeight': 410, 'width': 410, 'height': 410, 'widthPercent': 0.45, 'rescaleHeight': False, 'trialN': 46, 'loaded': True, 'loadedTime': 2344.3000000715256, 'positionName': 'RIGHT', 'positionCoords': [998.4, 335], 'bid': 7.33}]",83576.5,1669835494587,cherry tomato,fried eggs,2.85,7.33,4.48,fried eggs,880.3000000715256,881,881.1000000238419,True,i,84960.40000009537,1383.9000000953674,1669835495971,1384,HRV,HRV_0246,2022-11-30 19:16:30
47,"[{'imgObject': {}, 'id': 'cherries', 'src': '/static/foodstim60/cherries.jpg', 'key': 'u', 'origWidth': 410, 'origHeight': 411, 'width': 410, 'height': 411, 'widthPercent': 0.45, 'rescaleHeight': False, 'trialN': 47, 'loaded': True, 'loadedTime': 3149.8000000715256, 'positionName': 'LEFT', 'positionCoords': [511.6, 334.5], 'bid': 7.96}, {'imgObject': {}, 'id': 'cantaloupe', 'src': '/static/foodstim60/cantaloupe.jpg', 'key': 'i', 'origWidth': 409, 'origHeight': 409, 'width': 409, 'height': 409, 'widthPercent': 0.45, 'rescaleHeight': False, 'trialN': 47, 'loaded': True, 'loadedTime': 3160.600000023842, 'positionName': 'RIGHT', 'positionCoords': [998.4, 335.5], 'bid': 8.8}]",84960.5,1669835495971,cherries,cantaloupe,7.96,8.8,0.8400000000000007,cantaloupe,1433.9000000953674,1434,1434.3000000715256,True,i,86895.70000004768,1935.2000000476837,1669835497906,1935,HRV,HRV_0246,2022-11-30 19:16:30
48,"[{'imgObject': {}, 'id': 'luckycharms', 'src': '/static/foodstim60/luckycharms.jpg', 'key': 'u', 'origWidth': 410, 'origHeight': 409, 'width': 410, 'height': 409, 'widthPercent': 0.45, 'rescaleHeight': False, 'trialN': 48, 'loaded': True, 'loadedTime': 2271.8000000715256, 'positionName': 'LEFT', 'positionCoords': [511.6, 335.5], 'bid': 1.96}, {'imgObject': {}, 'id': 'bagel plain', 'src': '/static/foodstim60/bagel plain.jpg', 'key': 'i', 'origWidth': 410, 'origHeight': 410, 'width': 410, 'height': 410, 'widthPercent': 0.45, 'rescaleHeight': False, 'trialN': 48, 'loaded': True, 'loadedTime': 3058.100000023842, 'positionName': 'RIGHT', 'positionCoords': [998.4, 335], 'bid': 6.4}]",86895.80000007153,1669835497906,luckycharms,bagel plain,1.96,6.4,4.44,bagel plain,1712.6999999284744,1713,1713.8999999761581,True,i,89112.10000002384,2216.2999999523163,1669835500122,2216,HRV,HRV_0246,2022-11-30 19:16:30
49,"[{'imgObject': {}, 'id': 'eggs', 'src': '/static/foodstim60/eggs.jpg', 'key': 'u', 'origWidth': 409, 'origHeight': 409, 'width': 409, 'height': 409, 'widthPercent': 0.45, 'rescaleHeight': False, 'trialN': 49, 'loaded': True, 'loadedTime': 2404.8000000715256, 'positionName': 'LEFT', 'positionCoords': [512.6, 335.5], 'bid': 5.0600000000000005}, {'imgObject': {}, 'id': 'salmon', 'src': '/static/foodstim60/salmon.jpg', 'key': 'i', 'origWidth': 410, 'origHeight': 409, 'width': 410, 'height': 409, 'widthPercent': 0.45, 'rescaleHeight': False, 'trialN': 49, 'loaded': True, 'loadedTime': 3115.3000000715256, 'positionName': 'RIGHT', 'positionCoords': [998.4, 335.5], 'bid': 5.34}]",89112.20000004768,1669835500122,eggs,salmon,5.0600000000000005,5.34,0.27999999999999936,eggs,2296.5,2297,2297.2999999523163,True,u,91912.60000002384,2800.399999976158,1669835502922,2800,HRV,HRV_0246,2022-11-30 19:16:30
50,"[{'imgObject': {}, 'id': 'grilled chicken strips', 'src': '/static/foodstim60/grilled chicken strips.jpg', 'key': 'u', 'origWidth': 410, 'origHeight': 411, 'width': 410, 'height': 411, 'widthPercent': 0.45, 'rescaleHeight': False, 'trialN': 50, 'loaded': True, 'loadedTime': 2622.100000023842, 'positionName': 'LEFT', 'positionCoords': [511.6, 334.5], 'bid': 6.16}, {'imgObject': {}, 'id': 'yogurt no spoon', 'src': '/static/foodstim60/yogurt no spoon.jpg', 'key': 'i', 'origWidth': 411, 'origHeight': 410, 'width': 411, 'height': 410, 'widthPercent': 0.45, 'rescaleHeight': False, 'trialN': 50, 'loaded': True, 'loadedTime': 2713.100000023842, 'positionName': 'RIGHT', 'positionCoords': [998.4, 335], 'bid': 6.01}]",91912.80000007153,1669835502923,grilled chicken strips,yogurt no spoon,6.16,6.01,-0.15000000000000036,grilled chicken strips,2214.899999976158,2215,2215.1999999284744,True,u,94631.40000009537,2718.600000023842,1669835505641,2718,HRV,HRV_0246,2022-11-30 19:16:30
51,"[{'imgObject': {}, 'id': 'hotdog w must', 'src': '/static/foodstim60/hotdog w must.jpg', 'key': 'u', 'origWidth': 409, 'origHeight': 409, 'width': 409, 'height': 409, 'widthPercent': 0.45, 'rescaleHeight': False, 'trialN': 51, 'loaded': True, 'loadedTime': 2955.3000000715256, 'positionName': 'LEFT', 'positionCoords': [512.6, 335.5], 'bid': 6.71}, {'imgObject': {}, 'id': 'rigatoni', 'src': '/static/foodstim60/rigatoni.jpg', 'key': 'i', 'origWidth': 411, 'origHeight': 411, 'width': 411, 'height': 411, 'widthPercent': 0.45, 'rescaleHeight': False, 'trialN': 51, 'loaded': True, 'loadedTime': 2780.100000023842, 'positionName': 'RIGHT', 'positionCoords': [998.4, 334.5], 'bid': 2.52}]",94631.60000002384,1669835505641,hotdog w must,rigatoni,6.71,2.52,-4.1899999999999995,hotdog w must,1033.1000000238419,1034,1033.7000000476837,True,u,96168.30000007153,1536.7000000476837,1669835507178,1537,HRV,HRV_0246,2022-11-30 19:16:30
52,"[{'imgObject': {}, 'id': 'shreddedwheatwithmilk', 'src': '/static/foodstim60/shreddedwheatwithmilk.jpg', 'key': 'u', 'origWidth': 410, 'origHeight': 410, 'width': 410, 'height': 410, 'widthPercent': 0.45, 'rescaleHeight': False, 'trialN': 52, 'loaded': True, 'loadedTime': 3173.3000000715256, 'positionName': 'LEFT', 'positionCoords': [511.6, 335], 'bid': 4.92}, {'imgObject': {}, 'id': 'rigatoni', 'src': '/static/foodstim60/rigatoni.jpg', 'key': 'i', 'origWidth': 411, 'origHeight': 411, 'width': 411, 'height': 411, 'widthPercent': 0.45, 'rescaleHeight': False, 'trialN': 52, 'loaded': True, 'loadedTime': 2785.3000000715256, 'positionName': 'RIGHT', 'positionCoords': [998.4, 334.5], 'bid': 2.52}]",96168.40000009537,1669835507178,shreddedwheatwithmilk,rigatoni,4.92,2.52,-2.4,shreddedwheatwithmilk,1927.2999999523163,1928,1927.5,True,u,98599.5,2431.0999999046326,1669835509609,2431,HRV,HRV_0246,2022-11-30 19:16:30
53,"[{'imgObject': {}, 'id': 'lox', 'src': '/static/foodstim60/lox.jpg', 'key': 'u', 'origWidth': 410, 'origHeight': 411, 'width': 410, 'height': 411, 'widthPercent': 0.45, 'rescaleHeight': False, 'trialN': 53, 'loaded': True, 'loadedTime': 2321, 'positionName': 'LEFT', 'positionCoords': [511.6, 334.5], 'bid': 0.61}, {'imgObject': {}, 'id': 'sushi w_condiments', 'src': '/static/foodstim60/sushi w_condiments.jpg', 'key': 'i', 'origWidth': 410, 'origHeight': 410, 'width': 410, 'height': 410, 'widthPercent': 0.45, 'rescaleHeight': False, 'trialN': 53, 'loaded': True, 'loadedTime': 3012.5, 'positionName': 'RIGHT', 'positionCoords': [998.4, 335], 'bid': 0.77}]",98599.5,1669835509609,lox,sushi w_condiments,0.61,0.77,0.16000000000000003,sushi w_condiments,1193.5,1194,1194.1000000238419,True,i,100295.60000002384,1696.1000000238419,1669835511305,1696,HRV,HRV_0246,2022-11-30 19:16:30
54,"[{'imgObject': {}, 'id': 'salad w chicken', 'src': '/static/foodstim60/salad w chicken.jpg', 'key': 'u', 'origWidth': 411, 'origHeight': 411, 'width': 411, 'height': 411, 'widthPercent': 0.45, 'rescaleHeight': False, 'trialN': 54, 'loaded': True, 'loadedTime': 2226.5, 'positionName': 'LEFT', 'positionCoords': [510.6, 334.5], 'bid': 8.870000000000001}, {'imgObject': {}, 'id': 'froot loops w milk', 'src': '/static/foodstim60/froot loops w milk.jpg', 'key': 'i', 'origWidth': 410, 'origHeight': 410, 'width': 410, 'height': 410, 'widthPercent': 0.45, 'rescaleHeight': False, 'trialN': 54, 'loaded': True, 'loadedTime': 3001, 'positionName': 'RIGHT', 'positionCoords': [998.4, 335], 'bid': 4.97}]",100295.80000007153,1669835511306,salad w chicken,froot loops w milk,8.870000000000001,4.97,-3.9000000000000012,salad w chicken,1170.5,1170,1170.7999999523163,True,u,101968.40000009537,1672.6000000238419,1669835512978,1672,HRV,HRV_0246,2022-11-30 19:16:30
55,"[{'imgObject': {}, 'id': 'corn cob', 'src': '/static/foodstim60/corn cob.jpg', 'key': 'u', 'origWidth': 411, 'origHeight': 411, 'width': 411, 'height': 411, 'widthPercent': 0.45, 'rescaleHeight': False, 'trialN': 55, 'loaded': True, 'loadedTime': 2546.4000000953674, 'positionName': 'LEFT', 'positionCoords': [510.6, 334.5], 'bid': 3.09}, {'imgObject': {}, 'id': 'edamame', 'src': '/static/foodstim60/edamame.jpg', 'key': 'i', 'origWidth': 409, 'origHeight': 410, 'width': 409, 'height': 410, 'widthPercent': 0.45, 'rescaleHeight': False, 'trialN': 55, 'loaded': True, 'loadedTime': 2924.3000000715256, 'positionName': 'RIGHT', 'positionCoords': [998.4, 335], 'bid': 1.88}]",101968.5,1669835512978,corn cob,edamame,3.09,1.88,-1.21,corn cob,1191.7000000476837,1192,1192.0,True,u,103664.10000002384,1695.6000000238419,1669835514674,1696,HRV,HRV_0246,2022-11-30 19:16:30
56,"[{'imgObject': {}, 'id': 'orange slices', 'src': '/static/foodstim60/orange slices.jpg', 'key': 'u', 'origWidth': 409, 'origHeight': 410, 'width': 409, 'height': 410, 'widthPercent': 0.45, 'rescaleHeight': False, 'trialN': 56, 'loaded': True, 'loadedTime': 3185.3000000715256, 'positionName': 'LEFT', 'positionCoords': [512.6, 335], 'bid': 0.9}, {'imgObject': {}, 'id': 'Grapes', 'src': '/static/foodstim60/Grapes.jpg', 'key': 'i', 'origWidth': 411, 'origHeight': 411, 'width': 411, 'height': 411, 'widthPercent': 0.45, 'rescaleHeight': False, 'trialN': 56, 'loaded': True, 'loadedTime': 2799.3000000715256, 'positionName': 'RIGHT', 'positionCoords': [998.4, 334.5], 'bid': 3.47}]",103664.40000009537,1669835514674,orange slices,Grapes,0.9,3.47,2.5700000000000003,Grapes,1199.2999999523163,1200,1199.5999999046326,True,i,105367.5,1703.0999999046326,1669835516377,1703,HRV,HRV_0246,2022-11-30 19:16:30
57,"[{'imgObject': {}, 'id': 'veggieswithdip', 'src': '/static/foodstim60/veggieswithdip.jpg', 'key': 'u', 'origWidth': 409, 'origHeight': 409, 'width': 409, 'height': 409, 'widthPercent': 0.45, 'rescaleHeight': False, 'trialN': 57, 'loaded': True, 'loadedTime': 2448.100000023842, 'positionName': 'LEFT', 'positionCoords': [512.6, 335.5], 'bid': 9.62}, {'imgObject': {}, 'id': 'salad w chicken', 'src': '/static/foodstim60/salad w chicken.jpg', 'key': 'i', 'origWidth': 411, 'origHeight': 411, 'width': 411, 'height': 411, 'widthPercent': 0.45, 'rescaleHeight': False, 'trialN': 57, 'loaded': True, 'loadedTime': 2240.3000000715256, 'positionName': 'RIGHT', 'positionCoords': [998.4, 334.5], 'bid': 8.870000000000001}]",105367.70000004768,1669835516377,veggieswithdip,salad w chicken,9.62,8.870000000000001,-0.7499999999999982,veggieswithdip,1328.0,1329,1328.2000000476837,True,u,107200.40000009537,1832.7000000476837,1669835518210,1833,HRV,HRV_0246,2022-11-30 19:16:30
58,"[{'imgObject': {}, 'id': 'shreddedwheatwithmilk', 'src': '/static/foodstim60/shreddedwheatwithmilk.jpg', 'key': 'u', 'origWidth': 410, 'origHeight': 410, 'width': 410, 'height': 410, 'widthPercent': 0.45, 'rescaleHeight': False, 'trialN': 58, 'loaded': True, 'loadedTime': 3173.5, 'positionName': 'LEFT', 'positionCoords': [511.6, 335], 'bid': 4.92}, {'imgObject': {}, 'id': 'mashed potato', 'src': '/static/foodstim60/mashed potato.jpg', 'key': 'i', 'origWidth': 409, 'origHeight': 409, 'width': 409, 'height': 409, 'widthPercent': 0.45, 'rescaleHeight': False, 'trialN': 58, 'loaded': True, 'loadedTime': 3187.9000000953674, 'positionName': 'RIGHT', 'positionCoords': [998.4, 335.5], 'bid': 5.69}]",107200.60000002384,1669835518210,shreddedwheatwithmilk,mashed potato,4.92,5.69,0.7700000000000005,mashed potato,1161.0,1162,1161.5,True,i,108865.10000002384,1664.5,1669835519875,1665,HRV,HRV_0246,2022-11-30 19:16:30
59,"[{'imgObject': {}, 'id': 'veggieswithdip', 'src': '/static/foodstim60/veggieswithdip.jpg', 'key': 'u', 'origWidth': 409, 'origHeight': 409, 'width': 409, 'height': 409, 'widthPercent': 0.45, 'rescaleHeight': False, 'trialN': 59, 'loaded': True, 'loadedTime': 2427.600000023842, 'positionName': 'LEFT', 'positionCoords': [512.6, 335.5], 'bid': 9.62}, {'imgObject': {}, 'id': 'mac & cheese', 'src': '/static/foodstim60/mac & cheese.jpg', 'key': 'i', 'origWidth': 410, 'origHeight': 410, 'width': 410, 'height': 410, 'widthPercent': 0.45, 'rescaleHeight': False, 'trialN': 59, 'loaded': True, 'loadedTime': 2662.600000023842, 'positionName': 'RIGHT', 'positionCoords': [998.4, 335], 'bid': 9.92}]",108865.30000007153,1669835519875,veggieswithdip,mac & cheese,9.62,9.92,0.3000000000000007,mac & cheese,1903.5,1904,1904.1000000238419,True,i,111273.20000004768,2407.899999976158,1669835522283,2408,HRV,HRV_0246,2022-11-30 19:16:30
60,"[{'imgObject': {}, 'id': 'orange slices', 'src': '/static/foodstim60/orange slices.jpg', 'key': 'u', 'origWidth': 409, 'origHeight': 410, 'width': 409, 'height': 410, 'widthPercent': 0.45, 'rescaleHeight': False, 'trialN': 60, 'loaded': True, 'loadedTime': 3185.5, 'positionName': 'LEFT', 'positionCoords': [512.6, 335], 'bid': 0.9}, {'imgObject': {}, 'id': 'blackbeanswithrice', 'src': '/static/foodstim60/blackbeanswithrice.jpg', 'key': 'i', 'origWidth': 410, 'origHeight': 410, 'width': 410, 'height': 410, 'widthPercent': 0.45, 'rescaleHeight': False, 'trialN': 60, 'loaded': True, 'loadedTime': 2528.4000000953674, 'positionName': 'RIGHT', 'positionCoords': [998.4, 335], 'bid': 1.43}]",111273.5,1669835522283,orange slices,blackbeanswithrice,0.9,1.43,0.5299999999999999,blackbeanswithrice,1503.8000000715256,1505,1504.5,True,i,113280.40000009537,2006.9000000953674,1669835524290,2007,HRV,HRV_0246,2022-11-30 19:16:30
61,"[{'imgObject': {}, 'id': 'cheerios', 'src': '/static/foodstim60/cheerios.jpg', 'key': 'u', 'origWidth': 409, 'origHeight': 410, 'width': 409, 'height': 410, 'widthPercent': 0.45, 'rescaleHeight': False, 'trialN': 61, 'loaded': True, 'loadedTime': 3190.7000000476837, 'positionName': 'LEFT', 'positionCoords': [512.6, 335], 'bid': 4.67}, {'imgObject': {}, 'id': 'burrito', 'src': '/static/foodstim60/burrito.jpg', 'key': 'i', 'origWidth': 410, 'origHeight': 410, 'width': 410, 'height': 410, 'widthPercent': 0.45, 'rescaleHeight': False, 'trialN': 61, 'loaded': True, 'loadedTime': 3022.5, 'positionName': 'RIGHT', 'positionCoords': [998.4, 335], 'bid': 6.01}]",113280.60000002384,1669835524290,cheerios,burrito,4.67,6.01,1.3399999999999999,burrito,1152.3000000715256,1153,1152.7000000476837,True,i,114935.90000009537,1655.3000000715256,1669835525946,1656,HRV,HRV_0246,2022-11-30 19:16:30
62,"[{'imgObject': {}, 'id': 'mac & cheese', 'src': '/static/foodstim60/mac & cheese.jpg', 'key': 'u', 'origWidth': 410, 'origHeight': 410, 'width': 410, 'height': 410, 'widthPercent': 0.45, 'rescaleHeight': False, 'trialN': 62, 'loaded': True, 'loadedTime': 2655, 'positionName': 'LEFT', 'positionCoords': [511.6, 335], 'bid': 9.92}, {'imgObject': {}, 'id': 'roastedpotatoes', 'src': '/static/foodstim60/roastedpotatoes.jpg', 'key': 'i', 'origWidth': 409, 'origHeight': 410, 'width': 409, 'height': 410, 'widthPercent': 0.45, 'rescaleHeight': False, 'trialN': 62, 'loaded': True, 'loadedTime': 3136.9000000953674, 'positionName': 'RIGHT', 'positionCoords': [998.4, 335], 'bid': 8.18}]",114936.10000002384,1669835525946,mac & cheese,roastedpotatoes,9.92,8.18,-1.7400000000000002,mac & cheese,746.0,746,746.1000000238419,True,u,116184.20000004768,1248.1000000238419,1669835527194,1248,HRV,HRV_0246,2022-11-30 19:16:30
63,"[{'imgObject': {}, 'id': 'cherry tomato', 'src': '/static/foodstim60/cherry tomato.jpg', 'key': 'u', 'origWidth': 410, 'origHeight': 410, 'width': 410, 'height': 410, 'widthPercent': 0.45, 'rescaleHeight': False, 'trialN': 63, 'loaded': True, 'loadedTime': 2745.100000023842, 'positionName': 'LEFT', 'positionCoords': [511.6, 335], 'bid': 2.85}, {'imgObject': {}, 'id': 'mango', 'src': '/static/foodstim60/mango.jpg', 'key': 'i', 'origWidth': 411, 'origHeight': 411, 'width': 411, 'height': 411, 'widthPercent': 0.45, 'rescaleHeight': False, 'trialN': 63, 'loaded': True, 'loadedTime': 2558.2000000476837, 'positionName': 'RIGHT', 'positionCoords': [998.4, 334.5], 'bid': 0.7000000000000001}]",116184.40000009537,1669835527194,cherry tomato,mango,2.85,0.7000000000000001,-2.15,mango,1009.0999999046326,1010,1009.7999999523163,True,i,117695.80000007153,1511.3999999761581,1669835528706,1512,HRV,HRV_0246,2022-11-30 19:16:30
64,"[{'imgObject': {}, 'id': 'Tribe humus pita', 'src': '/static/foodstim60/Tribe humus pita.jpg', 'key': 'u', 'origWidth': 411, 'origHeight': 411, 'width': 411, 'height': 411, 'widthPercent': 0.45, 'rescaleHeight': False, 'trialN': 64, 'loaded': True, 'loadedTime': 3099, 'positionName': 'LEFT', 'positionCoords': [510.6, 334.5], 'bid': 7.29}, {'imgObject': {}, 'id': 'turkeysandwich', 'src': '/static/foodstim60/turkeysandwich.jpg', 'key': 'i', 'origWidth': 409, 'origHeight': 409, 'width': 409, 'height': 409, 'widthPercent': 0.45, 'rescaleHeight': False, 'trialN': 64, 'loaded': True, 'loadedTime': 3193.600000023842, 'positionName': 'RIGHT', 'positionCoords': [998.4, 335.5], 'bid': 8.44}]",117696.0,1669835528706,Tribe humus pita,turkeysandwich,7.29,8.44,1.1499999999999995,turkeysandwich,1817.7000000476837,1818,1818.5,True,i,120015.60000002384,2319.600000023842,1669835531025,2319,HRV,HRV_0246,2022-11-30 19:16:30
65,"[{'imgObject': {}, 'id': 'fried eggs', 'src': '/static/foodstim60/fried eggs.jpg', 'key': 'u', 'origWidth': 410, 'origHeight': 410, 'width': 410, 'height': 410, 'widthPercent': 0.45, 'rescaleHeight': False, 'trialN': 65, 'loaded': True, 'loadedTime': 2340.100000023842, 'positionName': 'LEFT', 'positionCoords': [511.6, 335], 'bid': 7.33}, {'imgObject': {}, 'id': 'ice cream sundae 002', 'src': '/static/foodstim60/ice cream sundae 002.jpg', 'key': 'i', 'origWidth': 409, 'origHeight': 409, 'width': 409, 'height': 409, 'widthPercent': 0.45, 'rescaleHeight': False, 'trialN': 65, 'loaded': True, 'loadedTime': 2298.2000000476837, 'positionName': 'RIGHT', 'positionCoords': [998.4, 335.5], 'bid': 9.12}]",120015.70000004768,1669835531025,fried eggs,ice cream sundae 002,7.33,9.12,1.7899999999999991,ice cream sundae 002,1176.5,1177,1176.7999999523163,True,i,121695.60000002384,1679.8999999761581,1669835532705,1680,HRV,HRV_0246,2022-11-30 19:16:30
66,"[{'imgObject': {}, 'id': 'sweetpotato', 'src': '/static/foodstim60/sweetpotato.jpg', 'key': 'u', 'origWidth': 410, 'origHeight': 410, 'width': 410, 'height': 410, 'widthPercent': 0.45, 'rescaleHeight': False, 'trialN': 66, 'loaded': True, 'loadedTime': 2590.8000000715256, 'positionName': 'LEFT', 'positionCoords': [511.6, 335], 'bid': 2.13}, {'imgObject': {}, 'id': 'cheerios', 'src': '/static/foodstim60/cheerios.jpg', 'key': 'i', 'origWidth': 409, 'origHeight': 410, 'width': 409, 'height': 410, 'widthPercent': 0.45, 'rescaleHeight': False, 'trialN': 66, 'loaded': True, 'loadedTime': 3188.4000000953674, 'positionName': 'RIGHT', 'positionCoords': [998.4, 335], 'bid': 4.67}]",121695.80000007153,1669835532706,sweetpotato,cheerios,2.13,4.67,2.54,cheerios,1704.8999999761581,1705,1705.5,True,i,123904.30000007153,2208.5,1669835534914,2208,HRV,HRV_0246,2022-11-30 19:16:30
67,"[{'imgObject': {}, 'id': 'orange slices', 'src': '/static/foodstim60/orange slices.jpg', 'key': 'u', 'origWidth': 409, 'origHeight': 410, 'width': 409, 'height': 410, 'widthPercent': 0.45, 'rescaleHeight': False, 'trialN': 67, 'loaded': True, 'loadedTime': 3184.7000000476837, 'positionName': 'LEFT', 'positionCoords': [512.6, 335], 'bid': 0.9}, {'imgObject': {}, 'id': 'grilled chicken strips', 'src': '/static/foodstim60/grilled chicken strips.jpg', 'key': 'i', 'origWidth': 410, 'origHeight': 411, 'width': 410, 'height': 411, 'widthPercent': 0.45, 'rescaleHeight': False, 'trialN': 67, 'loaded': True, 'loadedTime': 2614.9000000953674, 'positionName': 'RIGHT', 'positionCoords': [998.4, 334.5], 'bid': 6.16}]",123904.5,1669835534914,orange slices,grilled chicken strips,0.9,6.16,5.26,grilled chicken strips,823.8000000715256,825,824.5,True,i,125232.40000009537,1327.9000000953674,1669835536242,1328,HRV,HRV_0246,2022-11-30 19:16:30
68,"[{'imgObject': {}, 'id': 'bagel plain', 'src': '/static/foodstim60/bagel plain.jpg', 'key': 'u', 'origWidth': 410, 'origHeight': 410, 'width': 410, 'height': 410, 'widthPercent': 0.45, 'rescaleHeight': False, 'trialN': 68, 'loaded': True, 'loadedTime': 3059.5, 'positionName': 'LEFT', 'positionCoords': [511.6, 335], 'bid': 6.4}, {'imgObject': {}, 'id': 'rigatoni and sauce', 'src': '/static/foodstim60/rigatoni and sauce.jpg', 'key': 'i', 'origWidth': 410, 'origHeight': 411, 'width': 410, 'height': 411, 'widthPercent': 0.45, 'rescaleHeight': False, 'trialN': 68, 'loaded': True, 'loadedTime': 3123, 'positionName': 'RIGHT', 'positionCoords': [998.4, 334.5], 'bid': 7.36}]",125232.5,1669835536242,bagel plain,rigatoni and sauce,6.4,7.36,0.96,rigatoni and sauce,1103.3000000715256,1104,1103.6000000238419,True,i,126840.20000004768,1607.7000000476837,1669835537850,1608,HRV,HRV_0246,2022-11-30 19:16:30
69,"[{'imgObject': {}, 'id': 'Grapes', 'src': '/static/foodstim60/Grapes.jpg', 'key': 'u', 'origWidth': 411, 'origHeight': 411, 'width': 411, 'height': 411, 'widthPercent': 0.45, 'rescaleHeight': False, 'trialN': 69, 'loaded': True, 'loadedTime': 2803, 'positionName': 'LEFT', 'positionCoords': [510.6, 334.5], 'bid': 3.47}, {'imgObject': {}, 'id': 'raisin bran w milk', 'src': '/static/foodstim60/raisin bran w milk.jpg', 'key': 'i', 'origWidth': 411, 'origHeight': 411, 'width': 411, 'height': 411, 'widthPercent': 0.45, 'rescaleHeight': False, 'trialN': 69, 'loaded': True, 'loadedTime': 2876, 'positionName': 'RIGHT', 'positionCoords': [998.4, 334.5], 'bid': 3.01}]",126840.30000007153,1669835537850,Grapes,raisin bran w milk,3.47,3.01,-0.4600000000000004,raisin bran w milk,1520.7999999523163,1521,1521.1999999284744,True,i,128863.70000004768,2023.3999999761581,1669835539873,2023,HRV,HRV_0246,2022-11-30 19:16:30
70,"[{'imgObject': {}, 'id': 'rigatoni and sauce', 'src': '/static/foodstim60/rigatoni and sauce.jpg', 'key': 'u', 'origWidth': 410, 'origHeight': 411, 'width': 410, 'height': 411, 'widthPercent': 0.45, 'rescaleHeight': False, 'trialN': 70, 'loaded': True, 'loadedTime': 3123.100000023842, 'positionName': 'LEFT', 'positionCoords': [511.6, 334.5], 'bid': 7.36}, {'imgObject': {}, 'id': 'fried eggs', 'src': '/static/foodstim60/fried eggs.jpg', 'key': 'i', 'origWidth': 410, 'origHeight': 410, 'width': 410, 'height': 410, 'widthPercent': 0.45, 'rescaleHeight': False, 'trialN': 70, 'loaded': True, 'loadedTime': 2332.3000000715256, 'positionName': 'RIGHT', 'positionCoords': [998.4, 335], 'bid': 7.33}]",128863.90000009537,1669835539874,rigatoni and sauce,fried eggs,7.36,7.33,-0.03000000000000025,rigatoni and sauce,1857.2999999523163,1858,1858.0,True,u,131224.40000009537,2360.5,1669835542234,2360,HRV,HRV_0246,2022-11-30 19:16:30
71,"[{'imgObject': {}, 'id': 'sweetpotato', 'src': '/static/foodstim60/sweetpotato.jpg', 'key': 'u', 'origWidth': 410, 'origHeight': 410, 'width': 410, 'height': 410, 'widthPercent': 0.45, 'rescaleHeight': False, 'trialN': 71, 'loaded': True, 'loadedTime': 2598.8000000715256, 'positionName': 'LEFT', 'positionCoords': [511.6, 335], 'bid': 2.13}, {'imgObject': {}, 'id': 'bagel and cc', 'src': '/static/foodstim60/bagel and cc.jpg', 'key': 'i', 'origWidth': 410, 'origHeight': 410, 'width': 410, 'height': 410, 'widthPercent': 0.45, 'rescaleHeight': False, 'trialN': 71, 'loaded': True, 'loadedTime': 3116.7000000476837, 'positionName': 'RIGHT', 'positionCoords': [998.4, 335], 'bid': 6.48}]",131224.60000002384,1669835542234,sweetpotato,bagel and cc,2.13,6.48,4.3500000000000005,bagel and cc,1232.1000000238419,1233,1232.6000000238419,True,i,132959.80000007153,1735.2000000476837,1669835543969,1735,HRV,HRV_0246,2022-11-30 19:16:30
72,"[{'imgObject': {}, 'id': 'blueberries', 'src': '/static/foodstim60/blueberries.jpg', 'key': 'u', 'origWidth': 411, 'origHeight': 411, 'width': 411, 'height': 411, 'widthPercent': 0.45, 'rescaleHeight': False, 'trialN': 72, 'loaded': True, 'loadedTime': 3076.2000000476837, 'positionName': 'LEFT', 'positionCoords': [510.6, 334.5], 'bid': 5.76}, {'imgObject': {}, 'id': 'burger', 'src': '/static/foodstim60/burger.jpg', 'key': 'i', 'origWidth': 409, 'origHeight': 409, 'width': 409, 'height': 409, 'widthPercent': 0.45, 'rescaleHeight': False, 'trialN': 72, 'loaded': True, 'loadedTime': 2377, 'positionName': 'RIGHT', 'positionCoords': [998.4, 335.5], 'bid': 7.96}]",132959.90000009537,1669835543970,blueberries,burger,5.76,7.96,2.2,burger,1344.8999999761581,1345,1345.2999999523163,True,i,134806.80000007153,1846.8999999761581,1669835545816,1846,HRV,HRV_0246,2022-11-30 19:16:30
73,"[{'imgObject': {}, 'id': 'raspberries', 'src': '/static/foodstim60/raspberries.jpg', 'key': 'u', 'origWidth': 411, 'origHeight': 411, 'width': 411, 'height': 411, 'widthPercent': 0.45, 'rescaleHeight': False, 'trialN': 73, 'loaded': True, 'loadedTime': 2857.5, 'positionName': 'LEFT', 'positionCoords': [510.6, 334.5], 'bid': 4.1}, {'imgObject': {}, 'id': 'corn cob', 'src': '/static/foodstim60/corn cob.jpg', 'key': 'i', 'origWidth': 411, 'origHeight': 411, 'width': 411, 'height': 411, 'widthPercent': 0.45, 'rescaleHeight': False, 'trialN': 73, 'loaded': True, 'loadedTime': 2542.4000000953674, 'positionName': 'RIGHT', 'positionCoords': [998.4, 334.5], 'bid': 3.09}]",134807.10000002384,1669835545817,raspberries,corn cob,4.1,3.09,-1.0099999999999998,raspberries,970.6000000238419,971,971.2000000476837,True,u,136280.40000009537,1473.3000000715256,1669835547290,1473,HRV,HRV_0246,2022-11-30 19:16:30
74,"[{'imgObject': {}, 'id': 'edamame', 'src': '/static/foodstim60/edamame.jpg', 'key': 'u', 'origWidth': 409, 'origHeight': 410, 'width': 409, 'height': 410, 'widthPercent': 0.45, 'rescaleHeight': False, 'trialN': 74, 'loaded': True, 'loadedTime': 2908.600000023842, 'positionName': 'LEFT', 'positionCoords': [512.6, 335], 'bid': 1.88}, {'imgObject': {}, 'id': 'eggsalad', 'src': '/static/foodstim60/eggsalad.jpg', 'key': 'i', 'origWidth': 410, 'origHeight': 409, 'width': 410, 'height': 409, 'widthPercent': 0.45, 'rescaleHeight': False, 'trialN': 74, 'loaded': True, 'loadedTime': 3053.600000023842, 'positionName': 'RIGHT', 'positionCoords': [998.4, 335.5], 'bid': 6.36}]",136280.60000002384,1669835547290,edamame,eggsalad,1.88,6.36,4.48,eggsalad,897.1000000238419,898,897.8000000715256,True,i,137680.60000002384,1400.0,1669835548690,1400,HRV,HRV_0246,2022-11-30 19:16:30
75,"[{'imgObject': {}, 'id': 'banana', 'src': '/static/foodstim60/banana.jpg', 'key': 'u', 'origWidth': 410, 'origHeight': 410, 'width': 410, 'height': 410, 'widthPercent': 0.45, 'rescaleHeight': False, 'trialN': 75, 'loaded': True, 'loadedTime': 2853.100000023842, 'positionName': 'LEFT', 'positionCoords': [511.6, 335], 'bid': 3.73}, {'imgObject': {}, 'id': 'raspberries', 'src': '/static/foodstim60/raspberries.jpg', 'key': 'i', 'origWidth': 411, 'origHeight': 411, 'width': 411, 'height': 411, 'widthPercent': 0.45, 'rescaleHeight': False, 'trialN': 75, 'loaded': True, 'loadedTime': 2866.5, 'positionName': 'RIGHT', 'positionCoords': [998.4, 334.5], 'bid': 4.1}]",137680.70000004768,1669835548690,banana,raspberries,3.73,4.1,0.36999999999999966,raspberries,1256.3999999761581,1258,1257.0,True,i,139440.40000009537,1759.7000000476837,1669835550450,1760,HRV,HRV_0246,2022-11-30 19:16:30
76,"[{'imgObject': {}, 'id': 'yogurt no spoon', 'src': '/static/foodstim60/yogurt no spoon.jpg', 'key': 'u', 'origWidth': 411, 'origHeight': 410, 'width': 411, 'height': 410, 'widthPercent': 0.45, 'rescaleHeight': False, 'trialN': 76, 'loaded': True, 'loadedTime': 2717.7000000476837, 'positionName': 'LEFT', 'positionCoords': [510.6, 335], 'bid': 6.01}, {'imgObject': {}, 'id': 'froot loops w milk', 'src': '/static/foodstim60/froot loops w milk.jpg', 'key': 'i', 'origWidth': 410, 'origHeight': 410, 'width': 410, 'height': 410, 'widthPercent': 0.45, 'rescaleHeight': False, 'trialN': 76, 'loaded': True, 'loadedTime': 3000.7000000476837, 'positionName': 'RIGHT', 'positionCoords': [998.4, 335], 'bid': 4.97}]",139440.5,1669835550450,yogurt no spoon,froot loops w milk,6.01,4.97,-1.04,froot loops w milk,1079.0,1079,1079.2000000476837,True,i,141024.10000002384,1583.6000000238419,1669835552034,1584,HRV,HRV_0246,2022-11-30 19:16:30
77,"[{'imgObject': {}, 'id': 'cheerios', 'src': '/static/foodstim60/cheerios.jpg', 'key': 'u', 'origWidth': 409, 'origHeight': 410, 'width': 409, 'height': 410, 'widthPercent': 0.45, 'rescaleHeight': False, 'trialN': 77, 'loaded': True, 'loadedTime': 3191, 'positionName': 'LEFT', 'positionCoords': [512.6, 335], 'bid': 4.67}, {'imgObject': {}, 'id': 'steak', 'src': '/static/foodstim60/steak.jpg', 'key': 'i', 'origWidth': 410, 'origHeight': 410, 'width': 410, 'height': 410, 'widthPercent': 0.45, 'rescaleHeight': False, 'trialN': 77, 'loaded': True, 'loadedTime': 2456.4000000953674, 'positionName': 'RIGHT', 'positionCoords': [998.4, 335], 'bid': 3.22}]",141024.40000009537,1669835552034,cheerios,steak,4.67,3.22,-1.4499999999999997,cheerios,2108.1999999284744,2109,2108.5,True,u,143640.5,2616.0999999046326,1669835554650,2616,HRV,HRV_0246,2022-11-30 19:16:30
78,"[{'imgObject': {}, 'id': 'hashbrowns', 'src': '/static/foodstim60/hashbrowns.jpg', 'key': 'u', 'origWidth': 411, 'origHeight': 410, 'width': 411, 'height': 410, 'widthPercent': 0.45, 'rescaleHeight': False, 'trialN': 78, 'loaded': True, 'loadedTime': 3200.9000000953674, 'positionName': 'LEFT', 'positionCoords': [510.6, 335], 'bid': 3.03}, {'imgObject': {}, 'id': 'seaweed', 'src': '/static/foodstim60/seaweed.jpg', 'key': 'i', 'origWidth': 410, 'origHeight': 410, 'width': 410, 'height': 410, 'widthPercent': 0.45, 'rescaleHeight': False, 'trialN': 78, 'loaded': True, 'loadedTime': 2691.100000023842, 'positionName': 'RIGHT', 'positionCoords': [998.4, 335], 'bid': 0.1}]",143640.70000004768,1669835554650,hashbrowns,seaweed,3.03,0.1,-2.9299999999999997,hashbrowns,1447.6000000238419,1449,1448.1000000238419,True,u,145593.20000004768,1952.5,1669835556603,1953,HRV,HRV_0246,2022-11-30 19:16:30
79,"[{'imgObject': {}, 'id': 'cantaloupe', 'src': '/static/foodstim60/cantaloupe.jpg', 'key': 'u', 'origWidth': 409, 'origHeight': 409, 'width': 409, 'height': 409, 'widthPercent': 0.45, 'rescaleHeight': False, 'trialN': 79, 'loaded': True, 'loadedTime': 3161.8000000715256, 'positionName': 'LEFT', 'positionCoords': [512.6, 335.5], 'bid': 8.8}, {'imgObject': {}, 'id': 'fruitsalad', 'src': '/static/foodstim60/fruitsalad.jpg', 'key': 'i', 'origWidth': 410, 'origHeight': 410, 'width': 410, 'height': 410, 'widthPercent': 0.45, 'rescaleHeight': False, 'trialN': 79, 'loaded': True, 'loadedTime': 2974.2000000476837, 'positionName': 'RIGHT', 'positionCoords': [998.4, 335], 'bid': 8.65}]",145593.5,1669835556603,cantaloupe,fruitsalad,8.8,8.65,-0.15000000000000036,cantaloupe,966.3000000715256,967,966.4000000953674,True,u,147064.10000002384,1470.6000000238419,1669835558074,1471,HRV,HRV_0246,2022-11-30 19:16:30
80,"[{'imgObject': {}, 'id': 'hotdog w must', 'src': '/static/foodstim60/hotdog w must.jpg', 'key': 'u', 'origWidth': 409, 'origHeight': 409, 'width': 409, 'height': 409, 'widthPercent': 0.45, 'rescaleHeight': False, 'trialN': 80, 'loaded': True, 'loadedTime': 2964.7000000476837, 'positionName': 'LEFT', 'positionCoords': [512.6, 335.5], 'bid': 6.71}, {'imgObject': {}, 'id': 'cantaloupe', 'src': '/static/foodstim60/cantaloupe.jpg', 'key': 'i', 'origWidth': 409, 'origHeight': 409, 'width': 409, 'height': 409, 'widthPercent': 0.45, 'rescaleHeight': False, 'trialN': 80, 'loaded': True, 'loadedTime': 3161.600000023842, 'positionName': 'RIGHT', 'positionCoords': [998.4, 335.5], 'bid': 8.8}]",147064.40000009537,1669835558074,hotdog w must,cantaloupe,6.71,8.8,2.0900000000000007,cantaloupe,2063.2999999523163,2064,2063.6999999284744,True,i,149632.20000004768,2567.7999999523163,1669835560643,2569,HRV,HRV_0246,2022-11-30 19:16:30
81,"[{'imgObject': {}, 'id': 'orange slices', 'src': '/static/foodstim60/orange slices.jpg', 'key': 'u', 'origWidth': 409, 'origHeight': 410, 'width': 409, 'height': 410, 'widthPercent': 0.45, 'rescaleHeight': False, 'trialN': 81, 'loaded': True, 'loadedTime': 3179.2000000476837, 'positionName': 'LEFT', 'positionCoords': [512.6, 335], 'bid': 0.9}, {'imgObject': {}, 'id': 'pear', 'src': '/static/foodstim60/pear.jpg', 'key': 'i', 'origWidth': 411, 'origHeight': 410, 'width': 411, 'height': 410, 'widthPercent': 0.45, 'rescaleHeight': False, 'trialN': 81, 'loaded': True, 'loadedTime': 3202.2000000476837, 'positionName': 'RIGHT', 'positionCoords': [998.4, 335], 'bid': 3.02}]",149632.40000009537,1669835560643,orange slices,pear,0.9,3.02,2.12,orange slices,1408.1999999284744,1409,1408.8999999761581,True,u,151544.0,1911.5999999046326,1669835562554,1911,HRV,HRV_0246,2022-11-30 19:16:30
82,"[{'imgObject': {}, 'id': 'olives', 'src': '/static/foodstim60/olives.jpg', 'key': 'u', 'origWidth': 410, 'origHeight': 410, 'width': 410, 'height': 410, 'widthPercent': 0.45, 'rescaleHeight': False, 'trialN': 82, 'loaded': True, 'loadedTime': 2497.3000000715256, 'positionName': 'LEFT', 'positionCoords': [511.6, 335], 'bid': 6.32}, {'imgObject': {}, 'id': 'popsicles', 'src': '/static/foodstim60/popsicles.jpg', 'key': 'i', 'origWidth': 410, 'origHeight': 410, 'width': 410, 'height': 410, 'widthPercent': 0.45, 'rescaleHeight': False, 'trialN': 82, 'loaded': True, 'loadedTime': 3214.5, 'positionName': 'RIGHT', 'positionCoords': [998.4, 335], 'bid': 4.92}]",151544.10000002384,1669835562555,olives,popsicles,6.32,4.92,-1.4000000000000004,olives,1160.6000000238419,1161,1161.3000000715256,True,u,153208.20000004768,1664.1000000238419,1669835564219,1664,HRV,HRV_0246,2022-11-30 19:16:30
83,"[{'imgObject': {}, 'id': 'turkeysandwich', 'src': '/static/foodstim60/turkeysandwich.jpg', 'key': 'u', 'origWidth': 409, 'origHeight': 409, 'width': 409, 'height': 409, 'widthPercent': 0.45, 'rescaleHeight': False, 'trialN': 83, 'loaded': True, 'loadedTime': 3194.3000000715256, 'positionName': 'LEFT', 'positionCoords': [512.6, 335.5], 'bid': 8.44}, {'imgObject': {}, 'id': 'eggsalad', 'src': '/static/foodstim60/eggsalad.jpg', 'key': 'i', 'origWidth': 410, 'origHeight': 409, 'width': 410, 'height': 409, 'widthPercent': 0.45, 'rescaleHeight': False, 'trialN': 83, 'loaded': True, 'loadedTime': 3053.8000000715256, 'positionName': 'RIGHT', 'positionCoords': [998.4, 335.5], 'bid': 6.36}]",153208.40000009537,1669835564219,turkeysandwich,eggsalad,8.44,6.36,-2.079999999999999,turkeysandwich,1160.7999999523163,1161,1161.3999999761581,True,u,154872.0,1663.5999999046326,1669835565882,1663,HRV,HRV_0246,2022-11-30 19:16:30
84,"[{'imgObject': {}, 'id': 'olives', 'src': '/static/foodstim60/olives.jpg', 'key': 'u', 'origWidth': 410, 'origHeight': 410, 'width': 410, 'height': 410, 'widthPercent': 0.45, 'rescaleHeight': False, 'trialN': 84, 'loaded': True, 'loadedTime': 2513, 'positionName': 'LEFT', 'positionCoords': [511.6, 335], 'bid': 6.32}, {'imgObject': {}, 'id': 'burrito', 'src': '/static/foodstim60/burrito.jpg', 'key': 'i', 'origWidth': 410, 'origHeight': 410, 'width': 410, 'height': 410, 'widthPercent': 0.45, 'rescaleHeight': False, 'trialN': 84, 'loaded': True, 'loadedTime': 3030.3000000715256, 'positionName': 'RIGHT', 'positionCoords': [998.4, 335], 'bid': 6.01}]",154872.10000002384,1669835565882,olives,burrito,6.32,6.01,-0.3100000000000005,burrito,1152.3000000715256,1154,1153.1000000238419,True,i,156528.30000007153,1656.2000000476837,1669835567539,1657,HRV,HRV_0246,2022-11-30 19:16:30
85,"[{'imgObject': {}, 'id': 'seaweed', 'src': '/static/foodstim60/seaweed.jpg', 'key': 'u', 'origWidth': 410, 'origHeight': 410, 'width': 410, 'height': 410, 'widthPercent': 0.45, 'rescaleHeight': False, 'trialN': 85, 'loaded': True, 'loadedTime': 2700, 'positionName': 'LEFT', 'positionCoords': [511.6, 335], 'bid': 0.1}, {'imgObject': {}, 'id': 'mango', 'src': '/static/foodstim60/mango.jpg', 'key': 'i', 'origWidth': 411, 'origHeight': 411, 'width': 411, 'height': 411, 'widthPercent': 0.45, 'rescaleHeight': False, 'trialN': 85, 'loaded': True, 'loadedTime': 2573.100000023842, 'positionName': 'RIGHT', 'positionCoords': [998.4, 334.5], 'bid': 0.7000000000000001}]",156528.40000009537,1669835567539,seaweed,mango,0.1,0.7000000000000001,0.6000000000000001,mango,1024.0999999046326,1025,1024.6999999284744,True,i,158055.80000007153,1527.3999999761581,1669835569066,1527,HRV,HRV_0246,2022-11-30 19:16:30
86,"[{'imgObject': {}, 'id': 'mac & cheese', 'src': '/static/foodstim60/mac & cheese.jpg', 'key': 'u', 'origWidth': 410, 'origHeight': 410, 'width': 410, 'height': 410, 'widthPercent': 0.45, 'rescaleHeight': False, 'trialN': 86, 'loaded': True, 'loadedTime': 2662.8000000715256, 'positionName': 'LEFT', 'positionCoords': [511.6, 335], 'bid': 9.92}, {'imgObject': {}, 'id': 'salmon', 'src': '/static/foodstim60/salmon.jpg', 'key': 'i', 'origWidth': 410, 'origHeight': 409, 'width': 410, 'height': 409, 'widthPercent': 0.45, 'rescaleHeight': False, 'trialN': 86, 'loaded': True, 'loadedTime': 3115.5, 'positionName': 'RIGHT', 'positionCoords': [998.4, 335.5], 'bid': 5.34}]",158055.90000009537,1669835569066,mac & cheese,salmon,9.92,5.34,-4.58,mac & cheese,1489.0,1490,1489.7999999523163,True,u,160047.60000002384,1991.6999999284744,1669835571058,1992,HRV,HRV_0246,2022-11-30 19:16:30
87,"[{'imgObject': {}, 'id': 'chickenfingers', 'src': '/static/foodstim60/chickenfingers.jpg', 'key': 'u', 'origWidth': 410, 'origHeight': 410, 'width': 410, 'height': 410, 'widthPercent': 0.45, 'rescaleHeight': False, 'trialN': 87, 'loaded': True, 'loadedTime': 2647.600000023842, 'positionName': 'LEFT', 'positionCoords': [511.6, 335], 'bid': 8.72}, {'imgObject': {}, 'id': 'fruitsalad', 'src': '/static/foodstim60/fruitsalad.jpg', 'key': 'i', 'origWidth': 410, 'origHeight': 410, 'width': 410, 'height': 410, 'widthPercent': 0.45, 'rescaleHeight': False, 'trialN': 87, 'loaded': True, 'loadedTime': 2973.8000000715256, 'positionName': 'RIGHT', 'positionCoords': [998.4, 335], 'bid': 8.65}]",160047.70000004768,1669835571058,chickenfingers,fruitsalad,8.72,8.65,-0.07000000000000028,fruitsalad,1704.7999999523163,1706,1705.3999999761581,True,i,162257.10000002384,2209.399999976158,1669835573267,2209,HRV,HRV_0246,2022-11-30 19:16:30
88,"[{'imgObject': {}, 'id': 'orange slices', 'src': '/static/foodstim60/orange slices.jpg', 'key': 'u', 'origWidth': 409, 'origHeight': 410, 'width': 409, 'height': 410, 'widthPercent': 0.45, 'rescaleHeight': False, 'trialN': 88, 'loaded': True, 'loadedTime': 3177.8000000715256, 'positionName': 'LEFT', 'positionCoords': [512.6, 335], 'bid': 0.9}, {'imgObject': {}, 'id': 'baked potato', 'src': '/static/foodstim60/baked potato.jpg', 'key': 'i', 'origWidth': 409, 'origHeight': 410, 'width': 409, 'height': 410, 'widthPercent': 0.45, 'rescaleHeight': False, 'trialN': 88, 'loaded': True, 'loadedTime': 2681.8000000715256, 'positionName': 'RIGHT', 'positionCoords': [998.4, 335], 'bid': 2.57}]",162257.20000004768,1669835573268,orange slices,baked potato,0.9,2.57,1.67,baked potato,1127.1000000238419,1127,1127.7999999523163,True,i,163888.40000009537,1631.2000000476837,1669835574899,1631,HRV,HRV_0246,2022-11-30 19:16:30
89,"[{'imgObject': {}, 'id': 'strawberries', 'src': '/static/foodstim60/strawberries.jpg', 'key': 'u', 'origWidth': 410, 'origHeight': 410, 'width': 410, 'height': 410, 'widthPercent': 0.45, 'rescaleHeight': False, 'trialN': 89, 'loaded': True, 'loadedTime': 2756, 'positionName': 'LEFT', 'positionCoords': [511.6, 335], 'bid': 5.01}, {'imgObject': {}, 'id': 'bagel plain', 'src': '/static/foodstim60/bagel plain.jpg', 'key': 'i', 'origWidth': 410, 'origHeight': 410, 'width': 410, 'height': 410, 'widthPercent': 0.45, 'rescaleHeight': False, 'trialN': 89, 'loaded': True, 'loadedTime': 3063.600000023842, 'positionName': 'RIGHT', 'positionCoords': [998.4, 335], 'bid': 6.4}]",163888.60000002384,1669835574899,strawberries,bagel plain,5.01,6.4,1.3900000000000006,bagel plain,1239.7000000476837,1240,1240.1000000238419,True,i,165633.30000007153,1744.7000000476837,1669835576644,1745,HRV,HRV_0246,2022-11-30 19:16:30
90,"[{'imgObject': {}, 'id': 'ice cream sundae 002', 'src': '/static/foodstim60/ice cream sundae 002.jpg', 'key': 'u', 'origWidth': 409, 'origHeight': 409, 'width': 409, 'height': 409, 'widthPercent': 0.45, 'rescaleHeight': False, 'trialN': 90, 'loaded': True, 'loadedTime': 2305.3000000715256, 'positionName': 'LEFT', 'positionCoords': [512.6, 335.5], 'bid': 9.12}, {'imgObject': {}, 'id': 'avocado', 'src': '/static/foodstim60/avocado.jpg', 'key': 'i', 'origWidth': 409, 'origHeight': 409, 'width': 409, 'height': 409, 'widthPercent': 0.45, 'rescaleHeight': False, 'trialN': 90, 'loaded': True, 'loadedTime': 3108.4000000953674, 'positionName': 'RIGHT', 'positionCoords': [998.4, 335.5], 'bid': 8.07}]",223695.70000004768,1669835634706,ice cream sundae 002,avocado,9.12,8.07,-1.049999999999999,ice cream sundae 002,856.8999999761581,857,857.3999999761581,True,u,225055.70000004768,1360.0,1669835636066,1360,HRV,HRV_0246,2022-11-30 19:16:30
91,"[{'imgObject': {}, 'id': 'kiwi', 'src': '/static/foodstim60/kiwi.jpg', 'key': 'u', 'origWidth': 410, 'origHeight': 410, 'width': 410, 'height': 410, 'widthPercent': 0.45, 'rescaleHeight': False, 'trialN': 91, 'loaded': True, 'loadedTime': 2471.5, 'positionName': 'LEFT', 'positionCoords': [511.6, 335], 'bid': 2.82}, {'imgObject': {}, 'id': 'Tribe humus pita', 'src': '/static/foodstim60/Tribe humus pita.jpg', 'key': 'i', 'origWidth': 411, 'origHeight': 411, 'width': 411, 'height': 411, 'widthPercent': 0.45, 'rescaleHeight': False, 'trialN': 91, 'loaded': True, 'loadedTime': 3105.5, 'positionName': 'RIGHT', 'positionCoords': [998.4, 334.5], 'bid': 7.29}]",225055.90000009537,1669835636066,kiwi,Tribe humus pita,2.82,7.29,4.470000000000001,Tribe humus pita,1289.0,1289,1289.3999999761581,True,i,226848.10000002384,1792.1999999284744,1669835637858,1792,HRV,HRV_0246,2022-11-30 19:16:30
92,"[{'imgObject': {}, 'id': 'mashed potato', 'src': '/static/foodstim60/mashed potato.jpg', 'key': 'u', 'origWidth': 409, 'origHeight': 409, 'width': 409, 'height': 409, 'widthPercent': 0.45, 'rescaleHeight': False, 'trialN': 92, 'loaded': True, 'loadedTime': 3188.100000023842, 'positionName': 'LEFT', 'positionCoords': [512.6, 335.5], 'bid': 5.69}, {'imgObject': {}, 'id': 'eggs', 'src': '/static/foodstim60/eggs.jpg', 'key': 'i', 'origWidth': 409, 'origHeight': 409, 'width': 409, 'height': 409, 'widthPercent': 0.45, 'rescaleHeight': False, 'trialN': 92, 'loaded': True, 'loadedTime': 2399.7000000476837, 'positionName': 'RIGHT', 'positionCoords': [998.4, 335.5], 'bid': 5.0600000000000005}]",226848.10000002384,1669835637858,mashed potato,eggs,5.69,5.0600000000000005,-0.6299999999999999,mashed potato,991.3000000715256,992,991.6000000238419,True,u,228344.0,1495.8999999761581,1669835639354,1496,HRV,HRV_0246,2022-11-30 19:16:30
93,"[{'imgObject': {}, 'id': 'steak', 'src': '/static/foodstim60/steak.jpg', 'key': 'u', 'origWidth': 410, 'origHeight': 410, 'width': 410, 'height': 410, 'widthPercent': 0.45, 'rescaleHeight': False, 'trialN': 93, 'loaded': True, 'loadedTime': 2463.600000023842, 'positionName': 'LEFT', 'positionCoords': [511.6, 335], 'bid': 3.22}, {'imgObject': {}, 'id': 'avocado', 'src': '/static/foodstim60/avocado.jpg', 'key': 'i', 'origWidth': 409, 'origHeight': 409, 'width': 409, 'height': 409, 'widthPercent': 0.45, 'rescaleHeight': False, 'trialN': 93, 'loaded': True, 'loadedTime': 3108.600000023842, 'positionName': 'RIGHT', 'positionCoords': [998.4, 335.5], 'bid': 8.07}]",228344.10000002384,1669835639354,steak,avocado,3.22,8.07,4.85,avocado,1120.5,1121,1121.2000000476837,True,i,229968.20000004768,1624.1000000238419,1669835640978,1624,HRV,HRV_0246,2022-11-30 19:16:30
94,"[{'imgObject': {}, 'id': 'blackbeanswithrice', 'src': '/static/foodstim60/blackbeanswithrice.jpg', 'key': 'u', 'origWidth': 410, 'origHeight': 410, 'width': 410, 'height': 410, 'widthPercent': 0.45, 'rescaleHeight': False, 'trialN': 94, 'loaded': True, 'loadedTime': 2537.600000023842, 'positionName': 'LEFT', 'positionCoords': [511.6, 335], 'bid': 1.43}, {'imgObject': {}, 'id': 'hashbrowns', 'src': '/static/foodstim60/hashbrowns.jpg', 'key': 'i', 'origWidth': 411, 'origHeight': 410, 'width': 411, 'height': 410, 'widthPercent': 0.45, 'rescaleHeight': False, 'trialN': 94, 'loaded': True, 'loadedTime': 3200.8000000715256, 'positionName': 'RIGHT', 'positionCoords': [998.4, 335], 'bid': 3.03}]",229968.40000009537,1669835640978,blackbeanswithrice,hashbrowns,1.43,3.03,1.5999999999999999,hashbrowns,1118.7999999523163,1119,1119.0,True,i,231592.0,1623.5999999046326,1669835642602,1624,HRV,HRV_0246,2022-11-30 19:16:30
95,"[{'imgObject': {}, 'id': 'bagel and cc', 'src': '/static/foodstim60/bagel and cc.jpg', 'key': 'u', 'origWidth': 410, 'origHeight': 410, 'width': 410, 'height': 410, 'widthPercent': 0.45, 'rescaleHeight': False, 'trialN': 95, 'loaded': True, 'loadedTime': 3121, 'positionName': 'LEFT', 'positionCoords': [511.6, 335], 'bid': 6.48}, {'imgObject': {}, 'id': 'hotdog w must', 'src': '/static/foodstim60/hotdog w must.jpg', 'key': 'i', 'origWidth': 409, 'origHeight': 409, 'width': 409, 'height': 409, 'widthPercent': 0.45, 'rescaleHeight': False, 'trialN': 95, 'loaded': True, 'loadedTime': 2956.3000000715256, 'positionName': 'RIGHT', 'positionCoords': [998.4, 335.5], 'bid': 6.71}]",231592.0,1669835642602,bagel and cc,hotdog w must,6.48,6.71,0.22999999999999954,hotdog w must,984.8000000715256,985,985.3000000715256,True,i,233080.40000009537,1488.4000000953674,1669835644090,1488,HRV,HRV_0246,2022-11-30 19:16:30
96,"[{'imgObject': {}, 'id': 'salmon', 'src': '/static/foodstim60/salmon.jpg', 'key': 'u', 'origWidth': 410, 'origHeight': 409, 'width': 410, 'height': 409, 'widthPercent': 0.45, 'rescaleHeight': False, 'trialN': 96, 'loaded': True, 'loadedTime': 3109.9000000953674, 'positionName': 'LEFT', 'positionCoords': [511.6, 335.5], 'bid': 5.34}, {'imgObject': {}, 'id': 'pear', 'src': '/static/foodstim60/pear.jpg', 'key': 'i', 'origWidth': 411, 'origHeight': 410, 'width': 411, 'height': 410, 'widthPercent': 0.45, 'rescaleHeight': False, 'trialN': 96, 'loaded': True, 'loadedTime': 3202.4000000953674, 'positionName': 'RIGHT', 'positionCoords': [998.4, 335], 'bid': 3.02}]",233080.60000002384,1669835644091,salmon,pear,5.34,3.02,-2.32,salmon,1207.1000000238419,1207,1207.3999999761581,True,u,234792.40000009537,1711.8000000715256,1669835645802,1711,HRV,HRV_0246,2022-11-30 19:16:30
97,"[{'imgObject': {}, 'id': 'ice cream sundae 002', 'src': '/static/foodstim60/ice cream sundae 002.jpg', 'key': 'u', 'origWidth': 409, 'origHeight': 409, 'width': 409, 'height': 409, 'widthPercent': 0.45, 'rescaleHeight': False, 'trialN': 97, 'loaded': True, 'loadedTime': 2291.7000000476837, 'positionName': 'LEFT', 'positionCoords': [512.6, 335.5], 'bid': 9.12}, {'imgObject': {}, 'id': 'mac & cheese', 'src': '/static/foodstim60/mac & cheese.jpg', 'key': 'i', 'origWidth': 410, 'origHeight': 410, 'width': 410, 'height': 410, 'widthPercent': 0.45, 'rescaleHeight': False, 'trialN': 97, 'loaded': True, 'loadedTime': 2652.9000000953674, 'positionName': 'RIGHT', 'positionCoords': [998.4, 335], 'bid': 9.92}]",234792.5,1669835645803,ice cream sundae 002,mac & cheese,9.12,9.92,0.8000000000000007,mac & cheese,1408.0,1408,1408.5,True,i,236704.20000004768,1911.7000000476837,1669835647714,1911,HRV,HRV_0246,2022-11-30 19:16:30
98,"[{'imgObject': {}, 'id': 'tacos', 'src': '/static/foodstim60/tacos.jpg', 'key': 'u', 'origWidth': 411, 'origHeight': 411, 'width': 411, 'height': 411, 'widthPercent': 0.45, 'rescaleHeight': False, 'trialN': 98, 'loaded': True, 'loadedTime': 3030.9000000953674, 'positionName': 'LEFT', 'positionCoords': [510.6, 334.5], 'bid': 8.84}, {'imgObject': {}, 'id': 'omelette', 'src': '/static/foodstim60/omelette.jpg', 'key': 'i', 'origWidth': 410, 'origHeight': 409, 'width': 410, 'height': 409, 'widthPercent': 0.45, 'rescaleHeight': False, 'trialN': 98, 'loaded': True, 'loadedTime': 2360.600000023842, 'positionName': 'RIGHT', 'positionCoords': [998.4, 335.5], 'bid': 6.91}]",236704.40000009537,1669835647714,tacos,omelette,8.84,6.91,-1.9299999999999997,tacos,897.5,898,897.7999999523163,True,u,238104.70000004768,1400.2999999523163,1669835649115,1401,HRV,HRV_0246,2022-11-30 19:16:30
99,"[{'imgObject': {}, 'id': 'cantaloupe', 'src': '/static/foodstim60/cantaloupe.jpg', 'key': 'u', 'origWidth': 409, 'origHeight': 409, 'width': 409, 'height': 409, 'widthPercent': 0.45, 'rescaleHeight': False, 'trialN': 99, 'loaded': True, 'loadedTime': 3161.9000000953674, 'positionName': 'LEFT', 'positionCoords': [512.6, 335.5], 'bid': 8.8}, {'imgObject': {}, 'id': 'tacos', 'src': '/static/foodstim60/tacos.jpg', 'key': 'i', 'origWidth': 411, 'origHeight': 411, 'width': 411, 'height': 411, 'widthPercent': 0.45, 'rescaleHeight': False, 'trialN': 99, 'loaded': True, 'loadedTime': 3040.4000000953674, 'positionName': 'RIGHT', 'positionCoords': [998.4, 334.5], 'bid': 8.84}]",238104.80000007153,1669835649115,cantaloupe,tacos,8.8,8.84,0.03999999999999915,tacos,911.5,912,912.0,True,i,239519.80000007153,1415.0,1669835650530,1415,HRV,HRV_0246,2022-11-30 19:16:30
100,"[{'imgObject': {}, 'id': 'hotdog w must', 'src': '/static/foodstim60/hotdog w must.jpg', 'key': 'u', 'origWidth': 409, 'origHeight': 409, 'width': 409, 'height': 409, 'widthPercent': 0.45, 'rescaleHeight': False, 'trialN': 100, 'loaded': True, 'loadedTime': 2968.8000000715256, 'positionName': 'LEFT', 'positionCoords': [512.6, 335.5], 'bid': 6.71}, {'imgObject': {}, 'id': 'salmon', 'src': '/static/foodstim60/salmon.jpg', 'key': 'i', 'origWidth': 410, 'origHeight': 409, 'width': 410, 'height': 409, 'widthPercent': 0.45, 'rescaleHeight': False, 'trialN': 100, 'loaded': True, 'loadedTime': 3115.100000023842, 'positionName': 'RIGHT', 'positionCoords': [998.4, 335.5], 'bid': 5.34}]",239519.90000009537,1669835650530,hotdog w must,salmon,6.71,5.34,-1.37,hotdog w must,1192.6999999284744,1193,1193.2999999523163,True,u,241216.80000007153,1696.8999999761581,1669835652227,1697,HRV,HRV_0246,2022-11-30 19:16:30
101,"[{'imgObject': {}, 'id': 'salad w chicken', 'src': '/static/foodstim60/salad w chicken.jpg', 'key': 'u', 'origWidth': 411, 'origHeight': 411, 'width': 411, 'height': 411, 'widthPercent': 0.45, 'rescaleHeight': False, 'trialN': 101, 'loaded': True, 'loadedTime': 2232.2000000476837, 'positionName': 'LEFT', 'positionCoords': [510.6, 334.5], 'bid': 8.870000000000001}, {'imgObject': {}, 'id': 'Tribe humus pita', 'src': '/static/foodstim60/Tribe humus pita.jpg', 'key': 'i', 'origWidth': 411, 'origHeight': 411, 'width': 411, 'height': 411, 'widthPercent': 0.45, 'rescaleHeight': False, 'trialN': 101, 'loaded': True, 'loadedTime': 3105.4000000953674, 'positionName': 'RIGHT', 'positionCoords': [998.4, 334.5], 'bid': 7.29}]",241217.0,1669835652227,salad w chicken,Tribe humus pita,8.870000000000001,7.29,-1.580000000000001,salad w chicken,1025.1000000238419,1026,1025.7000000476837,True,u,242743.90000009537,1526.9000000953674,1669835653754,1527,HRV,HRV_0246,2022-11-30 19:16:30
102,"[{'imgObject': {}, 'id': 'rigatoni and sauce', 'src': '/static/foodstim60/rigatoni and sauce.jpg', 'key': 'u', 'origWidth': 410, 'origHeight': 411, 'width': 410, 'height': 411, 'widthPercent': 0.45, 'rescaleHeight': False, 'trialN': 102, 'loaded': True, 'loadedTime': 3122.7000000476837, 'positionName': 'LEFT', 'positionCoords': [511.6, 334.5], 'bid': 7.36}, {'imgObject': {}, 'id': 'Tribe humus pita', 'src': '/static/foodstim60/Tribe humus pita.jpg', 'key': 'i', 'origWidth': 411, 'origHeight': 411, 'width': 411, 'height': 411, 'widthPercent': 0.45, 'rescaleHeight': False, 'trialN': 102, 'loaded': True, 'loadedTime': 3083.9000000953674, 'positionName': 'RIGHT', 'positionCoords': [998.4, 334.5], 'bid': 7.29}]",242744.0,1669835653754,rigatoni and sauce,Tribe humus pita,7.36,7.29,-0.07000000000000028,rigatoni and sauce,1512.8000000715256,1513,1513.4000000953674,True,u,244760.10000002384,2016.1000000238419,1669835655770,2016,HRV,HRV_0246,2022-11-30 19:16:30
103,"[{'imgObject': {}, 'id': 'chicken nuggets2', 'src': '/static/foodstim60/chicken nuggets2.jpg', 'key': 'u', 'origWidth': 410, 'origHeight': 409, 'width': 410, 'height': 409, 'widthPercent': 0.45, 'rescaleHeight': False, 'trialN': 103, 'loaded': True, 'loadedTime': 2947.2000000476837, 'positionName': 'LEFT', 'positionCoords': [511.6, 335.5], 'bid': 7.96}, {'imgObject': {}, 'id': 'tacos', 'src': '/static/foodstim60/tacos.jpg', 'key': 'i', 'origWidth': 411, 'origHeight': 411, 'width': 411, 'height': 411, 'widthPercent': 0.45, 'rescaleHeight': False, 'trialN': 103, 'loaded': True, 'loadedTime': 3032.100000023842, 'positionName': 'RIGHT', 'positionCoords': [998.4, 334.5], 'bid': 8.84}]",244760.30000007153,1669835655770,chicken nuggets2,tacos,7.96,8.84,0.8799999999999999,tacos,1023.1999999284744,1024,1023.5,True,i,246287.70000004768,1527.3999999761581,1669835657298,1528,HRV,HRV_0246,2022-11-30 19:16:30
104,"[{'imgObject': {}, 'id': 'steak', 'src': '/static/foodstim60/steak.jpg', 'key': 'u', 'origWidth': 410, 'origHeight': 410, 'width': 410, 'height': 410, 'widthPercent': 0.45, 'rescaleHeight': False, 'trialN': 104, 'loaded': True, 'loadedTime': 2452.8000000715256, 'positionName': 'LEFT', 'positionCoords': [511.6, 335], 'bid': 3.22}, {'imgObject': {}, 'id': 'Grapes', 'src': '/static/foodstim60/Grapes.jpg', 'key': 'i', 'origWidth': 411, 'origHeight': 411, 'width': 411, 'height': 411, 'widthPercent': 0.45, 'rescaleHeight': False, 'trialN': 104, 'loaded': True, 'loadedTime': 2799.2000000476837, 'positionName': 'RIGHT', 'positionCoords': [998.4, 334.5], 'bid': 3.47}]",246287.80000007153,1669835657298,steak,Grapes,3.22,3.47,0.25,Grapes,2080.7999999523163,2081,2081.399999976158,True,i,248872.5,2584.6999999284744,1669835659883,2585,HRV,HRV_0246,2022-11-30 19:16:30
105,"[{'imgObject': {}, 'id': 'granola w milk', 'src': '/static/foodstim60/granola w milk.jpg', 'key': 'u', 'origWidth': 410, 'origHeight': 410, 'width': 410, 'height': 410, 'widthPercent': 0.45, 'rescaleHeight': False, 'trialN': 105, 'loaded': True, 'loadedTime': 2895.7000000476837, 'positionName': 'LEFT', 'positionCoords': [511.6, 335], 'bid': 4.07}, {'imgObject': {}, 'id': 'hashbrowns', 'src': '/static/foodstim60/hashbrowns.jpg', 'key': 'i', 'origWidth': 411, 'origHeight': 410, 'width': 411, 'height': 410, 'widthPercent': 0.45, 'rescaleHeight': False, 'trialN': 105, 'loaded': True, 'loadedTime': 3201.100000023842, 'positionName': 'RIGHT', 'positionCoords': [998.4, 335], 'bid': 3.03}]",248872.70000004768,1669835659883,granola w milk,hashbrowns,4.07,3.03,-1.0400000000000005,hashbrowns,1022.7999999523163,1023,1023.0,True,i,250400.30000007153,1527.6000000238419,1669835661410,1527,HRV,HRV_0246,2022-11-30 19:16:30
106,"[{'imgObject': {}, 'id': 'cocktailshrimp', 'src': '/static/foodstim60/cocktailshrimp.jpg', 'key': 'u', 'origWidth': 410, 'origHeight': 410, 'width': 410, 'height': 410, 'widthPercent': 0.45, 'rescaleHeight': False, 'trialN': 106, 'loaded': True, 'loadedTime': 3143.600000023842, 'positionName': 'LEFT', 'positionCoords': [511.6, 335], 'bid': 8.120000000000001}, {'imgObject': {}, 'id': 'veggieswithdip', 'src': '/static/foodstim60/veggieswithdip.jpg', 'key': 'i', 'origWidth': 409, 'origHeight': 409, 'width': 409, 'height': 409, 'widthPercent': 0.45, 'rescaleHeight': False, 'trialN': 106, 'loaded': True, 'loadedTime': 2432.100000023842, 'positionName': 'RIGHT', 'positionCoords': [998.4, 335.5], 'bid': 9.62}]",250400.5,1669835661410,cocktailshrimp,veggieswithdip,8.120000000000001,9.62,1.4999999999999982,veggieswithdip,1135.0,1136,1135.3000000715256,True,i,252041.0,1640.5,1669835663051,1641,HRV,HRV_0246,2022-11-30 19:16:30
107,"[{'imgObject': {}, 'id': 'shreddedwheatwithmilk', 'src': '/static/foodstim60/shreddedwheatwithmilk.jpg', 'key': 'u', 'origWidth': 410, 'origHeight': 410, 'width': 410, 'height': 410, 'widthPercent': 0.45, 'rescaleHeight': False, 'trialN': 107, 'loaded': True, 'loadedTime': 3166.2000000476837, 'positionName': 'LEFT', 'positionCoords': [511.6, 335], 'bid': 4.92}, {'imgObject': {}, 'id': 'cantaloupe', 'src': '/static/foodstim60/cantaloupe.jpg', 'key': 'i', 'origWidth': 409, 'origHeight': 409, 'width': 409, 'height': 409, 'widthPercent': 0.45, 'rescaleHeight': False, 'trialN': 107, 'loaded': True, 'loadedTime': 3162.100000023842, 'positionName': 'RIGHT', 'positionCoords': [998.4, 335.5], 'bid': 8.8}]",252041.20000004768,1669835663051,shreddedwheatwithmilk,cantaloupe,4.92,8.8,3.880000000000001,cantaloupe,1319.1000000238419,1320,1320.0,True,i,253864.40000009537,1823.2000000476837,1669835664874,1823,HRV,HRV_0246,2022-11-30 19:16:30
108,"[{'imgObject': {}, 'id': 'strawberries', 'src': '/static/foodstim60/strawberries.jpg', 'key': 'u', 'origWidth': 410, 'origHeight': 410, 'width': 410, 'height': 410, 'widthPercent': 0.45, 'rescaleHeight': False, 'trialN': 108, 'loaded': True, 'loadedTime': 2770.2000000476837, 'positionName': 'LEFT', 'positionCoords': [511.6, 335], 'bid': 5.01}, {'imgObject': {}, 'id': 'burrito', 'src': '/static/foodstim60/burrito.jpg', 'key': 'i', 'origWidth': 410, 'origHeight': 410, 'width': 410, 'height': 410, 'widthPercent': 0.45, 'rescaleHeight': False, 'trialN': 108, 'loaded': True, 'loadedTime': 3030.5, 'positionName': 'RIGHT', 'positionCoords': [998.4, 335], 'bid': 6.01}]",253864.5,1669835664874,strawberries,burrito,5.01,6.01,1.0,burrito,1184.0,1185,1184.5,True,i,255552.20000004768,1687.7000000476837,1669835666562,1688,HRV,HRV_0246,2022-11-30 19:16:30
