success,trial_type,trial_index,time_elapsed,internal_node_id,Block,TrialNumber,TrialTime,trialTimeDiff,FPS_avg,FPS_med,FPS_mode,TrialDur,winResizeTime,rt,block,button_pressed,MotCoh,MotDir,ColCoh,Color,ChoiceKey,Choice,Accuracy,RT,nFrames,FPS,PPD,missTrial,missTrialMsg,onsetDelay,fullScreenExitTime,canvCenter,TrialType,Score,BlockTrial,stimulus,button_labels,exp,subjectId,date
True,fullscreen,0,3916,0.0-0.0,0.0,1.0,,,,,,,,,,,,,,,,,,,,,,,,,,,,,,,,HRV,HRV_0246,2022-11-30 19:42:27
,wl-check-fps,1,8909,0.0-1.0,0.0,2.0,"[4319.2, 4320.6, 4335.2, 4348.9, 4366.2, 4382.2, 4399.1, 4415.4, 4432.2, 4449, 4465.4, 4481.5, 4498.7, 4515, 4532.3, 4548.4, 4565.6, 4581.7, 4598.8, 4616, 4631.9, 4649, 4665.2, 4683.4, 4699.9, 4716, 4731.8, 4750.1, 4766.3, 4782.1, 4798.6, 4816.8, 4831.6, 4848.7, 4864.9, 4882, 4898.2, 4915.1, 4932, 4948.2, 4965, 4982.2, 4999, 5015.4, 5031.5, 5048.8, 5065.8, 5082.1, 5100.1, 5115.2, 5132, 5149.1, 5165, 5183, 5198, 5216.2, 5232.1, 5248.1, 5265.2, 5282.3, 5301.3, 5315.4, 5331.9, 5348.1, 5366.1, 5382.2, 5399, 5416.5, 5431.5, 5448.7, 5466.8, 5482.1, 5500.2, 5514.8, 5533.1, 5549, 5564.9, 5582, 5598.9, 5615.2, 5633.1, 5650, 5665.3, 5681.5, 5698.6, 5715.9, 5731.8, 5749, 5765.4, 5781.4, 5798.7, 5815.2, 5832.2, 5848.9, 5865.2, 5882.4, 5898.3, 5916.4, 5932.2, 5949.1, 5965.4, 5981.5, 5998.6, 6015.8, 6032, 6049.9, 6066.1, 6081.5, 6098.3, 6115.7, 6132.9, 6148.1, 6165.3, 6181.5, 6198.5, 6216.5, 6232, 6249.1, 6266, 6282, 6298.9, 6316, 6332.2, 6349, 6366, 6381.7, 6398.7, 6415.3, 6432.2, 6448.8, 6464.8, 6481.8, 6498.6, 6515.2, 6531.4, 6548.8, 6565.7, 6582.7, 6598.7, 6615.5, 6632.3, 6649.1, 6665.2, 6681.5, 6698.2, 6715.2, 6732.1, 6749, 6765.6, 6781.7, 6798.7, 6814.8, 6831.9, 6849.1, 6865.8, 6882, 6898, 6916, 6931.8, 6948.2, 6966.2, 6981.3, 6999, 7016.8, 7032.8, 7048.8, 7064.7, 7082, 7097.9, 7116.3, 7131.8, 7148.1, 7165.3, 7181.5, 7198.5, 7215.7, 7231.7, 7248.8, 7266.2, 7282, 7299.1, 7316.4, 7331.5, 7348.2, 7365.2, 7381.7, 7398.8, 7416.3, 7431.4, 7448.6, 7466.8, 7481.9, 7498.2, 7516.3, 7533.3, 7549, 7565, 7582.2, 7600.1, 7614.7, 7632.1, 7649, 7665.2, 7682.2, 7699.1, 7716.3, 7731.4, 7749.9, 7766, 7783, 7799.9, 7815.8, 7832.7, 7848.7, 7865.7, 7882.5, 7898.6, 7915.7, 7931.9, 7948.1, 7965.3, 7981.5, 7998.6, 8015.7, 8031.9, 8050.1, 8065.1, 8082, 8098.1, 8115.2, 8133.5, 8149.6, 8164.8, 8182.1, 8198.2, 8215.9, 8231.9, 8248, 8265.3, 8281.6, 8300.2, 8316.3, 8332.1, 8348.1, 8365.3, 8381.4, 8398.4, 8415.6, 8432.1, 8448.1, 8465.1, 8482.1, 8498.1, 8515.4, 8531.3, 8549.7, 8564.7, 8582, 8598.9, 8616.2, 8632.2, 8649, 8666.2, 8682.3, 8700.2, 8715.5, 8732.5, 8749, 8766.7, 8782, 8798.1, 8815.3, 8831.4, 8848.6, 8865.9, 8882.1, 8898.6, 8915.3, 8932.4, 8948.5, 8965.5, 8981.6, 8998.6, 9015.3, 9031.4, 9048.4, 9066.4, 9082.4, 9098.4, 9116.1, 9132.3, 9148.3, 9165.6, 9181.6, 9198.7, 9215.7, 9232.2, 9248.8, 9264.9, 9282.8]","[10.9, 1.4, 14.6, 13.7, 17.3, 16, 16.9, 16.3, 16.8, 16.8, 16.4, 16.1, 17.2, 16.3, 17.3, 16.1, 17.2, 16.1, 17.1, 17.2, 15.9, 17.1, 16.2, 18.2, 16.5, 16.1, 15.8, 18.3, 16.2, 15.8, 16.5, 18.2, 14.8, 17.1, 16.2, 17.1, 16.2, 16.9, 16.9, 16.2, 16.8, 17.2, 16.8, 16.4, 16.1, 17.3, 17, 16.3, 18, 15.1, 16.8, 17.1, 15.9, 18, 15, 18.2, 15.9, 16, 17.1, 17.1, 19, 14.1, 16.5, 16.2, 18, 16.1, 16.8, 17.5, 15, 17.2, 18.1, 15.3, 18.1, 14.6, 18.3, 15.9, 15.9, 17.1, 16.9, 16.3, 17.9, 16.9, 15.3, 16.2, 17.1, 17.3, 15.9, 17.2, 16.4, 16, 17.3, 16.5, 17, 16.7, 16.3, 17.2, 15.9, 18.1, 15.8, 16.9, 16.3, 16.1, 17.1, 17.2, 16.2, 17.9, 16.2, 15.4, 16.8, 17.4, 17.2, 15.2, 17.2, 16.2, 17, 18, 15.5, 17.1, 16.9, 16, 16.9, 17.1, 16.2, 16.8, 17, 15.7, 17, 16.6, 16.9, 16.6, 16, 17, 16.8, 16.6, 16.2, 17.4, 16.9, 17, 16, 16.8, 16.8, 16.8, 16.1, 16.3, 16.7, 17, 16.9, 16.9, 16.6, 16.1, 17, 16.1, 17.1, 17.2, 16.7, 16.2, 16, 18, 15.8, 16.4, 18, 15.1, 17.7, 17.8, 16, 16, 15.9, 17.3, 15.9, 18.4, 15.5, 16.3, 17.2, 16.2, 17, 17.2, 16, 17.1, 17.4, 15.8, 17.1, 17.3, 15.1, 16.7, 17, 16.5, 17.1, 17.5, 15.1, 17.2, 18.2, 15.1, 16.3, 18.1, 17, 15.7, 16, 17.2, 17.9, 14.6, 17.4, 16.9, 16.2, 17, 16.9, 17.2, 15.1, 18.5, 16.1, 17, 16.9, 15.9, 16.9, 16, 17, 16.8, 16.1, 17.1, 16.2, 16.2, 17.2, 16.2, 17.1, 17.1, 16.2, 18.2, 15, 16.9, 16.1, 17.1, 18.3, 16.1, 15.2, 17.3, 16.1, 17.7, 16, 16.1, 17.3, 16.3, 18.6, 16.1, 15.8, 16, 17.2, 16.1, 17, 17.2, 16.5, 16, 17, 17, 16, 17.3, 15.9, 18.4, 15, 17.3, 16.9, 17.3, 16, 16.8, 17.2, 16.1, 17.9, 15.3, 17, 16.5, 17.7, 15.3, 16.1, 17.2, 16.1, 17.2, 17.3, 16.2, 16.5, 16.7, 17.1, 16.1, 17, 16.1, 17, 16.7, 16.1, 17, 18, 16, 16, 17.7, 16.2, 16, 17.3, 16, 17.1, 17, 16.5, 16.6, 16.1, 17.9]",60.0,60.0,62.0,4989.7,[],,,,,,,,,,,,,,,,,,,,,,,,,HRV,HRV_0246,2022-11-30 19:42:27
,wl-html-keyboard-response,2,52052,0.0-2.0-0.0,0.0,3.0,,,,,,,,41134.5,0.0,0,,,,,,,,,,,,,,,,,,,,,,HRV,HRV_0246,2022-11-30 19:42:27
,wl-rdm,3,58775,0.0-3.0-0.0,0.0,4.0,,,,,,,[],,,,0.0,0.0,87.9,0.0,u,0.0,True,1138.2000000476837,69.0,62.0,40.0,False,,3000.0,[],"[960, 540]",ColorTask_Demo,,,,,HRV,HRV_0246,2022-11-30 19:42:27
,wl-rdm,4,63559,0.0-3.0-1.0,0.0,5.0,,,,,,,[],,,,0.0,0.0,87.9,1.0,i,1.0,True,707.5,43.0,62.0,40.0,False,,2000.0,[],"[960, 540]",ColorTask_Demo,,,,,HRV,HRV_0246,2022-11-30 19:42:27
,wl-html-keyboard-response,5,69476,0.0-3.0-2.0,0.0,6.0,,,,,,,,3907.3000000715256,0.0,1,,,,,,,,,,,,,,,,,,,,,,HRV,HRV_0246,2022-11-30 19:42:27
,wl-html-keyboard-response,6,78861,0.0-4.0-0.0,0.0,7.0,,,,,,,,7381.399999976158,0.0,0,,,,,,,,,,,,,,,,,,,,,,HRV,HRV_0246,2022-11-30 19:42:27
,wl-html-keyboard-response,7,90708,0.0-5.0-0.0,0.0,8.0,,,,,,,,9843.799999952316,0.0,0,,,,,,,,,,,,,,,,,,,,,,HRV,HRV_0246,2022-11-30 19:42:27
,wl-rdm,8,92857,0.0-6.0-0.0,0.0,9.0,,,,,,,[],,,,,,73.6,1.0,i,1.0,True,873.1000000238419,53.0,62.0,40.0,False,,209.4440944492156,[],"[960, 540]",ColorTask,1.0,1.0,,,HRV,HRV_0246,2022-11-30 19:42:27
,wl-rdm,9,95224,0.0-6.1-0.1,0.0,10.0,,,,,,,[],,,,,,56.4,0.0,u,0.0,True,964.6999999284744,58.0,62.0,40.0,False,,338.30014396569527,[],"[960, 540]",ColorTask,2.0,2.0,,,HRV,HRV_0246,2022-11-30 19:42:27
,wl-rdm,10,97742,0.0-6.2-0.2,0.0,11.0,,,,,,,[],,,,,,53.2,0.0,u,0.0,True,1077.6999999284744,65.0,62.0,40.0,False,,370.7187564769846,[],"[960, 540]",ColorTask,3.0,3.0,,,HRV,HRV_0246,2022-11-30 19:42:27
,wl-rdm,11,100190,0.0-6.3-0.3,0.0,12.0,,,,,,,[],,,,,,53.2,1.0,i,1.0,True,1054.6999999284744,64.0,62.0,40.0,False,,329.1317716742564,[],"[960, 540]",ColorTask,4.0,4.0,,,HRV,HRV_0246,2022-11-30 19:42:27
,wl-rdm,12,102474,0.0-6.4-0.4,0.0,13.0,,,,,,,[],,,,,,62.5,1.0,i,1.0,True,890.8000000715256,54.0,62.0,40.0,False,,309.34712890616095,[],"[960, 540]",ColorTask,5.0,5.0,,,HRV,HRV_0246,2022-11-30 19:42:27
,wl-rdm,13,104774,0.0-6.5-0.5,0.0,14.0,,,,,,,[],,,,,,56.4,0.0,u,0.0,True,861.2999999523163,52.0,62.0,40.0,False,,349.2800820845505,[],"[960, 540]",ColorTask,6.0,6.0,,,HRV,HRV_0246,2022-11-30 19:42:27
,wl-rdm,14,106841,0.0-6.6-0.6,0.0,15.0,,,,,,,[],,,,,,62.5,1.0,i,1.0,True,798.9999998807907,48.0,62.0,40.0,False,,212.30109352735212,[],"[960, 540]",ColorTask,7.0,7.0,,,HRV,HRV_0246,2022-11-30 19:42:27
,wl-rdm,15,109257,0.0-6.7-0.7,0.0,16.0,,,,,,,[],,,,,,56.4,1.0,i,1.0,True,1031.5000001192093,62.0,62.0,40.0,False,,319.75904408768895,[],"[960, 540]",ColorTask,8.0,8.0,,,HRV,HRV_0246,2022-11-30 19:42:27
,wl-rdm,16,111674,0.0-6.8-0.8,0.0,17.0,,,,,,,[],,,,,,53.2,1.0,i,1.0,True,1047.9000000953674,63.0,62.0,40.0,False,,311.2695505234756,[],"[960, 540]",ColorTask,9.0,9.0,,,HRV,HRV_0246,2022-11-30 19:42:27
,wl-rdm,17,113907,0.0-6.9-0.9,0.0,18.0,,,,,,,[],,,,,,62.5,0.0,u,0.0,True,945.3999999761581,57.0,62.0,40.0,False,,219.36955928964903,[],"[960, 540]",ColorTask,10.0,10.0,,,HRV,HRV_0246,2022-11-30 19:42:27
,wl-rdm,18,116441,0.0-6.10-0.10,0.0,19.0,,,,,,,[],,,,,,62.5,0.0,u,0.0,True,1208.3999999761581,73.0,62.0,40.0,False,,237.56355282299023,[],"[960, 540]",ColorTask,11.0,11.0,,,HRV,HRV_0246,2022-11-30 19:42:27
,wl-rdm,19,118575,0.0-6.11-0.11,0.0,20.0,,,,,,,[],,,,,,62.5,1.0,i,1.0,True,737.1000000238419,45.0,62.0,40.0,False,,310.86413226566697,[],"[960, 540]",ColorTask,12.0,12.0,,,HRV,HRV_0246,2022-11-30 19:42:27
,wl-rdm,20,120624,0.0-6.12-0.12,0.0,21.0,,,,,,,[],,,,,,73.6,1.0,i,1.0,True,742.0999999046326,45.0,62.0,40.0,False,,240.32274763753298,[],"[960, 540]",ColorTask,13.0,13.0,,,HRV,HRV_0246,2022-11-30 19:42:27
,wl-rdm,21,122740,0.0-6.13-0.13,0.0,22.0,,,,,,,[],,,,,,53.2,1.0,i,1.0,True,770.6000000238419,47.0,62.0,40.0,False,,267.174969954655,[],"[960, 540]",ColorTask,14.0,14.0,,,HRV,HRV_0246,2022-11-30 19:42:27
,wl-rdm,22,125124,0.0-6.14-0.14,0.0,23.0,,,,,,,[],,,,,,53.2,0.0,i,1.0,False,912.8000000715256,55.0,62.0,40.0,False,,393.29959813686105,[],"[960, 540]",ColorTask,13.0,15.0,,,HRV,HRV_0246,2022-11-30 19:42:27
,wl-rdm,23,127457,0.0-6.15-0.15,0.0,24.0,,,,,,,[],,,,,,62.5,0.0,i,1.0,False,972.1000000238419,59.0,62.0,40.0,False,,291.1385830813409,[],"[960, 540]",ColorTask,12.0,16.0,,,HRV,HRV_0246,2022-11-30 19:42:27
,wl-rdm,24,130274,0.0-6.16-0.16,0.0,25.0,,,,,,,[],,,,,,73.6,1.0,i,1.0,True,1374.2000000476837,83.0,62.0,40.0,False,,349.4944849865177,[],"[960, 540]",ColorTask,13.0,17.0,,,HRV,HRV_0246,2022-11-30 19:42:27
,wl-rdm,25,132623,0.0-6.17-0.17,0.0,26.0,,,,,,,[],,,,,,87.9,1.0,i,1.0,True,975.7000000476837,59.0,62.0,40.0,False,,283.64812174418364,[],"[960, 540]",ColorTask,14.0,18.0,,,HRV,HRV_0246,2022-11-30 19:42:27
,wl-rdm,26,134641,0.0-6.18-0.18,0.0,27.0,,,,,,,[],,,,,,87.9,0.0,u,0.0,True,654.8999999761581,40.0,62.0,40.0,False,,272.9652537476128,[],"[960, 540]",ColorTask,15.0,19.0,,,HRV,HRV_0246,2022-11-30 19:42:27
,wl-rdm,27,136924,0.0-6.19-0.19,0.0,28.0,,,,,,,[],,,,,,50.0,1.0,i,1.0,True,855.0,52.0,62.0,40.0,False,,335.1135902537583,[],"[960, 540]",ColorTask,16.0,20.0,,,HRV,HRV_0246,2022-11-30 19:42:27
,wl-rdm,28,139140,0.0-6.20-0.20,0.0,29.0,,,,,,,[],,,,,,56.4,1.0,i,1.0,True,853.5,52.0,62.0,40.0,False,,289.82400729811104,[],"[960, 540]",ColorTask,17.0,21.0,,,HRV,HRV_0246,2022-11-30 19:42:27
,wl-rdm,29,141274,0.0-6.21-0.21,0.0,30.0,,,,,,,[],,,,,,87.9,1.0,i,1.0,True,697.6000000238419,42.0,62.0,40.0,False,,387.8172988270505,[],"[960, 540]",ColorTask,18.0,22.0,,,HRV,HRV_0246,2022-11-30 19:42:27
,wl-rdm,30,143423,0.0-6.22-0.22,0.0,31.0,,,,,,,[],,,,,,50.0,1.0,i,1.0,True,804.2000000476837,49.0,62.0,40.0,False,,270.1132009837719,[],"[960, 540]",ColorTask,19.0,23.0,,,HRV,HRV_0246,2022-11-30 19:42:27
,wl-rdm,31,145490,0.0-6.23-0.23,0.0,32.0,,,,,,,[],,,,,,73.6,1.0,i,1.0,True,747.8999999761581,45.0,62.0,40.0,False,,253.35672168837914,[],"[960, 540]",ColorTask,20.0,24.0,,,HRV,HRV_0246,2022-11-30 19:42:27
,wl-rdm,32,147540,0.0-6.24-0.24,0.0,33.0,,,,,,,[],,,,,,73.6,1.0,i,1.0,True,688.0,42.0,62.0,40.0,False,,274.23513867789154,[],"[960, 540]",ColorTask,21.0,25.0,,,HRV,HRV_0246,2022-11-30 19:42:27
,wl-rdm,33,149723,0.0-6.25-0.25,0.0,34.0,,,,,,,[],,,,,,56.4,0.0,i,1.0,False,788.7000000476837,48.0,62.0,40.0,False,,308.6516390974,[],"[960, 540]",ColorTask,20.0,26.0,,,HRV,HRV_0246,2022-11-30 19:42:27
,wl-rdm,34,152124,0.0-6.26-0.26,0.0,35.0,,,,,,,[],,,,,,62.5,0.0,u,0.0,True,1003.8999999761581,61.0,62.0,40.0,False,,330.1237653150106,[],"[960, 540]",ColorTask,21.0,27.0,,,HRV,HRV_0246,2022-11-30 19:42:27
,wl-rdm,35,155140,0.0-6.27-0.27,0.0,36.0,,,,,,,[],,,,,,56.4,0.0,u,0.0,True,1562.6000000238419,94.0,62.0,40.0,False,,375.3588154513387,[],"[960, 540]",ColorTask,22.0,28.0,,,HRV,HRV_0246,2022-11-30 19:42:27
,wl-rdm,36,157307,0.0-6.28-0.28,0.0,37.0,,,,,,,[],,,,,,62.5,1.0,i,1.0,True,713.0,43.0,62.0,40.0,False,,399.4149243107847,[],"[960, 540]",ColorTask,23.0,29.0,,,HRV,HRV_0246,2022-11-30 19:42:27
,wl-rdm,37,159391,0.0-6.29-0.29,0.0,38.0,,,,,,,[],,,,,,73.6,0.0,u,0.0,True,777.2999999523163,47.0,62.0,40.0,False,,234.78102212168847,[],"[960, 540]",ColorTask,24.0,30.0,,,HRV,HRV_0246,2022-11-30 19:42:27
,wl-rdm,38,161857,0.0-6.30-0.30,0.0,39.0,,,,,,,[],,,,,,73.6,0.0,u,0.0,True,1016.6000000238419,61.0,62.0,40.0,False,,377.0650184283621,[],"[960, 540]",ColorTask,25.0,31.0,,,HRV,HRV_0246,2022-11-30 19:42:27
,wl-rdm,39,164090,0.0-6.31-0.31,0.0,40.0,,,,,,,[],,,,,,87.9,0.0,u,0.0,True,757.6000000238419,46.0,62.0,40.0,False,,391.29015600674734,[],"[960, 540]",ColorTask,26.0,32.0,,,HRV,HRV_0246,2022-11-30 19:42:27
,wl-rdm,40,166456,0.0-6.32-0.32,0.0,41.0,,,,,,,[],,,,,,50.0,1.0,i,1.0,True,989.4000000953674,60.0,62.0,40.0,False,,304.4488886632213,[],"[960, 540]",ColorTask,27.0,33.0,,,HRV,HRV_0246,2022-11-30 19:42:27
,wl-rdm,41,168640,0.0-6.33-0.33,0.0,42.0,,,,,,,[],,,,,,62.5,1.0,i,1.0,True,800.1000000238419,48.0,62.0,40.0,False,,308.3183379358779,[],"[960, 540]",ColorTask,28.0,34.0,,,HRV,HRV_0246,2022-11-30 19:42:27
,wl-rdm,42,170606,0.0-6.34-0.34,0.0,43.0,,,,,,,[],,,,,,87.9,1.0,i,1.0,True,642.5,39.0,62.0,40.0,False,,262.70736323953656,[],"[960, 540]",ColorTask,29.0,35.0,,,HRV,HRV_0246,2022-11-30 19:42:27
,wl-rdm,43,172873,0.0-6.35-0.35,0.0,44.0,,,,,,,[],,,,,,53.2,0.0,i,1.0,False,960.4000000953674,58.0,62.0,40.0,False,,229.7262344105506,[],"[960, 540]",ColorTask,28.0,36.0,,,HRV,HRV_0246,2022-11-30 19:42:27
,wl-rdm,44,175374,0.0-6.36-0.36,0.0,45.0,,,,,,,[],,,,,,50.0,1.0,i,1.0,True,1087.1000000238419,66.0,62.0,40.0,False,,331.73378500562023,[],"[960, 540]",ColorTask,29.0,37.0,,,HRV,HRV_0246,2022-11-30 19:42:27
,wl-rdm,45,177590,0.0-6.37-0.37,0.0,46.0,,,,,,,[],,,,,,50.0,1.0,i,1.0,True,943.6999999284744,57.0,62.0,40.0,False,,214.06222929175857,[],"[960, 540]",ColorTask,30.0,38.0,,,HRV,HRV_0246,2022-11-30 19:42:27
,wl-rdm,46,179690,0.0-6.38-0.38,0.0,47.0,,,,,,,[],,,,,,56.4,0.0,u,0.0,True,798.1000000238419,48.0,62.0,40.0,False,,232.31879485135687,[],"[960, 540]",ColorTask,31.0,39.0,,,HRV,HRV_0246,2022-11-30 19:42:27
,wl-rdm,47,181906,0.0-6.39-0.39,0.0,48.0,,,,,,,[],,,,,,50.0,0.0,u,0.0,True,930.5,56.0,62.0,40.0,False,,224.2942734397403,[],"[960, 540]",ColorTask,32.0,40.0,,,HRV,HRV_0246,2022-11-30 19:42:27
,wl-rdm,48,184556,0.0-6.40-0.40,0.0,49.0,,,,,,,[],,,,,,50.0,0.0,i,1.0,False,1354.6000000238419,82.0,62.0,40.0,False,,213.05146404404957,[],"[960, 540]",ColorTask,31.0,41.0,,,HRV,HRV_0246,2022-11-30 19:42:27
,wl-rdm,49,187023,0.0-6.41-0.41,0.0,50.0,,,,,,,[],,,,,,56.4,1.0,i,1.0,True,1072.3999999761581,65.0,62.0,40.0,False,,328.6234846974115,[],"[960, 540]",ColorTask,32.0,42.0,,,HRV,HRV_0246,2022-11-30 19:42:27
,wl-rdm,50,189023,0.0-6.42-0.42,0.0,51.0,,,,,,,[],,,,,,87.9,1.0,i,1.0,True,725.5999999046326,44.0,62.0,40.0,False,,208.89246818716705,[],"[960, 540]",ColorTask,33.0,43.0,,,HRV,HRV_0246,2022-11-30 19:42:27
,wl-rdm,51,191123,0.0-6.43-0.43,0.0,52.0,,,,,,,[],,,,,,87.9,1.0,i,1.0,True,705.3999999761581,43.0,62.0,40.0,False,,307.83011540373013,[],"[960, 540]",ColorTask,34.0,44.0,,,HRV,HRV_0246,2022-11-30 19:42:27
,wl-rdm,52,194406,0.0-6.44-0.44,0.0,53.0,,,,,,,[],,,,,,53.2,0.0,i,1.0,False,1887.6999999284744,114.0,62.0,40.0,False,,299.51191484071893,[],"[960, 540]",ColorTask,33.0,45.0,,,HRV,HRV_0246,2022-11-30 19:42:27
,wl-rdm,53,196856,0.0-6.45-0.45,0.0,54.0,,,,,,,[],,,,,,87.9,0.0,u,0.0,True,1083.0,65.0,62.0,40.0,False,,295.2994466920318,[],"[960, 540]",ColorTask,34.0,46.0,,,HRV,HRV_0246,2022-11-30 19:42:27
,wl-rdm,54,199272,0.0-6.46-0.46,0.0,55.0,,,,,,,[],,,,,,73.6,0.0,u,0.0,True,965.5,58.0,62.0,40.0,False,,371.8023630675141,[],"[960, 540]",ColorTask,35.0,47.0,,,HRV,HRV_0246,2022-11-30 19:42:27
,wl-rdm,55,201756,0.0-6.47-0.47,0.0,56.0,,,,,,,[],,,,,,73.6,0.0,u,0.0,True,1089.0,66.0,62.0,40.0,False,,307.81664401349815,[],"[960, 540]",ColorTask,36.0,48.0,,,HRV,HRV_0246,2022-11-30 19:42:27
,wl-rdm,56,204572,0.0-6.48-0.48,0.0,57.0,,,,,,,[],,,,,,50.0,0.0,i,1.0,False,1494.3999999761581,90.0,62.0,40.0,False,,264.2114037527629,[],"[960, 540]",ColorTask,35.0,49.0,,,HRV,HRV_0246,2022-11-30 19:42:27
,wl-rdm,57,206755,0.0-6.49-0.49,0.0,58.0,,,,,,,[],,,,,,73.6,0.0,u,0.0,True,794.2999999523163,48.0,62.0,40.0,False,,319.53923217380066,[],"[960, 540]",ColorTask,36.0,50.0,,,HRV,HRV_0246,2022-11-30 19:42:27
,wl-rdm,58,209273,0.0-6.50-0.50,0.0,59.0,,,,,,,[],,,,,,73.6,0.0,u,0.0,True,1057.6000000238419,64.0,62.0,40.0,False,,383.92064528005415,[],"[960, 540]",ColorTask,37.0,51.0,,,HRV,HRV_0246,2022-11-30 19:42:27
,wl-rdm,59,211439,0.0-6.51-0.51,0.0,60.0,,,,,,,[],,,,,,62.5,1.0,i,1.0,True,891.8999999761581,54.0,62.0,40.0,False,,209.4125063844149,[],"[960, 540]",ColorTask,38.0,52.0,,,HRV,HRV_0246,2022-11-30 19:42:27
,wl-rdm,60,213522,0.0-6.52-0.52,0.0,61.0,,,,,,,[],,,,,,50.0,1.0,u,0.0,False,781.3999999761581,47.0,62.0,40.0,False,,223.1220392974606,[],"[960, 540]",ColorTask,37.0,53.0,,,HRV,HRV_0246,2022-11-30 19:42:27
,wl-rdm,61,215755,0.0-6.53-0.53,0.0,62.0,,,,,,,[],,,,,,53.2,0.0,u,0.0,True,830.0999999046326,50.0,62.0,40.0,False,,327.76764735520356,[],"[960, 540]",ColorTask,38.0,54.0,,,HRV,HRV_0246,2022-11-30 19:42:27
,wl-rdm,62,218038,0.0-6.54-0.54,0.0,63.0,,,,,,,[],,,,,,53.2,1.0,u,0.0,False,1003.1000000238419,61.0,62.0,40.0,False,,209.35646600245235,[],"[960, 540]",ColorTask,37.0,55.0,,,HRV,HRV_0246,2022-11-30 19:42:27
,wl-rdm,63,220605,0.0-6.55-0.55,0.0,64.0,,,,,,,[],,,,,,50.0,1.0,i,1.0,True,1177.6999999284744,71.0,62.0,40.0,False,,331.2401509517996,[],"[960, 540]",ColorTask,38.0,56.0,,,HRV,HRV_0246,2022-11-30 19:42:27
,wl-rdm,64,223489,0.0-6.56-0.56,0.0,65.0,,,,,,,[],,,,,,56.4,1.0,u,0.0,False,1422.7999999523163,86.0,62.0,40.0,False,,381.9029075752993,[],"[960, 540]",ColorTask,37.0,57.0,,,HRV,HRV_0246,2022-11-30 19:42:27
,wl-rdm,65,225755,0.0-6.57-0.57,0.0,66.0,,,,,,,[],,,,,,73.6,1.0,i,1.0,True,978.7000000476837,59.0,62.0,40.0,False,,200.09215398851606,[],"[960, 540]",ColorTask,38.0,58.0,,,HRV,HRV_0246,2022-11-30 19:42:27
,wl-rdm,66,228372,0.0-6.58-0.58,0.0,67.0,,,,,,,[],,,,,,62.5,1.0,i,1.0,True,1229.5,74.0,62.0,40.0,False,,326.10313071015867,[],"[960, 540]",ColorTask,39.0,59.0,,,HRV,HRV_0246,2022-11-30 19:42:27
,wl-rdm,67,230639,0.0-6.59-0.59,0.0,68.0,,,,,,,[],,,,,,53.2,1.0,u,0.0,False,924.2999999523163,56.0,62.0,40.0,False,,275.0226714781628,[],"[960, 540]",ColorTask,38.0,60.0,,,HRV,HRV_0246,2022-11-30 19:42:27
,wl-rdm,68,233955,0.0-6.60-0.60,0.0,69.0,,,,,,,[],,,,,,50.0,0.0,u,0.0,True,1996.3000000715256,120.0,62.0,40.0,False,,242.89966025216643,[],"[960, 540]",ColorTask,39.0,61.0,,,HRV,HRV_0246,2022-11-30 19:42:27
,wl-rdm,69,235972,0.0-6.61-0.61,0.0,70.0,,,,,,,[],,,,,,87.9,0.0,u,0.0,True,712.0,43.0,62.0,40.0,False,,235.15176591698474,[],"[960, 540]",ColorTask,40.0,62.0,,,HRV,HRV_0246,2022-11-30 19:42:27
,wl-rdm,70,238421,0.0-6.62-0.62,0.0,71.0,,,,,,,[],,,,,,50.0,1.0,i,1.0,True,1160.1999999284744,70.0,62.0,40.0,False,,232.2773995232328,[],"[960, 540]",ColorTask,41.0,63.0,,,HRV,HRV_0246,2022-11-30 19:42:27
,wl-rdm,71,240572,0.0-6.63-0.63,0.0,72.0,,,,,,,[],,,,,,87.9,0.0,u,0.0,True,695.2999999523163,42.0,62.0,40.0,False,,386.57505774198216,[],"[960, 540]",ColorTask,42.0,64.0,,,HRV,HRV_0246,2022-11-30 19:42:27
,wl-rdm,72,242855,0.0-6.64-0.64,0.0,73.0,,,,,,,[],,,,,,73.6,1.0,i,1.0,True,858.8999999761581,52.0,62.0,40.0,False,,358.583768073997,[],"[960, 540]",ColorTask,43.0,65.0,,,HRV,HRV_0246,2022-11-30 19:42:27
,wl-rdm,73,244972,0.0-6.65-0.65,0.0,74.0,,,,,,,[],,,,,,73.6,0.0,u,0.0,True,711.5,43.0,62.0,40.0,False,,334.15009093175604,[],"[960, 540]",ColorTask,44.0,66.0,,,HRV,HRV_0246,2022-11-30 19:42:27
,wl-rdm,74,247288,0.0-6.66-0.66,0.0,75.0,,,,,,,[],,,,,,53.2,1.0,i,1.0,True,931.8000000715256,56.0,62.0,40.0,False,,308.68858086456595,[],"[960, 540]",ColorTask,45.0,67.0,,,HRV,HRV_0246,2022-11-30 19:42:27
,wl-rdm,75,249255,0.0-6.67-0.67,0.0,76.0,,,,,,,[],,,,,,50.0,0.0,u,0.0,True,666.8999999761581,40.0,62.0,40.0,False,,224.29519513940622,[],"[960, 540]",ColorTask,46.0,68.0,,,HRV,HRV_0246,2022-11-30 19:42:27
,wl-rdm,76,251154,0.0-6.68-0.68,0.0,77.0,,,,,,,[],,,,,,87.9,0.0,u,0.0,True,529.6000000238419,32.0,62.0,40.0,False,,299.84067284639536,[],"[960, 540]",ColorTask,47.0,69.0,,,HRV,HRV_0246,2022-11-30 19:42:27
,wl-rdm,77,253290,0.0-6.69-0.69,0.0,78.0,,,,,,,[],,,,,,62.5,0.0,u,0.0,True,832.3000000715256,50.0,62.0,40.0,False,,217.56379606538158,[],"[960, 540]",ColorTask,48.0,70.0,,,HRV,HRV_0246,2022-11-30 19:42:27
,wl-rdm,78,255688,0.0-6.70-0.70,0.0,79.0,,,,,,,[],,,,,,62.5,1.0,i,1.0,True,1115.8999999761581,67.0,62.0,40.0,False,,209.26968054516485,[],"[960, 540]",ColorTask,49.0,71.0,,,HRV,HRV_0246,2022-11-30 19:42:27
,wl-rdm,79,257689,0.0-6.71-0.71,0.0,80.0,,,,,,,[],,,,,,50.0,0.0,i,1.0,False,640.5,39.0,62.0,40.0,False,,299.56043948209685,[],"[960, 540]",ColorTask,48.0,72.0,,,HRV,HRV_0246,2022-11-30 19:42:27
,wl-rdm,80,260105,0.0-6.72-0.72,0.0,81.0,,,,,,,[],,,,,,73.6,1.0,i,1.0,True,1120.2999999523163,68.0,62.0,40.0,False,,215.31286064290455,[],"[960, 540]",ColorTask,49.0,73.0,,,HRV,HRV_0246,2022-11-30 19:42:27
,wl-rdm,81,262188,0.0-6.73-0.73,0.0,82.0,,,,,,,[],,,,,,87.9,1.0,i,1.0,True,694.5,42.0,62.0,40.0,False,,320.03780244398973,[],"[960, 540]",ColorTask,50.0,74.0,,,HRV,HRV_0246,2022-11-30 19:42:27
,wl-rdm,82,265188,0.0-6.74-0.74,0.0,83.0,,,,,,,[],,,,,,56.4,0.0,u,0.0,True,1637.8999999761581,99.0,62.0,40.0,False,,279.8610968524256,[],"[960, 540]",ColorTask,51.0,75.0,,,HRV,HRV_0246,2022-11-30 19:42:27
,wl-rdm,83,267739,0.0-6.75-0.75,0.0,84.0,,,,,,,[],,,,,,56.4,1.0,i,1.0,True,1097.3999999761581,66.0,62.0,40.0,False,,391.7399940407808,[],"[960, 540]",ColorTask,52.0,76.0,,,HRV,HRV_0246,2022-11-30 19:42:27
,wl-rdm,84,269688,0.0-6.76-0.76,0.0,85.0,,,,,,,[],,,,,,87.9,0.0,u,0.0,True,606.8999999761581,37.0,62.0,40.0,False,,256.3701112019573,[],"[960, 540]",ColorTask,53.0,77.0,,,HRV,HRV_0246,2022-11-30 19:42:27
,wl-rdm,85,271772,0.0-6.77-0.77,0.0,86.0,,,,,,,[],,,,,,87.9,1.0,i,1.0,True,786.7000000476837,48.0,62.0,40.0,False,,210.6148549562681,[],"[960, 540]",ColorTask,54.0,78.0,,,HRV,HRV_0246,2022-11-30 19:42:27
,wl-rdm,86,274505,0.0-6.78-0.78,0.0,87.0,,,,,,,[],,,,,,62.5,0.0,u,0.0,True,1432.0,86.0,62.0,40.0,False,,242.50948158462262,[],"[960, 540]",ColorTask,55.0,79.0,,,HRV,HRV_0246,2022-11-30 19:42:27
,wl-rdm,87,276438,0.0-6.79-0.79,0.0,88.0,,,,,,,[],,,,,,87.9,0.0,u,0.0,True,637.1000000238419,39.0,62.0,40.0,False,,212.99868790133323,[],"[960, 540]",ColorTask,56.0,80.0,,,HRV,HRV_0246,2022-11-30 19:42:27
,wl-rdm,88,278554,0.0-6.80-0.80,0.0,89.0,,,,,,,[],,,,,,56.4,0.0,u,0.0,True,705.7000000476837,43.0,62.0,40.0,False,,343.23482045043204,[],"[960, 540]",ColorTask,57.0,81.0,,,HRV,HRV_0246,2022-11-30 19:42:27
,wl-rdm,89,280921,0.0-6.81-0.81,0.0,90.0,,,,,,,[],,,,,,56.4,1.0,i,1.0,True,1073.3000000715256,65.0,62.0,40.0,False,,220.15506033882315,[],"[960, 540]",ColorTask,58.0,82.0,,,HRV,HRV_0246,2022-11-30 19:42:27
,wl-rdm,90,282989,0.0-6.82-0.82,0.0,91.0,,,,,,,[],,,,,,56.4,1.0,i,1.0,True,795.6000000238419,48.0,62.0,40.0,False,,203.20878483915268,[],"[960, 540]",ColorTask,59.0,83.0,,,HRV,HRV_0246,2022-11-30 19:42:27
,wl-rdm,91,285654,0.0-6.83-0.83,0.0,92.0,,,,,,,[],,,,,,53.2,0.0,i,1.0,False,1376.2999999523163,83.0,62.0,40.0,False,,210.14150913398277,[],"[960, 540]",ColorTask,58.0,84.0,,,HRV,HRV_0246,2022-11-30 19:42:27
,wl-rdm,92,288237,0.0-6.84-0.84,0.0,93.0,,,,,,,[],,,,,,56.4,1.0,i,1.0,True,1171.3999999761581,71.0,62.0,40.0,False,,320.3530852652161,[],"[960, 540]",ColorTask,59.0,85.0,,,HRV,HRV_0246,2022-11-30 19:42:27
,wl-rdm,93,290705,0.0-6.85-0.85,0.0,94.0,,,,,,,[],,,,,,56.4,0.0,u,0.0,True,1148.8000000715256,69.0,62.0,40.0,False,,242.41878812807596,[],"[960, 540]",ColorTask,60.0,86.0,,,HRV,HRV_0246,2022-11-30 19:42:27
,wl-rdm,94,292871,0.0-6.86-0.86,0.0,95.0,,,,,,,[],,,,,,53.2,0.0,u,0.0,True,821.0,50.0,62.0,40.0,False,,273.9340554798179,[],"[960, 540]",ColorTask,61.0,87.0,,,HRV,HRV_0246,2022-11-30 19:42:27
,wl-rdm,95,295254,0.0-6.87-0.87,0.0,96.0,,,,,,,[],,,,,,56.4,0.0,u,0.0,True,937.2999999523163,57.0,62.0,40.0,False,,353.0034113459282,[],"[960, 540]",ColorTask,62.0,88.0,,,HRV,HRV_0246,2022-11-30 19:42:27
,wl-rdm,96,297555,0.0-6.88-0.88,0.0,97.0,,,,,,,[],,,,,,73.6,0.0,u,0.0,True,905.3000000715256,55.0,62.0,40.0,False,,303.9566498642353,[],"[960, 540]",ColorTask,63.0,89.0,,,HRV,HRV_0246,2022-11-30 19:42:27
,wl-rdm,97,299505,0.0-6.89-0.89,0.0,98.0,,,,,,,[],,,,,,73.6,1.0,i,1.0,True,682.3000000715256,41.0,62.0,40.0,False,,215.34690317431307,[],"[960, 540]",ColorTask,64.0,90.0,,,HRV,HRV_0246,2022-11-30 19:42:27
,wl-rdm,98,301939,0.0-6.90-0.90,0.0,99.0,,,,,,,[],,,,,,53.2,1.0,i,1.0,True,1055.1000000238419,64.0,62.0,40.0,False,,311.94598379259605,[],"[960, 540]",ColorTask,65.0,91.0,,,HRV,HRV_0246,2022-11-30 19:42:27
,wl-rdm,99,303854,0.0-6.91-0.91,0.0,100.0,,,,,,,[],,,,,,50.0,0.0,i,1.0,False,637.1000000238419,39.0,62.0,40.0,False,,207.2158420567545,[],"[960, 540]",ColorTask,64.0,92.0,,,HRV,HRV_0246,2022-11-30 19:42:27
,wl-rdm,100,306271,0.0-6.92-0.92,0.0,101.0,,,,,,,[],,,,,,53.2,1.0,u,0.0,False,992.7999999523163,60.0,62.0,40.0,False,,353.274470970856,[],"[960, 540]",ColorTask,63.0,93.0,,,HRV,HRV_0246,2022-11-30 19:42:27
,wl-rdm,101,308355,0.0-6.93-0.93,0.0,102.0,,,,,,,[],,,,,,62.5,0.0,u,0.0,True,764.6000000238419,46.0,62.0,40.0,False,,239.09355276240314,[],"[960, 540]",ColorTask,64.0,94.0,,,HRV,HRV_0246,2022-11-30 19:42:27
,wl-rdm,102,310537,0.0-6.94-0.94,0.0,103.0,,,,,,,[],,,,,,87.9,0.0,u,0.0,True,806.7999999523163,49.0,62.0,40.0,False,,293.07645602222857,[],"[960, 540]",ColorTask,65.0,95.0,,,HRV,HRV_0246,2022-11-30 19:42:27
,wl-rdm,103,312571,0.0-6.95-0.95,0.0,104.0,,,,,,,[],,,,,,73.6,0.0,u,0.0,True,655.8999999761581,40.0,62.0,40.0,False,,286.7764188519364,[],"[960, 540]",ColorTask,66.0,96.0,,,HRV,HRV_0246,2022-11-30 19:42:27
,wl-rdm,104,314505,0.0-6.96-0.96,0.0,105.0,,,,,,,[],,,,,,62.5,0.0,u,0.0,True,664.7000000476837,40.0,62.0,40.0,False,,200.0008590575368,[],"[960, 540]",ColorTask,67.0,97.0,,,HRV,HRV_0246,2022-11-30 19:42:27
,wl-rdm,105,316437,0.0-6.97-0.97,0.0,106.0,,,,,,,[],,,,,,62.5,0.0,u,0.0,True,621.3000000715256,38.0,62.0,40.0,False,,226.40788216317694,[],"[960, 540]",ColorTask,68.0,98.0,,,HRV,HRV_0246,2022-11-30 19:42:27
,wl-rdm,106,318922,0.0-6.98-0.98,0.0,107.0,,,,,,,[],,,,,,53.2,0.0,u,0.0,True,1007.5,61.0,62.0,40.0,False,,391.112893933784,[],"[960, 540]",ColorTask,69.0,99.0,,,HRV,HRV_0246,2022-11-30 19:42:27
,wl-rdm,107,321070,0.0-6.99-0.99,0.0,108.0,,,,,,,[],,,,,,87.9,1.0,i,1.0,True,816.4000000953674,49.0,62.0,40.0,False,,259.0039292280226,[],"[960, 540]",ColorTask,70.0,100.0,,,HRV,HRV_0246,2022-11-30 19:42:27
,wl-rdm,108,324422,0.0-6.100-0.100,0.0,109.0,,,,,,,[],,,,,,56.4,1.0,i,1.0,True,2044.5,123.0,62.0,40.0,False,,218.91333611905682,[],"[960, 540]",ColorTask,71.0,101.0,,,HRV,HRV_0246,2022-11-30 19:42:27
,wl-rdm,109,326921,0.0-6.101-0.101,0.0,110.0,,,,,,,[],,,,,,50.0,0.0,u,0.0,True,1047.6999999284744,63.0,62.0,40.0,False,,390.15625733861475,[],"[960, 540]",ColorTask,72.0,102.0,,,HRV,HRV_0246,2022-11-30 19:42:27
,wl-rdm,110,329371,0.0-6.102-0.102,0.0,111.0,,,,,,,[],,,,,,53.2,1.0,u,0.0,False,980.3999999761581,59.0,62.0,40.0,False,,398.9707632769246,[],"[960, 540]",ColorTask,71.0,103.0,,,HRV,HRV_0246,2022-11-30 19:42:27
,wl-rdm,111,331789,0.0-6.103-0.103,0.0,112.0,,,,,,,[],,,,,,62.5,1.0,i,1.0,True,1088.8999999761581,66.0,62.0,40.0,False,,255.14891041617656,[],"[960, 540]",ColorTask,72.0,104.0,,,HRV,HRV_0246,2022-11-30 19:42:27
,wl-rdm,112,334037,0.0-6.104-0.104,0.0,113.0,,,,,,,[],,,,,,50.0,1.0,i,1.0,True,889.6000000238419,54.0,62.0,40.0,False,,295.38884569416774,[],"[960, 540]",ColorTask,73.0,105.0,,,HRV,HRV_0246,2022-11-30 19:42:27
,wl-rdm,113,336070,0.0-6.105-0.105,0.0,114.0,,,,,,,[],,,,,,50.0,0.0,i,1.0,False,610.0,37.0,62.0,40.0,False,,349.97952776799923,[],"[960, 540]",ColorTask,72.0,106.0,,,HRV,HRV_0246,2022-11-30 19:42:27
,wl-rdm,114,338554,0.0-6.106-0.106,0.0,115.0,,,,,,,[],,,,,,53.2,0.0,i,1.0,False,1114.5999999046326,67.0,62.0,40.0,False,,287.8913771096392,[],"[960, 540]",ColorTask,71.0,107.0,,,HRV,HRV_0246,2022-11-30 19:42:27
,wl-rdm,115,340921,0.0-6.107-0.107,0.0,116.0,,,,,,,[],,,,,,87.9,1.0,i,1.0,True,1073.6000000238419,65.0,62.0,40.0,False,,208.31326622512674,[],"[960, 540]",ColorTask,72.0,108.0,,,HRV,HRV_0246,2022-11-30 19:42:27
,wl-html-keyboard-response,116,419124,0.0-7.0-0.0,1.0,117.0,,,,,,,,76193.60000002384,1.0,0,,,,,,,,,,,,,,,,,,,,,,HRV,HRV_0246,2022-11-30 19:42:27
,wl-rdm,117,422053,0.0-8.0-0.0,1.0,118.0,,,,,,,[],,,,,,56.4,1.0,i,1.0,True,1626.8999999761581,98.0,62.0,40.0,False,,238.29594765448937,[],"[960, 540]",ColorTask,73.0,1.0,,,HRV,HRV_0246,2022-11-30 19:42:27
,wl-rdm,118,424404,0.0-8.1-0.1,1.0,119.0,,,,,,,[],,,,,,62.5,1.0,u,0.0,False,1079.7999999523163,65.0,62.0,40.0,False,,211.53310409890702,[],"[960, 540]",ColorTask,72.0,2.0,,,HRV,HRV_0246,2022-11-30 19:42:27
,wl-rdm,119,426703,0.0-8.2-0.2,1.0,120.0,,,,,,,[],,,,,,56.4,0.0,u,0.0,True,992.9000000953674,60.0,62.0,40.0,False,,221.31884754402978,[],"[960, 540]",ColorTask,73.0,3.0,,,HRV,HRV_0246,2022-11-30 19:42:27
,wl-rdm,120,428654,0.0-8.3-0.3,1.0,121.0,,,,,,,[],,,,,,87.9,0.0,u,0.0,True,661.8999999761581,40.0,62.0,40.0,False,,212.83174161769716,[],"[960, 540]",ColorTask,74.0,4.0,,,HRV,HRV_0246,2022-11-30 19:42:27
,wl-rdm,121,431504,0.0-8.4-0.4,1.0,122.0,,,,,,,[],,,,,,56.4,1.0,i,1.0,True,1554.5,94.0,62.0,40.0,False,,225.01834877044962,[],"[960, 540]",ColorTask,75.0,5.0,,,HRV,HRV_0246,2022-11-30 19:42:27
,wl-rdm,122,433569,0.0-8.5-0.5,1.0,123.0,,,,,,,[],,,,,,50.0,1.0,u,0.0,False,621.7999999523163,38.0,62.0,40.0,False,,384.2386113715362,[],"[960, 540]",ColorTask,74.0,6.0,,,HRV,HRV_0246,2022-11-30 19:42:27
,wl-rdm,123,436036,0.0-8.6-0.6,1.0,124.0,,,,,,,[],,,,,,53.2,1.0,i,1.0,True,1044.1999999284744,63.0,62.0,40.0,False,,350.1462668294815,[],"[960, 540]",ColorTask,75.0,7.0,,,HRV,HRV_0246,2022-11-30 19:42:27
,wl-rdm,124,438286,0.0-8.7-0.7,1.0,125.0,,,,,,,[],,,,,,56.4,1.0,i,1.0,True,942.5999999046326,57.0,62.0,40.0,False,,248.08033231119555,[],"[960, 540]",ColorTask,76.0,8.0,,,HRV,HRV_0246,2022-11-30 19:42:27
,wl-rdm,125,440536,0.0-8.8-0.8,1.0,126.0,,,,,,,[],,,,,,73.6,1.0,i,1.0,True,800.4999998807907,48.0,62.0,40.0,False,,378.70360901996025,[],"[960, 540]",ColorTask,77.0,9.0,,,HRV,HRV_0246,2022-11-30 19:42:27
,wl-rdm,126,443153,0.0-8.9-0.9,1.0,127.0,,,,,,,[],,,,,,56.4,1.0,i,1.0,True,1215.3999999761581,73.0,62.0,40.0,False,,327.0042684028466,[],"[960, 540]",ColorTask,78.0,10.0,,,HRV,HRV_0246,2022-11-30 19:42:27
,wl-rdm,127,445569,0.0-8.10-0.10,1.0,128.0,,,,,,,[],,,,,,50.0,1.0,i,1.0,True,964.5,58.0,62.0,40.0,False,,371.3465642904515,[],"[960, 540]",ColorTask,79.0,11.0,,,HRV,HRV_0246,2022-11-30 19:42:27
,wl-rdm,128,447702,0.0-8.11-0.11,1.0,129.0,,,,,,,[],,,,,,73.6,1.0,i,1.0,True,821.3000000715256,50.0,62.0,40.0,False,,224.690084546225,[],"[960, 540]",ColorTask,80.0,12.0,,,HRV,HRV_0246,2022-11-30 19:42:27
,wl-rdm,129,449786,0.0-8.12-0.12,1.0,130.0,,,,,,,[],,,,,,73.6,0.0,u,0.0,True,812.6000000238419,49.0,62.0,40.0,False,,200.50171703946557,[],"[960, 540]",ColorTask,81.0,13.0,,,HRV,HRV_0246,2022-11-30 19:42:27
,wl-rdm,130,452185,0.0-8.13-0.13,1.0,131.0,,,,,,,[],,,,,,50.0,1.0,u,0.0,False,1014.1000000238419,61.0,62.0,40.0,False,,307.05013550365413,[],"[960, 540]",ColorTask,80.0,14.0,,,HRV,HRV_0246,2022-11-30 19:42:27
,wl-rdm,131,455186,0.0-8.14-0.14,1.0,132.0,,,,,,,[],,,,,,50.0,1.0,i,1.0,True,1664.5,100.0,62.0,40.0,False,,270.199437538202,[],"[960, 540]",ColorTask,81.0,15.0,,,HRV,HRV_0246,2022-11-30 19:42:27
,wl-rdm,132,457569,0.0-8.15-0.15,1.0,133.0,,,,,,,[],,,,,,56.4,0.0,u,0.0,True,1074.6999998092651,65.0,62.0,40.0,False,,218.6236324810175,[],"[960, 540]",ColorTask,82.0,16.0,,,HRV,HRV_0246,2022-11-30 19:42:27
,wl-rdm,133,460002,0.0-8.16-0.16,1.0,134.0,,,,,,,[],,,,,,62.5,1.0,i,1.0,True,1140.0000001192093,69.0,62.0,40.0,False,,203.08254584654802,[],"[960, 540]",ColorTask,83.0,17.0,,,HRV,HRV_0246,2022-11-30 19:42:27
,wl-rdm,134,462585,0.0-8.17-0.17,1.0,135.0,,,,,,,[],,,,,,62.5,0.0,u,0.0,True,1198.6000000238419,72.0,62.0,40.0,False,,310.1855359240726,[],"[960, 540]",ColorTask,84.0,18.0,,,HRV,HRV_0246,2022-11-30 19:42:27
,wl-rdm,135,464635,0.0-8.18-0.18,1.0,136.0,,,,,,,[],,,,,,73.6,0.0,u,0.0,True,778.5,47.0,62.0,40.0,False,,204.12320021146022,[],"[960, 540]",ColorTask,85.0,19.0,,,HRV,HRV_0246,2022-11-30 19:42:27
,wl-rdm,136,466786,0.0-8.19-0.19,1.0,137.0,,,,,,,[],,,,,,73.6,0.0,u,0.0,True,723.3999999761581,44.0,62.0,40.0,False,,341.8256934254547,[],"[960, 540]",ColorTask,86.0,20.0,,,HRV,HRV_0246,2022-11-30 19:42:27
,wl-rdm,137,468702,0.0-8.20-0.20,1.0,138.0,,,,,,,[],,,,,,73.6,0.0,u,0.0,True,604.3000000715256,37.0,62.0,40.0,False,,220.40220663443466,[],"[960, 540]",ColorTask,87.0,21.0,,,HRV,HRV_0246,2022-11-30 19:42:27
,wl-rdm,138,470885,0.0-8.21-0.21,1.0,139.0,,,,,,,[],,,,,,87.9,1.0,i,1.0,True,726.7999999523163,44.0,62.0,40.0,False,,380.3424530950804,[],"[960, 540]",ColorTask,88.0,22.0,,,HRV,HRV_0246,2022-11-30 19:42:27
,wl-rdm,139,472969,0.0-8.22-0.22,1.0,140.0,,,,,,,[],,,,,,87.9,0.0,u,0.0,True,749.1999999284744,45.0,62.0,40.0,False,,255.39676174735916,[],"[960, 540]",ColorTask,89.0,23.0,,,HRV,HRV_0246,2022-11-30 19:42:27
,wl-rdm,140,474969,0.0-8.23-0.23,1.0,141.0,,,,,,,[],,,,,,53.2,0.0,u,0.0,True,648.8000000715256,39.0,62.0,40.0,False,,272.1481397229098,[],"[960, 540]",ColorTask,90.0,24.0,,,HRV,HRV_0246,2022-11-30 19:42:27
,wl-rdm,141,477068,0.0-8.24-0.24,1.0,142.0,,,,,,,[],,,,,,50.0,0.0,u,0.0,True,626.7999999523163,38.0,62.0,40.0,False,,390.6898602599333,[],"[960, 540]",ColorTask,91.0,25.0,,,HRV,HRV_0246,2022-11-30 19:42:27
,wl-rdm,142,479219,0.0-8.25-0.25,1.0,143.0,,,,,,,[],,,,,,73.6,1.0,i,1.0,True,873.1000000238419,53.0,62.0,40.0,False,,205.24878627126088,[],"[960, 540]",ColorTask,92.0,26.0,,,HRV,HRV_0246,2022-11-30 19:42:27
,wl-rdm,143,481235,0.0-8.26-0.26,1.0,144.0,,,,,,,[],,,,,,62.5,0.0,u,0.0,True,704.2000000476837,43.0,62.0,40.0,False,,237.60040308794876,[],"[960, 540]",ColorTask,93.0,27.0,,,HRV,HRV_0246,2022-11-30 19:42:27
,wl-rdm,144,483234,0.0-8.27-0.27,1.0,145.0,,,,,,,[],,,,,,73.6,1.0,i,1.0,True,630.1999999284744,38.0,62.0,40.0,False,,289.6846240204442,[],"[960, 540]",ColorTask,94.0,28.0,,,HRV,HRV_0246,2022-11-30 19:42:27
,wl-rdm,145,485468,0.0-8.28-0.28,1.0,146.0,,,,,,,[],,,,,,62.5,1.0,u,0.0,False,803.2000000476837,49.0,62.0,40.0,False,,365.9753562045952,[],"[960, 540]",ColorTask,93.0,29.0,,,HRV,HRV_0246,2022-11-30 19:42:27
,wl-rdm,146,487703,0.0-8.29-0.29,1.0,147.0,,,,,,,[],,,,,,53.2,0.0,u,0.0,True,826.7000000476837,50.0,62.0,40.0,False,,321.68841377465947,[],"[960, 540]",ColorTask,94.0,30.0,,,HRV,HRV_0246,2022-11-30 19:42:27
,wl-rdm,147,489852,0.0-8.30-0.30,1.0,148.0,,,,,,,[],,,,,,62.5,0.0,u,0.0,True,861.7000000476837,52.0,62.0,40.0,False,,200.47779193766678,[],"[960, 540]",ColorTask,95.0,31.0,,,HRV,HRV_0246,2022-11-30 19:42:27
,wl-rdm,148,491785,0.0-8.31-0.31,1.0,149.0,,,,,,,[],,,,,,87.9,0.0,u,0.0,True,664.1000000238419,40.0,62.0,40.0,False,,210.32935819267854,[],"[960, 540]",ColorTask,96.0,32.0,,,HRV,HRV_0246,2022-11-30 19:42:27
,wl-rdm,149,494269,0.0-8.32-0.32,1.0,150.0,,,,,,,[],,,,,,56.4,1.0,i,1.0,True,1103.799999833107,67.0,62.0,40.0,False,,299.4749882920588,[],"[960, 540]",ColorTask,97.0,33.0,,,HRV,HRV_0246,2022-11-30 19:42:27
,wl-rdm,150,496635,0.0-8.33-0.33,1.0,151.0,,,,,,,[],,,,,,56.4,0.0,u,0.0,True,913.0,55.0,62.0,40.0,False,,374.16540916300215,[],"[960, 540]",ColorTask,98.0,34.0,,,HRV,HRV_0246,2022-11-30 19:42:27
,wl-rdm,151,498585,0.0-8.34-0.34,1.0,152.0,,,,,,,[],,,,,,56.4,0.0,u,0.0,True,629.9000000953674,38.0,62.0,40.0,False,,245.01996874797516,[],"[960, 540]",ColorTask,99.0,35.0,,,HRV,HRV_0246,2022-11-30 19:42:27
,wl-rdm,152,500635,0.0-8.35-0.35,1.0,153.0,,,,,,,[],,,,,,53.2,0.0,i,1.0,False,770.8000000715256,47.0,62.0,40.0,False,,204.40962724261576,[],"[960, 540]",ColorTask,98.0,36.0,,,HRV,HRV_0246,2022-11-30 19:42:27
,wl-rdm,153,503153,0.0-8.36-0.36,1.0,154.0,,,,,,,[],,,,,,62.5,0.0,i,1.0,False,1209.299999833107,73.0,62.0,40.0,False,,226.24256595460324,[],"[960, 540]",ColorTask,97.0,37.0,,,HRV,HRV_0246,2022-11-30 19:42:27
,wl-rdm,154,505535,0.0-8.37-0.37,1.0,155.0,,,,,,,[],,,,,,53.2,0.0,u,0.0,True,1037.6000000238419,63.0,62.0,40.0,False,,258.57280257611546,[],"[960, 540]",ColorTask,98.0,38.0,,,HRV,HRV_0246,2022-11-30 19:42:27
,wl-rdm,155,508469,0.0-8.38-0.38,1.0,156.0,,,,,,,[],,,,,,53.2,1.0,i,1.0,True,1654.7999999523163,100.0,62.0,40.0,False,,207.81751807658787,[],"[960, 540]",ColorTask,99.0,39.0,,,HRV,HRV_0246,2022-11-30 19:42:27
,wl-rdm,156,510568,0.0-8.39-0.39,1.0,157.0,,,,,,,[],,,,,,87.9,0.0,u,0.0,True,799.3000000715256,48.0,62.0,40.0,False,,229.43397498204973,[],"[960, 540]",ColorTask,100.0,40.0,,,HRV,HRV_0246,2022-11-30 19:42:27
,wl-rdm,157,513517,0.0-8.40-0.40,1.0,158.0,,,,,,,[],,,,,,53.2,1.0,u,0.0,False,1610.1000000238419,97.0,62.0,40.0,False,,258.30205647465783,[],"[960, 540]",ColorTask,99.0,41.0,,,HRV,HRV_0246,2022-11-30 19:42:27
,wl-rdm,158,515802,0.0-8.41-0.41,1.0,159.0,,,,,,,[],,,,,,53.2,1.0,i,1.0,True,990.7999999523163,60.0,62.0,40.0,False,,207.22205619204135,[],"[960, 540]",ColorTask,100.0,42.0,,,HRV,HRV_0246,2022-11-30 19:42:27
,wl-rdm,159,517785,0.0-8.42-0.42,1.0,160.0,,,,,,,[],,,,,,87.9,0.0,u,0.0,True,648.8000000715256,39.0,62.0,40.0,False,,253.60283275692888,[],"[960, 540]",ColorTask,101.0,43.0,,,HRV,HRV_0246,2022-11-30 19:42:27
,wl-rdm,160,519769,0.0-8.43-0.43,1.0,161.0,,,,,,,[],,,,,,62.5,1.0,i,1.0,True,665.2000000476837,40.0,62.0,40.0,False,,252.02318730188756,[],"[960, 540]",ColorTask,102.0,44.0,,,HRV,HRV_0246,2022-11-30 19:42:27
,wl-rdm,161,523218,0.0-8.44-0.44,1.0,162.0,,,,,,,[],,,,,,50.0,0.0,i,1.0,False,2015.2000000476837,121.0,62.0,40.0,False,,360.91684558792804,[],"[960, 540]",ColorTask,101.0,45.0,,,HRV,HRV_0246,2022-11-30 19:42:27
,wl-rdm,162,525501,0.0-8.45-0.45,1.0,163.0,,,,,,,[],,,,,,56.4,0.0,u,0.0,True,993.3999999761581,60.0,62.0,40.0,False,,218.54016903292242,[],"[960, 540]",ColorTask,102.0,46.0,,,HRV,HRV_0246,2022-11-30 19:42:27
,wl-rdm,163,527751,0.0-8.46-0.46,1.0,164.0,,,,,,,[],,,,,,62.5,1.0,i,1.0,True,871.5,53.0,62.0,40.0,False,,282.7277093668407,[],"[960, 540]",ColorTask,103.0,47.0,,,HRV,HRV_0246,2022-11-30 19:42:27
,wl-rdm,164,530068,0.0-8.47-0.47,1.0,165.0,,,,,,,[],,,,,,73.6,1.0,i,1.0,True,945.2999999523163,57.0,62.0,40.0,False,,291.7248601440739,[],"[960, 540]",ColorTask,104.0,48.0,,,HRV,HRV_0246,2022-11-30 19:42:27
,wl-rdm,165,532934,0.0-8.48-0.48,1.0,166.0,,,,,,,[],,,,,,53.2,0.0,u,0.0,True,1393.3000000715256,84.0,62.0,40.0,False,,392.20830855974805,[],"[960, 540]",ColorTask,105.0,49.0,,,HRV,HRV_0246,2022-11-30 19:42:27
,wl-rdm,166,535801,0.0-8.49-0.49,1.0,167.0,,,,,,,[],,,,,,53.2,0.0,i,1.0,False,1489.3999999761581,90.0,62.0,40.0,False,,300.57989775025004,[],"[960, 540]",ColorTask,104.0,50.0,,,HRV,HRV_0246,2022-11-30 19:42:27
,wl-rdm,167,537934,0.0-8.50-0.50,1.0,168.0,,,,,,,[],,,,,,87.9,1.0,i,1.0,True,721.2999999523163,44.0,62.0,40.0,False,,328.8583389500742,[],"[960, 540]",ColorTask,105.0,51.0,,,HRV,HRV_0246,2022-11-30 19:42:27
,wl-rdm,168,540002,0.0-8.51-0.51,1.0,169.0,,,,,,,[],,,,,,62.5,0.0,u,0.0,True,739.3999999761581,45.0,62.0,40.0,False,,255.75924524570624,[],"[960, 540]",ColorTask,106.0,52.0,,,HRV,HRV_0246,2022-11-30 19:42:27
,wl-rdm,169,542034,0.0-8.52-0.52,1.0,170.0,,,,,,,[],,,,,,73.6,0.0,u,0.0,True,729.6000000238419,44.0,62.0,40.0,False,,231.00507989553526,[],"[960, 540]",ColorTask,107.0,53.0,,,HRV,HRV_0246,2022-11-30 19:42:27
,wl-rdm,170,544401,0.0-8.53-0.53,1.0,171.0,,,,,,,[],,,,,,50.0,0.0,i,1.0,False,1047.6999999284744,63.0,62.0,40.0,False,,253.82075437877626,[],"[960, 540]",ColorTask,106.0,54.0,,,HRV,HRV_0246,2022-11-30 19:42:27
,wl-rdm,171,546534,0.0-8.54-0.54,1.0,172.0,,,,,,,[],,,,,,87.9,0.0,u,0.0,True,758.0,46.0,62.0,40.0,False,,312.6982292289066,[],"[960, 540]",ColorTask,107.0,55.0,,,HRV,HRV_0246,2022-11-30 19:42:27
,wl-rdm,172,548584,0.0-8.55-0.55,1.0,173.0,,,,,,,[],,,,,,73.6,1.0,i,1.0,True,732.6000000238419,44.0,62.0,40.0,False,,239.0318635986964,[],"[960, 540]",ColorTask,108.0,56.0,,,HRV,HRV_0246,2022-11-30 19:42:27
,wl-rdm,173,550985,0.0-8.56-0.56,1.0,174.0,,,,,,,[],,,,,,50.0,0.0,i,1.0,False,966.3999999761581,58.0,62.0,40.0,False,,364.17805674468775,[],"[960, 540]",ColorTask,107.0,57.0,,,HRV,HRV_0246,2022-11-30 19:42:27
,wl-rdm,174,553218,0.0-8.57-0.57,1.0,175.0,,,,,,,[],,,,,,62.5,0.0,u,0.0,True,764.8999999761581,46.0,62.0,40.0,False,,385.15227624518275,[],"[960, 540]",ColorTask,108.0,58.0,,,HRV,HRV_0246,2022-11-30 19:42:27
,wl-rdm,175,555285,0.0-8.58-0.58,1.0,176.0,,,,,,,[],,,,,,73.6,1.0,i,1.0,True,755.0,46.0,62.0,40.0,False,,219.33614097797224,[],"[960, 540]",ColorTask,109.0,59.0,,,HRV,HRV_0246,2022-11-30 19:42:27
,wl-rdm,176,557634,0.0-8.59-0.59,1.0,177.0,,,,,,,[],,,,,,53.2,0.0,i,1.0,False,996.7000000476837,60.0,62.0,40.0,False,,290.38640228962646,[],"[960, 540]",ColorTask,108.0,60.0,,,HRV,HRV_0246,2022-11-30 19:42:27
,wl-rdm,177,559834,0.0-8.60-0.60,1.0,178.0,,,,,,,[],,,,,,87.9,1.0,i,1.0,True,895.7000000476837,54.0,62.0,40.0,False,,245.64671150229066,[],"[960, 540]",ColorTask,109.0,61.0,,,HRV,HRV_0246,2022-11-30 19:42:27
,wl-rdm,178,563201,0.0-8.61-0.61,1.0,179.0,,,,,,,[],,,,,,50.0,0.0,i,1.0,False,1989.8000000715256,120.0,62.0,40.0,False,,285.43114972693877,[],"[960, 540]",ColorTask,108.0,62.0,,,HRV,HRV_0246,2022-11-30 19:42:27
,wl-rdm,179,565218,0.0-8.62-0.62,1.0,180.0,,,,,,,[],,,,,,73.6,1.0,i,1.0,True,739.8999999761581,45.0,62.0,40.0,False,,210.0066904835852,[],"[960, 540]",ColorTask,109.0,63.0,,,HRV,HRV_0246,2022-11-30 19:42:27
,wl-rdm,180,567218,0.0-8.63-0.63,1.0,181.0,,,,,,,[],,,,,,87.9,1.0,i,1.0,True,688.6000000238419,42.0,62.0,40.0,False,,250.2419853894956,[],"[960, 540]",ColorTask,110.0,64.0,,,HRV,HRV_0246,2022-11-30 19:42:27
,wl-rdm,181,569769,0.0-8.64-0.64,1.0,182.0,,,,,,,[],,,,,,50.0,1.0,u,0.0,False,1227.1000000238419,74.0,62.0,40.0,False,,240.3228527968685,[],"[960, 540]",ColorTask,109.0,65.0,,,HRV,HRV_0246,2022-11-30 19:42:27
,wl-rdm,182,572335,0.0-8.65-0.65,1.0,183.0,,,,,,,[],,,,,,56.4,0.0,u,0.0,True,1271.0,77.0,62.0,40.0,False,,211.140856627284,[],"[960, 540]",ColorTask,110.0,66.0,,,HRV,HRV_0246,2022-11-30 19:42:27
,wl-rdm,183,575101,0.0-8.66-0.66,1.0,184.0,,,,,,,[],,,,,,50.0,0.0,i,1.0,False,1309.3999999761581,79.0,62.0,40.0,False,,392.0164270362522,[],"[960, 540]",ColorTask,109.0,67.0,,,HRV,HRV_0246,2022-11-30 19:42:27
,wl-rdm,184,578185,0.0-8.67-0.67,1.0,185.0,,,,,,,[],,,,,,56.4,1.0,i,1.0,True,1657.6000000238419,100.0,62.0,40.0,False,,347.7033225044054,[],"[960, 540]",ColorTask,110.0,68.0,,,HRV,HRV_0246,2022-11-30 19:42:27
,wl-rdm,185,581200,0.0-8.68-0.68,1.0,186.0,,,,,,,[],,,,,,53.2,1.0,i,1.0,True,1541.6000000238419,93.0,62.0,40.0,False,,395.737451471365,[],"[960, 540]",ColorTask,111.0,69.0,,,HRV,HRV_0246,2022-11-30 19:42:27
,wl-rdm,186,583600,0.0-8.69-0.69,1.0,187.0,,,,,,,[],,,,,,56.4,0.0,u,0.0,True,1071.2000000476837,65.0,62.0,40.0,False,,243.46150487412024,[],"[960, 540]",ColorTask,112.0,70.0,,,HRV,HRV_0246,2022-11-30 19:42:27
,wl-rdm,187,585785,0.0-8.70-0.70,1.0,188.0,,,,,,,[],,,,,,56.4,0.0,u,0.0,True,782.6000000238419,47.0,62.0,40.0,False,,348.32140695631506,[],"[960, 540]",ColorTask,113.0,71.0,,,HRV,HRV_0246,2022-11-30 19:42:27
,wl-rdm,188,588517,0.0-8.71-0.71,1.0,189.0,,,,,,,[],,,,,,56.4,1.0,u,0.0,False,1338.2000000476837,81.0,62.0,40.0,False,,303.23284408905346,[],"[960, 540]",ColorTask,112.0,72.0,,,HRV,HRV_0246,2022-11-30 19:42:27
,wl-rdm,189,590601,0.0-8.72-0.72,1.0,190.0,,,,,,,[],,,,,,73.6,0.0,u,0.0,True,632.5,38.0,62.0,40.0,False,,389.5374379437397,[],"[960, 540]",ColorTask,113.0,73.0,,,HRV,HRV_0246,2022-11-30 19:42:27
,wl-rdm,190,592601,0.0-8.73-0.73,1.0,191.0,,,,,,,[],,,,,,53.2,0.0,u,0.0,True,723.3999999761581,44.0,62.0,40.0,False,,201.88012363339107,[],"[960, 540]",ColorTask,114.0,74.0,,,HRV,HRV_0246,2022-11-30 19:42:27
,wl-rdm,191,594551,0.0-8.74-0.74,1.0,192.0,,,,,,,[],,,,,,53.2,1.0,u,0.0,False,575.5999999046326,35.0,62.0,40.0,False,,299.8763254130046,[],"[960, 540]",ColorTask,113.0,75.0,,,HRV,HRV_0246,2022-11-30 19:42:27
,wl-rdm,192,597250,0.0-8.75-0.75,1.0,193.0,,,,,,,[],,,,,,62.5,1.0,i,1.0,True,1297.2999999523163,78.0,62.0,40.0,False,,325.1611490166477,[],"[960, 540]",ColorTask,114.0,76.0,,,HRV,HRV_0246,2022-11-30 19:42:27
,wl-rdm,193,600000,0.0-8.76-0.76,1.0,194.0,,,,,,,[],,,,,,53.2,1.0,u,0.0,False,1438.0,87.0,62.0,40.0,False,,220.71259228641352,[],"[960, 540]",ColorTask,113.0,77.0,,,HRV,HRV_0246,2022-11-30 19:42:27
,wl-rdm,194,602200,0.0-8.77-0.77,1.0,195.0,,,,,,,[],,,,,,73.6,0.0,u,0.0,True,747.5000001192093,45.0,62.0,40.0,False,,397.266643135831,[],"[960, 540]",ColorTask,114.0,78.0,,,HRV,HRV_0246,2022-11-30 19:42:27
,wl-rdm,195,604434,0.0-8.78-0.78,1.0,196.0,,,,,,,[],,,,,,87.9,1.0,i,1.0,True,822.3999999761581,50.0,62.0,40.0,False,,346.468103787893,[],"[960, 540]",ColorTask,115.0,79.0,,,HRV,HRV_0246,2022-11-30 19:42:27
,wl-rdm,196,606650,0.0-8.79-0.79,1.0,197.0,,,,,,,[],,,,,,50.0,1.0,u,0.0,False,796.1999999284744,48.0,62.0,40.0,False,,356.61078343842087,[],"[960, 540]",ColorTask,114.0,80.0,,,HRV,HRV_0246,2022-11-30 19:42:27
,wl-rdm,197,609218,0.0-8.80-0.80,1.0,198.0,,,,,,,[],,,,,,50.0,1.0,i,1.0,True,1256.3999999761581,76.0,62.0,40.0,False,,242.128447915462,[],"[960, 540]",ColorTask,115.0,81.0,,,HRV,HRV_0246,2022-11-30 19:42:27
,wl-rdm,198,612834,0.0-8.81-0.81,1.0,199.0,,,,,,,[],,,,,,56.4,1.0,i,1.0,True,2322.100000023842,140.0,62.0,40.0,False,,207.30404187052943,[],"[960, 540]",ColorTask,116.0,82.0,,,HRV,HRV_0246,2022-11-30 19:42:27
,wl-rdm,199,614850,0.0-8.82-0.82,1.0,200.0,,,,,,,[],,,,,,73.6,1.0,i,1.0,True,730.6000000238419,44.0,62.0,40.0,False,,204.43066449175714,[],"[960, 540]",ColorTask,117.0,83.0,,,HRV,HRV_0246,2022-11-30 19:42:27
,wl-rdm,200,618284,0.0-8.83-0.83,1.0,201.0,,,,,,,[],,,,,,50.0,1.0,i,1.0,True,2153.5,130.0,62.0,40.0,False,,200.31307604746954,[],"[960, 540]",ColorTask,118.0,84.0,,,HRV,HRV_0246,2022-11-30 19:42:27
,wl-rdm,201,620400,0.0-8.84-0.84,1.0,202.0,,,,,,,[],,,,,,87.9,0.0,u,0.0,True,640.0,39.0,62.0,40.0,False,,384.3959573032395,[],"[960, 540]",ColorTask,119.0,85.0,,,HRV,HRV_0246,2022-11-30 19:42:27
,wl-rdm,202,622517,0.0-8.85-0.85,1.0,203.0,,,,,,,[],,,,,,87.9,0.0,u,0.0,True,688.0,42.0,62.0,40.0,False,,365.23126034394977,[],"[960, 540]",ColorTask,120.0,86.0,,,HRV,HRV_0246,2022-11-30 19:42:27
,wl-rdm,203,624716,0.0-8.86-0.86,1.0,204.0,,,,,,,[],,,,,,62.5,0.0,u,0.0,True,910.6999999284744,55.0,62.0,40.0,False,,232.09619236946256,[],"[960, 540]",ColorTask,121.0,87.0,,,HRV,HRV_0246,2022-11-30 19:42:27
,wl-rdm,204,626785,0.0-8.87-0.87,1.0,205.0,,,,,,,[],,,,,,73.6,0.0,u,0.0,True,721.1000000238419,44.0,62.0,40.0,False,,250.84968742873787,[],"[960, 540]",ColorTask,122.0,88.0,,,HRV,HRV_0246,2022-11-30 19:42:27
,wl-rdm,205,629917,0.0-8.88-0.88,1.0,206.0,,,,,,,[],,,,,,50.0,0.0,u,0.0,True,1854.2000000476837,112.0,62.0,40.0,False,,203.93988936939365,[],"[960, 540]",ColorTask,123.0,89.0,,,HRV,HRV_0246,2022-11-30 19:42:27
,wl-rdm,206,632117,0.0-8.89-0.89,1.0,207.0,,,,,,,[],,,,,,73.6,0.0,u,0.0,True,770.7000000476837,47.0,62.0,40.0,False,,349.7654371304215,[],"[960, 540]",ColorTask,124.0,90.0,,,HRV,HRV_0246,2022-11-30 19:42:27
,wl-rdm,207,634833,0.0-8.90-0.90,1.0,208.0,,,,,,,[],,,,,,50.0,1.0,u,0.0,False,1372.8999999761581,83.0,62.0,40.0,False,,281.77160629388993,[],"[960, 540]",ColorTask,123.0,91.0,,,HRV,HRV_0246,2022-11-30 19:42:27
,wl-rdm,208,636916,0.0-8.91-0.91,1.0,209.0,,,,,,,[],,,,,,62.5,0.0,u,0.0,True,761.7999999523163,46.0,62.0,40.0,False,,254.35601408731503,[],"[960, 540]",ColorTask,124.0,92.0,,,HRV,HRV_0246,2022-11-30 19:42:27
,wl-rdm,209,639267,0.0-8.92-0.92,1.0,210.0,,,,,,,[],,,,,,50.0,0.0,i,1.0,False,979.8999999761581,59.0,62.0,40.0,False,,290.79739629618825,[],"[960, 540]",ColorTask,123.0,93.0,,,HRV,HRV_0246,2022-11-30 19:42:27
,wl-rdm,210,641833,0.0-8.93-0.93,1.0,211.0,,,,,,,[],,,,,,62.5,1.0,i,1.0,True,1270.2000000476837,77.0,62.0,40.0,False,,200.42429607061837,[],"[960, 540]",ColorTask,124.0,94.0,,,HRV,HRV_0246,2022-11-30 19:42:27
,wl-rdm,211,643817,0.0-8.94-0.94,1.0,212.0,,,,,,,[],,,,,,87.9,1.0,i,1.0,True,715.2000000476837,43.0,62.0,40.0,False,,214.12698143703565,[],"[960, 540]",ColorTask,125.0,95.0,,,HRV,HRV_0246,2022-11-30 19:42:27
,wl-rdm,212,647067,0.0-8.95-0.95,1.0,213.0,,,,,,,[],,,,,,62.5,1.0,i,1.0,True,1830.8999999761581,110.0,62.0,40.0,False,,351.1862436115648,[],"[960, 540]",ColorTask,126.0,96.0,,,HRV,HRV_0246,2022-11-30 19:42:27
,wl-rdm,213,649684,0.0-8.96-0.96,1.0,214.0,,,,,,,[],,,,,,56.4,1.0,i,1.0,True,1312.5,79.0,62.0,40.0,False,,216.21428528512936,[],"[960, 540]",ColorTask,127.0,97.0,,,HRV,HRV_0246,2022-11-30 19:42:27
,wl-rdm,214,652017,0.0-8.97-0.97,1.0,215.0,,,,,,,[],,,,,,53.2,1.0,i,1.0,True,1020.5,62.0,62.0,40.0,False,,231.52908911793838,[],"[960, 540]",ColorTask,128.0,98.0,,,HRV,HRV_0246,2022-11-30 19:42:27
,wl-rdm,215,654083,0.0-8.98-0.98,1.0,216.0,,,,,,,[],,,,,,87.9,0.0,u,0.0,True,611.5,37.0,62.0,40.0,False,,388.94208856234945,[],"[960, 540]",ColorTask,129.0,99.0,,,HRV,HRV_0246,2022-11-30 19:42:27
,wl-rdm,216,657217,0.0-8.99-0.99,1.0,217.0,,,,,,,[],,,,,,53.2,1.0,u,0.0,False,1832.0,110.0,62.0,40.0,False,,235.80230615888377,[],"[960, 540]",ColorTask,128.0,100.0,,,HRV,HRV_0246,2022-11-30 19:42:27
,wl-rdm,217,659433,0.0-8.100-0.100,1.0,218.0,,,,,,,[],,,,,,62.5,1.0,i,1.0,True,931.7999999523163,56.0,62.0,40.0,False,,204.86149546478725,[],"[960, 540]",ColorTask,129.0,101.0,,,HRV,HRV_0246,2022-11-30 19:42:27
,wl-rdm,218,661416,0.0-8.101-0.101,1.0,219.0,,,,,,,[],,,,,,87.9,1.0,i,1.0,True,564.8999999761581,34.0,62.0,40.0,False,,358.6242271617125,[],"[960, 540]",ColorTask,130.0,102.0,,,HRV,HRV_0246,2022-11-30 19:42:27
,wl-rdm,219,663633,0.0-8.102-0.102,1.0,220.0,,,,,,,[],,,,,,53.2,0.0,u,0.0,True,898.7999999523163,54.0,62.0,40.0,False,,241.54194254671356,[],"[960, 540]",ColorTask,131.0,103.0,,,HRV,HRV_0246,2022-11-30 19:42:27
,wl-rdm,220,666283,0.0-8.103-0.103,1.0,221.0,,,,,,,[],,,,,,50.0,0.0,u,0.0,True,1286.5,77.0,62.0,40.0,False,,286.269127179765,[],"[960, 540]",ColorTask,132.0,104.0,,,HRV,HRV_0246,2022-11-30 19:42:27
,wl-rdm,221,668349,0.0-8.104-0.104,1.0,222.0,,,,,,,[],,,,,,87.9,1.0,i,1.0,True,678.3999999761581,41.0,62.0,40.0,False,,301.66592793516725,[],"[960, 540]",ColorTask,133.0,105.0,,,HRV,HRV_0246,2022-11-30 19:42:27
,wl-rdm,222,670433,0.0-8.105-0.105,1.0,223.0,,,,,,,[],,,,,,56.4,0.0,u,0.0,True,790.6999999284744,48.0,62.0,40.0,False,,203.62702878795685,[],"[960, 540]",ColorTask,134.0,106.0,,,HRV,HRV_0246,2022-11-30 19:42:27
,wl-rdm,223,672451,0.0-8.106-0.106,1.0,224.0,,,,,,,[],,,,,,62.5,0.0,u,0.0,True,623.3999999761581,38.0,62.0,40.0,False,,309.11391581364524,[],"[960, 540]",ColorTask,135.0,107.0,,,HRV,HRV_0246,2022-11-30 19:42:27
,wl-rdm,224,674365,0.0-8.107-0.107,1.0,225.0,,,,,,,[],,,,,,87.9,1.0,i,1.0,True,626.6999999284744,38.0,62.0,40.0,False,,218.75390307742083,[],"[960, 540]",ColorTask,136.0,108.0,,,HRV,HRV_0246,2022-11-30 19:42:27
,wl-html-button-response,225,677268,0.0-9.0-0.0,,,,,,,,,,2900.100000023842,,0,,,,,,,,,,,,,,,,,,,,<h3>End of this session. Thank you!</h3><br>,['Close window'],HRV,HRV_0246,2022-11-30 19:42:27
