trialN,stimuli,trialStartTime,trialStartTime_UNIX,stimulus1,stimulus2,stimulus1Bid,stimulus2Bid,delta,selected,rt,rt_UNIX,rt_perfnow,receivedResponse,rsp,trialEndTime,trialDuration,trialEndTime_UNIX,trialDuration_UNIX,trialEvents,exp,subjectId,date
0,"[{'imgObject': {}, 'id': 'burger', 'src': '/static/foodstim60/burger.jpg', 'key': 'u', 'origWidth': 409, 'origHeight': 409, 'width': 345.15000000000003, 'height': 345.15000000000003, 'widthPercent': 0.45, 'rescaleHeight': False, 'trialN': 0, 'loaded': True, 'loadedTime': 2177.5, 'positionName': 'LEFT', 'positionCoords': [23.16, 195.5], 'bid': 1.46}, {'imgObject': {}, 'id': 'cherry tomato', 'src': '/static/foodstim60/cherry tomato.jpg', 'key': 'i', 'origWidth': 410, 'origHeight': 410, 'width': 345.15000000000003, 'height': 345.15000000000003, 'widthPercent': 0.45, 'rescaleHeight': False, 'trialN': 0, 'loaded': True, 'loadedTime': 2261.9000000059605, 'positionName': 'RIGHT', 'positionCoords': [398.84, 195.5], 'bid': 2.48}]",2603.5999999940395,1669834412967,burger,cherry tomato,1.46,2.48,1.02,burger,722.5999999940395,724,723.9000000059605,True,u,3829.0,1225.4000000059605,1669834414192,1225,,HRV,HRV_0236,2022-11-30 18:58:53
1,"[{'imgObject': {}, 'id': 'omelette', 'src': '/static/foodstim60/omelette.jpg', 'key': 'u', 'origWidth': 410, 'origHeight': 409, 'width': 345.15000000000003, 'height': 344.3081707317073, 'widthPercent': 0.45, 'rescaleHeight': False, 'trialN': 1, 'loaded': True, 'loadedTime': 2265.2999999821186, 'positionName': 'LEFT', 'positionCoords': [23.16, 196], 'bid': 8.19}, {'imgObject': {}, 'id': 'avocado', 'src': '/static/foodstim60/avocado.jpg', 'key': 'i', 'origWidth': 409, 'origHeight': 409, 'width': 345.15000000000003, 'height': 345.15000000000003, 'widthPercent': 0.45, 'rescaleHeight': False, 'trialN': 1, 'loaded': True, 'loadedTime': 2266.5, 'positionName': 'RIGHT', 'positionCoords': [398.84, 195.5], 'bid': 8.16}]",3829.199999988079,1669834414193,omelette,avocado,8.19,8.16,-0.02999999999999936,omelette,660.2000000178814,661,660.9000000059605,True,u,4998.0999999940395,1168.9000000059605,1669834415362,1169,,HRV,HRV_0236,2022-11-30 18:58:53
2,"[{'imgObject': {}, 'id': 'apple slices', 'src': '/static/foodstim60/apple slices.jpg', 'key': 'u', 'origWidth': 409, 'origHeight': 410, 'width': 345.15000000000003, 'height': 345.9938875305624, 'widthPercent': 0.45, 'rescaleHeight': False, 'trialN': 2, 'loaded': True, 'loadedTime': 2281.5999999940395, 'positionName': 'LEFT', 'positionCoords': [23.16, 195.5], 'bid': 4.8500000000000005}, {'imgObject': {}, 'id': 'corn cob', 'src': '/static/foodstim60/corn cob.jpg', 'key': 'i', 'origWidth': 411, 'origHeight': 411, 'width': 345.15000000000003, 'height': 345.15000000000003, 'widthPercent': 0.45, 'rescaleHeight': False, 'trialN': 2, 'loaded': True, 'loadedTime': 2282.4000000059605, 'positionName': 'RIGHT', 'positionCoords': [398.84, 195.5], 'bid': 1.88}]",4998.5,1669834415362,apple slices,corn cob,4.8500000000000005,1.88,-2.9700000000000006,apple slices,710.9000000059605,711,711.4000000059605,True,u,6212.5999999940395,1214.0999999940395,1669834416576,1214,,HRV,HRV_0236,2022-11-30 18:58:53
3,"[{'imgObject': {}, 'id': 'eggsalad', 'src': '/static/foodstim60/eggsalad.jpg', 'key': 'u', 'origWidth': 410, 'origHeight': 409, 'width': 345.15000000000003, 'height': 344.3081707317073, 'widthPercent': 0.45, 'rescaleHeight': False, 'trialN': 3, 'loaded': True, 'loadedTime': 2300.7999999821186, 'positionName': 'LEFT', 'positionCoords': [23.16, 196], 'bid': 7.46}, {'imgObject': {}, 'id': 'chickenfingers', 'src': '/static/foodstim60/chickenfingers.jpg', 'key': 'i', 'origWidth': 410, 'origHeight': 410, 'width': 345.15000000000003, 'height': 345.15000000000003, 'widthPercent': 0.45, 'rescaleHeight': False, 'trialN': 3, 'loaded': True, 'loadedTime': 2302.7999999821186, 'positionName': 'RIGHT', 'positionCoords': [398.84, 195.5], 'bid': 9.31}]",6212.9000000059605,1669834416576,eggsalad,chickenfingers,7.46,9.31,1.8500000000000005,chickenfingers,504.09999999403954,505,504.39999997615814,True,i,7224.9000000059605,1012.0,1669834417588,1012,,HRV,HRV_0236,2022-11-30 18:58:53
4,"[{'imgObject': {}, 'id': 'roastedpotatoes', 'src': '/static/foodstim60/roastedpotatoes.jpg', 'key': 'u', 'origWidth': 409, 'origHeight': 410, 'width': 345.15000000000003, 'height': 345.9938875305624, 'widthPercent': 0.45, 'rescaleHeight': False, 'trialN': 4, 'loaded': True, 'loadedTime': 2318.699999988079, 'positionName': 'LEFT', 'positionCoords': [23.16, 195.5], 'bid': 8.03}, {'imgObject': {}, 'id': 'hotdog w must', 'src': '/static/foodstim60/hotdog w must.jpg', 'key': 'i', 'origWidth': 409, 'origHeight': 409, 'width': 345.15000000000003, 'height': 345.15000000000003, 'widthPercent': 0.45, 'rescaleHeight': False, 'trialN': 4, 'loaded': True, 'loadedTime': 2320, 'positionName': 'RIGHT', 'positionCoords': [398.84, 195.5], 'bid': 7.75}]",7226.4000000059605,1669834417590,roastedpotatoes,hotdog w must,8.03,7.75,-0.27999999999999936,hotdog w must,1017.6999999880791,1018,1018.1999999880791,True,i,8747.0,1520.5999999940395,1669834419111,1521,,HRV,HRV_0236,2022-11-30 18:58:53
5,"[{'imgObject': {}, 'id': 'cherry tomato', 'src': '/static/foodstim60/cherry tomato.jpg', 'key': 'u', 'origWidth': 410, 'origHeight': 410, 'width': 345.15000000000003, 'height': 345.15000000000003, 'widthPercent': 0.45, 'rescaleHeight': False, 'trialN': 5, 'loaded': True, 'loadedTime': 2251.0999999940395, 'positionName': 'LEFT', 'positionCoords': [23.16, 195.5], 'bid': 2.48}, {'imgObject': {}, 'id': 'edamame', 'src': '/static/foodstim60/edamame.jpg', 'key': 'i', 'origWidth': 409, 'origHeight': 410, 'width': 345.15000000000003, 'height': 345.9938875305624, 'widthPercent': 0.45, 'rescaleHeight': False, 'trialN': 5, 'loaded': True, 'loadedTime': 2338.0999999940395, 'positionName': 'RIGHT', 'positionCoords': [398.84, 195.5], 'bid': 2.09}]",8747.299999982119,1669834419111,cherry tomato,edamame,2.48,2.09,-0.3900000000000001,cherry tomato,526.0,526,526.5,True,u,9792.0,1044.7000000178814,1669834420155,1044,,HRV,HRV_0236,2022-11-30 18:58:53
6,"[{'imgObject': {}, 'id': 'yogurt no spoon', 'src': '/static/foodstim60/yogurt no spoon.jpg', 'key': 'u', 'origWidth': 411, 'origHeight': 410, 'width': 345.15000000000003, 'height': 344.31021897810217, 'widthPercent': 0.45, 'rescaleHeight': False, 'trialN': 6, 'loaded': True, 'loadedTime': 2339.9000000059605, 'positionName': 'LEFT', 'positionCoords': [23.16, 196], 'bid': 2.82}, {'imgObject': {}, 'id': 'raspberries', 'src': '/static/foodstim60/raspberries.jpg', 'key': 'i', 'origWidth': 411, 'origHeight': 411, 'width': 345.15000000000003, 'height': 345.15000000000003, 'widthPercent': 0.45, 'rescaleHeight': False, 'trialN': 6, 'loaded': True, 'loadedTime': 2356.5999999940395, 'positionName': 'RIGHT', 'positionCoords': [398.84, 195.5], 'bid': 2.61}]",9792.09999999404,1669834420156,yogurt no spoon,raspberries,2.82,2.61,-0.20999999999999996,yogurt no spoon,1031.300000011921,1031,1031.5999999940395,True,u,11330.699999988079,1538.5999999940395,1669834421695,1539,,HRV,HRV_0236,2022-11-30 18:58:53
7,"[{'imgObject': {}, 'id': 'bagel and cc', 'src': '/static/foodstim60/bagel and cc.jpg', 'key': 'u', 'origWidth': 410, 'origHeight': 410, 'width': 345.15000000000003, 'height': 345.15000000000003, 'widthPercent': 0.45, 'rescaleHeight': False, 'trialN': 7, 'loaded': True, 'loadedTime': 2362.2999999821186, 'positionName': 'LEFT', 'positionCoords': [23.16, 195.5], 'bid': 6.5200000000000005}, {'imgObject': {}, 'id': 'turkeysandwich', 'src': '/static/foodstim60/turkeysandwich.jpg', 'key': 'i', 'origWidth': 409, 'origHeight': 409, 'width': 345.15000000000003, 'height': 345.15000000000003, 'widthPercent': 0.45, 'rescaleHeight': False, 'trialN': 7, 'loaded': True, 'loadedTime': 2362.9000000059605, 'positionName': 'RIGHT', 'positionCoords': [398.84, 195.5], 'bid': 5.84}]",11330.90000000596,1669834421695,bagel and cc,turkeysandwich,6.5200000000000005,5.84,-0.6800000000000006,turkeysandwich,898.0,899,898.6999999880791,True,i,12743.90000000596,1413.0,1669834423108,1413,,HRV,HRV_0236,2022-11-30 18:58:53
8,"[{'imgObject': {}, 'id': 'apple slices', 'src': '/static/foodstim60/apple slices.jpg', 'key': 'u', 'origWidth': 409, 'origHeight': 410, 'width': 345.15000000000003, 'height': 345.9938875305624, 'widthPercent': 0.45, 'rescaleHeight': False, 'trialN': 8, 'loaded': True, 'loadedTime': 2282, 'positionName': 'LEFT', 'positionCoords': [23.16, 195.5], 'bid': 4.8500000000000005}, {'imgObject': {}, 'id': 'Grapes', 'src': '/static/foodstim60/Grapes.jpg', 'key': 'i', 'origWidth': 411, 'origHeight': 411, 'width': 345.15000000000003, 'height': 345.15000000000003, 'widthPercent': 0.45, 'rescaleHeight': False, 'trialN': 8, 'loaded': True, 'loadedTime': 2375.0999999940395, 'positionName': 'RIGHT', 'positionCoords': [398.84, 195.5], 'bid': 4.64}]",12745.199999988079,1669834423109,apple slices,Grapes,4.8500000000000005,4.64,-0.21000000000000085,apple slices,767.5999999940395,769,768.5,True,u,14021.799999982119,1276.5999999940395,1669834424386,1277,,HRV,HRV_0236,2022-11-30 18:58:53
9,"[{'imgObject': {}, 'id': 'blueberries', 'src': '/static/foodstim60/blueberries.jpg', 'key': 'u', 'origWidth': 411, 'origHeight': 411, 'width': 345.15000000000003, 'height': 345.15000000000003, 'widthPercent': 0.45, 'rescaleHeight': False, 'trialN': 9, 'loaded': True, 'loadedTime': 2381.5, 'positionName': 'LEFT', 'positionCoords': [23.16, 195.5], 'bid': 7.51}, {'imgObject': {}, 'id': 'steak', 'src': '/static/foodstim60/steak.jpg', 'key': 'i', 'origWidth': 410, 'origHeight': 410, 'width': 345.15000000000003, 'height': 345.15000000000003, 'widthPercent': 0.45, 'rescaleHeight': False, 'trialN': 9, 'loaded': True, 'loadedTime': 2383.4000000059605, 'positionName': 'RIGHT', 'positionCoords': [398.84, 195.5], 'bid': 8.53}]",14022.09999999404,1669834424386,blueberries,steak,7.51,8.53,1.0199999999999996,blueberries,703.1999999880791,704,703.8000000119209,True,u,15248.5,1226.4000000059605,1669834425612,1226,,HRV,HRV_0236,2022-11-30 18:58:53
10,"[{'imgObject': {}, 'id': 'eggs', 'src': '/static/foodstim60/eggs.jpg', 'key': 'u', 'origWidth': 409, 'origHeight': 409, 'width': 345.15000000000003, 'height': 345.15000000000003, 'widthPercent': 0.45, 'rescaleHeight': False, 'trialN': 10, 'loaded': True, 'loadedTime': 2404, 'positionName': 'LEFT', 'positionCoords': [23.16, 195.5], 'bid': 6.890000000000001}, {'imgObject': {}, 'id': 'fried eggs', 'src': '/static/foodstim60/fried eggs.jpg', 'key': 'i', 'origWidth': 410, 'origHeight': 410, 'width': 345.15000000000003, 'height': 345.15000000000003, 'widthPercent': 0.45, 'rescaleHeight': False, 'trialN': 10, 'loaded': True, 'loadedTime': 2429, 'positionName': 'RIGHT', 'positionCoords': [398.84, 195.5], 'bid': 7.25}]",15248.699999988079,1669834425613,eggs,fried eggs,6.890000000000001,7.25,0.35999999999999943,fried eggs,854.5,854,854.9000000059605,True,i,16620.79999998212,1372.0999999940395,1669834426985,1372,,HRV,HRV_0236,2022-11-30 18:58:53
11,"[{'imgObject': {}, 'id': 'rigatoni', 'src': '/static/foodstim60/rigatoni.jpg', 'key': 'u', 'origWidth': 411, 'origHeight': 411, 'width': 345.15000000000003, 'height': 345.15000000000003, 'widthPercent': 0.45, 'rescaleHeight': False, 'trialN': 11, 'loaded': True, 'loadedTime': 2432.9000000059605, 'positionName': 'LEFT', 'positionCoords': [23.16, 195.5], 'bid': 6.55}, {'imgObject': {}, 'id': 'salmon', 'src': '/static/foodstim60/salmon.jpg', 'key': 'i', 'origWidth': 410, 'origHeight': 409, 'width': 345.15000000000003, 'height': 344.3081707317073, 'widthPercent': 0.45, 'rescaleHeight': False, 'trialN': 11, 'loaded': True, 'loadedTime': 2433.0999999940395, 'positionName': 'RIGHT', 'positionCoords': [398.84, 196], 'bid': 6.21}]",16621.09999999404,1669834426985,rigatoni,salmon,6.55,6.21,-0.33999999999999986,salmon,983.9000000059605,984,984.4000000059605,True,i,18110.59999999404,1489.5,1669834428474,1489,,HRV,HRV_0236,2022-11-30 18:58:53
12,"[{'imgObject': {}, 'id': 'sushi w_condiments', 'src': '/static/foodstim60/sushi w_condiments.jpg', 'key': 'u', 'origWidth': 410, 'origHeight': 410, 'width': 345.15000000000003, 'height': 345.15000000000003, 'widthPercent': 0.45, 'rescaleHeight': False, 'trialN': 12, 'loaded': True, 'loadedTime': 2448.5999999940395, 'positionName': 'LEFT', 'positionCoords': [23.16, 195.5], 'bid': 9.91}, {'imgObject': {}, 'id': 'burrito', 'src': '/static/foodstim60/burrito.jpg', 'key': 'i', 'origWidth': 410, 'origHeight': 410, 'width': 345.15000000000003, 'height': 345.15000000000003, 'widthPercent': 0.45, 'rescaleHeight': False, 'trialN': 12, 'loaded': True, 'loadedTime': 2450.699999988079, 'positionName': 'RIGHT', 'positionCoords': [398.84, 195.5], 'bid': 8.74}]",18111.0,1669834428475,sushi w_condiments,burrito,9.91,8.74,-1.17,sushi w_condiments,817.2999999821186,818,817.6999999880791,True,u,19444.90000000596,1333.9000000059605,1669834429809,1334,,HRV,HRV_0236,2022-11-30 18:58:53
13,"[{'imgObject': {}, 'id': 'ice cream sundae 002', 'src': '/static/foodstim60/ice cream sundae 002.jpg', 'key': 'u', 'origWidth': 409, 'origHeight': 409, 'width': 345.15000000000003, 'height': 345.15000000000003, 'widthPercent': 0.45, 'rescaleHeight': False, 'trialN': 13, 'loaded': True, 'loadedTime': 2467.2999999821186, 'positionName': 'LEFT', 'positionCoords': [23.16, 195.5], 'bid': 8.24}, {'imgObject': {}, 'id': 'chickenfingers', 'src': '/static/foodstim60/chickenfingers.jpg', 'key': 'i', 'origWidth': 410, 'origHeight': 410, 'width': 345.15000000000003, 'height': 345.15000000000003, 'widthPercent': 0.45, 'rescaleHeight': False, 'trialN': 13, 'loaded': True, 'loadedTime': 2302.9000000059605, 'positionName': 'RIGHT', 'positionCoords': [398.84, 195.5], 'bid': 9.31}]",19445.0,1669834429809,ice cream sundae 002,chickenfingers,8.24,9.31,1.0700000000000003,chickenfingers,962.5,963,962.9000000059605,True,i,20922.59999999404,1477.5999999940395,1669834431286,1477,,HRV,HRV_0236,2022-11-30 18:58:53
14,"[{'imgObject': {}, 'id': 'hotdog w must', 'src': '/static/foodstim60/hotdog w must.jpg', 'key': 'u', 'origWidth': 409, 'origHeight': 409, 'width': 345.15000000000003, 'height': 345.15000000000003, 'widthPercent': 0.45, 'rescaleHeight': False, 'trialN': 14, 'loaded': True, 'loadedTime': 2320.199999988079, 'positionName': 'LEFT', 'positionCoords': [23.16, 195.5], 'bid': 7.75}, {'imgObject': {}, 'id': 'turkey sandwich', 'src': '/static/foodstim60/turkey sandwich.jpg', 'key': 'i', 'origWidth': 409, 'origHeight': 409, 'width': 345.15000000000003, 'height': 345.15000000000003, 'widthPercent': 0.45, 'rescaleHeight': False, 'trialN': 14, 'loaded': True, 'loadedTime': 2469.699999988079, 'positionName': 'RIGHT', 'positionCoords': [398.84, 195.5], 'bid': 7.46}]",20922.79999998212,1669834431287,hotdog w must,turkey sandwich,7.75,7.46,-0.29000000000000004,turkey sandwich,1321.2000000178814,1321,1321.6000000238419,True,i,22754.19999998808,1831.4000000059605,1669834433118,1831,,HRV,HRV_0236,2022-11-30 18:58:53
15,"[{'imgObject': {}, 'id': 'luckycharms', 'src': '/static/foodstim60/luckycharms.jpg', 'key': 'u', 'origWidth': 410, 'origHeight': 409, 'width': 345.15000000000003, 'height': 344.3081707317073, 'widthPercent': 0.45, 'rescaleHeight': False, 'trialN': 15, 'loaded': True, 'loadedTime': 2471, 'positionName': 'LEFT', 'positionCoords': [23.16, 196], 'bid': 5.95}, {'imgObject': {}, 'id': 'orange slices', 'src': '/static/foodstim60/orange slices.jpg', 'key': 'i', 'origWidth': 409, 'origHeight': 410, 'width': 345.15000000000003, 'height': 345.9938875305624, 'widthPercent': 0.45, 'rescaleHeight': False, 'trialN': 15, 'loaded': True, 'loadedTime': 2472.7999999821186, 'positionName': 'RIGHT', 'positionCoords': [398.84, 195.5], 'bid': 6.1000000000000005}]",22754.69999998808,1669834433119,luckycharms,orange slices,5.95,6.1000000000000005,0.15000000000000036,orange slices,1304.5,1305,1305.0999999940395,True,i,24573.29999998212,1818.5999999940395,1669834434937,1818,,HRV,HRV_0236,2022-11-30 18:58:53
16,"[{'imgObject': {}, 'id': 'burger', 'src': '/static/foodstim60/burger.jpg', 'key': 'u', 'origWidth': 409, 'origHeight': 409, 'width': 345.15000000000003, 'height': 345.15000000000003, 'widthPercent': 0.45, 'rescaleHeight': False, 'trialN': 16, 'loaded': True, 'loadedTime': 2180.699999988079, 'positionName': 'LEFT', 'positionCoords': [23.16, 195.5], 'bid': 1.46}, {'imgObject': {}, 'id': 'baked potato', 'src': '/static/foodstim60/baked potato.jpg', 'key': 'i', 'origWidth': 409, 'origHeight': 410, 'width': 345.15000000000003, 'height': 345.9938875305624, 'widthPercent': 0.45, 'rescaleHeight': False, 'trialN': 16, 'loaded': True, 'loadedTime': 2475.9000000059605, 'positionName': 'RIGHT', 'positionCoords': [398.84, 195.5], 'bid': 1.77}]",24573.59999999404,1669834434937,burger,baked potato,1.46,1.77,0.31000000000000005,burger,1521.5999999940395,1523,1522.0999999940395,True,u,26614.59999999404,2041.0,1669834436978,2041,,HRV,HRV_0236,2022-11-30 18:58:53
17,"[{'imgObject': {}, 'id': 'popsicles', 'src': '/static/foodstim60/popsicles.jpg', 'key': 'u', 'origWidth': 410, 'origHeight': 410, 'width': 345.15000000000003, 'height': 345.15000000000003, 'widthPercent': 0.45, 'rescaleHeight': False, 'trialN': 17, 'loaded': True, 'loadedTime': 2601.2999999821186, 'positionName': 'LEFT', 'positionCoords': [23.16, 195.5], 'bid': 6.91}, {'imgObject': {}, 'id': 'turkeysandwich', 'src': '/static/foodstim60/turkeysandwich.jpg', 'key': 'i', 'origWidth': 409, 'origHeight': 409, 'width': 345.15000000000003, 'height': 345.15000000000003, 'widthPercent': 0.45, 'rescaleHeight': False, 'trialN': 17, 'loaded': True, 'loadedTime': 2364.0999999940395, 'positionName': 'RIGHT', 'positionCoords': [398.84, 195.5], 'bid': 5.84}]",26614.90000000596,1669834436979,popsicles,turkeysandwich,6.91,5.84,-1.0700000000000003,turkeysandwich,787.6999999880791,788,788.2999999821186,True,i,27919.59999999404,1304.699999988079,1669834438283,1304,,HRV,HRV_0236,2022-11-30 18:58:53
18,"[{'imgObject': {}, 'id': 'steak', 'src': '/static/foodstim60/steak.jpg', 'key': 'u', 'origWidth': 410, 'origHeight': 410, 'width': 345.15000000000003, 'height': 345.15000000000003, 'widthPercent': 0.45, 'rescaleHeight': False, 'trialN': 18, 'loaded': True, 'loadedTime': 2399.199999988079, 'positionName': 'LEFT', 'positionCoords': [23.16, 195.5], 'bid': 8.53}, {'imgObject': {}, 'id': 'cocktailshrimp', 'src': '/static/foodstim60/cocktailshrimp.jpg', 'key': 'i', 'origWidth': 410, 'origHeight': 410, 'width': 345.15000000000003, 'height': 345.15000000000003, 'widthPercent': 0.45, 'rescaleHeight': False, 'trialN': 18, 'loaded': True, 'loadedTime': 2500.7999999821186, 'positionName': 'RIGHT', 'positionCoords': [398.84, 195.5], 'bid': 9.62}]",27919.90000000596,1669834438284,steak,cocktailshrimp,8.53,9.62,1.0899999999999999,steak,753.3999999761581,754,753.8999999761581,True,u,29180.69999998808,1260.7999999821186,1669834439545,1261,,HRV,HRV_0236,2022-11-30 18:58:53
19,"[{'imgObject': {}, 'id': 'blackbeanswithrice', 'src': '/static/foodstim60/blackbeanswithrice.jpg', 'key': 'u', 'origWidth': 410, 'origHeight': 410, 'width': 345.15000000000003, 'height': 345.15000000000003, 'widthPercent': 0.45, 'rescaleHeight': False, 'trialN': 19, 'loaded': True, 'loadedTime': 2500.9000000059605, 'positionName': 'LEFT', 'positionCoords': [23.16, 195.5], 'bid': 0.76}, {'imgObject': {}, 'id': 'mashed potato', 'src': '/static/foodstim60/mashed potato.jpg', 'key': 'i', 'origWidth': 409, 'origHeight': 409, 'width': 345.15000000000003, 'height': 345.15000000000003, 'widthPercent': 0.45, 'rescaleHeight': False, 'trialN': 19, 'loaded': True, 'loadedTime': 2504.699999988079, 'positionName': 'RIGHT', 'positionCoords': [398.84, 195.5], 'bid': 3.76}]",29181.0,1669834439545,blackbeanswithrice,mashed potato,0.76,3.76,3.0,mashed potato,1696.7999999821186,1697,1697.0999999940395,True,i,31400.69999998808,2219.699999988079,1669834441765,2220,,HRV,HRV_0236,2022-11-30 18:58:53
20,"[{'imgObject': {}, 'id': 'edamame', 'src': '/static/foodstim60/edamame.jpg', 'key': 'u', 'origWidth': 409, 'origHeight': 410, 'width': 345.15000000000003, 'height': 345.9938875305624, 'widthPercent': 0.45, 'rescaleHeight': False, 'trialN': 20, 'loaded': True, 'loadedTime': 2321.699999988079, 'positionName': 'LEFT', 'positionCoords': [23.16, 195.5], 'bid': 2.09}, {'imgObject': {}, 'id': 'shreddedwheatwithmilk', 'src': '/static/foodstim60/shreddedwheatwithmilk.jpg', 'key': 'i', 'origWidth': 410, 'origHeight': 410, 'width': 345.15000000000003, 'height': 345.15000000000003, 'widthPercent': 0.45, 'rescaleHeight': False, 'trialN': 20, 'loaded': True, 'loadedTime': 2505.699999988079, 'positionName': 'RIGHT', 'positionCoords': [398.84, 195.5], 'bid': 3.94}]",31401.19999998808,1669834441765,edamame,shreddedwheatwithmilk,2.09,3.94,1.85,shreddedwheatwithmilk,1202.7000000178814,1203,1203.0999999940395,True,i,33115.40000000596,1714.2000000178814,1669834443479,1714,,HRV,HRV_0236,2022-11-30 18:58:53
21,"[{'imgObject': {}, 'id': 'seaweed', 'src': '/static/foodstim60/seaweed.jpg', 'key': 'u', 'origWidth': 410, 'origHeight': 410, 'width': 345.15000000000003, 'height': 345.15000000000003, 'widthPercent': 0.45, 'rescaleHeight': False, 'trialN': 21, 'loaded': True, 'loadedTime': 2530.0999999940395, 'positionName': 'LEFT', 'positionCoords': [23.16, 195.5], 'bid': 3.63}, {'imgObject': {}, 'id': 'pear', 'src': '/static/foodstim60/pear.jpg', 'key': 'i', 'origWidth': 411, 'origHeight': 410, 'width': 345.15000000000003, 'height': 344.31021897810217, 'widthPercent': 0.45, 'rescaleHeight': False, 'trialN': 21, 'loaded': True, 'loadedTime': 2531.5999999940395, 'positionName': 'RIGHT', 'positionCoords': [398.84, 196], 'bid': 4.88}]",33115.69999998808,1669834443480,seaweed,pear,3.63,4.88,1.25,pear,1262.7000000178814,1263,1263.4000000059605,True,i,34883.79999998212,1768.0999999940395,1669834445248,1768,,HRV,HRV_0236,2022-11-30 18:58:53
22,"[{'imgObject': {}, 'id': 'turkeysandwich', 'src': '/static/foodstim60/turkeysandwich.jpg', 'key': 'u', 'origWidth': 409, 'origHeight': 409, 'width': 345.15000000000003, 'height': 345.15000000000003, 'widthPercent': 0.45, 'rescaleHeight': False, 'trialN': 22, 'loaded': True, 'loadedTime': 2363.699999988079, 'positionName': 'LEFT', 'positionCoords': [23.16, 195.5], 'bid': 5.84}, {'imgObject': {}, 'id': 'cocktailshrimp', 'src': '/static/foodstim60/cocktailshrimp.jpg', 'key': 'i', 'origWidth': 410, 'origHeight': 410, 'width': 345.15000000000003, 'height': 345.15000000000003, 'widthPercent': 0.45, 'rescaleHeight': False, 'trialN': 22, 'loaded': True, 'loadedTime': 2500.5999999940395, 'positionName': 'RIGHT', 'positionCoords': [398.84, 195.5], 'bid': 9.62}]",34884.0,1669834445248,turkeysandwich,cocktailshrimp,5.84,9.62,3.7799999999999994,cocktailshrimp,971.7999999821186,972,972.2999999821186,True,i,36371.69999998808,1487.699999988079,1669834446736,1488,,HRV,HRV_0236,2022-11-30 18:58:53
23,"[{'imgObject': {}, 'id': 'grilled chicken strips', 'src': '/static/foodstim60/grilled chicken strips.jpg', 'key': 'u', 'origWidth': 410, 'origHeight': 411, 'width': 345.15000000000003, 'height': 345.9918292682927, 'widthPercent': 0.45, 'rescaleHeight': False, 'trialN': 23, 'loaded': True, 'loadedTime': 2532, 'positionName': 'LEFT', 'positionCoords': [23.16, 195.5], 'bid': 5.01}, {'imgObject': {}, 'id': 'cherry tomato', 'src': '/static/foodstim60/cherry tomato.jpg', 'key': 'i', 'origWidth': 410, 'origHeight': 410, 'width': 345.15000000000003, 'height': 345.15000000000003, 'widthPercent': 0.45, 'rescaleHeight': False, 'trialN': 23, 'loaded': True, 'loadedTime': 2253.4000000059605, 'positionName': 'RIGHT', 'positionCoords': [398.84, 195.5], 'bid': 2.48}]",36371.90000000596,1669834446736,grilled chicken strips,cherry tomato,5.01,2.48,-2.53,grilled chicken strips,796.3999999761581,797,797.0,True,u,37686.59999999404,1314.699999988079,1669834448050,1314,,HRV,HRV_0236,2022-11-30 18:58:53
24,"[{'imgObject': {}, 'id': 'sweetpotato', 'src': '/static/foodstim60/sweetpotato.jpg', 'key': 'u', 'origWidth': 410, 'origHeight': 410, 'width': 345.15000000000003, 'height': 345.15000000000003, 'widthPercent': 0.45, 'rescaleHeight': False, 'trialN': 24, 'loaded': True, 'loadedTime': 2547.199999988079, 'positionName': 'LEFT', 'positionCoords': [23.16, 195.5], 'bid': 2.3000000000000003}, {'imgObject': {}, 'id': 'veggieswithdip', 'src': '/static/foodstim60/veggieswithdip.jpg', 'key': 'i', 'origWidth': 409, 'origHeight': 409, 'width': 345.15000000000003, 'height': 345.15000000000003, 'widthPercent': 0.45, 'rescaleHeight': False, 'trialN': 24, 'loaded': True, 'loadedTime': 2548.7999999821186, 'positionName': 'RIGHT', 'positionCoords': [398.84, 195.5], 'bid': 4.12}]",37686.79999998212,1669834448051,sweetpotato,veggieswithdip,2.3000000000000003,4.12,1.8199999999999998,veggieswithdip,961.4000000059605,961,961.8000000119209,True,i,39163.29999998212,1476.5,1669834449527,1476,,HRV,HRV_0236,2022-11-30 18:58:53
25,"[{'imgObject': {}, 'id': 'eggsalad', 'src': '/static/foodstim60/eggsalad.jpg', 'key': 'u', 'origWidth': 410, 'origHeight': 409, 'width': 345.15000000000003, 'height': 344.3081707317073, 'widthPercent': 0.45, 'rescaleHeight': False, 'trialN': 25, 'loaded': True, 'loadedTime': 2301.2999999821186, 'positionName': 'LEFT', 'positionCoords': [23.16, 196], 'bid': 7.46}, {'imgObject': {}, 'id': 'turkey sandwich', 'src': '/static/foodstim60/turkey sandwich.jpg', 'key': 'i', 'origWidth': 409, 'origHeight': 409, 'width': 345.15000000000003, 'height': 345.15000000000003, 'widthPercent': 0.45, 'rescaleHeight': False, 'trialN': 25, 'loaded': True, 'loadedTime': 2468, 'positionName': 'RIGHT', 'positionCoords': [398.84, 195.5], 'bid': 7.46}]",39163.40000000596,1669834449527,eggsalad,turkey sandwich,7.46,7.46,0.0,turkey sandwich,800.5999999940395,801,801.0999999940395,True,i,40480.59999999404,1317.199999988079,1669834450845,1318,,HRV,HRV_0236,2022-11-30 18:58:53
26,"[{'imgObject': {}, 'id': 'turkeysandwich', 'src': '/static/foodstim60/turkeysandwich.jpg', 'key': 'u', 'origWidth': 409, 'origHeight': 409, 'width': 345.15000000000003, 'height': 345.15000000000003, 'widthPercent': 0.45, 'rescaleHeight': False, 'trialN': 26, 'loaded': True, 'loadedTime': 2363.9000000059605, 'positionName': 'LEFT', 'positionCoords': [23.16, 195.5], 'bid': 5.84}, {'imgObject': {}, 'id': 'bagel plain', 'src': '/static/foodstim60/bagel plain.jpg', 'key': 'i', 'origWidth': 410, 'origHeight': 410, 'width': 345.15000000000003, 'height': 345.15000000000003, 'widthPercent': 0.45, 'rescaleHeight': False, 'trialN': 26, 'loaded': True, 'loadedTime': 2549.699999988079, 'positionName': 'RIGHT', 'positionCoords': [398.84, 195.5], 'bid': 5.87}]",40481.09999999404,1669834450845,turkeysandwich,bagel plain,5.84,5.87,0.03000000000000025,turkeysandwich,1261.300000011921,1262,1261.699999988079,True,u,42252.59999999404,1771.5,1669834452616,1771,,HRV,HRV_0236,2022-11-30 18:58:53
27,"[{'imgObject': {}, 'id': 'lox', 'src': '/static/foodstim60/lox.jpg', 'key': 'u', 'origWidth': 410, 'origHeight': 411, 'width': 345.15000000000003, 'height': 345.9918292682927, 'widthPercent': 0.45, 'rescaleHeight': False, 'trialN': 27, 'loaded': True, 'loadedTime': 2551.0999999940395, 'positionName': 'LEFT', 'positionCoords': [23.16, 195.5], 'bid': 6.83}, {'imgObject': {}, 'id': 'cantaloupe', 'src': '/static/foodstim60/cantaloupe.jpg', 'key': 'i', 'origWidth': 409, 'origHeight': 409, 'width': 345.15000000000003, 'height': 345.15000000000003, 'widthPercent': 0.45, 'rescaleHeight': False, 'trialN': 27, 'loaded': True, 'loadedTime': 2552.199999988079, 'positionName': 'RIGHT', 'positionCoords': [398.84, 195.5], 'bid': 5.11}]",42252.79999998212,1669834452617,lox,cantaloupe,6.83,5.11,-1.7199999999999998,lox,956.8000000119209,957,957.2000000178814,True,u,43724.09999999404,1471.300000011921,1669834454088,1471,,HRV,HRV_0236,2022-11-30 18:58:53
28,"[{'imgObject': {}, 'id': 'chickenfingers', 'src': '/static/foodstim60/chickenfingers.jpg', 'key': 'u', 'origWidth': 410, 'origHeight': 410, 'width': 345.15000000000003, 'height': 345.15000000000003, 'widthPercent': 0.45, 'rescaleHeight': False, 'trialN': 28, 'loaded': True, 'loadedTime': 2303, 'positionName': 'LEFT', 'positionCoords': [23.16, 195.5], 'bid': 9.31}, {'imgObject': {}, 'id': 'cocktailshrimp', 'src': '/static/foodstim60/cocktailshrimp.jpg', 'key': 'i', 'origWidth': 410, 'origHeight': 410, 'width': 345.15000000000003, 'height': 345.15000000000003, 'widthPercent': 0.45, 'rescaleHeight': False, 'trialN': 28, 'loaded': True, 'loadedTime': 2498.9000000059605, 'positionName': 'RIGHT', 'positionCoords': [398.84, 195.5], 'bid': 9.62}]",43724.29999998212,1669834454088,chickenfingers,cocktailshrimp,9.31,9.62,0.3099999999999987,chickenfingers,629.8000000119209,630,630.4000000059605,True,u,44860.79999998212,1136.5,1669834455225,1137,,HRV,HRV_0236,2022-11-30 18:58:53
29,"[{'imgObject': {}, 'id': 'mango', 'src': '/static/foodstim60/mango.jpg', 'key': 'u', 'origWidth': 411, 'origHeight': 411, 'width': 345.15000000000003, 'height': 345.15000000000003, 'widthPercent': 0.45, 'rescaleHeight': False, 'trialN': 29, 'loaded': True, 'loadedTime': 2568.9000000059605, 'positionName': 'LEFT', 'positionCoords': [23.16, 195.5], 'bid': 5.84}, {'imgObject': {}, 'id': 'grilled chicken strips', 'src': '/static/foodstim60/grilled chicken strips.jpg', 'key': 'i', 'origWidth': 410, 'origHeight': 411, 'width': 345.15000000000003, 'height': 345.9918292682927, 'widthPercent': 0.45, 'rescaleHeight': False, 'trialN': 29, 'loaded': True, 'loadedTime': 2532.9000000059605, 'positionName': 'RIGHT', 'positionCoords': [398.84, 195.5], 'bid': 5.01}]",44861.0,1669834455225,mango,grilled chicken strips,5.84,5.01,-0.8300000000000001,grilled chicken strips,590.6999999880791,591,591.1999999880791,True,i,45958.40000000596,1097.4000000059605,1669834456322,1097,,HRV,HRV_0236,2022-11-30 18:58:53
30,"[{'imgObject': {}, 'id': 'fried eggs', 'src': '/static/foodstim60/fried eggs.jpg', 'key': 'u', 'origWidth': 410, 'origHeight': 410, 'width': 345.15000000000003, 'height': 345.15000000000003, 'widthPercent': 0.45, 'rescaleHeight': False, 'trialN': 30, 'loaded': True, 'loadedTime': 2431, 'positionName': 'LEFT', 'positionCoords': [23.16, 195.5], 'bid': 7.25}, {'imgObject': {}, 'id': 'strawberries', 'src': '/static/foodstim60/strawberries.jpg', 'key': 'i', 'origWidth': 410, 'origHeight': 410, 'width': 345.15000000000003, 'height': 345.15000000000003, 'widthPercent': 0.45, 'rescaleHeight': False, 'trialN': 30, 'loaded': True, 'loadedTime': 2571, 'positionName': 'RIGHT', 'positionCoords': [398.84, 195.5], 'bid': 7.69}]",45958.79999998212,1669834456323,fried eggs,strawberries,7.25,7.69,0.4400000000000004,fried eggs,888.3000000119209,888,888.6000000238419,True,u,47357.59999999404,1398.800000011921,1669834457721,1398,,HRV,HRV_0236,2022-11-30 18:58:53
31,"[{'imgObject': {}, 'id': 'eggsalad', 'src': '/static/foodstim60/eggsalad.jpg', 'key': 'u', 'origWidth': 410, 'origHeight': 409, 'width': 345.15000000000003, 'height': 344.3081707317073, 'widthPercent': 0.45, 'rescaleHeight': False, 'trialN': 31, 'loaded': True, 'loadedTime': 2301.5, 'positionName': 'LEFT', 'positionCoords': [23.16, 196], 'bid': 7.46}, {'imgObject': {}, 'id': 'rigatoni and sauce', 'src': '/static/foodstim60/rigatoni and sauce.jpg', 'key': 'i', 'origWidth': 410, 'origHeight': 411, 'width': 345.15000000000003, 'height': 345.9918292682927, 'widthPercent': 0.45, 'rescaleHeight': False, 'trialN': 31, 'loaded': True, 'loadedTime': 2572.7999999821186, 'positionName': 'RIGHT', 'positionCoords': [398.84, 195.5], 'bid': 8.24}]",47358.5,1669834457722,eggsalad,rigatoni and sauce,7.46,8.24,0.7800000000000002,eggsalad,759.0999999940395,760,759.5999999940395,True,u,48629.79999998212,1271.2999999821186,1669834458994,1272,,HRV,HRV_0236,2022-11-30 18:58:53
32,"[{'imgObject': {}, 'id': 'blueberries', 'src': '/static/foodstim60/blueberries.jpg', 'key': 'u', 'origWidth': 411, 'origHeight': 411, 'width': 345.15000000000003, 'height': 345.15000000000003, 'widthPercent': 0.45, 'rescaleHeight': False, 'trialN': 32, 'loaded': True, 'loadedTime': 2381.2999999821186, 'positionName': 'LEFT', 'positionCoords': [23.16, 195.5], 'bid': 7.51}, {'imgObject': {}, 'id': 'salad w chicken', 'src': '/static/foodstim60/salad w chicken.jpg', 'key': 'i', 'origWidth': 411, 'origHeight': 411, 'width': 345.15000000000003, 'height': 345.15000000000003, 'widthPercent': 0.45, 'rescaleHeight': False, 'trialN': 32, 'loaded': True, 'loadedTime': 2578.7999999821186, 'positionName': 'RIGHT', 'positionCoords': [398.84, 195.5], 'bid': 7.54}]",48629.90000000596,1669834458994,blueberries,salad w chicken,7.51,7.54,0.03000000000000025,salad w chicken,975.1999999880791,975,975.6999999880791,True,i,50106.90000000596,1477.0,1669834460471,1477,,HRV,HRV_0236,2022-11-30 18:58:53
33,"[{'imgObject': {}, 'id': 'hashbrowns', 'src': '/static/foodstim60/hashbrowns.jpg', 'key': 'u', 'origWidth': 411, 'origHeight': 410, 'width': 345.15000000000003, 'height': 344.31021897810217, 'widthPercent': 0.45, 'rescaleHeight': False, 'trialN': 33, 'loaded': True, 'loadedTime': 2581.5, 'positionName': 'LEFT', 'positionCoords': [23.16, 196], 'bid': 1.93}, {'imgObject': {}, 'id': 'baked potato', 'src': '/static/foodstim60/baked potato.jpg', 'key': 'i', 'origWidth': 409, 'origHeight': 410, 'width': 345.15000000000003, 'height': 345.9938875305624, 'widthPercent': 0.45, 'rescaleHeight': False, 'trialN': 33, 'loaded': True, 'loadedTime': 2480.699999988079, 'positionName': 'RIGHT', 'positionCoords': [398.84, 195.5], 'bid': 1.77}]",50107.09999999404,1669834460471,hashbrowns,baked potato,1.93,1.77,-0.15999999999999992,hashbrowns,1560.5999999940395,1561,1561.0,True,u,52177.40000000596,2070.300000011921,1669834462541,2070,,HRV,HRV_0236,2022-11-30 18:58:53
34,"[{'imgObject': {}, 'id': 'cocktailshrimp', 'src': '/static/foodstim60/cocktailshrimp.jpg', 'key': 'u', 'origWidth': 410, 'origHeight': 410, 'width': 345.15000000000003, 'height': 345.15000000000003, 'widthPercent': 0.45, 'rescaleHeight': False, 'trialN': 34, 'loaded': True, 'loadedTime': 2500.0999999940395, 'positionName': 'LEFT', 'positionCoords': [23.16, 195.5], 'bid': 9.62}, {'imgObject': {}, 'id': 'salad w chicken', 'src': '/static/foodstim60/salad w chicken.jpg', 'key': 'i', 'origWidth': 411, 'origHeight': 411, 'width': 345.15000000000003, 'height': 345.15000000000003, 'widthPercent': 0.45, 'rescaleHeight': False, 'trialN': 34, 'loaded': True, 'loadedTime': 2579.2999999821186, 'positionName': 'RIGHT', 'positionCoords': [398.84, 195.5], 'bid': 7.54}]",52177.79999998212,1669834462542,cocktailshrimp,salad w chicken,9.62,7.54,-2.079999999999999,cocktailshrimp,988.6000000238419,989,989.1000000238419,True,u,53679.79999998212,1502.0,1669834464044,1502,,HRV,HRV_0236,2022-11-30 18:58:53
35,"[{'imgObject': {}, 'id': 'omelette', 'src': '/static/foodstim60/omelette.jpg', 'key': 'u', 'origWidth': 410, 'origHeight': 409, 'width': 345.15000000000003, 'height': 344.3081707317073, 'widthPercent': 0.45, 'rescaleHeight': False, 'trialN': 35, 'loaded': True, 'loadedTime': 2266.2999999821186, 'positionName': 'LEFT', 'positionCoords': [23.16, 196], 'bid': 8.19}, {'imgObject': {}, 'id': 'bagel and cc', 'src': '/static/foodstim60/bagel and cc.jpg', 'key': 'i', 'origWidth': 410, 'origHeight': 410, 'width': 345.15000000000003, 'height': 345.15000000000003, 'widthPercent': 0.45, 'rescaleHeight': False, 'trialN': 35, 'loaded': True, 'loadedTime': 2361.9000000059605, 'positionName': 'RIGHT', 'positionCoords': [398.84, 195.5], 'bid': 6.5200000000000005}]",53680.19999998808,1669834464044,omelette,bagel and cc,8.19,6.5200000000000005,-1.669999999999999,omelette,750.0999999940395,750,750.3000000119209,True,u,54952.5,1272.300000011921,1669834465316,1272,,HRV,HRV_0236,2022-11-30 18:58:53
36,"[{'imgObject': {}, 'id': 'eggsalad', 'src': '/static/foodstim60/eggsalad.jpg', 'key': 'u', 'origWidth': 410, 'origHeight': 409, 'width': 345.15000000000003, 'height': 344.3081707317073, 'widthPercent': 0.45, 'rescaleHeight': False, 'trialN': 36, 'loaded': True, 'loadedTime': 2301.199999988079, 'positionName': 'LEFT', 'positionCoords': [23.16, 196], 'bid': 7.46}, {'imgObject': {}, 'id': 'Tribe humus pita', 'src': '/static/foodstim60/Tribe humus pita.jpg', 'key': 'i', 'origWidth': 411, 'origHeight': 411, 'width': 345.15000000000003, 'height': 345.15000000000003, 'widthPercent': 0.45, 'rescaleHeight': False, 'trialN': 36, 'loaded': True, 'loadedTime': 2583.4000000059605, 'positionName': 'RIGHT', 'positionCoords': [398.84, 195.5], 'bid': 2.61}]",54952.69999998808,1669834465317,eggsalad,Tribe humus pita,7.46,2.61,-4.85,eggsalad,1735.4000000059605,1735,1735.7000000178814,True,u,57196.90000000596,2244.2000000178814,1669834467561,2244,,HRV,HRV_0236,2022-11-30 18:58:53
37,"[{'imgObject': {}, 'id': 'edamame', 'src': '/static/foodstim60/edamame.jpg', 'key': 'u', 'origWidth': 409, 'origHeight': 410, 'width': 345.15000000000003, 'height': 345.9938875305624, 'widthPercent': 0.45, 'rescaleHeight': False, 'trialN': 37, 'loaded': True, 'loadedTime': 2320.5999999940395, 'positionName': 'LEFT', 'positionCoords': [23.16, 195.5], 'bid': 2.09}, {'imgObject': {}, 'id': 'sweetpotato', 'src': '/static/foodstim60/sweetpotato.jpg', 'key': 'i', 'origWidth': 410, 'origHeight': 410, 'width': 345.15000000000003, 'height': 345.15000000000003, 'widthPercent': 0.45, 'rescaleHeight': False, 'trialN': 37, 'loaded': True, 'loadedTime': 2546.7999999821186, 'positionName': 'RIGHT', 'positionCoords': [398.84, 195.5], 'bid': 2.3000000000000003}]",57197.09999999404,1669834467561,edamame,sweetpotato,2.09,2.3000000000000003,0.2100000000000004,sweetpotato,1866.800000011921,1868,1867.5999999940395,True,i,59584.59999999404,2387.5,1669834469948,2387,,HRV,HRV_0236,2022-11-30 18:58:53
38,"[{'imgObject': {}, 'id': 'burger', 'src': '/static/foodstim60/burger.jpg', 'key': 'u', 'origWidth': 409, 'origHeight': 409, 'width': 345.15000000000003, 'height': 345.15000000000003, 'widthPercent': 0.45, 'rescaleHeight': False, 'trialN': 38, 'loaded': True, 'loadedTime': 2180.2999999821186, 'positionName': 'LEFT', 'positionCoords': [23.16, 195.5], 'bid': 1.46}, {'imgObject': {}, 'id': 'veggieswithdip', 'src': '/static/foodstim60/veggieswithdip.jpg', 'key': 'i', 'origWidth': 409, 'origHeight': 409, 'width': 345.15000000000003, 'height': 345.15000000000003, 'widthPercent': 0.45, 'rescaleHeight': False, 'trialN': 38, 'loaded': True, 'loadedTime': 2548.4000000059605, 'positionName': 'RIGHT', 'positionCoords': [398.84, 195.5], 'bid': 4.12}]",59584.79999998212,1669834469949,burger,veggieswithdip,1.46,4.12,2.66,burger,2231.9000000059605,2233,2233.0,True,u,62334.59999999404,2749.800000011921,1669834472698,2749,,HRV,HRV_0236,2022-11-30 18:58:53
39,"[{'imgObject': {}, 'id': 'froot loops w milk', 'src': '/static/foodstim60/froot loops w milk.jpg', 'key': 'u', 'origWidth': 410, 'origHeight': 410, 'width': 345.15000000000003, 'height': 345.15000000000003, 'widthPercent': 0.45, 'rescaleHeight': False, 'trialN': 39, 'loaded': True, 'loadedTime': 2585.5, 'positionName': 'LEFT', 'positionCoords': [23.16, 195.5], 'bid': 7.67}, {'imgObject': {}, 'id': 'tacos', 'src': '/static/foodstim60/tacos.jpg', 'key': 'i', 'origWidth': 411, 'origHeight': 411, 'width': 345.15000000000003, 'height': 345.15000000000003, 'widthPercent': 0.45, 'rescaleHeight': False, 'trialN': 39, 'loaded': True, 'loadedTime': 2587.0999999940395, 'positionName': 'RIGHT', 'positionCoords': [398.84, 195.5], 'bid': 9.05}]",62335.0,1669834472699,froot loops w milk,tacos,7.67,9.05,1.3800000000000008,tacos,748.0999999940395,748,748.5999999940395,True,i,63595.5,1260.5,1669834473959,1260,,HRV,HRV_0236,2022-11-30 18:58:53
40,"[{'imgObject': {}, 'id': 'hashbrowns', 'src': '/static/foodstim60/hashbrowns.jpg', 'key': 'u', 'origWidth': 411, 'origHeight': 410, 'width': 345.15000000000003, 'height': 344.31021897810217, 'widthPercent': 0.45, 'rescaleHeight': False, 'trialN': 40, 'loaded': True, 'loadedTime': 2581.2999999821186, 'positionName': 'LEFT', 'positionCoords': [23.16, 196], 'bid': 1.93}, {'imgObject': {}, 'id': 'eggs', 'src': '/static/foodstim60/eggs.jpg', 'key': 'i', 'origWidth': 409, 'origHeight': 409, 'width': 345.15000000000003, 'height': 345.15000000000003, 'widthPercent': 0.45, 'rescaleHeight': False, 'trialN': 40, 'loaded': True, 'loadedTime': 2402.699999988079, 'positionName': 'RIGHT', 'positionCoords': [398.84, 195.5], 'bid': 6.890000000000001}]",63595.79999998212,1669834473960,hashbrowns,eggs,1.93,6.890000000000001,4.960000000000001,eggs,2573.4000000059605,2573,2573.9000000059605,True,i,66674.40000000596,3078.600000023842,1669834477038,3078,,HRV,HRV_0236,2022-11-30 18:58:53
41,"[{'imgObject': {}, 'id': 'salmon', 'src': '/static/foodstim60/salmon.jpg', 'key': 'u', 'origWidth': 410, 'origHeight': 409, 'width': 345.15000000000003, 'height': 344.3081707317073, 'widthPercent': 0.45, 'rescaleHeight': False, 'trialN': 41, 'loaded': True, 'loadedTime': 2445.5, 'positionName': 'LEFT', 'positionCoords': [23.16, 196], 'bid': 6.21}, {'imgObject': {}, 'id': 'kiwi', 'src': '/static/foodstim60/kiwi.jpg', 'key': 'i', 'origWidth': 410, 'origHeight': 410, 'width': 345.15000000000003, 'height': 345.15000000000003, 'widthPercent': 0.45, 'rescaleHeight': False, 'trialN': 41, 'loaded': True, 'loadedTime': 2588.0999999940395, 'positionName': 'RIGHT', 'positionCoords': [398.84, 195.5], 'bid': 4.9}]",66674.79999998212,1669834477039,salmon,kiwi,6.21,4.9,-1.3099999999999996,salmon,1365.4000000059605,1366,1366.1000000238419,True,u,68552.59999999404,1877.800000011921,1669834478916,1877,,HRV,HRV_0236,2022-11-30 18:58:53
42,"[{'imgObject': {}, 'id': 'roastedpotatoes', 'src': '/static/foodstim60/roastedpotatoes.jpg', 'key': 'u', 'origWidth': 409, 'origHeight': 410, 'width': 345.15000000000003, 'height': 345.9938875305624, 'widthPercent': 0.45, 'rescaleHeight': False, 'trialN': 42, 'loaded': True, 'loadedTime': 2318.5999999940395, 'positionName': 'LEFT', 'positionCoords': [23.16, 195.5], 'bid': 8.03}, {'imgObject': {}, 'id': 'fruitsalad', 'src': '/static/foodstim60/fruitsalad.jpg', 'key': 'i', 'origWidth': 410, 'origHeight': 410, 'width': 345.15000000000003, 'height': 345.15000000000003, 'widthPercent': 0.45, 'rescaleHeight': False, 'trialN': 42, 'loaded': True, 'loadedTime': 2588.2999999821186, 'positionName': 'RIGHT', 'positionCoords': [398.84, 195.5], 'bid': 6.16}]",68552.69999998808,1669834478917,roastedpotatoes,fruitsalad,8.03,6.16,-1.8699999999999992,roastedpotatoes,915.7000000178814,916,916.3000000119209,True,u,69984.5,1431.800000011921,1669834480348,1431,,HRV,HRV_0236,2022-11-30 18:58:53
43,"[{'imgObject': {}, 'id': 'avocado', 'src': '/static/foodstim60/avocado.jpg', 'key': 'u', 'origWidth': 409, 'origHeight': 409, 'width': 345.15000000000003, 'height': 345.15000000000003, 'widthPercent': 0.45, 'rescaleHeight': False, 'trialN': 43, 'loaded': True, 'loadedTime': 2280.0999999940395, 'positionName': 'LEFT', 'positionCoords': [23.16, 195.5], 'bid': 8.16}, {'imgObject': {}, 'id': 'tacos', 'src': '/static/foodstim60/tacos.jpg', 'key': 'i', 'origWidth': 411, 'origHeight': 411, 'width': 345.15000000000003, 'height': 345.15000000000003, 'widthPercent': 0.45, 'rescaleHeight': False, 'trialN': 43, 'loaded': True, 'loadedTime': 2585.9000000059605, 'positionName': 'RIGHT', 'positionCoords': [398.84, 195.5], 'bid': 9.05}]",69984.79999998212,1669834480349,avocado,tacos,8.16,9.05,0.8900000000000006,tacos,786.7000000178814,787,787.3000000119209,True,i,71289.59999999404,1304.800000011921,1669834481653,1304,,HRV,HRV_0236,2022-11-30 18:58:53
44,"[{'imgObject': {}, 'id': 'baked potato', 'src': '/static/foodstim60/baked potato.jpg', 'key': 'u', 'origWidth': 409, 'origHeight': 410, 'width': 345.15000000000003, 'height': 345.9938875305624, 'widthPercent': 0.45, 'rescaleHeight': False, 'trialN': 44, 'loaded': True, 'loadedTime': 2478.199999988079, 'positionName': 'LEFT', 'positionCoords': [23.16, 195.5], 'bid': 1.77}, {'imgObject': {}, 'id': 'rigatoni', 'src': '/static/foodstim60/rigatoni.jpg', 'key': 'i', 'origWidth': 411, 'origHeight': 411, 'width': 345.15000000000003, 'height': 345.15000000000003, 'widthPercent': 0.45, 'rescaleHeight': False, 'trialN': 44, 'loaded': True, 'loadedTime': 2432.7999999821186, 'positionName': 'RIGHT', 'positionCoords': [398.84, 195.5], 'bid': 6.55}]",71289.79999998212,1669834481654,baked potato,rigatoni,1.77,6.55,4.779999999999999,rigatoni,1047.5,1047,1047.800000011921,True,i,72852.40000000596,1562.6000000238419,1669834483216,1562,,HRV,HRV_0236,2022-11-30 18:58:53
45,"[{'imgObject': {}, 'id': 'cantaloupe', 'src': '/static/foodstim60/cantaloupe.jpg', 'key': 'u', 'origWidth': 409, 'origHeight': 409, 'width': 345.15000000000003, 'height': 345.15000000000003, 'widthPercent': 0.45, 'rescaleHeight': False, 'trialN': 45, 'loaded': True, 'loadedTime': 2552, 'positionName': 'LEFT', 'positionCoords': [23.16, 195.5], 'bid': 5.11}, {'imgObject': {}, 'id': 'fruitsalad', 'src': '/static/foodstim60/fruitsalad.jpg', 'key': 'i', 'origWidth': 410, 'origHeight': 410, 'width': 345.15000000000003, 'height': 345.15000000000003, 'widthPercent': 0.45, 'rescaleHeight': False, 'trialN': 45, 'loaded': True, 'loadedTime': 2589.5999999940395, 'positionName': 'RIGHT', 'positionCoords': [398.84, 195.5], 'bid': 6.16}]",72852.69999998808,1669834483216,cantaloupe,fruitsalad,5.11,6.16,1.0499999999999998,cantaloupe,1230.800000011921,1232,1231.0999999940395,True,u,74586.29999998212,1733.5999999940395,1669834484950,1734,,HRV,HRV_0236,2022-11-30 18:58:53
46,"[{'imgObject': {}, 'id': 'ice cream sundae 002', 'src': '/static/foodstim60/ice cream sundae 002.jpg', 'key': 'u', 'origWidth': 409, 'origHeight': 409, 'width': 345.15000000000003, 'height': 345.15000000000003, 'widthPercent': 0.45, 'rescaleHeight': False, 'trialN': 46, 'loaded': True, 'loadedTime': 2467.5999999940395, 'positionName': 'LEFT', 'positionCoords': [23.16, 195.5], 'bid': 8.24}, {'imgObject': {}, 'id': 'avocado', 'src': '/static/foodstim60/avocado.jpg', 'key': 'i', 'origWidth': 409, 'origHeight': 409, 'width': 345.15000000000003, 'height': 345.15000000000003, 'widthPercent': 0.45, 'rescaleHeight': False, 'trialN': 46, 'loaded': True, 'loadedTime': 2267.699999988079, 'positionName': 'RIGHT', 'positionCoords': [398.84, 195.5], 'bid': 8.16}]",74586.40000000596,1669834484950,ice cream sundae 002,avocado,8.24,8.16,-0.08000000000000007,avocado,640.5999999940395,641,641.0999999940395,True,i,75737.69999998808,1151.2999999821186,1669834486101,1151,,HRV,HRV_0236,2022-11-30 18:58:53
47,"[{'imgObject': {}, 'id': 'bagel plain', 'src': '/static/foodstim60/bagel plain.jpg', 'key': 'u', 'origWidth': 410, 'origHeight': 410, 'width': 345.15000000000003, 'height': 345.15000000000003, 'widthPercent': 0.45, 'rescaleHeight': False, 'trialN': 47, 'loaded': True, 'loadedTime': 2549.7999999821186, 'positionName': 'LEFT', 'positionCoords': [23.16, 195.5], 'bid': 5.87}, {'imgObject': {}, 'id': 'rigatoni', 'src': '/static/foodstim60/rigatoni.jpg', 'key': 'i', 'origWidth': 411, 'origHeight': 411, 'width': 345.15000000000003, 'height': 345.15000000000003, 'widthPercent': 0.45, 'rescaleHeight': False, 'trialN': 47, 'loaded': True, 'loadedTime': 2432.2999999821186, 'positionName': 'RIGHT', 'positionCoords': [398.84, 195.5], 'bid': 6.55}]",75738.0,1669834486102,bagel plain,rigatoni,5.87,6.55,0.6799999999999997,rigatoni,1501.7999999821186,1502,1502.4000000059605,True,i,77746.40000000596,2008.4000000059605,1669834488110,2008,,HRV,HRV_0236,2022-11-30 18:58:53
48,"[{'imgObject': {}, 'id': 'eggs', 'src': '/static/foodstim60/eggs.jpg', 'key': 'u', 'origWidth': 409, 'origHeight': 409, 'width': 345.15000000000003, 'height': 345.15000000000003, 'widthPercent': 0.45, 'rescaleHeight': False, 'trialN': 48, 'loaded': True, 'loadedTime': 2403.7999999821186, 'positionName': 'LEFT', 'positionCoords': [23.16, 195.5], 'bid': 6.890000000000001}, {'imgObject': {}, 'id': 'mango', 'src': '/static/foodstim60/mango.jpg', 'key': 'i', 'origWidth': 411, 'origHeight': 411, 'width': 345.15000000000003, 'height': 345.15000000000003, 'widthPercent': 0.45, 'rescaleHeight': False, 'trialN': 48, 'loaded': True, 'loadedTime': 2567, 'positionName': 'RIGHT', 'positionCoords': [398.84, 195.5], 'bid': 5.84}]",77746.90000000596,1669834488111,eggs,mango,6.890000000000001,5.84,-1.0500000000000007,eggs,2404.5,2404,2404.899999976158,True,u,80671.29999998212,2924.399999976158,1669834491035,2924,,HRV,HRV_0236,2022-11-30 18:58:53
49,"[{'imgObject': {}, 'id': 'veggieswithdip', 'src': '/static/foodstim60/veggieswithdip.jpg', 'key': 'u', 'origWidth': 409, 'origHeight': 409, 'width': 345.15000000000003, 'height': 345.15000000000003, 'widthPercent': 0.45, 'rescaleHeight': False, 'trialN': 49, 'loaded': True, 'loadedTime': 2548.7999999821186, 'positionName': 'LEFT', 'positionCoords': [23.16, 195.5], 'bid': 4.12}, {'imgObject': {}, 'id': 'omelette', 'src': '/static/foodstim60/omelette.jpg', 'key': 'i', 'origWidth': 410, 'origHeight': 409, 'width': 345.15000000000003, 'height': 344.3081707317073, 'widthPercent': 0.45, 'rescaleHeight': False, 'trialN': 49, 'loaded': True, 'loadedTime': 2266.4000000059605, 'positionName': 'RIGHT', 'positionCoords': [398.84, 196], 'bid': 8.19}]",80671.90000000596,1669834491036,veggieswithdip,omelette,4.12,8.19,4.069999999999999,omelette,798.3999999761581,800,800.5,True,i,81979.29999998212,1307.3999999761581,1669834492343,1307,,HRV,HRV_0236,2022-11-30 18:58:53
50,"[{'imgObject': {}, 'id': 'salmon', 'src': '/static/foodstim60/salmon.jpg', 'key': 'u', 'origWidth': 410, 'origHeight': 409, 'width': 345.15000000000003, 'height': 344.3081707317073, 'widthPercent': 0.45, 'rescaleHeight': False, 'trialN': 50, 'loaded': True, 'loadedTime': 2447.0999999940395, 'positionName': 'LEFT', 'positionCoords': [23.16, 196], 'bid': 6.21}, {'imgObject': {}, 'id': 'avocado', 'src': '/static/foodstim60/avocado.jpg', 'key': 'i', 'origWidth': 409, 'origHeight': 409, 'width': 345.15000000000003, 'height': 345.15000000000003, 'widthPercent': 0.45, 'rescaleHeight': False, 'trialN': 50, 'loaded': True, 'loadedTime': 2280.5999999940395, 'positionName': 'RIGHT', 'positionCoords': [398.84, 195.5], 'bid': 8.16}]",81979.69999998808,1669834492343,salmon,avocado,6.21,8.16,1.9500000000000002,salmon,947.7000000178814,949,948.2000000178814,True,u,83437.29999998212,1457.5999999940395,1669834493801,1458,,HRV,HRV_0236,2022-11-30 18:58:53
51,"[{'imgObject': {}, 'id': 'fried eggs', 'src': '/static/foodstim60/fried eggs.jpg', 'key': 'u', 'origWidth': 410, 'origHeight': 410, 'width': 345.15000000000003, 'height': 345.15000000000003, 'widthPercent': 0.45, 'rescaleHeight': False, 'trialN': 51, 'loaded': True, 'loadedTime': 2404.199999988079, 'positionName': 'LEFT', 'positionCoords': [23.16, 195.5], 'bid': 7.25}, {'imgObject': {}, 'id': 'bagel plain', 'src': '/static/foodstim60/bagel plain.jpg', 'key': 'i', 'origWidth': 410, 'origHeight': 410, 'width': 345.15000000000003, 'height': 345.15000000000003, 'widthPercent': 0.45, 'rescaleHeight': False, 'trialN': 51, 'loaded': True, 'loadedTime': 2549.5999999940395, 'positionName': 'RIGHT', 'positionCoords': [398.84, 195.5], 'bid': 5.87}]",83438.09999999404,1669834493802,fried eggs,bagel plain,7.25,5.87,-1.38,fried eggs,744.9000000059605,745,745.4000000059605,True,u,84706.40000000596,1268.300000011921,1669834495070,1268,,HRV,HRV_0236,2022-11-30 18:58:53
52,"[{'imgObject': {}, 'id': 'steak', 'src': '/static/foodstim60/steak.jpg', 'key': 'u', 'origWidth': 410, 'origHeight': 410, 'width': 345.15000000000003, 'height': 345.15000000000003, 'widthPercent': 0.45, 'rescaleHeight': False, 'trialN': 52, 'loaded': True, 'loadedTime': 2381.7999999821186, 'positionName': 'LEFT', 'positionCoords': [23.16, 195.5], 'bid': 8.53}, {'imgObject': {}, 'id': 'eggs', 'src': '/static/foodstim60/eggs.jpg', 'key': 'i', 'origWidth': 409, 'origHeight': 409, 'width': 345.15000000000003, 'height': 345.15000000000003, 'widthPercent': 0.45, 'rescaleHeight': False, 'trialN': 52, 'loaded': True, 'loadedTime': 2403.9000000059605, 'positionName': 'RIGHT', 'positionCoords': [398.84, 195.5], 'bid': 6.890000000000001}]",84706.59999999404,1669834495070,steak,eggs,8.53,6.890000000000001,-1.6399999999999988,steak,931.0999999940395,932,931.5999999940395,True,u,86147.40000000596,1440.800000011921,1669834496511,1441,,HRV,HRV_0236,2022-11-30 18:58:53
53,"[{'imgObject': {}, 'id': 'burrito', 'src': '/static/foodstim60/burrito.jpg', 'key': 'u', 'origWidth': 410, 'origHeight': 410, 'width': 345.15000000000003, 'height': 345.15000000000003, 'widthPercent': 0.45, 'rescaleHeight': False, 'trialN': 53, 'loaded': True, 'loadedTime': 2449.7999999821186, 'positionName': 'LEFT', 'positionCoords': [23.16, 195.5], 'bid': 8.74}, {'imgObject': {}, 'id': 'steak', 'src': '/static/foodstim60/steak.jpg', 'key': 'i', 'origWidth': 410, 'origHeight': 410, 'width': 345.15000000000003, 'height': 345.15000000000003, 'widthPercent': 0.45, 'rescaleHeight': False, 'trialN': 53, 'loaded': True, 'loadedTime': 2400, 'positionName': 'RIGHT', 'positionCoords': [398.84, 195.5], 'bid': 8.53}]",86147.69999998808,1669834496511,burrito,steak,8.74,8.53,-0.21000000000000085,steak,527.7000000178814,528,528.0,True,i,87185.69999998808,1038.0,1669834497549,1038,,HRV,HRV_0236,2022-11-30 18:58:53
54,"[{'imgObject': {}, 'id': 'salmon', 'src': '/static/foodstim60/salmon.jpg', 'key': 'u', 'origWidth': 410, 'origHeight': 409, 'width': 345.15000000000003, 'height': 344.3081707317073, 'widthPercent': 0.45, 'rescaleHeight': False, 'trialN': 54, 'loaded': True, 'loadedTime': 2433.7999999821186, 'positionName': 'LEFT', 'positionCoords': [23.16, 196], 'bid': 6.21}, {'imgObject': {}, 'id': 'raisin bran w milk', 'src': '/static/foodstim60/raisin bran w milk.jpg', 'key': 'i', 'origWidth': 411, 'origHeight': 411, 'width': 345.15000000000003, 'height': 345.15000000000003, 'widthPercent': 0.45, 'rescaleHeight': False, 'trialN': 54, 'loaded': True, 'loadedTime': 2589.9000000059605, 'positionName': 'RIGHT', 'positionCoords': [398.84, 195.5], 'bid': 0.84}]",87185.90000000596,1669834497550,salmon,raisin bran w milk,6.21,0.84,-5.37,salmon,781.6999999880791,782,782.1999999880791,True,u,88487.69999998808,1301.7999999821186,1669834498851,1301,,HRV,HRV_0236,2022-11-30 18:58:53
55,"[{'imgObject': {}, 'id': 'cantaloupe', 'src': '/static/foodstim60/cantaloupe.jpg', 'key': 'u', 'origWidth': 409, 'origHeight': 409, 'width': 345.15000000000003, 'height': 345.15000000000003, 'widthPercent': 0.45, 'rescaleHeight': False, 'trialN': 55, 'loaded': True, 'loadedTime': 2552.199999988079, 'positionName': 'LEFT', 'positionCoords': [23.16, 195.5], 'bid': 5.11}, {'imgObject': {}, 'id': 'Tribe humus pita', 'src': '/static/foodstim60/Tribe humus pita.jpg', 'key': 'i', 'origWidth': 411, 'origHeight': 411, 'width': 345.15000000000003, 'height': 345.15000000000003, 'widthPercent': 0.45, 'rescaleHeight': False, 'trialN': 55, 'loaded': True, 'loadedTime': 2581.9000000059605, 'positionName': 'RIGHT', 'positionCoords': [398.84, 195.5], 'bid': 2.61}]",88488.09999999404,1669834498852,cantaloupe,Tribe humus pita,5.11,2.61,-2.5000000000000004,cantaloupe,2793.4000000059605,2794,2793.800000011921,True,u,91786.90000000596,3298.800000011921,1669834502151,3299,,HRV,HRV_0236,2022-11-30 18:58:53
56,"[{'imgObject': {}, 'id': 'Tribe humus pita', 'src': '/static/foodstim60/Tribe humus pita.jpg', 'key': 'u', 'origWidth': 411, 'origHeight': 411, 'width': 345.15000000000003, 'height': 345.15000000000003, 'widthPercent': 0.45, 'rescaleHeight': False, 'trialN': 56, 'loaded': True, 'loadedTime': 2584.199999988079, 'positionName': 'LEFT', 'positionCoords': [23.16, 195.5], 'bid': 2.61}, {'imgObject': {}, 'id': 'granola w milk', 'src': '/static/foodstim60/granola w milk.jpg', 'key': 'i', 'origWidth': 410, 'origHeight': 410, 'width': 345.15000000000003, 'height': 345.15000000000003, 'widthPercent': 0.45, 'rescaleHeight': False, 'trialN': 56, 'loaded': True, 'loadedTime': 2597.5999999940395, 'positionName': 'RIGHT', 'positionCoords': [398.84, 195.5], 'bid': 0.16}]",91787.0,1669834502151,Tribe humus pita,granola w milk,2.61,0.16,-2.4499999999999997,Tribe humus pita,1145.9000000059605,1146,1146.4000000059605,True,u,93434.79999998212,1647.7999999821186,1669834503799,1648,,HRV,HRV_0236,2022-11-30 18:58:53
57,"[{'imgObject': {}, 'id': 'tacos', 'src': '/static/foodstim60/tacos.jpg', 'key': 'u', 'origWidth': 411, 'origHeight': 411, 'width': 345.15000000000003, 'height': 345.15000000000003, 'widthPercent': 0.45, 'rescaleHeight': False, 'trialN': 57, 'loaded': True, 'loadedTime': 2586.9000000059605, 'positionName': 'LEFT', 'positionCoords': [23.16, 195.5], 'bid': 9.05}, {'imgObject': {}, 'id': 'mac & cheese', 'src': '/static/foodstim60/mac & cheese.jpg', 'key': 'i', 'origWidth': 410, 'origHeight': 410, 'width': 345.15000000000003, 'height': 345.15000000000003, 'widthPercent': 0.45, 'rescaleHeight': False, 'trialN': 57, 'loaded': True, 'loadedTime': 2599, 'positionName': 'RIGHT', 'positionCoords': [398.84, 195.5], 'bid': 9.31}]",93435.19999998808,1669834503799,tacos,mac & cheese,9.05,9.31,0.2599999999999998,tacos,1038.7000000178814,1039,1039.0,True,u,94988.09999999404,1552.9000000059605,1669834505352,1553,,HRV,HRV_0236,2022-11-30 18:58:53
58,"[{'imgObject': {}, 'id': 'bagel and cc', 'src': '/static/foodstim60/bagel and cc.jpg', 'key': 'u', 'origWidth': 410, 'origHeight': 410, 'width': 345.15000000000003, 'height': 345.15000000000003, 'widthPercent': 0.45, 'rescaleHeight': False, 'trialN': 58, 'loaded': True, 'loadedTime': 2362.5999999940395, 'positionName': 'LEFT', 'positionCoords': [23.16, 195.5], 'bid': 6.5200000000000005}, {'imgObject': {}, 'id': 'rigatoni', 'src': '/static/foodstim60/rigatoni.jpg', 'key': 'i', 'origWidth': 411, 'origHeight': 411, 'width': 345.15000000000003, 'height': 345.15000000000003, 'widthPercent': 0.45, 'rescaleHeight': False, 'trialN': 58, 'loaded': True, 'loadedTime': 2432.699999988079, 'positionName': 'RIGHT', 'positionCoords': [398.84, 195.5], 'bid': 6.55}]",94988.40000000596,1669834505352,bagel and cc,rigatoni,6.5200000000000005,6.55,0.02999999999999936,rigatoni,686.2999999821186,687,686.7999999821186,True,i,96188.90000000596,1200.5,1669834506553,1201,,HRV,HRV_0236,2022-11-30 18:58:53
59,"[{'imgObject': {}, 'id': 'granola w milk', 'src': '/static/foodstim60/granola w milk.jpg', 'key': 'u', 'origWidth': 410, 'origHeight': 410, 'width': 345.15000000000003, 'height': 345.15000000000003, 'widthPercent': 0.45, 'rescaleHeight': False, 'trialN': 59, 'loaded': True, 'loadedTime': 2596.699999988079, 'positionName': 'LEFT', 'positionCoords': [23.16, 195.5], 'bid': 0.16}, {'imgObject': {}, 'id': 'raisin bran w milk', 'src': '/static/foodstim60/raisin bran w milk.jpg', 'key': 'i', 'origWidth': 411, 'origHeight': 411, 'width': 345.15000000000003, 'height': 345.15000000000003, 'widthPercent': 0.45, 'rescaleHeight': False, 'trialN': 59, 'loaded': True, 'loadedTime': 2596.4000000059605, 'positionName': 'RIGHT', 'positionCoords': [398.84, 195.5], 'bid': 0.84}]",96189.29999998212,1669834506553,granola w milk,raisin bran w milk,0.16,0.84,0.6799999999999999,raisin bran w milk,838.6000000238419,839,839.2000000178814,True,i,97542.5,1353.2000000178814,1669834507906,1353,,HRV,HRV_0236,2022-11-30 18:58:53
60,"[{'imgObject': {}, 'id': 'Tribe humus pita', 'src': '/static/foodstim60/Tribe humus pita.jpg', 'key': 'u', 'origWidth': 411, 'origHeight': 411, 'width': 345.15000000000003, 'height': 345.15000000000003, 'widthPercent': 0.45, 'rescaleHeight': False, 'trialN': 60, 'loaded': True, 'loadedTime': 2584.4000000059605, 'positionName': 'LEFT', 'positionCoords': [23.16, 195.5], 'bid': 2.61}, {'imgObject': {}, 'id': 'baked potato', 'src': '/static/foodstim60/baked potato.jpg', 'key': 'i', 'origWidth': 409, 'origHeight': 410, 'width': 345.15000000000003, 'height': 345.9938875305624, 'widthPercent': 0.45, 'rescaleHeight': False, 'trialN': 60, 'loaded': True, 'loadedTime': 2472.7999999821186, 'positionName': 'RIGHT', 'positionCoords': [398.84, 195.5], 'bid': 1.77}]",97542.69999998808,1669834507906,Tribe humus pita,baked potato,2.61,1.77,-0.8399999999999999,Tribe humus pita,1075.800000011921,1077,1076.2000000178814,True,u,99128.59999999404,1585.9000000059605,1669834509492,1586,,HRV,HRV_0236,2022-11-30 18:58:53
61,"[{'imgObject': {}, 'id': 'cocktailshrimp', 'src': '/static/foodstim60/cocktailshrimp.jpg', 'key': 'u', 'origWidth': 410, 'origHeight': 410, 'width': 345.15000000000003, 'height': 345.15000000000003, 'widthPercent': 0.45, 'rescaleHeight': False, 'trialN': 61, 'loaded': True, 'loadedTime': 2499.9000000059605, 'positionName': 'LEFT', 'positionCoords': [23.16, 195.5], 'bid': 9.62}, {'imgObject': {}, 'id': 'sushi w_condiments', 'src': '/static/foodstim60/sushi w_condiments.jpg', 'key': 'i', 'origWidth': 410, 'origHeight': 410, 'width': 345.15000000000003, 'height': 345.15000000000003, 'widthPercent': 0.45, 'rescaleHeight': False, 'trialN': 61, 'loaded': True, 'loadedTime': 2448.699999988079, 'positionName': 'RIGHT', 'positionCoords': [398.84, 195.5], 'bid': 9.91}]",99128.90000000596,1669834509493,cocktailshrimp,sushi w_condiments,9.62,9.91,0.2900000000000009,sushi w_condiments,957.6999999880791,958,958.1999999880791,True,i,100599.5,1470.5999999940395,1669834510963,1470,,HRV,HRV_0236,2022-11-30 18:58:53
62,"[{'imgObject': {}, 'id': 'popsicles', 'src': '/static/foodstim60/popsicles.jpg', 'key': 'u', 'origWidth': 410, 'origHeight': 410, 'width': 345.15000000000003, 'height': 345.15000000000003, 'widthPercent': 0.45, 'rescaleHeight': False, 'trialN': 62, 'loaded': True, 'loadedTime': 2602.0999999940395, 'positionName': 'LEFT', 'positionCoords': [23.16, 195.5], 'bid': 6.91}, {'imgObject': {}, 'id': 'froot loops w milk', 'src': '/static/foodstim60/froot loops w milk.jpg', 'key': 'i', 'origWidth': 410, 'origHeight': 410, 'width': 345.15000000000003, 'height': 345.15000000000003, 'widthPercent': 0.45, 'rescaleHeight': False, 'trialN': 62, 'loaded': True, 'loadedTime': 2585.7999999821186, 'positionName': 'RIGHT', 'positionCoords': [398.84, 195.5], 'bid': 7.67}]",100599.59999999404,1669834510963,popsicles,froot loops w milk,6.91,7.67,0.7599999999999998,froot loops w milk,1834.4000000059605,1835,1834.800000011921,True,i,102947.0,2347.4000000059605,1669834513311,2348,,HRV,HRV_0236,2022-11-30 18:58:53
63,"[{'imgObject': {}, 'id': 'rigatoni and sauce', 'src': '/static/foodstim60/rigatoni and sauce.jpg', 'key': 'u', 'origWidth': 410, 'origHeight': 411, 'width': 345.15000000000003, 'height': 345.9918292682927, 'widthPercent': 0.45, 'rescaleHeight': False, 'trialN': 63, 'loaded': True, 'loadedTime': 2571.4000000059605, 'positionName': 'LEFT', 'positionCoords': [23.16, 195.5], 'bid': 8.24}, {'imgObject': {}, 'id': 'ice cream sundae 002', 'src': '/static/foodstim60/ice cream sundae 002.jpg', 'key': 'i', 'origWidth': 409, 'origHeight': 409, 'width': 345.15000000000003, 'height': 345.15000000000003, 'widthPercent': 0.45, 'rescaleHeight': False, 'trialN': 63, 'loaded': True, 'loadedTime': 2467.5999999940395, 'positionName': 'RIGHT', 'positionCoords': [398.84, 195.5], 'bid': 8.24}]",102948.0,1669834513312,rigatoni and sauce,ice cream sundae 002,8.24,8.24,0.0,rigatoni and sauce,769.0,769,769.5999999940395,True,u,104221.29999998212,1273.2999999821186,1669834514585,1273,,HRV,HRV_0236,2022-11-30 18:58:53
64,"[{'imgObject': {}, 'id': 'fruitsalad', 'src': '/static/foodstim60/fruitsalad.jpg', 'key': 'u', 'origWidth': 410, 'origHeight': 410, 'width': 345.15000000000003, 'height': 345.15000000000003, 'widthPercent': 0.45, 'rescaleHeight': False, 'trialN': 64, 'loaded': True, 'loadedTime': 2589.5, 'positionName': 'LEFT', 'positionCoords': [23.16, 195.5], 'bid': 6.16}, {'imgObject': {}, 'id': 'bagel and cc', 'src': '/static/foodstim60/bagel and cc.jpg', 'key': 'i', 'origWidth': 410, 'origHeight': 410, 'width': 345.15000000000003, 'height': 345.15000000000003, 'widthPercent': 0.45, 'rescaleHeight': False, 'trialN': 64, 'loaded': True, 'loadedTime': 2362.699999988079, 'positionName': 'RIGHT', 'positionCoords': [398.84, 195.5], 'bid': 6.5200000000000005}]",104221.5,1669834514585,fruitsalad,bagel and cc,6.16,6.5200000000000005,0.3600000000000003,bagel and cc,827.1999999880791,828,827.7999999821186,True,i,105560.69999998808,1339.199999988079,1669834515924,1339,,HRV,HRV_0236,2022-11-30 18:58:53
65,"[{'imgObject': {}, 'id': 'sweetpotato', 'src': '/static/foodstim60/sweetpotato.jpg', 'key': 'u', 'origWidth': 410, 'origHeight': 410, 'width': 345.15000000000003, 'height': 345.15000000000003, 'widthPercent': 0.45, 'rescaleHeight': False, 'trialN': 65, 'loaded': True, 'loadedTime': 2546.7999999821186, 'positionName': 'LEFT', 'positionCoords': [23.16, 195.5], 'bid': 2.3000000000000003}, {'imgObject': {}, 'id': 'cheerios', 'src': '/static/foodstim60/cheerios.jpg', 'key': 'i', 'origWidth': 409, 'origHeight': 410, 'width': 345.15000000000003, 'height': 345.9938875305624, 'widthPercent': 0.45, 'rescaleHeight': False, 'trialN': 65, 'loaded': True, 'loadedTime': 2600.5, 'positionName': 'RIGHT', 'positionCoords': [398.84, 195.5], 'bid': 4.93}]",105560.90000000596,1669834515925,sweetpotato,cheerios,2.3000000000000003,4.93,2.6299999999999994,sweetpotato,1352.5999999940395,1353,1353.699999988079,True,u,107421.40000000596,1860.5,1669834517785,1860,,HRV,HRV_0236,2022-11-30 18:58:53
66,"[{'imgObject': {}, 'id': 'burrito', 'src': '/static/foodstim60/burrito.jpg', 'key': 'u', 'origWidth': 410, 'origHeight': 410, 'width': 345.15000000000003, 'height': 345.15000000000003, 'widthPercent': 0.45, 'rescaleHeight': False, 'trialN': 66, 'loaded': True, 'loadedTime': 2448.9000000059605, 'positionName': 'LEFT', 'positionCoords': [23.16, 195.5], 'bid': 8.74}, {'imgObject': {}, 'id': 'kiwi', 'src': '/static/foodstim60/kiwi.jpg', 'key': 'i', 'origWidth': 410, 'origHeight': 410, 'width': 345.15000000000003, 'height': 345.15000000000003, 'widthPercent': 0.45, 'rescaleHeight': False, 'trialN': 66, 'loaded': True, 'loadedTime': 2588.199999988079, 'positionName': 'RIGHT', 'positionCoords': [398.84, 195.5], 'bid': 4.9}]",107421.59999999404,1669834517785,burrito,kiwi,8.74,4.9,-3.84,burrito,908.3000000119209,910,909.9000000059605,True,u,108837.0,1415.4000000059605,1669834519201,1416,,HRV,HRV_0236,2022-11-30 18:58:53
67,"[{'imgObject': {}, 'id': 'omelette', 'src': '/static/foodstim60/omelette.jpg', 'key': 'u', 'origWidth': 410, 'origHeight': 409, 'width': 345.15000000000003, 'height': 344.3081707317073, 'widthPercent': 0.45, 'rescaleHeight': False, 'trialN': 67, 'loaded': True, 'loadedTime': 2266.0999999940395, 'positionName': 'LEFT', 'positionCoords': [23.16, 196], 'bid': 8.19}, {'imgObject': {}, 'id': 'rigatoni and sauce', 'src': '/static/foodstim60/rigatoni and sauce.jpg', 'key': 'i', 'origWidth': 410, 'origHeight': 411, 'width': 345.15000000000003, 'height': 345.9918292682927, 'widthPercent': 0.45, 'rescaleHeight': False, 'trialN': 67, 'loaded': True, 'loadedTime': 2572.5999999940395, 'positionName': 'RIGHT', 'positionCoords': [398.84, 195.5], 'bid': 8.24}]",108837.19999998808,1669834519201,omelette,rigatoni and sauce,8.19,8.24,0.05000000000000071,omelette,683.5,684,684.0999999940395,True,u,110030.5,1193.300000011921,1669834520394,1193,,HRV,HRV_0236,2022-11-30 18:58:53
68,"[{'imgObject': {}, 'id': 'granola w milk', 'src': '/static/foodstim60/granola w milk.jpg', 'key': 'u', 'origWidth': 410, 'origHeight': 410, 'width': 345.15000000000003, 'height': 345.15000000000003, 'widthPercent': 0.45, 'rescaleHeight': False, 'trialN': 68, 'loaded': True, 'loadedTime': 2597.9000000059605, 'positionName': 'LEFT', 'positionCoords': [23.16, 195.5], 'bid': 0.16}, {'imgObject': {}, 'id': 'orange slices', 'src': '/static/foodstim60/orange slices.jpg', 'key': 'i', 'origWidth': 409, 'origHeight': 410, 'width': 345.15000000000003, 'height': 345.9938875305624, 'widthPercent': 0.45, 'rescaleHeight': False, 'trialN': 68, 'loaded': True, 'loadedTime': 2472.699999988079, 'positionName': 'RIGHT', 'positionCoords': [398.84, 195.5], 'bid': 6.1000000000000005}]",110030.79999998212,1669834520395,granola w milk,orange slices,0.16,6.1000000000000005,5.94,granola w milk,1895.2000000178814,1895,1895.7000000178814,True,u,112449.19999998808,2418.4000000059605,1669834522813,2418,,HRV,HRV_0236,2022-11-30 18:58:53
69,"[{'imgObject': {}, 'id': 'hotdog w must', 'src': '/static/foodstim60/hotdog w must.jpg', 'key': 'u', 'origWidth': 409, 'origHeight': 409, 'width': 345.15000000000003, 'height': 345.15000000000003, 'widthPercent': 0.45, 'rescaleHeight': False, 'trialN': 69, 'loaded': True, 'loadedTime': 2320.2999999821186, 'positionName': 'LEFT', 'positionCoords': [23.16, 195.5], 'bid': 7.75}, {'imgObject': {}, 'id': 'froot loops w milk', 'src': '/static/foodstim60/froot loops w milk.jpg', 'key': 'i', 'origWidth': 410, 'origHeight': 410, 'width': 345.15000000000003, 'height': 345.15000000000003, 'widthPercent': 0.45, 'rescaleHeight': False, 'trialN': 69, 'loaded': True, 'loadedTime': 2585.5999999940395, 'positionName': 'RIGHT', 'positionCoords': [398.84, 195.5], 'bid': 7.67}]",112450.19999998808,1669834522814,hotdog w must,froot loops w milk,7.75,7.67,-0.08000000000000007,hotdog w must,836.9000000059605,837,837.3000000119209,True,u,113800.90000000596,1350.7000000178814,1669834524165,1351,,HRV,HRV_0236,2022-11-30 18:58:53
70,"[{'imgObject': {}, 'id': 'turkey sandwich', 'src': '/static/foodstim60/turkey sandwich.jpg', 'key': 'u', 'origWidth': 409, 'origHeight': 409, 'width': 345.15000000000003, 'height': 345.15000000000003, 'widthPercent': 0.45, 'rescaleHeight': False, 'trialN': 70, 'loaded': True, 'loadedTime': 2469.199999988079, 'positionName': 'LEFT', 'positionCoords': [23.16, 195.5], 'bid': 7.46}, {'imgObject': {}, 'id': 'mac & cheese', 'src': '/static/foodstim60/mac & cheese.jpg', 'key': 'i', 'origWidth': 410, 'origHeight': 410, 'width': 345.15000000000003, 'height': 345.15000000000003, 'widthPercent': 0.45, 'rescaleHeight': False, 'trialN': 70, 'loaded': True, 'loadedTime': 2599.4000000059605, 'positionName': 'RIGHT', 'positionCoords': [398.84, 195.5], 'bid': 9.31}]",113801.19999998808,1669834524165,turkey sandwich,mac & cheese,7.46,9.31,1.8500000000000005,turkey sandwich,823.9000000059605,824,824.2000000178814,True,u,115139.19999998808,1338.0,1669834525503,1338,,HRV,HRV_0236,2022-11-30 18:58:53
71,"[{'imgObject': {}, 'id': 'apple slices', 'src': '/static/foodstim60/apple slices.jpg', 'key': 'u', 'origWidth': 409, 'origHeight': 410, 'width': 345.15000000000003, 'height': 345.9938875305624, 'widthPercent': 0.45, 'rescaleHeight': False, 'trialN': 71, 'loaded': True, 'loadedTime': 2281.7999999821186, 'positionName': 'LEFT', 'positionCoords': [23.16, 195.5], 'bid': 4.8500000000000005}, {'imgObject': {}, 'id': 'kiwi', 'src': '/static/foodstim60/kiwi.jpg', 'key': 'i', 'origWidth': 410, 'origHeight': 410, 'width': 345.15000000000003, 'height': 345.15000000000003, 'widthPercent': 0.45, 'rescaleHeight': False, 'trialN': 71, 'loaded': True, 'loadedTime': 2588, 'positionName': 'RIGHT', 'positionCoords': [398.84, 195.5], 'bid': 4.9}]",115139.5,1669834525503,apple slices,kiwi,4.8500000000000005,4.9,0.04999999999999982,kiwi,1635.2999999821186,1636,1635.7999999821186,True,i,117292.5,2153.0,1669834527656,2153,,HRV,HRV_0236,2022-11-30 18:58:53
72,"[{'imgObject': {}, 'id': 'ice cream sundae 002', 'src': '/static/foodstim60/ice cream sundae 002.jpg', 'key': 'u', 'origWidth': 409, 'origHeight': 409, 'width': 345.15000000000003, 'height': 345.15000000000003, 'widthPercent': 0.45, 'rescaleHeight': False, 'trialN': 72, 'loaded': True, 'loadedTime': 2467.7999999821186, 'positionName': 'LEFT', 'positionCoords': [23.16, 195.5], 'bid': 8.24}, {'imgObject': {}, 'id': 'rigatoni', 'src': '/static/foodstim60/rigatoni.jpg', 'key': 'i', 'origWidth': 411, 'origHeight': 411, 'width': 345.15000000000003, 'height': 345.15000000000003, 'widthPercent': 0.45, 'rescaleHeight': False, 'trialN': 72, 'loaded': True, 'loadedTime': 2432.5999999940395, 'positionName': 'RIGHT', 'positionCoords': [398.84, 195.5], 'bid': 6.55}]",117292.69999998808,1669834527656,ice cream sundae 002,rigatoni,8.24,6.55,-1.6900000000000004,rigatoni,823.3000000119209,824,823.5999999940395,True,i,118631.59999999404,1338.9000000059605,1669834528995,1339,,HRV,HRV_0236,2022-11-30 18:58:53
73,"[{'imgObject': {}, 'id': 'rigatoni and sauce', 'src': '/static/foodstim60/rigatoni and sauce.jpg', 'key': 'u', 'origWidth': 410, 'origHeight': 411, 'width': 345.15000000000003, 'height': 345.9918292682927, 'widthPercent': 0.45, 'rescaleHeight': False, 'trialN': 73, 'loaded': True, 'loadedTime': 2572.4000000059605, 'positionName': 'LEFT', 'positionCoords': [23.16, 195.5], 'bid': 8.24}, {'imgObject': {}, 'id': 'chicken nuggets2', 'src': '/static/foodstim60/chicken nuggets2.jpg', 'key': 'i', 'origWidth': 410, 'origHeight': 409, 'width': 345.15000000000003, 'height': 344.3081707317073, 'widthPercent': 0.45, 'rescaleHeight': False, 'trialN': 73, 'loaded': True, 'loadedTime': 2214.4000000059605, 'positionName': 'RIGHT', 'positionCoords': [398.84, 196], 'bid': 9.39}]",118631.90000000596,1669834528996,rigatoni and sauce,chicken nuggets2,8.24,9.39,1.1500000000000004,chicken nuggets2,885.7999999821186,886,886.1999999880791,True,i,120029.59999999404,1397.699999988079,1669834530393,1397,,HRV,HRV_0236,2022-11-30 18:58:53
74,"[{'imgObject': {}, 'id': 'fried eggs', 'src': '/static/foodstim60/fried eggs.jpg', 'key': 'u', 'origWidth': 410, 'origHeight': 410, 'width': 345.15000000000003, 'height': 345.15000000000003, 'widthPercent': 0.45, 'rescaleHeight': False, 'trialN': 74, 'loaded': True, 'loadedTime': 2405.0999999940395, 'positionName': 'LEFT', 'positionCoords': [23.16, 195.5], 'bid': 7.25}, {'imgObject': {}, 'id': 'sweetpotato', 'src': '/static/foodstim60/sweetpotato.jpg', 'key': 'i', 'origWidth': 410, 'origHeight': 410, 'width': 345.15000000000003, 'height': 345.15000000000003, 'widthPercent': 0.45, 'rescaleHeight': False, 'trialN': 74, 'loaded': True, 'loadedTime': 2545.5, 'positionName': 'RIGHT', 'positionCoords': [398.84, 195.5], 'bid': 2.3000000000000003}]",120029.90000000596,1669834530394,fried eggs,sweetpotato,7.25,2.3000000000000003,-4.949999999999999,fried eggs,1054.5,1054,1054.7999999821186,True,u,121599.5,1569.5999999940395,1669834531963,1569,,HRV,HRV_0236,2022-11-30 18:58:53
75,"[{'imgObject': {}, 'id': 'chickenfingers', 'src': '/static/foodstim60/chickenfingers.jpg', 'key': 'u', 'origWidth': 410, 'origHeight': 410, 'width': 345.15000000000003, 'height': 345.15000000000003, 'widthPercent': 0.45, 'rescaleHeight': False, 'trialN': 75, 'loaded': True, 'loadedTime': 2302.699999988079, 'positionName': 'LEFT', 'positionCoords': [23.16, 195.5], 'bid': 9.31}, {'imgObject': {}, 'id': 'hotdog w must', 'src': '/static/foodstim60/hotdog w must.jpg', 'key': 'i', 'origWidth': 409, 'origHeight': 409, 'width': 345.15000000000003, 'height': 345.15000000000003, 'widthPercent': 0.45, 'rescaleHeight': False, 'trialN': 75, 'loaded': True, 'loadedTime': 2319.9000000059605, 'positionName': 'RIGHT', 'positionCoords': [398.84, 195.5], 'bid': 7.75}]",121599.69999998808,1669834531963,chickenfingers,hotdog w must,9.31,7.75,-1.5600000000000005,chickenfingers,1277.0,1278,1277.4000000059605,True,u,123385.29999998212,1785.5999999940395,1669834533749,1786,,HRV,HRV_0236,2022-11-30 18:58:53
76,"[{'imgObject': {}, 'id': 'burger', 'src': '/static/foodstim60/burger.jpg', 'key': 'u', 'origWidth': 409, 'origHeight': 409, 'width': 345.15000000000003, 'height': 345.15000000000003, 'widthPercent': 0.45, 'rescaleHeight': False, 'trialN': 76, 'loaded': True, 'loadedTime': 2180.9000000059605, 'positionName': 'LEFT', 'positionCoords': [23.16, 195.5], 'bid': 1.46}, {'imgObject': {}, 'id': 'yogurt no spoon', 'src': '/static/foodstim60/yogurt no spoon.jpg', 'key': 'i', 'origWidth': 411, 'origHeight': 410, 'width': 345.15000000000003, 'height': 344.31021897810217, 'widthPercent': 0.45, 'rescaleHeight': False, 'trialN': 76, 'loaded': True, 'loadedTime': 2339.5, 'positionName': 'RIGHT', 'positionCoords': [398.84, 196], 'bid': 2.82}]",123385.59999999404,1669834533749,burger,yogurt no spoon,1.46,2.82,1.3599999999999999,burger,1738.4000000059605,1739,1738.699999988079,True,u,125636.19999998808,2250.5999999940395,1669834536000,2251,,HRV,HRV_0236,2022-11-30 18:58:53
77,"[{'imgObject': {}, 'id': 'rigatoni', 'src': '/static/foodstim60/rigatoni.jpg', 'key': 'u', 'origWidth': 411, 'origHeight': 411, 'width': 345.15000000000003, 'height': 345.15000000000003, 'widthPercent': 0.45, 'rescaleHeight': False, 'trialN': 77, 'loaded': True, 'loadedTime': 2431.4000000059605, 'positionName': 'LEFT', 'positionCoords': [23.16, 195.5], 'bid': 6.55}, {'imgObject': {}, 'id': 'grilled chicken strips', 'src': '/static/foodstim60/grilled chicken strips.jpg', 'key': 'i', 'origWidth': 410, 'origHeight': 411, 'width': 345.15000000000003, 'height': 345.9918292682927, 'widthPercent': 0.45, 'rescaleHeight': False, 'trialN': 77, 'loaded': True, 'loadedTime': 2533.199999988079, 'positionName': 'RIGHT', 'positionCoords': [398.84, 195.5], 'bid': 5.01}]",125636.5,1669834536000,rigatoni,grilled chicken strips,6.55,5.01,-1.54,grilled chicken strips,554.4000000059605,555,555.0,True,i,126707.40000000596,1070.9000000059605,1669834537071,1071,,HRV,HRV_0236,2022-11-30 18:58:53
78,"[{'imgObject': {}, 'id': 'froot loops w milk', 'src': '/static/foodstim60/froot loops w milk.jpg', 'key': 'u', 'origWidth': 410, 'origHeight': 410, 'width': 345.15000000000003, 'height': 345.15000000000003, 'widthPercent': 0.45, 'rescaleHeight': False, 'trialN': 78, 'loaded': True, 'loadedTime': 2585.699999988079, 'positionName': 'LEFT', 'positionCoords': [23.16, 195.5], 'bid': 7.67}, {'imgObject': {}, 'id': 'yogurt no spoon', 'src': '/static/foodstim60/yogurt no spoon.jpg', 'key': 'i', 'origWidth': 411, 'origHeight': 410, 'width': 345.15000000000003, 'height': 344.31021897810217, 'widthPercent': 0.45, 'rescaleHeight': False, 'trialN': 78, 'loaded': True, 'loadedTime': 2339.699999988079, 'positionName': 'RIGHT', 'positionCoords': [398.84, 196], 'bid': 2.82}]",126707.59999999404,1669834537071,froot loops w milk,yogurt no spoon,7.67,2.82,-4.85,yogurt no spoon,1449.5,1450,1450.199999988079,True,i,128667.29999998212,1959.699999988079,1669834539031,1960,,HRV,HRV_0236,2022-11-30 18:58:53
79,"[{'imgObject': {}, 'id': 'cherries', 'src': '/static/foodstim60/cherries.jpg', 'key': 'u', 'origWidth': 410, 'origHeight': 411, 'width': 345.15000000000003, 'height': 345.9918292682927, 'widthPercent': 0.45, 'rescaleHeight': False, 'trialN': 79, 'loaded': True, 'loadedTime': 2219.5999999940395, 'positionName': 'LEFT', 'positionCoords': [23.16, 195.5], 'bid': 2.71}, {'imgObject': {}, 'id': 'banana', 'src': '/static/foodstim60/banana.jpg', 'key': 'i', 'origWidth': 410, 'origHeight': 410, 'width': 345.15000000000003, 'height': 345.15000000000003, 'widthPercent': 0.45, 'rescaleHeight': False, 'trialN': 79, 'loaded': True, 'loadedTime': 2219.9000000059605, 'positionName': 'RIGHT', 'positionCoords': [398.84, 195.5], 'bid': 3.47}]",128667.59999999404,1669834539031,cherries,banana,2.71,3.47,0.7600000000000002,banana,1618.699999988079,1620,1619.699999988079,True,i,130798.0,2130.4000000059605,1669834541162,2131,,HRV,HRV_0236,2022-11-30 18:58:53
80,"[{'imgObject': {}, 'id': 'hashbrowns', 'src': '/static/foodstim60/hashbrowns.jpg', 'key': 'u', 'origWidth': 411, 'origHeight': 410, 'width': 345.15000000000003, 'height': 344.31021897810217, 'widthPercent': 0.45, 'rescaleHeight': False, 'trialN': 80, 'loaded': True, 'loadedTime': 2581.5999999940395, 'positionName': 'LEFT', 'positionCoords': [23.16, 196], 'bid': 1.93}, {'imgObject': {}, 'id': 'corn cob', 'src': '/static/foodstim60/corn cob.jpg', 'key': 'i', 'origWidth': 411, 'origHeight': 411, 'width': 345.15000000000003, 'height': 345.15000000000003, 'widthPercent': 0.45, 'rescaleHeight': False, 'trialN': 80, 'loaded': True, 'loadedTime': 2283.5, 'positionName': 'RIGHT', 'positionCoords': [398.84, 195.5], 'bid': 1.88}]",130798.19999998808,1669834541162,hashbrowns,corn cob,1.93,1.88,-0.050000000000000044,corn cob,1135.800000011921,1136,1136.4000000059605,True,i,132445.79999998212,1647.5999999940395,1669834542810,1648,,HRV,HRV_0236,2022-11-30 18:58:53
81,"[{'imgObject': {}, 'id': 'fruitsalad', 'src': '/static/foodstim60/fruitsalad.jpg', 'key': 'u', 'origWidth': 410, 'origHeight': 410, 'width': 345.15000000000003, 'height': 345.15000000000003, 'widthPercent': 0.45, 'rescaleHeight': False, 'trialN': 81, 'loaded': True, 'loadedTime': 2589.7999999821186, 'positionName': 'LEFT', 'positionCoords': [23.16, 195.5], 'bid': 6.16}, {'imgObject': {}, 'id': 'blackbeanswithrice', 'src': '/static/foodstim60/blackbeanswithrice.jpg', 'key': 'i', 'origWidth': 410, 'origHeight': 410, 'width': 345.15000000000003, 'height': 345.15000000000003, 'widthPercent': 0.45, 'rescaleHeight': False, 'trialN': 81, 'loaded': True, 'loadedTime': 2502.2999999821186, 'positionName': 'RIGHT', 'positionCoords': [398.84, 195.5], 'bid': 0.76}]",132446.19999998808,1669834542810,fruitsalad,blackbeanswithrice,6.16,0.76,-5.4,fruitsalad,1224.5,1225,1224.800000011921,True,u,134186.69999998808,1740.5,1669834544551,1741,,HRV,HRV_0236,2022-11-30 18:58:53
82,"[{'imgObject': {}, 'id': 'turkeysandwich', 'src': '/static/foodstim60/turkeysandwich.jpg', 'key': 'u', 'origWidth': 409, 'origHeight': 409, 'width': 345.15000000000003, 'height': 345.15000000000003, 'widthPercent': 0.45, 'rescaleHeight': False, 'trialN': 82, 'loaded': True, 'loadedTime': 2364, 'positionName': 'LEFT', 'positionCoords': [23.16, 195.5], 'bid': 5.84}, {'imgObject': {}, 'id': 'cherries', 'src': '/static/foodstim60/cherries.jpg', 'key': 'i', 'origWidth': 410, 'origHeight': 411, 'width': 345.15000000000003, 'height': 345.9918292682927, 'widthPercent': 0.45, 'rescaleHeight': False, 'trialN': 82, 'loaded': True, 'loadedTime': 2219.7999999821186, 'positionName': 'RIGHT', 'positionCoords': [398.84, 195.5], 'bid': 2.71}]",134186.90000000596,1669834544551,turkeysandwich,cherries,5.84,2.71,-3.13,turkeysandwich,794.6999999880791,795,795.1999999880791,True,u,135492.5,1305.5999999940395,1669834545857,1306,,HRV,HRV_0236,2022-11-30 18:58:53
83,"[{'imgObject': {}, 'id': 'steak', 'src': '/static/foodstim60/steak.jpg', 'key': 'u', 'origWidth': 410, 'origHeight': 410, 'width': 345.15000000000003, 'height': 345.15000000000003, 'widthPercent': 0.45, 'rescaleHeight': False, 'trialN': 83, 'loaded': True, 'loadedTime': 2383.699999988079, 'positionName': 'LEFT', 'positionCoords': [23.16, 195.5], 'bid': 8.53}, {'imgObject': {}, 'id': 'tacos', 'src': '/static/foodstim60/tacos.jpg', 'key': 'i', 'origWidth': 411, 'origHeight': 411, 'width': 345.15000000000003, 'height': 345.15000000000003, 'widthPercent': 0.45, 'rescaleHeight': False, 'trialN': 83, 'loaded': True, 'loadedTime': 2586.9000000059605, 'positionName': 'RIGHT', 'positionCoords': [398.84, 195.5], 'bid': 9.05}]",135492.90000000596,1669834545857,steak,tacos,8.53,9.05,0.5200000000000014,steak,629.5999999940395,630,630.1999999880791,True,u,136633.69999998808,1140.7999999821186,1669834546998,1141,,HRV,HRV_0236,2022-11-30 18:58:53
84,"[{'imgObject': {}, 'id': 'raspberries', 'src': '/static/foodstim60/raspberries.jpg', 'key': 'u', 'origWidth': 411, 'origHeight': 411, 'width': 345.15000000000003, 'height': 345.15000000000003, 'widthPercent': 0.45, 'rescaleHeight': False, 'trialN': 84, 'loaded': True, 'loadedTime': 2343.0999999940395, 'positionName': 'LEFT', 'positionCoords': [23.16, 195.5], 'bid': 2.61}, {'imgObject': {}, 'id': 'blueberries', 'src': '/static/foodstim60/blueberries.jpg', 'key': 'i', 'origWidth': 411, 'origHeight': 411, 'width': 345.15000000000003, 'height': 345.15000000000003, 'widthPercent': 0.45, 'rescaleHeight': False, 'trialN': 84, 'loaded': True, 'loadedTime': 2381.699999988079, 'positionName': 'RIGHT', 'positionCoords': [398.84, 195.5], 'bid': 7.51}]",136634.0,1669834546998,raspberries,blueberries,2.61,7.51,4.9,blueberries,945.7999999821186,947,946.5,True,i,138095.29999998212,1461.2999999821186,1669834548459,1461,,HRV,HRV_0236,2022-11-30 18:58:53
85,"[{'imgObject': {}, 'id': 'rigatoni and sauce', 'src': '/static/foodstim60/rigatoni and sauce.jpg', 'key': 'u', 'origWidth': 410, 'origHeight': 411, 'width': 345.15000000000003, 'height': 345.9918292682927, 'widthPercent': 0.45, 'rescaleHeight': False, 'trialN': 85, 'loaded': True, 'loadedTime': 2572.7999999821186, 'positionName': 'LEFT', 'positionCoords': [23.16, 195.5], 'bid': 8.24}, {'imgObject': {}, 'id': 'lox', 'src': '/static/foodstim60/lox.jpg', 'key': 'i', 'origWidth': 410, 'origHeight': 411, 'width': 345.15000000000003, 'height': 345.9918292682927, 'widthPercent': 0.45, 'rescaleHeight': False, 'trialN': 85, 'loaded': True, 'loadedTime': 2551, 'positionName': 'RIGHT', 'positionCoords': [398.84, 195.5], 'bid': 6.83}]",138095.69999998808,1669834548460,rigatoni and sauce,lox,8.24,6.83,-1.4100000000000001,lox,1026.0999999940395,1026,1026.4000000059605,True,i,139635.0,1539.300000011921,1669834549999,1539,,HRV,HRV_0236,2022-11-30 18:58:53
86,"[{'imgObject': {}, 'id': 'strawberries', 'src': '/static/foodstim60/strawberries.jpg', 'key': 'u', 'origWidth': 410, 'origHeight': 410, 'width': 345.15000000000003, 'height': 345.15000000000003, 'widthPercent': 0.45, 'rescaleHeight': False, 'trialN': 86, 'loaded': True, 'loadedTime': 2571.0999999940395, 'positionName': 'LEFT', 'positionCoords': [23.16, 195.5], 'bid': 7.69}, {'imgObject': {}, 'id': 'roastedpotatoes', 'src': '/static/foodstim60/roastedpotatoes.jpg', 'key': 'i', 'origWidth': 409, 'origHeight': 410, 'width': 345.15000000000003, 'height': 345.9938875305624, 'widthPercent': 0.45, 'rescaleHeight': False, 'trialN': 86, 'loaded': True, 'loadedTime': 2318.9000000059605, 'positionName': 'RIGHT', 'positionCoords': [398.84, 195.5], 'bid': 8.03}]",139635.40000000596,1669834550000,strawberries,roastedpotatoes,7.69,8.03,0.33999999999999897,roastedpotatoes,893.0,894,894.0,True,i,141034.5,1399.0999999940395,1669834551399,1399,,HRV,HRV_0236,2022-11-30 18:58:53
87,"[{'imgObject': {}, 'id': 'veggieswithdip', 'src': '/static/foodstim60/veggieswithdip.jpg', 'key': 'u', 'origWidth': 409, 'origHeight': 409, 'width': 345.15000000000003, 'height': 345.15000000000003, 'widthPercent': 0.45, 'rescaleHeight': False, 'trialN': 87, 'loaded': True, 'loadedTime': 2547.4000000059605, 'positionName': 'LEFT', 'positionCoords': [23.16, 195.5], 'bid': 4.12}, {'imgObject': {}, 'id': 'shreddedwheatwithmilk', 'src': '/static/foodstim60/shreddedwheatwithmilk.jpg', 'key': 'i', 'origWidth': 410, 'origHeight': 410, 'width': 345.15000000000003, 'height': 345.15000000000003, 'widthPercent': 0.45, 'rescaleHeight': False, 'trialN': 87, 'loaded': True, 'loadedTime': 2506, 'positionName': 'RIGHT', 'positionCoords': [398.84, 195.5], 'bid': 3.94}]",141034.69999998808,1669834551399,veggieswithdip,shreddedwheatwithmilk,4.12,3.94,-0.18000000000000016,veggieswithdip,1269.4000000059605,1270,1269.9000000059605,True,u,142817.29999998212,1782.5999999940395,1669834553181,1782,,HRV,HRV_0236,2022-11-30 18:58:53
88,"[{'imgObject': {}, 'id': 'cocktailshrimp', 'src': '/static/foodstim60/cocktailshrimp.jpg', 'key': 'u', 'origWidth': 410, 'origHeight': 410, 'width': 345.15000000000003, 'height': 345.15000000000003, 'widthPercent': 0.45, 'rescaleHeight': False, 'trialN': 88, 'loaded': True, 'loadedTime': 2500.5999999940395, 'positionName': 'LEFT', 'positionCoords': [23.16, 195.5], 'bid': 9.62}, {'imgObject': {}, 'id': 'avocado', 'src': '/static/foodstim60/avocado.jpg', 'key': 'i', 'origWidth': 409, 'origHeight': 409, 'width': 345.15000000000003, 'height': 345.15000000000003, 'widthPercent': 0.45, 'rescaleHeight': False, 'trialN': 88, 'loaded': True, 'loadedTime': 2267.4000000059605, 'positionName': 'RIGHT', 'positionCoords': [398.84, 195.5], 'bid': 8.16}]",142817.5,1669834553182,cocktailshrimp,avocado,9.62,8.16,-1.459999999999999,cocktailshrimp,869.0999999940395,869,869.4000000059605,True,u,144194.0,1376.5,1669834554558,1376,,HRV,HRV_0236,2022-11-30 18:58:53
89,"[{'imgObject': {}, 'id': 'mashed potato', 'src': '/static/foodstim60/mashed potato.jpg', 'key': 'u', 'origWidth': 409, 'origHeight': 409, 'width': 345.15000000000003, 'height': 345.15000000000003, 'widthPercent': 0.45, 'rescaleHeight': False, 'trialN': 89, 'loaded': True, 'loadedTime': 2504.2999999821186, 'positionName': 'LEFT', 'positionCoords': [23.16, 195.5], 'bid': 3.76}, {'imgObject': {}, 'id': 'seaweed', 'src': '/static/foodstim60/seaweed.jpg', 'key': 'i', 'origWidth': 410, 'origHeight': 410, 'width': 345.15000000000003, 'height': 345.15000000000003, 'widthPercent': 0.45, 'rescaleHeight': False, 'trialN': 89, 'loaded': True, 'loadedTime': 2524.5, 'positionName': 'RIGHT', 'positionCoords': [398.84, 195.5], 'bid': 3.63}]",144194.29999998212,1669834554558,mashed potato,seaweed,3.76,3.63,-0.1299999999999999,mashed potato,1169.1000000238419,1170,1169.5,True,u,145879.79999998212,1685.5,1669834556244,1686,,HRV,HRV_0236,2022-11-30 18:58:53
90,"[{'imgObject': {}, 'id': 'mango', 'src': '/static/foodstim60/mango.jpg', 'key': 'u', 'origWidth': 411, 'origHeight': 411, 'width': 411, 'height': 411, 'widthPercent': 0.45, 'rescaleHeight': False, 'trialN': 90, 'loaded': True, 'loadedTime': 169372.40000000596, 'positionName': 'LEFT', 'positionCoords': [326.28, 226.5], 'bid': 5.84}, {'imgObject': {}, 'id': 'chicken nuggets2', 'src': '/static/foodstim60/chicken nuggets2.jpg', 'key': 'i', 'origWidth': 410, 'origHeight': 409, 'width': 410, 'height': 409, 'widthPercent': 0.45, 'rescaleHeight': False, 'trialN': 90, 'loaded': True, 'loadedTime': 169378.40000000596, 'positionName': 'RIGHT', 'positionCoords': [798.72, 227.5], 'bid': 9.39}]",169353.09999999404,1669834579717,mango,chicken nuggets2,5.84,9.39,3.5500000000000007,chicken nuggets2,2075.800000011921,2076,2076.4000000059605,True,i,171930.5,2577.4000000059605,1669834582295,2578,"[{'event': 'fullscreenchange', 'details': 'fullscreenenter', 'performance time': 169365.29999998212, 'date time': 1669834579729}, {'event': 'fullscreenchange', 'details': 'fullscreenexit', 'performance time': 170528.79999998212, 'date time': 1669834580893}]",HRV,HRV_0236,2022-11-30 18:58:53
91,"[{'imgObject': {}, 'id': 'chickenfingers', 'src': '/static/foodstim60/chickenfingers.jpg', 'key': 'u', 'origWidth': 410, 'origHeight': 410, 'width': 345.15000000000003, 'height': 345.15000000000003, 'widthPercent': 0.45, 'rescaleHeight': False, 'trialN': 91, 'loaded': True, 'loadedTime': 2302.5, 'positionName': 'LEFT', 'positionCoords': [23.16, 195.5], 'bid': 9.31}, {'imgObject': {}, 'id': 'chicken nuggets2', 'src': '/static/foodstim60/chicken nuggets2.jpg', 'key': 'i', 'origWidth': 410, 'origHeight': 409, 'width': 345.15000000000003, 'height': 344.3081707317073, 'widthPercent': 0.45, 'rescaleHeight': False, 'trialN': 91, 'loaded': True, 'loadedTime': 2196.9000000059605, 'positionName': 'RIGHT', 'positionCoords': [398.84, 196], 'bid': 9.39}]",171930.79999998212,1669834582295,chickenfingers,chicken nuggets2,9.31,9.39,0.08000000000000007,chickenfingers,1538.7000000178814,1547,1547.5,True,u,174085.19999998808,2154.4000000059605,1669834584449,2154,,HRV,HRV_0236,2022-11-30 18:58:53
92,"[{'imgObject': {}, 'id': 'cheerios', 'src': '/static/foodstim60/cheerios.jpg', 'key': 'u', 'origWidth': 409, 'origHeight': 410, 'width': 345.15000000000003, 'height': 345.9938875305624, 'widthPercent': 0.45, 'rescaleHeight': False, 'trialN': 92, 'loaded': True, 'loadedTime': 2599.4000000059605, 'positionName': 'LEFT', 'positionCoords': [23.16, 195.5], 'bid': 4.93}, {'imgObject': {}, 'id': 'luckycharms', 'src': '/static/foodstim60/luckycharms.jpg', 'key': 'i', 'origWidth': 410, 'origHeight': 409, 'width': 345.15000000000003, 'height': 344.3081707317073, 'widthPercent': 0.45, 'rescaleHeight': False, 'trialN': 92, 'loaded': True, 'loadedTime': 2469.7999999821186, 'positionName': 'RIGHT', 'positionCoords': [398.84, 196], 'bid': 5.95}]",174085.40000000596,1669834584450,cheerios,luckycharms,4.93,5.95,1.0200000000000005,luckycharms,1054.5999999940395,1055,1055.8999999761581,True,i,175648.09999999404,1562.699999988079,1669834586012,1562,,HRV,HRV_0236,2022-11-30 18:58:53
93,"[{'imgObject': {}, 'id': 'bagel plain', 'src': '/static/foodstim60/bagel plain.jpg', 'key': 'u', 'origWidth': 410, 'origHeight': 410, 'width': 345.15000000000003, 'height': 345.15000000000003, 'widthPercent': 0.45, 'rescaleHeight': False, 'trialN': 93, 'loaded': True, 'loadedTime': 2548.9000000059605, 'positionName': 'LEFT', 'positionCoords': [23.16, 195.5], 'bid': 5.87}, {'imgObject': {}, 'id': 'orange slices', 'src': '/static/foodstim60/orange slices.jpg', 'key': 'i', 'origWidth': 409, 'origHeight': 410, 'width': 345.15000000000003, 'height': 345.9938875305624, 'widthPercent': 0.45, 'rescaleHeight': False, 'trialN': 93, 'loaded': True, 'loadedTime': 2472.5999999940395, 'positionName': 'RIGHT', 'positionCoords': [398.84, 195.5], 'bid': 6.1000000000000005}]",175648.29999998212,1669834586012,bagel plain,orange slices,5.87,6.1000000000000005,0.23000000000000043,orange slices,1581.0,1582,1581.800000011921,True,i,177738.29999998212,2090.0,1669834588102,2090,,HRV,HRV_0236,2022-11-30 18:58:53
94,"[{'imgObject': {}, 'id': 'salad w chicken', 'src': '/static/foodstim60/salad w chicken.jpg', 'key': 'u', 'origWidth': 411, 'origHeight': 411, 'width': 345.15000000000003, 'height': 345.15000000000003, 'widthPercent': 0.45, 'rescaleHeight': False, 'trialN': 94, 'loaded': True, 'loadedTime': 2573, 'positionName': 'LEFT', 'positionCoords': [23.16, 195.5], 'bid': 7.54}, {'imgObject': {}, 'id': 'eggsalad', 'src': '/static/foodstim60/eggsalad.jpg', 'key': 'i', 'origWidth': 410, 'origHeight': 409, 'width': 345.15000000000003, 'height': 344.3081707317073, 'widthPercent': 0.45, 'rescaleHeight': False, 'trialN': 94, 'loaded': True, 'loadedTime': 2298.9000000059605, 'positionName': 'RIGHT', 'positionCoords': [398.84, 196], 'bid': 7.46}]",177738.40000000596,1669834588102,salad w chicken,eggsalad,7.54,7.46,-0.08000000000000007,salad w chicken,2126.399999976158,2127,2127.0,True,u,180376.29999998212,2637.899999976158,1669834590740,2638,,HRV,HRV_0236,2022-11-30 18:58:53
95,"[{'imgObject': {}, 'id': 'yogurt no spoon', 'src': '/static/foodstim60/yogurt no spoon.jpg', 'key': 'u', 'origWidth': 411, 'origHeight': 410, 'width': 345.15000000000003, 'height': 344.31021897810217, 'widthPercent': 0.45, 'rescaleHeight': False, 'trialN': 95, 'loaded': True, 'loadedTime': 2338.2999999821186, 'positionName': 'LEFT', 'positionCoords': [23.16, 196], 'bid': 2.82}, {'imgObject': {}, 'id': 'banana', 'src': '/static/foodstim60/banana.jpg', 'key': 'i', 'origWidth': 410, 'origHeight': 410, 'width': 345.15000000000003, 'height': 345.15000000000003, 'widthPercent': 0.45, 'rescaleHeight': False, 'trialN': 95, 'loaded': True, 'loadedTime': 2231.7999999821186, 'positionName': 'RIGHT', 'positionCoords': [398.84, 195.5], 'bid': 3.47}]",180377.19999998808,1669834590741,yogurt no spoon,banana,2.82,3.47,0.6500000000000004,banana,2148.5999999940395,2150,2149.5999999940395,True,i,183048.09999999404,2670.9000000059605,1669834593412,2671,,HRV,HRV_0236,2022-11-30 18:58:53
96,"[{'imgObject': {}, 'id': 'chicken nuggets2', 'src': '/static/foodstim60/chicken nuggets2.jpg', 'key': 'u', 'origWidth': 410, 'origHeight': 409, 'width': 345.15000000000003, 'height': 344.3081707317073, 'widthPercent': 0.45, 'rescaleHeight': False, 'trialN': 96, 'loaded': True, 'loadedTime': 2197.2999999821186, 'positionName': 'LEFT', 'positionCoords': [23.16, 196], 'bid': 9.39}, {'imgObject': {}, 'id': 'blueberries', 'src': '/static/foodstim60/blueberries.jpg', 'key': 'i', 'origWidth': 411, 'origHeight': 411, 'width': 345.15000000000003, 'height': 345.15000000000003, 'widthPercent': 0.45, 'rescaleHeight': False, 'trialN': 96, 'loaded': True, 'loadedTime': 2381.7999999821186, 'positionName': 'RIGHT', 'positionCoords': [398.84, 195.5], 'bid': 7.51}]",183048.5,1669834593413,chicken nuggets2,blueberries,9.39,7.51,-1.8800000000000008,chicken nuggets2,1483.699999988079,1484,1484.699999988079,True,u,185049.0,2000.5,1669834595413,2000,,HRV,HRV_0236,2022-11-30 18:58:53
97,"[{'imgObject': {}, 'id': 'pear', 'src': '/static/foodstim60/pear.jpg', 'key': 'u', 'origWidth': 411, 'origHeight': 410, 'width': 345.15000000000003, 'height': 344.31021897810217, 'widthPercent': 0.45, 'rescaleHeight': False, 'trialN': 97, 'loaded': True, 'loadedTime': 2531.5, 'positionName': 'LEFT', 'positionCoords': [23.16, 196], 'bid': 4.88}, {'imgObject': {}, 'id': 'steak', 'src': '/static/foodstim60/steak.jpg', 'key': 'i', 'origWidth': 410, 'origHeight': 410, 'width': 345.15000000000003, 'height': 345.15000000000003, 'widthPercent': 0.45, 'rescaleHeight': False, 'trialN': 97, 'loaded': True, 'loadedTime': 2383.9000000059605, 'positionName': 'RIGHT', 'positionCoords': [398.84, 195.5], 'bid': 8.53}]",185049.59999999404,1669834595414,pear,steak,4.88,8.53,3.6499999999999995,steak,778.5999999940395,779,779.6999999880791,True,i,186339.69999998808,1290.0999999940395,1669834596704,1290,,HRV,HRV_0236,2022-11-30 18:58:53
98,"[{'imgObject': {}, 'id': 'turkey sandwich', 'src': '/static/foodstim60/turkey sandwich.jpg', 'key': 'u', 'origWidth': 409, 'origHeight': 409, 'width': 345.15000000000003, 'height': 345.15000000000003, 'widthPercent': 0.45, 'rescaleHeight': False, 'trialN': 98, 'loaded': True, 'loadedTime': 2469.699999988079, 'positionName': 'LEFT', 'positionCoords': [23.16, 195.5], 'bid': 7.46}, {'imgObject': {}, 'id': 'cherry tomato', 'src': '/static/foodstim60/cherry tomato.jpg', 'key': 'i', 'origWidth': 410, 'origHeight': 410, 'width': 345.15000000000003, 'height': 345.15000000000003, 'widthPercent': 0.45, 'rescaleHeight': False, 'trialN': 98, 'loaded': True, 'loadedTime': 2252.5999999940395, 'positionName': 'RIGHT', 'positionCoords': [398.84, 195.5], 'bid': 2.48}]",186340.09999999404,1669834596704,turkey sandwich,cherry tomato,7.46,2.48,-4.98,turkey sandwich,825.9000000059605,827,826.8000000119209,True,u,187678.29999998212,1338.199999988079,1669834598042,1338,,HRV,HRV_0236,2022-11-30 18:58:53
99,"[{'imgObject': {}, 'id': 'turkeysandwich', 'src': '/static/foodstim60/turkeysandwich.jpg', 'key': 'u', 'origWidth': 409, 'origHeight': 409, 'width': 345.15000000000003, 'height': 345.15000000000003, 'widthPercent': 0.45, 'rescaleHeight': False, 'trialN': 99, 'loaded': True, 'loadedTime': 2364.0999999940395, 'positionName': 'LEFT', 'positionCoords': [23.16, 195.5], 'bid': 5.84}, {'imgObject': {}, 'id': 'luckycharms', 'src': '/static/foodstim60/luckycharms.jpg', 'key': 'i', 'origWidth': 410, 'origHeight': 409, 'width': 345.15000000000003, 'height': 344.3081707317073, 'widthPercent': 0.45, 'rescaleHeight': False, 'trialN': 99, 'loaded': True, 'loadedTime': 2471.5, 'positionName': 'RIGHT', 'positionCoords': [398.84, 196], 'bid': 5.95}]",187678.69999998808,1669834598043,turkeysandwich,luckycharms,5.84,5.95,0.11000000000000032,turkeysandwich,839.0,840,840.3000000119209,True,u,189027.69999998808,1349.0,1669834599392,1349,,HRV,HRV_0236,2022-11-30 18:58:53
100,"[{'imgObject': {}, 'id': 'ice cream sundae 002', 'src': '/static/foodstim60/ice cream sundae 002.jpg', 'key': 'u', 'origWidth': 409, 'origHeight': 409, 'width': 345.15000000000003, 'height': 345.15000000000003, 'widthPercent': 0.45, 'rescaleHeight': False, 'trialN': 100, 'loaded': True, 'loadedTime': 2465.2999999821186, 'positionName': 'LEFT', 'positionCoords': [23.16, 195.5], 'bid': 8.24}, {'imgObject': {}, 'id': 'Grapes', 'src': '/static/foodstim60/Grapes.jpg', 'key': 'i', 'origWidth': 411, 'origHeight': 411, 'width': 345.15000000000003, 'height': 345.15000000000003, 'widthPercent': 0.45, 'rescaleHeight': False, 'trialN': 100, 'loaded': True, 'loadedTime': 2380, 'positionName': 'RIGHT', 'positionCoords': [398.84, 195.5], 'bid': 4.64}]",189028.0,1669834599392,ice cream sundae 002,Grapes,8.24,4.64,-3.6000000000000005,ice cream sundae 002,1606.7999999821186,1608,1607.5999999940395,True,u,191138.59999999404,2110.5999999940395,1669834601503,2111,,HRV,HRV_0236,2022-11-30 18:58:53
