success,trial_type,trial_index,time_elapsed,internal_node_id,Block,TrialNumber,TrialTime,trialTimeDiff,FPS_avg,FPS_med,FPS_mode,TrialDur,winResizeTime,missTrial,missTrialMsg,rt,block,button_pressed,MotCoh,MotDir,ColCoh,Color,ChoiceKey,Choice,Accuracy,RT,nFrames,FPS,PPD,onsetDelay,fullScreenExitTime,canvCenter,TrialType,Score,BlockTrial,stimulus,button_labels,exp,subjectId,date
True,fullscreen,0,2033,0.0-0.0,0.0,1.0,,,,,,,,,,,,,,,,,,,,,,,,,,,,,,,,HRV,HRV_0236,2022-11-30 19:24:23
,wl-check-fps,1,23658,0.0-1.0,0.0,1.0,"[18899.5, 18907.6, 18924.8, 18945.4, 18959.5, 18978.3, 18995.4, 19009.5, 19024.1, 19044.7, 19057.7, 19074.8, 19093.7, 19108.5, 19125.7, 19143.2, 19158.5, 19175.5, 19193.2, 19209.4, 19225.3, 19243.8, 19257.6, 19274.1, 19291.4, 19307.5, 19324, 19343.9, 19358.9, 19376.3, 19394, 19407.8, 19425.5, 19441.3, 19457.5, 19476.6, 19493, 19507.6, 19526.1, 19541.4, 19557.5, 19574.4, 19591.6, 19607.4, 19624.3, 19641.7, 19657.5, 19674.3, 19692.2, 19707.9, 19724.2, 19742.2, 19758, 19774.1, 19791.3, 19807.5, 19824.3, 19841.7, 19857.7, 19874.4, 19892.2, 19908.7, 19924.1, 19943.3, 19957.9, 19974.5, 19991, 20007.4, 20023.7, 20040.7, 20057.1, 20074.1, 20091.3, 20108.5, 20125.9, 20143.2, 20159.4, 20175.9, 20193.2, 20209.1, 20225.6, 20243.8, 20259, 20277.9, 20294.1, 20308.6, 20324.7, 20341.3, 20358.5, 20375.5, 20393.9, 20407.8, 20424.4, 20441.4, 20457.8, 20476, 20491.7, 20507.8, 20524.5, 20541.3, 20557.9, 20574.9, 20592, 20607.8, 20624.7, 20642.5, 20658.3, 20674.6, 20691.7, 20708.1, 20724.5, 20741.6, 20759.2, 20774.7, 20791.1, 20808.2, 20824.1, 20840.9, 20857.8, 20874.7, 20891.2, 20908.8, 20924.2, 20941.2, 20958.2, 20974.4, 20992, 21007.9, 21024.4, 21041.1, 21057.8, 21074.4, 21090.8, 21107.7, 21124.6, 21141.8, 21158.4, 21174.9, 21191.8, 21208.1, 21224.9, 21241.8, 21258.2, 21275.1, 21291.3, 21308.3, 21324.9, 21341.5, 21358.1, 21374.6, 21391.4, 21407.9, 21425.1, 21441.9, 21458.1, 21475.5, 21491.7, 21508.6, 21525, 21541.7, 21558.2, 21575, 21591.6, 21608.7, 21625.3, 21641.9, 21658.2, 21675.1, 21692, 21708.1, 21724.9, 21741.8, 21757.9, 21774.6, 21791.4, 21808.3, 21825.1, 21841.6, 21858.5, 21875.2, 21891.7, 21908, 21924.9, 21942.2, 21958.2, 21974.9, 21992, 22010, 22025.1, 22041.4, 22058.5, 22074.8, 22091.5, 22108.2, 22124.9, 22141.9, 22158.6, 22175.4, 22191.9, 22208.6, 22225.8, 22242, 22258.5, 22275.3, 22292.3, 22308.5, 22325.2, 22342, 22358.5, 22375.4, 22392.1, 22408.6, 22425.4, 22442.1, 22458.7, 22475.6, 22492.1, 22508.6, 22525.4, 22542.2, 22559, 22575.6, 22592.4, 22609.5, 22625.5, 22642.2, 22662.6, 22679, 22691.9, 22709, 22725.6, 22742.4, 22759.1, 22775.6, 22792.3, 22809, 22825.4, 22841.9, 22859, 22875.8, 22893, 22908.9, 22926.9, 22947.2, 22959, 22976.4, 22992.2, 23009.6, 23028, 23041.6, 23058.9, 23075.1, 23091.9, 23108.8, 23125.5, 23142.4, 23159, 23175.9, 23192.4, 23210.2, 23225.9, 23242.8, 23258.9, 23275.6, 23292.3, 23308.8, 23325.4, 23342.4, 23359.3, 23375.8, 23392.6, 23409, 23425.7, 23442.5, 23458.9, 23476, 23492.3, 23509.1, 23525.6, 23542.5, 23559.1, 23576.5, 23592.4, 23609.1, 23625.8, 23642.4, 23658.9, 23675.6, 23692.2, 23709, 23725.4, 23742.4, 23758.9, 23775.7, 23792.2, 23808.7, 23825.6, 23842.4, 23859.2, 23876.1]","[0.9, 8.1, 17.2, 20.6, 14.1, 18.8, 17.1, 14.1, 14.6, 20.6, 13, 17.1, 18.9, 14.8, 17.2, 17.5, 15.3, 17, 17.7, 16.2, 15.9, 18.5, 13.8, 16.5, 17.3, 16.1, 16.5, 19.9, 15, 17.4, 17.7, 13.8, 17.7, 15.8, 16.2, 19.1, 16.4, 14.6, 18.5, 15.3, 16.1, 16.9, 17.2, 15.8, 16.9, 17.4, 15.8, 16.8, 17.9, 15.7, 16.3, 18, 15.8, 16.1, 17.2, 16.2, 16.8, 17.4, 16, 16.7, 17.8, 16.5, 15.4, 19.2, 14.6, 16.6, 16.5, 16.4, 16.3, 17, 16.4, 17, 17.2, 17.2, 17.4, 17.3, 16.2, 16.5, 17.3, 15.9, 16.5, 18.2, 15.2, 18.9, 16.2, 14.5, 16.1, 16.6, 17.2, 17, 18.4, 13.9, 16.6, 17, 16.4, 18.2, 15.7, 16.1, 16.7, 16.8, 16.6, 17, 17.1, 15.8, 16.9, 17.8, 15.8, 16.3, 17.1, 16.4, 16.4, 17.1, 17.6, 15.5, 16.4, 17.1, 15.9, 16.8, 16.9, 16.9, 16.5, 17.6, 15.4, 17, 17, 16.2, 17.6, 15.9, 16.5, 16.7, 16.7, 16.6, 16.4, 16.9, 16.9, 17.2, 16.6, 16.5, 16.9, 16.3, 16.8, 16.9, 16.4, 16.9, 16.2, 17, 16.6, 16.6, 16.6, 16.5, 16.8, 16.5, 17.2, 16.8, 16.2, 17.4, 16.2, 16.9, 16.4, 16.7, 16.5, 16.8, 16.6, 17.1, 16.6, 16.6, 16.3, 16.9, 16.9, 16.1, 16.8, 16.9, 16.1, 16.7, 16.8, 16.9, 16.8, 16.5, 16.9, 16.7, 16.5, 16.3, 16.9, 17.3, 16, 16.7, 17.1, 18, 15.1, 16.3, 17.1, 16.3, 16.7, 16.7, 16.7, 17, 16.7, 16.8, 16.5, 16.7, 17.2, 16.2, 16.5, 16.8, 17, 16.2, 16.7, 16.8, 16.5, 16.9, 16.7, 16.5, 16.8, 16.7, 16.6, 16.9, 16.5, 16.5, 16.8, 16.8, 16.8, 16.6, 16.8, 17.1, 16, 16.7, 20.4, 16.4, 12.9, 17.1, 16.6, 16.8, 16.7, 16.5, 16.7, 16.7, 16.4, 16.5, 17.1, 16.8, 17.2, 15.9, 18, 20.3, 11.8, 17.4, 15.8, 17.4, 18.4, 13.6, 17.3, 16.2, 16.8, 16.9, 16.7, 16.9, 16.6, 16.9, 16.5, 17.8, 15.7, 16.9, 16.1, 16.7, 16.7, 16.5, 16.6, 17, 16.9, 16.5, 16.8, 16.4, 16.7, 16.8, 16.4, 17.1, 16.3, 16.8, 16.5, 16.9, 16.6, 17.4, 15.9, 16.7, 16.7, 16.6, 16.5, 16.7, 16.6, 16.8, 16.4, 17, 16.5, 16.8, 16.5, 16.5, 16.9, 16.8, 16.8, 16.9]",60.0,60.0,61.0,4993.3,[],True,undefinedblurEvent ,,,,,,,,,,,,,,,,,,,,,,,HRV,HRV_0236,2022-11-30 19:24:23
,wl-html-keyboard-response,2,39064,0.0-2.0-0.0,0.0,2.0,,,,,,,,,,13399.200000017881,0.0,0,,,,,,,,,,,,,,,,,,,,HRV,HRV_0236,2022-11-30 19:24:23
,wl-rdm,3,45883,0.0-3.0-0.0,0.0,3.0,,,,,,,[],False,,,,,0.0,0.0,87.9,0.0,u,0.0,True,1243.9000000059605,75.0,61.0,40.0,3000.0,[],"[768, 432]",ColorTask_Demo,,,,,HRV,HRV_0236,2022-11-30 19:24:23
,wl-rdm,4,50666,0.0-3.0-1.0,0.0,4.0,,,,,,,[],False,,,,,0.0,0.0,87.9,1.0,i,1.0,True,727.5,44.0,61.0,40.0,2000.0,[],"[768, 432]",ColorTask_Demo,,,,,HRV,HRV_0236,2022-11-30 19:24:23
,wl-html-keyboard-response,5,54848,0.0-3.0-2.0,0.0,5.0,,,,,,,,,,2175.7999999821186,0.0,1,,,,,,,,,,,,,,,,,,,,HRV,HRV_0236,2022-11-30 19:24:23
,wl-html-keyboard-response,6,77215,0.0-4.0-0.0,0.0,5.0,,,,,,,,True,undefinedblurEvent ,20358.90000000596,0.0,0,,,,,,,,,,,,,,,,,,,,HRV,HRV_0236,2022-11-30 19:24:23
,wl-html-keyboard-response,7,86296,0.0-5.0-0.0,0.0,6.0,,,,,,,,,,7074.4000000059605,0.0,0,,,,,,,,,,,,,,,,,,,,HRV,HRV_0236,2022-11-30 19:24:23
,wl-rdm,8,88562,0.0-6.0-0.0,0.0,7.0,,,,,,,[],False,,,,,,,56.4,0.0,i,1.0,False,869.5,53.0,61.0,40.0,303.4802735359118,[],"[768, 432]",ColorTask,-1.0,1.0,,,HRV,HRV_0236,2022-11-30 19:24:23
,wl-rdm,9,91196,0.0-6.1-0.1,0.0,8.0,,,,,,,[],False,,,,,,,53.2,0.0,u,0.0,True,1346.5,81.0,61.0,40.0,231.10317835075134,[],"[768, 432]",ColorTask,0.0,2.0,,,HRV,HRV_0236,2022-11-30 19:24:23
,wl-rdm,10,93698,0.0-6.2-0.2,0.0,9.0,,,,,,,[],False,,,,,,,56.4,1.0,i,1.0,True,1076.9000000059605,65.0,61.0,40.0,350.29381596306456,[],"[768, 432]",ColorTask,1.0,3.0,,,HRV,HRV_0236,2022-11-30 19:24:23
,wl-rdm,11,96032,0.0-6.3-0.3,0.0,10.0,,,,,,,[],False,,,,,,,53.2,1.0,u,0.0,False,957.4000000059605,58.0,61.0,40.0,300.1895111700428,[],"[768, 432]",ColorTask,0.0,4.0,,,HRV,HRV_0236,2022-11-30 19:24:23
,wl-rdm,12,97982,0.0-6.4-0.4,0.0,11.0,,,,,,,[],False,,,,,,,73.6,1.0,i,1.0,True,622.9000000059605,38.0,61.0,40.0,249.18932532266427,[],"[768, 432]",ColorTask,1.0,5.0,,,HRV,HRV_0236,2022-11-30 19:24:23
,wl-rdm,13,100383,0.0-6.5-0.5,0.0,12.0,,,,,,,[],False,,,,,,,87.9,1.0,i,1.0,True,1073.5,65.0,61.0,40.0,257.7651776482036,[],"[768, 432]",ColorTask,2.0,6.0,,,HRV,HRV_0236,2022-11-30 19:24:23
,wl-rdm,14,102984,0.0-6.6-0.6,0.0,13.0,,,,,,,[],False,,,,,,,56.4,1.0,i,1.0,True,1181.5000000298023,71.0,61.0,40.0,352.4104586716918,[],"[768, 432]",ColorTask,3.0,7.0,,,HRV,HRV_0236,2022-11-30 19:24:23
,wl-rdm,15,104968,0.0-6.7-0.7,0.0,14.0,,,,,,,[],False,,,,,,,50.0,0.0,i,1.0,False,574.6000000238419,35.0,61.0,40.0,319.0012849247636,[],"[768, 432]",ColorTask,2.0,8.0,,,HRV,HRV_0236,2022-11-30 19:24:23
,wl-rdm,16,107602,0.0-6.8-0.8,0.0,15.0,,,,,,,[],False,,,,,,,62.5,0.0,u,0.0,True,1195.199999988079,72.0,61.0,40.0,364.76276473779484,[],"[768, 432]",ColorTask,3.0,9.0,,,HRV,HRV_0236,2022-11-30 19:24:23
,wl-rdm,17,109589,0.0-6.9-0.9,0.0,16.0,,,,,,,[],False,,,,,,,73.6,1.0,i,1.0,True,590.8000000119209,36.0,61.0,40.0,312.63454031090464,[],"[768, 432]",ColorTask,4.0,10.0,,,HRV,HRV_0236,2022-11-30 19:24:23
,wl-rdm,18,111523,0.0-6.10-0.10,0.0,17.0,,,,,,,[],False,,,,,,,56.4,1.0,i,1.0,True,638.9999999701977,39.0,61.0,40.0,209.5898735799816,[],"[768, 432]",ColorTask,5.0,11.0,,,HRV,HRV_0236,2022-11-30 19:24:23
,wl-rdm,19,113574,0.0-6.11-0.11,0.0,18.0,,,,,,,[],False,,,,,,,62.5,1.0,i,1.0,True,681.0,41.0,61.0,40.0,308.9258587437026,[],"[768, 432]",ColorTask,6.0,12.0,,,HRV,HRV_0236,2022-11-30 19:24:23
,wl-rdm,20,115973,0.0-6.12-0.12,0.0,19.0,,,,,,,[],False,,,,,,,50.0,1.0,i,1.0,True,1096.9000000059605,66.0,61.0,40.0,225.9242301586233,[],"[768, 432]",ColorTask,7.0,13.0,,,HRV,HRV_0236,2022-11-30 19:24:23
,wl-rdm,21,118174,0.0-6.13-0.13,0.0,20.0,,,,,,,[],False,,,,,,,56.4,0.0,u,0.0,True,872.3000000119209,53.0,61.0,40.0,256.0941575316142,[],"[768, 432]",ColorTask,8.0,14.0,,,HRV,HRV_0236,2022-11-30 19:24:23
,wl-rdm,22,120326,0.0-6.14-0.14,0.0,21.0,,,,,,,[],False,,,,,,,62.5,1.0,i,1.0,True,816.0,49.0,61.0,40.0,277.3670697508083,[],"[768, 432]",ColorTask,9.0,15.0,,,HRV,HRV_0236,2022-11-30 19:24:23
,wl-rdm,23,122610,0.0-6.15-0.15,0.0,22.0,,,,,,,[],False,,,,,,,73.6,0.0,u,0.0,True,859.0,52.0,61.0,40.0,344.62712691747515,[],"[768, 432]",ColorTask,10.0,16.0,,,HRV,HRV_0236,2022-11-30 19:24:23
,wl-rdm,24,124729,0.0-6.16-0.16,0.0,23.0,,,,,,,[],False,,,,,,,50.0,1.0,i,1.0,True,808.3000000119209,49.0,61.0,40.0,231.50130568398305,[],"[768, 432]",ColorTask,11.0,17.0,,,HRV,HRV_0236,2022-11-30 19:24:23
,wl-rdm,25,126594,0.0-6.17-0.17,0.0,24.0,,,,,,,[],False,,,,,,,87.9,1.0,i,1.0,True,531.7000000178814,32.0,61.0,40.0,276.4289380763518,[],"[768, 432]",ColorTask,12.0,18.0,,,HRV,HRV_0236,2022-11-30 19:24:23
,wl-rdm,26,128796,0.0-6.18-0.18,0.0,25.0,,,,,,,[],False,,,,,,,73.6,0.0,u,0.0,True,824.5,50.0,61.0,40.0,286.476827184409,[],"[768, 432]",ColorTask,13.0,19.0,,,HRV,HRV_0236,2022-11-30 19:24:23
,wl-rdm,27,130764,0.0-6.19-0.19,0.0,26.0,,,,,,,[],False,,,,,,,50.0,0.0,i,1.0,False,622.5,38.0,61.0,40.0,280.43242435329245,[],"[768, 432]",ColorTask,12.0,20.0,,,HRV,HRV_0236,2022-11-30 19:24:23
,wl-rdm,28,132697,0.0-6.20-0.20,0.0,27.0,,,,,,,[],False,,,,,,,62.5,0.0,i,1.0,False,610.8000000119209,37.0,61.0,40.0,244.05780959503346,[],"[768, 432]",ColorTask,11.0,21.0,,,HRV,HRV_0236,2022-11-30 19:24:23
,wl-rdm,29,134664,0.0-6.21-0.21,0.0,28.0,,,,,,,[],False,,,,,,,87.9,0.0,u,0.0,True,688.6999999880791,42.0,61.0,40.0,211.61588150676687,[],"[768, 432]",ColorTask,12.0,22.0,,,HRV,HRV_0236,2022-11-30 19:24:23
,wl-rdm,30,137348,0.0-6.22-0.22,0.0,29.0,,,,,,,[],False,,,,,,,50.0,0.0,i,1.0,False,1223.2999999821186,74.0,61.0,40.0,387.4511416293201,[],"[768, 432]",ColorTask,11.0,23.0,,,HRV,HRV_0236,2022-11-30 19:24:23
,wl-rdm,31,139699,0.0-6.23-0.23,0.0,30.0,,,,,,,[],False,,,,,,,56.4,0.0,u,0.0,True,1005.7000000178814,61.0,61.0,40.0,274.6451485801912,[],"[768, 432]",ColorTask,12.0,24.0,,,HRV,HRV_0236,2022-11-30 19:24:23
,wl-rdm,32,141684,0.0-6.24-0.24,0.0,31.0,,,,,,,[],False,,,,,,,87.9,0.0,u,0.0,True,672.0,41.0,61.0,40.0,216.47003984890858,[],"[768, 432]",ColorTask,13.0,25.0,,,HRV,HRV_0236,2022-11-30 19:24:23
,wl-rdm,33,143517,0.0-6.25-0.25,0.0,32.0,,,,,,,[],False,,,,,,,50.0,0.0,i,1.0,False,556.2999999821186,34.0,61.0,40.0,201.46702499147563,[],"[768, 432]",ColorTask,12.0,26.0,,,HRV,HRV_0236,2022-11-30 19:24:23
,wl-rdm,34,145668,0.0-6.26-0.26,0.0,33.0,,,,,,,[],False,,,,,,,50.0,0.0,u,0.0,True,796.5999999940395,48.0,61.0,40.0,285.342680488987,[],"[768, 432]",ColorTask,13.0,27.0,,,HRV,HRV_0236,2022-11-30 19:24:23
,wl-rdm,35,148019,0.0-6.27-0.27,0.0,34.0,,,,,,,[],False,,,,,,,62.5,0.0,i,1.0,False,992.3999999761581,60.0,61.0,40.0,285.1609881206136,[],"[768, 432]",ColorTask,12.0,28.0,,,HRV,HRV_0236,2022-11-30 19:24:23
,wl-rdm,36,149870,0.0-6.28-0.28,0.0,35.0,,,,,,,[],False,,,,,,,62.5,1.0,i,1.0,True,536.9000000059605,32.0,61.0,40.0,244.41591031859528,[],"[768, 432]",ColorTask,13.0,29.0,,,HRV,HRV_0236,2022-11-30 19:24:23
,wl-rdm,37,152137,0.0-6.29-0.29,0.0,36.0,,,,,,,[],False,,,,,,,53.2,0.0,i,1.0,False,888.7000000178814,54.0,61.0,40.0,287.6389149741965,[],"[768, 432]",ColorTask,12.0,30.0,,,HRV,HRV_0236,2022-11-30 19:24:23
,wl-rdm,38,154389,0.0-6.30-0.30,0.0,37.0,,,,,,,[],False,,,,,,,73.6,0.0,u,0.0,True,795.3999999761581,48.0,61.0,40.0,399.05468892449215,[],"[768, 432]",ColorTask,13.0,31.0,,,HRV,HRV_0236,2022-11-30 19:24:23
,wl-rdm,39,156807,0.0-6.31-0.31,0.0,38.0,,,,,,,[],False,,,,,,,53.2,1.0,i,1.0,True,1074.300000011921,65.0,61.0,40.0,271.95593848305555,[],"[768, 432]",ColorTask,14.0,32.0,,,HRV,HRV_0236,2022-11-30 19:24:23
,wl-rdm,40,158856,0.0-6.32-0.32,0.0,39.0,,,,,,,[],False,,,,,,,73.6,0.0,u,0.0,True,707.5,43.0,61.0,40.0,271.94150067087145,[],"[768, 432]",ColorTask,15.0,33.0,,,HRV,HRV_0236,2022-11-30 19:24:23
,wl-rdm,41,160807,0.0-6.33-0.33,0.0,40.0,,,,,,,[],False,,,,,,,87.9,1.0,i,1.0,True,671.4000000059605,41.0,61.0,40.0,208.75725366212495,[],"[768, 432]",ColorTask,16.0,34.0,,,HRV,HRV_0236,2022-11-30 19:24:23
,wl-rdm,42,162743,0.0-6.34-0.34,0.0,41.0,,,,,,,[],False,,,,,,,87.9,1.0,i,1.0,True,536.3000000119209,33.0,61.0,40.0,333.8161332807995,[],"[768, 432]",ColorTask,17.0,35.0,,,HRV,HRV_0236,2022-11-30 19:24:23
,wl-rdm,43,164775,0.0-6.35-0.35,0.0,42.0,,,,,,,[],False,,,,,,,53.2,0.0,u,0.0,True,764.6999999880791,46.0,61.0,40.0,200.98324814078688,[],"[768, 432]",ColorTask,18.0,36.0,,,HRV,HRV_0236,2022-11-30 19:24:23
,wl-rdm,44,166694,0.0-6.36-0.36,0.0,43.0,,,,,,,[],False,,,,,,,87.9,1.0,i,1.0,True,545.1999999880791,33.0,61.0,40.0,317.21404121971034,[],"[768, 432]",ColorTask,19.0,37.0,,,HRV,HRV_0236,2022-11-30 19:24:23
,wl-rdm,45,169076,0.0-6.37-0.37,0.0,44.0,,,,,,,[],False,,,,,,,62.5,1.0,i,1.0,True,1055.699999988079,64.0,61.0,40.0,264.765337020371,[],"[768, 432]",ColorTask,20.0,38.0,,,HRV,HRV_0236,2022-11-30 19:24:23
,wl-rdm,46,171195,0.0-6.38-0.38,0.0,45.0,,,,,,,[],False,,,,,,,50.0,1.0,u,0.0,False,828.0,50.0,61.0,40.0,228.15451219420459,[],"[768, 432]",ColorTask,19.0,39.0,,,HRV,HRV_0236,2022-11-30 19:24:23
,wl-rdm,47,173595,0.0-6.39-0.39,0.0,46.0,,,,,,,[],False,,,,,,,56.4,1.0,u,0.0,False,1007.9000000059605,61.0,61.0,40.0,313.0831223419667,[],"[768, 432]",ColorTask,18.0,40.0,,,HRV,HRV_0236,2022-11-30 19:24:23
,wl-rdm,48,175446,0.0-6.40-0.40,0.0,47.0,,,,,,,[],False,,,,,,,62.5,1.0,i,1.0,True,570.5999999940395,35.0,61.0,40.0,216.75798659160466,[],"[768, 432]",ColorTask,19.0,41.0,,,HRV,HRV_0236,2022-11-30 19:24:23
,wl-rdm,49,177663,0.0-6.41-0.41,0.0,48.0,,,,,,,[],False,,,,,,,50.0,0.0,u,0.0,True,805.1999999880791,48.0,61.0,40.0,338.8038880035882,[],"[768, 432]",ColorTask,20.0,42.0,,,HRV,HRV_0236,2022-11-30 19:24:23
,wl-rdm,50,179781,0.0-6.42-0.42,0.0,49.0,,,,,,,[],False,,,,,,,73.6,0.0,u,0.0,True,781.4000000059605,47.0,61.0,40.0,272.4177078081798,[],"[768, 432]",ColorTask,21.0,43.0,,,HRV,HRV_0236,2022-11-30 19:24:23
,wl-rdm,51,181848,0.0-6.43-0.43,0.0,50.0,,,,,,,[],False,,,,,,,87.9,0.0,u,0.0,True,661.4000000059605,40.0,61.0,40.0,317.7515881201379,[],"[768, 432]",ColorTask,22.0,44.0,,,HRV,HRV_0236,2022-11-30 19:24:23
,wl-rdm,52,184233,0.0-6.44-0.44,0.0,51.0,,,,,,,[],False,,,,,,,87.9,0.0,u,0.0,True,1089.0999999940395,66.0,61.0,40.0,218.071363771474,[],"[768, 432]",ColorTask,23.0,45.0,,,HRV,HRV_0236,2022-11-30 19:24:23
,wl-rdm,53,186601,0.0-6.45-0.45,0.0,52.0,,,,,,,[],False,,,,,,,62.5,0.0,i,1.0,False,1020.5999999940395,62.0,61.0,40.0,262.77158251043625,[],"[768, 432]",ColorTask,22.0,46.0,,,HRV,HRV_0236,2022-11-30 19:24:23
,wl-rdm,54,188953,0.0-6.46-0.46,0.0,53.0,,,,,,,[],False,,,,,,,53.2,0.0,u,0.0,True,1038.5999999940395,63.0,61.0,40.0,223.4814258209171,[],"[768, 432]",ColorTask,23.0,47.0,,,HRV,HRV_0236,2022-11-30 19:24:23
,wl-rdm,55,191235,0.0-6.47-0.47,0.0,54.0,,,,,,,[],False,,,,,,,50.0,1.0,i,1.0,True,896.5999999940395,54.0,61.0,40.0,320.7369941790559,[],"[768, 432]",ColorTask,24.0,48.0,,,HRV,HRV_0236,2022-11-30 19:24:23
,wl-rdm,56,193352,0.0-6.48-0.48,0.0,55.0,,,,,,,[],False,,,,,,,56.4,1.0,u,0.0,False,804.7999999821186,49.0,61.0,40.0,220.62446781322478,[],"[768, 432]",ColorTask,23.0,49.0,,,HRV,HRV_0236,2022-11-30 19:24:23
,wl-rdm,57,195586,0.0-6.49-0.49,0.0,56.0,,,,,,,[],False,,,,,,,62.5,0.0,i,1.0,False,897.0999999940395,54.0,61.0,40.0,270.4950217802348,[],"[768, 432]",ColorTask,22.0,50.0,,,HRV,HRV_0236,2022-11-30 19:24:23
,wl-rdm,58,197423,0.0-6.50-0.50,0.0,57.0,,,,,,,[],False,,,,,,,87.9,1.0,i,1.0,True,530.7999999821186,32.0,61.0,40.0,241.16201253436958,[],"[768, 432]",ColorTask,23.0,51.0,,,HRV,HRV_0236,2022-11-30 19:24:23
,wl-rdm,59,199559,0.0-6.51-0.51,0.0,58.0,,,,,,,[],False,,,,,,,53.2,1.0,i,1.0,True,787.3999999761581,48.0,61.0,40.0,276.533172804901,[],"[768, 432]",ColorTask,24.0,52.0,,,HRV,HRV_0236,2022-11-30 19:24:23
,wl-rdm,60,201457,0.0-6.52-0.52,0.0,59.0,,,,,,,[],False,,,,,,,53.2,0.0,u,0.0,True,570.9000000357628,35.0,61.0,40.0,264.05400580877443,[],"[768, 432]",ColorTask,25.0,53.0,,,HRV,HRV_0236,2022-11-30 19:24:23
,wl-rdm,61,204241,0.0-6.53-0.53,0.0,60.0,,,,,,,[],False,,,,,,,53.2,1.0,u,0.0,False,1387.9999999701977,84.0,61.0,40.0,327.090741938987,[],"[768, 432]",ColorTask,24.0,54.0,,,HRV,HRV_0236,2022-11-30 19:24:23
,wl-rdm,62,206158,0.0-6.54-0.54,0.0,61.0,,,,,,,[],False,,,,,,,56.4,0.0,i,1.0,False,478.90000000596046,29.0,61.0,40.0,374.6962453861643,[],"[768, 432]",ColorTask,23.0,55.0,,,HRV,HRV_0236,2022-11-30 19:24:23
,wl-rdm,63,208309,0.0-6.55-0.55,0.0,62.0,,,,,,,[],False,,,,,,,50.0,1.0,u,0.0,False,822.1000000238419,50.0,61.0,40.0,266.10375699240353,[],"[768, 432]",ColorTask,22.0,56.0,,,HRV,HRV_0236,2022-11-30 19:24:23
,wl-rdm,64,210276,0.0-6.56-0.56,0.0,63.0,,,,,,,[],False,,,,,,,87.9,0.0,u,0.0,True,671.5999999940395,41.0,61.0,40.0,209.3897597166339,[],"[768, 432]",ColorTask,23.0,57.0,,,HRV,HRV_0236,2022-11-30 19:24:23
,wl-rdm,65,212894,0.0-6.57-0.57,0.0,64.0,,,,,,,[],False,,,,,,,50.0,1.0,i,1.0,True,1329.2999999821186,80.0,61.0,40.0,206.3506362614146,[],"[768, 432]",ColorTask,24.0,58.0,,,HRV,HRV_0236,2022-11-30 19:24:23
,wl-rdm,66,215128,0.0-6.58-0.58,0.0,65.0,,,,,,,[],False,,,,,,,56.4,1.0,i,1.0,True,871.5999999940395,53.0,61.0,40.0,288.5527327075198,[],"[768, 432]",ColorTask,25.0,59.0,,,HRV,HRV_0236,2022-11-30 19:24:23
,wl-rdm,67,217329,0.0-6.59-0.59,0.0,66.0,,,,,,,[],False,,,,,,,62.5,0.0,u,0.0,True,833.8000000119209,50.0,61.0,40.0,289.8965879212373,[],"[768, 432]",ColorTask,26.0,60.0,,,HRV,HRV_0236,2022-11-30 19:24:23
,wl-rdm,68,219396,0.0-6.60-0.60,0.0,67.0,,,,,,,[],False,,,,,,,53.2,0.0,i,1.0,False,661.1999999880791,40.0,61.0,40.0,343.6509509978773,[],"[768, 432]",ColorTask,25.0,61.0,,,HRV,HRV_0236,2022-11-30 19:24:23
,wl-rdm,69,221363,0.0-6.61-0.61,0.0,68.0,,,,,,,[],False,,,,,,,62.5,1.0,i,1.0,True,621.0999999940395,38.0,61.0,40.0,274.6805843565577,[],"[768, 432]",ColorTask,26.0,62.0,,,HRV,HRV_0236,2022-11-30 19:24:23
,wl-rdm,70,223898,0.0-6.62-0.62,0.0,69.0,,,,,,,[],False,,,,,,,62.5,1.0,u,0.0,False,1122.0,68.0,61.0,40.0,330.6383030516256,[],"[768, 432]",ColorTask,25.0,63.0,,,HRV,HRV_0236,2022-11-30 19:24:23
,wl-rdm,71,226150,0.0-6.63-0.63,0.0,70.0,,,,,,,[],False,,,,,,,53.2,0.0,i,1.0,False,921.1999999880791,56.0,61.0,40.0,261.2144139312014,[],"[768, 432]",ColorTask,24.0,64.0,,,HRV,HRV_0236,2022-11-30 19:24:23
,wl-rdm,72,228683,0.0-6.64-0.64,0.0,71.0,,,,,,,[],False,,,,,,,62.5,1.0,u,0.0,False,1179.2999999821186,71.0,61.0,40.0,284.69568243592266,[],"[768, 432]",ColorTask,23.0,65.0,,,HRV,HRV_0236,2022-11-30 19:24:23
,wl-rdm,73,230634,0.0-6.65-0.65,0.0,72.0,,,,,,,[],False,,,,,,,73.6,1.0,i,1.0,True,665.5,40.0,61.0,40.0,226.32398595239644,[],"[768, 432]",ColorTask,24.0,66.0,,,HRV,HRV_0236,2022-11-30 19:24:23
,wl-rdm,74,232803,0.0-6.66-0.66,0.0,73.0,,,,,,,[],False,,,,,,,50.0,1.0,u,0.0,False,878.0999999940395,53.0,61.0,40.0,203.80722906921903,[],"[768, 432]",ColorTask,23.0,67.0,,,HRV,HRV_0236,2022-11-30 19:24:23
,wl-rdm,75,234804,0.0-6.67-0.67,0.0,74.0,,,,,,,[],False,,,,,,,87.9,1.0,i,1.0,True,688.6999999880791,42.0,61.0,40.0,223.29893070737327,[],"[768, 432]",ColorTask,24.0,68.0,,,HRV,HRV_0236,2022-11-30 19:24:23
,wl-rdm,76,236938,0.0-6.68-0.68,0.0,75.0,,,,,,,[],False,,,,,,,73.6,1.0,i,1.0,True,852.1999999880791,51.0,61.0,40.0,201.0046604243349,[],"[768, 432]",ColorTask,25.0,69.0,,,HRV,HRV_0236,2022-11-30 19:24:23
,wl-rdm,77,239071,0.0-6.69-0.69,0.0,76.0,,,,,,,[],False,,,,,,,73.6,1.0,u,0.0,False,740.9000000059605,45.0,61.0,40.0,331.88693547484024,[],"[768, 432]",ColorTask,24.0,70.0,,,HRV,HRV_0236,2022-11-30 19:24:23
,wl-rdm,78,241422,0.0-6.70-0.70,0.0,77.0,,,,,,,[],False,,,,,,,62.5,0.0,u,0.0,True,1057.7000000178814,64.0,61.0,40.0,227.44110186533467,[],"[768, 432]",ColorTask,25.0,71.0,,,HRV,HRV_0236,2022-11-30 19:24:23
,wl-rdm,79,243589,0.0-6.71-0.71,0.0,78.0,,,,,,,[],False,,,,,,,87.9,0.0,u,0.0,True,838.7000000178814,51.0,61.0,40.0,254.3288616849369,[],"[768, 432]",ColorTask,26.0,72.0,,,HRV,HRV_0236,2022-11-30 19:24:23
,wl-rdm,80,245607,0.0-6.72-0.72,0.0,79.0,,,,,,,[],False,,,,,,,53.2,1.0,i,1.0,True,653.7999999821186,40.0,61.0,40.0,287.42166179092976,[],"[768, 432]",ColorTask,27.0,73.0,,,HRV,HRV_0236,2022-11-30 19:24:23
,wl-rdm,81,247693,0.0-6.73-0.73,0.0,80.0,,,,,,,[],False,,,,,,,73.6,1.0,i,1.0,True,803.2000000178814,49.0,61.0,40.0,201.4896011981429,[],"[768, 432]",ColorTask,28.0,74.0,,,HRV,HRV_0236,2022-11-30 19:24:23
,wl-rdm,82,249825,0.0-6.74-0.74,0.0,81.0,,,,,,,[],False,,,,,,,56.4,0.0,u,0.0,True,705.5999999940395,43.0,61.0,40.0,345.77117679834583,[],"[768, 432]",ColorTask,29.0,75.0,,,HRV,HRV_0236,2022-11-30 19:24:23
,wl-rdm,83,251709,0.0-6.75-0.75,0.0,82.0,,,,,,,[],False,,,,,,,50.0,0.0,i,1.0,False,579.3000000119209,35.0,61.0,40.0,242.948487232789,[],"[768, 432]",ColorTask,28.0,76.0,,,HRV,HRV_0236,2022-11-30 19:24:23
,wl-rdm,84,254094,0.0-6.76-0.76,0.0,83.0,,,,,,,[],False,,,,,,,56.4,1.0,i,1.0,True,1007.3000000119209,61.0,61.0,40.0,310.0739597813887,[],"[768, 432]",ColorTask,29.0,77.0,,,HRV,HRV_0236,2022-11-30 19:24:23
,wl-rdm,85,256010,0.0-6.77-0.77,0.0,84.0,,,,,,,[],False,,,,,,,56.4,1.0,i,1.0,True,553.5999999940395,34.0,61.0,40.0,293.7396815829078,[],"[768, 432]",ColorTask,30.0,78.0,,,HRV,HRV_0236,2022-11-30 19:24:23
,wl-rdm,86,256537,0.0-6.78-0.78,0.0,84.0,,,,,,,[523.6999999880791],True,exitFullScreen exitFullScreen ,,,,,,53.2,1.0,,,,,0.0,61.0,40.0,261.95988285668494,[],"[768, 432]",ColorTask,29.0,79.0,,,HRV,HRV_0236,2022-11-30 19:24:23
,wl-rdm,87,270432,0.0-6.79-0.79,0.0,84.0,,,,,,,[],True,enterFullScreen ,,,,,,87.9,0.0,,,,,0.0,61.0,40.0,211.69314083306955,[],"[None, None]",ColorTask,28.0,80.0,,,HRV,HRV_0236,2022-11-30 19:24:23
,wl-rdm,88,273066,0.0-6.80-0.80,0.0,85.0,,,,,,,[],False,,,,,,,73.6,1.0,i,1.0,True,1314.7000000178814,79.0,61.0,40.0,255.63124597504762,[],"[768, 432]",ColorTask,29.0,81.0,,,HRV,HRV_0236,2022-11-30 19:24:23
,wl-rdm,89,275285,0.0-6.81-0.81,0.0,86.0,,,,,,,[],False,,,,,,,87.9,1.0,i,1.0,True,930.8000000417233,56.0,61.0,40.0,219.8763445545265,[],"[768, 432]",ColorTask,30.0,82.0,,,HRV,HRV_0236,2022-11-30 19:24:23
,wl-rdm,90,277203,0.0-6.82-0.82,0.0,87.0,,,,,,,[],False,,,,,,,87.9,0.0,u,0.0,True,605.3000000119209,37.0,61.0,40.0,230.5464819232645,[],"[768, 432]",ColorTask,31.0,83.0,,,HRV,HRV_0236,2022-11-30 19:24:23
,wl-rdm,91,279153,0.0-6.83-0.83,0.0,88.0,,,,,,,[],False,,,,,,,87.9,0.0,u,0.0,True,638.8999999761581,39.0,61.0,40.0,229.21198565854692,[],"[768, 432]",ColorTask,32.0,84.0,,,HRV,HRV_0236,2022-11-30 19:24:23
,wl-rdm,92,281004,0.0-6.84-0.84,0.0,89.0,,,,,,,[],False,,,,,,,56.4,0.0,u,0.0,True,537.8000000119209,33.0,61.0,40.0,247.67238843381324,[],"[768, 432]",ColorTask,33.0,85.0,,,HRV,HRV_0236,2022-11-30 19:24:23
,wl-rdm,93,283154,0.0-6.85-0.85,0.0,90.0,,,,,,,[],False,,,,,,,73.6,0.0,u,0.0,True,838.5999999940395,51.0,61.0,40.0,243.7715731402099,[],"[768, 432]",ColorTask,34.0,86.0,,,HRV,HRV_0236,2022-11-30 19:24:23
,wl-rdm,94,285188,0.0-6.86-0.86,0.0,91.0,,,,,,,[],False,,,,,,,56.4,0.0,u,0.0,True,739.9000000059605,45.0,61.0,40.0,227.46038998920912,[],"[768, 432]",ColorTask,35.0,87.0,,,HRV,HRV_0236,2022-11-30 19:24:23
,wl-rdm,95,287273,0.0-6.87-0.87,0.0,92.0,,,,,,,[],False,,,,,,,56.4,1.0,i,1.0,True,654.4000000059605,39.0,61.0,40.0,354.33789626716646,[],"[768, 432]",ColorTask,36.0,88.0,,,HRV,HRV_0236,2022-11-30 19:24:23
,wl-rdm,96,289306,0.0-6.88-0.88,0.0,93.0,,,,,,,[],False,,,,,,,53.2,1.0,u,0.0,False,673.7999999821186,41.0,61.0,40.0,296.5985289225621,[],"[768, 432]",ColorTask,35.0,89.0,,,HRV,HRV_0236,2022-11-30 19:24:23
,wl-rdm,97,291359,0.0-6.89-0.89,0.0,94.0,,,,,,,[],False,,,,,,,62.5,1.0,i,1.0,True,740.7000000178814,45.0,61.0,40.0,239.79657255722475,[],"[768, 432]",ColorTask,36.0,90.0,,,HRV,HRV_0236,2022-11-30 19:24:23
,wl-rdm,98,293409,0.0-6.90-0.90,0.0,95.0,,,,,,,[],False,,,,,,,62.5,0.0,i,1.0,False,672.5999999940395,41.0,61.0,40.0,293.454720589833,[],"[768, 432]",ColorTask,35.0,91.0,,,HRV,HRV_0236,2022-11-30 19:24:23
,wl-rdm,99,295478,0.0-6.91-0.91,0.0,96.0,,,,,,,[],False,,,,,,,53.2,1.0,i,1.0,True,645.6999999880791,39.0,61.0,40.0,351.19648288688063,[],"[768, 432]",ColorTask,36.0,92.0,,,HRV,HRV_0236,2022-11-30 19:24:23
,wl-rdm,100,298046,0.0-6.92-0.92,0.0,97.0,,,,,,,[],False,,,,,,,56.4,0.0,u,0.0,True,1174.4000000059605,71.0,61.0,40.0,315.1429609807236,[],"[768, 432]",ColorTask,37.0,93.0,,,HRV,HRV_0236,2022-11-30 19:24:23
,wl-rdm,101,300546,0.0-6.93-0.93,0.0,98.0,,,,,,,[],False,,,,,,,50.0,1.0,u,0.0,False,1230.5,74.0,61.0,40.0,210.88578186851925,[],"[768, 432]",ColorTask,36.0,94.0,,,HRV,HRV_0236,2022-11-30 19:24:23
,wl-rdm,102,302581,0.0-6.94-0.94,0.0,99.0,,,,,,,[],False,,,,,,,62.5,0.0,i,1.0,False,654.8000000119209,40.0,61.0,40.0,312.5145793052254,[],"[768, 432]",ColorTask,35.0,95.0,,,HRV,HRV_0236,2022-11-30 19:24:23
,wl-rdm,103,304946,0.0-6.95-0.95,0.0,100.0,,,,,,,[],False,,,,,,,53.2,0.0,i,1.0,False,1064.800000011921,64.0,61.0,40.0,219.3709613133658,[],"[768, 432]",ColorTask,34.0,96.0,,,HRV,HRV_0236,2022-11-30 19:24:23
,wl-rdm,104,307315,0.0-6.96-0.96,0.0,101.0,,,,,,,[],False,,,,,,,56.4,0.0,i,1.0,False,937.5,57.0,61.0,40.0,353.4945218718256,[],"[768, 432]",ColorTask,33.0,97.0,,,HRV,HRV_0236,2022-11-30 19:24:23
,wl-rdm,105,309751,0.0-6.97-0.97,0.0,102.0,,,,,,,[],False,,,,,,,53.2,0.0,u,0.0,True,1056.2999999821186,64.0,61.0,40.0,297.10770028432256,[],"[768, 432]",ColorTask,34.0,98.0,,,HRV,HRV_0236,2022-11-30 19:24:23
,wl-rdm,106,311667,0.0-6.98-0.98,0.0,103.0,,,,,,,[],False,,,,,,,73.6,1.0,i,1.0,True,605.2999999821186,37.0,61.0,40.0,234.03737142600065,[],"[768, 432]",ColorTask,35.0,99.0,,,HRV,HRV_0236,2022-11-30 19:24:23
,wl-rdm,107,314217,0.0-6.99-0.99,0.0,104.0,,,,,,,[],False,,,,,,,50.0,0.0,i,1.0,False,1136.5,69.0,61.0,40.0,324.29946758311775,[],"[768, 432]",ColorTask,34.0,100.0,,,HRV,HRV_0236,2022-11-30 19:24:23
,wl-rdm,108,316467,0.0-6.100-0.100,0.0,105.0,,,,,,,[],False,,,,,,,73.6,1.0,i,1.0,True,786.5999999940395,48.0,61.0,40.0,373.3043544719471,[],"[768, 432]",ColorTask,35.0,101.0,,,HRV,HRV_0236,2022-11-30 19:24:23
,wl-rdm,109,318687,0.0-6.101-0.101,0.0,106.0,,,,,,,[],False,,,,,,,50.0,1.0,u,0.0,False,772.3000000417233,47.0,61.0,40.0,374.862102145947,[],"[768, 432]",ColorTask,34.0,102.0,,,HRV,HRV_0236,2022-11-30 19:24:23
,wl-rdm,110,320586,0.0-6.102-0.102,0.0,107.0,,,,,,,[],False,,,,,,,87.9,1.0,i,1.0,True,605.6000000238419,37.0,61.0,40.0,225.9290794406901,[],"[768, 432]",ColorTask,35.0,103.0,,,HRV,HRV_0236,2022-11-30 19:24:23
,wl-rdm,111,322505,0.0-6.103-0.103,0.0,108.0,,,,,,,[],False,,,,,,,87.9,0.0,u,0.0,True,541.4000000059605,33.0,61.0,40.0,311.0790487813634,[],"[768, 432]",ColorTask,36.0,104.0,,,HRV,HRV_0236,2022-11-30 19:24:23
,wl-rdm,112,324404,0.0-6.104-0.104,0.0,109.0,,,,,,,[],False,,,,,,,73.6,0.0,i,1.0,False,604.7000000178814,37.0,61.0,40.0,204.68853462544882,[],"[768, 432]",ColorTask,35.0,105.0,,,HRV,HRV_0236,2022-11-30 19:24:23
,wl-rdm,113,326689,0.0-6.105-0.105,0.0,110.0,,,,,,,[],False,,,,,,,53.2,1.0,i,1.0,True,996.5,60.0,61.0,40.0,219.3565897829631,[],"[768, 432]",ColorTask,36.0,106.0,,,HRV,HRV_0236,2022-11-30 19:24:23
,wl-rdm,114,328825,0.0-6.106-0.106,0.0,111.0,,,,,,,[],False,,,,,,,73.6,0.0,u,0.0,True,779.6999999880791,47.0,61.0,40.0,299.31065168064015,[],"[768, 432]",ColorTask,37.0,107.0,,,HRV,HRV_0236,2022-11-30 19:24:23
,wl-rdm,115,330892,0.0-6.107-0.107,0.0,112.0,,,,,,,[],False,,,,,,,53.2,1.0,u,0.0,False,720.5999999940395,44.0,61.0,40.0,279.74915671792763,[],"[768, 432]",ColorTask,36.0,108.0,,,HRV,HRV_0236,2022-11-30 19:24:23
,wl-rdm,116,332859,0.0-6.108-0.108,0.0,113.0,,,,,,,[],False,,,,,,,50.0,0.0,i,1.0,False,587.9000000059605,36.0,61.0,40.0,289.08624137566636,[],"[768, 432]",ColorTask,35.0,109.0,,,HRV,HRV_0236,2022-11-30 19:24:23
,wl-rdm,117,335108,0.0-6.109-0.109,0.0,114.0,,,,,,,[],False,,,,,,,73.6,0.0,u,0.0,True,811.3000000119209,49.0,61.0,40.0,382.6208664135094,[],"[768, 432]",ColorTask,36.0,110.0,,,HRV,HRV_0236,2022-11-30 19:24:23
,wl-html-keyboard-response,118,479503,0.0-7.0-0.0,1.0,114.0,,,,,,,,True,undefinedblurEvent ,142382.5,1.0,0,,,,,,,,,,,,,,,,,,,,HRV,HRV_0236,2022-11-30 19:24:23
,wl-rdm,119,481729,0.0-8.0-0.0,1.0,115.0,,,,,,,[],False,,,,,,,53.2,1.0,u,0.0,False,913.3999999761581,55.0,61.0,40.0,243.67932953534478,[],"[768, 432]",ColorTask,35.0,1.0,,,HRV,HRV_0236,2022-11-30 19:24:23
,wl-rdm,120,483896,0.0-8.1-0.1,1.0,116.0,,,,,,,[],False,,,,,,,56.4,0.0,u,0.0,True,822.0,50.0,61.0,40.0,279.92420438164845,[],"[768, 432]",ColorTask,36.0,2.0,,,HRV,HRV_0236,2022-11-30 19:24:23
,wl-rdm,121,486198,0.0-8.2-0.2,1.0,117.0,,,,,,,[],False,,,,,,,56.4,0.0,u,0.0,True,1020.4000000059605,62.0,61.0,40.0,215.67626452951984,[],"[768, 432]",ColorTask,37.0,3.0,,,HRV,HRV_0236,2022-11-30 19:24:23
,wl-rdm,122,488198,0.0-8.3-0.3,1.0,118.0,,,,,,,[],False,,,,,,,73.6,0.0,u,0.0,True,656.5999999940395,40.0,61.0,40.0,266.76818234457585,[],"[768, 432]",ColorTask,38.0,4.0,,,HRV,HRV_0236,2022-11-30 19:24:23
,wl-rdm,123,490149,0.0-8.4-0.4,1.0,119.0,,,,,,,[],False,,,,,,,56.4,1.0,i,1.0,True,682.5999999940395,41.0,61.0,40.0,204.8235489997032,[],"[768, 432]",ColorTask,39.0,5.0,,,HRV,HRV_0236,2022-11-30 19:24:23
,wl-rdm,124,492916,0.0-8.5-0.5,1.0,120.0,,,,,,,[],False,,,,,,,87.9,1.0,i,1.0,True,1422.2000000178814,86.0,61.0,40.0,272.90360150196517,[],"[768, 432]",ColorTask,40.0,6.0,,,HRV,HRV_0236,2022-11-30 19:24:23
,wl-rdm,125,495350,0.0-8.6-0.6,1.0,121.0,,,,,,,[],False,,,,,,,50.0,1.0,u,0.0,False,1056.7999999821186,64.0,61.0,40.0,293.22811884679226,[],"[768, 432]",ColorTask,39.0,7.0,,,HRV,HRV_0236,2022-11-30 19:24:23
,wl-rdm,126,497302,0.0-8.7-0.7,1.0,122.0,,,,,,,[],False,,,,,,,56.4,0.0,u,0.0,True,614.9000000059605,37.0,61.0,40.0,276.90672793727697,[],"[768, 432]",ColorTask,40.0,8.0,,,HRV,HRV_0236,2022-11-30 19:24:23
,wl-rdm,127,499536,0.0-8.8-0.8,1.0,123.0,,,,,,,[],False,,,,,,,56.4,1.0,i,1.0,True,839.5999999940395,51.0,61.0,40.0,300.9116295235684,[],"[768, 432]",ColorTask,41.0,9.0,,,HRV,HRV_0236,2022-11-30 19:24:23
,wl-rdm,128,501503,0.0-8.9-0.9,1.0,124.0,,,,,,,[],False,,,,,,,73.6,0.0,u,0.0,True,656.5999999940395,40.0,61.0,40.0,238.87386465433192,[],"[768, 432]",ColorTask,42.0,10.0,,,HRV,HRV_0236,2022-11-30 19:24:23
,wl-rdm,129,503688,0.0-8.10-0.10,1.0,125.0,,,,,,,[],False,,,,,,,50.0,0.0,u,0.0,True,831.3000000119209,50.0,61.0,40.0,285.67404862068616,[],"[768, 432]",ColorTask,43.0,11.0,,,HRV,HRV_0236,2022-11-30 19:24:23
,wl-rdm,130,505655,0.0-8.11-0.11,1.0,126.0,,,,,,,[],False,,,,,,,87.9,1.0,i,1.0,True,662.9000000059605,40.0,61.0,40.0,226.08339341837248,[],"[768, 432]",ColorTask,44.0,12.0,,,HRV,HRV_0236,2022-11-30 19:24:23
,wl-rdm,131,507739,0.0-8.12-0.12,1.0,127.0,,,,,,,[],False,,,,,,,50.0,1.0,u,0.0,False,635.8999999761581,39.0,61.0,40.0,377.3677364278757,[],"[768, 432]",ColorTask,43.0,13.0,,,HRV,HRV_0236,2022-11-30 19:24:23
,wl-rdm,132,509590,0.0-8.13-0.13,1.0,128.0,,,,,,,[],False,,,,,,,73.6,0.0,u,0.0,True,554.0999999940395,34.0,61.0,40.0,217.7271572503457,[],"[768, 432]",ColorTask,44.0,14.0,,,HRV,HRV_0236,2022-11-30 19:24:23
,wl-rdm,133,511390,0.0-8.14-0.14,1.0,129.0,,,,,,,[],False,,,,,,,53.2,0.0,u,0.0,True,507.40000000596046,31.0,61.0,40.0,227.48936828737664,[],"[768, 432]",ColorTask,45.0,15.0,,,HRV,HRV_0236,2022-11-30 19:24:23
,wl-rdm,134,513392,0.0-8.15-0.15,1.0,130.0,,,,,,,[],False,,,,,,,62.5,0.0,u,0.0,True,706.1999999880791,43.0,61.0,40.0,233.239376525182,[],"[768, 432]",ColorTask,46.0,16.0,,,HRV,HRV_0236,2022-11-30 19:24:23
,wl-rdm,135,515209,0.0-8.16-0.16,1.0,131.0,,,,,,,[],False,,,,,,,53.2,1.0,i,1.0,True,532.5999999940395,32.0,61.0,40.0,220.73380185155642,[],"[768, 432]",ColorTask,47.0,17.0,,,HRV,HRV_0236,2022-11-30 19:24:23
,wl-rdm,136,516993,0.0-8.17-0.17,1.0,132.0,,,,,,,[],False,,,,,,,87.9,1.0,i,1.0,True,513.6999999880791,31.0,61.0,40.0,207.08472875702753,[],"[768, 432]",ColorTask,48.0,18.0,,,HRV,HRV_0236,2022-11-30 19:24:23
,wl-rdm,137,518977,0.0-8.18-0.18,1.0,133.0,,,,,,,[],False,,,,,,,50.0,0.0,u,0.0,True,564.0,34.0,61.0,40.0,362.02402692216583,[],"[768, 432]",ColorTask,49.0,19.0,,,HRV,HRV_0236,2022-11-30 19:24:23
,wl-rdm,138,520877,0.0-8.19-0.19,1.0,134.0,,,,,,,[],False,,,,,,,87.9,0.0,u,0.0,True,615.7999999821186,37.0,61.0,40.0,232.81144690059867,[],"[768, 432]",ColorTask,50.0,20.0,,,HRV,HRV_0236,2022-11-30 19:24:23
,wl-rdm,139,522662,0.0-8.20-0.20,1.0,135.0,,,,,,,[],False,,,,,,,73.6,1.0,i,1.0,True,488.59999999403954,30.0,61.0,40.0,201.82567595682067,[],"[768, 432]",ColorTask,51.0,21.0,,,HRV,HRV_0236,2022-11-30 19:24:23
,wl-rdm,140,524996,0.0-8.21-0.21,1.0,136.0,,,,,,,[],False,,,,,,,50.0,1.0,i,1.0,True,973.5999999940395,59.0,61.0,40.0,278.31537550083976,[],"[768, 432]",ColorTask,52.0,22.0,,,HRV,HRV_0236,2022-11-30 19:24:23
,wl-rdm,141,526830,0.0-8.22-0.22,1.0,137.0,,,,,,,[],False,,,,,,,53.2,0.0,u,0.0,True,439.5,27.0,61.0,40.0,318.961452653681,[],"[768, 432]",ColorTask,53.0,23.0,,,HRV,HRV_0236,2022-11-30 19:24:23
,wl-rdm,142,528680,0.0-8.23-0.23,1.0,138.0,,,,,,,[],False,,,,,,,56.4,1.0,i,1.0,True,506.89999997615814,31.0,61.0,40.0,251.81632305300218,[],"[768, 432]",ColorTask,54.0,24.0,,,HRV,HRV_0236,2022-11-30 19:24:23
,wl-rdm,143,530814,0.0-8.24-0.24,1.0,139.0,,,,,,,[],False,,,,,,,62.5,1.0,i,1.0,True,794.3000000417233,48.0,61.0,40.0,256.5626462007333,[],"[768, 432]",ColorTask,55.0,25.0,,,HRV,HRV_0236,2022-11-30 19:24:23
,wl-rdm,144,532899,0.0-8.25-0.25,1.0,140.0,,,,,,,[],False,,,,,,,62.5,1.0,i,1.0,True,652.5,39.0,61.0,40.0,364.5404156333858,[],"[768, 432]",ColorTask,56.0,26.0,,,HRV,HRV_0236,2022-11-30 19:24:23
,wl-rdm,145,535266,0.0-8.26-0.26,1.0,141.0,,,,,,,[],False,,,,,,,56.4,0.0,u,0.0,True,1018.1999999880791,61.0,61.0,40.0,275.22431898541106,[],"[768, 432]",ColorTask,57.0,27.0,,,HRV,HRV_0236,2022-11-30 19:24:23
,wl-rdm,146,537717,0.0-8.27-0.27,1.0,142.0,,,,,,,[],False,,,,,,,73.6,0.0,u,0.0,True,1149.5000000298023,69.0,61.0,40.0,244.31115479764068,[],"[768, 432]",ColorTask,58.0,28.0,,,HRV,HRV_0236,2022-11-30 19:24:23
,wl-rdm,147,540035,0.0-8.28-0.28,1.0,143.0,,,,,,,[],False,,,,,,,53.2,1.0,i,1.0,True,961.5,58.0,61.0,40.0,297.27853829878535,[],"[768, 432]",ColorTask,59.0,29.0,,,HRV,HRV_0236,2022-11-30 19:24:23
,wl-rdm,148,542069,0.0-8.29-0.29,1.0,144.0,,,,,,,[],False,,,,,,,62.5,0.0,u,0.0,True,708.8000000119209,43.0,61.0,40.0,260.78765451336517,[],"[768, 432]",ColorTask,60.0,30.0,,,HRV,HRV_0236,2022-11-30 19:24:23
,wl-rdm,149,544020,0.0-8.30-0.30,1.0,145.0,,,,,,,[],False,,,,,,,50.0,1.0,i,1.0,True,607.2000000178814,37.0,61.0,40.0,255.84449901667875,[],"[768, 432]",ColorTask,61.0,31.0,,,HRV,HRV_0236,2022-11-30 19:24:23
,wl-rdm,150,545987,0.0-8.31-0.31,1.0,146.0,,,,,,,[],False,,,,,,,73.6,0.0,u,0.0,True,679.5,41.0,61.0,40.0,222.14148945846034,[],"[768, 432]",ColorTask,62.0,32.0,,,HRV,HRV_0236,2022-11-30 19:24:23
,wl-rdm,151,548171,0.0-8.32-0.32,1.0,147.0,,,,,,,[],False,,,,,,,50.0,1.0,i,1.0,True,857.0999999940395,52.0,61.0,40.0,240.56243435753288,[],"[768, 432]",ColorTask,63.0,33.0,,,HRV,HRV_0236,2022-11-30 19:24:23
,wl-rdm,152,550322,0.0-8.33-0.33,1.0,148.0,,,,,,,[],False,,,,,,,62.5,0.0,u,0.0,True,857.1000000238419,52.0,61.0,40.0,202.23267558202718,[],"[768, 432]",ColorTask,64.0,34.0,,,HRV,HRV_0236,2022-11-30 19:24:23
,wl-rdm,153,552607,0.0-8.34-0.34,1.0,149.0,,,,,,,[],False,,,,,,,73.6,1.0,i,1.0,True,875.7999999821186,53.0,61.0,40.0,348.75734825043105,[],"[768, 432]",ColorTask,65.0,35.0,,,HRV,HRV_0236,2022-11-30 19:24:23
,wl-rdm,154,554457,0.0-8.35-0.35,1.0,150.0,,,,,,,[],False,,,,,,,73.6,1.0,i,1.0,True,560.9999999701977,34.0,61.0,40.0,209.36696551262077,[],"[768, 432]",ColorTask,66.0,36.0,,,HRV,HRV_0236,2022-11-30 19:24:23
,wl-rdm,155,556542,0.0-8.36-0.36,1.0,151.0,,,,,,,[],False,,,,,,,50.0,0.0,i,1.0,False,776.0999999940395,47.0,61.0,40.0,245.16765771448584,[],"[768, 432]",ColorTask,65.0,37.0,,,HRV,HRV_0236,2022-11-30 19:24:23
,wl-rdm,156,558542,0.0-8.37-0.37,1.0,152.0,,,,,,,[],False,,,,,,,50.0,0.0,i,1.0,False,590.6999999880791,36.0,61.0,40.0,335.26004986238473,[],"[768, 432]",ColorTask,64.0,38.0,,,HRV,HRV_0236,2022-11-30 19:24:23
,wl-rdm,157,560543,0.0-8.38-0.38,1.0,153.0,,,,,,,[],False,,,,,,,87.9,0.0,u,0.0,True,615.0999999940395,37.0,61.0,40.0,332.10317499613905,[],"[768, 432]",ColorTask,65.0,39.0,,,HRV,HRV_0236,2022-11-30 19:24:23
,wl-rdm,158,562660,0.0-8.39-0.39,1.0,154.0,,,,,,,[],False,,,,,,,53.2,1.0,i,1.0,True,825.0999999940395,50.0,61.0,40.0,217.10499069354657,[],"[768, 432]",ColorTask,66.0,40.0,,,HRV,HRV_0236,2022-11-30 19:24:23
,wl-rdm,159,564561,0.0-8.40-0.40,1.0,155.0,,,,,,,[],False,,,,,,,62.5,1.0,i,1.0,True,515.5,31.0,61.0,40.0,317.4925719473754,[],"[768, 432]",ColorTask,67.0,41.0,,,HRV,HRV_0236,2022-11-30 19:24:23
,wl-rdm,160,566462,0.0-8.41-0.41,1.0,156.0,,,,,,,[],False,,,,,,,62.5,0.0,i,1.0,False,478.19999998807907,29.0,61.0,40.0,356.3721638626297,[],"[768, 432]",ColorTask,66.0,42.0,,,HRV,HRV_0236,2022-11-30 19:24:23
,wl-rdm,161,568279,0.0-8.42-0.42,1.0,157.0,,,,,,,[],False,,,,,,,62.5,1.0,i,1.0,True,512.0000000298023,31.0,61.0,40.0,236.9196324184925,[],"[768, 432]",ColorTask,67.0,43.0,,,HRV,HRV_0236,2022-11-30 19:24:23
,wl-rdm,162,570263,0.0-8.43-0.43,1.0,158.0,,,,,,,[],False,,,,,,,50.0,1.0,i,1.0,True,538.8000000119209,33.0,61.0,40.0,351.70418252522984,[],"[768, 432]",ColorTask,68.0,44.0,,,HRV,HRV_0236,2022-11-30 19:24:23
,wl-rdm,163,572781,0.0-8.44-0.44,1.0,159.0,,,,,,,[],False,,,,,,,53.2,0.0,i,1.0,False,1056.800000011921,64.0,61.0,40.0,394.14571682510876,[],"[768, 432]",ColorTask,67.0,45.0,,,HRV,HRV_0236,2022-11-30 19:24:23
,wl-rdm,164,574815,0.0-8.45-0.45,1.0,160.0,,,,,,,[],False,,,,,,,87.9,0.0,u,0.0,True,576.1999999880791,35.0,61.0,40.0,398.8259923512931,[],"[768, 432]",ColorTask,68.0,46.0,,,HRV,HRV_0236,2022-11-30 19:24:23
,wl-rdm,165,577133,0.0-8.46-0.46,1.0,161.0,,,,,,,[],False,,,,,,,73.6,0.0,u,0.0,True,990.0999999940395,60.0,61.0,40.0,261.92221503481795,[],"[768, 432]",ColorTask,69.0,47.0,,,HRV,HRV_0236,2022-11-30 19:24:23
,wl-rdm,166,579000,0.0-8.47-0.47,1.0,162.0,,,,,,,[],False,,,,,,,56.4,1.0,i,1.0,True,574.0,35.0,61.0,40.0,227.30246263801226,[],"[768, 432]",ColorTask,70.0,48.0,,,HRV,HRV_0236,2022-11-30 19:24:23
,wl-rdm,167,580884,0.0-8.48-0.48,1.0,163.0,,,,,,,[],False,,,,,,,73.6,0.0,u,0.0,True,605.5,37.0,61.0,40.0,216.51773979512984,[],"[768, 432]",ColorTask,71.0,49.0,,,HRV,HRV_0236,2022-11-30 19:24:23
,wl-rdm,168,583418,0.0-8.49-0.49,1.0,164.0,,,,,,,[],False,,,,,,,53.2,1.0,i,1.0,True,1158.5,70.0,61.0,40.0,298.59201469481394,[],"[768, 432]",ColorTask,72.0,50.0,,,HRV,HRV_0236,2022-11-30 19:24:23
,wl-rdm,169,585636,0.0-8.50-0.50,1.0,165.0,,,,,,,[],False,,,,,,,56.4,1.0,i,1.0,True,775.6999999880791,47.0,61.0,40.0,379.06423712930416,[],"[768, 432]",ColorTask,73.0,51.0,,,HRV,HRV_0236,2022-11-30 19:24:23
,wl-rdm,170,587870,0.0-8.51-0.51,1.0,166.0,,,,,,,[],False,,,,,,,56.4,0.0,u,0.0,True,951.4000000059605,57.0,61.0,40.0,205.30988715071845,[],"[768, 432]",ColorTask,74.0,52.0,,,HRV,HRV_0236,2022-11-30 19:24:23
,wl-rdm,171,589704,0.0-8.52-0.52,1.0,167.0,,,,,,,[],False,,,,,,,87.9,1.0,i,1.0,True,529.5,32.0,61.0,40.0,237.93589942508152,[],"[768, 432]",ColorTask,75.0,53.0,,,HRV,HRV_0236,2022-11-30 19:24:23
,wl-rdm,172,591872,0.0-8.53-0.53,1.0,168.0,,,,,,,[],False,,,,,,,62.5,1.0,i,1.0,True,778.3999999761581,47.0,61.0,40.0,323.5723350394218,[],"[768, 432]",ColorTask,76.0,54.0,,,HRV,HRV_0236,2022-11-30 19:24:23
,wl-rdm,173,594005,0.0-8.54-0.54,1.0,169.0,,,,,,,[],False,,,,,,,50.0,0.0,i,1.0,False,818.8000000119209,50.0,61.0,40.0,242.49693530309776,[],"[768, 432]",ColorTask,75.0,55.0,,,HRV,HRV_0236,2022-11-30 19:24:23
,wl-rdm,174,595872,0.0-8.55-0.55,1.0,170.0,,,,,,,[],False,,,,,,,87.9,0.0,u,0.0,True,539.0,33.0,61.0,40.0,256.3145328636153,[],"[768, 432]",ColorTask,76.0,56.0,,,HRV,HRV_0236,2022-11-30 19:24:23
,wl-rdm,175,597923,0.0-8.56-0.56,1.0,171.0,,,,,,,[],False,,,,,,,73.6,1.0,i,1.0,True,675.4000000059605,41.0,61.0,40.0,301.76185696846477,[],"[768, 432]",ColorTask,77.0,57.0,,,HRV,HRV_0236,2022-11-30 19:24:23
,wl-rdm,176,600392,0.0-8.57-0.57,1.0,172.0,,,,,,,[],False,,,,,,,62.5,0.0,i,1.0,False,1130.2999999821186,68.0,61.0,40.0,281.2416196749546,[],"[768, 432]",ColorTask,76.0,58.0,,,HRV,HRV_0236,2022-11-30 19:24:23
,wl-rdm,177,602579,0.0-8.58-0.58,1.0,173.0,,,,,,,[],False,,,,,,,53.2,1.0,i,1.0,True,779.4000000059605,47.0,61.0,40.0,349.4868652011453,[],"[768, 432]",ColorTask,77.0,59.0,,,HRV,HRV_0236,2022-11-30 19:24:23
,wl-rdm,178,604530,0.0-8.59-0.59,1.0,174.0,,,,,,,[],False,,,,,,,50.0,0.0,i,1.0,False,606.9000000059605,37.0,61.0,40.0,273.9907426426377,[],"[768, 432]",ColorTask,76.0,60.0,,,HRV,HRV_0236,2022-11-30 19:24:23
,wl-rdm,179,606727,0.0-8.60-0.60,1.0,175.0,,,,,,,[],False,,,,,,,87.9,0.0,u,0.0,True,870.5999999940395,53.0,61.0,40.0,262.1670389733644,[],"[768, 432]",ColorTask,77.0,61.0,,,HRV,HRV_0236,2022-11-30 19:24:23
,wl-rdm,180,608611,0.0-8.61-0.61,1.0,176.0,,,,,,,[],False,,,,,,,50.0,1.0,i,1.0,True,568.4999999701977,34.0,61.0,40.0,234.02179735627843,[],"[768, 432]",ColorTask,78.0,62.0,,,HRV,HRV_0236,2022-11-30 19:24:23
,wl-rdm,181,610995,0.0-8.62-0.62,1.0,177.0,,,,,,,[],False,,,,,,,53.2,0.0,u,0.0,True,956.0999999940395,58.0,61.0,40.0,338.37739542856684,[],"[768, 432]",ColorTask,79.0,63.0,,,HRV,HRV_0236,2022-11-30 19:24:23
,wl-rdm,182,612946,0.0-8.63-0.63,1.0,178.0,,,,,,,[],False,,,,,,,87.9,0.0,u,0.0,True,638.0,39.0,61.0,40.0,241.6524016112824,[],"[768, 432]",ColorTask,80.0,64.0,,,HRV,HRV_0236,2022-11-30 19:24:23
,wl-rdm,183,615180,0.0-8.64-0.64,1.0,179.0,,,,,,,[],False,,,,,,,62.5,1.0,i,1.0,True,838.5999999940395,51.0,61.0,40.0,327.5481662085816,[],"[768, 432]",ColorTask,81.0,65.0,,,HRV,HRV_0236,2022-11-30 19:24:23
,wl-rdm,184,617532,0.0-8.65-0.65,1.0,180.0,,,,,,,[],False,,,,,,,62.5,0.0,i,1.0,False,973.5,59.0,61.0,40.0,302.59790420005214,[],"[768, 432]",ColorTask,80.0,66.0,,,HRV,HRV_0236,2022-11-30 19:24:23
,wl-rdm,185,619749,0.0-8.66-0.66,1.0,181.0,,,,,,,[],False,,,,,,,73.6,0.0,u,0.0,True,863.3000000119209,52.0,61.0,40.0,276.9636576860397,[],"[768, 432]",ColorTask,81.0,67.0,,,HRV,HRV_0236,2022-11-30 19:24:23
,wl-rdm,186,621849,0.0-8.67-0.67,1.0,182.0,,,,,,,[],False,,,,,,,62.5,0.0,i,1.0,False,690.4000000059605,42.0,61.0,40.0,343.4755017757937,[],"[768, 432]",ColorTask,80.0,68.0,,,HRV,HRV_0236,2022-11-30 19:24:23
,wl-rdm,187,623766,0.0-8.68-0.68,1.0,183.0,,,,,,,[],False,,,,,,,87.9,1.0,i,1.0,True,625.5999999940395,38.0,61.0,40.0,218.78391877258173,[],"[768, 432]",ColorTask,81.0,69.0,,,HRV,HRV_0236,2022-11-30 19:24:23
,wl-rdm,188,625667,0.0-8.69-0.69,1.0,184.0,,,,,,,[],False,,,,,,,62.5,1.0,i,1.0,True,557.8000000119209,34.0,61.0,40.0,268.8814378153861,[],"[768, 432]",ColorTask,82.0,70.0,,,HRV,HRV_0236,2022-11-30 19:24:23
,wl-rdm,189,627518,0.0-8.70-0.70,1.0,185.0,,,,,,,[],False,,,,,,,87.9,1.0,i,1.0,True,490.19999998807907,30.0,61.0,40.0,300.4167712618721,[],"[768, 432]",ColorTask,83.0,71.0,,,HRV,HRV_0236,2022-11-30 19:24:23
,wl-rdm,190,629689,0.0-8.71-0.71,1.0,186.0,,,,,,,[],False,,,,,,,62.5,1.0,i,1.0,True,702.7999999821186,43.0,61.0,40.0,392.4634859495153,[],"[768, 432]",ColorTask,84.0,72.0,,,HRV,HRV_0236,2022-11-30 19:24:23
,wl-rdm,191,631738,0.0-8.72-0.72,1.0,187.0,,,,,,,[],False,,,,,,,53.2,0.0,u,0.0,True,597.4000000059605,36.0,61.0,40.0,399.2124813383348,[],"[768, 432]",ColorTask,85.0,73.0,,,HRV,HRV_0236,2022-11-30 19:24:23
,wl-rdm,192,634489,0.0-8.73-0.73,1.0,188.0,,,,,,,[],False,,,,,,,53.2,0.0,i,1.0,False,1371.5,83.0,61.0,40.0,292.68239305995024,[],"[768, 432]",ColorTask,84.0,74.0,,,HRV,HRV_0236,2022-11-30 19:24:23
,wl-rdm,193,636273,0.0-8.74-0.74,1.0,189.0,,,,,,,[],False,,,,,,,87.9,1.0,i,1.0,True,509.30000001192093,31.0,61.0,40.0,211.49753514408727,[],"[768, 432]",ColorTask,85.0,75.0,,,HRV,HRV_0236,2022-11-30 19:24:23
,wl-rdm,194,638323,0.0-8.75-0.75,1.0,190.0,,,,,,,[],False,,,,,,,62.5,0.0,i,1.0,False,610.0999999940395,37.0,61.0,40.0,369.0072472874708,[],"[768, 432]",ColorTask,84.0,76.0,,,HRV,HRV_0236,2022-11-30 19:24:23
,wl-rdm,195,640224,0.0-8.76-0.76,1.0,191.0,,,,,,,[],False,,,,,,,50.0,1.0,i,1.0,True,556.0999999940395,34.0,61.0,40.0,282.4301352627365,[],"[768, 432]",ColorTask,85.0,77.0,,,HRV,HRV_0236,2022-11-30 19:24:23
,wl-rdm,196,642409,0.0-8.77-0.77,1.0,192.0,,,,,,,[],False,,,,,,,53.2,1.0,u,0.0,False,838.0000000298023,51.0,61.0,40.0,279.04254676797194,[],"[768, 432]",ColorTask,84.0,78.0,,,HRV,HRV_0236,2022-11-30 19:24:23
,wl-rdm,197,644880,0.0-8.78-0.78,1.0,193.0,,,,,,,[],False,,,,,,,50.0,0.0,u,0.0,True,1155.800000011921,70.0,61.0,40.0,236.44144386625302,[],"[768, 432]",ColorTask,85.0,79.0,,,HRV,HRV_0236,2022-11-30 19:24:23
,wl-rdm,198,646859,0.0-8.79-0.79,1.0,194.0,,,,,,,[],False,,,,,,,62.5,0.0,i,1.0,False,572.5,35.0,61.0,40.0,342.32020675211277,[],"[768, 432]",ColorTask,84.0,80.0,,,HRV,HRV_0236,2022-11-30 19:24:23
,wl-rdm,199,649712,0.0-8.80-0.80,1.0,195.0,,,,,,,[],False,,,,,,,56.4,0.0,u,0.0,True,1389.800000011921,84.0,61.0,40.0,386.56582274043,[],"[768, 432]",ColorTask,85.0,81.0,,,HRV,HRV_0236,2022-11-30 19:24:23
,wl-rdm,200,652112,0.0-8.81-0.81,1.0,196.0,,,,,,,[],False,,,,,,,50.0,1.0,i,1.0,True,1057.0999999940395,64.0,61.0,40.0,267.9364680624259,[],"[768, 432]",ColorTask,86.0,82.0,,,HRV,HRV_0236,2022-11-30 19:24:23
,wl-rdm,201,654245,0.0-8.82-0.82,1.0,197.0,,,,,,,[],False,,,,,,,56.4,1.0,i,1.0,True,855.0999999940395,52.0,61.0,40.0,210.87939230146085,[],"[768, 432]",ColorTask,87.0,83.0,,,HRV,HRV_0236,2022-11-30 19:24:23
,wl-rdm,202,656113,0.0-8.83-0.83,1.0,198.0,,,,,,,[],False,,,,,,,87.9,1.0,i,1.0,True,522.8000000119209,32.0,61.0,40.0,264.4564289530749,[],"[768, 432]",ColorTask,88.0,84.0,,,HRV,HRV_0236,2022-11-30 19:24:23
,wl-rdm,203,658013,0.0-8.84-0.84,1.0,199.0,,,,,,,[],False,,,,,,,56.4,1.0,i,1.0,True,525.4000000059605,32.0,61.0,40.0,313.8595291635824,[],"[768, 432]",ColorTask,89.0,85.0,,,HRV,HRV_0236,2022-11-30 19:24:23
,wl-rdm,204,660665,0.0-8.85-0.85,1.0,200.0,,,,,,,[],False,,,,,,,50.0,0.0,u,0.0,True,1315.4000000059605,79.0,61.0,40.0,280.9978795393334,[],"[768, 432]",ColorTask,90.0,86.0,,,HRV,HRV_0236,2022-11-30 19:24:23
,wl-rdm,205,663366,0.0-8.86-0.86,1.0,201.0,,,,,,,[],False,,,,,,,56.4,1.0,i,1.0,True,1334.8999999761581,80.0,61.0,40.0,294.814300337057,[],"[768, 432]",ColorTask,91.0,87.0,,,HRV,HRV_0236,2022-11-30 19:24:23
,wl-rdm,206,665368,0.0-8.87-0.87,1.0,202.0,,,,,,,[],False,,,,,,,62.5,1.0,i,1.0,True,593.8000000119209,36.0,61.0,40.0,348.1637721412381,[],"[768, 432]",ColorTask,92.0,88.0,,,HRV,HRV_0236,2022-11-30 19:24:23
,wl-rdm,207,667267,0.0-8.88-0.88,1.0,203.0,,,,,,,[],False,,,,,,,73.6,1.0,i,1.0,True,497.5000000298023,30.0,61.0,40.0,347.3242560001165,[],"[768, 432]",ColorTask,93.0,89.0,,,HRV,HRV_0236,2022-11-30 19:24:23
,wl-rdm,208,669402,0.0-8.89-0.89,1.0,204.0,,,,,,,[],False,,,,,,,87.9,0.0,u,0.0,True,811.4000000059605,49.0,61.0,40.0,243.5989521999869,[],"[768, 432]",ColorTask,94.0,90.0,,,HRV,HRV_0236,2022-11-30 19:24:23
,wl-rdm,209,672154,0.0-8.90-0.90,1.0,205.0,,,,,,,[],False,,,,,,,53.2,1.0,i,1.0,True,1456.6000000238419,88.0,61.0,40.0,210.9115263202521,[],"[768, 432]",ColorTask,95.0,91.0,,,HRV,HRV_0236,2022-11-30 19:24:23
,wl-rdm,210,674253,0.0-8.91-0.91,1.0,206.0,,,,,,,[],False,,,,,,,87.9,0.0,u,0.0,True,792.2000000178814,48.0,61.0,40.0,227.05608284140564,[],"[768, 432]",ColorTask,96.0,92.0,,,HRV,HRV_0236,2022-11-30 19:24:23
,wl-rdm,211,676387,0.0-8.92-0.92,1.0,207.0,,,,,,,[],False,,,,,,,73.6,1.0,i,1.0,True,755.5999999940395,46.0,61.0,40.0,291.3603489982697,[],"[768, 432]",ColorTask,97.0,93.0,,,HRV,HRV_0236,2022-11-30 19:24:23
,wl-rdm,212,678455,0.0-8.93-0.93,1.0,208.0,,,,,,,[],False,,,,,,,73.6,1.0,i,1.0,True,609.8999999761581,37.0,61.0,40.0,392.8452137849822,[],"[768, 432]",ColorTask,98.0,94.0,,,HRV,HRV_0236,2022-11-30 19:24:23
,wl-rdm,213,680489,0.0-8.94-0.94,1.0,209.0,,,,,,,[],False,,,,,,,53.2,0.0,u,0.0,True,720.7999999821186,44.0,61.0,40.0,234.35808698537505,[],"[768, 432]",ColorTask,99.0,95.0,,,HRV,HRV_0236,2022-11-30 19:24:23
,wl-rdm,214,682740,0.0-8.95-0.95,1.0,210.0,,,,,,,[],False,,,,,,,56.4,1.0,i,1.0,True,935.0,56.0,61.0,40.0,247.35682796207124,[],"[768, 432]",ColorTask,100.0,96.0,,,HRV,HRV_0236,2022-11-30 19:24:23
,wl-rdm,215,685041,0.0-8.96-0.96,1.0,211.0,,,,,,,[],False,,,,,,,53.2,0.0,u,0.0,True,897.1999999880791,54.0,61.0,40.0,304.36154861913246,[],"[768, 432]",ColorTask,101.0,97.0,,,HRV,HRV_0236,2022-11-30 19:24:23
,wl-rdm,216,687075,0.0-8.97-0.97,1.0,212.0,,,,,,,[],False,,,,,,,73.6,1.0,i,1.0,True,578.7000000178814,35.0,61.0,40.0,392.52110117924656,[],"[768, 432]",ColorTask,102.0,98.0,,,HRV,HRV_0236,2022-11-30 19:24:23
,wl-rdm,217,688994,0.0-8.98-0.98,1.0,213.0,,,,,,,[],False,,,,,,,73.6,0.0,u,0.0,True,639.7000000476837,39.0,61.0,40.0,212.18483949254022,[],"[768, 432]",ColorTask,103.0,99.0,,,HRV,HRV_0236,2022-11-30 19:24:23
,wl-rdm,218,690977,0.0-8.99-0.99,1.0,214.0,,,,,,,[],False,,,,,,,87.9,0.0,u,0.0,True,704.1000000238419,43.0,61.0,40.0,207.16475833274401,[],"[768, 432]",ColorTask,104.0,100.0,,,HRV,HRV_0236,2022-11-30 19:24:23
,wl-rdm,219,692913,0.0-8.100-0.100,1.0,215.0,,,,,,,[],False,,,,,,,53.2,1.0,i,1.0,True,659.7999999821186,40.0,61.0,40.0,212.88065632999363,[],"[768, 432]",ColorTask,105.0,101.0,,,HRV,HRV_0236,2022-11-30 19:24:23
,wl-rdm,220,695283,0.0-8.101-0.101,1.0,216.0,,,,,,,[],False,,,,,,,56.4,0.0,u,0.0,True,1096.4000000059605,66.0,61.0,40.0,203.46072383838174,[],"[768, 432]",ColorTask,106.0,102.0,,,HRV,HRV_0236,2022-11-30 19:24:23
,wl-rdm,221,697164,0.0-8.102-0.102,1.0,217.0,,,,,,,[],False,,,,,,,73.6,1.0,i,1.0,True,540.5999999940395,33.0,61.0,40.0,277.8583625456704,[],"[768, 432]",ColorTask,107.0,103.0,,,HRV,HRV_0236,2022-11-30 19:24:23
,wl-rdm,222,699998,0.0-8.103-0.103,1.0,218.0,,,,,,,[],False,,,,,,,53.2,0.0,u,0.0,True,1512.7999999821186,91.0,61.0,40.0,259.77676704110337,[],"[768, 432]",ColorTask,108.0,104.0,,,HRV,HRV_0236,2022-11-30 19:24:23
,wl-rdm,223,701998,0.0-8.104-0.104,1.0,219.0,,,,,,,[],False,,,,,,,50.0,0.0,i,1.0,False,647.0,39.0,61.0,40.0,295.33753695865033,[],"[768, 432]",ColorTask,107.0,105.0,,,HRV,HRV_0236,2022-11-30 19:24:23
,wl-rdm,224,703865,0.0-8.105-0.105,1.0,220.0,,,,,,,[],False,,,,,,,87.9,1.0,u,0.0,False,572.0,35.0,61.0,40.0,204.81005807850067,[],"[768, 432]",ColorTask,106.0,106.0,,,HRV,HRV_0236,2022-11-30 19:24:23
,wl-rdm,225,706334,0.0-8.106-0.106,1.0,221.0,,,,,,,[],False,,,,,,,56.4,0.0,u,0.0,True,1172.7999999821186,71.0,61.0,40.0,226.2719700057131,[],"[768, 432]",ColorTask,107.0,107.0,,,HRV,HRV_0236,2022-11-30 19:24:23
,wl-rdm,226,708549,0.0-8.107-0.107,1.0,222.0,,,,,,,[],False,,,,,,,56.4,0.0,u,0.0,True,855.5,52.0,61.0,40.0,282.59728297289246,[],"[768, 432]",ColorTask,108.0,108.0,,,HRV,HRV_0236,2022-11-30 19:24:23
,wl-html-button-response,227,710808,0.0-9.0-0.0,,,,,,,,,,,,2253.600000023842,,0,,,,,,,,,,,,,,,,,,<h3>End of this session. Thank you!</h3><br>,['Close window'],HRV,HRV_0236,2022-11-30 19:24:23
