trialN,stimuli,question,trialStartTime,trialStartTime_UNIX,stimulus1,trialEvents,rt,receivedResponse,rating,trialEndTime,trialDuration,stimulus1Loaded,exp,subjectId,date
0,"[{'imgObject': {}, 'id': 'yogurt no spoon', 'src': '/static/foodstim60/yogurt no spoon.jpg', 'key': 'NaN', 'origWidth': 411, 'origHeight': 410, 'width': 411, 'height': 410, 'widthPercent': 0.8, 'rescaleHeight': True, 'trialN': 0, 'loaded': True, 'loadedTime': 1936.0999999940395, 'positionName': 'CENTER', 'positionCoords': [562.5, 227]}]",Rate how much you want to eat this food from 0 (least) to 10 (most).,2032.5999999940395,1669834273643,yogurt no spoon,"[{'event': 'fullscreenchange', 'details': 'fullscreenexit', 'performance time': 2177.199999988079, 'date time': 1669834273788}]",2025.0,True,2.82,4057.5999999940395,2025.0,True,HRV,HRV_0236,2022-11-30 18:52:48
1,"[{'imgObject': {}, 'id': 'cocktailshrimp', 'src': '/static/foodstim60/cocktailshrimp.jpg', 'key': 'NaN', 'origWidth': 410, 'origHeight': 410, 'width': 410, 'height': 410, 'widthPercent': 0.8, 'rescaleHeight': True, 'trialN': 1, 'loaded': True, 'loadedTime': 4062.699999988079, 'positionName': 'CENTER', 'positionCoords': [178.5, 163]}]",Rate how much you want to eat this food from 0 (least) to 10 (most).,4060.399999976158,1669834275671,cocktailshrimp,,1739.2000000178814,True,9.620000000000001,5799.5999999940395,1739.2000000178814,True,HRV,HRV_0236,2022-11-30 18:52:48
2,"[{'imgObject': {}, 'id': 'corn cob', 'src': '/static/foodstim60/corn cob.jpg', 'key': 'NaN', 'origWidth': 411, 'origHeight': 411, 'width': 411, 'height': 411, 'widthPercent': 0.8, 'rescaleHeight': True, 'trialN': 2, 'loaded': True, 'loadedTime': 5806, 'positionName': 'CENTER', 'positionCoords': [178, 162.5]}]",Rate how much you want to eat this food from 0 (least) to 10 (most).,5802.399999976158,1669834277413,corn cob,"[{'event': 'onblur', 'details': 'out of focus', 'performance time': 6815.899999976158, 'date time': 1669834278426}, {'event': 'onfocus', 'details': 'in focus', 'performance time': 10044.699999988079, 'date time': 1669834281655}]",4335.100000023842,True,1.8800000000000001,10137.5,4335.100000023842,True,HRV,HRV_0236,2022-11-30 18:52:48
3,"[{'imgObject': {}, 'id': 'omelette', 'src': '/static/foodstim60/omelette.jpg', 'key': 'NaN', 'origWidth': 410, 'origHeight': 409, 'width': 410, 'height': 409, 'widthPercent': 0.8, 'rescaleHeight': True, 'trialN': 3, 'loaded': True, 'loadedTime': 10159.5, 'positionName': 'CENTER', 'positionCoords': [178.5, 163.5]}]",Rate how much you want to eat this food from 0 (least) to 10 (most).,10154.0,1669834281764,omelette,,2141.699999988079,True,8.19,12295.699999988079,2141.699999988079,True,HRV,HRV_0236,2022-11-30 18:52:48
4,"[{'imgObject': {}, 'id': 'grilled chicken strips', 'src': '/static/foodstim60/grilled chicken strips.jpg', 'key': 'NaN', 'origWidth': 410, 'origHeight': 411, 'width': 410, 'height': 411, 'widthPercent': 0.8, 'rescaleHeight': True, 'trialN': 4, 'loaded': True, 'loadedTime': 12300, 'positionName': 'CENTER', 'positionCoords': [178.5, 162.5]}]",Rate how much you want to eat this food from 0 (least) to 10 (most).,12297.199999988079,1669834283908,grilled chicken strips,,1688.5999999940395,True,5.01,13985.799999982119,1688.5999999940395,True,HRV,HRV_0236,2022-11-30 18:52:48
5,"[{'imgObject': {}, 'id': 'burrito', 'src': '/static/foodstim60/burrito.jpg', 'key': 'NaN', 'origWidth': 410, 'origHeight': 410, 'width': 410, 'height': 410, 'widthPercent': 0.8, 'rescaleHeight': True, 'trialN': 5, 'loaded': True, 'loadedTime': 13990.5, 'positionName': 'CENTER', 'positionCoords': [178.5, 163]}]",Rate how much you want to eat this food from 0 (least) to 10 (most).,13987.299999982119,1669834285598,burrito,,959.4000000059605,True,8.74,14946.699999988079,959.4000000059605,True,HRV,HRV_0236,2022-11-30 18:52:48
6,"[{'imgObject': {}, 'id': 'tacos', 'src': '/static/foodstim60/tacos.jpg', 'key': 'NaN', 'origWidth': 411, 'origHeight': 411, 'width': 411, 'height': 411, 'widthPercent': 0.8, 'rescaleHeight': True, 'trialN': 6, 'loaded': True, 'loadedTime': 14955.5, 'positionName': 'CENTER', 'positionCoords': [178, 162.5]}]",Rate how much you want to eat this food from 0 (least) to 10 (most).,14950.59999999404,1669834286561,tacos,,871.0,True,9.05,15821.59999999404,871.0,True,HRV,HRV_0236,2022-11-30 18:52:48
7,"[{'imgObject': {}, 'id': 'apple slices', 'src': '/static/foodstim60/apple slices.jpg', 'key': 'NaN', 'origWidth': 409, 'origHeight': 410, 'width': 409, 'height': 410, 'widthPercent': 0.8, 'rescaleHeight': True, 'trialN': 7, 'loaded': True, 'loadedTime': 15827, 'positionName': 'CENTER', 'positionCoords': [179, 163]}]",Rate how much you want to eat this food from 0 (least) to 10 (most).,15823.399999976158,1669834287434,apple slices,,958.2000000178814,True,4.8500000000000005,16781.59999999404,958.2000000178814,True,HRV,HRV_0236,2022-11-30 18:52:48
8,"[{'imgObject': {}, 'id': 'turkey sandwich', 'src': '/static/foodstim60/turkey sandwich.jpg', 'key': 'NaN', 'origWidth': 409, 'origHeight': 409, 'width': 409, 'height': 409, 'widthPercent': 0.8, 'rescaleHeight': True, 'trialN': 8, 'loaded': True, 'loadedTime': 16786.5, 'positionName': 'CENTER', 'positionCoords': [179, 163.5]}]",Rate how much you want to eat this food from 0 (least) to 10 (most).,16783.09999999404,1669834288394,turkey sandwich,,1272.5,True,7.46,18055.59999999404,1272.5,True,HRV,HRV_0236,2022-11-30 18:52:48
9,"[{'imgObject': {}, 'id': 'orange slices', 'src': '/static/foodstim60/orange slices.jpg', 'key': 'NaN', 'origWidth': 409, 'origHeight': 410, 'width': 409, 'height': 410, 'widthPercent': 0.8, 'rescaleHeight': True, 'trialN': 9, 'loaded': True, 'loadedTime': 18060.79999998212, 'positionName': 'CENTER', 'positionCoords': [179, 163]}]",Rate how much you want to eat this food from 0 (least) to 10 (most).,18057.5,1669834289668,orange slices,,1180.0999999940395,True,6.1000000000000005,19237.59999999404,1180.0999999940395,True,HRV,HRV_0236,2022-11-30 18:52:48
10,"[{'imgObject': {}, 'id': 'salad w chicken', 'src': '/static/foodstim60/salad w chicken.jpg', 'key': 'NaN', 'origWidth': 411, 'origHeight': 411, 'width': 411, 'height': 411, 'widthPercent': 0.8, 'rescaleHeight': True, 'trialN': 10, 'loaded': True, 'loadedTime': 19242.5, 'positionName': 'CENTER', 'positionCoords': [178, 162.5]}]",Rate how much you want to eat this food from 0 (least) to 10 (most).,19239.29999998212,1669834290850,salad w chicken,,1518.2000000178814,True,7.54,20757.5,1518.2000000178814,True,HRV,HRV_0236,2022-11-30 18:52:48
11,"[{'imgObject': {}, 'id': 'blackbeanswithrice', 'src': '/static/foodstim60/blackbeanswithrice.jpg', 'key': 'NaN', 'origWidth': 410, 'origHeight': 410, 'width': 410, 'height': 410, 'widthPercent': 0.8, 'rescaleHeight': True, 'trialN': 11, 'loaded': True, 'loadedTime': 20761.79999998212, 'positionName': 'CENTER', 'positionCoords': [178.5, 163]}]",Rate how much you want to eat this food from 0 (least) to 10 (most).,20759.0,1669834292369,blackbeanswithrice,,1359.3999999761581,True,0.76,22118.399999976158,1359.3999999761581,True,HRV,HRV_0236,2022-11-30 18:52:48
12,"[{'imgObject': {}, 'id': 'fruitsalad', 'src': '/static/foodstim60/fruitsalad.jpg', 'key': 'NaN', 'origWidth': 410, 'origHeight': 410, 'width': 410, 'height': 410, 'widthPercent': 0.8, 'rescaleHeight': True, 'trialN': 12, 'loaded': True, 'loadedTime': 22123.399999976158, 'positionName': 'CENTER', 'positionCoords': [178.5, 163]}]",Rate how much you want to eat this food from 0 (least) to 10 (most).,22120.0,1669834293730,fruitsalad,,2131.699999988079,True,6.16,24251.69999998808,2131.699999988079,True,HRV,HRV_0236,2022-11-30 18:52:48
13,"[{'imgObject': {}, 'id': 'avocado', 'src': '/static/foodstim60/avocado.jpg', 'key': 'NaN', 'origWidth': 409, 'origHeight': 409, 'width': 409, 'height': 409, 'widthPercent': 0.8, 'rescaleHeight': True, 'trialN': 13, 'loaded': True, 'loadedTime': 24256.899999976158, 'positionName': 'CENTER', 'positionCoords': [179, 163.5]}]",Rate how much you want to eat this food from 0 (least) to 10 (most).,24253.59999999404,1669834295864,avocado,,1080.4000000059605,True,8.16,25334.0,1080.4000000059605,True,HRV,HRV_0236,2022-11-30 18:52:48
14,"[{'imgObject': {}, 'id': 'cherry tomato', 'src': '/static/foodstim60/cherry tomato.jpg', 'key': 'NaN', 'origWidth': 410, 'origHeight': 410, 'width': 410, 'height': 410, 'widthPercent': 0.8, 'rescaleHeight': True, 'trialN': 14, 'loaded': True, 'loadedTime': 25338.79999998212, 'positionName': 'CENTER', 'positionCoords': [178.5, 163]}]",Rate how much you want to eat this food from 0 (least) to 10 (most).,25335.79999998212,1669834296946,cherry tomato,,1119.800000011921,True,2.48,26455.59999999404,1119.800000011921,True,HRV,HRV_0236,2022-11-30 18:52:48
15,"[{'imgObject': {}, 'id': 'rigatoni and sauce', 'src': '/static/foodstim60/rigatoni and sauce.jpg', 'key': 'NaN', 'origWidth': 410, 'origHeight': 411, 'width': 410, 'height': 411, 'widthPercent': 0.8, 'rescaleHeight': True, 'trialN': 15, 'loaded': True, 'loadedTime': 26461.59999999404, 'positionName': 'CENTER', 'positionCoords': [178.5, 162.5]}]",Rate how much you want to eat this food from 0 (least) to 10 (most).,26457.69999998808,1669834298068,rigatoni and sauce,,1263.9000000059605,True,8.24,27721.59999999404,1263.9000000059605,True,HRV,HRV_0236,2022-11-30 18:52:48
16,"[{'imgObject': {}, 'id': 'Grapes', 'src': '/static/foodstim60/Grapes.jpg', 'key': 'NaN', 'origWidth': 411, 'origHeight': 411, 'width': 411, 'height': 411, 'widthPercent': 0.8, 'rescaleHeight': True, 'trialN': 16, 'loaded': True, 'loadedTime': 27728.69999998808, 'positionName': 'CENTER', 'positionCoords': [178, 162.5]}]",Rate how much you want to eat this food from 0 (least) to 10 (most).,27724.0,1669834299334,Grapes,,1288.2999999821186,True,4.64,29012.29999998212,1288.2999999821186,True,HRV,HRV_0236,2022-11-30 18:52:48
17,"[{'imgObject': {}, 'id': 'turkeysandwich', 'src': '/static/foodstim60/turkeysandwich.jpg', 'key': 'NaN', 'origWidth': 409, 'origHeight': 409, 'width': 409, 'height': 409, 'widthPercent': 0.8, 'rescaleHeight': True, 'trialN': 17, 'loaded': True, 'loadedTime': 29021, 'positionName': 'CENTER', 'positionCoords': [179, 163.5]}]",Rate how much you want to eat this food from 0 (least) to 10 (most).,29014.5,1669834300625,turkeysandwich,,1325.3999999761581,True,5.84,30339.899999976158,1325.3999999761581,True,HRV,HRV_0236,2022-11-30 18:52:48
18,"[{'imgObject': {}, 'id': 'ice cream sundae 002', 'src': '/static/foodstim60/ice cream sundae 002.jpg', 'key': 'NaN', 'origWidth': 409, 'origHeight': 409, 'width': 409, 'height': 409, 'widthPercent': 0.8, 'rescaleHeight': True, 'trialN': 18, 'loaded': True, 'loadedTime': 30345.09999999404, 'positionName': 'CENTER', 'positionCoords': [179, 163.5]}]",Rate how much you want to eat this food from 0 (least) to 10 (most).,30341.69999998808,1669834301952,ice cream sundae 002,,1142.800000011921,True,8.24,31484.5,1142.800000011921,True,HRV,HRV_0236,2022-11-30 18:52:48
19,"[{'imgObject': {}, 'id': 'bagel and cc', 'src': '/static/foodstim60/bagel and cc.jpg', 'key': 'NaN', 'origWidth': 410, 'origHeight': 410, 'width': 410, 'height': 410, 'widthPercent': 0.8, 'rescaleHeight': True, 'trialN': 19, 'loaded': True, 'loadedTime': 31490.899999976158, 'positionName': 'CENTER', 'positionCoords': [178.5, 163]}]",Rate how much you want to eat this food from 0 (least) to 10 (most).,31487.69999998808,1669834303098,bagel and cc,,1133.9000000059605,True,6.5200000000000005,32621.59999999404,1133.9000000059605,True,HRV,HRV_0236,2022-11-30 18:52:48
20,"[{'imgObject': {}, 'id': 'veggieswithdip', 'src': '/static/foodstim60/veggieswithdip.jpg', 'key': 'NaN', 'origWidth': 409, 'origHeight': 409, 'width': 409, 'height': 409, 'widthPercent': 0.8, 'rescaleHeight': True, 'trialN': 20, 'loaded': True, 'loadedTime': 32627.19999998808, 'positionName': 'CENTER', 'positionCoords': [179, 163.5]}]",Rate how much you want to eat this food from 0 (least) to 10 (most).,32623.59999999404,1669834304234,veggieswithdip,,1248.0,True,4.12,33871.59999999404,1248.0,True,HRV,HRV_0236,2022-11-30 18:52:48
21,"[{'imgObject': {}, 'id': 'cantaloupe', 'src': '/static/foodstim60/cantaloupe.jpg', 'key': 'NaN', 'origWidth': 409, 'origHeight': 409, 'width': 409, 'height': 409, 'widthPercent': 0.8, 'rescaleHeight': True, 'trialN': 21, 'loaded': True, 'loadedTime': 33876, 'positionName': 'CENTER', 'positionCoords': [179, 163.5]}]",Rate how much you want to eat this food from 0 (least) to 10 (most).,33873.29999998212,1669834305484,cantaloupe,,1266.300000011921,True,5.11,35139.59999999404,1266.300000011921,True,HRV,HRV_0236,2022-11-30 18:52:48
22,"[{'imgObject': {}, 'id': 'strawberries', 'src': '/static/foodstim60/strawberries.jpg', 'key': 'NaN', 'origWidth': 410, 'origHeight': 410, 'width': 410, 'height': 410, 'widthPercent': 0.8, 'rescaleHeight': True, 'trialN': 22, 'loaded': True, 'loadedTime': 35145.69999998808, 'positionName': 'CENTER', 'positionCoords': [178.5, 163]}]",Rate how much you want to eat this food from 0 (least) to 10 (most).,35141.79999998212,1669834306752,strawberries,,1188.300000011921,True,7.69,36330.09999999404,1188.300000011921,True,HRV,HRV_0236,2022-11-30 18:52:48
23,"[{'imgObject': {}, 'id': 'raspberries', 'src': '/static/foodstim60/raspberries.jpg', 'key': 'NaN', 'origWidth': 411, 'origHeight': 411, 'width': 411, 'height': 411, 'widthPercent': 0.8, 'rescaleHeight': True, 'trialN': 23, 'loaded': True, 'loadedTime': 36335.19999998808, 'positionName': 'CENTER', 'positionCoords': [178, 162.5]}]",Rate how much you want to eat this food from 0 (least) to 10 (most).,36332.29999998212,1669834307943,raspberries,,1195.300000011921,True,2.61,37527.59999999404,1195.300000011921,True,HRV,HRV_0236,2022-11-30 18:52:48
24,"[{'imgObject': {}, 'id': 'eggs', 'src': '/static/foodstim60/eggs.jpg', 'key': 'NaN', 'origWidth': 409, 'origHeight': 409, 'width': 409, 'height': 409, 'widthPercent': 0.8, 'rescaleHeight': True, 'trialN': 24, 'loaded': True, 'loadedTime': 37531.89999997616, 'positionName': 'CENTER', 'positionCoords': [179, 163.5]}]",Rate how much you want to eat this food from 0 (least) to 10 (most).,37529.09999999404,1669834309140,eggs,,1143.199999988079,True,6.890000000000001,38672.29999998212,1143.199999988079,True,HRV,HRV_0236,2022-11-30 18:52:48
25,"[{'imgObject': {}, 'id': 'eggsalad', 'src': '/static/foodstim60/eggsalad.jpg', 'key': 'NaN', 'origWidth': 410, 'origHeight': 409, 'width': 410, 'height': 409, 'widthPercent': 0.8, 'rescaleHeight': True, 'trialN': 25, 'loaded': True, 'loadedTime': 38676.79999998212, 'positionName': 'CENTER', 'positionCoords': [178.5, 163.5]}]",Rate how much you want to eat this food from 0 (least) to 10 (most).,38673.79999998212,1669834310285,eggsalad,,1050.0999999940395,True,7.46,39723.89999997616,1050.0999999940395,True,HRV,HRV_0236,2022-11-30 18:52:48
26,"[{'imgObject': {}, 'id': 'cherries', 'src': '/static/foodstim60/cherries.jpg', 'key': 'NaN', 'origWidth': 410, 'origHeight': 411, 'width': 410, 'height': 411, 'widthPercent': 0.8, 'rescaleHeight': True, 'trialN': 26, 'loaded': True, 'loadedTime': 39728.39999997616, 'positionName': 'CENTER', 'positionCoords': [178.5, 162.5]}]",Rate how much you want to eat this food from 0 (least) to 10 (most).,39725.39999997616,1669834311336,cherries,,1442.800000011921,True,2.71,41168.19999998808,1442.800000011921,True,HRV,HRV_0236,2022-11-30 18:52:48
27,"[{'imgObject': {}, 'id': 'pear', 'src': '/static/foodstim60/pear.jpg', 'key': 'NaN', 'origWidth': 411, 'origHeight': 410, 'width': 411, 'height': 410, 'widthPercent': 0.8, 'rescaleHeight': True, 'trialN': 27, 'loaded': True, 'loadedTime': 41175, 'positionName': 'CENTER', 'positionCoords': [178, 163]}]",Rate how much you want to eat this food from 0 (least) to 10 (most).,41169.69999998808,1669834312780,pear,,1196.5,True,4.88,42366.19999998808,1196.5,True,HRV,HRV_0236,2022-11-30 18:52:48
28,"[{'imgObject': {}, 'id': 'froot loops w milk', 'src': '/static/foodstim60/froot loops w milk.jpg', 'key': 'NaN', 'origWidth': 410, 'origHeight': 410, 'width': 410, 'height': 410, 'widthPercent': 0.8, 'rescaleHeight': True, 'trialN': 28, 'loaded': True, 'loadedTime': 42370.59999999404, 'positionName': 'CENTER', 'positionCoords': [178.5, 163]}]",Rate how much you want to eat this food from 0 (least) to 10 (most).,42367.59999999404,1669834313978,froot loops w milk,,1426.199999988079,True,7.67,43793.79999998212,1426.199999988079,True,HRV,HRV_0236,2022-11-30 18:52:48
29,"[{'imgObject': {}, 'id': 'lox', 'src': '/static/foodstim60/lox.jpg', 'key': 'NaN', 'origWidth': 410, 'origHeight': 411, 'width': 410, 'height': 411, 'widthPercent': 0.8, 'rescaleHeight': True, 'trialN': 29, 'loaded': True, 'loadedTime': 43798.29999998212, 'positionName': 'CENTER', 'positionCoords': [178.5, 162.5]}]",Rate how much you want to eat this food from 0 (least) to 10 (most).,43795.09999999404,1669834315406,lox,,1120.9000000059605,True,6.83,44916.0,1120.9000000059605,True,HRV,HRV_0236,2022-11-30 18:52:48
30,"[{'imgObject': {}, 'id': 'blueberries', 'src': '/static/foodstim60/blueberries.jpg', 'key': 'NaN', 'origWidth': 411, 'origHeight': 411, 'width': 411, 'height': 411, 'widthPercent': 0.8, 'rescaleHeight': True, 'trialN': 30, 'loaded': True, 'loadedTime': 44921.5, 'positionName': 'CENTER', 'positionCoords': [178, 162.5]}]",Rate how much you want to eat this food from 0 (least) to 10 (most).,44918.0,1669834316529,blueberries,,1301.699999988079,True,7.51,46219.69999998808,1301.699999988079,True,HRV,HRV_0236,2022-11-30 18:52:48
31,"[{'imgObject': {}, 'id': 'granola w milk', 'src': '/static/foodstim60/granola w milk.jpg', 'key': 'NaN', 'origWidth': 410, 'origHeight': 410, 'width': 410, 'height': 410, 'widthPercent': 0.8, 'rescaleHeight': True, 'trialN': 31, 'loaded': True, 'loadedTime': 46227.79999998212, 'positionName': 'CENTER', 'positionCoords': [178.5, 163]}]",Rate how much you want to eat this food from 0 (least) to 10 (most).,46221.69999998808,1669834317832,granola w milk,,1458.199999988079,True,0.16,47679.89999997616,1458.199999988079,True,HRV,HRV_0236,2022-11-30 18:52:48
32,"[{'imgObject': {}, 'id': 'burger', 'src': '/static/foodstim60/burger.jpg', 'key': 'NaN', 'origWidth': 409, 'origHeight': 409, 'width': 409, 'height': 409, 'widthPercent': 0.8, 'rescaleHeight': True, 'trialN': 32, 'loaded': True, 'loadedTime': 47685.09999999404, 'positionName': 'CENTER', 'positionCoords': [179, 163.5]}]",Rate how much you want to eat this food from 0 (least) to 10 (most).,47681.29999998212,1669834319292,burger,,1372.4000000059605,True,1.46,49053.69999998808,1372.4000000059605,True,HRV,HRV_0236,2022-11-30 18:52:48
33,"[{'imgObject': {}, 'id': 'sweetpotato', 'src': '/static/foodstim60/sweetpotato.jpg', 'key': 'NaN', 'origWidth': 410, 'origHeight': 410, 'width': 410, 'height': 410, 'widthPercent': 0.8, 'rescaleHeight': True, 'trialN': 33, 'loaded': True, 'loadedTime': 49057.79999998212, 'positionName': 'CENTER', 'positionCoords': [178.5, 163]}]",Rate how much you want to eat this food from 0 (least) to 10 (most).,49055.09999999404,1669834320666,sweetpotato,,1034.7999999821186,True,2.3000000000000003,50089.89999997616,1034.7999999821186,True,HRV,HRV_0236,2022-11-30 18:52:48
34,"[{'imgObject': {}, 'id': 'luckycharms', 'src': '/static/foodstim60/luckycharms.jpg', 'key': 'NaN', 'origWidth': 410, 'origHeight': 409, 'width': 410, 'height': 409, 'widthPercent': 0.8, 'rescaleHeight': True, 'trialN': 34, 'loaded': True, 'loadedTime': 50096, 'positionName': 'CENTER', 'positionCoords': [178.5, 163.5]}]",Rate how much you want to eat this food from 0 (least) to 10 (most).,50091.29999998212,1669834321702,luckycharms,,1512.9000000059605,True,5.95,51604.19999998808,1512.9000000059605,True,HRV,HRV_0236,2022-11-30 18:52:48
35,"[{'imgObject': {}, 'id': 'chickenfingers', 'src': '/static/foodstim60/chickenfingers.jpg', 'key': 'NaN', 'origWidth': 410, 'origHeight': 410, 'width': 410, 'height': 410, 'widthPercent': 0.8, 'rescaleHeight': True, 'trialN': 35, 'loaded': True, 'loadedTime': 51608.79999998212, 'positionName': 'CENTER', 'positionCoords': [178.5, 163]}]",Rate how much you want to eat this food from 0 (least) to 10 (most).,51605.69999998808,1669834323216,chickenfingers,,1326.5,True,9.31,52932.19999998808,1326.5,True,HRV,HRV_0236,2022-11-30 18:52:48
36,"[{'imgObject': {}, 'id': 'shreddedwheatwithmilk', 'src': '/static/foodstim60/shreddedwheatwithmilk.jpg', 'key': 'NaN', 'origWidth': 410, 'origHeight': 410, 'width': 410, 'height': 410, 'widthPercent': 0.8, 'rescaleHeight': True, 'trialN': 36, 'loaded': True, 'loadedTime': 52937.09999999404, 'positionName': 'CENTER', 'positionCoords': [178.5, 163]}]",Rate how much you want to eat this food from 0 (least) to 10 (most).,52933.79999998212,1669834324544,shreddedwheatwithmilk,,1639.800000011921,True,3.94,54573.59999999404,1639.800000011921,True,HRV,HRV_0236,2022-11-30 18:52:48
37,"[{'imgObject': {}, 'id': 'roastedpotatoes', 'src': '/static/foodstim60/roastedpotatoes.jpg', 'key': 'NaN', 'origWidth': 409, 'origHeight': 410, 'width': 409, 'height': 410, 'widthPercent': 0.8, 'rescaleHeight': True, 'trialN': 37, 'loaded': True, 'loadedTime': 54580.79999998212, 'positionName': 'CENTER', 'positionCoords': [179, 163]}]",Rate how much you want to eat this food from 0 (least) to 10 (most).,54575.59999999404,1669834326186,roastedpotatoes,,1634.199999988079,True,8.03,56209.79999998212,1634.199999988079,True,HRV,HRV_0236,2022-11-30 18:52:48
38,"[{'imgObject': {}, 'id': 'hotdog w must', 'src': '/static/foodstim60/hotdog w must.jpg', 'key': 'NaN', 'origWidth': 409, 'origHeight': 409, 'width': 409, 'height': 409, 'widthPercent': 0.8, 'rescaleHeight': True, 'trialN': 38, 'loaded': True, 'loadedTime': 56217.29999998212, 'positionName': 'CENTER', 'positionCoords': [179, 163.5]}]",Rate how much you want to eat this food from 0 (least) to 10 (most).,56213.09999999404,1669834327824,hotdog w must,,1149.5999999940395,True,7.75,57362.69999998808,1149.5999999940395,True,HRV,HRV_0236,2022-11-30 18:52:48
39,"[{'imgObject': {}, 'id': 'fried eggs', 'src': '/static/foodstim60/fried eggs.jpg', 'key': 'NaN', 'origWidth': 410, 'origHeight': 410, 'width': 410, 'height': 410, 'widthPercent': 0.8, 'rescaleHeight': True, 'trialN': 39, 'loaded': True, 'loadedTime': 57367.79999998212, 'positionName': 'CENTER', 'positionCoords': [178.5, 163]}]",Rate how much you want to eat this food from 0 (least) to 10 (most).,57364.69999998808,1669834328975,fried eggs,,1171.0,True,7.25,58535.69999998808,1171.0,True,HRV,HRV_0236,2022-11-30 18:52:48
40,"[{'imgObject': {}, 'id': 'baked potato', 'src': '/static/foodstim60/baked potato.jpg', 'key': 'NaN', 'origWidth': 409, 'origHeight': 410, 'width': 409, 'height': 410, 'widthPercent': 0.8, 'rescaleHeight': True, 'trialN': 40, 'loaded': True, 'loadedTime': 58540.69999998808, 'positionName': 'CENTER', 'positionCoords': [179, 163]}]",Rate how much you want to eat this food from 0 (least) to 10 (most).,58537.59999999404,1669834330148,baked potato,,1166.2999999821186,True,1.77,59703.89999997616,1166.2999999821186,True,HRV,HRV_0236,2022-11-30 18:52:48
41,"[{'imgObject': {}, 'id': 'rigatoni', 'src': '/static/foodstim60/rigatoni.jpg', 'key': 'NaN', 'origWidth': 411, 'origHeight': 411, 'width': 411, 'height': 411, 'widthPercent': 0.8, 'rescaleHeight': True, 'trialN': 41, 'loaded': True, 'loadedTime': 59708.59999999404, 'positionName': 'CENTER', 'positionCoords': [178, 162.5]}]",Rate how much you want to eat this food from 0 (least) to 10 (most).,59705.5,1669834331316,rigatoni,,1550.0999999940395,True,6.55,61255.59999999404,1550.0999999940395,True,HRV,HRV_0236,2022-11-30 18:52:48
42,"[{'imgObject': {}, 'id': 'mac & cheese', 'src': '/static/foodstim60/mac & cheese.jpg', 'key': 'NaN', 'origWidth': 410, 'origHeight': 410, 'width': 410, 'height': 410, 'widthPercent': 0.8, 'rescaleHeight': True, 'trialN': 42, 'loaded': True, 'loadedTime': 61260.19999998808, 'positionName': 'CENTER', 'positionCoords': [178.5, 163]}]",Rate how much you want to eat this food from 0 (least) to 10 (most).,61257.0,1669834332868,mac & cheese,,1441.2999999821186,True,9.31,62698.29999998212,1441.2999999821186,True,HRV,HRV_0236,2022-11-30 18:52:48
43,"[{'imgObject': {}, 'id': 'mashed potato', 'src': '/static/foodstim60/mashed potato.jpg', 'key': 'NaN', 'origWidth': 409, 'origHeight': 409, 'width': 409, 'height': 409, 'widthPercent': 0.8, 'rescaleHeight': True, 'trialN': 43, 'loaded': True, 'loadedTime': 62702.59999999404, 'positionName': 'CENTER', 'positionCoords': [179, 163.5]}]",Rate how much you want to eat this food from 0 (least) to 10 (most).,62699.79999998212,1669834334310,mashed potato,,1587.800000011921,True,3.7600000000000002,64287.59999999404,1587.800000011921,True,HRV,HRV_0236,2022-11-30 18:52:48
44,"[{'imgObject': {}, 'id': 'Tribe humus pita', 'src': '/static/foodstim60/Tribe humus pita.jpg', 'key': 'NaN', 'origWidth': 411, 'origHeight': 411, 'width': 411, 'height': 411, 'widthPercent': 0.8, 'rescaleHeight': True, 'trialN': 44, 'loaded': True, 'loadedTime': 64291.19999998808, 'positionName': 'CENTER', 'positionCoords': [178, 162.5]}]",Rate how much you want to eat this food from 0 (least) to 10 (most).,64288.69999998808,1669834335899,Tribe humus pita,,1043.699999988079,True,2.61,65332.39999997616,1043.699999988079,True,HRV,HRV_0236,2022-11-30 18:52:48
45,"[{'imgObject': {}, 'id': 'raisin bran w milk', 'src': '/static/foodstim60/raisin bran w milk.jpg', 'key': 'NaN', 'origWidth': 411, 'origHeight': 411, 'width': 411, 'height': 411, 'widthPercent': 0.8, 'rescaleHeight': True, 'trialN': 45, 'loaded': True, 'loadedTime': 65337.39999997616, 'positionName': 'CENTER', 'positionCoords': [178, 162.5]}]",Rate how much you want to eat this food from 0 (least) to 10 (most).,65334.29999998212,1669834336945,raisin bran w milk,,1279.5999999940395,True,0.84,66613.89999997616,1279.5999999940395,True,HRV,HRV_0236,2022-11-30 18:52:48
46,"[{'imgObject': {}, 'id': 'popsicles', 'src': '/static/foodstim60/popsicles.jpg', 'key': 'NaN', 'origWidth': 410, 'origHeight': 410, 'width': 410, 'height': 410, 'widthPercent': 0.8, 'rescaleHeight': True, 'trialN': 46, 'loaded': True, 'loadedTime': 66620, 'positionName': 'CENTER', 'positionCoords': [178.5, 163]}]",Rate how much you want to eat this food from 0 (least) to 10 (most).,66616.89999997616,1669834338228,popsicles,,1310.800000011921,True,6.91,67927.69999998808,1310.800000011921,True,HRV,HRV_0236,2022-11-30 18:52:48
47,"[{'imgObject': {}, 'id': 'cheerios', 'src': '/static/foodstim60/cheerios.jpg', 'key': 'NaN', 'origWidth': 409, 'origHeight': 410, 'width': 409, 'height': 410, 'widthPercent': 0.8, 'rescaleHeight': True, 'trialN': 47, 'loaded': True, 'loadedTime': 67931.5, 'positionName': 'CENTER', 'positionCoords': [179, 163]}]",Rate how much you want to eat this food from 0 (least) to 10 (most).,67929.19999998808,1669834339540,cheerios,,1242.9000000059605,True,4.93,69172.09999999404,1242.9000000059605,True,HRV,HRV_0236,2022-11-30 18:52:48
48,"[{'imgObject': {}, 'id': 'chicken nuggets2', 'src': '/static/foodstim60/chicken nuggets2.jpg', 'key': 'NaN', 'origWidth': 410, 'origHeight': 409, 'width': 410, 'height': 409, 'widthPercent': 0.8, 'rescaleHeight': True, 'trialN': 48, 'loaded': True, 'loadedTime': 69177.5, 'positionName': 'CENTER', 'positionCoords': [178.5, 163.5]}]",Rate how much you want to eat this food from 0 (least) to 10 (most).,69173.79999998212,1669834340784,chicken nuggets2,,1563.7000000178814,True,9.39,70737.5,1563.7000000178814,True,HRV,HRV_0236,2022-11-30 18:52:48
49,"[{'imgObject': {}, 'id': 'kiwi', 'src': '/static/foodstim60/kiwi.jpg', 'key': 'NaN', 'origWidth': 410, 'origHeight': 410, 'width': 410, 'height': 410, 'widthPercent': 0.8, 'rescaleHeight': True, 'trialN': 49, 'loaded': True, 'loadedTime': 70741.89999997616, 'positionName': 'CENTER', 'positionCoords': [178.5, 163]}]",Rate how much you want to eat this food from 0 (least) to 10 (most).,70739.0,1669834342350,kiwi,,1380.5999999940395,True,4.9,72119.59999999404,1380.5999999940395,True,HRV,HRV_0236,2022-11-30 18:52:48
50,"[{'imgObject': {}, 'id': 'bagel plain', 'src': '/static/foodstim60/bagel plain.jpg', 'key': 'NaN', 'origWidth': 410, 'origHeight': 410, 'width': 410, 'height': 410, 'widthPercent': 0.8, 'rescaleHeight': True, 'trialN': 50, 'loaded': True, 'loadedTime': 72124.89999997616, 'positionName': 'CENTER', 'positionCoords': [178.5, 163]}]",Rate how much you want to eat this food from 0 (least) to 10 (most).,72121.5,1669834343732,bagel plain,,1388.199999988079,True,5.87,73509.69999998808,1388.199999988079,True,HRV,HRV_0236,2022-11-30 18:52:48
51,"[{'imgObject': {}, 'id': 'sushi w_condiments', 'src': '/static/foodstim60/sushi w_condiments.jpg', 'key': 'NaN', 'origWidth': 410, 'origHeight': 410, 'width': 410, 'height': 410, 'widthPercent': 0.8, 'rescaleHeight': True, 'trialN': 51, 'loaded': True, 'loadedTime': 73514.59999999404, 'positionName': 'CENTER', 'positionCoords': [178.5, 163]}]",Rate how much you want to eat this food from 0 (least) to 10 (most).,73511.5,1669834345122,sushi w_condiments,,2324.899999976158,True,9.91,75836.39999997616,2324.899999976158,True,HRV,HRV_0236,2022-11-30 18:52:48
52,"[{'imgObject': {}, 'id': 'olives', 'src': '/static/foodstim60/olives.jpg', 'key': 'NaN', 'origWidth': 410, 'origHeight': 410, 'width': 410, 'height': 410, 'widthPercent': 0.8, 'rescaleHeight': True, 'trialN': 52, 'loaded': True, 'loadedTime': 75841.09999999404, 'positionName': 'CENTER', 'positionCoords': [178.5, 163]}]",Rate how much you want to eat this food from 0 (least) to 10 (most).,75838.09999999404,1669834347449,olives,,1817.5,True,0.11,77655.59999999404,1817.5,True,HRV,HRV_0236,2022-11-30 18:52:48
53,"[{'imgObject': {}, 'id': 'mango', 'src': '/static/foodstim60/mango.jpg', 'key': 'NaN', 'origWidth': 411, 'origHeight': 411, 'width': 411, 'height': 411, 'widthPercent': 0.8, 'rescaleHeight': True, 'trialN': 53, 'loaded': True, 'loadedTime': 77660.39999997616, 'positionName': 'CENTER', 'positionCoords': [178, 162.5]}]",Rate how much you want to eat this food from 0 (least) to 10 (most).,77657.19999998808,1669834349268,mango,,1588.800000011921,True,5.84,79246.0,1588.800000011921,True,HRV,HRV_0236,2022-11-30 18:52:48
54,"[{'imgObject': {}, 'id': 'edamame', 'src': '/static/foodstim60/edamame.jpg', 'key': 'NaN', 'origWidth': 409, 'origHeight': 410, 'width': 409, 'height': 410, 'widthPercent': 0.8, 'rescaleHeight': True, 'trialN': 54, 'loaded': True, 'loadedTime': 79251.09999999404, 'positionName': 'CENTER', 'positionCoords': [179, 163]}]",Rate how much you want to eat this food from 0 (least) to 10 (most).,79247.89999997616,1669834350859,edamame,"[{'event': 'onblur', 'details': 'out of focus', 'performance time': 80168.09999999404, 'date time': 1669834351779}, {'event': 'onfocus', 'details': 'in focus', 'performance time': 88643.19999998808, 'date time': 1669834360254}]",9493.90000000596,True,2.09,88741.79999998212,9493.90000000596,True,HRV,HRV_0236,2022-11-30 18:52:48
55,"[{'imgObject': {}, 'id': 'salmon', 'src': '/static/foodstim60/salmon.jpg', 'key': 'NaN', 'origWidth': 410, 'origHeight': 409, 'width': 410, 'height': 409, 'widthPercent': 0.8, 'rescaleHeight': True, 'trialN': 55, 'loaded': True, 'loadedTime': 88748.19999998808, 'positionName': 'CENTER', 'positionCoords': [178.5, 163.5]}]",Rate how much you want to eat this food from 0 (least) to 10 (most).,88743.79999998212,1669834360354,salmon,,1320.7000000178814,True,6.21,90064.5,1320.7000000178814,True,HRV,HRV_0236,2022-11-30 18:52:48
56,"[{'imgObject': {}, 'id': 'seaweed', 'src': '/static/foodstim60/seaweed.jpg', 'key': 'NaN', 'origWidth': 410, 'origHeight': 410, 'width': 410, 'height': 410, 'widthPercent': 0.8, 'rescaleHeight': True, 'trialN': 56, 'loaded': True, 'loadedTime': 90071, 'positionName': 'CENTER', 'positionCoords': [178.5, 163]}]",Rate how much you want to eat this food from 0 (least) to 10 (most).,90066.79999998212,1669834361677,seaweed,,2944.9000000059605,True,3.63,93011.69999998808,2944.9000000059605,True,HRV,HRV_0236,2022-11-30 18:52:48
57,"[{'imgObject': {}, 'id': 'steak', 'src': '/static/foodstim60/steak.jpg', 'key': 'NaN', 'origWidth': 410, 'origHeight': 410, 'width': 410, 'height': 410, 'widthPercent': 0.8, 'rescaleHeight': True, 'trialN': 57, 'loaded': True, 'loadedTime': 93017.89999997616, 'positionName': 'CENTER', 'positionCoords': [178.5, 163]}]",Rate how much you want to eat this food from 0 (least) to 10 (most).,93014.69999998808,1669834364625,steak,,1462.9000000059605,True,8.53,94477.59999999404,1462.9000000059605,True,HRV,HRV_0236,2022-11-30 18:52:48
58,"[{'imgObject': {}, 'id': 'banana', 'src': '/static/foodstim60/banana.jpg', 'key': 'NaN', 'origWidth': 410, 'origHeight': 410, 'width': 410, 'height': 410, 'widthPercent': 0.8, 'rescaleHeight': True, 'trialN': 58, 'loaded': True, 'loadedTime': 94482.09999999404, 'positionName': 'CENTER', 'positionCoords': [178.5, 163]}]",Rate how much you want to eat this food from 0 (least) to 10 (most).,94479.5,1669834366090,banana,,1158.0,True,3.47,95637.5,1158.0,True,HRV,HRV_0236,2022-11-30 18:52:48
59,"[{'imgObject': {}, 'id': 'hashbrowns', 'src': '/static/foodstim60/hashbrowns.jpg', 'key': 'NaN', 'origWidth': 411, 'origHeight': 410, 'width': 411, 'height': 410, 'widthPercent': 0.8, 'rescaleHeight': True, 'trialN': 59, 'loaded': True, 'loadedTime': 95645, 'positionName': 'CENTER', 'positionCoords': [178, 163]}]",Rate how much you want to eat this food from 0 (least) to 10 (most).,95639.0,1669834367249,hashbrowns,,1050.699999988079,True,1.93,96689.69999998808,1050.699999988079,True,HRV,HRV_0236,2022-11-30 18:52:48
