success,trial_type,trial_index,time_elapsed,internal_node_id,Block,TrialNumber,TrialTime,trialTimeDiff,FPS_avg,FPS_med,FPS_mode,TrialDur,winResizeTime,rt,block,button_pressed,MotCoh,MotDir,ColCoh,Color,ChoiceKey,Choice,Accuracy,RT,nFrames,FPS,PPD,missTrial,missTrialMsg,onsetDelay,fullScreenExitTime,canvCenter,TrialType,Score,BlockTrial,stimulus,button_labels,exp,subjectId,date
True,fullscreen,0,2322,0.0-0.0,0.0,1.0,,,,,,,,,,,,,,,,,,,,,,,,,,,,,,,,HRV,HRV_0028,2022-11-30 17:55:52
,wl-check-fps,1,7318,0.0-1.0,0.0,2.0,"[2766, 2772.2, 2788.9, 2805.5, 2822.4, 2838.9, 2855.5, 2872.3, 2889, 2905.9, 2922.5, 2939.1, 2955.7, 2972.3, 2989.1, 3005.7, 3022.4, 3039.1, 3055.7, 3072.4, 3089.1, 3105.8, 3122.5, 3139.1, 3155.8, 3172.6, 3189.2, 3205.9, 3222.5, 3239.2, 3256, 3272.5, 3289.3, 3305.9, 3322.6, 3339.3, 3356, 3372.7, 3389.4, 3406.1, 3422.7, 3439.4, 3456.4, 3472.8, 3489.5, 3506.1, 3522.8, 3539.5, 3556.2, 3572.9, 3589.6, 3606.2, 3622.9, 3639.6, 3656.3, 3672.9, 3689.6, 3706.2, 3723, 3739.7, 3756.4, 3773.1, 3789.7, 3806.4, 3823.2, 3839.7, 3856.4, 3873, 3889.7, 3906.3, 3923.1, 3939.8, 3956.4, 3973.2, 3989.8, 4006.5, 4023.1, 4039.9, 4056.5, 4073.2, 4089.9, 4106.5, 4123.3, 4139.9, 4156.6, 4173.3, 4190, 4206.7, 4223.3, 4240, 4256.7, 4273.4, 4290, 4306.7, 4323.4, 4340.1, 4356.8, 4373.5, 4390.1, 4406.8, 4423.5, 4440.2, 4456.9, 4473.6, 4490.3, 4506.9, 4523.6, 4540.2, 4557, 4573.6, 4590.3, 4607, 4623.6, 4640.3, 4657, 4673.7, 4690.4, 4707.1, 4723.8, 4740.5, 4757.1, 4773.7, 4790.4, 4807.1, 4823.8, 4840.5, 4857.1, 4873.9, 4890.5, 4907.2, 4923.9, 4940.6, 4957.2, 4974, 4990.6, 5007.3, 5024, 5040.7, 5057.3, 5074, 5090.7, 5107.4, 5124.1, 5140.7, 5157.4, 5174.1, 5190.8, 5207.5, 5224.1, 5240.8, 5257.5, 5274.2, 5290.9, 5307.5, 5324.2, 5340.9, 5357.6, 5374.2, 5391, 5407.7, 5424.4, 5441, 5457.7, 5474.4, 5491.1, 5507.8, 5524.4, 5541, 5557.8, 5574.4, 5591.1, 5607.7, 5624.5, 5641.1, 5657.8, 5674.5, 5691.2, 5707.8, 5724.6, 5741.2, 5757.9, 5774.6, 5791.3, 5807.9, 5824.7, 5841.4, 5858, 5874.8, 5891.4, 5908.1, 5924.8, 5941.4, 5958.1, 5974.8, 5991.5, 6008.3, 6024.8, 6041.5, 6058.2, 6074.8, 6091.5, 6108.2, 6124.9, 6141.5, 6158.3, 6174.9, 6191.6, 6208.2, 6225, 6241.6, 6258.3, 6275.1, 6291.7, 6308.3, 6325.1, 6341.7, 6358.4, 6375.1, 6391.7, 6408.5, 6425.1, 6441.8, 6458.5, 6475.2, 6491.9, 6508.6, 6525.3, 6541.9, 6558.7, 6575.3, 6591.9, 6608.7, 6625.3, 6642, 6658.6, 6675.3, 6692, 6708.7, 6725.4, 6742.2, 6758.8, 6775.5, 6792.1, 6808.9, 6825.5, 6842.2, 6858.8, 6875.5, 6892.2, 6908.9, 6925.6, 6942.3, 6958.9, 6975.6, 6992.3, 7008.9, 7025.6, 7042.3, 7059, 7075.7, 7092.4, 7109, 7125.7, 7142.4, 7159.1, 7175.8, 7192.4, 7209.1, 7225.8, 7242.4, 7259.1, 7275.8, 7292.5, 7309.1, 7325.8, 7342.6, 7359.2, 7375.9, 7392.6, 7409.2, 7425.9, 7442.6, 7459.3, 7475.9, 7492.7, 7509.4, 7526, 7542.7, 7559.5, 7576.1, 7592.8, 7609.5, 7626.3, 7642.9, 7659.7, 7676.2, 7692.8, 7709.7, 7726.3, 7743.1]","[1, 6.2, 16.7, 16.6, 16.9, 16.5, 16.6, 16.8, 16.7, 16.9, 16.6, 16.6, 16.6, 16.6, 16.8, 16.6, 16.7, 16.7, 16.6, 16.7, 16.7, 16.7, 16.7, 16.6, 16.7, 16.8, 16.6, 16.7, 16.6, 16.7, 16.8, 16.5, 16.8, 16.6, 16.7, 16.7, 16.7, 16.7, 16.7, 16.7, 16.6, 16.7, 17, 16.4, 16.7, 16.6, 16.7, 16.7, 16.7, 16.7, 16.7, 16.6, 16.7, 16.7, 16.7, 16.6, 16.7, 16.6, 16.8, 16.7, 16.7, 16.7, 16.6, 16.7, 16.8, 16.5, 16.7, 16.6, 16.7, 16.6, 16.8, 16.7, 16.6, 16.8, 16.6, 16.7, 16.6, 16.8, 16.6, 16.7, 16.7, 16.6, 16.8, 16.6, 16.7, 16.7, 16.7, 16.7, 16.6, 16.7, 16.7, 16.7, 16.6, 16.7, 16.7, 16.7, 16.7, 16.7, 16.6, 16.7, 16.7, 16.7, 16.7, 16.7, 16.7, 16.6, 16.7, 16.6, 16.8, 16.6, 16.7, 16.7, 16.6, 16.7, 16.7, 16.7, 16.7, 16.7, 16.7, 16.7, 16.6, 16.6, 16.7, 16.7, 16.7, 16.7, 16.6, 16.8, 16.6, 16.7, 16.7, 16.7, 16.6, 16.8, 16.6, 16.7, 16.7, 16.7, 16.6, 16.7, 16.7, 16.7, 16.7, 16.6, 16.7, 16.7, 16.7, 16.7, 16.6, 16.7, 16.7, 16.7, 16.7, 16.6, 16.7, 16.7, 16.7, 16.6, 16.8, 16.7, 16.7, 16.6, 16.7, 16.7, 16.7, 16.7, 16.6, 16.6, 16.8, 16.6, 16.7, 16.6, 16.8, 16.6, 16.7, 16.7, 16.7, 16.6, 16.8, 16.6, 16.7, 16.7, 16.7, 16.6, 16.8, 16.7, 16.6, 16.8, 16.6, 16.7, 16.7, 16.6, 16.7, 16.7, 16.7, 16.8, 16.5, 16.7, 16.7, 16.6, 16.7, 16.7, 16.7, 16.6, 16.8, 16.6, 16.7, 16.6, 16.8, 16.6, 16.7, 16.8, 16.6, 16.6, 16.8, 16.6, 16.7, 16.7, 16.6, 16.8, 16.6, 16.7, 16.7, 16.7, 16.7, 16.7, 16.7, 16.6, 16.8, 16.6, 16.6, 16.8, 16.6, 16.7, 16.6, 16.7, 16.7, 16.7, 16.7, 16.8, 16.6, 16.7, 16.6, 16.8, 16.6, 16.7, 16.6, 16.7, 16.7, 16.7, 16.7, 16.7, 16.6, 16.7, 16.7, 16.6, 16.7, 16.7, 16.7, 16.7, 16.7, 16.6, 16.7, 16.7, 16.7, 16.7, 16.6, 16.7, 16.7, 16.6, 16.7, 16.7, 16.7, 16.6, 16.7, 16.8, 16.6, 16.7, 16.7, 16.6, 16.7, 16.7, 16.7, 16.6, 16.8, 16.7, 16.6, 16.7, 16.8, 16.6, 16.7, 16.7, 16.8, 16.6, 16.8, 16.5, 16.6, 16.9, 16.6, 16.8]",60.0,60.0,60.0,4994.7,[],,,,,,,,,,,,,,,,,,,,,,,,,HRV,HRV_0028,2022-11-30 17:55:52
,wl-html-keyboard-response,2,19676,0.0-2.0-0.0,0.0,3.0,,,,,,,,10345.40000000596,0.0,0,,,,,,,,,,,,,,,,,,,,,,HRV,HRV_0028,2022-11-30 17:55:52
,wl-rdm,3,26700,0.0-3.0-0.0,0.0,4.0,,,,,,,[],,,,0.0,0.0,87.9,0.0,u,0.0,True,1466.7000000178814,88.0,60.0,40.0,False,,3000.0,[],"[1280, 720]",ColorTask_Demo,,,,,HRV,HRV_0028,2022-11-30 17:55:52
,wl-rdm,4,31404,0.0-3.0-1.0,0.0,5.0,,,,,,,[],,,,0.0,0.0,87.9,1.0,i,1.0,True,645.0,39.0,60.0,40.0,False,,2000.0,[],"[1280, 720]",ColorTask_Demo,,,,,HRV,HRV_0028,2022-11-30 17:55:52
,wl-html-keyboard-response,5,36396,0.0-3.0-2.0,0.0,6.0,,,,,,,,2987.5,0.0,1,,,,,,,,,,,,,,,,,,,,,,HRV,HRV_0028,2022-11-30 17:55:52
,wl-html-keyboard-response,6,45675,0.0-4.0-0.0,0.0,7.0,,,,,,,,7275.4000000059605,0.0,0,,,,,,,,,,,,,,,,,,,,,,HRV,HRV_0028,2022-11-30 17:55:52
,wl-html-keyboard-response,7,57419,0.0-5.0-0.0,0.0,8.0,,,,,,,,9740.40000000596,0.0,0,,,,,,,,,,,,,,,,,,,,,,HRV,HRV_0028,2022-11-30 17:55:52
,wl-rdm,8,59560,0.0-6.0-0.0,0.0,9.0,,,,,,,[],,,,,,53.2,1.0,i,1.0,True,714.3999999761581,43.0,60.0,40.0,False,,373.2188709071719,[],"[1280, 720]",ColorTask,1.0,1.0,,,HRV,HRV_0028,2022-11-30 17:55:52
,wl-rdm,9,61495,0.0-6.1-0.1,0.0,10.0,,,,,,,[],,,,,,87.9,1.0,i,1.0,True,590.7999999821186,36.0,60.0,40.0,False,,270.6865533461163,[],"[1280, 720]",ColorTask,2.0,2.0,,,HRV,HRV_0028,2022-11-30 17:55:52
,wl-rdm,10,63580,0.0-6.2-0.2,0.0,11.0,,,,,,,[],,,,,,73.6,0.0,u,0.0,True,652.5,40.0,60.0,40.0,False,,357.1443183543877,[],"[1280, 720]",ColorTask,3.0,3.0,,,HRV,HRV_0028,2022-11-30 17:55:52
,wl-rdm,11,65698,0.0-6.3-0.3,0.0,12.0,,,,,,,[],,,,,,73.6,0.0,u,0.0,True,770.6999999880791,47.0,60.0,40.0,False,,267.7849348193664,[],"[1280, 720]",ColorTask,4.0,4.0,,,HRV,HRV_0028,2022-11-30 17:55:52
,wl-rdm,12,67650,0.0-6.4-0.4,0.0,13.0,,,,,,,[],,,,,,50.0,1.0,u,0.0,False,662.3999999761581,40.0,60.0,40.0,False,,228.27129222787832,[],"[1280, 720]",ColorTask,3.0,5.0,,,HRV,HRV_0028,2022-11-30 17:55:52
,wl-rdm,13,69635,0.0-6.5-0.5,0.0,14.0,,,,,,,[],,,,,,56.4,0.0,u,0.0,True,661.5999999940395,40.0,60.0,40.0,False,,263.3319884801757,[],"[1280, 720]",ColorTask,4.0,6.0,,,HRV,HRV_0028,2022-11-30 17:55:52
,wl-rdm,14,71637,0.0-6.6-0.6,0.0,15.0,,,,,,,[],,,,,,50.0,1.0,i,1.0,True,723.0999999940395,44.0,60.0,40.0,False,,210.4883494616726,[],"[1280, 720]",ColorTask,5.0,7.0,,,HRV,HRV_0028,2022-11-30 17:55:52
,wl-rdm,15,73772,0.0-6.7-0.7,0.0,16.0,,,,,,,[],,,,,,50.0,0.0,i,1.0,False,702.5999999940395,43.0,60.0,40.0,False,,365.0539033272818,[],"[1280, 720]",ColorTask,4.0,8.0,,,HRV,HRV_0028,2022-11-30 17:55:52
,wl-rdm,16,75823,0.0-6.8-0.8,0.0,17.0,,,,,,,[],,,,,,56.4,1.0,u,0.0,False,690.3999999761581,42.0,60.0,40.0,False,,284.7554923349244,[],"[1280, 720]",ColorTask,3.0,9.0,,,HRV,HRV_0028,2022-11-30 17:55:52
,wl-rdm,17,77875,0.0-6.9-0.9,0.0,18.0,,,,,,,[],,,,,,53.2,0.0,i,1.0,False,636.7000000178814,39.0,60.0,40.0,False,,333.8066850692064,[],"[1280, 720]",ColorTask,2.0,10.0,,,HRV,HRV_0028,2022-11-30 17:55:52
,wl-rdm,18,79760,0.0-6.10-0.10,0.0,19.0,,,,,,,[],,,,,,53.2,1.0,i,1.0,True,589.7999999821186,36.0,60.0,40.0,False,,221.64416309958312,[],"[1280, 720]",ColorTask,3.0,11.0,,,HRV,HRV_0028,2022-11-30 17:55:52
,wl-rdm,19,81845,0.0-6.11-0.11,0.0,20.0,,,,,,,[],,,,,,87.9,0.0,u,0.0,True,634.5999999940395,39.0,60.0,40.0,False,,368.50386099259936,[],"[1280, 720]",ColorTask,4.0,12.0,,,HRV,HRV_0028,2022-11-30 17:55:52
,wl-rdm,20,84013,0.0-6.12-0.12,0.0,21.0,,,,,,,[],,,,,,56.4,0.0,i,1.0,False,888.3999999761581,54.0,60.0,40.0,False,,203.35784202217891,[],"[1280, 720]",ColorTask,3.0,13.0,,,HRV,HRV_0028,2022-11-30 17:55:52
,wl-rdm,21,86249,0.0-6.13-0.13,0.0,22.0,,,,,,,[],,,,,,50.0,0.0,i,1.0,False,822.6000000238419,50.0,60.0,40.0,False,,340.98966932229854,[],"[1280, 720]",ColorTask,2.0,14.0,,,HRV,HRV_0028,2022-11-30 17:55:52
,wl-rdm,22,88651,0.0-6.14-0.14,0.0,23.0,,,,,,,[],,,,,,50.0,1.0,i,1.0,True,1021.0,62.0,60.0,40.0,False,,304.44565368518,[],"[1280, 720]",ColorTask,3.0,15.0,,,HRV,HRV_0028,2022-11-30 17:55:52
,wl-rdm,23,91103,0.0-6.15-0.15,0.0,24.0,,,,,,,[],,,,,,53.2,0.0,i,1.0,False,1133.0000000298023,68.0,60.0,40.0,False,,263.62640431914804,[],"[1280, 720]",ColorTask,2.0,16.0,,,HRV,HRV_0028,2022-11-30 17:55:52
,wl-rdm,24,93121,0.0-6.16-0.16,0.0,25.0,,,,,,,[],,,,,,73.6,0.0,u,0.0,True,747.0,45.0,60.0,40.0,False,,202.56530465005181,[],"[1280, 720]",ColorTask,3.0,17.0,,,HRV,HRV_0028,2022-11-30 17:55:52
,wl-rdm,25,95373,0.0-6.17-0.17,0.0,26.0,,,,,,,[],,,,,,50.0,0.0,i,1.0,False,914.2999999821186,55.0,60.0,40.0,False,,274.3475376760039,[],"[1280, 720]",ColorTask,2.0,18.0,,,HRV,HRV_0028,2022-11-30 17:55:52
,wl-rdm,26,97491,0.0-6.18-0.18,0.0,27.0,,,,,,,[],,,,,,73.6,1.0,i,1.0,True,736.5,45.0,60.0,40.0,False,,312.72500400196395,[],"[1280, 720]",ColorTask,3.0,19.0,,,HRV,HRV_0028,2022-11-30 17:55:52
,wl-rdm,27,99810,0.0-6.19-0.19,0.0,28.0,,,,,,,[],,,,,,62.5,0.0,u,0.0,True,1029.800000011921,62.0,60.0,40.0,False,,219.2384862293158,[],"[1280, 720]",ColorTask,4.0,20.0,,,HRV,HRV_0028,2022-11-30 17:55:52
,wl-rdm,28,101845,0.0-6.20-0.20,0.0,29.0,,,,,,,[],,,,,,73.6,1.0,i,1.0,True,751.7000000178814,46.0,60.0,40.0,False,,200.78261967300787,[],"[1280, 720]",ColorTask,5.0,21.0,,,HRV,HRV_0028,2022-11-30 17:55:52
,wl-rdm,29,104464,0.0-6.21-0.21,0.0,30.0,,,,,,,[],,,,,,56.4,1.0,i,1.0,True,1224.0,74.0,60.0,40.0,False,,328.0076152636718,[],"[1280, 720]",ColorTask,6.0,22.0,,,HRV,HRV_0028,2022-11-30 17:55:52
,wl-rdm,30,107016,0.0-6.22-0.22,0.0,31.0,,,,,,,[],,,,,,53.2,1.0,u,0.0,False,1165.2000000178814,70.0,60.0,40.0,False,,321.98547351012604,[],"[1280, 720]",ColorTask,5.0,23.0,,,HRV,HRV_0028,2022-11-30 17:55:52
,wl-rdm,31,109001,0.0-6.23-0.23,0.0,32.0,,,,,,,[],,,,,,56.4,1.0,i,1.0,True,672.5,41.0,60.0,40.0,False,,249.7019092308504,[],"[1280, 720]",ColorTask,6.0,24.0,,,HRV,HRV_0028,2022-11-30 17:55:52
,wl-rdm,32,111120,0.0-6.24-0.24,0.0,33.0,,,,,,,[],,,,,,62.5,1.0,i,1.0,True,724.2000000178814,44.0,60.0,40.0,False,,328.7232316627901,[],"[1280, 720]",ColorTask,7.0,25.0,,,HRV,HRV_0028,2022-11-30 17:55:52
,wl-rdm,33,113138,0.0-6.25-0.25,0.0,34.0,,,,,,,[],,,,,,73.6,0.0,u,0.0,True,638.4000000059605,39.0,60.0,40.0,False,,305.1638943538728,[],"[1280, 720]",ColorTask,8.0,26.0,,,HRV,HRV_0028,2022-11-30 17:55:52
,wl-rdm,34,115290,0.0-6.26-0.26,0.0,35.0,,,,,,,[],,,,,,62.5,0.0,u,0.0,True,696.7000000476837,42.0,60.0,40.0,False,,389.6776585078313,[],"[1280, 720]",ColorTask,9.0,27.0,,,HRV,HRV_0028,2022-11-30 17:55:52
,wl-rdm,35,117375,0.0-6.27-0.27,0.0,36.0,,,,,,,[],,,,,,87.9,0.0,u,0.0,True,666.3000000119209,40.0,60.0,40.0,False,,365.54920831985424,[],"[1280, 720]",ColorTask,10.0,28.0,,,HRV,HRV_0028,2022-11-30 17:55:52
,wl-rdm,36,119393,0.0-6.28-0.28,0.0,37.0,,,,,,,[],,,,,,50.0,0.0,i,1.0,False,680.5999999940395,41.0,60.0,40.0,False,,280.5106540520562,[],"[1280, 720]",ColorTask,9.0,29.0,,,HRV,HRV_0028,2022-11-30 17:55:52
,wl-rdm,37,121695,0.0-6.29-0.29,0.0,38.0,,,,,,,[],,,,,,50.0,1.0,u,0.0,False,941.6999999880791,57.0,60.0,40.0,False,,290.84450964017253,[],"[1280, 720]",ColorTask,8.0,30.0,,,HRV,HRV_0028,2022-11-30 17:55:52
,wl-rdm,38,124014,0.0-6.30-0.30,0.0,39.0,,,,,,,[],,,,,,62.5,0.0,u,0.0,True,1026.4000000059605,62.0,60.0,40.0,False,,228.45546727811046,[],"[1280, 720]",ColorTask,9.0,31.0,,,HRV,HRV_0028,2022-11-30 17:55:52
,wl-rdm,39,126315,0.0-6.31-0.31,0.0,40.0,,,,,,,[],,,,,,73.6,0.0,u,0.0,True,970.4000000059605,59.0,60.0,40.0,False,,254.03608396857086,[],"[1280, 720]",ColorTask,10.0,32.0,,,HRV,HRV_0028,2022-11-30 17:55:52
,wl-rdm,40,128684,0.0-6.32-0.32,0.0,41.0,,,,,,,[],,,,,,56.4,0.0,u,0.0,True,1061.300000011921,64.0,60.0,40.0,False,,249.3623815279782,[],"[1280, 720]",ColorTask,11.0,33.0,,,HRV,HRV_0028,2022-11-30 17:55:52
,wl-rdm,41,130586,0.0-6.33-0.33,0.0,42.0,,,,,,,[],,,,,,87.9,1.0,i,1.0,True,596.7000000178814,36.0,60.0,40.0,False,,241.6903029742776,[],"[1280, 720]",ColorTask,12.0,34.0,,,HRV,HRV_0028,2022-11-30 17:55:52
,wl-rdm,42,132854,0.0-6.34-0.34,0.0,43.0,,,,,,,[],,,,,,62.5,0.0,u,0.0,True,959.1999999880791,58.0,60.0,40.0,False,,248.9365166010084,[],"[1280, 720]",ColorTask,13.0,35.0,,,HRV,HRV_0028,2022-11-30 17:55:52
,wl-rdm,43,134906,0.0-6.35-0.35,0.0,44.0,,,,,,,[],,,,,,62.5,1.0,i,1.0,True,696.5,42.0,60.0,40.0,False,,286.1143727349922,[],"[1280, 720]",ColorTask,14.0,36.0,,,HRV,HRV_0028,2022-11-30 17:55:52
,wl-rdm,44,137358,0.0-6.36-0.36,0.0,45.0,,,,,,,[],,,,,,56.4,1.0,u,0.0,False,1051.5,64.0,60.0,40.0,False,,333.04270765792864,[],"[1280, 720]",ColorTask,13.0,37.0,,,HRV,HRV_0028,2022-11-30 17:55:52
,wl-rdm,45,139977,0.0-6.37-0.37,0.0,46.0,,,,,,,[],,,,,,56.4,1.0,i,1.0,True,1264.800000011921,76.0,60.0,40.0,False,,290.0323746220118,[],"[1280, 720]",ColorTask,14.0,38.0,,,HRV,HRV_0028,2022-11-30 17:55:52
,wl-rdm,46,142662,0.0-6.38-0.38,0.0,47.0,,,,,,,[],,,,,,53.2,0.0,i,1.0,False,1284.0999999940395,77.0,60.0,40.0,False,,347.83285567666223,[],"[1280, 720]",ColorTask,13.0,39.0,,,HRV,HRV_0028,2022-11-30 17:55:52
,wl-rdm,47,145298,0.0-6.39-0.39,0.0,48.0,,,,,,,[],,,,,,56.4,1.0,i,1.0,True,1264.0,76.0,60.0,40.0,False,,302.7030652493175,[],"[1280, 720]",ColorTask,14.0,40.0,,,HRV,HRV_0028,2022-11-30 17:55:52
,wl-rdm,48,147533,0.0-6.40-0.40,0.0,49.0,,,,,,,[],,,,,,53.2,0.0,u,0.0,True,835.5999999940395,51.0,60.0,40.0,False,,327.57117949734476,[],"[1280, 720]",ColorTask,15.0,41.0,,,HRV,HRV_0028,2022-11-30 17:55:52
,wl-rdm,49,149651,0.0-6.41-0.41,0.0,50.0,,,,,,,[],,,,,,62.5,0.0,u,0.0,True,770.5999999940395,47.0,60.0,40.0,False,,275.804023575707,[],"[1280, 720]",ColorTask,16.0,42.0,,,HRV,HRV_0028,2022-11-30 17:55:52
,wl-rdm,50,151720,0.0-6.42-0.42,0.0,51.0,,,,,,,[],,,,,,87.9,1.0,i,1.0,True,790.8000000119209,48.0,60.0,40.0,False,,215.74577090534476,[],"[1280, 720]",ColorTask,17.0,43.0,,,HRV,HRV_0028,2022-11-30 17:55:52
,wl-rdm,51,153721,0.0-6.43-0.43,0.0,52.0,,,,,,,[],,,,,,87.9,0.0,u,0.0,True,663.8000000119209,40.0,60.0,40.0,False,,272.6457692829075,[],"[1280, 720]",ColorTask,18.0,44.0,,,HRV,HRV_0028,2022-11-30 17:55:52
,wl-rdm,52,155706,0.0-6.44-0.44,0.0,53.0,,,,,,,[],,,,,,87.9,1.0,i,1.0,True,617.0,37.0,60.0,40.0,False,,306.59895961701125,[],"[1280, 720]",ColorTask,19.0,45.0,,,HRV,HRV_0028,2022-11-30 17:55:52
,wl-rdm,53,157808,0.0-6.45-0.45,0.0,54.0,,,,,,,[],,,,,,62.5,1.0,i,1.0,True,731.9000000059605,44.0,60.0,40.0,False,,302.61906797918095,[],"[1280, 720]",ColorTask,20.0,46.0,,,HRV,HRV_0028,2022-11-30 17:55:52
,wl-rdm,54,159810,0.0-6.46-0.46,0.0,55.0,,,,,,,[],,,,,,50.0,0.0,i,1.0,False,680.0999999940395,41.0,60.0,40.0,False,,254.7492606008826,[],"[1280, 720]",ColorTask,19.0,47.0,,,HRV,HRV_0028,2022-11-30 17:55:52
,wl-rdm,55,162095,0.0-6.47-0.47,0.0,56.0,,,,,,,[],,,,,,53.2,0.0,i,1.0,False,983.1999999880791,59.0,60.0,40.0,False,,236.48425732190702,[],"[1280, 720]",ColorTask,18.0,48.0,,,HRV,HRV_0028,2022-11-30 17:55:52
,wl-rdm,56,164664,0.0-6.48-0.48,0.0,57.0,,,,,,,[],,,,,,56.4,0.0,u,0.0,True,1249.4000000059605,75.0,60.0,40.0,False,,261.6945356399512,[],"[1280, 720]",ColorTask,19.0,49.0,,,HRV,HRV_0028,2022-11-30 17:55:52
,wl-rdm,57,166699,0.0-6.49-0.49,0.0,58.0,,,,,,,[],,,,,,87.9,1.0,i,1.0,True,754.8000000119209,46.0,60.0,40.0,False,,209.10635625903942,[],"[1280, 720]",ColorTask,20.0,50.0,,,HRV,HRV_0028,2022-11-30 17:55:52
,wl-rdm,58,168951,0.0-6.50-0.50,0.0,59.0,,,,,,,[],,,,,,50.0,1.0,u,0.0,False,917.0,55.0,60.0,40.0,False,,276.49854787029267,[],"[1280, 720]",ColorTask,19.0,51.0,,,HRV,HRV_0028,2022-11-30 17:55:52
,wl-rdm,59,172153,0.0-6.51-0.51,0.0,60.0,,,,,,,[],,,,,,50.0,0.0,i,1.0,False,1740.2999999821186,105.0,60.0,40.0,False,,398.63875197175037,[],"[1280, 720]",ColorTask,18.0,52.0,,,HRV,HRV_0028,2022-11-30 17:55:52
,wl-rdm,60,175239,0.0-6.52-0.52,0.0,61.0,,,,,,,[],,,,,,50.0,1.0,u,0.0,False,1650.3999999761581,99.0,60.0,40.0,False,,380.3397516988857,[],"[1280, 720]",ColorTask,17.0,53.0,,,HRV,HRV_0028,2022-11-30 17:55:52
,wl-rdm,61,178525,0.0-6.53-0.53,0.0,62.0,,,,,,,[],,,,,,53.2,0.0,i,1.0,False,1827.9000000059605,110.0,60.0,40.0,False,,396.71331452913535,[],"[1280, 720]",ColorTask,16.0,54.0,,,HRV,HRV_0028,2022-11-30 17:55:52
,wl-rdm,62,180443,0.0-6.54-0.54,0.0,63.0,,,,,,,[],,,,,,73.6,1.0,i,1.0,True,645.1999999880791,39.0,60.0,40.0,False,,205.95900269157985,[],"[1280, 720]",ColorTask,17.0,55.0,,,HRV,HRV_0028,2022-11-30 17:55:52
,wl-rdm,63,183179,0.0-6.55-0.55,0.0,64.0,,,,,,,[],,,,,,53.2,0.0,u,0.0,True,1271.5,77.0,60.0,40.0,False,,388.8989572705492,[],"[1280, 720]",ColorTask,18.0,56.0,,,HRV,HRV_0028,2022-11-30 17:55:52
,wl-rdm,64,185514,0.0-6.56-0.56,0.0,65.0,,,,,,,[],,,,,,73.6,0.0,u,0.0,True,896.5,54.0,60.0,40.0,False,,380.1910291283186,[],"[1280, 720]",ColorTask,19.0,57.0,,,HRV,HRV_0028,2022-11-30 17:55:52
,wl-rdm,65,187883,0.0-6.57-0.57,0.0,66.0,,,,,,,[],,,,,,50.0,1.0,u,0.0,False,1062.7999999821186,64.0,60.0,40.0,False,,248.91740577445782,[],"[1280, 720]",ColorTask,18.0,58.0,,,HRV,HRV_0028,2022-11-30 17:55:52
,wl-rdm,66,191302,0.0-6.58-0.58,0.0,67.0,,,,,,,[],,,,,,56.4,0.0,i,1.0,False,2035.800000011921,123.0,60.0,40.0,False,,314.4633992269203,[],"[1280, 720]",ColorTask,17.0,59.0,,,HRV,HRV_0028,2022-11-30 17:55:52
,wl-rdm,67,193604,0.0-6.59-0.59,0.0,68.0,,,,,,,[],,,,,,73.6,0.0,u,0.0,True,1003.2999999821186,61.0,60.0,40.0,False,,228.14965456663435,[],"[1280, 720]",ColorTask,18.0,60.0,,,HRV,HRV_0028,2022-11-30 17:55:52
,wl-rdm,68,196340,0.0-6.60-0.60,0.0,69.0,,,,,,,[],,,,,,62.5,1.0,i,1.0,True,1362.0,82.0,60.0,40.0,False,,308.3880180091733,[],"[1280, 720]",ColorTask,19.0,61.0,,,HRV,HRV_0028,2022-11-30 17:55:52
,wl-rdm,69,198341,0.0-6.61-0.61,0.0,70.0,,,,,,,[],,,,,,87.9,0.0,u,0.0,True,726.7000000178814,44.0,60.0,40.0,False,,204.96505024747592,[],"[1280, 720]",ColorTask,20.0,62.0,,,HRV,HRV_0028,2022-11-30 17:55:52
,wl-rdm,70,200510,0.0-6.62-0.62,0.0,71.0,,,,,,,[],,,,,,87.9,0.0,u,0.0,True,718.2000000178814,44.0,60.0,40.0,False,,379.2464821552903,[],"[1280, 720]",ColorTask,21.0,63.0,,,HRV,HRV_0028,2022-11-30 17:55:52
,wl-rdm,71,202795,0.0-6.63-0.63,0.0,72.0,,,,,,,[],,,,,,53.2,1.0,i,1.0,True,962.5,58.0,60.0,40.0,False,,253.44648032166435,[],"[1280, 720]",ColorTask,22.0,64.0,,,HRV,HRV_0028,2022-11-30 17:55:52
,wl-rdm,72,205030,0.0-6.64-0.64,0.0,73.0,,,,,,,[],,,,,,53.2,1.0,i,1.0,True,801.4000000059605,49.0,60.0,40.0,False,,355.50214090984935,[],"[1280, 720]",ColorTask,23.0,65.0,,,HRV,HRV_0028,2022-11-30 17:55:52
,wl-rdm,73,207382,0.0-6.65-0.65,0.0,74.0,,,,,,,[],,,,,,73.6,1.0,i,1.0,True,909.2999999821186,55.0,60.0,40.0,False,,378.2931641810959,[],"[1280, 720]",ColorTask,24.0,66.0,,,HRV,HRV_0028,2022-11-30 17:55:52
,wl-rdm,74,209734,0.0-6.66-0.66,0.0,75.0,,,,,,,[],,,,,,53.2,1.0,i,1.0,True,1050.8999999761581,63.0,60.0,40.0,False,,239.80239420389006,[],"[1280, 720]",ColorTask,25.0,67.0,,,HRV,HRV_0028,2022-11-30 17:55:52
,wl-rdm,75,212036,0.0-6.67-0.67,0.0,76.0,,,,,,,[],,,,,,53.2,0.0,i,1.0,False,1028.4000000059605,62.0,60.0,40.0,False,,205.90355055532888,[],"[1280, 720]",ColorTask,24.0,68.0,,,HRV,HRV_0028,2022-11-30 17:55:52
,wl-rdm,76,214204,0.0-6.68-0.68,0.0,77.0,,,,,,,[],,,,,,73.6,1.0,i,1.0,True,736.4000000059605,45.0,60.0,40.0,False,,362.7256665728502,[],"[1280, 720]",ColorTask,25.0,69.0,,,HRV,HRV_0028,2022-11-30 17:55:52
,wl-rdm,77,216406,0.0-6.69-0.69,0.0,78.0,,,,,,,[],,,,,,62.5,1.0,i,1.0,True,926.0,56.0,60.0,40.0,False,,203.02099145625786,[],"[1280, 720]",ColorTask,26.0,70.0,,,HRV,HRV_0028,2022-11-30 17:55:52
,wl-rdm,78,218975,0.0-6.70-0.70,0.0,79.0,,,,,,,[],,,,,,56.4,0.0,u,0.0,True,1266.800000011921,76.0,60.0,40.0,False,,233.88617439133162,[],"[1280, 720]",ColorTask,27.0,71.0,,,HRV,HRV_0028,2022-11-30 17:55:52
,wl-rdm,79,221777,0.0-6.71-0.71,0.0,80.0,,,,,,,[],,,,,,53.2,1.0,i,1.0,True,1406.6000000238419,85.0,60.0,40.0,False,,319.3473117707639,[],"[1280, 720]",ColorTask,28.0,72.0,,,HRV,HRV_0028,2022-11-30 17:55:52
,wl-rdm,80,223879,0.0-6.72-0.72,0.0,81.0,,,,,,,[],,,,,,73.6,1.0,i,1.0,True,691.6000000238419,42.0,60.0,40.0,False,,334.2276022028731,[],"[1280, 720]",ColorTask,29.0,73.0,,,HRV,HRV_0028,2022-11-30 17:55:52
,wl-rdm,81,226264,0.0-6.73-0.73,0.0,82.0,,,,,,,[],,,,,,62.5,1.0,i,1.0,True,1098.800000011921,66.0,60.0,40.0,False,,229.065665911533,[],"[1280, 720]",ColorTask,30.0,74.0,,,HRV,HRV_0028,2022-11-30 17:55:52
,wl-rdm,82,229483,0.0-6.74-0.74,0.0,83.0,,,,,,,[],,,,,,56.4,1.0,i,1.0,True,1804.5,109.0,60.0,40.0,False,,338.24968227576744,[],"[1280, 720]",ColorTask,31.0,75.0,,,HRV,HRV_0028,2022-11-30 17:55:52
,wl-rdm,83,231618,0.0-6.75-0.75,0.0,84.0,,,,,,,[],,,,,,73.6,1.0,i,1.0,True,796.0,48.0,60.0,40.0,False,,276.20480692759395,[],"[1280, 720]",ColorTask,32.0,76.0,,,HRV,HRV_0028,2022-11-30 17:55:52
,wl-rdm,84,235488,0.0-6.76-0.76,0.0,85.0,,,,,,,[],,,,,,53.2,1.0,u,0.0,False,2408.4000000059605,145.0,60.0,40.0,False,,396.0079670375947,[],"[1280, 720]",ColorTask,31.0,77.0,,,HRV,HRV_0028,2022-11-30 17:55:52
,wl-rdm,85,237657,0.0-6.77-0.77,0.0,86.0,,,,,,,[],,,,,,50.0,0.0,i,1.0,False,764.5,46.0,60.0,40.0,False,,340.695801900162,[],"[1280, 720]",ColorTask,30.0,78.0,,,HRV,HRV_0028,2022-11-30 17:55:52
,wl-rdm,86,241126,0.0-6.78-0.78,0.0,87.0,,,,,,,[],,,,,,50.0,0.0,u,0.0,True,2134.7000000178814,128.0,60.0,40.0,False,,269.8366253126742,[],"[1280, 720]",ColorTask,31.0,79.0,,,HRV,HRV_0028,2022-11-30 17:55:52
,wl-rdm,87,243945,0.0-6.79-0.79,0.0,88.0,,,,,,,[],,,,,,50.0,1.0,u,0.0,False,1523.2000000178814,92.0,60.0,40.0,False,,219.35669072562385,[],"[1280, 720]",ColorTask,30.0,80.0,,,HRV,HRV_0028,2022-11-30 17:55:52
,wl-rdm,88,245997,0.0-6.80-0.80,0.0,89.0,,,,,,,[],,,,,,87.9,1.0,i,1.0,True,735.5,45.0,60.0,40.0,False,,243.891378051964,[],"[1280, 720]",ColorTask,31.0,81.0,,,HRV,HRV_0028,2022-11-30 17:55:52
,wl-rdm,89,247998,0.0-6.81-0.81,0.0,90.0,,,,,,,[],,,,,,87.9,0.0,u,0.0,True,650.0,39.0,60.0,40.0,False,,299.27413850375467,[],"[1280, 720]",ColorTask,32.0,82.0,,,HRV,HRV_0028,2022-11-30 17:55:52
,wl-rdm,90,249933,0.0-6.82-0.82,0.0,91.0,,,,,,,[],,,,,,87.9,1.0,i,1.0,True,592.8000000119209,36.0,60.0,40.0,False,,267.5943221129137,[],"[1280, 720]",ColorTask,33.0,83.0,,,HRV,HRV_0028,2022-11-30 17:55:52
,wl-rdm,91,252719,0.0-6.83-0.83,0.0,92.0,,,,,,,[],,,,,,53.2,0.0,u,0.0,True,1399.9000000059605,84.0,60.0,40.0,False,,319.62858469904074,[],"[1280, 720]",ColorTask,34.0,84.0,,,HRV,HRV_0028,2022-11-30 17:55:52
,wl-rdm,92,255555,0.0-6.84-0.84,0.0,93.0,,,,,,,[],,,,,,56.4,0.0,u,0.0,True,1463.0,88.0,60.0,40.0,False,,313.39314799892304,[],"[1280, 720]",ColorTask,35.0,85.0,,,HRV,HRV_0028,2022-11-30 17:55:52
,wl-rdm,93,257890,0.0-6.85-0.85,0.0,94.0,,,,,,,[],,,,,,73.6,0.0,u,0.0,True,896.5999999940395,54.0,60.0,40.0,False,,371.1638095016982,[],"[1280, 720]",ColorTask,36.0,86.0,,,HRV,HRV_0028,2022-11-30 17:55:52
,wl-rdm,94,260309,0.0-6.86-0.86,0.0,95.0,,,,,,,[],,,,,,50.0,1.0,u,0.0,False,1036.0999999940395,63.0,60.0,40.0,False,,306.94561441755354,[],"[1280, 720]",ColorTask,35.0,87.0,,,HRV,HRV_0028,2022-11-30 17:55:52
,wl-rdm,95,263211,0.0-6.87-0.87,0.0,96.0,,,,,,,[],,,,,,56.4,1.0,i,1.0,True,1454.7999999821186,88.0,60.0,40.0,False,,370.61565306112584,[],"[1280, 720]",ColorTask,36.0,88.0,,,HRV,HRV_0028,2022-11-30 17:55:52
,wl-rdm,96,265246,0.0-6.88-0.88,0.0,97.0,,,,,,,[],,,,,,73.6,0.0,u,0.0,True,751.1999999880791,46.0,60.0,40.0,False,,201.497291106979,[],"[1280, 720]",ColorTask,37.0,89.0,,,HRV,HRV_0028,2022-11-30 17:55:52
,wl-rdm,97,267731,0.0-6.89-0.89,0.0,98.0,,,,,,,[],,,,,,62.5,1.0,i,1.0,True,1212.0999999940395,73.0,60.0,40.0,False,,201.80274233610447,[],"[1280, 720]",ColorTask,38.0,90.0,,,HRV,HRV_0028,2022-11-30 17:55:52
,wl-rdm,98,269733,0.0-6.90-0.90,0.0,99.0,,,,,,,[],,,,,,87.9,0.0,u,0.0,True,685.5,42.0,60.0,40.0,False,,244.10463410558773,[],"[1280, 720]",ColorTask,39.0,91.0,,,HRV,HRV_0028,2022-11-30 17:55:52
,wl-rdm,99,272035,0.0-6.91-0.91,0.0,100.0,,,,,,,[],,,,,,56.4,1.0,i,1.0,True,988.0999999940395,60.0,60.0,40.0,False,,240.6044756161847,[],"[1280, 720]",ColorTask,40.0,92.0,,,HRV,HRV_0028,2022-11-30 17:55:52
,wl-rdm,100,274554,0.0-6.92-0.92,0.0,101.0,,,,,,,[],,,,,,56.4,0.0,u,0.0,True,1063.7999999821186,64.0,60.0,40.0,False,,397.39686065087903,[],"[1280, 720]",ColorTask,41.0,93.0,,,HRV,HRV_0028,2022-11-30 17:55:52
,wl-rdm,101,277539,0.0-6.93-0.93,0.0,102.0,,,,,,,[],,,,,,50.0,0.0,u,0.0,True,1637.5999999940395,99.0,60.0,40.0,False,,274.7907527848779,[],"[1280, 720]",ColorTask,42.0,94.0,,,HRV,HRV_0028,2022-11-30 17:55:52
,wl-rdm,102,279775,0.0-6.94-0.94,0.0,103.0,,,,,,,[],,,,,,62.5,0.0,u,0.0,True,808.7999999821186,49.0,60.0,40.0,False,,352.7824781396564,[],"[1280, 720]",ColorTask,43.0,95.0,,,HRV,HRV_0028,2022-11-30 17:55:52
,wl-rdm,103,282127,0.0-6.95-0.95,0.0,104.0,,,,,,,[],,,,,,62.5,1.0,i,1.0,True,1059.0,64.0,60.0,40.0,False,,223.8969443988417,[],"[1280, 720]",ColorTask,44.0,96.0,,,HRV,HRV_0028,2022-11-30 17:55:52
,wl-rdm,104,283995,0.0-6.96-0.96,0.0,105.0,,,,,,,[],,,,,,87.9,0.0,u,0.0,True,587.5999999940395,36.0,60.0,40.0,False,,203.2568163488678,[],"[1280, 720]",ColorTask,45.0,97.0,,,HRV,HRV_0028,2022-11-30 17:55:52
,wl-rdm,105,286397,0.0-6.97-0.97,0.0,106.0,,,,,,,[],,,,,,62.5,1.0,i,1.0,True,1127.300000011921,68.0,60.0,40.0,False,,216.68008217444,[],"[1280, 720]",ColorTask,46.0,98.0,,,HRV,HRV_0028,2022-11-30 17:55:52
,wl-rdm,106,288966,0.0-6.98-0.98,0.0,107.0,,,,,,,[],,,,,,62.5,0.0,u,0.0,True,1101.800000011921,67.0,60.0,40.0,False,,383.76978475221824,[],"[1280, 720]",ColorTask,47.0,99.0,,,HRV,HRV_0028,2022-11-30 17:55:52
,wl-rdm,107,290868,0.0-6.99-0.99,0.0,108.0,,,,,,,[],,,,,,73.6,1.0,i,1.0,True,578.5,35.0,60.0,40.0,False,,259.13300625589784,[],"[1280, 720]",ColorTask,48.0,100.0,,,HRV,HRV_0028,2022-11-30 17:55:52
,wl-rdm,108,293003,0.0-6.100-0.100,0.0,109.0,,,,,,,[],,,,,,87.9,0.0,u,0.0,True,705.2000000178814,43.0,60.0,40.0,False,,356.3765231614771,[],"[1280, 720]",ColorTask,49.0,101.0,,,HRV,HRV_0028,2022-11-30 17:55:52
,wl-rdm,109,294888,0.0-6.101-0.101,0.0,110.0,,,,,,,[],,,,,,73.6,1.0,i,1.0,True,582.6999999880791,35.0,60.0,40.0,False,,249.5895646183917,[],"[1280, 720]",ColorTask,50.0,102.0,,,HRV,HRV_0028,2022-11-30 17:55:52
,wl-rdm,110,296889,0.0-6.102-0.102,0.0,111.0,,,,,,,[],,,,,,87.9,1.0,i,1.0,True,597.7999999821186,36.0,60.0,40.0,False,,337.82136700306467,[],"[1280, 720]",ColorTask,51.0,103.0,,,HRV,HRV_0028,2022-11-30 17:55:52
,wl-rdm,111,298674,0.0-6.103-0.103,0.0,112.0,,,,,,,[],,,,,,87.9,1.0,i,1.0,True,505.40000000596046,31.0,60.0,40.0,False,,211.31421227796898,[],"[1280, 720]",ColorTask,52.0,104.0,,,HRV,HRV_0028,2022-11-30 17:55:52
,wl-rdm,112,300876,0.0-6.104-0.104,0.0,113.0,,,,,,,[],,,,,,53.2,1.0,u,0.0,False,820.5999999940395,50.0,60.0,40.0,False,,303.8608041364759,[],"[1280, 720]",ColorTask,51.0,105.0,,,HRV,HRV_0028,2022-11-30 17:55:52
,wl-rdm,113,302878,0.0-6.105-0.105,0.0,114.0,,,,,,,[],,,,,,56.4,0.0,u,0.0,True,693.6999999880791,42.0,60.0,40.0,False,,237.04516755518483,[],"[1280, 720]",ColorTask,52.0,106.0,,,HRV,HRV_0028,2022-11-30 17:55:52
,wl-rdm,114,304929,0.0-6.106-0.106,0.0,115.0,,,,,,,[],,,,,,62.5,0.0,u,0.0,True,731.4000000059605,44.0,60.0,40.0,False,,254.39237678699007,[],"[1280, 720]",ColorTask,53.0,107.0,,,HRV,HRV_0028,2022-11-30 17:55:52
,wl-rdm,115,307398,0.0-6.107-0.107,0.0,116.0,,,,,,,[],,,,,,62.5,0.0,u,0.0,True,1185.5999999940395,72.0,60.0,40.0,False,,213.2564947047346,[],"[1280, 720]",ColorTask,54.0,108.0,,,HRV,HRV_0028,2022-11-30 17:55:52
,wl-html-keyboard-response,116,315248,0.0-7.0-0.0,1.0,117.0,,,,,,,,5834.4000000059605,1.0,0,,,,,,,,,,,,,,,,,,,,,,HRV,HRV_0028,2022-11-30 17:55:52
,wl-rdm,117,317206,0.0-8.0-0.0,1.0,118.0,,,,,,,[],,,,,,50.0,1.0,i,1.0,True,693.2000000178814,42.0,60.0,40.0,False,,213.90895804592645,[],"[1280, 720]",ColorTask,55.0,1.0,,,HRV,HRV_0028,2022-11-30 17:55:52
,wl-rdm,118,319225,0.0-8.1-0.1,1.0,119.0,,,,,,,[],,,,,,73.6,0.0,u,0.0,True,590.7999999821186,36.0,60.0,40.0,False,,357.78374053372,[],"[1280, 720]",ColorTask,56.0,2.0,,,HRV,HRV_0028,2022-11-30 17:55:52
,wl-rdm,119,321259,0.0-8.2-0.2,1.0,120.0,,,,,,,[],,,,,,62.5,1.0,i,1.0,True,571.0,35.0,60.0,40.0,False,,395.857779665011,[],"[1280, 720]",ColorTask,57.0,3.0,,,HRV,HRV_0028,2022-11-30 17:55:52
,wl-rdm,120,323211,0.0-8.3-0.3,1.0,121.0,,,,,,,[],,,,,,62.5,0.0,u,0.0,True,604.6999999880791,37.0,60.0,40.0,False,,277.43795415658485,[],"[1280, 720]",ColorTask,58.0,4.0,,,HRV,HRV_0028,2022-11-30 17:55:52
,wl-rdm,121,325496,0.0-8.4-0.4,1.0,122.0,,,,,,,[],,,,,,56.4,0.0,u,0.0,True,899.0999999940395,54.0,60.0,40.0,False,,321.6207028700328,[],"[1280, 720]",ColorTask,59.0,5.0,,,HRV,HRV_0028,2022-11-30 17:55:52
,wl-rdm,122,327498,0.0-8.5-0.5,1.0,123.0,,,,,,,[],,,,,,87.9,0.0,u,0.0,True,656.1999999880791,40.0,60.0,40.0,False,,273.69588955246763,[],"[1280, 720]",ColorTask,60.0,6.0,,,HRV,HRV_0028,2022-11-30 17:55:52
,wl-rdm,123,329700,0.0-8.6-0.6,1.0,124.0,,,,,,,[],,,,,,50.0,0.0,i,1.0,False,804.6999999880791,49.0,60.0,40.0,False,,319.97149592106734,[],"[1280, 720]",ColorTask,59.0,7.0,,,HRV,HRV_0028,2022-11-30 17:55:52
,wl-rdm,124,331568,0.0-8.7-0.7,1.0,125.0,,,,,,,[],,,,,,87.9,1.0,i,1.0,True,599.5,36.0,60.0,40.0,False,,216.2648002086306,[],"[1280, 720]",ColorTask,60.0,8.0,,,HRV,HRV_0028,2022-11-30 17:55:52
,wl-rdm,125,333403,0.0-8.8-0.8,1.0,126.0,,,,,,,[],,,,,,73.6,1.0,i,1.0,True,512.8999999761581,31.0,60.0,40.0,False,,262.84807932926753,[],"[1280, 720]",ColorTask,61.0,9.0,,,HRV,HRV_0028,2022-11-30 17:55:52
,wl-rdm,126,335705,0.0-8.9-0.9,1.0,127.0,,,,,,,[],,,,,,53.2,0.0,u,0.0,True,857.4000000059605,52.0,60.0,40.0,False,,372.50002806756106,[],"[1280, 720]",ColorTask,62.0,10.0,,,HRV,HRV_0028,2022-11-30 17:55:52
,wl-rdm,127,338023,0.0-8.10-0.10,1.0,128.0,,,,,,,[],,,,,,50.0,1.0,u,0.0,False,875.7000000178814,53.0,60.0,40.0,False,,368.2530010002232,[],"[1280, 720]",ColorTask,61.0,11.0,,,HRV,HRV_0028,2022-11-30 17:55:52
,wl-rdm,128,341108,0.0-8.11-0.11,1.0,129.0,,,,,,,[],,,,,,50.0,1.0,u,0.0,False,1703.6000000238419,103.0,60.0,40.0,False,,301.2001868617973,[],"[1280, 720]",ColorTask,60.0,12.0,,,HRV,HRV_0028,2022-11-30 17:55:52
,wl-rdm,129,343193,0.0-8.12-0.12,1.0,130.0,,,,,,,[],,,,,,73.6,1.0,i,1.0,True,697.1000000238419,42.0,60.0,40.0,False,,324.88006563562044,[],"[1280, 720]",ColorTask,61.0,13.0,,,HRV,HRV_0028,2022-11-30 17:55:52
,wl-rdm,130,345012,0.0-8.13-0.13,1.0,131.0,,,,,,,[],,,,,,87.9,1.0,i,1.0,True,545.0000000298023,33.0,60.0,40.0,False,,201.38766375245595,[],"[1280, 720]",ColorTask,62.0,14.0,,,HRV,HRV_0028,2022-11-30 17:55:52
,wl-rdm,131,346980,0.0-8.14-0.14,1.0,132.0,,,,,,,[],,,,,,87.9,0.0,u,0.0,True,644.7000000178814,39.0,60.0,40.0,False,,264.69335612127696,[],"[1280, 720]",ColorTask,63.0,15.0,,,HRV,HRV_0028,2022-11-30 17:55:52
,wl-rdm,132,349182,0.0-8.15-0.15,1.0,133.0,,,,,,,[],,,,,,73.6,0.0,u,0.0,True,759.8000000119209,46.0,60.0,40.0,False,,372.7503033110563,[],"[1280, 720]",ColorTask,64.0,16.0,,,HRV,HRV_0028,2022-11-30 17:55:52
,wl-rdm,133,351233,0.0-8.16-0.16,1.0,134.0,,,,,,,[],,,,,,73.6,0.0,u,0.0,True,672.5,41.0,60.0,40.0,False,,312.9624248299763,[],"[1280, 720]",ColorTask,65.0,17.0,,,HRV,HRV_0028,2022-11-30 17:55:52
,wl-rdm,134,353419,0.0-8.17-0.17,1.0,135.0,,,,,,,[],,,,,,62.5,1.0,i,1.0,True,862.9000000059605,52.0,60.0,40.0,False,,262.13596617044954,[],"[1280, 720]",ColorTask,66.0,18.0,,,HRV,HRV_0028,2022-11-30 17:55:52
,wl-rdm,135,355821,0.0-8.18-0.18,1.0,136.0,,,,,,,[],,,,,,53.2,1.0,i,1.0,True,1077.7000000178814,65.0,60.0,40.0,False,,260.7481679004996,[],"[1280, 720]",ColorTask,67.0,19.0,,,HRV,HRV_0028,2022-11-30 17:55:52
,wl-rdm,136,357789,0.0-8.19-0.19,1.0,137.0,,,,,,,[],,,,,,73.6,1.0,i,1.0,True,669.1000000238419,41.0,60.0,40.0,False,,232.07777758706698,[],"[1280, 720]",ColorTask,68.0,20.0,,,HRV,HRV_0028,2022-11-30 17:55:52
,wl-rdm,137,359757,0.0-8.20-0.20,1.0,138.0,,,,,,,[],,,,,,87.9,0.0,u,0.0,True,627.0,38.0,60.0,40.0,False,,274.2918868111728,[],"[1280, 720]",ColorTask,69.0,21.0,,,HRV,HRV_0028,2022-11-30 17:55:52
,wl-rdm,138,361759,0.0-8.21-0.21,1.0,139.0,,,,,,,[],,,,,,87.9,1.0,i,1.0,True,675.2000000178814,41.0,60.0,40.0,False,,261.4553484364472,[],"[1280, 720]",ColorTask,70.0,22.0,,,HRV,HRV_0028,2022-11-30 17:55:52
,wl-rdm,139,364544,0.0-8.22-0.22,1.0,140.0,,,,,,,[],,,,,,50.0,0.0,u,0.0,True,1391.0,84.0,60.0,40.0,False,,328.2180494149261,[],"[1280, 720]",ColorTask,71.0,23.0,,,HRV,HRV_0028,2022-11-30 17:55:52
,wl-rdm,140,366646,0.0-8.23-0.23,1.0,141.0,,,,,,,[],,,,,,73.6,1.0,i,1.0,True,667.4000000357628,40.0,60.0,40.0,False,,368.0234533046428,[],"[1280, 720]",ColorTask,72.0,24.0,,,HRV,HRV_0028,2022-11-30 17:55:52
,wl-rdm,141,369248,0.0-8.24-0.24,1.0,142.0,,,,,,,[],,,,,,62.5,0.0,u,0.0,True,1240.9000000059605,75.0,60.0,40.0,False,,285.9302239690873,[],"[1280, 720]",ColorTask,73.0,25.0,,,HRV,HRV_0028,2022-11-30 17:55:52
,wl-rdm,142,371817,0.0-8.25-0.25,1.0,143.0,,,,,,,[],,,,,,56.4,0.0,u,0.0,True,1223.5999999940395,74.0,60.0,40.0,False,,272.1562715897652,[],"[1280, 720]",ColorTask,74.0,26.0,,,HRV,HRV_0028,2022-11-30 17:55:52
,wl-rdm,143,374870,0.0-8.26-0.26,1.0,144.0,,,,,,,[],,,,,,53.2,1.0,u,0.0,False,1652.5999999940395,100.0,60.0,40.0,False,,327.17009127568105,[],"[1280, 720]",ColorTask,73.0,27.0,,,HRV,HRV_0028,2022-11-30 17:55:52
,wl-rdm,144,378406,0.0-8.27-0.27,1.0,145.0,,,,,,,[],,,,,,53.2,0.0,i,1.0,False,2069.5,125.0,60.0,40.0,False,,387.10247783911615,[],"[1280, 720]",ColorTask,72.0,28.0,,,HRV,HRV_0028,2022-11-30 17:55:52
,wl-rdm,145,381942,0.0-8.28-0.28,1.0,146.0,,,,,,,[],,,,,,56.4,0.0,i,1.0,False,2210.7999999821186,133.0,60.0,40.0,False,,261.2828334520143,[],"[1280, 720]",ColorTask,71.0,29.0,,,HRV,HRV_0028,2022-11-30 17:55:52
,wl-rdm,146,384894,0.0-8.29-0.29,1.0,147.0,,,,,,,[],,,,,,62.5,0.0,u,0.0,True,1634.4000000059605,98.0,60.0,40.0,False,,258.999012462059,[],"[1280, 720]",ColorTask,72.0,30.0,,,HRV,HRV_0028,2022-11-30 17:55:52
,wl-rdm,147,387246,0.0-8.30-0.30,1.0,148.0,,,,,,,[],,,,,,56.4,1.0,i,1.0,True,1051.4000000059605,64.0,60.0,40.0,False,,224.22604444822593,[],"[1280, 720]",ColorTask,73.0,31.0,,,HRV,HRV_0028,2022-11-30 17:55:52
,wl-rdm,148,389198,0.0-8.31-0.31,1.0,149.0,,,,,,,[],,,,,,73.6,0.0,u,0.0,True,626.0,38.0,60.0,40.0,False,,255.44810768954636,[],"[1280, 720]",ColorTask,74.0,32.0,,,HRV,HRV_0028,2022-11-30 17:55:52
,wl-rdm,149,391300,0.0-8.32-0.32,1.0,150.0,,,,,,,[],,,,,,73.6,0.0,u,0.0,True,678.4000000059605,41.0,60.0,40.0,False,,350.8608104037603,[],"[1280, 720]",ColorTask,75.0,33.0,,,HRV,HRV_0028,2022-11-30 17:55:52
,wl-rdm,150,394135,0.0-8.33-0.33,1.0,151.0,,,,,,,[],,,,,,50.0,0.0,i,1.0,False,1542.3999999761581,93.0,60.0,40.0,False,,231.3112734644103,[],"[1280, 720]",ColorTask,74.0,34.0,,,HRV,HRV_0028,2022-11-30 17:55:52
,wl-rdm,151,397371,0.0-8.34-0.34,1.0,152.0,,,,,,,[],,,,,,56.4,0.0,i,1.0,False,1963.0999999940395,118.0,60.0,40.0,False,,200.55504179861686,[],"[1280, 720]",ColorTask,73.0,35.0,,,HRV,HRV_0028,2022-11-30 17:55:52
,wl-rdm,152,399440,0.0-8.35-0.35,1.0,153.0,,,,,,,[],,,,,,62.5,0.0,u,0.0,True,791.0,48.0,60.0,40.0,False,,212.7614616901642,[],"[1280, 720]",ColorTask,74.0,36.0,,,HRV,HRV_0028,2022-11-30 17:55:52
,wl-rdm,153,402042,0.0-8.36-0.36,1.0,154.0,,,,,,,[],,,,,,56.4,0.0,i,1.0,False,1214.199999988079,73.0,60.0,40.0,False,,326.15716394202275,[],"[1280, 720]",ColorTask,73.0,37.0,,,HRV,HRV_0028,2022-11-30 17:55:52
,wl-rdm,154,404094,0.0-8.37-0.37,1.0,155.0,,,,,,,[],,,,,,62.5,1.0,i,1.0,True,659.9000000059605,40.0,60.0,40.0,False,,317.3442242579966,[],"[1280, 720]",ColorTask,74.0,38.0,,,HRV,HRV_0028,2022-11-30 17:55:52
,wl-rdm,155,406179,0.0-8.38-0.38,1.0,156.0,,,,,,,[],,,,,,73.6,0.0,u,0.0,True,654.8999999761581,40.0,60.0,40.0,False,,354.36319102846926,[],"[1280, 720]",ColorTask,75.0,39.0,,,HRV,HRV_0028,2022-11-30 17:55:52
,wl-rdm,156,408364,0.0-8.39-0.39,1.0,157.0,,,,,,,[],,,,,,53.2,1.0,i,1.0,True,737.1999999880791,45.0,60.0,40.0,False,,379.53405715759664,[],"[1280, 720]",ColorTask,76.0,40.0,,,HRV,HRV_0028,2022-11-30 17:55:52
,wl-rdm,157,411150,0.0-8.40-0.40,1.0,158.0,,,,,,,[],,,,,,50.0,1.0,u,0.0,False,1494.0,90.0,60.0,40.0,False,,223.13229026555715,[],"[1280, 720]",ColorTask,75.0,41.0,,,HRV,HRV_0028,2022-11-30 17:55:52
,wl-rdm,158,413118,0.0-8.41-0.41,1.0,159.0,,,,,,,[],,,,,,50.0,1.0,i,1.0,True,601.7999999821186,37.0,60.0,40.0,False,,283.918635153816,[],"[1280, 720]",ColorTask,76.0,42.0,,,HRV,HRV_0028,2022-11-30 17:55:52
,wl-rdm,159,415303,0.0-8.42-0.42,1.0,160.0,,,,,,,[],,,,,,53.2,0.0,u,0.0,True,916.9000000059605,55.0,60.0,40.0,False,,208.0810835030767,[],"[1280, 720]",ColorTask,77.0,43.0,,,HRV,HRV_0028,2022-11-30 17:55:52
,wl-rdm,160,418239,0.0-8.43-0.43,1.0,161.0,,,,,,,[],,,,,,50.0,0.0,i,1.0,False,1559.800000011921,94.0,60.0,40.0,False,,304.3677226506397,[],"[1280, 720]",ColorTask,76.0,44.0,,,HRV,HRV_0028,2022-11-30 17:55:52
,wl-rdm,161,420290,0.0-8.44-0.44,1.0,162.0,,,,,,,[],,,,,,87.9,1.0,i,1.0,True,771.7999999821186,47.0,60.0,40.0,False,,212.17692856452885,[],"[1280, 720]",ColorTask,77.0,45.0,,,HRV,HRV_0028,2022-11-30 17:55:52
,wl-rdm,162,422359,0.0-8.45-0.45,1.0,163.0,,,,,,,[],,,,,,87.9,0.0,u,0.0,True,784.3999999761581,48.0,60.0,40.0,False,,202.98075613395937,[],"[1280, 720]",ColorTask,78.0,46.0,,,HRV,HRV_0028,2022-11-30 17:55:52
,wl-rdm,163,424311,0.0-8.46-0.46,1.0,164.0,,,,,,,[],,,,,,87.9,0.0,u,0.0,True,659.2999999821186,40.0,60.0,40.0,False,,225.52661820290066,[],"[1280, 720]",ColorTask,79.0,47.0,,,HRV,HRV_0028,2022-11-30 17:55:52
,wl-rdm,164,426729,0.0-8.47-0.47,1.0,165.0,,,,,,,[],,,,,,56.4,1.0,i,1.0,True,1098.2999999821186,66.0,60.0,40.0,False,,250.234832436631,[],"[1280, 720]",ColorTask,80.0,48.0,,,HRV,HRV_0028,2022-11-30 17:55:52
,wl-rdm,165,428681,0.0-8.48-0.48,1.0,166.0,,,,,,,[],,,,,,87.9,1.0,i,1.0,True,681.7999999821186,41.0,60.0,40.0,False,,208.57571912103793,[],"[1280, 720]",ColorTask,81.0,49.0,,,HRV,HRV_0028,2022-11-30 17:55:52
,wl-rdm,166,430566,0.0-8.49-0.49,1.0,167.0,,,,,,,[],,,,,,62.5,1.0,i,1.0,True,602.0999999940395,37.0,60.0,40.0,False,,213.16620264075965,[],"[1280, 720]",ColorTask,82.0,50.0,,,HRV,HRV_0028,2022-11-30 17:55:52
,wl-rdm,167,432534,0.0-8.50-0.50,1.0,168.0,,,,,,,[],,,,,,62.5,1.0,i,1.0,True,543.0999999940395,33.0,60.0,40.0,False,,351.0300588688835,[],"[1280, 720]",ColorTask,83.0,51.0,,,HRV,HRV_0028,2022-11-30 17:55:52
,wl-rdm,168,434636,0.0-8.51-0.51,1.0,169.0,,,,,,,[],,,,,,56.4,1.0,u,0.0,False,762.3999999761581,46.0,60.0,40.0,False,,282.568269625165,[],"[1280, 720]",ColorTask,82.0,52.0,,,HRV,HRV_0028,2022-11-30 17:55:52
,wl-rdm,169,436721,0.0-8.52-0.52,1.0,170.0,,,,,,,[],,,,,,56.4,1.0,i,1.0,True,681.7999999821186,41.0,60.0,40.0,False,,337.8520670634635,[],"[1280, 720]",ColorTask,83.0,53.0,,,HRV,HRV_0028,2022-11-30 17:55:52
,wl-rdm,170,439706,0.0-8.53-0.53,1.0,171.0,,,,,,,[],,,,,,53.2,1.0,i,1.0,True,1623.0,98.0,60.0,40.0,False,,284.6697724549608,[],"[1280, 720]",ColorTask,84.0,54.0,,,HRV,HRV_0028,2022-11-30 17:55:52
,wl-rdm,171,441975,0.0-8.54-0.54,1.0,172.0,,,,,,,[],,,,,,62.5,0.0,u,0.0,True,917.0,55.0,60.0,40.0,False,,284.275802640028,[],"[1280, 720]",ColorTask,85.0,55.0,,,HRV,HRV_0028,2022-11-30 17:55:52
,wl-rdm,172,443927,0.0-8.55-0.55,1.0,173.0,,,,,,,[],,,,,,73.6,1.0,i,1.0,True,651.2999999821186,40.0,60.0,40.0,False,,229.27225338398065,[],"[1280, 720]",ColorTask,86.0,56.0,,,HRV,HRV_0028,2022-11-30 17:55:52
,wl-rdm,173,446412,0.0-8.56-0.56,1.0,174.0,,,,,,,[],,,,,,50.0,0.0,u,0.0,True,1128.7999999821186,68.0,60.0,40.0,False,,294.5373486282614,[],"[1280, 720]",ColorTask,87.0,57.0,,,HRV,HRV_0028,2022-11-30 17:55:52
,wl-rdm,174,448947,0.0-8.57-0.57,1.0,175.0,,,,,,,[],,,,,,50.0,0.0,u,0.0,True,1138.0999999940395,69.0,60.0,40.0,False,,333.40674543407084,[],"[1280, 720]",ColorTask,88.0,58.0,,,HRV,HRV_0028,2022-11-30 17:55:52
,wl-rdm,175,451466,0.0-8.58-0.58,1.0,176.0,,,,,,,[],,,,,,53.2,0.0,u,0.0,True,1139.5999999940395,69.0,60.0,40.0,False,,316.2740764465417,[],"[1280, 720]",ColorTask,89.0,59.0,,,HRV,HRV_0028,2022-11-30 17:55:52
,wl-rdm,176,454352,0.0-8.59-0.59,1.0,177.0,,,,,,,[],,,,,,53.2,1.0,u,0.0,False,1558.9000000059605,94.0,60.0,40.0,False,,262.44287898492405,[],"[1280, 720]",ColorTask,88.0,60.0,,,HRV,HRV_0028,2022-11-30 17:55:52
,wl-rdm,177,457104,0.0-8.60-0.60,1.0,178.0,,,,,,,[],,,,,,50.0,1.0,u,0.0,False,1425.0,86.0,60.0,40.0,False,,257.41450336127264,[],"[1280, 720]",ColorTask,87.0,61.0,,,HRV,HRV_0028,2022-11-30 17:55:52
,wl-rdm,178,459156,0.0-8.61-0.61,1.0,179.0,,,,,,,[],,,,,,87.9,0.0,u,0.0,True,587.3000000119209,36.0,60.0,40.0,False,,385.01782151504233,[],"[1280, 720]",ColorTask,88.0,62.0,,,HRV,HRV_0028,2022-11-30 17:55:52
,wl-rdm,179,461125,0.0-8.62-0.62,1.0,180.0,,,,,,,[],,,,,,73.6,0.0,u,0.0,True,628.2999999821186,38.0,60.0,40.0,False,,277.71696936204796,[],"[1280, 720]",ColorTask,89.0,63.0,,,HRV,HRV_0028,2022-11-30 17:55:52
,wl-rdm,180,463160,0.0-8.63-0.63,1.0,181.0,,,,,,,[],,,,,,87.9,1.0,i,1.0,True,633.5,38.0,60.0,40.0,False,,334.0315821876409,[],"[1280, 720]",ColorTask,90.0,64.0,,,HRV,HRV_0028,2022-11-30 17:55:52
,wl-rdm,181,466062,0.0-8.64-0.64,1.0,182.0,,,,,,,[],,,,,,53.2,1.0,i,1.0,True,1536.5999999940395,93.0,60.0,40.0,False,,286.8063770674843,[],"[1280, 720]",ColorTask,91.0,65.0,,,HRV,HRV_0028,2022-11-30 17:55:52
,wl-rdm,182,468014,0.0-8.65-0.65,1.0,183.0,,,,,,,[],,,,,,62.5,1.0,i,1.0,True,660.9000000059605,40.0,60.0,40.0,False,,217.19451154397103,[],"[1280, 720]",ColorTask,92.0,66.0,,,HRV,HRV_0028,2022-11-30 17:55:52
,wl-rdm,183,470032,0.0-8.66-0.66,1.0,184.0,,,,,,,[],,,,,,87.9,0.0,u,0.0,True,561.7000000178814,34.0,60.0,40.0,False,,385.2646857319786,[],"[1280, 720]",ColorTask,93.0,67.0,,,HRV,HRV_0028,2022-11-30 17:55:52
,wl-rdm,184,472050,0.0-8.67-0.67,1.0,185.0,,,,,,,[],,,,,,62.5,0.0,i,1.0,False,664.1000000238419,40.0,60.0,40.0,False,,296.56542870901774,[],"[1280, 720]",ColorTask,92.0,68.0,,,HRV,HRV_0028,2022-11-30 17:55:52
,wl-rdm,185,475186,0.0-8.68-0.68,1.0,186.0,,,,,,,[],,,,,,56.4,1.0,i,1.0,True,1707.199999988079,103.0,60.0,40.0,False,,366.6113511546811,[],"[1280, 720]",ColorTask,93.0,69.0,,,HRV,HRV_0028,2022-11-30 17:55:52
,wl-rdm,186,477238,0.0-8.69-0.69,1.0,187.0,,,,,,,[],,,,,,87.9,1.0,i,1.0,True,602.5,37.0,60.0,40.0,False,,373.3573038917863,[],"[1280, 720]",ColorTask,94.0,70.0,,,HRV,HRV_0028,2022-11-30 17:55:52
,wl-rdm,187,479273,0.0-8.70-0.70,1.0,188.0,,,,,,,[],,,,,,56.4,1.0,i,1.0,True,624.1000000238419,38.0,60.0,40.0,False,,339.8972058295196,[],"[1280, 720]",ColorTask,95.0,71.0,,,HRV,HRV_0028,2022-11-30 17:55:52
,wl-rdm,188,481225,0.0-8.71-0.71,1.0,189.0,,,,,,,[],,,,,,73.6,1.0,i,1.0,True,666.1000000238419,40.0,60.0,40.0,False,,218.88717446319248,[],"[1280, 720]",ColorTask,96.0,72.0,,,HRV,HRV_0028,2022-11-30 17:55:52
,wl-rdm,189,483677,0.0-8.72-0.72,1.0,190.0,,,,,,,[],,,,,,50.0,1.0,u,0.0,False,1154.4000000059605,70.0,60.0,40.0,False,,224.6100177666911,[],"[1280, 720]",ColorTask,95.0,73.0,,,HRV,HRV_0028,2022-11-30 17:55:52
,wl-rdm,190,486145,0.0-8.73-0.73,1.0,191.0,,,,,,,[],,,,,,62.5,0.0,u,0.0,True,1082.5,65.0,60.0,40.0,False,,324.4008783478539,[],"[1280, 720]",ColorTask,96.0,74.0,,,HRV,HRV_0028,2022-11-30 17:55:52
,wl-rdm,191,489248,0.0-8.74-0.74,1.0,192.0,,,,,,,[],,,,,,53.2,0.0,i,1.0,False,1767.5999999940395,106.0,60.0,40.0,False,,271.57370532816736,[],"[1280, 720]",ColorTask,95.0,75.0,,,HRV,HRV_0028,2022-11-30 17:55:52
,wl-rdm,192,491483,0.0-8.75-0.75,1.0,193.0,,,,,,,[],,,,,,62.5,0.0,u,0.0,True,963.8000000119209,58.0,60.0,40.0,False,,209.60910727656776,[],"[1280, 720]",ColorTask,96.0,76.0,,,HRV,HRV_0028,2022-11-30 17:55:52
,wl-rdm,193,494035,0.0-8.76-0.76,1.0,194.0,,,,,,,[],,,,,,53.2,0.0,i,1.0,False,1272.699999988079,77.0,60.0,40.0,False,,206.91007213013006,[],"[1280, 720]",ColorTask,95.0,77.0,,,HRV,HRV_0028,2022-11-30 17:55:52
,wl-rdm,194,496237,0.0-8.77-0.77,1.0,195.0,,,,,,,[],,,,,,62.5,1.0,i,1.0,True,853.9000000059605,52.0,60.0,40.0,False,,270.9341661497994,[],"[1280, 720]",ColorTask,96.0,78.0,,,HRV,HRV_0028,2022-11-30 17:55:52
,wl-rdm,195,498439,0.0-8.78-0.78,1.0,196.0,,,,,,,[],,,,,,56.4,0.0,u,0.0,True,802.0999999940395,49.0,60.0,40.0,False,,333.32335071359864,[],"[1280, 720]",ColorTask,97.0,79.0,,,HRV,HRV_0028,2022-11-30 17:55:52
,wl-rdm,196,501441,0.0-8.79-0.79,1.0,197.0,,,,,,,[],,,,,,53.2,0.0,u,0.0,True,1641.5,99.0,60.0,40.0,False,,291.89145279191393,[],"[1280, 720]",ColorTask,98.0,80.0,,,HRV,HRV_0028,2022-11-30 17:55:52
,wl-rdm,197,503810,0.0-8.80-0.80,1.0,198.0,,,,,,,[],,,,,,50.0,1.0,u,0.0,False,1073.7000000178814,65.0,60.0,40.0,False,,233.21883973142207,[],"[1280, 720]",ColorTask,97.0,81.0,,,HRV,HRV_0028,2022-11-30 17:55:52
,wl-rdm,198,506429,0.0-8.81-0.81,1.0,199.0,,,,,,,[],,,,,,53.2,0.0,u,0.0,True,1304.699999988079,79.0,60.0,40.0,False,,234.76185769815402,[],"[1280, 720]",ColorTask,98.0,82.0,,,HRV,HRV_0028,2022-11-30 17:55:52
,wl-rdm,199,509465,0.0-8.82-0.82,1.0,200.0,,,,,,,[],,,,,,56.4,1.0,i,1.0,True,1659.0,100.0,60.0,40.0,False,,311.9095239211059,[],"[1280, 720]",ColorTask,99.0,83.0,,,HRV,HRV_0028,2022-11-30 17:55:52
,wl-rdm,200,511917,0.0-8.83-0.83,1.0,201.0,,,,,,,[],,,,,,56.4,1.0,i,1.0,True,1071.0999999940395,65.0,60.0,40.0,False,,312.8397929738675,[],"[1280, 720]",ColorTask,100.0,84.0,,,HRV,HRV_0028,2022-11-30 17:55:52
,wl-rdm,201,515102,0.0-8.84-0.84,1.0,202.0,,,,,,,[],,,,,,50.0,0.0,i,1.0,False,1827.7000000178814,110.0,60.0,40.0,False,,293.009969708926,[],"[1280, 720]",ColorTask,99.0,85.0,,,HRV,HRV_0028,2022-11-30 17:55:52
,wl-rdm,202,517921,0.0-8.85-0.85,1.0,203.0,,,,,,,[],,,,,,50.0,0.0,u,0.0,True,1365.7999999821186,82.0,60.0,40.0,False,,396.4849138587927,[],"[1280, 720]",ColorTask,100.0,86.0,,,HRV,HRV_0028,2022-11-30 17:55:52
,wl-rdm,203,520057,0.0-8.86-0.86,1.0,204.0,,,,,,,[],,,,,,87.9,0.0,u,0.0,True,682.9000000059605,41.0,60.0,40.0,False,,388.0462221799937,[],"[1280, 720]",ColorTask,101.0,87.0,,,HRV,HRV_0028,2022-11-30 17:55:52
,wl-rdm,204,522241,0.0-8.87-0.87,1.0,205.0,,,,,,,[],,,,,,62.5,1.0,i,1.0,True,790.3000000119209,48.0,60.0,40.0,False,,332.5640480112207,[],"[1280, 720]",ColorTask,102.0,88.0,,,HRV,HRV_0028,2022-11-30 17:55:52
,wl-rdm,205,524627,0.0-8.88-0.88,1.0,206.0,,,,,,,[],,,,,,53.2,1.0,i,1.0,True,1097.4000000059605,66.0,60.0,40.0,False,,224.0532375245936,[],"[1280, 720]",ColorTask,103.0,89.0,,,HRV,HRV_0028,2022-11-30 17:55:52
,wl-rdm,206,526561,0.0-8.89-0.89,1.0,207.0,,,,,,,[],,,,,,87.9,1.0,i,1.0,True,664.6999999880791,40.0,60.0,40.0,False,,212.03861994112097,[],"[1280, 720]",ColorTask,104.0,90.0,,,HRV,HRV_0028,2022-11-30 17:55:52
,wl-rdm,207,528730,0.0-8.90-0.90,1.0,208.0,,,,,,,[],,,,,,73.6,0.0,u,0.0,True,731.0999999940395,44.0,60.0,40.0,False,,369.2977362789306,[],"[1280, 720]",ColorTask,105.0,91.0,,,HRV,HRV_0028,2022-11-30 17:55:52
,wl-rdm,208,530665,0.0-8.91-0.91,1.0,209.0,,,,,,,[],,,,,,73.6,1.0,i,1.0,True,632.0,38.0,60.0,40.0,False,,239.94609986281148,[],"[1280, 720]",ColorTask,106.0,92.0,,,HRV,HRV_0028,2022-11-30 17:55:52
,wl-rdm,209,532666,0.0-8.92-0.92,1.0,210.0,,,,,,,[],,,,,,87.9,0.0,u,0.0,True,605.6999999880791,37.0,60.0,40.0,False,,330.4312891348411,[],"[1280, 720]",ColorTask,107.0,93.0,,,HRV,HRV_0028,2022-11-30 17:55:52
,wl-rdm,210,535485,0.0-8.93-0.93,1.0,211.0,,,,,,,[],,,,,,53.2,1.0,u,0.0,False,1444.7999999821186,87.0,60.0,40.0,False,,315.84212373798135,[],"[1280, 720]",ColorTask,106.0,94.0,,,HRV,HRV_0028,2022-11-30 17:55:52
,wl-rdm,211,538021,0.0-8.94-0.94,1.0,212.0,,,,,,,[],,,,,,53.2,1.0,i,1.0,True,1220.699999988079,74.0,60.0,40.0,False,,236.90180134459345,[],"[1280, 720]",ColorTask,107.0,95.0,,,HRV,HRV_0028,2022-11-30 17:55:52
,wl-rdm,212,540907,0.0-8.95-0.95,1.0,213.0,,,,,,,[],,,,,,56.4,0.0,u,0.0,True,1573.199999988079,95.0,60.0,40.0,False,,239.776318252614,[],"[1280, 720]",ColorTask,108.0,96.0,,,HRV,HRV_0028,2022-11-30 17:55:52
,wl-rdm,213,543742,0.0-8.96-0.96,1.0,214.0,,,,,,,[],,,,,,53.2,0.0,i,1.0,False,1385.8999999761581,84.0,60.0,40.0,False,,374.00592732399724,[],"[1280, 720]",ColorTask,107.0,97.0,,,HRV,HRV_0028,2022-11-30 17:55:52
,wl-rdm,214,545677,0.0-8.97-0.97,1.0,215.0,,,,,,,[],,,,,,73.6,1.0,i,1.0,True,661.0,40.0,60.0,40.0,False,,214.71408187326722,[],"[1280, 720]",ColorTask,108.0,98.0,,,HRV,HRV_0028,2022-11-30 17:55:52
,wl-rdm,215,548113,0.0-8.98-0.98,1.0,216.0,,,,,,,[],,,,,,56.4,0.0,u,0.0,True,1029.7999999821186,62.0,60.0,40.0,False,,351.1146042368108,[],"[1280, 720]",ColorTask,109.0,99.0,,,HRV,HRV_0028,2022-11-30 17:55:52
,wl-rdm,216,550231,0.0-8.99-0.99,1.0,217.0,,,,,,,[],,,,,,87.9,1.0,i,1.0,True,668.1999999880791,41.0,60.0,40.0,False,,369.1980111940027,[],"[1280, 720]",ColorTask,110.0,100.0,,,HRV,HRV_0028,2022-11-30 17:55:52
,wl-rdm,217,553367,0.0-8.100-0.100,1.0,218.0,,,,,,,[],,,,,,50.0,1.0,i,1.0,True,1785.9000000059605,108.0,60.0,40.0,False,,272.26619808859925,[],"[1280, 720]",ColorTask,111.0,101.0,,,HRV,HRV_0028,2022-11-30 17:55:52
,wl-rdm,218,555952,0.0-8.101-0.101,1.0,219.0,,,,,,,[],,,,,,56.4,1.0,i,1.0,True,1299.8999999761581,78.0,60.0,40.0,False,,225.38637388819035,[],"[1280, 720]",ColorTask,112.0,102.0,,,HRV,HRV_0028,2022-11-30 17:55:52
,wl-rdm,219,558004,0.0-8.102-0.102,1.0,220.0,,,,,,,[],,,,,,73.6,0.0,u,0.0,True,729.0,44.0,60.0,40.0,False,,254.313715464712,[],"[1280, 720]",ColorTask,113.0,103.0,,,HRV,HRV_0028,2022-11-30 17:55:52
,wl-rdm,220,560189,0.0-8.103-0.103,1.0,221.0,,,,,,,[],,,,,,73.6,1.0,i,1.0,True,744.7000000178814,45.0,60.0,40.0,False,,379.3533534038047,[],"[1280, 720]",ColorTask,114.0,104.0,,,HRV,HRV_0028,2022-11-30 17:55:52
,wl-rdm,221,563008,0.0-8.104-0.104,1.0,222.0,,,,,,,[],,,,,,56.4,0.0,u,0.0,True,1533.5999999940395,92.0,60.0,40.0,False,,224.37174755535867,[],"[1280, 720]",ColorTask,115.0,105.0,,,HRV,HRV_0028,2022-11-30 17:55:52
,wl-rdm,222,565644,0.0-8.105-0.105,1.0,223.0,,,,,,,[],,,,,,62.5,0.0,u,0.0,True,1346.7000000178814,81.0,60.0,40.0,False,,224.0039079670978,[],"[1280, 720]",ColorTask,116.0,106.0,,,HRV,HRV_0028,2022-11-30 17:55:52
,wl-rdm,223,568463,0.0-8.106-0.106,1.0,224.0,,,,,,,[],,,,,,50.0,0.0,u,0.0,True,1502.5999999940395,91.0,60.0,40.0,False,,233.80672404867113,[],"[1280, 720]",ColorTask,117.0,107.0,,,HRV,HRV_0028,2022-11-30 17:55:52
,wl-rdm,224,570931,0.0-8.107-0.107,1.0,225.0,,,,,,,[],,,,,,62.5,1.0,i,1.0,True,1038.800000011921,63.0,60.0,40.0,False,,352.3497007012701,[],"[1280, 720]",ColorTask,118.0,108.0,,,HRV,HRV_0028,2022-11-30 17:55:52
,wl-html-button-response,225,574268,0.0-9.0-0.0,,,,,,,,,,3335.300000011921,,0,,,,,,,,,,,,,,,,,,,,<h3>End of this session. Thank you!</h3><br>,['Close window'],HRV,HRV_0028,2022-11-30 17:55:52
