trialN,stimuli,question,trialStartTime,trialStartTime_UNIX,stimulus1,rt,receivedResponse,rating,trialEndTime,trialDuration,stimulus1Loaded,exp,subjectId,date
0,"[{'imgObject': {}, 'id': 'blueberries', 'src': '/static/foodstim60/blueberries.jpg', 'key': 'NaN', 'origWidth': 411, 'origHeight': 411, 'width': 411, 'height': 411, 'widthPercent': 0.8, 'rescaleHeight': True, 'trialN': 0, 'loaded': True, 'loadedTime': 1873, 'positionName': 'CENTER', 'positionCoords': [1074.5, 514.5]}]",Rate how much you want to eat this food from 0 (least) to 10 (most).,1916,1669829050359,blueberries,1552,True,4.3500000000000005,3468,1552,True,HRV,HRV_0028,2022-11-30 17:26:04
1,"[{'imgObject': {}, 'id': 'steak', 'src': '/static/foodstim60/steak.jpg', 'key': 'NaN', 'origWidth': 410, 'origHeight': 410, 'width': 410, 'height': 410, 'widthPercent': 0.8, 'rescaleHeight': True, 'trialN': 1, 'loaded': True, 'loadedTime': 1874, 'positionName': 'CENTER', 'positionCoords': [1075, 515]}]",Rate how much you want to eat this food from 0 (least) to 10 (most).,3484,1669829051926,steak,1235,True,7.51,4719,1235,True,HRV,HRV_0028,2022-11-30 17:26:04
2,"[{'imgObject': {}, 'id': 'luckycharms', 'src': '/static/foodstim60/luckycharms.jpg', 'key': 'NaN', 'origWidth': 410, 'origHeight': 409, 'width': 410, 'height': 409, 'widthPercent': 0.8, 'rescaleHeight': True, 'trialN': 2, 'loaded': True, 'loadedTime': 1874, 'positionName': 'CENTER', 'positionCoords': [1075, 515.5]}]",Rate how much you want to eat this food from 0 (least) to 10 (most).,4728,1669829053171,luckycharms,1396,True,6.11,6124,1396,True,HRV,HRV_0028,2022-11-30 17:26:04
3,"[{'imgObject': {}, 'id': 'chicken nuggets2', 'src': '/static/foodstim60/chicken nuggets2.jpg', 'key': 'NaN', 'origWidth': 410, 'origHeight': 409, 'width': 410, 'height': 409, 'widthPercent': 0.8, 'rescaleHeight': True, 'trialN': 3, 'loaded': True, 'loadedTime': 1875, 'positionName': 'CENTER', 'positionCoords': [1075, 515.5]}]",Rate how much you want to eat this food from 0 (least) to 10 (most).,6141,1669829054583,chicken nuggets2,1719,True,3.1,7860,1719,True,HRV,HRV_0028,2022-11-30 17:26:04
4,"[{'imgObject': {}, 'id': 'rigatoni', 'src': '/static/foodstim60/rigatoni.jpg', 'key': 'NaN', 'origWidth': 411, 'origHeight': 411, 'width': 411, 'height': 411, 'widthPercent': 0.8, 'rescaleHeight': True, 'trialN': 4, 'loaded': True, 'loadedTime': 1876, 'positionName': 'CENTER', 'positionCoords': [1074.5, 514.5]}]",Rate how much you want to eat this food from 0 (least) to 10 (most).,7862,1669829056305,rigatoni,1466,True,0.36,9328,1466,True,HRV,HRV_0028,2022-11-30 17:26:04
5,"[{'imgObject': {}, 'id': 'bagel and cc', 'src': '/static/foodstim60/bagel and cc.jpg', 'key': 'NaN', 'origWidth': 410, 'origHeight': 410, 'width': 410, 'height': 410, 'widthPercent': 0.8, 'rescaleHeight': True, 'trialN': 5, 'loaded': True, 'loadedTime': 1876, 'positionName': 'CENTER', 'positionCoords': [1075, 515]}]",Rate how much you want to eat this food from 0 (least) to 10 (most).,9341,1669829057784,bagel and cc,1659,True,9.72,11000,1659,True,HRV,HRV_0028,2022-11-30 17:26:04
6,"[{'imgObject': {}, 'id': 'omelette', 'src': '/static/foodstim60/omelette.jpg', 'key': 'NaN', 'origWidth': 410, 'origHeight': 409, 'width': 410, 'height': 409, 'widthPercent': 0.8, 'rescaleHeight': True, 'trialN': 6, 'loaded': True, 'loadedTime': 1877, 'positionName': 'CENTER', 'positionCoords': [1075, 515.5]}]",Rate how much you want to eat this food from 0 (least) to 10 (most).,11002,1669829059446,omelette,1904,True,1.92,12906,1904,True,HRV,HRV_0028,2022-11-30 17:26:04
7,"[{'imgObject': {}, 'id': 'fried eggs', 'src': '/static/foodstim60/fried eggs.jpg', 'key': 'NaN', 'origWidth': 410, 'origHeight': 410, 'width': 410, 'height': 410, 'widthPercent': 0.8, 'rescaleHeight': True, 'trialN': 7, 'loaded': True, 'loadedTime': 1878, 'positionName': 'CENTER', 'positionCoords': [1075, 515]}]",Rate how much you want to eat this food from 0 (least) to 10 (most).,12921,1669829061364,fried eggs,1438,True,0.21,14359,1438,True,HRV,HRV_0028,2022-11-30 17:26:04
8,"[{'imgObject': {}, 'id': 'veggieswithdip', 'src': '/static/foodstim60/veggieswithdip.jpg', 'key': 'NaN', 'origWidth': 409, 'origHeight': 409, 'width': 409, 'height': 409, 'widthPercent': 0.8, 'rescaleHeight': True, 'trialN': 8, 'loaded': True, 'loadedTime': 1879, 'positionName': 'CENTER', 'positionCoords': [1075.5, 515.5]}]",Rate how much you want to eat this food from 0 (least) to 10 (most).,14369,1669829062811,veggieswithdip,1710,True,8.72,16079,1710,True,HRV,HRV_0028,2022-11-30 17:26:04
9,"[{'imgObject': {}, 'id': 'ice cream sundae 002', 'src': '/static/foodstim60/ice cream sundae 002.jpg', 'key': 'NaN', 'origWidth': 409, 'origHeight': 409, 'width': 409, 'height': 409, 'widthPercent': 0.8, 'rescaleHeight': True, 'trialN': 9, 'loaded': True, 'loadedTime': 1880, 'positionName': 'CENTER', 'positionCoords': [1075.5, 515.5]}]",Rate how much you want to eat this food from 0 (least) to 10 (most).,16091,1669829064535,ice cream sundae 002,1863,True,6.390000000000001,17954,1863,True,HRV,HRV_0028,2022-11-30 17:26:04
10,"[{'imgObject': {}, 'id': 'edamame', 'src': '/static/foodstim60/edamame.jpg', 'key': 'NaN', 'origWidth': 409, 'origHeight': 410, 'width': 409, 'height': 410, 'widthPercent': 0.8, 'rescaleHeight': True, 'trialN': 10, 'loaded': True, 'loadedTime': 1881, 'positionName': 'CENTER', 'positionCoords': [1075.5, 515]}]",Rate how much you want to eat this food from 0 (least) to 10 (most).,17963,1669829066406,edamame,1053,True,2.82,19016,1053,True,HRV,HRV_0028,2022-11-30 17:26:04
11,"[{'imgObject': {}, 'id': 'froot loops w milk', 'src': '/static/foodstim60/froot loops w milk.jpg', 'key': 'NaN', 'origWidth': 410, 'origHeight': 410, 'width': 410, 'height': 410, 'widthPercent': 0.8, 'rescaleHeight': True, 'trialN': 11, 'loaded': True, 'loadedTime': 1881, 'positionName': 'CENTER', 'positionCoords': [1075, 515]}]",Rate how much you want to eat this food from 0 (least) to 10 (most).,19024,1669829067467,froot loops w milk,1617,True,6.18,20641,1617,True,HRV,HRV_0028,2022-11-30 17:26:04
12,"[{'imgObject': {}, 'id': 'granola w milk', 'src': '/static/foodstim60/granola w milk.jpg', 'key': 'NaN', 'origWidth': 410, 'origHeight': 410, 'width': 410, 'height': 410, 'widthPercent': 0.8, 'rescaleHeight': True, 'trialN': 12, 'loaded': True, 'loadedTime': 1883, 'positionName': 'CENTER', 'positionCoords': [1075, 515]}]",Rate how much you want to eat this food from 0 (least) to 10 (most).,20658,1669829069101,granola w milk,1607,True,2.64,22265,1607,True,HRV,HRV_0028,2022-11-30 17:26:04
13,"[{'imgObject': {}, 'id': 'apple slices', 'src': '/static/foodstim60/apple slices.jpg', 'key': 'NaN', 'origWidth': 409, 'origHeight': 410, 'width': 409, 'height': 410, 'widthPercent': 0.8, 'rescaleHeight': True, 'trialN': 13, 'loaded': True, 'loadedTime': 1883, 'positionName': 'CENTER', 'positionCoords': [1075.5, 515]}]",Rate how much you want to eat this food from 0 (least) to 10 (most).,22268,1669829070711,apple slices,3450,True,7.25,25718,3450,True,HRV,HRV_0028,2022-11-30 17:26:04
14,"[{'imgObject': {}, 'id': 'mango', 'src': '/static/foodstim60/mango.jpg', 'key': 'NaN', 'origWidth': 411, 'origHeight': 411, 'width': 411, 'height': 411, 'widthPercent': 0.8, 'rescaleHeight': True, 'trialN': 14, 'loaded': True, 'loadedTime': 1884, 'positionName': 'CENTER', 'positionCoords': [1074.5, 514.5]}]",Rate how much you want to eat this food from 0 (least) to 10 (most).,25724,1669829074167,mango,1917,True,5.36,27641,1917,True,HRV,HRV_0028,2022-11-30 17:26:04
15,"[{'imgObject': {}, 'id': 'popsicles', 'src': '/static/foodstim60/popsicles.jpg', 'key': 'NaN', 'origWidth': 410, 'origHeight': 410, 'width': 410, 'height': 410, 'widthPercent': 0.8, 'rescaleHeight': True, 'trialN': 15, 'loaded': True, 'loadedTime': 1885, 'positionName': 'CENTER', 'positionCoords': [1075, 515]}]",Rate how much you want to eat this food from 0 (least) to 10 (most).,27657,1669829076099,popsicles,1547,True,1.46,29204,1547,True,HRV,HRV_0028,2022-11-30 17:26:04
16,"[{'imgObject': {}, 'id': 'turkey sandwich', 'src': '/static/foodstim60/turkey sandwich.jpg', 'key': 'NaN', 'origWidth': 409, 'origHeight': 409, 'width': 409, 'height': 409, 'widthPercent': 0.8, 'rescaleHeight': True, 'trialN': 16, 'loaded': True, 'loadedTime': 1885, 'positionName': 'CENTER', 'positionCoords': [1075.5, 515.5]}]",Rate how much you want to eat this food from 0 (least) to 10 (most).,29209,1669829077652,turkey sandwich,1665,True,6.47,30874,1665,True,HRV,HRV_0028,2022-11-30 17:26:04
17,"[{'imgObject': {}, 'id': 'banana', 'src': '/static/foodstim60/banana.jpg', 'key': 'NaN', 'origWidth': 410, 'origHeight': 410, 'width': 410, 'height': 410, 'widthPercent': 0.8, 'rescaleHeight': True, 'trialN': 17, 'loaded': True, 'loadedTime': 1885, 'positionName': 'CENTER', 'positionCoords': [1075, 515]}]",Rate how much you want to eat this food from 0 (least) to 10 (most).,30883,1669829079326,banana,1648,True,4.65,32531,1648,True,HRV,HRV_0028,2022-11-30 17:26:04
18,"[{'imgObject': {}, 'id': 'kiwi', 'src': '/static/foodstim60/kiwi.jpg', 'key': 'NaN', 'origWidth': 410, 'origHeight': 410, 'width': 410, 'height': 410, 'widthPercent': 0.8, 'rescaleHeight': True, 'trialN': 18, 'loaded': True, 'loadedTime': 1886, 'positionName': 'CENTER', 'positionCoords': [1075, 515]}]",Rate how much you want to eat this food from 0 (least) to 10 (most).,32549,1669829080992,kiwi,1622,True,7.09,34171,1622,True,HRV,HRV_0028,2022-11-30 17:26:04
19,"[{'imgObject': {}, 'id': 'orange slices', 'src': '/static/foodstim60/orange slices.jpg', 'key': 'NaN', 'origWidth': 409, 'origHeight': 410, 'width': 409, 'height': 410, 'widthPercent': 0.8, 'rescaleHeight': True, 'trialN': 19, 'loaded': True, 'loadedTime': 1887, 'positionName': 'CENTER', 'positionCoords': [1075.5, 515]}]",Rate how much you want to eat this food from 0 (least) to 10 (most).,34184,1669829082627,orange slices,1785,True,9.75,35969,1785,True,HRV,HRV_0028,2022-11-30 17:26:04
20,"[{'imgObject': {}, 'id': 'salad w chicken', 'src': '/static/foodstim60/salad w chicken.jpg', 'key': 'NaN', 'origWidth': 411, 'origHeight': 411, 'width': 411, 'height': 411, 'widthPercent': 0.8, 'rescaleHeight': True, 'trialN': 20, 'loaded': True, 'loadedTime': 1887, 'positionName': 'CENTER', 'positionCoords': [1074.5, 514.5]}]",Rate how much you want to eat this food from 0 (least) to 10 (most).,35983,1669829084426,salad w chicken,2438,True,8.61,38421,2438,True,HRV,HRV_0028,2022-11-30 17:26:04
21,"[{'imgObject': {}, 'id': 'rigatoni and sauce', 'src': '/static/foodstim60/rigatoni and sauce.jpg', 'key': 'NaN', 'origWidth': 410, 'origHeight': 411, 'width': 410, 'height': 411, 'widthPercent': 0.8, 'rescaleHeight': True, 'trialN': 21, 'loaded': True, 'loadedTime': 1888, 'positionName': 'CENTER', 'positionCoords': [1075, 514.5]}]",Rate how much you want to eat this food from 0 (least) to 10 (most).,38432,1669829086875,rigatoni and sauce,1584,True,1.57,40016,1584,True,HRV,HRV_0028,2022-11-30 17:26:04
22,"[{'imgObject': {}, 'id': 'salmon', 'src': '/static/foodstim60/salmon.jpg', 'key': 'NaN', 'origWidth': 410, 'origHeight': 409, 'width': 410, 'height': 409, 'widthPercent': 0.8, 'rescaleHeight': True, 'trialN': 22, 'loaded': True, 'loadedTime': 1890, 'positionName': 'CENTER', 'positionCoords': [1075, 515.5]}]",Rate how much you want to eat this food from 0 (least) to 10 (most).,40031,1669829088473,salmon,1813,True,2.67,41844,1813,True,HRV,HRV_0028,2022-11-30 17:26:04
23,"[{'imgObject': {}, 'id': 'Tribe humus pita', 'src': '/static/foodstim60/Tribe humus pita.jpg', 'key': 'NaN', 'origWidth': 411, 'origHeight': 411, 'width': 411, 'height': 411, 'widthPercent': 0.8, 'rescaleHeight': True, 'trialN': 23, 'loaded': True, 'loadedTime': 1890, 'positionName': 'CENTER', 'positionCoords': [1074.5, 514.5]}]",Rate how much you want to eat this food from 0 (least) to 10 (most).,41845,1669829090289,Tribe humus pita,2045,True,5.84,43890,2045,True,HRV,HRV_0028,2022-11-30 17:26:04
24,"[{'imgObject': {}, 'id': 'mashed potato', 'src': '/static/foodstim60/mashed potato.jpg', 'key': 'NaN', 'origWidth': 409, 'origHeight': 409, 'width': 409, 'height': 409, 'widthPercent': 0.8, 'rescaleHeight': True, 'trialN': 24, 'loaded': True, 'loadedTime': 1891, 'positionName': 'CENTER', 'positionCoords': [1075.5, 515.5]}]",Rate how much you want to eat this food from 0 (least) to 10 (most).,43902,1669829092345,mashed potato,2520,True,5.03,46422,2520,True,HRV,HRV_0028,2022-11-30 17:26:04
25,"[{'imgObject': {}, 'id': 'cherries', 'src': '/static/foodstim60/cherries.jpg', 'key': 'NaN', 'origWidth': 410, 'origHeight': 411, 'width': 410, 'height': 411, 'widthPercent': 0.8, 'rescaleHeight': True, 'trialN': 25, 'loaded': True, 'loadedTime': 1892, 'positionName': 'CENTER', 'positionCoords': [1075, 514.5]}]",Rate how much you want to eat this food from 0 (least) to 10 (most).,46439,1669829094881,cherries,1920,True,6.08,48359,1920,True,HRV,HRV_0028,2022-11-30 17:26:04
26,"[{'imgObject': {}, 'id': 'burger', 'src': '/static/foodstim60/burger.jpg', 'key': 'NaN', 'origWidth': 409, 'origHeight': 409, 'width': 409, 'height': 409, 'widthPercent': 0.8, 'rescaleHeight': True, 'trialN': 26, 'loaded': True, 'loadedTime': 1892, 'positionName': 'CENTER', 'positionCoords': [1075.5, 515.5]}]",Rate how much you want to eat this food from 0 (least) to 10 (most).,48370,1669829096813,burger,2067,True,4.42,50437,2067,True,HRV,HRV_0028,2022-11-30 17:26:04
27,"[{'imgObject': {}, 'id': 'bagel plain', 'src': '/static/foodstim60/bagel plain.jpg', 'key': 'NaN', 'origWidth': 410, 'origHeight': 410, 'width': 410, 'height': 410, 'widthPercent': 0.8, 'rescaleHeight': True, 'trialN': 27, 'loaded': True, 'loadedTime': 1893, 'positionName': 'CENTER', 'positionCoords': [1075, 515]}]",Rate how much you want to eat this food from 0 (least) to 10 (most).,50441,1669829098883,bagel plain,1746,True,7.92,52187,1746,True,HRV,HRV_0028,2022-11-30 17:26:04
28,"[{'imgObject': {}, 'id': 'hotdog w must', 'src': '/static/foodstim60/hotdog w must.jpg', 'key': 'NaN', 'origWidth': 409, 'origHeight': 409, 'width': 409, 'height': 409, 'widthPercent': 0.8, 'rescaleHeight': True, 'trialN': 28, 'loaded': True, 'loadedTime': 1893, 'positionName': 'CENTER', 'positionCoords': [1075.5, 515.5]}]",Rate how much you want to eat this food from 0 (least) to 10 (most).,52193,1669829100635,hotdog w must,1464,True,0.75,53657,1464,True,HRV,HRV_0028,2022-11-30 17:26:04
29,"[{'imgObject': {}, 'id': 'chickenfingers', 'src': '/static/foodstim60/chickenfingers.jpg', 'key': 'NaN', 'origWidth': 410, 'origHeight': 410, 'width': 410, 'height': 410, 'widthPercent': 0.8, 'rescaleHeight': True, 'trialN': 29, 'loaded': True, 'loadedTime': 1894, 'positionName': 'CENTER', 'positionCoords': [1075, 515]}]",Rate how much you want to eat this food from 0 (least) to 10 (most).,53659,1669829102102,chickenfingers,2326,True,8.950000000000001,55985,2326,True,HRV,HRV_0028,2022-11-30 17:26:04
30,"[{'imgObject': {}, 'id': 'raisin bran w milk', 'src': '/static/foodstim60/raisin bran w milk.jpg', 'key': 'NaN', 'origWidth': 411, 'origHeight': 411, 'width': 411, 'height': 411, 'widthPercent': 0.8, 'rescaleHeight': True, 'trialN': 30, 'loaded': True, 'loadedTime': 1895, 'positionName': 'CENTER', 'positionCoords': [1074.5, 514.5]}]",Rate how much you want to eat this food from 0 (least) to 10 (most).,55991,1669829104433,raisin bran w milk,2181,True,6.62,58172,2181,True,HRV,HRV_0028,2022-11-30 17:26:04
31,"[{'imgObject': {}, 'id': 'hashbrowns', 'src': '/static/foodstim60/hashbrowns.jpg', 'key': 'NaN', 'origWidth': 411, 'origHeight': 410, 'width': 411, 'height': 410, 'widthPercent': 0.8, 'rescaleHeight': True, 'trialN': 31, 'loaded': True, 'loadedTime': 1895, 'positionName': 'CENTER', 'positionCoords': [1074.5, 515]}]",Rate how much you want to eat this food from 0 (least) to 10 (most).,58176,1669829106620,hashbrowns,2231,True,1.9000000000000001,60407,2231,True,HRV,HRV_0028,2022-11-30 17:26:04
32,"[{'imgObject': {}, 'id': 'tacos', 'src': '/static/foodstim60/tacos.jpg', 'key': 'NaN', 'origWidth': 411, 'origHeight': 411, 'width': 411, 'height': 411, 'widthPercent': 0.8, 'rescaleHeight': True, 'trialN': 32, 'loaded': True, 'loadedTime': 1896, 'positionName': 'CENTER', 'positionCoords': [1074.5, 514.5]}]",Rate how much you want to eat this food from 0 (least) to 10 (most).,60421,1669829108864,tacos,2438,True,4.0,62859,2438,True,HRV,HRV_0028,2022-11-30 17:26:04
33,"[{'imgObject': {}, 'id': 'cocktailshrimp', 'src': '/static/foodstim60/cocktailshrimp.jpg', 'key': 'NaN', 'origWidth': 410, 'origHeight': 410, 'width': 410, 'height': 410, 'widthPercent': 0.8, 'rescaleHeight': True, 'trialN': 33, 'loaded': True, 'loadedTime': 1897, 'positionName': 'CENTER', 'positionCoords': [1075, 515]}]",Rate how much you want to eat this food from 0 (least) to 10 (most).,62877,1669829111320,cocktailshrimp,1810,True,0.85,64687,1810,True,HRV,HRV_0028,2022-11-30 17:26:04
34,"[{'imgObject': {}, 'id': 'avocado', 'src': '/static/foodstim60/avocado.jpg', 'key': 'NaN', 'origWidth': 409, 'origHeight': 409, 'width': 409, 'height': 409, 'widthPercent': 0.8, 'rescaleHeight': True, 'trialN': 34, 'loaded': True, 'loadedTime': 1898, 'positionName': 'CENTER', 'positionCoords': [1075.5, 515.5]}]",Rate how much you want to eat this food from 0 (least) to 10 (most).,64703,1669829113146,avocado,1906,True,4.49,66609,1906,True,HRV,HRV_0028,2022-11-30 17:26:04
35,"[{'imgObject': {}, 'id': 'fruitsalad', 'src': '/static/foodstim60/fruitsalad.jpg', 'key': 'NaN', 'origWidth': 410, 'origHeight': 410, 'width': 410, 'height': 410, 'widthPercent': 0.8, 'rescaleHeight': True, 'trialN': 35, 'loaded': True, 'loadedTime': 1898, 'positionName': 'CENTER', 'positionCoords': [1075, 515]}]",Rate how much you want to eat this food from 0 (least) to 10 (most).,66615,1669829115058,fruitsalad,2042,True,9.03,68657,2042,True,HRV,HRV_0028,2022-11-30 17:26:04
36,"[{'imgObject': {}, 'id': 'roastedpotatoes', 'src': '/static/foodstim60/roastedpotatoes.jpg', 'key': 'NaN', 'origWidth': 409, 'origHeight': 410, 'width': 409, 'height': 410, 'widthPercent': 0.8, 'rescaleHeight': True, 'trialN': 36, 'loaded': True, 'loadedTime': 1899, 'positionName': 'CENTER', 'positionCoords': [1075.5, 515]}]",Rate how much you want to eat this food from 0 (least) to 10 (most).,68661,1669829117104,roastedpotatoes,1527,True,7.65,70188,1527,True,HRV,HRV_0028,2022-11-30 17:26:04
37,"[{'imgObject': {}, 'id': 'shreddedwheatwithmilk', 'src': '/static/foodstim60/shreddedwheatwithmilk.jpg', 'key': 'NaN', 'origWidth': 410, 'origHeight': 410, 'width': 410, 'height': 410, 'widthPercent': 0.8, 'rescaleHeight': True, 'trialN': 37, 'loaded': True, 'loadedTime': 1900, 'positionName': 'CENTER', 'positionCoords': [1075, 515]}]",Rate how much you want to eat this food from 0 (least) to 10 (most).,70203,1669829118645,shreddedwheatwithmilk,2203,True,1.1,72406,2203,True,HRV,HRV_0028,2022-11-30 17:26:04
38,"[{'imgObject': {}, 'id': 'turkeysandwich', 'src': '/static/foodstim60/turkeysandwich.jpg', 'key': 'NaN', 'origWidth': 409, 'origHeight': 409, 'width': 409, 'height': 409, 'widthPercent': 0.8, 'rescaleHeight': True, 'trialN': 38, 'loaded': True, 'loadedTime': 1901, 'positionName': 'CENTER', 'positionCoords': [1075.5, 515.5]}]",Rate how much you want to eat this food from 0 (least) to 10 (most).,72413,1669829120855,turkeysandwich,1806,True,8.13,74219,1806,True,HRV,HRV_0028,2022-11-30 17:26:04
39,"[{'imgObject': {}, 'id': 'seaweed', 'src': '/static/foodstim60/seaweed.jpg', 'key': 'NaN', 'origWidth': 410, 'origHeight': 410, 'width': 410, 'height': 410, 'widthPercent': 0.8, 'rescaleHeight': True, 'trialN': 39, 'loaded': True, 'loadedTime': 1901, 'positionName': 'CENTER', 'positionCoords': [1075, 515]}]",Rate how much you want to eat this food from 0 (least) to 10 (most).,74232,1669829122675,seaweed,1753,True,8.56,75985,1753,True,HRV,HRV_0028,2022-11-30 17:26:04
40,"[{'imgObject': {}, 'id': 'pear', 'src': '/static/foodstim60/pear.jpg', 'key': 'NaN', 'origWidth': 411, 'origHeight': 410, 'width': 411, 'height': 410, 'widthPercent': 0.8, 'rescaleHeight': True, 'trialN': 40, 'loaded': True, 'loadedTime': 1902, 'positionName': 'CENTER', 'positionCoords': [1074.5, 515]}]",Rate how much you want to eat this food from 0 (least) to 10 (most).,76002,1669829124445,pear,2327,True,4.7,78329,2327,True,HRV,HRV_0028,2022-11-30 17:26:04
41,"[{'imgObject': {}, 'id': 'yogurt no spoon', 'src': '/static/foodstim60/yogurt no spoon.jpg', 'key': 'NaN', 'origWidth': 411, 'origHeight': 410, 'width': 411, 'height': 410, 'widthPercent': 0.8, 'rescaleHeight': True, 'trialN': 41, 'loaded': True, 'loadedTime': 1902, 'positionName': 'CENTER', 'positionCoords': [1074.5, 515]}]",Rate how much you want to eat this food from 0 (least) to 10 (most).,78334,1669829126778,yogurt no spoon,1635,True,8.82,79969,1635,True,HRV,HRV_0028,2022-11-30 17:26:04
42,"[{'imgObject': {}, 'id': 'lox', 'src': '/static/foodstim60/lox.jpg', 'key': 'NaN', 'origWidth': 410, 'origHeight': 411, 'width': 410, 'height': 411, 'widthPercent': 0.8, 'rescaleHeight': True, 'trialN': 42, 'loaded': True, 'loadedTime': 1903, 'positionName': 'CENTER', 'positionCoords': [1075, 514.5]}]",Rate how much you want to eat this food from 0 (least) to 10 (most).,79985,1669829128428,lox,2078,True,7.96,82063,2078,True,HRV,HRV_0028,2022-11-30 17:26:04
43,"[{'imgObject': {}, 'id': 'sushi w_condiments', 'src': '/static/foodstim60/sushi w_condiments.jpg', 'key': 'NaN', 'origWidth': 410, 'origHeight': 410, 'width': 410, 'height': 410, 'widthPercent': 0.8, 'rescaleHeight': True, 'trialN': 43, 'loaded': True, 'loadedTime': 1904, 'positionName': 'CENTER', 'positionCoords': [1075, 515]}]",Rate how much you want to eat this food from 0 (least) to 10 (most).,82067,1669829130510,sushi w_condiments,1776,True,9.0,83843,1776,True,HRV,HRV_0028,2022-11-30 17:26:04
44,"[{'imgObject': {}, 'id': 'cheerios', 'src': '/static/foodstim60/cheerios.jpg', 'key': 'NaN', 'origWidth': 409, 'origHeight': 410, 'width': 409, 'height': 410, 'widthPercent': 0.8, 'rescaleHeight': True, 'trialN': 44, 'loaded': True, 'loadedTime': 1904, 'positionName': 'CENTER', 'positionCoords': [1075.5, 515]}]",Rate how much you want to eat this food from 0 (least) to 10 (most).,83856,1669829132299,cheerios,1675,True,5.97,85531,1675,True,HRV,HRV_0028,2022-11-30 17:26:04
45,"[{'imgObject': {}, 'id': 'baked potato', 'src': '/static/foodstim60/baked potato.jpg', 'key': 'NaN', 'origWidth': 409, 'origHeight': 410, 'width': 409, 'height': 410, 'widthPercent': 0.8, 'rescaleHeight': True, 'trialN': 45, 'loaded': True, 'loadedTime': 1905, 'positionName': 'CENTER', 'positionCoords': [1075.5, 515]}]",Rate how much you want to eat this food from 0 (least) to 10 (most).,85546,1669829133988,baked potato,2407,True,4.5,87953,2407,True,HRV,HRV_0028,2022-11-30 17:26:04
46,"[{'imgObject': {}, 'id': 'cantaloupe', 'src': '/static/foodstim60/cantaloupe.jpg', 'key': 'NaN', 'origWidth': 409, 'origHeight': 409, 'width': 409, 'height': 409, 'widthPercent': 0.8, 'rescaleHeight': True, 'trialN': 46, 'loaded': True, 'loadedTime': 1906, 'positionName': 'CENTER', 'positionCoords': [1075.5, 515.5]}]",Rate how much you want to eat this food from 0 (least) to 10 (most).,87959,1669829136401,cantaloupe,1573,True,7.3500000000000005,89532,1573,True,HRV,HRV_0028,2022-11-30 17:26:04
47,"[{'imgObject': {}, 'id': 'eggs', 'src': '/static/foodstim60/eggs.jpg', 'key': 'NaN', 'origWidth': 409, 'origHeight': 409, 'width': 409, 'height': 409, 'widthPercent': 0.8, 'rescaleHeight': True, 'trialN': 47, 'loaded': True, 'loadedTime': 1907, 'positionName': 'CENTER', 'positionCoords': [1075.5, 515.5]}]",Rate how much you want to eat this food from 0 (least) to 10 (most).,89538,1669829137980,eggs,1775,True,0.07,91313,1775,True,HRV,HRV_0028,2022-11-30 17:26:04
48,"[{'imgObject': {}, 'id': 'mac & cheese', 'src': '/static/foodstim60/mac & cheese.jpg', 'key': 'NaN', 'origWidth': 410, 'origHeight': 410, 'width': 410, 'height': 410, 'widthPercent': 0.8, 'rescaleHeight': True, 'trialN': 48, 'loaded': True, 'loadedTime': 1907, 'positionName': 'CENTER', 'positionCoords': [1075, 515]}]",Rate how much you want to eat this food from 0 (least) to 10 (most).,91317,1669829139760,mac & cheese,1792,True,0.5700000000000001,93109,1792,True,HRV,HRV_0028,2022-11-30 17:26:04
49,"[{'imgObject': {}, 'id': 'olives', 'src': '/static/foodstim60/olives.jpg', 'key': 'NaN', 'origWidth': 410, 'origHeight': 410, 'width': 410, 'height': 410, 'widthPercent': 0.8, 'rescaleHeight': True, 'trialN': 49, 'loaded': True, 'loadedTime': 1908, 'positionName': 'CENTER', 'positionCoords': [1075, 515]}]",Rate how much you want to eat this food from 0 (least) to 10 (most).,93122,1669829141565,olives,4050,True,3.35,97172,4050,True,HRV,HRV_0028,2022-11-30 17:26:04
50,"[{'imgObject': {}, 'id': 'raspberries', 'src': '/static/foodstim60/raspberries.jpg', 'key': 'NaN', 'origWidth': 411, 'origHeight': 411, 'width': 411, 'height': 411, 'widthPercent': 0.8, 'rescaleHeight': True, 'trialN': 50, 'loaded': True, 'loadedTime': 1909, 'positionName': 'CENTER', 'positionCoords': [1074.5, 514.5]}]",Rate how much you want to eat this food from 0 (least) to 10 (most).,97184,1669829145627,raspberries,1519,True,4.82,98703,1519,True,HRV,HRV_0028,2022-11-30 17:26:04
51,"[{'imgObject': {}, 'id': 'corn cob', 'src': '/static/foodstim60/corn cob.jpg', 'key': 'NaN', 'origWidth': 411, 'origHeight': 411, 'width': 411, 'height': 411, 'widthPercent': 0.8, 'rescaleHeight': True, 'trialN': 51, 'loaded': True, 'loadedTime': 1910, 'positionName': 'CENTER', 'positionCoords': [1074.5, 514.5]}]",Rate how much you want to eat this food from 0 (least) to 10 (most).,98711,1669829147154,corn cob,1929,True,1.78,100640,1929,True,HRV,HRV_0028,2022-11-30 17:26:04
52,"[{'imgObject': {}, 'id': 'eggsalad', 'src': '/static/foodstim60/eggsalad.jpg', 'key': 'NaN', 'origWidth': 410, 'origHeight': 409, 'width': 410, 'height': 409, 'widthPercent': 0.8, 'rescaleHeight': True, 'trialN': 52, 'loaded': True, 'loadedTime': 1910, 'positionName': 'CENTER', 'positionCoords': [1075, 515.5]}]",Rate how much you want to eat this food from 0 (least) to 10 (most).,100652,1669829149094,eggsalad,2097,True,0.25,102749,2097,True,HRV,HRV_0028,2022-11-30 17:26:04
53,"[{'imgObject': {}, 'id': 'sweetpotato', 'src': '/static/foodstim60/sweetpotato.jpg', 'key': 'NaN', 'origWidth': 410, 'origHeight': 410, 'width': 410, 'height': 410, 'widthPercent': 0.8, 'rescaleHeight': True, 'trialN': 53, 'loaded': True, 'loadedTime': 1911, 'positionName': 'CENTER', 'positionCoords': [1075, 515]}]",Rate how much you want to eat this food from 0 (least) to 10 (most).,102764,1669829151207,sweetpotato,2220,True,6.4,104984,2220,True,HRV,HRV_0028,2022-11-30 17:26:04
54,"[{'imgObject': {}, 'id': 'grilled chicken strips', 'src': '/static/foodstim60/grilled chicken strips.jpg', 'key': 'NaN', 'origWidth': 410, 'origHeight': 411, 'width': 410, 'height': 411, 'widthPercent': 0.8, 'rescaleHeight': True, 'trialN': 54, 'loaded': True, 'loadedTime': 1911, 'positionName': 'CENTER', 'positionCoords': [1075, 514.5]}]",Rate how much you want to eat this food from 0 (least) to 10 (most).,105001,1669829153443,grilled chicken strips,1670,True,8.01,106671,1670,True,HRV,HRV_0028,2022-11-30 17:26:04
55,"[{'imgObject': {}, 'id': 'strawberries', 'src': '/static/foodstim60/strawberries.jpg', 'key': 'NaN', 'origWidth': 410, 'origHeight': 410, 'width': 410, 'height': 410, 'widthPercent': 0.8, 'rescaleHeight': True, 'trialN': 55, 'loaded': True, 'loadedTime': 1912, 'positionName': 'CENTER', 'positionCoords': [1075, 515]}]",Rate how much you want to eat this food from 0 (least) to 10 (most).,106682,1669829155124,strawberries,1755,True,7.21,108437,1755,True,HRV,HRV_0028,2022-11-30 17:26:04
56,"[{'imgObject': {}, 'id': 'burrito', 'src': '/static/foodstim60/burrito.jpg', 'key': 'NaN', 'origWidth': 410, 'origHeight': 410, 'width': 410, 'height': 410, 'widthPercent': 0.8, 'rescaleHeight': True, 'trialN': 56, 'loaded': True, 'loadedTime': 1913, 'positionName': 'CENTER', 'positionCoords': [1075, 515]}]",Rate how much you want to eat this food from 0 (least) to 10 (most).,108441,1669829156884,burrito,2027,True,2.7800000000000002,110468,2027,True,HRV,HRV_0028,2022-11-30 17:26:04
57,"[{'imgObject': {}, 'id': 'blackbeanswithrice', 'src': '/static/foodstim60/blackbeanswithrice.jpg', 'key': 'NaN', 'origWidth': 410, 'origHeight': 410, 'width': 410, 'height': 410, 'widthPercent': 0.8, 'rescaleHeight': True, 'trialN': 57, 'loaded': True, 'loadedTime': 1914, 'positionName': 'CENTER', 'positionCoords': [1075, 515]}]",Rate how much you want to eat this food from 0 (least) to 10 (most).,110485,1669829158927,blackbeanswithrice,1468,True,5.8500000000000005,111953,1468,True,HRV,HRV_0028,2022-11-30 17:26:04
58,"[{'imgObject': {}, 'id': 'cherry tomato', 'src': '/static/foodstim60/cherry tomato.jpg', 'key': 'NaN', 'origWidth': 410, 'origHeight': 410, 'width': 410, 'height': 410, 'widthPercent': 0.8, 'rescaleHeight': True, 'trialN': 58, 'loaded': True, 'loadedTime': 1915, 'positionName': 'CENTER', 'positionCoords': [1075, 515]}]",Rate how much you want to eat this food from 0 (least) to 10 (most).,111959,1669829160402,cherry tomato,2572,True,1.17,114531,2572,True,HRV,HRV_0028,2022-11-30 17:26:04
59,"[{'imgObject': {}, 'id': 'Grapes', 'src': '/static/foodstim60/Grapes.jpg', 'key': 'NaN', 'origWidth': 411, 'origHeight': 411, 'width': 411, 'height': 411, 'widthPercent': 0.8, 'rescaleHeight': True, 'trialN': 59, 'loaded': True, 'loadedTime': 1915, 'positionName': 'CENTER', 'positionCoords': [1074.5, 514.5]}]",Rate how much you want to eat this food from 0 (least) to 10 (most).,114536,1669829162978,Grapes,1838,True,9.69,116374,1838,True,HRV,HRV_0028,2022-11-30 17:26:04
