trialN,stimuli,trialStartTime,trialStartTime_UNIX,stimulus1,stimulus2,stimulus1Bid,stimulus2Bid,delta,selected,rt,rt_UNIX,rt_perfnow,receivedResponse,rsp,trialEndTime,trialDuration,trialEndTime_UNIX,trialDuration_UNIX,exp,subjectId,date
0,"[{'imgObject': {}, 'id': 'burger', 'src': '/static/foodstim60/burger.jpg', 'key': 'u', 'origWidth': 409, 'origHeight': 409, 'width': 409, 'height': 409, 'widthPercent': 0.45, 'rescaleHeight': False, 'trialN': 0, 'loaded': True, 'loadedTime': 4352, 'positionName': 'LEFT', 'positionCoords': [819.8, 515.5], 'bid': 4.42}, {'imgObject': {}, 'id': 'shreddedwheatwithmilk', 'src': '/static/foodstim60/shreddedwheatwithmilk.jpg', 'key': 'i', 'origWidth': 410, 'origHeight': 410, 'width': 410, 'height': 410, 'widthPercent': 0.45, 'rescaleHeight': False, 'trialN': 0, 'loaded': True, 'loadedTime': 4353, 'positionName': 'RIGHT', 'positionCoords': [1331.2, 515], 'bid': 1.1}]",4402,1669829226675,burger,shreddedwheatwithmilk,4.42,1.1,-3.32,burger,970,975,973,True,u,5888,1486,1669829228162,1487,HRV,HRV_0028,2022-11-30 17:32:11
1,"[{'imgObject': {}, 'id': 'Grapes', 'src': '/static/foodstim60/Grapes.jpg', 'key': 'u', 'origWidth': 411, 'origHeight': 411, 'width': 411, 'height': 411, 'widthPercent': 0.45, 'rescaleHeight': False, 'trialN': 1, 'loaded': True, 'loadedTime': 4353, 'positionName': 'LEFT', 'positionCoords': [817.8, 514.5], 'bid': 9.69}, {'imgObject': {}, 'id': 'raspberries', 'src': '/static/foodstim60/raspberries.jpg', 'key': 'i', 'origWidth': 411, 'origHeight': 411, 'width': 411, 'height': 411, 'widthPercent': 0.45, 'rescaleHeight': False, 'trialN': 1, 'loaded': True, 'loadedTime': 4354, 'positionName': 'RIGHT', 'positionCoords': [1331.2, 514.5], 'bid': 4.82}]",5888,1669829228162,Grapes,raspberries,9.69,4.82,-4.869999999999999,Grapes,702,711,711,True,u,7104,1216,1669829229377,1215,HRV,HRV_0028,2022-11-30 17:32:11
2,"[{'imgObject': {}, 'id': 'granola w milk', 'src': '/static/foodstim60/granola w milk.jpg', 'key': 'u', 'origWidth': 410, 'origHeight': 410, 'width': 410, 'height': 410, 'widthPercent': 0.45, 'rescaleHeight': False, 'trialN': 2, 'loaded': True, 'loadedTime': 4355, 'positionName': 'LEFT', 'positionCoords': [818.8, 515], 'bid': 2.64}, {'imgObject': {}, 'id': 'mango', 'src': '/static/foodstim60/mango.jpg', 'key': 'i', 'origWidth': 411, 'origHeight': 411, 'width': 411, 'height': 411, 'widthPercent': 0.45, 'rescaleHeight': False, 'trialN': 2, 'loaded': True, 'loadedTime': 4356, 'positionName': 'RIGHT', 'positionCoords': [1331.2, 514.5], 'bid': 5.36}]",7104,1669829229378,granola w milk,mango,2.64,5.36,2.72,mango,846,848,847,True,i,8465,1361,1669829230739,1361,HRV,HRV_0028,2022-11-30 17:32:11
3,"[{'imgObject': {}, 'id': 'sweetpotato', 'src': '/static/foodstim60/sweetpotato.jpg', 'key': 'u', 'origWidth': 410, 'origHeight': 410, 'width': 410, 'height': 410, 'widthPercent': 0.45, 'rescaleHeight': False, 'trialN': 3, 'loaded': True, 'loadedTime': 4356, 'positionName': 'LEFT', 'positionCoords': [818.8, 515], 'bid': 6.4}, {'imgObject': {}, 'id': 'raisin bran w milk', 'src': '/static/foodstim60/raisin bran w milk.jpg', 'key': 'i', 'origWidth': 411, 'origHeight': 411, 'width': 411, 'height': 411, 'widthPercent': 0.45, 'rescaleHeight': False, 'trialN': 3, 'loaded': True, 'loadedTime': 4357, 'positionName': 'RIGHT', 'positionCoords': [1331.2, 514.5], 'bid': 6.62}]",8465,1669829230739,sweetpotato,raisin bran w milk,6.4,6.62,0.21999999999999975,raisin bran w milk,907,910,910,True,i,9882,1417,1669829232156,1417,HRV,HRV_0028,2022-11-30 17:32:11
4,"[{'imgObject': {}, 'id': 'bagel and cc', 'src': '/static/foodstim60/bagel and cc.jpg', 'key': 'u', 'origWidth': 410, 'origHeight': 410, 'width': 410, 'height': 410, 'widthPercent': 0.45, 'rescaleHeight': False, 'trialN': 4, 'loaded': True, 'loadedTime': 4358, 'positionName': 'LEFT', 'positionCoords': [818.8, 515], 'bid': 9.72}, {'imgObject': {}, 'id': 'orange slices', 'src': '/static/foodstim60/orange slices.jpg', 'key': 'i', 'origWidth': 409, 'origHeight': 410, 'width': 409, 'height': 410, 'widthPercent': 0.45, 'rescaleHeight': False, 'trialN': 4, 'loaded': True, 'loadedTime': 4359, 'positionName': 'RIGHT', 'positionCoords': [1331.2, 515], 'bid': 9.75}]",9882,1669829232156,bagel and cc,orange slices,9.72,9.75,0.02999999999999936,orange slices,708,717,717,True,i,11106,1224,1669829233380,1224,HRV,HRV_0028,2022-11-30 17:32:11
5,"[{'imgObject': {}, 'id': 'cocktailshrimp', 'src': '/static/foodstim60/cocktailshrimp.jpg', 'key': 'u', 'origWidth': 410, 'origHeight': 410, 'width': 410, 'height': 410, 'widthPercent': 0.45, 'rescaleHeight': False, 'trialN': 5, 'loaded': True, 'loadedTime': 4359, 'positionName': 'LEFT', 'positionCoords': [818.8, 515], 'bid': 0.85}, {'imgObject': {}, 'id': 'eggs', 'src': '/static/foodstim60/eggs.jpg', 'key': 'i', 'origWidth': 409, 'origHeight': 409, 'width': 409, 'height': 409, 'widthPercent': 0.45, 'rescaleHeight': False, 'trialN': 5, 'loaded': True, 'loadedTime': 4360, 'positionName': 'RIGHT', 'positionCoords': [1331.2, 515.5], 'bid': 0.07}]",11106,1669829233380,cocktailshrimp,eggs,0.85,0.07,-0.78,cocktailshrimp,687,701,701,True,u,12311,1205,1669829234585,1205,HRV,HRV_0028,2022-11-30 17:32:11
6,"[{'imgObject': {}, 'id': 'burrito', 'src': '/static/foodstim60/burrito.jpg', 'key': 'u', 'origWidth': 410, 'origHeight': 410, 'width': 410, 'height': 410, 'widthPercent': 0.45, 'rescaleHeight': False, 'trialN': 6, 'loaded': True, 'loadedTime': 4362, 'positionName': 'LEFT', 'positionCoords': [818.8, 515], 'bid': 2.78}, {'imgObject': {}, 'id': 'cocktailshrimp', 'src': '/static/foodstim60/cocktailshrimp.jpg', 'key': 'i', 'origWidth': 410, 'origHeight': 410, 'width': 410, 'height': 410, 'widthPercent': 0.45, 'rescaleHeight': False, 'trialN': 6, 'loaded': True, 'loadedTime': 4360, 'positionName': 'RIGHT', 'positionCoords': [1331.2, 515], 'bid': 0.85}]",12311,1669829234585,burrito,cocktailshrimp,2.78,0.85,-1.9299999999999997,burrito,857,864,864,True,u,13691,1380,1669829235965,1380,HRV,HRV_0028,2022-11-30 17:32:11
7,"[{'imgObject': {}, 'id': 'raspberries', 'src': '/static/foodstim60/raspberries.jpg', 'key': 'u', 'origWidth': 411, 'origHeight': 411, 'width': 411, 'height': 411, 'widthPercent': 0.45, 'rescaleHeight': False, 'trialN': 7, 'loaded': True, 'loadedTime': 4355, 'positionName': 'LEFT', 'positionCoords': [817.8, 514.5], 'bid': 4.82}, {'imgObject': {}, 'id': 'cherries', 'src': '/static/foodstim60/cherries.jpg', 'key': 'i', 'origWidth': 410, 'origHeight': 411, 'width': 410, 'height': 411, 'widthPercent': 0.45, 'rescaleHeight': False, 'trialN': 7, 'loaded': True, 'loadedTime': 4363, 'positionName': 'RIGHT', 'positionCoords': [1331.2, 514.5], 'bid': 6.08}]",13691,1669829235965,raspberries,cherries,4.82,6.08,1.2599999999999998,cherries,821,828,828,True,i,15021,1330,1669829237295,1330,HRV,HRV_0028,2022-11-30 17:32:11
8,"[{'imgObject': {}, 'id': 'lox', 'src': '/static/foodstim60/lox.jpg', 'key': 'u', 'origWidth': 410, 'origHeight': 411, 'width': 410, 'height': 411, 'widthPercent': 0.45, 'rescaleHeight': False, 'trialN': 8, 'loaded': True, 'loadedTime': 4363, 'positionName': 'LEFT', 'positionCoords': [818.8, 514.5], 'bid': 7.96}, {'imgObject': {}, 'id': 'edamame', 'src': '/static/foodstim60/edamame.jpg', 'key': 'i', 'origWidth': 409, 'origHeight': 410, 'width': 409, 'height': 410, 'widthPercent': 0.45, 'rescaleHeight': False, 'trialN': 8, 'loaded': True, 'loadedTime': 4364, 'positionName': 'RIGHT', 'positionCoords': [1331.2, 515], 'bid': 2.82}]",15021,1669829237295,lox,edamame,7.96,2.82,-5.140000000000001,lox,804,818,818,True,u,16351,1330,1669829238625,1330,HRV,HRV_0028,2022-11-30 17:32:11
9,"[{'imgObject': {}, 'id': 'froot loops w milk', 'src': '/static/foodstim60/froot loops w milk.jpg', 'key': 'u', 'origWidth': 410, 'origHeight': 410, 'width': 410, 'height': 410, 'widthPercent': 0.45, 'rescaleHeight': False, 'trialN': 9, 'loaded': True, 'loadedTime': 4365, 'positionName': 'LEFT', 'positionCoords': [818.8, 515], 'bid': 6.18}, {'imgObject': {}, 'id': 'mango', 'src': '/static/foodstim60/mango.jpg', 'key': 'i', 'origWidth': 411, 'origHeight': 411, 'width': 411, 'height': 411, 'widthPercent': 0.45, 'rescaleHeight': False, 'trialN': 9, 'loaded': True, 'loadedTime': 4356, 'positionName': 'RIGHT', 'positionCoords': [1331.2, 514.5], 'bid': 5.36}]",16351,1669829238625,froot loops w milk,mango,6.18,5.36,-0.8199999999999994,mango,832,849,848,True,i,17703,1352,1669829239977,1352,HRV,HRV_0028,2022-11-30 17:32:11
10,"[{'imgObject': {}, 'id': 'chicken nuggets2', 'src': '/static/foodstim60/chicken nuggets2.jpg', 'key': 'u', 'origWidth': 410, 'origHeight': 409, 'width': 410, 'height': 409, 'widthPercent': 0.45, 'rescaleHeight': False, 'trialN': 10, 'loaded': True, 'loadedTime': 4366, 'positionName': 'LEFT', 'positionCoords': [818.8, 515.5], 'bid': 3.1}, {'imgObject': {}, 'id': 'olives', 'src': '/static/foodstim60/olives.jpg', 'key': 'i', 'origWidth': 410, 'origHeight': 410, 'width': 410, 'height': 410, 'widthPercent': 0.45, 'rescaleHeight': False, 'trialN': 10, 'loaded': True, 'loadedTime': 4366, 'positionName': 'RIGHT', 'positionCoords': [1331.2, 515], 'bid': 3.35}]",17703,1669829239977,chicken nuggets2,olives,3.1,3.35,0.25,chicken nuggets2,965,977,976,True,u,19189,1486,1669829241463,1486,HRV,HRV_0028,2022-11-30 17:32:11
11,"[{'imgObject': {}, 'id': 'avocado', 'src': '/static/foodstim60/avocado.jpg', 'key': 'u', 'origWidth': 409, 'origHeight': 409, 'width': 409, 'height': 409, 'widthPercent': 0.45, 'rescaleHeight': False, 'trialN': 11, 'loaded': True, 'loadedTime': 4367, 'positionName': 'LEFT', 'positionCoords': [819.8, 515.5], 'bid': 4.49}, {'imgObject': {}, 'id': 'burger', 'src': '/static/foodstim60/burger.jpg', 'key': 'i', 'origWidth': 409, 'origHeight': 409, 'width': 409, 'height': 409, 'widthPercent': 0.45, 'rescaleHeight': False, 'trialN': 11, 'loaded': True, 'loadedTime': 4353, 'positionName': 'RIGHT', 'positionCoords': [1331.2, 515.5], 'bid': 4.42}]",19189,1669829241463,avocado,burger,4.49,4.42,-0.07000000000000028,avocado,901,914,914,True,u,20605,1416,1669829242878,1415,HRV,HRV_0028,2022-11-30 17:32:11
12,"[{'imgObject': {}, 'id': 'fried eggs', 'src': '/static/foodstim60/fried eggs.jpg', 'key': 'u', 'origWidth': 410, 'origHeight': 410, 'width': 410, 'height': 410, 'widthPercent': 0.45, 'rescaleHeight': False, 'trialN': 12, 'loaded': True, 'loadedTime': 4368, 'positionName': 'LEFT', 'positionCoords': [818.8, 515], 'bid': 0.21}, {'imgObject': {}, 'id': 'eggs', 'src': '/static/foodstim60/eggs.jpg', 'key': 'i', 'origWidth': 409, 'origHeight': 409, 'width': 409, 'height': 409, 'widthPercent': 0.45, 'rescaleHeight': False, 'trialN': 12, 'loaded': True, 'loadedTime': 4362, 'positionName': 'RIGHT', 'positionCoords': [1331.2, 515.5], 'bid': 0.07}]",20605,1669829242878,fried eggs,eggs,0.21,0.07,-0.13999999999999999,eggs,720,731,730,True,i,21849,1244,1669829244123,1245,HRV,HRV_0028,2022-11-30 17:32:11
13,"[{'imgObject': {}, 'id': 'turkeysandwich', 'src': '/static/foodstim60/turkeysandwich.jpg', 'key': 'u', 'origWidth': 409, 'origHeight': 409, 'width': 409, 'height': 409, 'widthPercent': 0.45, 'rescaleHeight': False, 'trialN': 13, 'loaded': True, 'loadedTime': 4369, 'positionName': 'LEFT', 'positionCoords': [819.8, 515.5], 'bid': 8.13}, {'imgObject': {}, 'id': 'olives', 'src': '/static/foodstim60/olives.jpg', 'key': 'i', 'origWidth': 410, 'origHeight': 410, 'width': 410, 'height': 410, 'widthPercent': 0.45, 'rescaleHeight': False, 'trialN': 13, 'loaded': True, 'loadedTime': 4367, 'positionName': 'RIGHT', 'positionCoords': [1331.2, 515], 'bid': 3.35}]",21849,1669829244123,turkeysandwich,olives,8.13,3.35,-4.780000000000001,turkeysandwich,1023,1039,1038,True,u,23392,1543,1669829245666,1543,HRV,HRV_0028,2022-11-30 17:32:11
14,"[{'imgObject': {}, 'id': 'mac & cheese', 'src': '/static/foodstim60/mac & cheese.jpg', 'key': 'u', 'origWidth': 410, 'origHeight': 410, 'width': 410, 'height': 410, 'widthPercent': 0.45, 'rescaleHeight': False, 'trialN': 14, 'loaded': True, 'loadedTime': 4369, 'positionName': 'LEFT', 'positionCoords': [818.8, 515], 'bid': 0.5700000000000001}, {'imgObject': {}, 'id': 'rigatoni and sauce', 'src': '/static/foodstim60/rigatoni and sauce.jpg', 'key': 'i', 'origWidth': 410, 'origHeight': 411, 'width': 410, 'height': 411, 'widthPercent': 0.45, 'rescaleHeight': False, 'trialN': 14, 'loaded': True, 'loadedTime': 4370, 'positionName': 'RIGHT', 'positionCoords': [1331.2, 514.5], 'bid': 1.57}]",23392,1669829245667,mac & cheese,rigatoni and sauce,0.5700000000000001,1.57,1.0,mac & cheese,933,942,943,True,u,24843,1451,1669829247118,1451,HRV,HRV_0028,2022-11-30 17:32:11
15,"[{'imgObject': {}, 'id': 'blueberries', 'src': '/static/foodstim60/blueberries.jpg', 'key': 'u', 'origWidth': 411, 'origHeight': 411, 'width': 411, 'height': 411, 'widthPercent': 0.45, 'rescaleHeight': False, 'trialN': 15, 'loaded': True, 'loadedTime': 4371, 'positionName': 'LEFT', 'positionCoords': [817.8, 514.5], 'bid': 4.3500000000000005}, {'imgObject': {}, 'id': 'blackbeanswithrice', 'src': '/static/foodstim60/blackbeanswithrice.jpg', 'key': 'i', 'origWidth': 410, 'origHeight': 410, 'width': 410, 'height': 410, 'widthPercent': 0.45, 'rescaleHeight': False, 'trialN': 15, 'loaded': True, 'loadedTime': 4372, 'positionName': 'RIGHT', 'positionCoords': [1331.2, 515], 'bid': 5.8500000000000005}]",24843,1669829247118,blueberries,blackbeanswithrice,4.3500000000000005,5.8500000000000005,1.5,blackbeanswithrice,872,876,876,True,i,26228,1385,1669829248502,1384,HRV,HRV_0028,2022-11-30 17:32:11
16,"[{'imgObject': {}, 'id': 'fruitsalad', 'src': '/static/foodstim60/fruitsalad.jpg', 'key': 'u', 'origWidth': 410, 'origHeight': 410, 'width': 410, 'height': 410, 'widthPercent': 0.45, 'rescaleHeight': False, 'trialN': 16, 'loaded': True, 'loadedTime': 4372, 'positionName': 'LEFT', 'positionCoords': [818.8, 515], 'bid': 9.03}, {'imgObject': {}, 'id': 'bagel plain', 'src': '/static/foodstim60/bagel plain.jpg', 'key': 'i', 'origWidth': 410, 'origHeight': 410, 'width': 410, 'height': 410, 'widthPercent': 0.45, 'rescaleHeight': False, 'trialN': 16, 'loaded': True, 'loadedTime': 4373, 'positionName': 'RIGHT', 'positionCoords': [1331.2, 515], 'bid': 7.92}]",26228,1669829248502,fruitsalad,bagel plain,9.03,7.92,-1.1099999999999994,fruitsalad,847,859,859,True,u,27602,1374,1669829249877,1375,HRV,HRV_0028,2022-11-30 17:32:11
17,"[{'imgObject': {}, 'id': 'baked potato', 'src': '/static/foodstim60/baked potato.jpg', 'key': 'u', 'origWidth': 409, 'origHeight': 410, 'width': 409, 'height': 410, 'widthPercent': 0.45, 'rescaleHeight': False, 'trialN': 17, 'loaded': True, 'loadedTime': 4374, 'positionName': 'LEFT', 'positionCoords': [819.8, 515], 'bid': 4.5}, {'imgObject': {}, 'id': 'chickenfingers', 'src': '/static/foodstim60/chickenfingers.jpg', 'key': 'i', 'origWidth': 410, 'origHeight': 410, 'width': 410, 'height': 410, 'widthPercent': 0.45, 'rescaleHeight': False, 'trialN': 17, 'loaded': True, 'loadedTime': 4375, 'positionName': 'RIGHT', 'positionCoords': [1331.2, 515], 'bid': 8.950000000000001}]",27602,1669829249877,baked potato,chickenfingers,4.5,8.950000000000001,4.450000000000001,chickenfingers,879,885,885,True,i,28996,1394,1669829251270,1393,HRV,HRV_0028,2022-11-30 17:32:11
18,"[{'imgObject': {}, 'id': 'baked potato', 'src': '/static/foodstim60/baked potato.jpg', 'key': 'u', 'origWidth': 409, 'origHeight': 410, 'width': 409, 'height': 410, 'widthPercent': 0.45, 'rescaleHeight': False, 'trialN': 18, 'loaded': True, 'loadedTime': 4375, 'positionName': 'LEFT', 'positionCoords': [819.8, 515], 'bid': 4.5}, {'imgObject': {}, 'id': 'popsicles', 'src': '/static/foodstim60/popsicles.jpg', 'key': 'i', 'origWidth': 410, 'origHeight': 410, 'width': 410, 'height': 410, 'widthPercent': 0.45, 'rescaleHeight': False, 'trialN': 18, 'loaded': True, 'loadedTime': 4376, 'positionName': 'RIGHT', 'positionCoords': [1331.2, 515], 'bid': 1.46}]",28996,1669829251271,baked potato,popsicles,4.5,1.46,-3.04,popsicles,1094,1098,1099,True,i,30597,1601,1669829252872,1601,HRV,HRV_0028,2022-11-30 17:32:11
19,"[{'imgObject': {}, 'id': 'grilled chicken strips', 'src': '/static/foodstim60/grilled chicken strips.jpg', 'key': 'u', 'origWidth': 410, 'origHeight': 411, 'width': 410, 'height': 411, 'widthPercent': 0.45, 'rescaleHeight': False, 'trialN': 19, 'loaded': True, 'loadedTime': 4377, 'positionName': 'LEFT', 'positionCoords': [818.8, 514.5], 'bid': 8.01}, {'imgObject': {}, 'id': 'seaweed', 'src': '/static/foodstim60/seaweed.jpg', 'key': 'i', 'origWidth': 410, 'origHeight': 410, 'width': 410, 'height': 410, 'widthPercent': 0.45, 'rescaleHeight': False, 'trialN': 19, 'loaded': True, 'loadedTime': 4378, 'positionName': 'RIGHT', 'positionCoords': [1331.2, 515], 'bid': 8.56}]",30597,1669829252872,grilled chicken strips,seaweed,8.01,8.56,0.5500000000000007,grilled chicken strips,993,1001,1002,True,u,32108,1511,1669829254383,1511,HRV,HRV_0028,2022-11-30 17:32:11
20,"[{'imgObject': {}, 'id': 'omelette', 'src': '/static/foodstim60/omelette.jpg', 'key': 'u', 'origWidth': 410, 'origHeight': 409, 'width': 410, 'height': 409, 'widthPercent': 0.45, 'rescaleHeight': False, 'trialN': 20, 'loaded': True, 'loadedTime': 4379, 'positionName': 'LEFT', 'positionCoords': [818.8, 515.5], 'bid': 1.92}, {'imgObject': {}, 'id': 'cantaloupe', 'src': '/static/foodstim60/cantaloupe.jpg', 'key': 'i', 'origWidth': 409, 'origHeight': 409, 'width': 409, 'height': 409, 'widthPercent': 0.45, 'rescaleHeight': False, 'trialN': 20, 'loaded': True, 'loadedTime': 4379, 'positionName': 'RIGHT', 'positionCoords': [1331.2, 515.5], 'bid': 7.35}]",32108,1669829254383,omelette,cantaloupe,1.92,7.35,5.43,cantaloupe,1029,1034,1035,True,i,33649,1541,1669829255923,1540,HRV,HRV_0028,2022-11-30 17:32:11
21,"[{'imgObject': {}, 'id': 'olives', 'src': '/static/foodstim60/olives.jpg', 'key': 'u', 'origWidth': 410, 'origHeight': 410, 'width': 410, 'height': 410, 'widthPercent': 0.45, 'rescaleHeight': False, 'trialN': 21, 'loaded': True, 'loadedTime': 4367, 'positionName': 'LEFT', 'positionCoords': [818.8, 515], 'bid': 3.35}, {'imgObject': {}, 'id': 'mac & cheese', 'src': '/static/foodstim60/mac & cheese.jpg', 'key': 'i', 'origWidth': 410, 'origHeight': 410, 'width': 410, 'height': 410, 'widthPercent': 0.45, 'rescaleHeight': False, 'trialN': 21, 'loaded': True, 'loadedTime': 4370, 'positionName': 'RIGHT', 'positionCoords': [1331.2, 515], 'bid': 0.5700000000000001}]",33649,1669829255923,olives,mac & cheese,3.35,0.5700000000000001,-2.7800000000000002,mac & cheese,832,846,846,True,i,35002,1353,1669829257277,1354,HRV,HRV_0028,2022-11-30 17:32:11
22,"[{'imgObject': {}, 'id': 'cocktailshrimp', 'src': '/static/foodstim60/cocktailshrimp.jpg', 'key': 'u', 'origWidth': 410, 'origHeight': 410, 'width': 410, 'height': 410, 'widthPercent': 0.45, 'rescaleHeight': False, 'trialN': 22, 'loaded': True, 'loadedTime': 4360, 'positionName': 'LEFT', 'positionCoords': [818.8, 515], 'bid': 0.85}, {'imgObject': {}, 'id': 'mac & cheese', 'src': '/static/foodstim60/mac & cheese.jpg', 'key': 'i', 'origWidth': 410, 'origHeight': 410, 'width': 410, 'height': 410, 'widthPercent': 0.45, 'rescaleHeight': False, 'trialN': 22, 'loaded': True, 'loadedTime': 4370, 'positionName': 'RIGHT', 'positionCoords': [1331.2, 515], 'bid': 0.5700000000000001}]",35002,1669829257277,cocktailshrimp,mac & cheese,0.85,0.5700000000000001,-0.2799999999999999,mac & cheese,791,805,805,True,i,36318,1316,1669829258592,1315,HRV,HRV_0028,2022-11-30 17:32:11
23,"[{'imgObject': {}, 'id': 'veggieswithdip', 'src': '/static/foodstim60/veggieswithdip.jpg', 'key': 'u', 'origWidth': 409, 'origHeight': 409, 'width': 409, 'height': 409, 'widthPercent': 0.45, 'rescaleHeight': False, 'trialN': 23, 'loaded': True, 'loadedTime': 4380, 'positionName': 'LEFT', 'positionCoords': [819.8, 515.5], 'bid': 8.72}, {'imgObject': {}, 'id': 'chickenfingers', 'src': '/static/foodstim60/chickenfingers.jpg', 'key': 'i', 'origWidth': 410, 'origHeight': 410, 'width': 410, 'height': 410, 'widthPercent': 0.45, 'rescaleHeight': False, 'trialN': 23, 'loaded': True, 'loadedTime': 4376, 'positionName': 'RIGHT', 'positionCoords': [1331.2, 515], 'bid': 8.950000000000001}]",36318,1669829258592,veggieswithdip,chickenfingers,8.72,8.950000000000001,0.23000000000000043,chickenfingers,866,873,873,True,i,37695,1377,1669829259969,1377,HRV,HRV_0028,2022-11-30 17:32:11
24,"[{'imgObject': {}, 'id': 'bagel and cc', 'src': '/static/foodstim60/bagel and cc.jpg', 'key': 'u', 'origWidth': 410, 'origHeight': 410, 'width': 410, 'height': 410, 'widthPercent': 0.45, 'rescaleHeight': False, 'trialN': 24, 'loaded': True, 'loadedTime': 4359, 'positionName': 'LEFT', 'positionCoords': [818.8, 515], 'bid': 9.72}, {'imgObject': {}, 'id': 'cantaloupe', 'src': '/static/foodstim60/cantaloupe.jpg', 'key': 'i', 'origWidth': 409, 'origHeight': 409, 'width': 409, 'height': 409, 'widthPercent': 0.45, 'rescaleHeight': False, 'trialN': 24, 'loaded': True, 'loadedTime': 4380, 'positionName': 'RIGHT', 'positionCoords': [1331.2, 515.5], 'bid': 7.35}]",37695,1669829259970,bagel and cc,cantaloupe,9.72,7.35,-2.370000000000001,bagel and cc,1395,1407,1408,True,u,39608,1913,1669829261882,1912,HRV,HRV_0028,2022-11-30 17:32:11
25,"[{'imgObject': {}, 'id': 'bagel and cc', 'src': '/static/foodstim60/bagel and cc.jpg', 'key': 'u', 'origWidth': 410, 'origHeight': 410, 'width': 410, 'height': 410, 'widthPercent': 0.45, 'rescaleHeight': False, 'trialN': 25, 'loaded': True, 'loadedTime': 4359, 'positionName': 'LEFT', 'positionCoords': [818.8, 515], 'bid': 9.72}, {'imgObject': {}, 'id': 'veggieswithdip', 'src': '/static/foodstim60/veggieswithdip.jpg', 'key': 'i', 'origWidth': 409, 'origHeight': 409, 'width': 409, 'height': 409, 'widthPercent': 0.45, 'rescaleHeight': False, 'trialN': 25, 'loaded': True, 'loadedTime': 4381, 'positionName': 'RIGHT', 'positionCoords': [1331.2, 515.5], 'bid': 8.72}]",39608,1669829261882,bagel and cc,veggieswithdip,9.72,8.72,-1.0,bagel and cc,1264,1271,1271,True,u,41385,1777,1669829263659,1777,HRV,HRV_0028,2022-11-30 17:32:11
26,"[{'imgObject': {}, 'id': 'kiwi', 'src': '/static/foodstim60/kiwi.jpg', 'key': 'u', 'origWidth': 410, 'origHeight': 410, 'width': 410, 'height': 410, 'widthPercent': 0.45, 'rescaleHeight': False, 'trialN': 26, 'loaded': True, 'loadedTime': 4381, 'positionName': 'LEFT', 'positionCoords': [818.8, 515], 'bid': 7.09}, {'imgObject': {}, 'id': 'strawberries', 'src': '/static/foodstim60/strawberries.jpg', 'key': 'i', 'origWidth': 410, 'origHeight': 410, 'width': 410, 'height': 410, 'widthPercent': 0.45, 'rescaleHeight': False, 'trialN': 26, 'loaded': True, 'loadedTime': 4383, 'positionName': 'RIGHT', 'positionCoords': [1331.2, 515], 'bid': 7.21}]",41385,1669829263659,kiwi,strawberries,7.09,7.21,0.1200000000000001,strawberries,1190,1206,1206,True,i,43097,1712,1669829265372,1713,HRV,HRV_0028,2022-11-30 17:32:11
27,"[{'imgObject': {}, 'id': 'cherry tomato', 'src': '/static/foodstim60/cherry tomato.jpg', 'key': 'u', 'origWidth': 410, 'origHeight': 410, 'width': 410, 'height': 410, 'widthPercent': 0.45, 'rescaleHeight': False, 'trialN': 27, 'loaded': True, 'loadedTime': 4383, 'positionName': 'LEFT', 'positionCoords': [818.8, 515], 'bid': 1.17}, {'imgObject': {}, 'id': 'turkey sandwich', 'src': '/static/foodstim60/turkey sandwich.jpg', 'key': 'i', 'origWidth': 409, 'origHeight': 409, 'width': 409, 'height': 409, 'widthPercent': 0.45, 'rescaleHeight': False, 'trialN': 27, 'loaded': True, 'loadedTime': 4384, 'positionName': 'RIGHT', 'positionCoords': [1331.2, 515.5], 'bid': 6.47}]",43097,1669829265372,cherry tomato,turkey sandwich,1.17,6.47,5.3,turkey sandwich,1009,1022,1023,True,i,44632,1535,1669829266907,1535,HRV,HRV_0028,2022-11-30 17:32:11
28,"[{'imgObject': {}, 'id': 'apple slices', 'src': '/static/foodstim60/apple slices.jpg', 'key': 'u', 'origWidth': 409, 'origHeight': 410, 'width': 409, 'height': 410, 'widthPercent': 0.45, 'rescaleHeight': False, 'trialN': 28, 'loaded': True, 'loadedTime': 4385, 'positionName': 'LEFT', 'positionCoords': [819.8, 515], 'bid': 7.25}, {'imgObject': {}, 'id': 'kiwi', 'src': '/static/foodstim60/kiwi.jpg', 'key': 'i', 'origWidth': 410, 'origHeight': 410, 'width': 410, 'height': 410, 'widthPercent': 0.45, 'rescaleHeight': False, 'trialN': 28, 'loaded': True, 'loadedTime': 4383, 'positionName': 'RIGHT', 'positionCoords': [1331.2, 515], 'bid': 7.09}]",44632,1669829266907,apple slices,kiwi,7.25,7.09,-0.16000000000000014,apple slices,1005,1014,1015,True,u,46152,1520,1669829268427,1520,HRV,HRV_0028,2022-11-30 17:32:11
29,"[{'imgObject': {}, 'id': 'luckycharms', 'src': '/static/foodstim60/luckycharms.jpg', 'key': 'u', 'origWidth': 410, 'origHeight': 409, 'width': 410, 'height': 409, 'widthPercent': 0.45, 'rescaleHeight': False, 'trialN': 29, 'loaded': True, 'loadedTime': 4386, 'positionName': 'LEFT', 'positionCoords': [818.8, 515.5], 'bid': 6.11}, {'imgObject': {}, 'id': 'mashed potato', 'src': '/static/foodstim60/mashed potato.jpg', 'key': 'i', 'origWidth': 409, 'origHeight': 409, 'width': 409, 'height': 409, 'widthPercent': 0.45, 'rescaleHeight': False, 'trialN': 29, 'loaded': True, 'loadedTime': 4387, 'positionName': 'RIGHT', 'positionCoords': [1331.2, 515.5], 'bid': 5.03}]",46152,1669829268427,luckycharms,mashed potato,6.11,5.03,-1.08,luckycharms,985,990,992,True,u,47647,1495,1669829269921,1494,HRV,HRV_0028,2022-11-30 17:32:11
30,"[{'imgObject': {}, 'id': 'raisin bran w milk', 'src': '/static/foodstim60/raisin bran w milk.jpg', 'key': 'u', 'origWidth': 411, 'origHeight': 411, 'width': 411, 'height': 411, 'widthPercent': 0.45, 'rescaleHeight': False, 'trialN': 30, 'loaded': True, 'loadedTime': 4358, 'positionName': 'LEFT', 'positionCoords': [817.8, 514.5], 'bid': 6.62}, {'imgObject': {}, 'id': 'roastedpotatoes', 'src': '/static/foodstim60/roastedpotatoes.jpg', 'key': 'i', 'origWidth': 409, 'origHeight': 410, 'width': 409, 'height': 410, 'widthPercent': 0.45, 'rescaleHeight': False, 'trialN': 30, 'loaded': True, 'loadedTime': 4388, 'positionName': 'RIGHT', 'positionCoords': [1331.2, 515], 'bid': 7.65}]",47647,1669829269921,raisin bran w milk,roastedpotatoes,6.62,7.65,1.0300000000000002,raisin bran w milk,1287,1288,1289,True,u,49446,1799,1669829271721,1800,HRV,HRV_0028,2022-11-30 17:32:11
31,"[{'imgObject': {}, 'id': 'burrito', 'src': '/static/foodstim60/burrito.jpg', 'key': 'u', 'origWidth': 410, 'origHeight': 410, 'width': 410, 'height': 410, 'widthPercent': 0.45, 'rescaleHeight': False, 'trialN': 31, 'loaded': True, 'loadedTime': 4363, 'positionName': 'LEFT', 'positionCoords': [818.8, 515], 'bid': 2.78}, {'imgObject': {}, 'id': 'edamame', 'src': '/static/foodstim60/edamame.jpg', 'key': 'i', 'origWidth': 409, 'origHeight': 410, 'width': 409, 'height': 410, 'widthPercent': 0.45, 'rescaleHeight': False, 'trialN': 31, 'loaded': True, 'loadedTime': 4365, 'positionName': 'RIGHT', 'positionCoords': [1331.2, 515], 'bid': 2.82}]",49446,1669829271721,burrito,edamame,2.78,2.82,0.040000000000000036,edamame,1097,1112,1113,True,i,51073,1627,1669829273347,1626,HRV,HRV_0028,2022-11-30 17:32:11
32,"[{'imgObject': {}, 'id': 'mac & cheese', 'src': '/static/foodstim60/mac & cheese.jpg', 'key': 'u', 'origWidth': 410, 'origHeight': 410, 'width': 410, 'height': 410, 'widthPercent': 0.45, 'rescaleHeight': False, 'trialN': 32, 'loaded': True, 'loadedTime': 4370, 'positionName': 'LEFT', 'positionCoords': [818.8, 515], 'bid': 0.5700000000000001}, {'imgObject': {}, 'id': 'luckycharms', 'src': '/static/foodstim60/luckycharms.jpg', 'key': 'i', 'origWidth': 410, 'origHeight': 409, 'width': 410, 'height': 409, 'widthPercent': 0.45, 'rescaleHeight': False, 'trialN': 32, 'loaded': True, 'loadedTime': 4387, 'positionName': 'RIGHT', 'positionCoords': [1331.2, 515.5], 'bid': 6.11}]",51073,1669829273348,mac & cheese,luckycharms,0.5700000000000001,6.11,5.54,luckycharms,939,950,950,True,i,52535,1462,1669829274810,1462,HRV,HRV_0028,2022-11-30 17:32:11
33,"[{'imgObject': {}, 'id': 'lox', 'src': '/static/foodstim60/lox.jpg', 'key': 'u', 'origWidth': 410, 'origHeight': 411, 'width': 410, 'height': 411, 'widthPercent': 0.45, 'rescaleHeight': False, 'trialN': 33, 'loaded': True, 'loadedTime': 4364, 'positionName': 'LEFT', 'positionCoords': [818.8, 514.5], 'bid': 7.96}, {'imgObject': {}, 'id': 'bagel plain', 'src': '/static/foodstim60/bagel plain.jpg', 'key': 'i', 'origWidth': 410, 'origHeight': 410, 'width': 410, 'height': 410, 'widthPercent': 0.45, 'rescaleHeight': False, 'trialN': 33, 'loaded': True, 'loadedTime': 4374, 'positionName': 'RIGHT', 'positionCoords': [1331.2, 515], 'bid': 7.92}]",52535,1669829274810,lox,bagel plain,7.96,7.92,-0.040000000000000036,lox,868,879,880,True,u,53929,1394,1669829276204,1394,HRV,HRV_0028,2022-11-30 17:32:11
34,"[{'imgObject': {}, 'id': 'Grapes', 'src': '/static/foodstim60/Grapes.jpg', 'key': 'u', 'origWidth': 411, 'origHeight': 411, 'width': 411, 'height': 411, 'widthPercent': 0.45, 'rescaleHeight': False, 'trialN': 34, 'loaded': True, 'loadedTime': 4354, 'positionName': 'LEFT', 'positionCoords': [817.8, 514.5], 'bid': 9.69}, {'imgObject': {}, 'id': 'lox', 'src': '/static/foodstim60/lox.jpg', 'key': 'i', 'origWidth': 410, 'origHeight': 411, 'width': 410, 'height': 411, 'widthPercent': 0.45, 'rescaleHeight': False, 'trialN': 34, 'loaded': True, 'loadedTime': 4364, 'positionName': 'RIGHT', 'positionCoords': [1331.2, 514.5], 'bid': 7.96}]",53930,1669829276204,Grapes,lox,9.69,7.96,-1.7299999999999995,Grapes,1145,1149,1149,True,u,55590,1660,1669829277864,1660,HRV,HRV_0028,2022-11-30 17:32:11
35,"[{'imgObject': {}, 'id': 'orange slices', 'src': '/static/foodstim60/orange slices.jpg', 'key': 'u', 'origWidth': 409, 'origHeight': 410, 'width': 409, 'height': 410, 'widthPercent': 0.45, 'rescaleHeight': False, 'trialN': 35, 'loaded': True, 'loadedTime': 4359, 'positionName': 'LEFT', 'positionCoords': [819.8, 515], 'bid': 9.75}, {'imgObject': {}, 'id': 'steak', 'src': '/static/foodstim60/steak.jpg', 'key': 'i', 'origWidth': 410, 'origHeight': 410, 'width': 410, 'height': 410, 'widthPercent': 0.45, 'rescaleHeight': False, 'trialN': 35, 'loaded': True, 'loadedTime': 4389, 'positionName': 'RIGHT', 'positionCoords': [1331.2, 515], 'bid': 7.51}]",55591,1669829277864,orange slices,steak,9.75,7.51,-2.24,orange slices,1296,1306,1304,True,u,57410,1819,1669829279685,1821,HRV,HRV_0028,2022-11-30 17:32:11
36,"[{'imgObject': {}, 'id': 'orange slices', 'src': '/static/foodstim60/orange slices.jpg', 'key': 'u', 'origWidth': 409, 'origHeight': 410, 'width': 409, 'height': 410, 'widthPercent': 0.45, 'rescaleHeight': False, 'trialN': 36, 'loaded': True, 'loadedTime': 4359, 'positionName': 'LEFT', 'positionCoords': [819.8, 515], 'bid': 9.75}, {'imgObject': {}, 'id': 'mango', 'src': '/static/foodstim60/mango.jpg', 'key': 'i', 'origWidth': 411, 'origHeight': 411, 'width': 411, 'height': 411, 'widthPercent': 0.45, 'rescaleHeight': False, 'trialN': 36, 'loaded': True, 'loadedTime': 4356, 'positionName': 'RIGHT', 'positionCoords': [1331.2, 514.5], 'bid': 5.36}]",57410,1669829279685,orange slices,mango,9.75,5.36,-4.39,orange slices,790,797,798,True,u,58709,1299,1669829280983,1298,HRV,HRV_0028,2022-11-30 17:32:11
37,"[{'imgObject': {}, 'id': 'burrito', 'src': '/static/foodstim60/burrito.jpg', 'key': 'u', 'origWidth': 410, 'origHeight': 410, 'width': 410, 'height': 410, 'widthPercent': 0.45, 'rescaleHeight': False, 'trialN': 37, 'loaded': True, 'loadedTime': 4363, 'positionName': 'LEFT', 'positionCoords': [818.8, 515], 'bid': 2.78}, {'imgObject': {}, 'id': 'burger', 'src': '/static/foodstim60/burger.jpg', 'key': 'i', 'origWidth': 409, 'origHeight': 409, 'width': 409, 'height': 409, 'widthPercent': 0.45, 'rescaleHeight': False, 'trialN': 37, 'loaded': True, 'loadedTime': 4353, 'positionName': 'RIGHT', 'positionCoords': [1331.2, 515.5], 'bid': 4.42}]",58709,1669829280983,burrito,burger,2.78,4.42,1.6400000000000001,burger,1381,1395,1394,True,i,60616,1907,1669829282890,1907,HRV,HRV_0028,2022-11-30 17:32:11
38,"[{'imgObject': {}, 'id': 'cherries', 'src': '/static/foodstim60/cherries.jpg', 'key': 'u', 'origWidth': 410, 'origHeight': 411, 'width': 410, 'height': 411, 'widthPercent': 0.45, 'rescaleHeight': False, 'trialN': 38, 'loaded': True, 'loadedTime': 4363, 'positionName': 'LEFT', 'positionCoords': [818.8, 514.5], 'bid': 6.08}, {'imgObject': {}, 'id': 'cheerios', 'src': '/static/foodstim60/cheerios.jpg', 'key': 'i', 'origWidth': 409, 'origHeight': 410, 'width': 409, 'height': 410, 'widthPercent': 0.45, 'rescaleHeight': False, 'trialN': 38, 'loaded': True, 'loadedTime': 4389, 'positionName': 'RIGHT', 'positionCoords': [1331.2, 515], 'bid': 5.97}]",60616,1669829282890,cherries,cheerios,6.08,5.97,-0.11000000000000032,cherries,1193,1200,1200,True,u,62324,1708,1669829284598,1708,HRV,HRV_0028,2022-11-30 17:32:11
39,"[{'imgObject': {}, 'id': 'fruitsalad', 'src': '/static/foodstim60/fruitsalad.jpg', 'key': 'u', 'origWidth': 410, 'origHeight': 410, 'width': 410, 'height': 410, 'widthPercent': 0.45, 'rescaleHeight': False, 'trialN': 39, 'loaded': True, 'loadedTime': 4373, 'positionName': 'LEFT', 'positionCoords': [818.8, 515], 'bid': 9.03}, {'imgObject': {}, 'id': 'bagel and cc', 'src': '/static/foodstim60/bagel and cc.jpg', 'key': 'i', 'origWidth': 410, 'origHeight': 410, 'width': 410, 'height': 410, 'widthPercent': 0.45, 'rescaleHeight': False, 'trialN': 39, 'loaded': True, 'loadedTime': 4359, 'positionName': 'RIGHT', 'positionCoords': [1331.2, 515], 'bid': 9.72}]",62324,1669829284598,fruitsalad,bagel and cc,9.03,9.72,0.6900000000000013,fruitsalad,923,924,923,True,u,63755,1431,1669829286030,1432,HRV,HRV_0028,2022-11-30 17:32:11
40,"[{'imgObject': {}, 'id': 'bagel plain', 'src': '/static/foodstim60/bagel plain.jpg', 'key': 'u', 'origWidth': 410, 'origHeight': 410, 'width': 410, 'height': 410, 'widthPercent': 0.45, 'rescaleHeight': False, 'trialN': 40, 'loaded': True, 'loadedTime': 4374, 'positionName': 'LEFT', 'positionCoords': [818.8, 515], 'bid': 7.92}, {'imgObject': {}, 'id': 'steak', 'src': '/static/foodstim60/steak.jpg', 'key': 'i', 'origWidth': 410, 'origHeight': 410, 'width': 410, 'height': 410, 'widthPercent': 0.45, 'rescaleHeight': False, 'trialN': 40, 'loaded': True, 'loadedTime': 4389, 'positionName': 'RIGHT', 'positionCoords': [1331.2, 515], 'bid': 7.51}]",63755,1669829286030,bagel plain,steak,7.92,7.51,-0.41000000000000014,steak,1617,1627,1628,True,i,65896,2141,1669829288170,2140,HRV,HRV_0028,2022-11-30 17:32:11
41,"[{'imgObject': {}, 'id': 'luckycharms', 'src': '/static/foodstim60/luckycharms.jpg', 'key': 'u', 'origWidth': 410, 'origHeight': 409, 'width': 410, 'height': 409, 'widthPercent': 0.45, 'rescaleHeight': False, 'trialN': 41, 'loaded': True, 'loadedTime': 4387, 'positionName': 'LEFT', 'positionCoords': [818.8, 515.5], 'bid': 6.11}, {'imgObject': {}, 'id': 'froot loops w milk', 'src': '/static/foodstim60/froot loops w milk.jpg', 'key': 'i', 'origWidth': 410, 'origHeight': 410, 'width': 410, 'height': 410, 'widthPercent': 0.45, 'rescaleHeight': False, 'trialN': 41, 'loaded': True, 'loadedTime': 4365, 'positionName': 'RIGHT', 'positionCoords': [1331.2, 515], 'bid': 6.18}]",65896,1669829288170,luckycharms,froot loops w milk,6.11,6.18,0.0699999999999994,luckycharms,1022,1031,1032,True,u,67428,1532,1669829289703,1533,HRV,HRV_0028,2022-11-30 17:32:11
42,"[{'imgObject': {}, 'id': 'fruitsalad', 'src': '/static/foodstim60/fruitsalad.jpg', 'key': 'u', 'origWidth': 410, 'origHeight': 410, 'width': 410, 'height': 410, 'widthPercent': 0.45, 'rescaleHeight': False, 'trialN': 42, 'loaded': True, 'loadedTime': 4373, 'positionName': 'LEFT', 'positionCoords': [818.8, 515], 'bid': 9.03}, {'imgObject': {}, 'id': 'seaweed', 'src': '/static/foodstim60/seaweed.jpg', 'key': 'i', 'origWidth': 410, 'origHeight': 410, 'width': 410, 'height': 410, 'widthPercent': 0.45, 'rescaleHeight': False, 'trialN': 42, 'loaded': True, 'loadedTime': 4379, 'positionName': 'RIGHT', 'positionCoords': [1331.2, 515], 'bid': 8.56}]",67429,1669829289704,fruitsalad,seaweed,9.03,8.56,-0.46999999999999886,fruitsalad,786,802,803,True,u,68740,1311,1669829291014,1310,HRV,HRV_0028,2022-11-30 17:32:11
43,"[{'imgObject': {}, 'id': 'grilled chicken strips', 'src': '/static/foodstim60/grilled chicken strips.jpg', 'key': 'u', 'origWidth': 410, 'origHeight': 411, 'width': 410, 'height': 411, 'widthPercent': 0.45, 'rescaleHeight': False, 'trialN': 43, 'loaded': True, 'loadedTime': 4378, 'positionName': 'LEFT', 'positionCoords': [818.8, 514.5], 'bid': 8.01}, {'imgObject': {}, 'id': 'turkeysandwich', 'src': '/static/foodstim60/turkeysandwich.jpg', 'key': 'i', 'origWidth': 409, 'origHeight': 409, 'width': 409, 'height': 409, 'widthPercent': 0.45, 'rescaleHeight': False, 'trialN': 43, 'loaded': True, 'loadedTime': 4369, 'positionName': 'RIGHT', 'positionCoords': [1331.2, 515.5], 'bid': 8.13}]",68740,1669829291014,grilled chicken strips,turkeysandwich,8.01,8.13,0.120000000000001,grilled chicken strips,1382,1395,1395,True,u,70647,1907,1669829292921,1907,HRV,HRV_0028,2022-11-30 17:32:11
44,"[{'imgObject': {}, 'id': 'banana', 'src': '/static/foodstim60/banana.jpg', 'key': 'u', 'origWidth': 410, 'origHeight': 410, 'width': 410, 'height': 410, 'widthPercent': 0.45, 'rescaleHeight': False, 'trialN': 44, 'loaded': True, 'loadedTime': 4390, 'positionName': 'LEFT', 'positionCoords': [818.8, 515], 'bid': 4.65}, {'imgObject': {}, 'id': 'rigatoni and sauce', 'src': '/static/foodstim60/rigatoni and sauce.jpg', 'key': 'i', 'origWidth': 410, 'origHeight': 411, 'width': 410, 'height': 411, 'widthPercent': 0.45, 'rescaleHeight': False, 'trialN': 44, 'loaded': True, 'loadedTime': 4371, 'positionName': 'RIGHT', 'positionCoords': [1331.2, 514.5], 'bid': 1.57}]",70647,1669829292921,banana,rigatoni and sauce,4.65,1.57,-3.08,rigatoni and sauce,912,929,928,True,i,72078,1431,1669829294352,1431,HRV,HRV_0028,2022-11-30 17:32:11
45,"[{'imgObject': {}, 'id': 'chicken nuggets2', 'src': '/static/foodstim60/chicken nuggets2.jpg', 'key': 'u', 'origWidth': 410, 'origHeight': 409, 'width': 410, 'height': 409, 'widthPercent': 0.45, 'rescaleHeight': False, 'trialN': 45, 'loaded': True, 'loadedTime': 4366, 'positionName': 'LEFT', 'positionCoords': [818.8, 515.5], 'bid': 3.1}, {'imgObject': {}, 'id': 'rigatoni', 'src': '/static/foodstim60/rigatoni.jpg', 'key': 'i', 'origWidth': 411, 'origHeight': 411, 'width': 411, 'height': 411, 'widthPercent': 0.45, 'rescaleHeight': False, 'trialN': 45, 'loaded': True, 'loadedTime': 4390, 'positionName': 'RIGHT', 'positionCoords': [1331.2, 514.5], 'bid': 0.36}]",72078,1669829294352,chicken nuggets2,rigatoni,3.1,0.36,-2.74,chicken nuggets2,1247,1249,1249,True,u,73830,1752,1669829296105,1753,HRV,HRV_0028,2022-11-30 17:32:11
46,"[{'imgObject': {}, 'id': 'kiwi', 'src': '/static/foodstim60/kiwi.jpg', 'key': 'u', 'origWidth': 410, 'origHeight': 410, 'width': 410, 'height': 410, 'widthPercent': 0.45, 'rescaleHeight': False, 'trialN': 46, 'loaded': True, 'loadedTime': 4383, 'positionName': 'LEFT', 'positionCoords': [818.8, 515], 'bid': 7.09}, {'imgObject': {}, 'id': 'rigatoni and sauce', 'src': '/static/foodstim60/rigatoni and sauce.jpg', 'key': 'i', 'origWidth': 410, 'origHeight': 411, 'width': 410, 'height': 411, 'widthPercent': 0.45, 'rescaleHeight': False, 'trialN': 46, 'loaded': True, 'loadedTime': 4371, 'positionName': 'RIGHT', 'positionCoords': [1331.2, 514.5], 'bid': 1.57}]",73831,1669829296105,kiwi,rigatoni and sauce,7.09,1.57,-5.52,rigatoni and sauce,1353,1369,1368,True,i,75703,1872,1669829297976,1871,HRV,HRV_0028,2022-11-30 17:32:11
47,"[{'imgObject': {}, 'id': 'fried eggs', 'src': '/static/foodstim60/fried eggs.jpg', 'key': 'u', 'origWidth': 410, 'origHeight': 410, 'width': 410, 'height': 410, 'widthPercent': 0.45, 'rescaleHeight': False, 'trialN': 47, 'loaded': True, 'loadedTime': 4369, 'positionName': 'LEFT', 'positionCoords': [818.8, 515], 'bid': 0.21}, {'imgObject': {}, 'id': 'corn cob', 'src': '/static/foodstim60/corn cob.jpg', 'key': 'i', 'origWidth': 411, 'origHeight': 411, 'width': 411, 'height': 411, 'widthPercent': 0.45, 'rescaleHeight': False, 'trialN': 47, 'loaded': True, 'loadedTime': 4392, 'positionName': 'RIGHT', 'positionCoords': [1331.2, 514.5], 'bid': 1.78}]",75703,1669829297977,fried eggs,corn cob,0.21,1.78,1.57,fried eggs,997,1000,1000,True,u,77208,1505,1669829299482,1505,HRV,HRV_0028,2022-11-30 17:32:11
48,"[{'imgObject': {}, 'id': 'granola w milk', 'src': '/static/foodstim60/granola w milk.jpg', 'key': 'u', 'origWidth': 410, 'origHeight': 410, 'width': 410, 'height': 410, 'widthPercent': 0.45, 'rescaleHeight': False, 'trialN': 48, 'loaded': True, 'loadedTime': 4355, 'positionName': 'LEFT', 'positionCoords': [818.8, 515], 'bid': 2.64}, {'imgObject': {}, 'id': 'hashbrowns', 'src': '/static/foodstim60/hashbrowns.jpg', 'key': 'i', 'origWidth': 411, 'origHeight': 410, 'width': 411, 'height': 410, 'widthPercent': 0.45, 'rescaleHeight': False, 'trialN': 48, 'loaded': True, 'loadedTime': 4393, 'positionName': 'RIGHT', 'positionCoords': [1331.2, 515], 'bid': 1.9}]",77208,1669829299482,granola w milk,hashbrowns,2.64,1.9,-0.7400000000000002,granola w milk,1632,1640,1640,True,u,79364,2156,1669829301638,2156,HRV,HRV_0028,2022-11-30 17:32:11
49,"[{'imgObject': {}, 'id': 'raisin bran w milk', 'src': '/static/foodstim60/raisin bran w milk.jpg', 'key': 'u', 'origWidth': 411, 'origHeight': 411, 'width': 411, 'height': 411, 'widthPercent': 0.45, 'rescaleHeight': False, 'trialN': 49, 'loaded': True, 'loadedTime': 4358, 'positionName': 'LEFT', 'positionCoords': [817.8, 514.5], 'bid': 6.62}, {'imgObject': {}, 'id': 'popsicles', 'src': '/static/foodstim60/popsicles.jpg', 'key': 'i', 'origWidth': 410, 'origHeight': 410, 'width': 410, 'height': 410, 'widthPercent': 0.45, 'rescaleHeight': False, 'trialN': 49, 'loaded': True, 'loadedTime': 4377, 'positionName': 'RIGHT', 'positionCoords': [1331.2, 515], 'bid': 1.46}]",79364,1669829301638,raisin bran w milk,popsicles,6.62,1.46,-5.16,raisin bran w milk,804,819,819,True,u,80686,1322,1669829302960,1322,HRV,HRV_0028,2022-11-30 17:32:11
50,"[{'imgObject': {}, 'id': 'froot loops w milk', 'src': '/static/foodstim60/froot loops w milk.jpg', 'key': 'u', 'origWidth': 410, 'origHeight': 410, 'width': 410, 'height': 410, 'widthPercent': 0.45, 'rescaleHeight': False, 'trialN': 50, 'loaded': True, 'loadedTime': 4365, 'positionName': 'LEFT', 'positionCoords': [818.8, 515], 'bid': 6.18}, {'imgObject': {}, 'id': 'hotdog w must', 'src': '/static/foodstim60/hotdog w must.jpg', 'key': 'i', 'origWidth': 409, 'origHeight': 409, 'width': 409, 'height': 409, 'widthPercent': 0.45, 'rescaleHeight': False, 'trialN': 50, 'loaded': True, 'loadedTime': 4393, 'positionName': 'RIGHT', 'positionCoords': [1331.2, 515.5], 'bid': 0.75}]",80686,1669829302960,froot loops w milk,hotdog w must,6.18,0.75,-5.43,froot loops w milk,998,1009,1009,True,u,82203,1517,1669829304477,1517,HRV,HRV_0028,2022-11-30 17:32:11
51,"[{'imgObject': {}, 'id': 'raisin bran w milk', 'src': '/static/foodstim60/raisin bran w milk.jpg', 'key': 'u', 'origWidth': 411, 'origHeight': 411, 'width': 411, 'height': 411, 'widthPercent': 0.45, 'rescaleHeight': False, 'trialN': 51, 'loaded': True, 'loadedTime': 4358, 'positionName': 'LEFT', 'positionCoords': [817.8, 514.5], 'bid': 6.62}, {'imgObject': {}, 'id': 'turkey sandwich', 'src': '/static/foodstim60/turkey sandwich.jpg', 'key': 'i', 'origWidth': 409, 'origHeight': 409, 'width': 409, 'height': 409, 'widthPercent': 0.45, 'rescaleHeight': False, 'trialN': 51, 'loaded': True, 'loadedTime': 4385, 'positionName': 'RIGHT', 'positionCoords': [1331.2, 515.5], 'bid': 6.47}]",82203,1669829304477,raisin bran w milk,turkey sandwich,6.62,6.47,-0.15000000000000036,turkey sandwich,1528,1540,1540,True,i,84259,2056,1669829306534,2057,HRV,HRV_0028,2022-11-30 17:32:11
52,"[{'imgObject': {}, 'id': 'turkey sandwich', 'src': '/static/foodstim60/turkey sandwich.jpg', 'key': 'u', 'origWidth': 409, 'origHeight': 409, 'width': 409, 'height': 409, 'widthPercent': 0.45, 'rescaleHeight': False, 'trialN': 52, 'loaded': True, 'loadedTime': 4385, 'positionName': 'LEFT', 'positionCoords': [819.8, 515.5], 'bid': 6.47}, {'imgObject': {}, 'id': 'ice cream sundae 002', 'src': '/static/foodstim60/ice cream sundae 002.jpg', 'key': 'i', 'origWidth': 409, 'origHeight': 409, 'width': 409, 'height': 409, 'widthPercent': 0.45, 'rescaleHeight': False, 'trialN': 52, 'loaded': True, 'loadedTime': 4394, 'positionName': 'RIGHT', 'positionCoords': [1331.2, 515.5], 'bid': 6.390000000000001}]",84259,1669829306534,turkey sandwich,ice cream sundae 002,6.47,6.390000000000001,-0.07999999999999918,turkey sandwich,956,972,972,True,u,85738,1479,1669829308012,1478,HRV,HRV_0028,2022-11-30 17:32:11
53,"[{'imgObject': {}, 'id': 'mashed potato', 'src': '/static/foodstim60/mashed potato.jpg', 'key': 'u', 'origWidth': 409, 'origHeight': 409, 'width': 409, 'height': 409, 'widthPercent': 0.45, 'rescaleHeight': False, 'trialN': 53, 'loaded': True, 'loadedTime': 4388, 'positionName': 'LEFT', 'positionCoords': [819.8, 515.5], 'bid': 5.03}, {'imgObject': {}, 'id': 'bagel and cc', 'src': '/static/foodstim60/bagel and cc.jpg', 'key': 'i', 'origWidth': 410, 'origHeight': 410, 'width': 410, 'height': 410, 'widthPercent': 0.45, 'rescaleHeight': False, 'trialN': 53, 'loaded': True, 'loadedTime': 4359, 'positionName': 'RIGHT', 'positionCoords': [1331.2, 515], 'bid': 9.72}]",85738,1669829308012,mashed potato,bagel and cc,5.03,9.72,4.69,bagel and cc,1024,1030,1029,True,i,87273,1535,1669829309547,1535,HRV,HRV_0028,2022-11-30 17:32:11
54,"[{'imgObject': {}, 'id': 'shreddedwheatwithmilk', 'src': '/static/foodstim60/shreddedwheatwithmilk.jpg', 'key': 'u', 'origWidth': 410, 'origHeight': 410, 'width': 410, 'height': 410, 'widthPercent': 0.45, 'rescaleHeight': False, 'trialN': 54, 'loaded': True, 'loadedTime': 4353, 'positionName': 'LEFT', 'positionCoords': [818.8, 515], 'bid': 1.1}, {'imgObject': {}, 'id': 'edamame', 'src': '/static/foodstim60/edamame.jpg', 'key': 'i', 'origWidth': 409, 'origHeight': 410, 'width': 409, 'height': 410, 'widthPercent': 0.45, 'rescaleHeight': False, 'trialN': 54, 'loaded': True, 'loadedTime': 4365, 'positionName': 'RIGHT', 'positionCoords': [1331.2, 515], 'bid': 2.82}]",87273,1669829309547,shreddedwheatwithmilk,edamame,1.1,2.82,1.7199999999999998,edamame,864,870,870,True,i,88647,1374,1669829310921,1374,HRV,HRV_0028,2022-11-30 17:32:11
55,"[{'imgObject': {}, 'id': 'Tribe humus pita', 'src': '/static/foodstim60/Tribe humus pita.jpg', 'key': 'u', 'origWidth': 411, 'origHeight': 411, 'width': 411, 'height': 411, 'widthPercent': 0.45, 'rescaleHeight': False, 'trialN': 55, 'loaded': True, 'loadedTime': 4395, 'positionName': 'LEFT', 'positionCoords': [817.8, 514.5], 'bid': 5.84}, {'imgObject': {}, 'id': 'roastedpotatoes', 'src': '/static/foodstim60/roastedpotatoes.jpg', 'key': 'i', 'origWidth': 409, 'origHeight': 410, 'width': 409, 'height': 410, 'widthPercent': 0.45, 'rescaleHeight': False, 'trialN': 55, 'loaded': True, 'loadedTime': 4389, 'positionName': 'RIGHT', 'positionCoords': [1331.2, 515], 'bid': 7.65}]",88647,1669829310922,Tribe humus pita,roastedpotatoes,5.84,7.65,1.8100000000000005,Tribe humus pita,896,903,905,True,u,90064,1417,1669829312338,1416,HRV,HRV_0028,2022-11-30 17:32:11
56,"[{'imgObject': {}, 'id': 'yogurt no spoon', 'src': '/static/foodstim60/yogurt no spoon.jpg', 'key': 'u', 'origWidth': 411, 'origHeight': 410, 'width': 411, 'height': 410, 'widthPercent': 0.45, 'rescaleHeight': False, 'trialN': 56, 'loaded': True, 'loadedTime': 4396, 'positionName': 'LEFT', 'positionCoords': [817.8, 515], 'bid': 8.82}, {'imgObject': {}, 'id': 'orange slices', 'src': '/static/foodstim60/orange slices.jpg', 'key': 'i', 'origWidth': 409, 'origHeight': 410, 'width': 409, 'height': 410, 'widthPercent': 0.45, 'rescaleHeight': False, 'trialN': 56, 'loaded': True, 'loadedTime': 4359, 'positionName': 'RIGHT', 'positionCoords': [1331.2, 515], 'bid': 9.75}]",90064,1669829312338,yogurt no spoon,orange slices,8.82,9.75,0.9299999999999997,orange slices,823,839,839,True,i,91414,1350,1669829313688,1350,HRV,HRV_0028,2022-11-30 17:32:11
57,"[{'imgObject': {}, 'id': 'corn cob', 'src': '/static/foodstim60/corn cob.jpg', 'key': 'u', 'origWidth': 411, 'origHeight': 411, 'width': 411, 'height': 411, 'widthPercent': 0.45, 'rescaleHeight': False, 'trialN': 57, 'loaded': True, 'loadedTime': 4392, 'positionName': 'LEFT', 'positionCoords': [817.8, 514.5], 'bid': 1.78}, {'imgObject': {}, 'id': 'popsicles', 'src': '/static/foodstim60/popsicles.jpg', 'key': 'i', 'origWidth': 410, 'origHeight': 410, 'width': 410, 'height': 410, 'widthPercent': 0.45, 'rescaleHeight': False, 'trialN': 57, 'loaded': True, 'loadedTime': 4377, 'positionName': 'RIGHT', 'positionCoords': [1331.2, 515], 'bid': 1.46}]",91414,1669829313688,corn cob,popsicles,1.78,1.46,-0.32000000000000006,popsicles,833,842,841,True,i,92760,1346,1669829315034,1346,HRV,HRV_0028,2022-11-30 17:32:11
58,"[{'imgObject': {}, 'id': 'cantaloupe', 'src': '/static/foodstim60/cantaloupe.jpg', 'key': 'u', 'origWidth': 409, 'origHeight': 409, 'width': 409, 'height': 409, 'widthPercent': 0.45, 'rescaleHeight': False, 'trialN': 58, 'loaded': True, 'loadedTime': 4380, 'positionName': 'LEFT', 'positionCoords': [819.8, 515.5], 'bid': 7.35}, {'imgObject': {}, 'id': 'apple slices', 'src': '/static/foodstim60/apple slices.jpg', 'key': 'i', 'origWidth': 409, 'origHeight': 410, 'width': 409, 'height': 410, 'widthPercent': 0.45, 'rescaleHeight': False, 'trialN': 58, 'loaded': True, 'loadedTime': 4386, 'positionName': 'RIGHT', 'positionCoords': [1331.2, 515], 'bid': 7.25}]",92760,1669829315034,cantaloupe,apple slices,7.35,7.25,-0.09999999999999964,cantaloupe,815,824,823,True,u,94097,1337,1669829316371,1337,HRV,HRV_0028,2022-11-30 17:32:11
59,"[{'imgObject': {}, 'id': 'fried eggs', 'src': '/static/foodstim60/fried eggs.jpg', 'key': 'u', 'origWidth': 410, 'origHeight': 410, 'width': 410, 'height': 410, 'widthPercent': 0.45, 'rescaleHeight': False, 'trialN': 59, 'loaded': True, 'loadedTime': 4369, 'positionName': 'LEFT', 'positionCoords': [818.8, 515], 'bid': 0.21}, {'imgObject': {}, 'id': 'burrito', 'src': '/static/foodstim60/burrito.jpg', 'key': 'i', 'origWidth': 410, 'origHeight': 410, 'width': 410, 'height': 410, 'widthPercent': 0.45, 'rescaleHeight': False, 'trialN': 59, 'loaded': True, 'loadedTime': 4363, 'positionName': 'RIGHT', 'positionCoords': [1331.2, 515], 'bid': 2.78}]",94098,1669829316371,fried eggs,burrito,0.21,2.78,2.57,burrito,961,975,973,True,i,95586,1488,1669829317861,1490,HRV,HRV_0028,2022-11-30 17:32:11
60,"[{'imgObject': {}, 'id': 'Grapes', 'src': '/static/foodstim60/Grapes.jpg', 'key': 'u', 'origWidth': 411, 'origHeight': 411, 'width': 411, 'height': 411, 'widthPercent': 0.45, 'rescaleHeight': False, 'trialN': 60, 'loaded': True, 'loadedTime': 4354, 'positionName': 'LEFT', 'positionCoords': [817.8, 514.5], 'bid': 9.69}, {'imgObject': {}, 'id': 'apple slices', 'src': '/static/foodstim60/apple slices.jpg', 'key': 'i', 'origWidth': 409, 'origHeight': 410, 'width': 409, 'height': 410, 'widthPercent': 0.45, 'rescaleHeight': False, 'trialN': 60, 'loaded': True, 'loadedTime': 4386, 'positionName': 'RIGHT', 'positionCoords': [1331.2, 515], 'bid': 7.25}]",95586,1669829317861,Grapes,apple slices,9.69,7.25,-2.4399999999999995,Grapes,879,885,885,True,u,96983,1397,1669829319257,1396,HRV,HRV_0028,2022-11-30 17:32:11
61,"[{'imgObject': {}, 'id': 'raspberries', 'src': '/static/foodstim60/raspberries.jpg', 'key': 'u', 'origWidth': 411, 'origHeight': 411, 'width': 411, 'height': 411, 'widthPercent': 0.45, 'rescaleHeight': False, 'trialN': 61, 'loaded': True, 'loadedTime': 4355, 'positionName': 'LEFT', 'positionCoords': [817.8, 514.5], 'bid': 4.82}, {'imgObject': {}, 'id': 'pear', 'src': '/static/foodstim60/pear.jpg', 'key': 'i', 'origWidth': 411, 'origHeight': 410, 'width': 411, 'height': 410, 'widthPercent': 0.45, 'rescaleHeight': False, 'trialN': 61, 'loaded': True, 'loadedTime': 4397, 'positionName': 'RIGHT', 'positionCoords': [1331.2, 515], 'bid': 4.7}]",96983,1669829319257,raspberries,pear,4.82,4.7,-0.1200000000000001,raspberries,1076,1080,1081,True,u,98577,1594,1669829320852,1595,HRV,HRV_0028,2022-11-30 17:32:11
62,"[{'imgObject': {}, 'id': 'fried eggs', 'src': '/static/foodstim60/fried eggs.jpg', 'key': 'u', 'origWidth': 410, 'origHeight': 410, 'width': 410, 'height': 410, 'widthPercent': 0.45, 'rescaleHeight': False, 'trialN': 62, 'loaded': True, 'loadedTime': 4369, 'positionName': 'LEFT', 'positionCoords': [818.8, 515], 'bid': 0.21}, {'imgObject': {}, 'id': 'blackbeanswithrice', 'src': '/static/foodstim60/blackbeanswithrice.jpg', 'key': 'i', 'origWidth': 410, 'origHeight': 410, 'width': 410, 'height': 410, 'widthPercent': 0.45, 'rescaleHeight': False, 'trialN': 62, 'loaded': True, 'loadedTime': 4372, 'positionName': 'RIGHT', 'positionCoords': [1331.2, 515], 'bid': 5.8500000000000005}]",98577,1669829320852,fried eggs,blackbeanswithrice,0.21,5.8500000000000005,5.640000000000001,blackbeanswithrice,826,838,839,True,i,99924,1347,1669829322198,1346,HRV,HRV_0028,2022-11-30 17:32:11
63,"[{'imgObject': {}, 'id': 'cocktailshrimp', 'src': '/static/foodstim60/cocktailshrimp.jpg', 'key': 'u', 'origWidth': 410, 'origHeight': 410, 'width': 410, 'height': 410, 'widthPercent': 0.45, 'rescaleHeight': False, 'trialN': 63, 'loaded': True, 'loadedTime': 4360, 'positionName': 'LEFT', 'positionCoords': [818.8, 515], 'bid': 0.85}, {'imgObject': {}, 'id': 'shreddedwheatwithmilk', 'src': '/static/foodstim60/shreddedwheatwithmilk.jpg', 'key': 'i', 'origWidth': 410, 'origHeight': 410, 'width': 410, 'height': 410, 'widthPercent': 0.45, 'rescaleHeight': False, 'trialN': 63, 'loaded': True, 'loadedTime': 4353, 'positionName': 'RIGHT', 'positionCoords': [1331.2, 515], 'bid': 1.1}]",99924,1669829322198,cocktailshrimp,shreddedwheatwithmilk,0.85,1.1,0.2500000000000001,shreddedwheatwithmilk,885,900,900,True,i,101334,1410,1669829323609,1411,HRV,HRV_0028,2022-11-30 17:32:11
64,"[{'imgObject': {}, 'id': 'raisin bran w milk', 'src': '/static/foodstim60/raisin bran w milk.jpg', 'key': 'u', 'origWidth': 411, 'origHeight': 411, 'width': 411, 'height': 411, 'widthPercent': 0.45, 'rescaleHeight': False, 'trialN': 64, 'loaded': True, 'loadedTime': 4358, 'positionName': 'LEFT', 'positionCoords': [817.8, 514.5], 'bid': 6.62}, {'imgObject': {}, 'id': 'mango', 'src': '/static/foodstim60/mango.jpg', 'key': 'i', 'origWidth': 411, 'origHeight': 411, 'width': 411, 'height': 411, 'widthPercent': 0.45, 'rescaleHeight': False, 'trialN': 64, 'loaded': True, 'loadedTime': 4356, 'positionName': 'RIGHT', 'positionCoords': [1331.2, 514.5], 'bid': 5.36}]",101334,1669829323609,raisin bran w milk,mango,6.62,5.36,-1.2599999999999998,raisin bran w milk,1038,1041,1041,True,u,102883,1549,1669829325158,1549,HRV,HRV_0028,2022-11-30 17:32:11
65,"[{'imgObject': {}, 'id': 'salad w chicken', 'src': '/static/foodstim60/salad w chicken.jpg', 'key': 'u', 'origWidth': 411, 'origHeight': 411, 'width': 411, 'height': 411, 'widthPercent': 0.45, 'rescaleHeight': False, 'trialN': 65, 'loaded': True, 'loadedTime': 4398, 'positionName': 'LEFT', 'positionCoords': [817.8, 514.5], 'bid': 8.61}, {'imgObject': {}, 'id': 'seaweed', 'src': '/static/foodstim60/seaweed.jpg', 'key': 'i', 'origWidth': 410, 'origHeight': 410, 'width': 410, 'height': 410, 'widthPercent': 0.45, 'rescaleHeight': False, 'trialN': 65, 'loaded': True, 'loadedTime': 4379, 'positionName': 'RIGHT', 'positionCoords': [1331.2, 515], 'bid': 8.56}]",102883,1669829325158,salad w chicken,seaweed,8.61,8.56,-0.049999999999998934,salad w chicken,1114,1116,1116,True,u,104514,1631,1669829326789,1631,HRV,HRV_0028,2022-11-30 17:32:11
66,"[{'imgObject': {}, 'id': 'rigatoni', 'src': '/static/foodstim60/rigatoni.jpg', 'key': 'u', 'origWidth': 411, 'origHeight': 411, 'width': 411, 'height': 411, 'widthPercent': 0.45, 'rescaleHeight': False, 'trialN': 66, 'loaded': True, 'loadedTime': 4392, 'positionName': 'LEFT', 'positionCoords': [817.8, 514.5], 'bid': 0.36}, {'imgObject': {}, 'id': 'omelette', 'src': '/static/foodstim60/omelette.jpg', 'key': 'i', 'origWidth': 410, 'origHeight': 409, 'width': 410, 'height': 409, 'widthPercent': 0.45, 'rescaleHeight': False, 'trialN': 66, 'loaded': True, 'loadedTime': 4379, 'positionName': 'RIGHT', 'positionCoords': [1331.2, 515.5], 'bid': 1.92}]",104515,1669829326789,rigatoni,omelette,0.36,1.92,1.56,omelette,1263,1276,1276,True,i,106297,1782,1669829328571,1782,HRV,HRV_0028,2022-11-30 17:32:11
67,"[{'imgObject': {}, 'id': 'blueberries', 'src': '/static/foodstim60/blueberries.jpg', 'key': 'u', 'origWidth': 411, 'origHeight': 411, 'width': 411, 'height': 411, 'widthPercent': 0.45, 'rescaleHeight': False, 'trialN': 67, 'loaded': True, 'loadedTime': 4372, 'positionName': 'LEFT', 'positionCoords': [817.8, 514.5], 'bid': 4.3500000000000005}, {'imgObject': {}, 'id': 'cocktailshrimp', 'src': '/static/foodstim60/cocktailshrimp.jpg', 'key': 'i', 'origWidth': 410, 'origHeight': 410, 'width': 410, 'height': 410, 'widthPercent': 0.45, 'rescaleHeight': False, 'trialN': 67, 'loaded': True, 'loadedTime': 4360, 'positionName': 'RIGHT', 'positionCoords': [1331.2, 515], 'bid': 0.85}]",106297,1669829328571,blueberries,cocktailshrimp,4.3500000000000005,0.85,-3.5000000000000004,blueberries,871,879,878,True,u,107681,1384,1669829329955,1384,HRV,HRV_0028,2022-11-30 17:32:11
68,"[{'imgObject': {}, 'id': 'cantaloupe', 'src': '/static/foodstim60/cantaloupe.jpg', 'key': 'u', 'origWidth': 409, 'origHeight': 409, 'width': 409, 'height': 409, 'widthPercent': 0.45, 'rescaleHeight': False, 'trialN': 68, 'loaded': True, 'loadedTime': 4380, 'positionName': 'LEFT', 'positionCoords': [819.8, 515.5], 'bid': 7.35}, {'imgObject': {}, 'id': 'strawberries', 'src': '/static/foodstim60/strawberries.jpg', 'key': 'i', 'origWidth': 410, 'origHeight': 410, 'width': 410, 'height': 410, 'widthPercent': 0.45, 'rescaleHeight': False, 'trialN': 68, 'loaded': True, 'loadedTime': 4383, 'positionName': 'RIGHT', 'positionCoords': [1331.2, 515], 'bid': 7.21}]",107681,1669829329955,cantaloupe,strawberries,7.35,7.21,-0.13999999999999968,strawberries,941,943,943,True,i,109128,1447,1669829331403,1448,HRV,HRV_0028,2022-11-30 17:32:11
69,"[{'imgObject': {}, 'id': 'cherries', 'src': '/static/foodstim60/cherries.jpg', 'key': 'u', 'origWidth': 410, 'origHeight': 411, 'width': 410, 'height': 411, 'widthPercent': 0.45, 'rescaleHeight': False, 'trialN': 69, 'loaded': True, 'loadedTime': 4363, 'positionName': 'LEFT', 'positionCoords': [818.8, 514.5], 'bid': 6.08}, {'imgObject': {}, 'id': 'rigatoni', 'src': '/static/foodstim60/rigatoni.jpg', 'key': 'i', 'origWidth': 411, 'origHeight': 411, 'width': 411, 'height': 411, 'widthPercent': 0.45, 'rescaleHeight': False, 'trialN': 69, 'loaded': True, 'loadedTime': 4392, 'positionName': 'RIGHT', 'positionCoords': [1331.2, 514.5], 'bid': 0.36}]",109129,1669829331403,cherries,rigatoni,6.08,0.36,-5.72,cherries,821,831,830,True,u,110463,1334,1669829332737,1334,HRV,HRV_0028,2022-11-30 17:32:11
70,"[{'imgObject': {}, 'id': 'hotdog w must', 'src': '/static/foodstim60/hotdog w must.jpg', 'key': 'u', 'origWidth': 409, 'origHeight': 409, 'width': 409, 'height': 409, 'widthPercent': 0.45, 'rescaleHeight': False, 'trialN': 70, 'loaded': True, 'loadedTime': 4394, 'positionName': 'LEFT', 'positionCoords': [819.8, 515.5], 'bid': 0.75}, {'imgObject': {}, 'id': 'shreddedwheatwithmilk', 'src': '/static/foodstim60/shreddedwheatwithmilk.jpg', 'key': 'i', 'origWidth': 410, 'origHeight': 410, 'width': 410, 'height': 410, 'widthPercent': 0.45, 'rescaleHeight': False, 'trialN': 70, 'loaded': True, 'loadedTime': 4353, 'positionName': 'RIGHT', 'positionCoords': [1331.2, 515], 'bid': 1.1}]",110463,1669829332738,hotdog w must,shreddedwheatwithmilk,0.75,1.1,0.3500000000000001,shreddedwheatwithmilk,830,832,832,True,i,111798,1335,1669829334072,1334,HRV,HRV_0028,2022-11-30 17:32:11
71,"[{'imgObject': {}, 'id': 'edamame', 'src': '/static/foodstim60/edamame.jpg', 'key': 'u', 'origWidth': 409, 'origHeight': 410, 'width': 409, 'height': 410, 'widthPercent': 0.45, 'rescaleHeight': False, 'trialN': 71, 'loaded': True, 'loadedTime': 4365, 'positionName': 'LEFT', 'positionCoords': [819.8, 515], 'bid': 2.82}, {'imgObject': {}, 'id': 'avocado', 'src': '/static/foodstim60/avocado.jpg', 'key': 'i', 'origWidth': 409, 'origHeight': 409, 'width': 409, 'height': 409, 'widthPercent': 0.45, 'rescaleHeight': False, 'trialN': 71, 'loaded': True, 'loadedTime': 4368, 'positionName': 'RIGHT', 'positionCoords': [1331.2, 515.5], 'bid': 4.49}]",111798,1669829334072,edamame,avocado,2.82,4.49,1.6700000000000004,avocado,886,897,897,True,i,113199,1401,1669829335472,1400,HRV,HRV_0028,2022-11-30 17:32:11
72,"[{'imgObject': {}, 'id': 'seaweed', 'src': '/static/foodstim60/seaweed.jpg', 'key': 'u', 'origWidth': 410, 'origHeight': 410, 'width': 410, 'height': 410, 'widthPercent': 0.45, 'rescaleHeight': False, 'trialN': 72, 'loaded': True, 'loadedTime': 4379, 'positionName': 'LEFT', 'positionCoords': [818.8, 515], 'bid': 8.56}, {'imgObject': {}, 'id': 'froot loops w milk', 'src': '/static/foodstim60/froot loops w milk.jpg', 'key': 'i', 'origWidth': 410, 'origHeight': 410, 'width': 410, 'height': 410, 'widthPercent': 0.45, 'rescaleHeight': False, 'trialN': 72, 'loaded': True, 'loadedTime': 4365, 'positionName': 'RIGHT', 'positionCoords': [1331.2, 515], 'bid': 6.18}]",113199,1669829335473,seaweed,froot loops w milk,8.56,6.18,-2.380000000000001,seaweed,1407,1417,1416,True,u,115127,1928,1669829337401,1928,HRV,HRV_0028,2022-11-30 17:32:11
73,"[{'imgObject': {}, 'id': 'tacos', 'src': '/static/foodstim60/tacos.jpg', 'key': 'u', 'origWidth': 411, 'origHeight': 411, 'width': 411, 'height': 411, 'widthPercent': 0.45, 'rescaleHeight': False, 'trialN': 73, 'loaded': True, 'loadedTime': 4398, 'positionName': 'LEFT', 'positionCoords': [817.8, 514.5], 'bid': 4}, {'imgObject': {}, 'id': 'hotdog w must', 'src': '/static/foodstim60/hotdog w must.jpg', 'key': 'i', 'origWidth': 409, 'origHeight': 409, 'width': 409, 'height': 409, 'widthPercent': 0.45, 'rescaleHeight': False, 'trialN': 73, 'loaded': True, 'loadedTime': 4394, 'positionName': 'RIGHT', 'positionCoords': [1331.2, 515.5], 'bid': 0.75}]",115127,1669829337401,tacos,hotdog w must,4.0,0.75,-3.25,tacos,1010,1016,1016,True,u,116652,1525,1669829338927,1526,HRV,HRV_0028,2022-11-30 17:32:11
74,"[{'imgObject': {}, 'id': 'edamame', 'src': '/static/foodstim60/edamame.jpg', 'key': 'u', 'origWidth': 409, 'origHeight': 410, 'width': 409, 'height': 410, 'widthPercent': 0.45, 'rescaleHeight': False, 'trialN': 74, 'loaded': True, 'loadedTime': 4365, 'positionName': 'LEFT', 'positionCoords': [819.8, 515], 'bid': 2.82}, {'imgObject': {}, 'id': 'eggsalad', 'src': '/static/foodstim60/eggsalad.jpg', 'key': 'i', 'origWidth': 410, 'origHeight': 409, 'width': 410, 'height': 409, 'widthPercent': 0.45, 'rescaleHeight': False, 'trialN': 74, 'loaded': True, 'loadedTime': 4399, 'positionName': 'RIGHT', 'positionCoords': [1331.2, 515.5], 'bid': 0.25}]",116652,1669829338927,edamame,eggsalad,2.82,0.25,-2.57,edamame,1313,1315,1315,True,u,118470,1818,1669829340743,1816,HRV,HRV_0028,2022-11-30 17:32:11
75,"[{'imgObject': {}, 'id': 'yogurt no spoon', 'src': '/static/foodstim60/yogurt no spoon.jpg', 'key': 'u', 'origWidth': 411, 'origHeight': 410, 'width': 411, 'height': 410, 'widthPercent': 0.45, 'rescaleHeight': False, 'trialN': 75, 'loaded': True, 'loadedTime': 4397, 'positionName': 'LEFT', 'positionCoords': [817.8, 515], 'bid': 8.82}, {'imgObject': {}, 'id': 'turkey sandwich', 'src': '/static/foodstim60/turkey sandwich.jpg', 'key': 'i', 'origWidth': 409, 'origHeight': 409, 'width': 409, 'height': 409, 'widthPercent': 0.45, 'rescaleHeight': False, 'trialN': 75, 'loaded': True, 'loadedTime': 4385, 'positionName': 'RIGHT', 'positionCoords': [1331.2, 515.5], 'bid': 6.47}]",118470,1669829340743,yogurt no spoon,turkey sandwich,8.82,6.47,-2.3500000000000005,yogurt no spoon,1073,1083,1082,True,u,120057,1587,1669829342331,1588,HRV,HRV_0028,2022-11-30 17:32:11
76,"[{'imgObject': {}, 'id': 'Tribe humus pita', 'src': '/static/foodstim60/Tribe humus pita.jpg', 'key': 'u', 'origWidth': 411, 'origHeight': 411, 'width': 411, 'height': 411, 'widthPercent': 0.45, 'rescaleHeight': False, 'trialN': 76, 'loaded': True, 'loadedTime': 4396, 'positionName': 'LEFT', 'positionCoords': [817.8, 514.5], 'bid': 5.84}, {'imgObject': {}, 'id': 'eggs', 'src': '/static/foodstim60/eggs.jpg', 'key': 'i', 'origWidth': 409, 'origHeight': 409, 'width': 409, 'height': 409, 'widthPercent': 0.45, 'rescaleHeight': False, 'trialN': 76, 'loaded': True, 'loadedTime': 4362, 'positionName': 'RIGHT', 'positionCoords': [1331.2, 515.5], 'bid': 0.07}]",120057,1669829342331,Tribe humus pita,eggs,5.84,0.07,-5.77,Tribe humus pita,783,799,798,True,u,121359,1302,1669829343632,1301,HRV,HRV_0028,2022-11-30 17:32:11
77,"[{'imgObject': {}, 'id': 'turkey sandwich', 'src': '/static/foodstim60/turkey sandwich.jpg', 'key': 'u', 'origWidth': 409, 'origHeight': 409, 'width': 409, 'height': 409, 'widthPercent': 0.45, 'rescaleHeight': False, 'trialN': 77, 'loaded': True, 'loadedTime': 4385, 'positionName': 'LEFT', 'positionCoords': [819.8, 515.5], 'bid': 6.47}, {'imgObject': {}, 'id': 'steak', 'src': '/static/foodstim60/steak.jpg', 'key': 'i', 'origWidth': 410, 'origHeight': 410, 'width': 410, 'height': 410, 'widthPercent': 0.45, 'rescaleHeight': False, 'trialN': 77, 'loaded': True, 'loadedTime': 4389, 'positionName': 'RIGHT', 'positionCoords': [1331.2, 515], 'bid': 7.51}]",121359,1669829343632,turkey sandwich,steak,6.47,7.51,1.04,steak,1434,1449,1449,True,i,123321,1962,1669829345596,1964,HRV,HRV_0028,2022-11-30 17:32:11
78,"[{'imgObject': {}, 'id': 'kiwi', 'src': '/static/foodstim60/kiwi.jpg', 'key': 'u', 'origWidth': 410, 'origHeight': 410, 'width': 410, 'height': 410, 'widthPercent': 0.45, 'rescaleHeight': False, 'trialN': 78, 'loaded': True, 'loadedTime': 4383, 'positionName': 'LEFT', 'positionCoords': [818.8, 515], 'bid': 7.09}, {'imgObject': {}, 'id': 'sushi w_condiments', 'src': '/static/foodstim60/sushi w_condiments.jpg', 'key': 'i', 'origWidth': 410, 'origHeight': 410, 'width': 410, 'height': 410, 'widthPercent': 0.45, 'rescaleHeight': False, 'trialN': 78, 'loaded': True, 'loadedTime': 4400, 'positionName': 'RIGHT', 'positionCoords': [1331.2, 515], 'bid': 9}]",123321,1669829345596,kiwi,sushi w_condiments,7.09,9.0,1.9100000000000001,sushi w_condiments,1018,1022,1023,True,i,124844,1523,1669829347118,1522,HRV,HRV_0028,2022-11-30 17:32:11
79,"[{'imgObject': {}, 'id': 'rigatoni and sauce', 'src': '/static/foodstim60/rigatoni and sauce.jpg', 'key': 'u', 'origWidth': 410, 'origHeight': 411, 'width': 410, 'height': 411, 'widthPercent': 0.45, 'rescaleHeight': False, 'trialN': 79, 'loaded': True, 'loadedTime': 4371, 'positionName': 'LEFT', 'positionCoords': [818.8, 514.5], 'bid': 1.57}, {'imgObject': {}, 'id': 'cherry tomato', 'src': '/static/foodstim60/cherry tomato.jpg', 'key': 'i', 'origWidth': 410, 'origHeight': 410, 'width': 410, 'height': 410, 'widthPercent': 0.45, 'rescaleHeight': False, 'trialN': 79, 'loaded': True, 'loadedTime': 4384, 'positionName': 'RIGHT', 'positionCoords': [1331.2, 515], 'bid': 1.17}]",124844,1669829347118,rigatoni and sauce,cherry tomato,1.57,1.17,-0.40000000000000013,rigatoni and sauce,996,1004,1004,True,u,126362,1518,1669829348637,1519,HRV,HRV_0028,2022-11-30 17:32:11
80,"[{'imgObject': {}, 'id': 'chicken nuggets2', 'src': '/static/foodstim60/chicken nuggets2.jpg', 'key': 'u', 'origWidth': 410, 'origHeight': 409, 'width': 410, 'height': 409, 'widthPercent': 0.45, 'rescaleHeight': False, 'trialN': 80, 'loaded': True, 'loadedTime': 4366, 'positionName': 'LEFT', 'positionCoords': [818.8, 515.5], 'bid': 3.1}, {'imgObject': {}, 'id': 'hashbrowns', 'src': '/static/foodstim60/hashbrowns.jpg', 'key': 'i', 'origWidth': 411, 'origHeight': 410, 'width': 411, 'height': 410, 'widthPercent': 0.45, 'rescaleHeight': False, 'trialN': 80, 'loaded': True, 'loadedTime': 4393, 'positionName': 'RIGHT', 'positionCoords': [1331.2, 515], 'bid': 1.9}]",126362,1669829348637,chicken nuggets2,hashbrowns,3.1,1.9,-1.2000000000000002,chicken nuggets2,994,997,998,True,u,127874,1512,1669829350149,1512,HRV,HRV_0028,2022-11-30 17:32:11
81,"[{'imgObject': {}, 'id': 'fruitsalad', 'src': '/static/foodstim60/fruitsalad.jpg', 'key': 'u', 'origWidth': 410, 'origHeight': 410, 'width': 410, 'height': 410, 'widthPercent': 0.45, 'rescaleHeight': False, 'trialN': 81, 'loaded': True, 'loadedTime': 4373, 'positionName': 'LEFT', 'positionCoords': [818.8, 515], 'bid': 9.03}, {'imgObject': {}, 'id': 'pear', 'src': '/static/foodstim60/pear.jpg', 'key': 'i', 'origWidth': 411, 'origHeight': 410, 'width': 411, 'height': 410, 'widthPercent': 0.45, 'rescaleHeight': False, 'trialN': 81, 'loaded': True, 'loadedTime': 4398, 'positionName': 'RIGHT', 'positionCoords': [1331.2, 515], 'bid': 4.7}]",127874,1669829350149,fruitsalad,pear,9.03,4.7,-4.329999999999999,fruitsalad,732,741,741,True,u,129130,1256,1669829351404,1255,HRV,HRV_0028,2022-11-30 17:32:11
82,"[{'imgObject': {}, 'id': 'fruitsalad', 'src': '/static/foodstim60/fruitsalad.jpg', 'key': 'u', 'origWidth': 410, 'origHeight': 410, 'width': 410, 'height': 410, 'widthPercent': 0.45, 'rescaleHeight': False, 'trialN': 82, 'loaded': True, 'loadedTime': 4373, 'positionName': 'LEFT', 'positionCoords': [818.8, 515], 'bid': 9.03}, {'imgObject': {}, 'id': 'Grapes', 'src': '/static/foodstim60/Grapes.jpg', 'key': 'i', 'origWidth': 411, 'origHeight': 411, 'width': 411, 'height': 411, 'widthPercent': 0.45, 'rescaleHeight': False, 'trialN': 82, 'loaded': True, 'loadedTime': 4354, 'positionName': 'RIGHT', 'positionCoords': [1331.2, 514.5], 'bid': 9.69}]",129130,1669829351404,fruitsalad,Grapes,9.03,9.69,0.6600000000000001,fruitsalad,538,549,550,True,u,130187,1057,1669829352462,1058,HRV,HRV_0028,2022-11-30 17:32:11
83,"[{'imgObject': {}, 'id': 'pear', 'src': '/static/foodstim60/pear.jpg', 'key': 'u', 'origWidth': 411, 'origHeight': 410, 'width': 411, 'height': 410, 'widthPercent': 0.45, 'rescaleHeight': False, 'trialN': 83, 'loaded': True, 'loadedTime': 4398, 'positionName': 'LEFT', 'positionCoords': [817.8, 515], 'bid': 4.7}, {'imgObject': {}, 'id': 'cheerios', 'src': '/static/foodstim60/cheerios.jpg', 'key': 'i', 'origWidth': 409, 'origHeight': 410, 'width': 409, 'height': 410, 'widthPercent': 0.45, 'rescaleHeight': False, 'trialN': 83, 'loaded': True, 'loadedTime': 4390, 'positionName': 'RIGHT', 'positionCoords': [1331.2, 515], 'bid': 5.97}]",130187,1669829352462,pear,cheerios,4.7,5.97,1.2699999999999996,pear,810,812,813,True,u,131515,1328,1669829353789,1327,HRV,HRV_0028,2022-11-30 17:32:11
84,"[{'imgObject': {}, 'id': 'roastedpotatoes', 'src': '/static/foodstim60/roastedpotatoes.jpg', 'key': 'u', 'origWidth': 409, 'origHeight': 410, 'width': 409, 'height': 410, 'widthPercent': 0.45, 'rescaleHeight': False, 'trialN': 84, 'loaded': True, 'loadedTime': 4389, 'positionName': 'LEFT', 'positionCoords': [819.8, 515], 'bid': 7.65}, {'imgObject': {}, 'id': 'sushi w_condiments', 'src': '/static/foodstim60/sushi w_condiments.jpg', 'key': 'i', 'origWidth': 410, 'origHeight': 410, 'width': 410, 'height': 410, 'widthPercent': 0.45, 'rescaleHeight': False, 'trialN': 84, 'loaded': True, 'loadedTime': 4400, 'positionName': 'RIGHT', 'positionCoords': [1331.2, 515], 'bid': 9}]",131515,1669829353789,roastedpotatoes,sushi w_condiments,7.65,9.0,1.3499999999999996,sushi w_condiments,1044,1052,1052,True,i,133074,1559,1669829355348,1559,HRV,HRV_0028,2022-11-30 17:32:11
85,"[{'imgObject': {}, 'id': 'lox', 'src': '/static/foodstim60/lox.jpg', 'key': 'u', 'origWidth': 410, 'origHeight': 411, 'width': 410, 'height': 411, 'widthPercent': 0.45, 'rescaleHeight': False, 'trialN': 85, 'loaded': True, 'loadedTime': 4364, 'positionName': 'LEFT', 'positionCoords': [818.8, 514.5], 'bid': 7.96}, {'imgObject': {}, 'id': 'cheerios', 'src': '/static/foodstim60/cheerios.jpg', 'key': 'i', 'origWidth': 409, 'origHeight': 410, 'width': 409, 'height': 410, 'widthPercent': 0.45, 'rescaleHeight': False, 'trialN': 85, 'loaded': True, 'loadedTime': 4390, 'positionName': 'RIGHT', 'positionCoords': [1331.2, 515], 'bid': 5.97}]",133074,1669829355348,lox,cheerios,7.96,5.97,-1.9900000000000002,lox,657,662,661,True,u,134246,1172,1669829356521,1173,HRV,HRV_0028,2022-11-30 17:32:11
86,"[{'imgObject': {}, 'id': 'cherries', 'src': '/static/foodstim60/cherries.jpg', 'key': 'u', 'origWidth': 410, 'origHeight': 411, 'width': 410, 'height': 411, 'widthPercent': 0.45, 'rescaleHeight': False, 'trialN': 86, 'loaded': True, 'loadedTime': 4363, 'positionName': 'LEFT', 'positionCoords': [818.8, 514.5], 'bid': 6.08}, {'imgObject': {}, 'id': 'froot loops w milk', 'src': '/static/foodstim60/froot loops w milk.jpg', 'key': 'i', 'origWidth': 410, 'origHeight': 410, 'width': 410, 'height': 410, 'widthPercent': 0.45, 'rescaleHeight': False, 'trialN': 86, 'loaded': True, 'loadedTime': 4365, 'positionName': 'RIGHT', 'positionCoords': [1331.2, 515], 'bid': 6.18}]",134246,1669829356521,cherries,froot loops w milk,6.08,6.18,0.09999999999999964,froot loops w milk,1563,1577,1578,True,i,136333,2087,1669829358607,2086,HRV,HRV_0028,2022-11-30 17:32:11
87,"[{'imgObject': {}, 'id': 'mango', 'src': '/static/foodstim60/mango.jpg', 'key': 'u', 'origWidth': 411, 'origHeight': 411, 'width': 411, 'height': 411, 'widthPercent': 0.45, 'rescaleHeight': False, 'trialN': 87, 'loaded': True, 'loadedTime': 4356, 'positionName': 'LEFT', 'positionCoords': [817.8, 514.5], 'bid': 5.36}, {'imgObject': {}, 'id': 'blackbeanswithrice', 'src': '/static/foodstim60/blackbeanswithrice.jpg', 'key': 'i', 'origWidth': 410, 'origHeight': 410, 'width': 410, 'height': 410, 'widthPercent': 0.45, 'rescaleHeight': False, 'trialN': 87, 'loaded': True, 'loadedTime': 4372, 'positionName': 'RIGHT', 'positionCoords': [1331.2, 515], 'bid': 5.8500000000000005}]",136333,1669829358607,mango,blackbeanswithrice,5.36,5.8500000000000005,0.4900000000000002,blackbeanswithrice,1459,1475,1475,True,i,138315,1982,1669829360589,1982,HRV,HRV_0028,2022-11-30 17:32:11
88,"[{'imgObject': {}, 'id': 'cheerios', 'src': '/static/foodstim60/cheerios.jpg', 'key': 'u', 'origWidth': 409, 'origHeight': 410, 'width': 409, 'height': 410, 'widthPercent': 0.45, 'rescaleHeight': False, 'trialN': 88, 'loaded': True, 'loadedTime': 4390, 'positionName': 'LEFT', 'positionCoords': [819.8, 515], 'bid': 5.97}, {'imgObject': {}, 'id': 'burger', 'src': '/static/foodstim60/burger.jpg', 'key': 'i', 'origWidth': 409, 'origHeight': 409, 'width': 409, 'height': 409, 'widthPercent': 0.45, 'rescaleHeight': False, 'trialN': 88, 'loaded': True, 'loadedTime': 4353, 'positionName': 'RIGHT', 'positionCoords': [1331.2, 515.5], 'bid': 4.42}]",138315,1669829360589,cheerios,burger,5.97,4.42,-1.5499999999999998,cheerios,994,1005,1005,True,u,139831,1516,1669829362105,1516,HRV,HRV_0028,2022-11-30 17:32:11
89,"[{'imgObject': {}, 'id': 'sushi w_condiments', 'src': '/static/foodstim60/sushi w_condiments.jpg', 'key': 'u', 'origWidth': 410, 'origHeight': 410, 'width': 410, 'height': 410, 'widthPercent': 0.45, 'rescaleHeight': False, 'trialN': 89, 'loaded': True, 'loadedTime': 4400, 'positionName': 'LEFT', 'positionCoords': [818.8, 515], 'bid': 9}, {'imgObject': {}, 'id': 'chickenfingers', 'src': '/static/foodstim60/chickenfingers.jpg', 'key': 'i', 'origWidth': 410, 'origHeight': 410, 'width': 410, 'height': 410, 'widthPercent': 0.45, 'rescaleHeight': False, 'trialN': 89, 'loaded': True, 'loadedTime': 4376, 'positionName': 'RIGHT', 'positionCoords': [1331.2, 515], 'bid': 8.950000000000001}]",139831,1669829362105,sushi w_condiments,chickenfingers,9.0,8.950000000000001,-0.049999999999998934,sushi w_condiments,744,753,753,True,u,141095,1264,1669829363369,1264,HRV,HRV_0028,2022-11-30 17:32:11
90,"[{'imgObject': {}, 'id': 'avocado', 'src': '/static/foodstim60/avocado.jpg', 'key': 'u', 'origWidth': 409, 'origHeight': 409, 'width': 409, 'height': 409, 'widthPercent': 0.45, 'rescaleHeight': False, 'trialN': 90, 'loaded': True, 'loadedTime': 4368, 'positionName': 'LEFT', 'positionCoords': [819.8, 515.5], 'bid': 4.49}, {'imgObject': {}, 'id': 'yogurt no spoon', 'src': '/static/foodstim60/yogurt no spoon.jpg', 'key': 'i', 'origWidth': 411, 'origHeight': 410, 'width': 411, 'height': 410, 'widthPercent': 0.45, 'rescaleHeight': False, 'trialN': 90, 'loaded': True, 'loadedTime': 4397, 'positionName': 'RIGHT', 'positionCoords': [1331.2, 515], 'bid': 8.82}]",150944,1669829373218,avocado,yogurt no spoon,4.49,8.82,4.33,yogurt no spoon,1037,1039,1039,True,i,152485,1541,1669829374759,1541,HRV,HRV_0028,2022-11-30 17:32:11
91,"[{'imgObject': {}, 'id': 'pear', 'src': '/static/foodstim60/pear.jpg', 'key': 'u', 'origWidth': 411, 'origHeight': 410, 'width': 411, 'height': 410, 'widthPercent': 0.45, 'rescaleHeight': False, 'trialN': 91, 'loaded': True, 'loadedTime': 4398, 'positionName': 'LEFT', 'positionCoords': [817.8, 515], 'bid': 4.7}, {'imgObject': {}, 'id': 'baked potato', 'src': '/static/foodstim60/baked potato.jpg', 'key': 'i', 'origWidth': 409, 'origHeight': 410, 'width': 409, 'height': 410, 'widthPercent': 0.45, 'rescaleHeight': False, 'trialN': 91, 'loaded': True, 'loadedTime': 4375, 'positionName': 'RIGHT', 'positionCoords': [1331.2, 515], 'bid': 4.5}]",152485,1669829374760,pear,baked potato,4.7,4.5,-0.20000000000000018,pear,902,914,915,True,u,153914,1429,1669829376189,1429,HRV,HRV_0028,2022-11-30 17:32:11
92,"[{'imgObject': {}, 'id': 'banana', 'src': '/static/foodstim60/banana.jpg', 'key': 'u', 'origWidth': 410, 'origHeight': 410, 'width': 410, 'height': 410, 'widthPercent': 0.45, 'rescaleHeight': False, 'trialN': 92, 'loaded': True, 'loadedTime': 4390, 'positionName': 'LEFT', 'positionCoords': [818.8, 515], 'bid': 4.65}, {'imgObject': {}, 'id': 'blackbeanswithrice', 'src': '/static/foodstim60/blackbeanswithrice.jpg', 'key': 'i', 'origWidth': 410, 'origHeight': 410, 'width': 410, 'height': 410, 'widthPercent': 0.45, 'rescaleHeight': False, 'trialN': 92, 'loaded': True, 'loadedTime': 4372, 'positionName': 'RIGHT', 'positionCoords': [1331.2, 515], 'bid': 5.8500000000000005}]",153914,1669829376189,banana,blackbeanswithrice,4.65,5.8500000000000005,1.2000000000000002,blackbeanswithrice,864,869,870,True,i,155288,1374,1669829377563,1374,HRV,HRV_0028,2022-11-30 17:32:11
93,"[{'imgObject': {}, 'id': 'salmon', 'src': '/static/foodstim60/salmon.jpg', 'key': 'u', 'origWidth': 410, 'origHeight': 409, 'width': 410, 'height': 409, 'widthPercent': 0.45, 'rescaleHeight': False, 'trialN': 93, 'loaded': True, 'loadedTime': 4400, 'positionName': 'LEFT', 'positionCoords': [818.8, 515.5], 'bid': 2.67}, {'imgObject': {}, 'id': 'blueberries', 'src': '/static/foodstim60/blueberries.jpg', 'key': 'i', 'origWidth': 411, 'origHeight': 411, 'width': 411, 'height': 411, 'widthPercent': 0.45, 'rescaleHeight': False, 'trialN': 93, 'loaded': True, 'loadedTime': 4372, 'positionName': 'RIGHT', 'positionCoords': [1331.2, 514.5], 'bid': 4.3500000000000005}]",155288,1669829377563,salmon,blueberries,2.67,4.3500000000000005,1.6800000000000006,blueberries,1224,1231,1231,True,i,157029,1741,1669829379303,1740,HRV,HRV_0028,2022-11-30 17:32:11
94,"[{'imgObject': {}, 'id': 'corn cob', 'src': '/static/foodstim60/corn cob.jpg', 'key': 'u', 'origWidth': 411, 'origHeight': 411, 'width': 411, 'height': 411, 'widthPercent': 0.45, 'rescaleHeight': False, 'trialN': 94, 'loaded': True, 'loadedTime': 4392, 'positionName': 'LEFT', 'positionCoords': [817.8, 514.5], 'bid': 1.78}, {'imgObject': {}, 'id': 'strawberries', 'src': '/static/foodstim60/strawberries.jpg', 'key': 'i', 'origWidth': 410, 'origHeight': 410, 'width': 410, 'height': 410, 'widthPercent': 0.45, 'rescaleHeight': False, 'trialN': 94, 'loaded': True, 'loadedTime': 4383, 'positionName': 'RIGHT', 'positionCoords': [1331.2, 515], 'bid': 7.21}]",157029,1669829379303,corn cob,strawberries,1.78,7.21,5.43,strawberries,827,835,835,True,i,158377,1348,1669829380652,1349,HRV,HRV_0028,2022-11-30 17:32:11
95,"[{'imgObject': {}, 'id': 'salmon', 'src': '/static/foodstim60/salmon.jpg', 'key': 'u', 'origWidth': 410, 'origHeight': 409, 'width': 410, 'height': 409, 'widthPercent': 0.45, 'rescaleHeight': False, 'trialN': 95, 'loaded': True, 'loadedTime': 4401, 'positionName': 'LEFT', 'positionCoords': [818.8, 515.5], 'bid': 2.67}, {'imgObject': {}, 'id': 'hotdog w must', 'src': '/static/foodstim60/hotdog w must.jpg', 'key': 'i', 'origWidth': 409, 'origHeight': 409, 'width': 409, 'height': 409, 'widthPercent': 0.45, 'rescaleHeight': False, 'trialN': 95, 'loaded': True, 'loadedTime': 4394, 'positionName': 'RIGHT', 'positionCoords': [1331.2, 515.5], 'bid': 0.75}]",158377,1669829380652,salmon,hotdog w must,2.67,0.75,-1.92,salmon,1229,1238,1239,True,u,160121,1744,1669829382396,1744,HRV,HRV_0028,2022-11-30 17:32:11
96,"[{'imgObject': {}, 'id': 'burger', 'src': '/static/foodstim60/burger.jpg', 'key': 'u', 'origWidth': 409, 'origHeight': 409, 'width': 409, 'height': 409, 'widthPercent': 0.45, 'rescaleHeight': False, 'trialN': 96, 'loaded': True, 'loadedTime': 4353, 'positionName': 'LEFT', 'positionCoords': [819.8, 515.5], 'bid': 4.42}, {'imgObject': {}, 'id': 'tacos', 'src': '/static/foodstim60/tacos.jpg', 'key': 'i', 'origWidth': 411, 'origHeight': 411, 'width': 411, 'height': 411, 'widthPercent': 0.45, 'rescaleHeight': False, 'trialN': 96, 'loaded': True, 'loadedTime': 4399, 'positionName': 'RIGHT', 'positionCoords': [1331.2, 514.5], 'bid': 4}]",160122,1669829382396,burger,tacos,4.42,4.0,-0.41999999999999993,burger,905,918,917,True,u,161548,1426,1669829383822,1426,HRV,HRV_0028,2022-11-30 17:32:11
97,"[{'imgObject': {}, 'id': 'sweetpotato', 'src': '/static/foodstim60/sweetpotato.jpg', 'key': 'u', 'origWidth': 410, 'origHeight': 410, 'width': 410, 'height': 410, 'widthPercent': 0.45, 'rescaleHeight': False, 'trialN': 97, 'loaded': True, 'loadedTime': 4357, 'positionName': 'LEFT', 'positionCoords': [818.8, 515], 'bid': 6.4}, {'imgObject': {}, 'id': 'ice cream sundae 002', 'src': '/static/foodstim60/ice cream sundae 002.jpg', 'key': 'i', 'origWidth': 409, 'origHeight': 409, 'width': 409, 'height': 409, 'widthPercent': 0.45, 'rescaleHeight': False, 'trialN': 97, 'loaded': True, 'loadedTime': 4395, 'positionName': 'RIGHT', 'positionCoords': [1331.2, 515.5], 'bid': 6.390000000000001}]",161548,1669829383822,sweetpotato,ice cream sundae 002,6.4,6.390000000000001,-0.009999999999999787,ice cream sundae 002,1089,1100,1100,True,i,163149,1601,1669829385423,1601,HRV,HRV_0028,2022-11-30 17:32:11
98,"[{'imgObject': {}, 'id': 'salmon', 'src': '/static/foodstim60/salmon.jpg', 'key': 'u', 'origWidth': 410, 'origHeight': 409, 'width': 410, 'height': 409, 'widthPercent': 0.45, 'rescaleHeight': False, 'trialN': 98, 'loaded': True, 'loadedTime': 4401, 'positionName': 'LEFT', 'positionCoords': [818.8, 515.5], 'bid': 2.67}, {'imgObject': {}, 'id': 'eggs', 'src': '/static/foodstim60/eggs.jpg', 'key': 'i', 'origWidth': 409, 'origHeight': 409, 'width': 409, 'height': 409, 'widthPercent': 0.45, 'rescaleHeight': False, 'trialN': 98, 'loaded': True, 'loadedTime': 4362, 'positionName': 'RIGHT', 'positionCoords': [1331.2, 515.5], 'bid': 0.07}]",163149,1669829385423,salmon,eggs,2.67,0.07,-2.6,salmon,1004,1019,1018,True,u,164683,1534,1669829386957,1534,HRV,HRV_0028,2022-11-30 17:32:11
99,"[{'imgObject': {}, 'id': 'burger', 'src': '/static/foodstim60/burger.jpg', 'key': 'u', 'origWidth': 409, 'origHeight': 409, 'width': 409, 'height': 409, 'widthPercent': 0.45, 'rescaleHeight': False, 'trialN': 99, 'loaded': True, 'loadedTime': 4353, 'positionName': 'LEFT', 'positionCoords': [819.8, 515.5], 'bid': 4.42}, {'imgObject': {}, 'id': 'veggieswithdip', 'src': '/static/foodstim60/veggieswithdip.jpg', 'key': 'i', 'origWidth': 409, 'origHeight': 409, 'width': 409, 'height': 409, 'widthPercent': 0.45, 'rescaleHeight': False, 'trialN': 99, 'loaded': True, 'loadedTime': 4381, 'positionName': 'RIGHT', 'positionCoords': [1331.2, 515.5], 'bid': 8.72}]",164683,1669829386957,burger,veggieswithdip,4.42,8.72,4.300000000000001,veggieswithdip,985,997,997,True,i,166190,1507,1669829388464,1507,HRV,HRV_0028,2022-11-30 17:32:11
100,"[{'imgObject': {}, 'id': 'eggsalad', 'src': '/static/foodstim60/eggsalad.jpg', 'key': 'u', 'origWidth': 410, 'origHeight': 409, 'width': 410, 'height': 409, 'widthPercent': 0.45, 'rescaleHeight': False, 'trialN': 100, 'loaded': True, 'loadedTime': 4400, 'positionName': 'LEFT', 'positionCoords': [818.8, 515.5], 'bid': 0.25}, {'imgObject': {}, 'id': 'cherry tomato', 'src': '/static/foodstim60/cherry tomato.jpg', 'key': 'i', 'origWidth': 410, 'origHeight': 410, 'width': 410, 'height': 410, 'widthPercent': 0.45, 'rescaleHeight': False, 'trialN': 100, 'loaded': True, 'loadedTime': 4384, 'positionName': 'RIGHT', 'positionCoords': [1331.2, 515], 'bid': 1.17}]",166190,1669829388464,eggsalad,cherry tomato,0.25,1.17,0.9199999999999999,eggsalad,791,794,793,True,u,167487,1297,1669829389762,1298,HRV,HRV_0028,2022-11-30 17:32:11
101,"[{'imgObject': {}, 'id': 'bagel and cc', 'src': '/static/foodstim60/bagel and cc.jpg', 'key': 'u', 'origWidth': 410, 'origHeight': 410, 'width': 410, 'height': 410, 'widthPercent': 0.45, 'rescaleHeight': False, 'trialN': 101, 'loaded': True, 'loadedTime': 4359, 'positionName': 'LEFT', 'positionCoords': [818.8, 515], 'bid': 9.72}, {'imgObject': {}, 'id': 'grilled chicken strips', 'src': '/static/foodstim60/grilled chicken strips.jpg', 'key': 'i', 'origWidth': 410, 'origHeight': 411, 'width': 410, 'height': 411, 'widthPercent': 0.45, 'rescaleHeight': False, 'trialN': 101, 'loaded': True, 'loadedTime': 4378, 'positionName': 'RIGHT', 'positionCoords': [1331.2, 514.5], 'bid': 8.01}]",167488,1669829389762,bagel and cc,grilled chicken strips,9.72,8.01,-1.7100000000000009,grilled chicken strips,165,168,168,True,i,168165,677,1669829390439,677,HRV,HRV_0028,2022-11-30 17:32:11
102,"[{'imgObject': {}, 'id': 'grilled chicken strips', 'src': '/static/foodstim60/grilled chicken strips.jpg', 'key': 'u', 'origWidth': 410, 'origHeight': 411, 'width': 410, 'height': 411, 'widthPercent': 0.45, 'rescaleHeight': False, 'trialN': 102, 'loaded': True, 'loadedTime': 4378, 'positionName': 'LEFT', 'positionCoords': [818.8, 514.5], 'bid': 8.01}, {'imgObject': {}, 'id': 'chickenfingers', 'src': '/static/foodstim60/chickenfingers.jpg', 'key': 'i', 'origWidth': 410, 'origHeight': 410, 'width': 410, 'height': 410, 'widthPercent': 0.45, 'rescaleHeight': False, 'trialN': 102, 'loaded': True, 'loadedTime': 4376, 'positionName': 'RIGHT', 'positionCoords': [1331.2, 515], 'bid': 8.950000000000001}]",168165,1669829390440,grilled chicken strips,chickenfingers,8.01,8.950000000000001,0.9400000000000013,chickenfingers,925,938,938,True,i,169620,1455,1669829391893,1453,HRV,HRV_0028,2022-11-30 17:32:11
103,"[{'imgObject': {}, 'id': 'rigatoni and sauce', 'src': '/static/foodstim60/rigatoni and sauce.jpg', 'key': 'u', 'origWidth': 410, 'origHeight': 411, 'width': 410, 'height': 411, 'widthPercent': 0.45, 'rescaleHeight': False, 'trialN': 103, 'loaded': True, 'loadedTime': 4371, 'positionName': 'LEFT', 'positionCoords': [818.8, 514.5], 'bid': 1.57}, {'imgObject': {}, 'id': 'eggs', 'src': '/static/foodstim60/eggs.jpg', 'key': 'i', 'origWidth': 409, 'origHeight': 409, 'width': 409, 'height': 409, 'widthPercent': 0.45, 'rescaleHeight': False, 'trialN': 103, 'loaded': True, 'loadedTime': 4362, 'positionName': 'RIGHT', 'positionCoords': [1331.2, 515.5], 'bid': 0.07}]",169620,1669829391893,rigatoni and sauce,eggs,1.57,0.07,-1.5,rigatoni and sauce,767,772,771,True,u,170893,1273,1669829393167,1274,HRV,HRV_0028,2022-11-30 17:32:11
104,"[{'imgObject': {}, 'id': 'sweetpotato', 'src': '/static/foodstim60/sweetpotato.jpg', 'key': 'u', 'origWidth': 410, 'origHeight': 410, 'width': 410, 'height': 410, 'widthPercent': 0.45, 'rescaleHeight': False, 'trialN': 104, 'loaded': True, 'loadedTime': 4357, 'positionName': 'LEFT', 'positionCoords': [818.8, 515], 'bid': 6.4}, {'imgObject': {}, 'id': 'veggieswithdip', 'src': '/static/foodstim60/veggieswithdip.jpg', 'key': 'i', 'origWidth': 409, 'origHeight': 409, 'width': 409, 'height': 409, 'widthPercent': 0.45, 'rescaleHeight': False, 'trialN': 104, 'loaded': True, 'loadedTime': 4381, 'positionName': 'RIGHT', 'positionCoords': [1331.2, 515.5], 'bid': 8.72}]",170893,1669829393167,sweetpotato,veggieswithdip,6.4,8.72,2.3200000000000003,veggieswithdip,963,979,979,True,i,172383,1490,1669829394657,1490,HRV,HRV_0028,2022-11-30 17:32:11
105,"[{'imgObject': {}, 'id': 'yogurt no spoon', 'src': '/static/foodstim60/yogurt no spoon.jpg', 'key': 'u', 'origWidth': 411, 'origHeight': 410, 'width': 411, 'height': 410, 'widthPercent': 0.45, 'rescaleHeight': False, 'trialN': 105, 'loaded': True, 'loadedTime': 4397, 'positionName': 'LEFT', 'positionCoords': [817.8, 515], 'bid': 8.82}, {'imgObject': {}, 'id': 'sushi w_condiments', 'src': '/static/foodstim60/sushi w_condiments.jpg', 'key': 'i', 'origWidth': 410, 'origHeight': 410, 'width': 410, 'height': 410, 'widthPercent': 0.45, 'rescaleHeight': False, 'trialN': 105, 'loaded': True, 'loadedTime': 4400, 'positionName': 'RIGHT', 'positionCoords': [1331.2, 515], 'bid': 9}]",172383,1669829394657,yogurt no spoon,sushi w_condiments,8.82,9.0,0.17999999999999972,sushi w_condiments,1097,1105,1105,True,i,173995,1612,1669829396269,1612,HRV,HRV_0028,2022-11-30 17:32:11
106,"[{'imgObject': {}, 'id': 'salad w chicken', 'src': '/static/foodstim60/salad w chicken.jpg', 'key': 'u', 'origWidth': 411, 'origHeight': 411, 'width': 411, 'height': 411, 'widthPercent': 0.45, 'rescaleHeight': False, 'trialN': 106, 'loaded': True, 'loadedTime': 4398, 'positionName': 'LEFT', 'positionCoords': [817.8, 514.5], 'bid': 8.61}, {'imgObject': {}, 'id': 'ice cream sundae 002', 'src': '/static/foodstim60/ice cream sundae 002.jpg', 'key': 'i', 'origWidth': 409, 'origHeight': 409, 'width': 409, 'height': 409, 'widthPercent': 0.45, 'rescaleHeight': False, 'trialN': 106, 'loaded': True, 'loadedTime': 4395, 'positionName': 'RIGHT', 'positionCoords': [1331.2, 515.5], 'bid': 6.390000000000001}]",173995,1669829396269,salad w chicken,ice cream sundae 002,8.61,6.390000000000001,-2.219999999999999,salad w chicken,814,829,829,True,u,175324,1329,1669829397599,1330,HRV,HRV_0028,2022-11-30 17:32:11
107,"[{'imgObject': {}, 'id': 'banana', 'src': '/static/foodstim60/banana.jpg', 'key': 'u', 'origWidth': 410, 'origHeight': 410, 'width': 410, 'height': 410, 'widthPercent': 0.45, 'rescaleHeight': False, 'trialN': 107, 'loaded': True, 'loadedTime': 4390, 'positionName': 'LEFT', 'positionCoords': [818.8, 515], 'bid': 4.65}, {'imgObject': {}, 'id': 'raspberries', 'src': '/static/foodstim60/raspberries.jpg', 'key': 'i', 'origWidth': 411, 'origHeight': 411, 'width': 411, 'height': 411, 'widthPercent': 0.45, 'rescaleHeight': False, 'trialN': 107, 'loaded': True, 'loadedTime': 4355, 'positionName': 'RIGHT', 'positionCoords': [1331.2, 514.5], 'bid': 4.82}]",175324,1669829397599,banana,raspberries,4.65,4.82,0.16999999999999993,raspberries,1016,1027,1027,True,i,176859,1535,1669829399133,1534,HRV,HRV_0028,2022-11-30 17:32:11
108,"[{'imgObject': {}, 'id': 'cantaloupe', 'src': '/static/foodstim60/cantaloupe.jpg', 'key': 'u', 'origWidth': 409, 'origHeight': 409, 'width': 409, 'height': 409, 'widthPercent': 0.45, 'rescaleHeight': False, 'trialN': 108, 'loaded': True, 'loadedTime': 4380, 'positionName': 'LEFT', 'positionCoords': [819.8, 515.5], 'bid': 7.35}, {'imgObject': {}, 'id': 'sweetpotato', 'src': '/static/foodstim60/sweetpotato.jpg', 'key': 'i', 'origWidth': 410, 'origHeight': 410, 'width': 410, 'height': 410, 'widthPercent': 0.45, 'rescaleHeight': False, 'trialN': 108, 'loaded': True, 'loadedTime': 4357, 'positionName': 'RIGHT', 'positionCoords': [1331.2, 515], 'bid': 6.4}]",176859,1669829399133,cantaloupe,sweetpotato,7.35,6.4,-0.9499999999999993,cantaloupe,1059,1069,1069,True,u,178432,1573,1669829400706,1573,HRV,HRV_0028,2022-11-30 17:32:11
109,"[{'imgObject': {}, 'id': 'cherries', 'src': '/static/foodstim60/cherries.jpg', 'key': 'u', 'origWidth': 410, 'origHeight': 411, 'width': 410, 'height': 411, 'widthPercent': 0.45, 'rescaleHeight': False, 'trialN': 109, 'loaded': True, 'loadedTime': 4363, 'positionName': 'LEFT', 'positionCoords': [818.8, 514.5], 'bid': 6.08}, {'imgObject': {}, 'id': 'avocado', 'src': '/static/foodstim60/avocado.jpg', 'key': 'i', 'origWidth': 409, 'origHeight': 409, 'width': 409, 'height': 409, 'widthPercent': 0.45, 'rescaleHeight': False, 'trialN': 109, 'loaded': True, 'loadedTime': 4368, 'positionName': 'RIGHT', 'positionCoords': [1331.2, 515.5], 'bid': 4.49}]",178432,1669829400706,cherries,avocado,6.08,4.49,-1.5899999999999999,cherries,1221,1232,1232,True,u,180174,1742,1669829402447,1741,HRV,HRV_0028,2022-11-30 17:32:11
110,"[{'imgObject': {}, 'id': 'bagel plain', 'src': '/static/foodstim60/bagel plain.jpg', 'key': 'u', 'origWidth': 410, 'origHeight': 410, 'width': 410, 'height': 410, 'widthPercent': 0.45, 'rescaleHeight': False, 'trialN': 110, 'loaded': True, 'loadedTime': 4374, 'positionName': 'LEFT', 'positionCoords': [818.8, 515], 'bid': 7.92}, {'imgObject': {}, 'id': 'burrito', 'src': '/static/foodstim60/burrito.jpg', 'key': 'i', 'origWidth': 410, 'origHeight': 410, 'width': 410, 'height': 410, 'widthPercent': 0.45, 'rescaleHeight': False, 'trialN': 110, 'loaded': True, 'loadedTime': 4363, 'positionName': 'RIGHT', 'positionCoords': [1331.2, 515], 'bid': 2.78}]",180174,1669829402448,bagel plain,burrito,7.92,2.78,-5.140000000000001,bagel plain,1073,1082,1081,True,u,181759,1585,1669829404033,1585,HRV,HRV_0028,2022-11-30 17:32:11
111,"[{'imgObject': {}, 'id': 'roastedpotatoes', 'src': '/static/foodstim60/roastedpotatoes.jpg', 'key': 'u', 'origWidth': 409, 'origHeight': 410, 'width': 409, 'height': 410, 'widthPercent': 0.45, 'rescaleHeight': False, 'trialN': 111, 'loaded': True, 'loadedTime': 4389, 'positionName': 'LEFT', 'positionCoords': [819.8, 515], 'bid': 7.65}, {'imgObject': {}, 'id': 'salmon', 'src': '/static/foodstim60/salmon.jpg', 'key': 'i', 'origWidth': 410, 'origHeight': 409, 'width': 410, 'height': 409, 'widthPercent': 0.45, 'rescaleHeight': False, 'trialN': 111, 'loaded': True, 'loadedTime': 4401, 'positionName': 'RIGHT', 'positionCoords': [1331.2, 515.5], 'bid': 2.67}]",181759,1669829404034,roastedpotatoes,salmon,7.65,2.67,-4.98,roastedpotatoes,956,968,969,True,u,183243,1484,1669829405518,1484,HRV,HRV_0028,2022-11-30 17:32:11
112,"[{'imgObject': {}, 'id': 'Tribe humus pita', 'src': '/static/foodstim60/Tribe humus pita.jpg', 'key': 'u', 'origWidth': 411, 'origHeight': 411, 'width': 411, 'height': 411, 'widthPercent': 0.45, 'rescaleHeight': False, 'trialN': 112, 'loaded': True, 'loadedTime': 4396, 'positionName': 'LEFT', 'positionCoords': [817.8, 514.5], 'bid': 5.84}, {'imgObject': {}, 'id': 'baked potato', 'src': '/static/foodstim60/baked potato.jpg', 'key': 'i', 'origWidth': 409, 'origHeight': 410, 'width': 409, 'height': 410, 'widthPercent': 0.45, 'rescaleHeight': False, 'trialN': 112, 'loaded': True, 'loadedTime': 4375, 'positionName': 'RIGHT', 'positionCoords': [1331.2, 515], 'bid': 4.5}]",183243,1669829405518,Tribe humus pita,baked potato,5.84,4.5,-1.3399999999999999,Tribe humus pita,816,820,821,True,u,184567,1324,1669829406842,1324,HRV,HRV_0028,2022-11-30 17:32:11
113,"[{'imgObject': {}, 'id': 'tacos', 'src': '/static/foodstim60/tacos.jpg', 'key': 'u', 'origWidth': 411, 'origHeight': 411, 'width': 411, 'height': 411, 'widthPercent': 0.45, 'rescaleHeight': False, 'trialN': 113, 'loaded': True, 'loadedTime': 4399, 'positionName': 'LEFT', 'positionCoords': [817.8, 514.5], 'bid': 4}, {'imgObject': {}, 'id': 'blueberries', 'src': '/static/foodstim60/blueberries.jpg', 'key': 'i', 'origWidth': 411, 'origHeight': 411, 'width': 411, 'height': 411, 'widthPercent': 0.45, 'rescaleHeight': False, 'trialN': 113, 'loaded': True, 'loadedTime': 4372, 'positionName': 'RIGHT', 'positionCoords': [1331.2, 514.5], 'bid': 4.3500000000000005}]",184567,1669829406842,tacos,blueberries,4.0,4.3500000000000005,0.35000000000000053,blueberries,1414,1424,1424,True,i,186496,1929,1669829408770,1928,HRV,HRV_0028,2022-11-30 17:32:11
114,"[{'imgObject': {}, 'id': 'hashbrowns', 'src': '/static/foodstim60/hashbrowns.jpg', 'key': 'u', 'origWidth': 411, 'origHeight': 410, 'width': 411, 'height': 410, 'widthPercent': 0.45, 'rescaleHeight': False, 'trialN': 114, 'loaded': True, 'loadedTime': 4393, 'positionName': 'LEFT', 'positionCoords': [817.8, 515], 'bid': 1.9}, {'imgObject': {}, 'id': 'raspberries', 'src': '/static/foodstim60/raspberries.jpg', 'key': 'i', 'origWidth': 411, 'origHeight': 411, 'width': 411, 'height': 411, 'widthPercent': 0.45, 'rescaleHeight': False, 'trialN': 114, 'loaded': True, 'loadedTime': 4355, 'positionName': 'RIGHT', 'positionCoords': [1331.2, 514.5], 'bid': 4.82}]",186496,1669829408770,hashbrowns,raspberries,1.9,4.82,2.9200000000000004,raspberries,1001,1016,1015,True,i,188022,1526,1669829410297,1527,HRV,HRV_0028,2022-11-30 17:32:11
115,"[{'imgObject': {}, 'id': 'banana', 'src': '/static/foodstim60/banana.jpg', 'key': 'u', 'origWidth': 410, 'origHeight': 410, 'width': 410, 'height': 410, 'widthPercent': 0.45, 'rescaleHeight': False, 'trialN': 115, 'loaded': True, 'loadedTime': 4390, 'positionName': 'LEFT', 'positionCoords': [818.8, 515], 'bid': 4.65}, {'imgObject': {}, 'id': 'baked potato', 'src': '/static/foodstim60/baked potato.jpg', 'key': 'i', 'origWidth': 409, 'origHeight': 410, 'width': 409, 'height': 410, 'widthPercent': 0.45, 'rescaleHeight': False, 'trialN': 115, 'loaded': True, 'loadedTime': 4375, 'positionName': 'RIGHT', 'positionCoords': [1331.2, 515], 'bid': 4.5}]",188022,1669829410297,banana,baked potato,4.65,4.5,-0.15000000000000036,baked potato,1303,1313,1313,True,i,189851,1829,1669829412125,1828,HRV,HRV_0028,2022-11-30 17:32:11
116,"[{'imgObject': {}, 'id': 'mashed potato', 'src': '/static/foodstim60/mashed potato.jpg', 'key': 'u', 'origWidth': 409, 'origHeight': 409, 'width': 409, 'height': 409, 'widthPercent': 0.45, 'rescaleHeight': False, 'trialN': 116, 'loaded': True, 'loadedTime': 4388, 'positionName': 'LEFT', 'positionCoords': [819.8, 515.5], 'bid': 5.03}, {'imgObject': {}, 'id': 'turkey sandwich', 'src': '/static/foodstim60/turkey sandwich.jpg', 'key': 'i', 'origWidth': 409, 'origHeight': 409, 'width': 409, 'height': 409, 'widthPercent': 0.45, 'rescaleHeight': False, 'trialN': 116, 'loaded': True, 'loadedTime': 4385, 'positionName': 'RIGHT', 'positionCoords': [1331.2, 515.5], 'bid': 6.47}]",189851,1669829412125,mashed potato,turkey sandwich,5.03,6.47,1.4399999999999995,turkey sandwich,1271,1277,1277,True,i,191641,1790,1669829413915,1790,HRV,HRV_0028,2022-11-30 17:32:11
117,"[{'imgObject': {}, 'id': 'banana', 'src': '/static/foodstim60/banana.jpg', 'key': 'u', 'origWidth': 410, 'origHeight': 410, 'width': 410, 'height': 410, 'widthPercent': 0.45, 'rescaleHeight': False, 'trialN': 117, 'loaded': True, 'loadedTime': 4390, 'positionName': 'LEFT', 'positionCoords': [818.8, 515], 'bid': 4.65}, {'imgObject': {}, 'id': 'sushi w_condiments', 'src': '/static/foodstim60/sushi w_condiments.jpg', 'key': 'i', 'origWidth': 410, 'origHeight': 410, 'width': 410, 'height': 410, 'widthPercent': 0.45, 'rescaleHeight': False, 'trialN': 117, 'loaded': True, 'loadedTime': 4400, 'positionName': 'RIGHT', 'positionCoords': [1331.2, 515], 'bid': 9}]",191641,1669829413915,banana,sushi w_condiments,4.65,9.0,4.35,sushi w_condiments,824,831,830,True,i,192986,1345,1669829415261,1346,HRV,HRV_0028,2022-11-30 17:32:11
118,"[{'imgObject': {}, 'id': 'blueberries', 'src': '/static/foodstim60/blueberries.jpg', 'key': 'u', 'origWidth': 411, 'origHeight': 411, 'width': 411, 'height': 411, 'widthPercent': 0.45, 'rescaleHeight': False, 'trialN': 118, 'loaded': True, 'loadedTime': 4372, 'positionName': 'LEFT', 'positionCoords': [817.8, 514.5], 'bid': 4.3500000000000005}, {'imgObject': {}, 'id': 'salad w chicken', 'src': '/static/foodstim60/salad w chicken.jpg', 'key': 'i', 'origWidth': 411, 'origHeight': 411, 'width': 411, 'height': 411, 'widthPercent': 0.45, 'rescaleHeight': False, 'trialN': 118, 'loaded': True, 'loadedTime': 4398, 'positionName': 'RIGHT', 'positionCoords': [1331.2, 514.5], 'bid': 8.61}]",192987,1669829415261,blueberries,salad w chicken,4.3500000000000005,8.61,4.259999999999999,salad w chicken,899,917,917,True,i,194415,1428,1669829416689,1428,HRV,HRV_0028,2022-11-30 17:32:11
