trialN,stimuli,trialStartTime,trialStartTime_UNIX,stimulus1,stimulus2,stimulus1Bid,stimulus2Bid,delta,selected,rt,rt_UNIX,rt_perfnow,receivedResponse,rsp,trialEndTime,trialDuration,trialEndTime_UNIX,trialDuration_UNIX,exp,subjectId,date
0,"[{'imgObject': {}, 'id': 'hashbrowns', 'src': '/static/foodstim60/hashbrowns.jpg', 'key': 'u', 'origWidth': 411, 'origHeight': 410, 'width': 411, 'height': 410, 'widthPercent': 0.45, 'rescaleHeight': False, 'trialN': 0, 'loaded': True, 'loadedTime': 2068.900000035763, 'positionName': 'LEFT', 'positionCoords': [510.6, 335], 'bid': 5}, {'imgObject': {}, 'id': 'eggsalad', 'src': '/static/foodstim60/eggsalad.jpg', 'key': 'i', 'origWidth': 410, 'origHeight': 409, 'width': 410, 'height': 409, 'widthPercent': 0.45, 'rescaleHeight': False, 'trialN': 0, 'loaded': True, 'loadedTime': 2074.100000023842, 'positionName': 'RIGHT', 'positionCoords': [998.4, 335.5], 'bid': 2.86}]",2371.800000011921,1669829420981,hashbrowns,eggsalad,5.0,2.86,-2.14,hashbrowns,1836.1000000238419,1837,1836.5,True,u,4712.400000035763,2340.600000023842,1669829423322,2341,HRV,HRV_0062,2022-11-30 17:36:26
1,"[{'imgObject': {}, 'id': 'veggieswithdip', 'src': '/static/foodstim60/veggieswithdip.jpg', 'key': 'u', 'origWidth': 409, 'origHeight': 409, 'width': 409, 'height': 409, 'widthPercent': 0.45, 'rescaleHeight': False, 'trialN': 1, 'loaded': True, 'loadedTime': 2076.7000000476837, 'positionName': 'LEFT', 'positionCoords': [512.6, 335.5], 'bid': 5.91}, {'imgObject': {}, 'id': 'strawberries', 'src': '/static/foodstim60/strawberries.jpg', 'key': 'i', 'origWidth': 410, 'origHeight': 410, 'width': 410, 'height': 410, 'widthPercent': 0.45, 'rescaleHeight': False, 'trialN': 1, 'loaded': True, 'loadedTime': 2078.5, 'positionName': 'RIGHT', 'positionCoords': [998.4, 335], 'bid': 6.03}]",4712.600000023842,1669829423322,veggieswithdip,strawberries,5.91,6.03,0.1200000000000001,veggieswithdip,1916.199999988079,1917,1916.3999999761581,True,u,7135.800000011921,2423.199999988079,1669829425745,2423,HRV,HRV_0062,2022-11-30 17:36:26
2,"[{'imgObject': {}, 'id': 'rigatoni', 'src': '/static/foodstim60/rigatoni.jpg', 'key': 'u', 'origWidth': 411, 'origHeight': 411, 'width': 411, 'height': 411, 'widthPercent': 0.45, 'rescaleHeight': False, 'trialN': 2, 'loaded': True, 'loadedTime': 2079.400000035763, 'positionName': 'LEFT', 'positionCoords': [510.6, 334.5], 'bid': 4.33}, {'imgObject': {}, 'id': 'froot loops w milk', 'src': '/static/foodstim60/froot loops w milk.jpg', 'key': 'i', 'origWidth': 410, 'origHeight': 410, 'width': 410, 'height': 410, 'widthPercent': 0.45, 'rescaleHeight': False, 'trialN': 2, 'loaded': True, 'loadedTime': 2080.100000023842, 'positionName': 'RIGHT', 'positionCoords': [998.4, 335], 'bid': 5.01}]",7135.900000035763,1669829425746,rigatoni,froot loops w milk,4.33,5.01,0.6799999999999997,froot loops w milk,2212.899999976158,2213,2213.199999988079,True,i,9856.800000011921,2720.899999976158,1669829428467,2721,HRV,HRV_0062,2022-11-30 17:36:26
3,"[{'imgObject': {}, 'id': 'yogurt no spoon', 'src': '/static/foodstim60/yogurt no spoon.jpg', 'key': 'u', 'origWidth': 411, 'origHeight': 410, 'width': 411, 'height': 410, 'widthPercent': 0.45, 'rescaleHeight': False, 'trialN': 3, 'loaded': True, 'loadedTime': 2080.900000035763, 'positionName': 'LEFT', 'positionCoords': [510.6, 335], 'bid': 4.96}, {'imgObject': {}, 'id': 'mashed potato', 'src': '/static/foodstim60/mashed potato.jpg', 'key': 'i', 'origWidth': 409, 'origHeight': 409, 'width': 409, 'height': 409, 'widthPercent': 0.45, 'rescaleHeight': False, 'trialN': 3, 'loaded': True, 'loadedTime': 2082.100000023842, 'positionName': 'RIGHT', 'positionCoords': [998.4, 335.5], 'bid': 6.12}]",9856.900000035763,1669829428467,yogurt no spoon,mashed potato,4.96,6.12,1.1600000000000001,mashed potato,1794,1794,1794.199999988079,True,i,12151.800000011921,2294.899999976158,1669829430762,2295,HRV,HRV_0062,2022-11-30 17:36:26
4,"[{'imgObject': {}, 'id': 'mango', 'src': '/static/foodstim60/mango.jpg', 'key': 'u', 'origWidth': 411, 'origHeight': 411, 'width': 411, 'height': 411, 'widthPercent': 0.45, 'rescaleHeight': False, 'trialN': 4, 'loaded': True, 'loadedTime': 2082.900000035763, 'positionName': 'LEFT', 'positionCoords': [510.6, 334.5], 'bid': 3.12}, {'imgObject': {}, 'id': 'eggs', 'src': '/static/foodstim60/eggs.jpg', 'key': 'i', 'origWidth': 409, 'origHeight': 409, 'width': 409, 'height': 409, 'widthPercent': 0.45, 'rescaleHeight': False, 'trialN': 4, 'loaded': True, 'loadedTime': 2088.900000035763, 'positionName': 'RIGHT', 'positionCoords': [998.4, 335.5], 'bid': 3.34}]",12152.0,1669829430762,mango,eggs,3.12,3.34,0.21999999999999975,NaN,NaN,NaN,,False,NaN,16160.800000011921,4008.800000011921,1669829434770,4008,HRV,HRV_0062,2022-11-30 17:36:26
5,"[{'imgObject': {}, 'id': 'burrito', 'src': '/static/foodstim60/burrito.jpg', 'key': 'u', 'origWidth': 410, 'origHeight': 410, 'width': 410, 'height': 410, 'widthPercent': 0.45, 'rescaleHeight': False, 'trialN': 5, 'loaded': True, 'loadedTime': 2109.900000035763, 'positionName': 'LEFT', 'positionCoords': [511.6, 335], 'bid': 4.84}, {'imgObject': {}, 'id': 'cheerios', 'src': '/static/foodstim60/cheerios.jpg', 'key': 'i', 'origWidth': 409, 'origHeight': 410, 'width': 409, 'height': 410, 'widthPercent': 0.45, 'rescaleHeight': False, 'trialN': 5, 'loaded': True, 'loadedTime': 2118.800000011921, 'positionName': 'RIGHT', 'positionCoords': [998.4, 335], 'bid': 5.0600000000000005}]",16160.900000035763,1669829434771,burrito,cheerios,4.84,5.0600000000000005,0.22000000000000064,burrito,197.80000001192093,198,198.0,True,u,16865.100000023842,704.1999999880791,1669829435475,704,HRV,HRV_0062,2022-11-30 17:36:26
6,"[{'imgObject': {}, 'id': 'mac & cheese', 'src': '/static/foodstim60/mac & cheese.jpg', 'key': 'u', 'origWidth': 410, 'origHeight': 410, 'width': 410, 'height': 410, 'widthPercent': 0.45, 'rescaleHeight': False, 'trialN': 6, 'loaded': True, 'loadedTime': 2130.5, 'positionName': 'LEFT', 'positionCoords': [511.6, 335], 'bid': 8.82}, {'imgObject': {}, 'id': 'Grapes', 'src': '/static/foodstim60/Grapes.jpg', 'key': 'i', 'origWidth': 411, 'origHeight': 411, 'width': 411, 'height': 411, 'widthPercent': 0.45, 'rescaleHeight': False, 'trialN': 6, 'loaded': True, 'loadedTime': 2146.5, 'positionName': 'RIGHT', 'positionCoords': [998.4, 334.5], 'bid': 8.870000000000001}]",16865.30000001192,1669829435475,mac & cheese,Grapes,8.82,8.870000000000001,0.05000000000000071,mac & cheese,1466.5,1467,1466.699999988079,True,u,18840.400000035763,1975.1000000238419,1669829437450,1975,HRV,HRV_0062,2022-11-30 17:36:26
7,"[{'imgObject': {}, 'id': 'steak', 'src': '/static/foodstim60/steak.jpg', 'key': 'u', 'origWidth': 410, 'origHeight': 410, 'width': 410, 'height': 410, 'widthPercent': 0.45, 'rescaleHeight': False, 'trialN': 7, 'loaded': True, 'loadedTime': 2161.7000000476837, 'positionName': 'LEFT', 'positionCoords': [511.6, 335], 'bid': 9.92}, {'imgObject': {}, 'id': 'bagel plain', 'src': '/static/foodstim60/bagel plain.jpg', 'key': 'i', 'origWidth': 410, 'origHeight': 410, 'width': 410, 'height': 410, 'widthPercent': 0.45, 'rescaleHeight': False, 'trialN': 7, 'loaded': True, 'loadedTime': 2178.400000035763, 'positionName': 'RIGHT', 'positionCoords': [998.4, 335], 'bid': 8.93}]",18840.5,1669829437450,steak,bagel plain,9.92,8.93,-0.9900000000000002,steak,694.6000000238419,695,694.9000000357628,True,u,20040.80000001192,1200.300000011921,1669829438651,1201,HRV,HRV_0062,2022-11-30 17:36:26
8,"[{'imgObject': {}, 'id': 'cheerios', 'src': '/static/foodstim60/cheerios.jpg', 'key': 'u', 'origWidth': 409, 'origHeight': 410, 'width': 409, 'height': 410, 'widthPercent': 0.45, 'rescaleHeight': False, 'trialN': 8, 'loaded': True, 'loadedTime': 2119.400000035763, 'positionName': 'LEFT', 'positionCoords': [512.6, 335], 'bid': 5.0600000000000005}, {'imgObject': {}, 'id': 'olives', 'src': '/static/foodstim60/olives.jpg', 'key': 'i', 'origWidth': 410, 'origHeight': 410, 'width': 410, 'height': 410, 'widthPercent': 0.45, 'rescaleHeight': False, 'trialN': 8, 'loaded': True, 'loadedTime': 2180.100000023842, 'positionName': 'RIGHT', 'positionCoords': [998.4, 335], 'bid': 0}]",20041.0,1669829438651,cheerios,olives,5.0600000000000005,0.0,-5.0600000000000005,cheerios,1527.7000000476837,1528,1527.800000011921,True,u,22072.80000001192,2031.800000011921,1669829440683,2032,HRV,HRV_0062,2022-11-30 17:36:26
9,"[{'imgObject': {}, 'id': 'pear', 'src': '/static/foodstim60/pear.jpg', 'key': 'u', 'origWidth': 411, 'origHeight': 410, 'width': 411, 'height': 410, 'widthPercent': 0.45, 'rescaleHeight': False, 'trialN': 9, 'loaded': True, 'loadedTime': 2193.7000000476837, 'positionName': 'LEFT', 'positionCoords': [510.6, 335], 'bid': 3.62}, {'imgObject': {}, 'id': 'cherry tomato', 'src': '/static/foodstim60/cherry tomato.jpg', 'key': 'i', 'origWidth': 410, 'origHeight': 410, 'width': 410, 'height': 410, 'widthPercent': 0.45, 'rescaleHeight': False, 'trialN': 9, 'loaded': True, 'loadedTime': 2203, 'positionName': 'RIGHT', 'positionCoords': [998.4, 335], 'bid': 1.25}]",22072.900000035763,1669829440683,pear,cherry tomato,3.62,1.25,-2.37,pear,2111.099999964237,2111,2111.300000011921,True,u,24688.400000035763,2615.5,1669829443298,2615,HRV,HRV_0062,2022-11-30 17:36:26
10,"[{'imgObject': {}, 'id': 'cherries', 'src': '/static/foodstim60/cherries.jpg', 'key': 'u', 'origWidth': 410, 'origHeight': 411, 'width': 410, 'height': 411, 'widthPercent': 0.45, 'rescaleHeight': False, 'trialN': 10, 'loaded': True, 'loadedTime': 2211.800000011921, 'positionName': 'LEFT', 'positionCoords': [511.6, 334.5], 'bid': 7.32}, {'imgObject': {}, 'id': 'burger', 'src': '/static/foodstim60/burger.jpg', 'key': 'i', 'origWidth': 409, 'origHeight': 409, 'width': 409, 'height': 409, 'widthPercent': 0.45, 'rescaleHeight': False, 'trialN': 10, 'loaded': True, 'loadedTime': 2214, 'positionName': 'RIGHT', 'positionCoords': [998.4, 335.5], 'bid': 9.11}]",24688.5,1669829443298,cherries,burger,7.32,9.11,1.7899999999999991,burger,773.2000000476837,774,773.4000000357628,True,i,25968.900000035763,1280.4000000357628,1669829444579,1281,HRV,HRV_0062,2022-11-30 17:36:26
11,"[{'imgObject': {}, 'id': 'sweetpotato', 'src': '/static/foodstim60/sweetpotato.jpg', 'key': 'u', 'origWidth': 410, 'origHeight': 410, 'width': 410, 'height': 410, 'widthPercent': 0.45, 'rescaleHeight': False, 'trialN': 11, 'loaded': True, 'loadedTime': 2215.2000000476837, 'positionName': 'LEFT', 'positionCoords': [511.6, 335], 'bid': 4.97}, {'imgObject': {}, 'id': 'burrito', 'src': '/static/foodstim60/burrito.jpg', 'key': 'i', 'origWidth': 410, 'origHeight': 410, 'width': 410, 'height': 410, 'widthPercent': 0.45, 'rescaleHeight': False, 'trialN': 11, 'loaded': True, 'loadedTime': 2101.600000023842, 'positionName': 'RIGHT', 'positionCoords': [998.4, 335], 'bid': 4.84}]",25969.0,1669829444579,sweetpotato,burrito,4.97,4.84,-0.1299999999999999,sweetpotato,1157.7000000476837,1158,1158.1000000238419,True,u,27631.900000035763,1662.9000000357628,1669829446242,1663,HRV,HRV_0062,2022-11-30 17:36:26
12,"[{'imgObject': {}, 'id': 'salmon', 'src': '/static/foodstim60/salmon.jpg', 'key': 'u', 'origWidth': 410, 'origHeight': 409, 'width': 410, 'height': 409, 'widthPercent': 0.45, 'rescaleHeight': False, 'trialN': 12, 'loaded': True, 'loadedTime': 2218.800000011921, 'positionName': 'LEFT', 'positionCoords': [511.6, 335.5], 'bid': 0.1}, {'imgObject': {}, 'id': 'mango', 'src': '/static/foodstim60/mango.jpg', 'key': 'i', 'origWidth': 411, 'origHeight': 411, 'width': 411, 'height': 411, 'widthPercent': 0.45, 'rescaleHeight': False, 'trialN': 12, 'loaded': True, 'loadedTime': 2083.100000023842, 'positionName': 'RIGHT', 'positionCoords': [998.4, 334.5], 'bid': 3.12}]",27632.0,1669829446242,salmon,mango,0.1,3.12,3.02,mango,1364.6000000238419,1365,1364.9000000357628,True,i,29504.900000035763,1872.9000000357628,1669829448115,1873,HRV,HRV_0062,2022-11-30 17:36:26
13,"[{'imgObject': {}, 'id': 'banana', 'src': '/static/foodstim60/banana.jpg', 'key': 'u', 'origWidth': 410, 'origHeight': 410, 'width': 410, 'height': 410, 'widthPercent': 0.45, 'rescaleHeight': False, 'trialN': 13, 'loaded': True, 'loadedTime': 2218.900000035763, 'positionName': 'LEFT', 'positionCoords': [511.6, 335], 'bid': 2.44}, {'imgObject': {}, 'id': 'seaweed', 'src': '/static/foodstim60/seaweed.jpg', 'key': 'i', 'origWidth': 410, 'origHeight': 410, 'width': 410, 'height': 410, 'widthPercent': 0.45, 'rescaleHeight': False, 'trialN': 13, 'loaded': True, 'loadedTime': 2227.2000000476837, 'positionName': 'RIGHT', 'positionCoords': [998.4, 335], 'bid': 0}]",29505.0,1669829448115,banana,seaweed,2.44,0.0,-2.44,banana,2150.800000011921,2151,2151.100000023842,True,u,32160.900000035763,2655.900000035763,1669829450771,2656,HRV,HRV_0062,2022-11-30 17:36:26
14,"[{'imgObject': {}, 'id': 'cantaloupe', 'src': '/static/foodstim60/cantaloupe.jpg', 'key': 'u', 'origWidth': 409, 'origHeight': 409, 'width': 409, 'height': 409, 'widthPercent': 0.45, 'rescaleHeight': False, 'trialN': 14, 'loaded': True, 'loadedTime': 2242.300000011921, 'positionName': 'LEFT', 'positionCoords': [512.6, 335.5], 'bid': 1.77}, {'imgObject': {}, 'id': 'shreddedwheatwithmilk', 'src': '/static/foodstim60/shreddedwheatwithmilk.jpg', 'key': 'i', 'origWidth': 410, 'origHeight': 410, 'width': 410, 'height': 410, 'widthPercent': 0.45, 'rescaleHeight': False, 'trialN': 14, 'loaded': True, 'loadedTime': 2249.900000035763, 'positionName': 'RIGHT', 'positionCoords': [998.4, 335], 'bid': 4.75}]",32161.0,1669829450771,cantaloupe,shreddedwheatwithmilk,1.77,4.75,2.98,shreddedwheatwithmilk,1914.7000000476837,1915,1915.0,True,i,34576.90000003576,2415.900000035763,1669829453187,2416,HRV,HRV_0062,2022-11-30 17:36:26
15,"[{'imgObject': {}, 'id': 'pear', 'src': '/static/foodstim60/pear.jpg', 'key': 'u', 'origWidth': 411, 'origHeight': 410, 'width': 411, 'height': 410, 'widthPercent': 0.45, 'rescaleHeight': False, 'trialN': 15, 'loaded': True, 'loadedTime': 2186.2000000476837, 'positionName': 'LEFT', 'positionCoords': [510.6, 335], 'bid': 3.62}, {'imgObject': {}, 'id': 'apple slices', 'src': '/static/foodstim60/apple slices.jpg', 'key': 'i', 'origWidth': 409, 'origHeight': 410, 'width': 409, 'height': 410, 'widthPercent': 0.45, 'rescaleHeight': False, 'trialN': 15, 'loaded': True, 'loadedTime': 2257.800000011921, 'positionName': 'RIGHT', 'positionCoords': [998.4, 335], 'bid': 3.78}]",34577.0,1669829453187,pear,apple slices,3.62,3.78,0.1599999999999997,pear,1189.800000011921,1190,1190.0,True,u,36271.90000003576,1694.9000000357628,1669829454882,1695,HRV,HRV_0062,2022-11-30 17:36:26
16,"[{'imgObject': {}, 'id': 'bagel and cc', 'src': '/static/foodstim60/bagel and cc.jpg', 'key': 'u', 'origWidth': 410, 'origHeight': 410, 'width': 410, 'height': 410, 'widthPercent': 0.45, 'rescaleHeight': False, 'trialN': 16, 'loaded': True, 'loadedTime': 2266.100000023842, 'positionName': 'LEFT', 'positionCoords': [511.6, 335], 'bid': 9.22}, {'imgObject': {}, 'id': 'tacos', 'src': '/static/foodstim60/tacos.jpg', 'key': 'i', 'origWidth': 411, 'origHeight': 411, 'width': 411, 'height': 411, 'widthPercent': 0.45, 'rescaleHeight': False, 'trialN': 16, 'loaded': True, 'loadedTime': 2276.400000035763, 'positionName': 'RIGHT', 'positionCoords': [998.4, 334.5], 'bid': 9.8}]",36272.0,1669829454882,bagel and cc,tacos,9.22,9.8,0.5800000000000001,tacos,1174.5,1174,1174.6000000238419,True,i,37951.90000003576,1679.9000000357628,1669829456562,1680,HRV,HRV_0062,2022-11-30 17:36:26
17,"[{'imgObject': {}, 'id': 'cocktailshrimp', 'src': '/static/foodstim60/cocktailshrimp.jpg', 'key': 'u', 'origWidth': 410, 'origHeight': 410, 'width': 410, 'height': 410, 'widthPercent': 0.45, 'rescaleHeight': False, 'trialN': 17, 'loaded': True, 'loadedTime': 2277.100000023842, 'positionName': 'LEFT', 'positionCoords': [511.6, 335], 'bid': 2.46}, {'imgObject': {}, 'id': 'banana', 'src': '/static/foodstim60/banana.jpg', 'key': 'i', 'origWidth': 410, 'origHeight': 410, 'width': 410, 'height': 410, 'widthPercent': 0.45, 'rescaleHeight': False, 'trialN': 17, 'loaded': True, 'loadedTime': 2219.400000035763, 'positionName': 'RIGHT', 'positionCoords': [998.4, 335], 'bid': 2.44}]",37952.0,1669829456562,cocktailshrimp,banana,2.46,2.44,-0.020000000000000018,banana,1263.6000000238419,1264,1263.9000000357628,True,i,39719.80000001192,1767.800000011921,1669829458329,1767,HRV,HRV_0062,2022-11-30 17:36:26
18,"[{'imgObject': {}, 'id': 'raspberries', 'src': '/static/foodstim60/raspberries.jpg', 'key': 'u', 'origWidth': 411, 'origHeight': 411, 'width': 411, 'height': 411, 'widthPercent': 0.45, 'rescaleHeight': False, 'trialN': 18, 'loaded': True, 'loadedTime': 2281.7000000476837, 'positionName': 'LEFT', 'positionCoords': [510.6, 334.5], 'bid': 7.03}, {'imgObject': {}, 'id': 'avocado', 'src': '/static/foodstim60/avocado.jpg', 'key': 'i', 'origWidth': 409, 'origHeight': 409, 'width': 409, 'height': 409, 'widthPercent': 0.45, 'rescaleHeight': False, 'trialN': 18, 'loaded': True, 'loadedTime': 2282.300000011921, 'positionName': 'RIGHT', 'positionCoords': [998.4, 335.5], 'bid': 1.92}]",39719.90000003576,1669829458330,raspberries,avocado,7.03,1.92,-5.11,raspberries,1171.5999999642372,1171,1171.8999999761581,True,u,41392.80000001192,1672.8999999761581,1669829460002,1672,HRV,HRV_0062,2022-11-30 17:36:26
19,"[{'imgObject': {}, 'id': 'sweetpotato', 'src': '/static/foodstim60/sweetpotato.jpg', 'key': 'u', 'origWidth': 410, 'origHeight': 410, 'width': 410, 'height': 410, 'widthPercent': 0.45, 'rescaleHeight': False, 'trialN': 19, 'loaded': True, 'loadedTime': 2215, 'positionName': 'LEFT', 'positionCoords': [511.6, 335], 'bid': 4.97}, {'imgObject': {}, 'id': 'rigatoni and sauce', 'src': '/static/foodstim60/rigatoni and sauce.jpg', 'key': 'i', 'origWidth': 410, 'origHeight': 411, 'width': 410, 'height': 411, 'widthPercent': 0.45, 'rescaleHeight': False, 'trialN': 19, 'loaded': True, 'loadedTime': 2289.400000035763, 'positionName': 'RIGHT', 'positionCoords': [998.4, 334.5], 'bid': 5.78}]",41392.90000003576,1669829460003,sweetpotato,rigatoni and sauce,4.97,5.78,0.8100000000000005,rigatoni and sauce,969.5999999642372,969,969.8000000119209,True,i,42864.40000003576,1471.5,1669829461474,1471,HRV,HRV_0062,2022-11-30 17:36:26
20,"[{'imgObject': {}, 'id': 'fried eggs', 'src': '/static/foodstim60/fried eggs.jpg', 'key': 'u', 'origWidth': 410, 'origHeight': 410, 'width': 410, 'height': 410, 'widthPercent': 0.45, 'rescaleHeight': False, 'trialN': 20, 'loaded': True, 'loadedTime': 2297.5, 'positionName': 'LEFT', 'positionCoords': [511.6, 335], 'bid': 8.39}, {'imgObject': {}, 'id': 'cheerios', 'src': '/static/foodstim60/cheerios.jpg', 'key': 'i', 'origWidth': 409, 'origHeight': 410, 'width': 409, 'height': 410, 'widthPercent': 0.45, 'rescaleHeight': False, 'trialN': 20, 'loaded': True, 'loadedTime': 2119.5, 'positionName': 'RIGHT', 'positionCoords': [998.4, 335], 'bid': 5.0600000000000005}]",42864.60000002384,1669829461474,fried eggs,cheerios,8.39,5.0600000000000005,-3.33,fried eggs,969.8999999761581,970,970.1000000238419,True,u,44336.5,1471.8999999761581,1669829462946,1472,HRV,HRV_0062,2022-11-30 17:36:26
21,"[{'imgObject': {}, 'id': 'granola w milk', 'src': '/static/foodstim60/granola w milk.jpg', 'key': 'u', 'origWidth': 410, 'origHeight': 410, 'width': 410, 'height': 410, 'widthPercent': 0.45, 'rescaleHeight': False, 'trialN': 21, 'loaded': True, 'loadedTime': 2304.600000023842, 'positionName': 'LEFT', 'positionCoords': [511.6, 335], 'bid': 4.5200000000000005}, {'imgObject': {}, 'id': 'cherry tomato', 'src': '/static/foodstim60/cherry tomato.jpg', 'key': 'i', 'origWidth': 410, 'origHeight': 410, 'width': 410, 'height': 410, 'widthPercent': 0.45, 'rescaleHeight': False, 'trialN': 21, 'loaded': True, 'loadedTime': 2209.800000011921, 'positionName': 'RIGHT', 'positionCoords': [998.4, 335], 'bid': 1.25}]",44336.60000002384,1669829462946,granola w milk,cherry tomato,4.5200000000000005,1.25,-3.2700000000000005,granola w milk,1337.199999988079,1338,1337.300000011921,True,u,46175.40000003576,1838.800000011921,1669829464785,1839,HRV,HRV_0062,2022-11-30 17:36:26
22,"[{'imgObject': {}, 'id': 'blueberries', 'src': '/static/foodstim60/blueberries.jpg', 'key': 'u', 'origWidth': 411, 'origHeight': 411, 'width': 411, 'height': 411, 'widthPercent': 0.45, 'rescaleHeight': False, 'trialN': 22, 'loaded': True, 'loadedTime': 2304.800000011921, 'positionName': 'LEFT', 'positionCoords': [510.6, 334.5], 'bid': 7.51}, {'imgObject': {}, 'id': 'cherries', 'src': '/static/foodstim60/cherries.jpg', 'key': 'i', 'origWidth': 410, 'origHeight': 411, 'width': 410, 'height': 411, 'widthPercent': 0.45, 'rescaleHeight': False, 'trialN': 22, 'loaded': True, 'loadedTime': 2212.400000035763, 'positionName': 'RIGHT', 'positionCoords': [998.4, 334.5], 'bid': 7.32}]",46175.5,1669829464785,blueberries,cherries,7.51,7.32,-0.1899999999999995,blueberries,2277.2000000476837,2278,2277.400000035763,True,u,48960.200000047684,2784.7000000476837,1669829467570,2785,HRV,HRV_0062,2022-11-30 17:36:26
23,"[{'imgObject': {}, 'id': 'chickenfingers', 'src': '/static/foodstim60/chickenfingers.jpg', 'key': 'u', 'origWidth': 410, 'origHeight': 410, 'width': 410, 'height': 410, 'widthPercent': 0.45, 'rescaleHeight': False, 'trialN': 23, 'loaded': True, 'loadedTime': 2312.7000000476837, 'positionName': 'LEFT', 'positionCoords': [511.6, 335], 'bid': 8.370000000000001}, {'imgObject': {}, 'id': 'baked potato', 'src': '/static/foodstim60/baked potato.jpg', 'key': 'i', 'origWidth': 409, 'origHeight': 410, 'width': 409, 'height': 410, 'widthPercent': 0.45, 'rescaleHeight': False, 'trialN': 23, 'loaded': True, 'loadedTime': 2322.5, 'positionName': 'RIGHT', 'positionCoords': [998.4, 335], 'bid': 8.32}]",48960.30000001192,1669829467570,chickenfingers,baked potato,8.370000000000001,8.32,-0.05000000000000071,chickenfingers,1332.1000000238419,1332,1332.199999988079,True,u,50799.200000047684,1838.9000000357628,1669829469409,1839,HRV,HRV_0062,2022-11-30 17:36:26
24,"[{'imgObject': {}, 'id': 'fried eggs', 'src': '/static/foodstim60/fried eggs.jpg', 'key': 'u', 'origWidth': 410, 'origHeight': 410, 'width': 410, 'height': 410, 'widthPercent': 0.45, 'rescaleHeight': False, 'trialN': 24, 'loaded': True, 'loadedTime': 2297.400000035763, 'positionName': 'LEFT', 'positionCoords': [511.6, 335], 'bid': 8.39}, {'imgObject': {}, 'id': 'pear', 'src': '/static/foodstim60/pear.jpg', 'key': 'i', 'origWidth': 411, 'origHeight': 410, 'width': 411, 'height': 410, 'widthPercent': 0.45, 'rescaleHeight': False, 'trialN': 24, 'loaded': True, 'loadedTime': 2186.800000011921, 'positionName': 'RIGHT', 'positionCoords': [998.4, 335], 'bid': 3.62}]",50799.30000001192,1669829469409,fried eggs,pear,8.39,3.62,-4.7700000000000005,fried eggs,950.5,951,950.6000000238419,True,u,52255.200000047684,1455.9000000357628,1669829470865,1456,HRV,HRV_0062,2022-11-30 17:36:26
25,"[{'imgObject': {}, 'id': 'mac & cheese', 'src': '/static/foodstim60/mac & cheese.jpg', 'key': 'u', 'origWidth': 410, 'origHeight': 410, 'width': 410, 'height': 410, 'widthPercent': 0.45, 'rescaleHeight': False, 'trialN': 25, 'loaded': True, 'loadedTime': 2129.800000011921, 'positionName': 'LEFT', 'positionCoords': [511.6, 335], 'bid': 8.82}, {'imgObject': {}, 'id': 'rigatoni', 'src': '/static/foodstim60/rigatoni.jpg', 'key': 'i', 'origWidth': 411, 'origHeight': 411, 'width': 411, 'height': 411, 'widthPercent': 0.45, 'rescaleHeight': False, 'trialN': 25, 'loaded': True, 'loadedTime': 2079.300000011921, 'positionName': 'RIGHT', 'positionCoords': [998.4, 334.5], 'bid': 4.33}]",52255.40000003576,1669829470865,mac & cheese,rigatoni,8.82,4.33,-4.49,mac & cheese,921.0999999642372,921,921.1999999880791,True,u,53680.5,1425.0999999642372,1669829472290,1425,HRV,HRV_0062,2022-11-30 17:36:26
26,"[{'imgObject': {}, 'id': 'hotdog w must', 'src': '/static/foodstim60/hotdog w must.jpg', 'key': 'u', 'origWidth': 409, 'origHeight': 409, 'width': 409, 'height': 409, 'widthPercent': 0.45, 'rescaleHeight': False, 'trialN': 26, 'loaded': True, 'loadedTime': 2323.5, 'positionName': 'LEFT', 'positionCoords': [512.6, 335.5], 'bid': 7.52}, {'imgObject': {}, 'id': 'eggsalad', 'src': '/static/foodstim60/eggsalad.jpg', 'key': 'i', 'origWidth': 410, 'origHeight': 409, 'width': 410, 'height': 409, 'widthPercent': 0.45, 'rescaleHeight': False, 'trialN': 26, 'loaded': True, 'loadedTime': 2074.2000000476837, 'positionName': 'RIGHT', 'positionCoords': [998.4, 335.5], 'bid': 2.86}]",53680.700000047684,1669829472290,hotdog w must,eggsalad,7.52,2.86,-4.66,hotdog w must,1022.7999999523163,1024,1023.1999999880791,True,u,55208.80000001192,1528.0999999642372,1669829473819,1529,HRV,HRV_0062,2022-11-30 17:36:26
27,"[{'imgObject': {}, 'id': 'Tribe humus pita', 'src': '/static/foodstim60/Tribe humus pita.jpg', 'key': 'u', 'origWidth': 411, 'origHeight': 411, 'width': 411, 'height': 411, 'widthPercent': 0.45, 'rescaleHeight': False, 'trialN': 27, 'loaded': True, 'loadedTime': 2324.300000011921, 'positionName': 'LEFT', 'positionCoords': [510.6, 334.5], 'bid': 4.82}, {'imgObject': {}, 'id': 'avocado', 'src': '/static/foodstim60/avocado.jpg', 'key': 'i', 'origWidth': 409, 'origHeight': 409, 'width': 409, 'height': 409, 'widthPercent': 0.45, 'rescaleHeight': False, 'trialN': 27, 'loaded': True, 'loadedTime': 2289.400000035763, 'positionName': 'RIGHT', 'positionCoords': [998.4, 335.5], 'bid': 1.92}]",55209.0,1669829473819,Tribe humus pita,avocado,4.82,1.92,-2.9000000000000004,Tribe humus pita,1294.4000000357628,1294,1294.6000000238419,True,u,57007.200000047684,1798.2000000476837,1669829475617,1798,HRV,HRV_0062,2022-11-30 17:36:26
28,"[{'imgObject': {}, 'id': 'rigatoni', 'src': '/static/foodstim60/rigatoni.jpg', 'key': 'u', 'origWidth': 411, 'origHeight': 411, 'width': 411, 'height': 411, 'widthPercent': 0.45, 'rescaleHeight': False, 'trialN': 28, 'loaded': True, 'loadedTime': 2078.600000023842, 'positionName': 'LEFT', 'positionCoords': [510.6, 334.5], 'bid': 4.33}, {'imgObject': {}, 'id': 'fruitsalad', 'src': '/static/foodstim60/fruitsalad.jpg', 'key': 'i', 'origWidth': 410, 'origHeight': 410, 'width': 410, 'height': 410, 'widthPercent': 0.45, 'rescaleHeight': False, 'trialN': 28, 'loaded': True, 'loadedTime': 2324.600000023842, 'positionName': 'RIGHT', 'positionCoords': [998.4, 335], 'bid': 4.68}]",57007.30000001192,1669829475617,rigatoni,fruitsalad,4.33,4.68,0.34999999999999964,fruitsalad,2334.5,2335,2334.800000011921,True,i,59847.200000047684,2839.900000035763,1669829478457,2840,HRV,HRV_0062,2022-11-30 17:36:26
29,"[{'imgObject': {}, 'id': 'roastedpotatoes', 'src': '/static/foodstim60/roastedpotatoes.jpg', 'key': 'u', 'origWidth': 409, 'origHeight': 410, 'width': 409, 'height': 410, 'widthPercent': 0.45, 'rescaleHeight': False, 'trialN': 29, 'loaded': True, 'loadedTime': 2326.300000011921, 'positionName': 'LEFT', 'positionCoords': [512.6, 335], 'bid': 8.67}, {'imgObject': {}, 'id': 'tacos', 'src': '/static/foodstim60/tacos.jpg', 'key': 'i', 'origWidth': 411, 'origHeight': 411, 'width': 411, 'height': 411, 'widthPercent': 0.45, 'rescaleHeight': False, 'trialN': 29, 'loaded': True, 'loadedTime': 2275.7000000476837, 'positionName': 'RIGHT', 'positionCoords': [998.4, 334.5], 'bid': 9.8}]",59847.30000001192,1669829478457,roastedpotatoes,tacos,8.67,9.8,1.1300000000000008,tacos,726,726,726.1999999880791,True,i,61080.60000002384,1233.300000011921,1669829479690,1233,HRV,HRV_0062,2022-11-30 17:36:26
30,"[{'imgObject': {}, 'id': 'grilled chicken strips', 'src': '/static/foodstim60/grilled chicken strips.jpg', 'key': 'u', 'origWidth': 410, 'origHeight': 411, 'width': 410, 'height': 411, 'widthPercent': 0.45, 'rescaleHeight': False, 'trialN': 30, 'loaded': True, 'loadedTime': 2326.800000011921, 'positionName': 'LEFT', 'positionCoords': [511.6, 334.5], 'bid': 9.69}, {'imgObject': {}, 'id': 'chicken nuggets2', 'src': '/static/foodstim60/chicken nuggets2.jpg', 'key': 'i', 'origWidth': 410, 'origHeight': 409, 'width': 410, 'height': 409, 'widthPercent': 0.45, 'rescaleHeight': False, 'trialN': 30, 'loaded': True, 'loadedTime': 2328.2000000476837, 'positionName': 'RIGHT', 'positionCoords': [998.4, 335.5], 'bid': 8.52}]",61080.700000047684,1669829479690,grilled chicken strips,chicken nuggets2,9.69,8.52,-1.17,chicken nuggets2,1794.8999999761581,1796,1795.199999988079,True,i,63384.200000047684,2303.5,1669829481994,2304,HRV,HRV_0062,2022-11-30 17:36:26
31,"[{'imgObject': {}, 'id': 'roastedpotatoes', 'src': '/static/foodstim60/roastedpotatoes.jpg', 'key': 'u', 'origWidth': 409, 'origHeight': 410, 'width': 409, 'height': 410, 'widthPercent': 0.45, 'rescaleHeight': False, 'trialN': 31, 'loaded': True, 'loadedTime': 2326.400000035763, 'positionName': 'LEFT', 'positionCoords': [512.6, 335], 'bid': 8.67}, {'imgObject': {}, 'id': 'corn cob', 'src': '/static/foodstim60/corn cob.jpg', 'key': 'i', 'origWidth': 411, 'origHeight': 411, 'width': 411, 'height': 411, 'widthPercent': 0.45, 'rescaleHeight': False, 'trialN': 31, 'loaded': True, 'loadedTime': 2330.7000000476837, 'positionName': 'RIGHT', 'positionCoords': [998.4, 334.5], 'bid': 9.04}]",63384.30000001192,1669829481994,roastedpotatoes,corn cob,8.67,9.04,0.3699999999999992,corn cob,2042.1000000238419,2043,2042.5,True,i,65927.20000004768,2542.900000035763,1669829484537,2543,HRV,HRV_0062,2022-11-30 17:36:26
32,"[{'imgObject': {}, 'id': 'fruitsalad', 'src': '/static/foodstim60/fruitsalad.jpg', 'key': 'u', 'origWidth': 410, 'origHeight': 410, 'width': 410, 'height': 410, 'widthPercent': 0.45, 'rescaleHeight': False, 'trialN': 32, 'loaded': True, 'loadedTime': 2324.900000035763, 'positionName': 'LEFT', 'positionCoords': [511.6, 335], 'bid': 4.68}, {'imgObject': {}, 'id': 'popsicles', 'src': '/static/foodstim60/popsicles.jpg', 'key': 'i', 'origWidth': 410, 'origHeight': 410, 'width': 410, 'height': 410, 'widthPercent': 0.45, 'rescaleHeight': False, 'trialN': 32, 'loaded': True, 'loadedTime': 2371.5, 'positionName': 'RIGHT', 'positionCoords': [998.4, 335], 'bid': 5.3500000000000005}]",65927.30000001192,1669829484537,fruitsalad,popsicles,4.68,5.3500000000000005,0.6700000000000008,popsicles,1656,1656,1656.300000011921,True,i,68088.20000004768,2160.900000035763,1669829486698,2161,HRV,HRV_0062,2022-11-30 17:36:26
33,"[{'imgObject': {}, 'id': 'blackbeanswithrice', 'src': '/static/foodstim60/blackbeanswithrice.jpg', 'key': 'u', 'origWidth': 410, 'origHeight': 410, 'width': 410, 'height': 410, 'widthPercent': 0.45, 'rescaleHeight': False, 'trialN': 33, 'loaded': True, 'loadedTime': 2338.900000035763, 'positionName': 'LEFT', 'positionCoords': [511.6, 335], 'bid': 1.6}, {'imgObject': {}, 'id': 'fruitsalad', 'src': '/static/foodstim60/fruitsalad.jpg', 'key': 'i', 'origWidth': 410, 'origHeight': 410, 'width': 410, 'height': 410, 'widthPercent': 0.45, 'rescaleHeight': False, 'trialN': 33, 'loaded': True, 'loadedTime': 2325.5, 'positionName': 'RIGHT', 'positionCoords': [998.4, 335], 'bid': 4.68}]",68088.30000001192,1669829486698,blackbeanswithrice,fruitsalad,1.6,4.68,3.0799999999999996,fruitsalad,857,857,857.1999999880791,True,i,69448.20000004768,1359.9000000357628,1669829488058,1360,HRV,HRV_0062,2022-11-30 17:36:26
34,"[{'imgObject': {}, 'id': 'luckycharms', 'src': '/static/foodstim60/luckycharms.jpg', 'key': 'u', 'origWidth': 410, 'origHeight': 409, 'width': 410, 'height': 409, 'widthPercent': 0.45, 'rescaleHeight': False, 'trialN': 34, 'loaded': True, 'loadedTime': 2339.800000011921, 'positionName': 'LEFT', 'positionCoords': [511.6, 335.5], 'bid': 5.01}, {'imgObject': {}, 'id': 'hashbrowns', 'src': '/static/foodstim60/hashbrowns.jpg', 'key': 'i', 'origWidth': 411, 'origHeight': 410, 'width': 411, 'height': 410, 'widthPercent': 0.45, 'rescaleHeight': False, 'trialN': 34, 'loaded': True, 'loadedTime': 2069.2000000476837, 'positionName': 'RIGHT', 'positionCoords': [998.4, 335], 'bid': 5}]",69448.30000001192,1669829488058,luckycharms,hashbrowns,5.01,5.0,-0.009999999999999787,hashbrowns,2737.300000011921,2738,2737.5,True,i,72688.30000001192,3240.0,1669829491298,3240,HRV,HRV_0062,2022-11-30 17:36:26
35,"[{'imgObject': {}, 'id': 'turkey sandwich', 'src': '/static/foodstim60/turkey sandwich.jpg', 'key': 'u', 'origWidth': 409, 'origHeight': 409, 'width': 409, 'height': 409, 'widthPercent': 0.45, 'rescaleHeight': False, 'trialN': 35, 'loaded': True, 'loadedTime': 2340.600000023842, 'positionName': 'LEFT', 'positionCoords': [512.6, 335.5], 'bid': 8.91}, {'imgObject': {}, 'id': 'tacos', 'src': '/static/foodstim60/tacos.jpg', 'key': 'i', 'origWidth': 411, 'origHeight': 411, 'width': 411, 'height': 411, 'widthPercent': 0.45, 'rescaleHeight': False, 'trialN': 35, 'loaded': True, 'loadedTime': 2275.600000023842, 'positionName': 'RIGHT', 'positionCoords': [998.4, 334.5], 'bid': 9.8}]",72688.30000001192,1669829491298,turkey sandwich,tacos,8.91,9.8,0.8900000000000006,tacos,1337,1338,1337.5,True,i,74528.60000002384,1840.300000011921,1669829493138,1840,HRV,HRV_0062,2022-11-30 17:36:26
36,"[{'imgObject': {}, 'id': 'cocktailshrimp', 'src': '/static/foodstim60/cocktailshrimp.jpg', 'key': 'u', 'origWidth': 410, 'origHeight': 410, 'width': 410, 'height': 410, 'widthPercent': 0.45, 'rescaleHeight': False, 'trialN': 36, 'loaded': True, 'loadedTime': 2277.2000000476837, 'positionName': 'LEFT', 'positionCoords': [511.6, 335], 'bid': 2.46}, {'imgObject': {}, 'id': 'edamame', 'src': '/static/foodstim60/edamame.jpg', 'key': 'i', 'origWidth': 409, 'origHeight': 410, 'width': 409, 'height': 410, 'widthPercent': 0.45, 'rescaleHeight': False, 'trialN': 36, 'loaded': True, 'loadedTime': 2341.7000000476837, 'positionName': 'RIGHT', 'positionCoords': [998.4, 335], 'bid': 0.93}]",74528.80000001192,1669829493139,cocktailshrimp,edamame,2.46,0.93,-1.5299999999999998,edamame,2364.400000035763,2364,2364.600000023842,True,i,77400.70000004768,2871.900000035763,1669829496010,2871,HRV,HRV_0062,2022-11-30 17:36:26
37,"[{'imgObject': {}, 'id': 'edamame', 'src': '/static/foodstim60/edamame.jpg', 'key': 'u', 'origWidth': 409, 'origHeight': 410, 'width': 409, 'height': 410, 'widthPercent': 0.45, 'rescaleHeight': False, 'trialN': 37, 'loaded': True, 'loadedTime': 2341.7000000476837, 'positionName': 'LEFT', 'positionCoords': [512.6, 335], 'bid': 0.93}, {'imgObject': {}, 'id': 'rigatoni', 'src': '/static/foodstim60/rigatoni.jpg', 'key': 'i', 'origWidth': 411, 'origHeight': 411, 'width': 411, 'height': 411, 'widthPercent': 0.45, 'rescaleHeight': False, 'trialN': 37, 'loaded': True, 'loadedTime': 2079.2000000476837, 'positionName': 'RIGHT', 'positionCoords': [998.4, 334.5], 'bid': 4.33}]",77400.80000001192,1669829496011,edamame,rigatoni,0.93,4.33,3.4,rigatoni,1719.5,1719,1719.6000000238419,True,i,79624.70000004768,2223.900000035763,1669829498234,2223,HRV,HRV_0062,2022-11-30 17:36:26
38,"[{'imgObject': {}, 'id': 'raspberries', 'src': '/static/foodstim60/raspberries.jpg', 'key': 'u', 'origWidth': 411, 'origHeight': 411, 'width': 411, 'height': 411, 'widthPercent': 0.45, 'rescaleHeight': False, 'trialN': 38, 'loaded': True, 'loadedTime': 2279.900000035763, 'positionName': 'LEFT', 'positionCoords': [510.6, 334.5], 'bid': 7.03}, {'imgObject': {}, 'id': 'chickenfingers', 'src': '/static/foodstim60/chickenfingers.jpg', 'key': 'i', 'origWidth': 410, 'origHeight': 410, 'width': 410, 'height': 410, 'widthPercent': 0.45, 'rescaleHeight': False, 'trialN': 38, 'loaded': True, 'loadedTime': 2312.900000035763, 'positionName': 'RIGHT', 'positionCoords': [998.4, 335], 'bid': 8.370000000000001}]",79624.80000001192,1669829498235,raspberries,chickenfingers,7.03,8.370000000000001,1.3400000000000007,chickenfingers,907.4000000357628,907,907.5,True,i,81032.70000004768,1407.9000000357628,1669829499642,1407,HRV,HRV_0062,2022-11-30 17:36:26
39,"[{'imgObject': {}, 'id': 'lox', 'src': '/static/foodstim60/lox.jpg', 'key': 'u', 'origWidth': 410, 'origHeight': 411, 'width': 410, 'height': 411, 'widthPercent': 0.45, 'rescaleHeight': False, 'trialN': 39, 'loaded': True, 'loadedTime': 2349.600000023842, 'positionName': 'LEFT', 'positionCoords': [511.6, 334.5], 'bid': 0.06}, {'imgObject': {}, 'id': 'cantaloupe', 'src': '/static/foodstim60/cantaloupe.jpg', 'key': 'i', 'origWidth': 409, 'origHeight': 409, 'width': 409, 'height': 409, 'widthPercent': 0.45, 'rescaleHeight': False, 'trialN': 39, 'loaded': True, 'loadedTime': 2236.5, 'positionName': 'RIGHT', 'positionCoords': [998.4, 335.5], 'bid': 1.77}]",81032.80000001192,1669829499643,lox,cantaloupe,0.06,1.77,1.71,cantaloupe,1264.6000000238419,1264,1264.699999988079,True,i,82800.30000001192,1767.5,1669829501410,1767,HRV,HRV_0062,2022-11-30 17:36:26
40,"[{'imgObject': {}, 'id': 'turkey sandwich', 'src': '/static/foodstim60/turkey sandwich.jpg', 'key': 'u', 'origWidth': 409, 'origHeight': 409, 'width': 409, 'height': 409, 'widthPercent': 0.45, 'rescaleHeight': False, 'trialN': 40, 'loaded': True, 'loadedTime': 2340, 'positionName': 'LEFT', 'positionCoords': [512.6, 335.5], 'bid': 8.91}, {'imgObject': {}, 'id': 'blueberries', 'src': '/static/foodstim60/blueberries.jpg', 'key': 'i', 'origWidth': 411, 'origHeight': 411, 'width': 411, 'height': 411, 'widthPercent': 0.45, 'rescaleHeight': False, 'trialN': 40, 'loaded': True, 'loadedTime': 2305.100000023842, 'positionName': 'RIGHT', 'positionCoords': [998.4, 334.5], 'bid': 7.51}]",82800.40000003576,1669829501410,turkey sandwich,blueberries,8.91,7.51,-1.4000000000000004,turkey sandwich,803.6999999880791,804,803.8000000119209,True,u,84112.90000003576,1312.5,1669829502723,1313,HRV,HRV_0062,2022-11-30 17:36:26
41,"[{'imgObject': {}, 'id': 'fruitsalad', 'src': '/static/foodstim60/fruitsalad.jpg', 'key': 'u', 'origWidth': 410, 'origHeight': 410, 'width': 410, 'height': 410, 'widthPercent': 0.45, 'rescaleHeight': False, 'trialN': 41, 'loaded': True, 'loadedTime': 2325.600000023842, 'positionName': 'LEFT', 'positionCoords': [511.6, 335], 'bid': 4.68}, {'imgObject': {}, 'id': 'pear', 'src': '/static/foodstim60/pear.jpg', 'key': 'i', 'origWidth': 411, 'origHeight': 410, 'width': 411, 'height': 410, 'widthPercent': 0.45, 'rescaleHeight': False, 'trialN': 41, 'loaded': True, 'loadedTime': 2193.800000011921, 'positionName': 'RIGHT', 'positionCoords': [998.4, 335], 'bid': 3.62}]",84113.0,1669829502723,fruitsalad,pear,4.68,3.62,-1.0599999999999996,pear,2653.100000023842,2653,2653.400000035763,True,i,87272.90000003576,3159.900000035763,1669829505883,3160,HRV,HRV_0062,2022-11-30 17:36:26
42,"[{'imgObject': {}, 'id': 'banana', 'src': '/static/foodstim60/banana.jpg', 'key': 'u', 'origWidth': 410, 'origHeight': 410, 'width': 410, 'height': 410, 'widthPercent': 0.45, 'rescaleHeight': False, 'trialN': 42, 'loaded': True, 'loadedTime': 2219.2000000476837, 'positionName': 'LEFT', 'positionCoords': [511.6, 335], 'bid': 2.44}, {'imgObject': {}, 'id': 'cantaloupe', 'src': '/static/foodstim60/cantaloupe.jpg', 'key': 'i', 'origWidth': 409, 'origHeight': 409, 'width': 409, 'height': 409, 'widthPercent': 0.45, 'rescaleHeight': False, 'trialN': 42, 'loaded': True, 'loadedTime': 2227.800000011921, 'positionName': 'RIGHT', 'positionCoords': [998.4, 335.5], 'bid': 1.77}]",87272.90000003576,1669829505883,banana,cantaloupe,2.44,1.77,-0.6699999999999999,banana,1322.199999988079,1322,1322.3999999761581,True,u,89096.20000004768,1823.300000011921,1669829507706,1823,HRV,HRV_0062,2022-11-30 17:36:26
43,"[{'imgObject': {}, 'id': 'eggsalad', 'src': '/static/foodstim60/eggsalad.jpg', 'key': 'u', 'origWidth': 410, 'origHeight': 409, 'width': 410, 'height': 409, 'widthPercent': 0.45, 'rescaleHeight': False, 'trialN': 43, 'loaded': True, 'loadedTime': 2074.100000023842, 'positionName': 'LEFT', 'positionCoords': [511.6, 335.5], 'bid': 2.86}, {'imgObject': {}, 'id': 'raisin bran w milk', 'src': '/static/foodstim60/raisin bran w milk.jpg', 'key': 'i', 'origWidth': 411, 'origHeight': 411, 'width': 411, 'height': 411, 'widthPercent': 0.45, 'rescaleHeight': False, 'trialN': 43, 'loaded': True, 'loadedTime': 2357.800000011921, 'positionName': 'RIGHT', 'positionCoords': [998.4, 334.5], 'bid': 2.59}]",89096.30000001192,1669829507706,eggsalad,raisin bran w milk,2.86,2.59,-0.27,raisin bran w milk,2467,2467,2467.300000011921,True,i,92072.40000003576,2976.100000023842,1669829510682,2976,HRV,HRV_0062,2022-11-30 17:36:26
44,"[{'imgObject': {}, 'id': 'cherries', 'src': '/static/foodstim60/cherries.jpg', 'key': 'u', 'origWidth': 410, 'origHeight': 411, 'width': 410, 'height': 411, 'widthPercent': 0.45, 'rescaleHeight': False, 'trialN': 44, 'loaded': True, 'loadedTime': 2211.400000035763, 'positionName': 'LEFT', 'positionCoords': [511.6, 334.5], 'bid': 7.32}, {'imgObject': {}, 'id': 'banana', 'src': '/static/foodstim60/banana.jpg', 'key': 'i', 'origWidth': 410, 'origHeight': 410, 'width': 410, 'height': 410, 'widthPercent': 0.45, 'rescaleHeight': False, 'trialN': 44, 'loaded': True, 'loadedTime': 2219.300000011921, 'positionName': 'RIGHT', 'positionCoords': [998.4, 335], 'bid': 2.44}]",92072.5,1669829510682,cherries,banana,7.32,2.44,-4.880000000000001,cherries,1498.9000000357628,1499,1499.0,True,u,94072.10000002384,1999.6000000238419,1669829512682,2000,HRV,HRV_0062,2022-11-30 17:36:26
45,"[{'imgObject': {}, 'id': 'yogurt no spoon', 'src': '/static/foodstim60/yogurt no spoon.jpg', 'key': 'u', 'origWidth': 411, 'origHeight': 410, 'width': 411, 'height': 410, 'widthPercent': 0.45, 'rescaleHeight': False, 'trialN': 45, 'loaded': True, 'loadedTime': 2081, 'positionName': 'LEFT', 'positionCoords': [510.6, 335], 'bid': 4.96}, {'imgObject': {}, 'id': 'cocktailshrimp', 'src': '/static/foodstim60/cocktailshrimp.jpg', 'key': 'i', 'origWidth': 410, 'origHeight': 410, 'width': 410, 'height': 410, 'widthPercent': 0.45, 'rescaleHeight': False, 'trialN': 45, 'loaded': True, 'loadedTime': 2276.400000035763, 'positionName': 'RIGHT', 'positionCoords': [998.4, 335], 'bid': 2.46}]",94072.20000004768,1669829512682,yogurt no spoon,cocktailshrimp,4.96,2.46,-2.5,yogurt no spoon,1352.8999999761581,1353,1353.0999999642372,True,u,95927.20000004768,1855.0,1669829514537,1855,HRV,HRV_0062,2022-11-30 17:36:26
46,"[{'imgObject': {}, 'id': 'eggs', 'src': '/static/foodstim60/eggs.jpg', 'key': 'u', 'origWidth': 409, 'origHeight': 409, 'width': 409, 'height': 409, 'widthPercent': 0.45, 'rescaleHeight': False, 'trialN': 46, 'loaded': True, 'loadedTime': 2088, 'positionName': 'LEFT', 'positionCoords': [512.6, 335.5], 'bid': 3.34}, {'imgObject': {}, 'id': 'granola w milk', 'src': '/static/foodstim60/granola w milk.jpg', 'key': 'i', 'origWidth': 410, 'origHeight': 410, 'width': 410, 'height': 410, 'widthPercent': 0.45, 'rescaleHeight': False, 'trialN': 46, 'loaded': True, 'loadedTime': 2304.600000023842, 'positionName': 'RIGHT', 'positionCoords': [998.4, 335], 'bid': 4.5200000000000005}]",95927.30000001192,1669829514537,eggs,granola w milk,3.34,4.5200000000000005,1.1800000000000006,granola w milk,1530.800000011921,1531,1531.1000000238419,True,i,97960.20000004768,2032.9000000357628,1669829516570,2033,HRV,HRV_0062,2022-11-30 17:36:26
47,"[{'imgObject': {}, 'id': 'apple slices', 'src': '/static/foodstim60/apple slices.jpg', 'key': 'u', 'origWidth': 409, 'origHeight': 410, 'width': 409, 'height': 410, 'widthPercent': 0.45, 'rescaleHeight': False, 'trialN': 47, 'loaded': True, 'loadedTime': 2257.800000011921, 'positionName': 'LEFT', 'positionCoords': [512.6, 335], 'bid': 3.78}, {'imgObject': {}, 'id': 'sushi w_condiments', 'src': '/static/foodstim60/sushi w_condiments.jpg', 'key': 'i', 'origWidth': 410, 'origHeight': 410, 'width': 410, 'height': 410, 'widthPercent': 0.45, 'rescaleHeight': False, 'trialN': 47, 'loaded': True, 'loadedTime': 2359.100000023842, 'positionName': 'RIGHT', 'positionCoords': [998.4, 335], 'bid': 0.09}]",97960.30000001192,1669829516570,apple slices,sushi w_condiments,3.78,0.09,-3.69,apple slices,1236.699999988079,1237,1237.0,True,u,99703.20000004768,1742.9000000357628,1669829518313,1743,HRV,HRV_0062,2022-11-30 17:36:26
48,"[{'imgObject': {}, 'id': 'roastedpotatoes', 'src': '/static/foodstim60/roastedpotatoes.jpg', 'key': 'u', 'origWidth': 409, 'origHeight': 410, 'width': 409, 'height': 410, 'widthPercent': 0.45, 'rescaleHeight': False, 'trialN': 48, 'loaded': True, 'loadedTime': 2326.300000011921, 'positionName': 'LEFT', 'positionCoords': [512.6, 335], 'bid': 8.67}, {'imgObject': {}, 'id': 'apple slices', 'src': '/static/foodstim60/apple slices.jpg', 'key': 'i', 'origWidth': 409, 'origHeight': 410, 'width': 409, 'height': 410, 'widthPercent': 0.45, 'rescaleHeight': False, 'trialN': 48, 'loaded': True, 'loadedTime': 2250.300000011921, 'positionName': 'RIGHT', 'positionCoords': [998.4, 335], 'bid': 3.78}]",99703.30000001192,1669829518313,roastedpotatoes,apple slices,8.67,3.78,-4.890000000000001,roastedpotatoes,1422.699999988079,1423,1422.9000000357628,True,u,101632.20000004768,1928.9000000357628,1669829520242,1929,HRV,HRV_0062,2022-11-30 17:36:26
49,"[{'imgObject': {}, 'id': 'cheerios', 'src': '/static/foodstim60/cheerios.jpg', 'key': 'u', 'origWidth': 409, 'origHeight': 410, 'width': 409, 'height': 410, 'widthPercent': 0.45, 'rescaleHeight': False, 'trialN': 49, 'loaded': True, 'loadedTime': 2128.2000000476837, 'positionName': 'LEFT', 'positionCoords': [512.6, 335], 'bid': 5.0600000000000005}, {'imgObject': {}, 'id': 'granola w milk', 'src': '/static/foodstim60/granola w milk.jpg', 'key': 'i', 'origWidth': 410, 'origHeight': 410, 'width': 410, 'height': 410, 'widthPercent': 0.45, 'rescaleHeight': False, 'trialN': 49, 'loaded': True, 'loadedTime': 2304.7000000476837, 'positionName': 'RIGHT', 'positionCoords': [998.4, 335], 'bid': 4.5200000000000005}]",101632.30000001192,1669829520242,cheerios,granola w milk,5.0600000000000005,4.5200000000000005,-0.54,granola w milk,2287.900000035763,2288,2288.0,True,i,104423.20000004768,2790.900000035763,1669829523033,2791,HRV,HRV_0062,2022-11-30 17:36:26
50,"[{'imgObject': {}, 'id': 'turkeysandwich', 'src': '/static/foodstim60/turkeysandwich.jpg', 'key': 'u', 'origWidth': 409, 'origHeight': 409, 'width': 409, 'height': 409, 'widthPercent': 0.45, 'rescaleHeight': False, 'trialN': 50, 'loaded': True, 'loadedTime': 2359.900000035763, 'positionName': 'LEFT', 'positionCoords': [512.6, 335.5], 'bid': 8.71}, {'imgObject': {}, 'id': 'roastedpotatoes', 'src': '/static/foodstim60/roastedpotatoes.jpg', 'key': 'i', 'origWidth': 409, 'origHeight': 410, 'width': 409, 'height': 410, 'widthPercent': 0.45, 'rescaleHeight': False, 'trialN': 50, 'loaded': True, 'loadedTime': 2325.7000000476837, 'positionName': 'RIGHT', 'positionCoords': [998.4, 335], 'bid': 8.67}]",104423.30000001192,1669829523033,turkeysandwich,roastedpotatoes,8.71,8.67,-0.040000000000000924,turkeysandwich,1395.699999988079,1396,1395.9000000357628,True,u,106328.20000004768,1904.9000000357628,1669829524938,1905,HRV,HRV_0062,2022-11-30 17:36:26
51,"[{'imgObject': {}, 'id': 'olives', 'src': '/static/foodstim60/olives.jpg', 'key': 'u', 'origWidth': 410, 'origHeight': 410, 'width': 410, 'height': 410, 'widthPercent': 0.45, 'rescaleHeight': False, 'trialN': 51, 'loaded': True, 'loadedTime': 2179.800000011921, 'positionName': 'LEFT', 'positionCoords': [511.6, 335], 'bid': 0}, {'imgObject': {}, 'id': 'sushi w_condiments', 'src': '/static/foodstim60/sushi w_condiments.jpg', 'key': 'i', 'origWidth': 410, 'origHeight': 410, 'width': 410, 'height': 410, 'widthPercent': 0.45, 'rescaleHeight': False, 'trialN': 51, 'loaded': True, 'loadedTime': 2359.300000011921, 'positionName': 'RIGHT', 'positionCoords': [998.4, 335], 'bid': 0.09}]",106328.30000001192,1669829524938,olives,sushi w_condiments,0.0,0.09,0.09,sushi w_condiments,2045.699999988079,2046,2045.9000000357628,True,i,108880.30000001192,2552.0,1669829527490,2552,HRV,HRV_0062,2022-11-30 17:36:26
52,"[{'imgObject': {}, 'id': 'bagel plain', 'src': '/static/foodstim60/bagel plain.jpg', 'key': 'u', 'origWidth': 410, 'origHeight': 410, 'width': 410, 'height': 410, 'widthPercent': 0.45, 'rescaleHeight': False, 'trialN': 52, 'loaded': True, 'loadedTime': 2169.800000011921, 'positionName': 'LEFT', 'positionCoords': [511.6, 335], 'bid': 8.93}, {'imgObject': {}, 'id': 'burger', 'src': '/static/foodstim60/burger.jpg', 'key': 'i', 'origWidth': 409, 'origHeight': 409, 'width': 409, 'height': 409, 'widthPercent': 0.45, 'rescaleHeight': False, 'trialN': 52, 'loaded': True, 'loadedTime': 2214, 'positionName': 'RIGHT', 'positionCoords': [998.4, 335.5], 'bid': 9.11}]",108880.30000001192,1669829527490,bagel plain,burger,8.93,9.11,0.17999999999999972,burger,1396.6000000238419,1397,1396.800000011921,True,i,110783.90000003576,1903.6000000238419,1669829529394,1904,HRV,HRV_0062,2022-11-30 17:36:26
53,"[{'imgObject': {}, 'id': 'eggsalad', 'src': '/static/foodstim60/eggsalad.jpg', 'key': 'u', 'origWidth': 410, 'origHeight': 409, 'width': 410, 'height': 409, 'widthPercent': 0.45, 'rescaleHeight': False, 'trialN': 53, 'loaded': True, 'loadedTime': 2073.400000035763, 'positionName': 'LEFT', 'positionCoords': [511.6, 335.5], 'bid': 2.86}, {'imgObject': {}, 'id': 'kiwi', 'src': '/static/foodstim60/kiwi.jpg', 'key': 'i', 'origWidth': 410, 'origHeight': 410, 'width': 410, 'height': 410, 'widthPercent': 0.45, 'rescaleHeight': False, 'trialN': 53, 'loaded': True, 'loadedTime': 2360.5, 'positionName': 'RIGHT', 'positionCoords': [998.4, 335], 'bid': 4.1}]",110784.0,1669829529394,eggsalad,kiwi,2.86,4.1,1.2399999999999998,eggsalad,1585.9000000357628,1586,1586.1000000238419,True,u,112871.90000003576,2087.900000035763,1669829531482,2088,HRV,HRV_0062,2022-11-30 17:36:26
54,"[{'imgObject': {}, 'id': 'raspberries', 'src': '/static/foodstim60/raspberries.jpg', 'key': 'u', 'origWidth': 411, 'origHeight': 411, 'width': 411, 'height': 411, 'widthPercent': 0.45, 'rescaleHeight': False, 'trialN': 54, 'loaded': True, 'loadedTime': 2279.400000035763, 'positionName': 'LEFT', 'positionCoords': [510.6, 334.5], 'bid': 7.03}, {'imgObject': {}, 'id': 'omelette', 'src': '/static/foodstim60/omelette.jpg', 'key': 'i', 'origWidth': 410, 'origHeight': 409, 'width': 410, 'height': 409, 'widthPercent': 0.45, 'rescaleHeight': False, 'trialN': 54, 'loaded': True, 'loadedTime': 2361.100000023842, 'positionName': 'RIGHT', 'positionCoords': [998.4, 335.5], 'bid': 6.57}]",112872.0,1669829531482,raspberries,omelette,7.03,6.57,-0.45999999999999996,omelette,1014,1014,1014.2000000476837,True,i,114392.20000004768,1520.2000000476837,1669829533002,1520,HRV,HRV_0062,2022-11-30 17:36:26
55,"[{'imgObject': {}, 'id': 'bagel and cc', 'src': '/static/foodstim60/bagel and cc.jpg', 'key': 'u', 'origWidth': 410, 'origHeight': 410, 'width': 410, 'height': 410, 'widthPercent': 0.45, 'rescaleHeight': False, 'trialN': 55, 'loaded': True, 'loadedTime': 2265.900000035763, 'positionName': 'LEFT', 'positionCoords': [511.6, 335], 'bid': 9.22}, {'imgObject': {}, 'id': 'mac & cheese', 'src': '/static/foodstim60/mac & cheese.jpg', 'key': 'i', 'origWidth': 410, 'origHeight': 410, 'width': 410, 'height': 410, 'widthPercent': 0.45, 'rescaleHeight': False, 'trialN': 55, 'loaded': True, 'loadedTime': 2138.900000035763, 'positionName': 'RIGHT', 'positionCoords': [998.4, 335], 'bid': 8.82}]",114392.30000001192,1669829533002,bagel and cc,mac & cheese,9.22,8.82,-0.40000000000000036,mac & cheese,1929.800000011921,1930,1930.0,True,i,116824.30000001192,2432.0,1669829535434,2432,HRV,HRV_0062,2022-11-30 17:36:26
56,"[{'imgObject': {}, 'id': 'orange slices', 'src': '/static/foodstim60/orange slices.jpg', 'key': 'u', 'origWidth': 409, 'origHeight': 410, 'width': 409, 'height': 410, 'widthPercent': 0.45, 'rescaleHeight': False, 'trialN': 56, 'loaded': True, 'loadedTime': 2361.800000011921, 'positionName': 'LEFT', 'positionCoords': [512.6, 335], 'bid': 3.72}, {'imgObject': {}, 'id': 'blackbeanswithrice', 'src': '/static/foodstim60/blackbeanswithrice.jpg', 'key': 'i', 'origWidth': 410, 'origHeight': 410, 'width': 410, 'height': 410, 'widthPercent': 0.45, 'rescaleHeight': False, 'trialN': 56, 'loaded': True, 'loadedTime': 2331.300000011921, 'positionName': 'RIGHT', 'positionCoords': [998.4, 335], 'bid': 1.6}]",116824.30000001192,1669829535434,orange slices,blackbeanswithrice,3.72,1.6,-2.12,orange slices,1396.6000000238419,1397,1396.9000000357628,True,u,118728.60000002384,1904.300000011921,1669829537338,1904,HRV,HRV_0062,2022-11-30 17:36:26
57,"[{'imgObject': {}, 'id': 'apple slices', 'src': '/static/foodstim60/apple slices.jpg', 'key': 'u', 'origWidth': 409, 'origHeight': 410, 'width': 409, 'height': 410, 'widthPercent': 0.45, 'rescaleHeight': False, 'trialN': 57, 'loaded': True, 'loadedTime': 2257.600000023842, 'positionName': 'LEFT', 'positionCoords': [512.6, 335], 'bid': 3.78}, {'imgObject': {}, 'id': 'kiwi', 'src': '/static/foodstim60/kiwi.jpg', 'key': 'i', 'origWidth': 410, 'origHeight': 410, 'width': 410, 'height': 410, 'widthPercent': 0.45, 'rescaleHeight': False, 'trialN': 57, 'loaded': True, 'loadedTime': 2360.600000023842, 'positionName': 'RIGHT', 'positionCoords': [998.4, 335], 'bid': 4.1}]",118728.70000004768,1669829537338,apple slices,kiwi,3.78,4.1,0.31999999999999984,kiwi,2773.099999964237,2774,2773.199999988079,True,i,122008.70000004768,3280.0,1669829540618,3280,HRV,HRV_0062,2022-11-30 17:36:26
58,"[{'imgObject': {}, 'id': 'seaweed', 'src': '/static/foodstim60/seaweed.jpg', 'key': 'u', 'origWidth': 410, 'origHeight': 410, 'width': 410, 'height': 410, 'widthPercent': 0.45, 'rescaleHeight': False, 'trialN': 58, 'loaded': True, 'loadedTime': 2227.300000011921, 'positionName': 'LEFT', 'positionCoords': [511.6, 335], 'bid': 0}, {'imgObject': {}, 'id': 'olives', 'src': '/static/foodstim60/olives.jpg', 'key': 'i', 'origWidth': 410, 'origHeight': 410, 'width': 410, 'height': 410, 'widthPercent': 0.45, 'rescaleHeight': False, 'trialN': 58, 'loaded': True, 'loadedTime': 2179.2000000476837, 'positionName': 'RIGHT', 'positionCoords': [998.4, 335], 'bid': 0}]",122008.80000001192,1669829540618,seaweed,olives,0.0,0.0,0.0,olives,2803,2804,2803.199999988079,True,i,125320.70000004768,3311.900000035763,1669829543930,3312,HRV,HRV_0062,2022-11-30 17:36:26
59,"[{'imgObject': {}, 'id': 'strawberries', 'src': '/static/foodstim60/strawberries.jpg', 'key': 'u', 'origWidth': 410, 'origHeight': 410, 'width': 410, 'height': 410, 'widthPercent': 0.45, 'rescaleHeight': False, 'trialN': 59, 'loaded': True, 'loadedTime': 2077.900000035763, 'positionName': 'LEFT', 'positionCoords': [511.6, 335], 'bid': 6.03}, {'imgObject': {}, 'id': 'burrito', 'src': '/static/foodstim60/burrito.jpg', 'key': 'i', 'origWidth': 410, 'origHeight': 410, 'width': 410, 'height': 410, 'widthPercent': 0.45, 'rescaleHeight': False, 'trialN': 59, 'loaded': True, 'loadedTime': 2110.100000023842, 'positionName': 'RIGHT', 'positionCoords': [998.4, 335], 'bid': 4.84}]",125320.80000001192,1669829543930,strawberries,burrito,6.03,4.84,-1.1900000000000004,strawberries,1767.199999988079,1768,1767.5,True,u,127591.30000001192,2270.5,1669829546201,2271,HRV,HRV_0062,2022-11-30 17:36:26
60,"[{'imgObject': {}, 'id': 'bagel plain', 'src': '/static/foodstim60/bagel plain.jpg', 'key': 'u', 'origWidth': 410, 'origHeight': 410, 'width': 410, 'height': 410, 'widthPercent': 0.45, 'rescaleHeight': False, 'trialN': 60, 'loaded': True, 'loadedTime': 2178.400000035763, 'positionName': 'LEFT', 'positionCoords': [511.6, 335], 'bid': 8.93}, {'imgObject': {}, 'id': 'ice cream sundae 002', 'src': '/static/foodstim60/ice cream sundae 002.jpg', 'key': 'i', 'origWidth': 409, 'origHeight': 409, 'width': 409, 'height': 409, 'widthPercent': 0.45, 'rescaleHeight': False, 'trialN': 60, 'loaded': True, 'loadedTime': 2368.800000011921, 'positionName': 'RIGHT', 'positionCoords': [998.4, 335.5], 'bid': 6.67}]",127591.40000003576,1669829546201,bagel plain,ice cream sundae 002,8.93,6.67,-2.26,ice cream sundae 002,1440.3999999761581,1441,1440.699999988079,True,i,129536.60000002384,1945.199999988079,1669829548146,1945,HRV,HRV_0062,2022-11-30 17:36:26
61,"[{'imgObject': {}, 'id': 'avocado', 'src': '/static/foodstim60/avocado.jpg', 'key': 'u', 'origWidth': 409, 'origHeight': 409, 'width': 409, 'height': 409, 'widthPercent': 0.45, 'rescaleHeight': False, 'trialN': 61, 'loaded': True, 'loadedTime': 2289.300000011921, 'positionName': 'LEFT', 'positionCoords': [512.6, 335.5], 'bid': 1.92}, {'imgObject': {}, 'id': 'cantaloupe', 'src': '/static/foodstim60/cantaloupe.jpg', 'key': 'i', 'origWidth': 409, 'origHeight': 409, 'width': 409, 'height': 409, 'widthPercent': 0.45, 'rescaleHeight': False, 'trialN': 61, 'loaded': True, 'loadedTime': 2234.600000023842, 'positionName': 'RIGHT', 'positionCoords': [998.4, 335.5], 'bid': 1.77}]",129536.70000004768,1669829548146,avocado,cantaloupe,1.92,1.77,-0.1499999999999999,cantaloupe,2348,2349,2348.199999988079,True,i,132392.0,2855.2999999523163,1669829551002,2856,HRV,HRV_0062,2022-11-30 17:36:26
62,"[{'imgObject': {}, 'id': 'strawberries', 'src': '/static/foodstim60/strawberries.jpg', 'key': 'u', 'origWidth': 410, 'origHeight': 410, 'width': 410, 'height': 410, 'widthPercent': 0.45, 'rescaleHeight': False, 'trialN': 62, 'loaded': True, 'loadedTime': 2078.5, 'positionName': 'LEFT', 'positionCoords': [511.6, 335], 'bid': 6.03}, {'imgObject': {}, 'id': 'rigatoni and sauce', 'src': '/static/foodstim60/rigatoni and sauce.jpg', 'key': 'i', 'origWidth': 410, 'origHeight': 411, 'width': 410, 'height': 411, 'widthPercent': 0.45, 'rescaleHeight': False, 'trialN': 62, 'loaded': True, 'loadedTime': 2290, 'positionName': 'RIGHT', 'positionCoords': [998.4, 334.5], 'bid': 5.78}]",132392.10000002384,1669829551002,strawberries,rigatoni and sauce,6.03,5.78,-0.25,strawberries,3041.699999988079,3042,3041.800000011921,True,u,135935.20000004768,3543.100000023842,1669829554545,3543,HRV,HRV_0062,2022-11-30 17:36:26
63,"[{'imgObject': {}, 'id': 'bagel and cc', 'src': '/static/foodstim60/bagel and cc.jpg', 'key': 'u', 'origWidth': 410, 'origHeight': 410, 'width': 410, 'height': 410, 'widthPercent': 0.45, 'rescaleHeight': False, 'trialN': 63, 'loaded': True, 'loadedTime': 2266, 'positionName': 'LEFT', 'positionCoords': [511.6, 335], 'bid': 9.22}, {'imgObject': {}, 'id': 'grilled chicken strips', 'src': '/static/foodstim60/grilled chicken strips.jpg', 'key': 'i', 'origWidth': 410, 'origHeight': 411, 'width': 410, 'height': 411, 'widthPercent': 0.45, 'rescaleHeight': False, 'trialN': 63, 'loaded': True, 'loadedTime': 2327.5, 'positionName': 'RIGHT', 'positionCoords': [998.4, 334.5], 'bid': 9.69}]",135935.30000001192,1669829554545,bagel and cc,grilled chicken strips,9.22,9.69,0.46999999999999886,grilled chicken strips,1959.6000000238419,1960,1959.699999988079,True,i,138400.60000002384,2465.300000011921,1669829557010,2465,HRV,HRV_0062,2022-11-30 17:36:26
64,"[{'imgObject': {}, 'id': 'Grapes', 'src': '/static/foodstim60/Grapes.jpg', 'key': 'u', 'origWidth': 411, 'origHeight': 411, 'width': 411, 'height': 411, 'widthPercent': 0.45, 'rescaleHeight': False, 'trialN': 64, 'loaded': True, 'loadedTime': 2146.600000023842, 'positionName': 'LEFT', 'positionCoords': [510.6, 334.5], 'bid': 8.870000000000001}, {'imgObject': {}, 'id': 'mashed potato', 'src': '/static/foodstim60/mashed potato.jpg', 'key': 'i', 'origWidth': 409, 'origHeight': 409, 'width': 409, 'height': 409, 'widthPercent': 0.45, 'rescaleHeight': False, 'trialN': 64, 'loaded': True, 'loadedTime': 2081.600000023842, 'positionName': 'RIGHT', 'positionCoords': [998.4, 335.5], 'bid': 6.12}]",138400.80000001192,1669829557010,Grapes,mashed potato,8.870000000000001,6.12,-2.750000000000001,Grapes,1725,1726,1725.300000011921,True,u,140632.5,2231.699999988079,1669829559242,2232,HRV,HRV_0062,2022-11-30 17:36:26
65,"[{'imgObject': {}, 'id': 'eggsalad', 'src': '/static/foodstim60/eggsalad.jpg', 'key': 'u', 'origWidth': 410, 'origHeight': 409, 'width': 410, 'height': 409, 'widthPercent': 0.45, 'rescaleHeight': False, 'trialN': 65, 'loaded': True, 'loadedTime': 2074.5, 'positionName': 'LEFT', 'positionCoords': [511.6, 335.5], 'bid': 2.86}, {'imgObject': {}, 'id': 'sushi w_condiments', 'src': '/static/foodstim60/sushi w_condiments.jpg', 'key': 'i', 'origWidth': 410, 'origHeight': 410, 'width': 410, 'height': 410, 'widthPercent': 0.45, 'rescaleHeight': False, 'trialN': 65, 'loaded': True, 'loadedTime': 2358.600000023842, 'positionName': 'RIGHT', 'positionCoords': [998.4, 335], 'bid': 0.09}]",140632.5,1669829559242,eggsalad,sushi w_condiments,2.86,0.09,-2.77,eggsalad,1348.1000000238419,1348,1348.2000000476837,True,u,142481.20000004768,1848.7000000476837,1669829561091,1849,HRV,HRV_0062,2022-11-30 17:36:26
66,"[{'imgObject': {}, 'id': 'lox', 'src': '/static/foodstim60/lox.jpg', 'key': 'u', 'origWidth': 410, 'origHeight': 411, 'width': 410, 'height': 411, 'widthPercent': 0.45, 'rescaleHeight': False, 'trialN': 66, 'loaded': True, 'loadedTime': 2341.800000011921, 'positionName': 'LEFT', 'positionCoords': [511.6, 334.5], 'bid': 0.06}, {'imgObject': {}, 'id': 'orange slices', 'src': '/static/foodstim60/orange slices.jpg', 'key': 'i', 'origWidth': 409, 'origHeight': 410, 'width': 409, 'height': 410, 'widthPercent': 0.45, 'rescaleHeight': False, 'trialN': 66, 'loaded': True, 'loadedTime': 2361.900000035763, 'positionName': 'RIGHT', 'positionCoords': [998.4, 335], 'bid': 3.72}]",142481.20000004768,1669829561091,lox,orange slices,0.06,3.72,3.66,orange slices,1015.3999999761581,1015,1015.5999999642372,True,i,144000.10000002384,1518.8999999761581,1669829562610,1519,HRV,HRV_0062,2022-11-30 17:36:26
67,"[{'imgObject': {}, 'id': 'salmon', 'src': '/static/foodstim60/salmon.jpg', 'key': 'u', 'origWidth': 410, 'origHeight': 409, 'width': 410, 'height': 409, 'widthPercent': 0.45, 'rescaleHeight': False, 'trialN': 67, 'loaded': True, 'loadedTime': 2218.7000000476837, 'positionName': 'LEFT', 'positionCoords': [511.6, 335.5], 'bid': 0.1}, {'imgObject': {}, 'id': 'cherry tomato', 'src': '/static/foodstim60/cherry tomato.jpg', 'key': 'i', 'origWidth': 410, 'origHeight': 410, 'width': 410, 'height': 410, 'widthPercent': 0.45, 'rescaleHeight': False, 'trialN': 67, 'loaded': True, 'loadedTime': 2203.600000023842, 'positionName': 'RIGHT', 'positionCoords': [998.4, 335], 'bid': 1.25}]",144000.20000004768,1669829562610,salmon,cherry tomato,0.1,1.25,1.15,salmon,992.3999999761581,993,992.6999999880791,True,u,145496.20000004768,1496.0,1669829564106,1496,HRV,HRV_0062,2022-11-30 17:36:26
68,"[{'imgObject': {}, 'id': 'lox', 'src': '/static/foodstim60/lox.jpg', 'key': 'u', 'origWidth': 410, 'origHeight': 411, 'width': 410, 'height': 411, 'widthPercent': 0.45, 'rescaleHeight': False, 'trialN': 68, 'loaded': True, 'loadedTime': 2357.400000035763, 'positionName': 'LEFT', 'positionCoords': [511.6, 334.5], 'bid': 0.06}, {'imgObject': {}, 'id': 'seaweed', 'src': '/static/foodstim60/seaweed.jpg', 'key': 'i', 'origWidth': 410, 'origHeight': 410, 'width': 410, 'height': 410, 'widthPercent': 0.45, 'rescaleHeight': False, 'trialN': 68, 'loaded': True, 'loadedTime': 2227.2000000476837, 'positionName': 'RIGHT', 'positionCoords': [998.4, 335], 'bid': 0}]",145496.20000004768,1669829564106,lox,seaweed,0.06,0.0,-0.06,seaweed,3046.099999964237,3046,3046.2999999523163,True,i,149048.0,3551.7999999523163,1669829567658,3552,HRV,HRV_0062,2022-11-30 17:36:26
69,"[{'imgObject': {}, 'id': 'burger', 'src': '/static/foodstim60/burger.jpg', 'key': 'u', 'origWidth': 409, 'origHeight': 409, 'width': 409, 'height': 409, 'widthPercent': 0.45, 'rescaleHeight': False, 'trialN': 69, 'loaded': True, 'loadedTime': 2213.100000023842, 'positionName': 'LEFT', 'positionCoords': [512.6, 335.5], 'bid': 9.11}, {'imgObject': {}, 'id': 'burrito', 'src': '/static/foodstim60/burrito.jpg', 'key': 'i', 'origWidth': 410, 'origHeight': 410, 'width': 410, 'height': 410, 'widthPercent': 0.45, 'rescaleHeight': False, 'trialN': 69, 'loaded': True, 'loadedTime': 2110.100000023842, 'positionName': 'RIGHT', 'positionCoords': [998.4, 335], 'bid': 4.84}]",149048.0,1669829567658,burger,burrito,9.11,4.84,-4.27,burger,1009.6000000238419,1010,1009.9000000357628,True,u,150561.20000004768,1513.2000000476837,1669829569171,1513,HRV,HRV_0062,2022-11-30 17:36:26
70,"[{'imgObject': {}, 'id': 'turkeysandwich', 'src': '/static/foodstim60/turkeysandwich.jpg', 'key': 'u', 'origWidth': 409, 'origHeight': 409, 'width': 409, 'height': 409, 'widthPercent': 0.45, 'rescaleHeight': False, 'trialN': 70, 'loaded': True, 'loadedTime': 2359.800000011921, 'positionName': 'LEFT', 'positionCoords': [512.6, 335.5], 'bid': 8.71}, {'imgObject': {}, 'id': 'veggieswithdip', 'src': '/static/foodstim60/veggieswithdip.jpg', 'key': 'i', 'origWidth': 409, 'origHeight': 409, 'width': 409, 'height': 409, 'widthPercent': 0.45, 'rescaleHeight': False, 'trialN': 70, 'loaded': True, 'loadedTime': 2077.7000000476837, 'positionName': 'RIGHT', 'positionCoords': [998.4, 335.5], 'bid': 5.91}]",150561.30000001192,1669829569171,turkeysandwich,veggieswithdip,8.71,5.91,-2.8000000000000007,turkeysandwich,953.3000000119209,954,953.9000000357628,True,u,152015.5,1454.199999988079,1669829570625,1454,HRV,HRV_0062,2022-11-30 17:36:26
71,"[{'imgObject': {}, 'id': 'salad w chicken', 'src': '/static/foodstim60/salad w chicken.jpg', 'key': 'u', 'origWidth': 411, 'origHeight': 411, 'width': 411, 'height': 411, 'widthPercent': 0.45, 'rescaleHeight': False, 'trialN': 71, 'loaded': True, 'loadedTime': 2369, 'positionName': 'LEFT', 'positionCoords': [510.6, 334.5], 'bid': 7.48}, {'imgObject': {}, 'id': 'hotdog w must', 'src': '/static/foodstim60/hotdog w must.jpg', 'key': 'i', 'origWidth': 409, 'origHeight': 409, 'width': 409, 'height': 409, 'widthPercent': 0.45, 'rescaleHeight': False, 'trialN': 71, 'loaded': True, 'loadedTime': 2323.100000023842, 'positionName': 'RIGHT', 'positionCoords': [998.4, 335.5], 'bid': 7.52}]",152015.60000002384,1669829570625,salad w chicken,hotdog w must,7.48,7.52,0.03999999999999915,salad w chicken,1517,1517,1517.199999988079,True,u,154039.5,2023.8999999761581,1669829572649,2024,HRV,HRV_0062,2022-11-30 17:36:26
72,"[{'imgObject': {}, 'id': 'yogurt no spoon', 'src': '/static/foodstim60/yogurt no spoon.jpg', 'key': 'u', 'origWidth': 411, 'origHeight': 410, 'width': 411, 'height': 410, 'widthPercent': 0.45, 'rescaleHeight': False, 'trialN': 72, 'loaded': True, 'loadedTime': 2080.900000035763, 'positionName': 'LEFT', 'positionCoords': [510.6, 335], 'bid': 4.96}, {'imgObject': {}, 'id': 'Tribe humus pita', 'src': '/static/foodstim60/Tribe humus pita.jpg', 'key': 'i', 'origWidth': 411, 'origHeight': 411, 'width': 411, 'height': 411, 'widthPercent': 0.45, 'rescaleHeight': False, 'trialN': 72, 'loaded': True, 'loadedTime': 2324.400000035763, 'positionName': 'RIGHT', 'positionCoords': [998.4, 334.5], 'bid': 4.82}]",154039.60000002384,1669829572649,yogurt no spoon,Tribe humus pita,4.96,4.82,-0.13999999999999968,Tribe humus pita,3072.199999988079,3073,3072.5,True,i,157615.40000003576,3575.800000011921,1669829576225,3576,HRV,HRV_0062,2022-11-30 17:36:26
73,"[{'imgObject': {}, 'id': 'eggs', 'src': '/static/foodstim60/eggs.jpg', 'key': 'u', 'origWidth': 409, 'origHeight': 409, 'width': 409, 'height': 409, 'widthPercent': 0.45, 'rescaleHeight': False, 'trialN': 73, 'loaded': True, 'loadedTime': 2088.900000035763, 'positionName': 'LEFT', 'positionCoords': [512.6, 335.5], 'bid': 3.34}, {'imgObject': {}, 'id': 'edamame', 'src': '/static/foodstim60/edamame.jpg', 'key': 'i', 'origWidth': 409, 'origHeight': 410, 'width': 409, 'height': 410, 'widthPercent': 0.45, 'rescaleHeight': False, 'trialN': 73, 'loaded': True, 'loadedTime': 2341.600000023842, 'positionName': 'RIGHT', 'positionCoords': [998.4, 335], 'bid': 0.93}]",157615.60000002384,1669829576225,eggs,edamame,3.34,0.93,-2.4099999999999997,eggs,2290.199999988079,2291,2290.300000011921,True,u,160408.80000001192,2793.199999988079,1669829579019,2794,HRV,HRV_0062,2022-11-30 17:36:26
74,"[{'imgObject': {}, 'id': 'luckycharms', 'src': '/static/foodstim60/luckycharms.jpg', 'key': 'u', 'origWidth': 410, 'origHeight': 409, 'width': 410, 'height': 409, 'widthPercent': 0.45, 'rescaleHeight': False, 'trialN': 74, 'loaded': True, 'loadedTime': 2339.900000035763, 'positionName': 'LEFT', 'positionCoords': [511.6, 335.5], 'bid': 5.01}, {'imgObject': {}, 'id': 'cheerios', 'src': '/static/foodstim60/cheerios.jpg', 'key': 'i', 'origWidth': 409, 'origHeight': 410, 'width': 409, 'height': 410, 'widthPercent': 0.45, 'rescaleHeight': False, 'trialN': 74, 'loaded': True, 'loadedTime': 2119.400000035763, 'positionName': 'RIGHT', 'positionCoords': [998.4, 335], 'bid': 5.0600000000000005}]",160409.0,1669829579019,luckycharms,cheerios,5.01,5.0600000000000005,0.05000000000000071,luckycharms,1131.800000011921,1132,1131.9000000357628,True,u,162047.80000001192,1638.800000011921,1669829580657,1638,HRV,HRV_0062,2022-11-30 17:36:26
75,"[{'imgObject': {}, 'id': 'popsicles', 'src': '/static/foodstim60/popsicles.jpg', 'key': 'u', 'origWidth': 410, 'origHeight': 410, 'width': 410, 'height': 410, 'widthPercent': 0.45, 'rescaleHeight': False, 'trialN': 75, 'loaded': True, 'loadedTime': 2371.5, 'positionName': 'LEFT', 'positionCoords': [511.6, 335], 'bid': 5.3500000000000005}, {'imgObject': {}, 'id': 'yogurt no spoon', 'src': '/static/foodstim60/yogurt no spoon.jpg', 'key': 'i', 'origWidth': 411, 'origHeight': 410, 'width': 411, 'height': 410, 'widthPercent': 0.45, 'rescaleHeight': False, 'trialN': 75, 'loaded': True, 'loadedTime': 2080.400000035763, 'positionName': 'RIGHT', 'positionCoords': [998.4, 335], 'bid': 4.96}]",162047.80000001192,1669829580658,popsicles,yogurt no spoon,5.3500000000000005,4.96,-0.39000000000000057,popsicles,1481.699999988079,1481,1481.9000000357628,True,u,164032.20000004768,1984.4000000357628,1669829582642,1984,HRV,HRV_0062,2022-11-30 17:36:26
76,"[{'imgObject': {}, 'id': 'cherry tomato', 'src': '/static/foodstim60/cherry tomato.jpg', 'key': 'u', 'origWidth': 410, 'origHeight': 410, 'width': 410, 'height': 410, 'widthPercent': 0.45, 'rescaleHeight': False, 'trialN': 76, 'loaded': True, 'loadedTime': 2203.7000000476837, 'positionName': 'LEFT', 'positionCoords': [511.6, 335], 'bid': 1.25}, {'imgObject': {}, 'id': 'seaweed', 'src': '/static/foodstim60/seaweed.jpg', 'key': 'i', 'origWidth': 410, 'origHeight': 410, 'width': 410, 'height': 410, 'widthPercent': 0.45, 'rescaleHeight': False, 'trialN': 76, 'loaded': True, 'loadedTime': 2226.600000023842, 'positionName': 'RIGHT', 'positionCoords': [998.4, 335], 'bid': 0}]",164032.20000004768,1669829582642,cherry tomato,seaweed,1.25,0.0,-1.25,seaweed,2260.199999988079,2260,2260.399999976158,True,i,166800.60000002384,2768.399999976158,1669829585410,2768,HRV,HRV_0062,2022-11-30 17:36:26
77,"[{'imgObject': {}, 'id': 'froot loops w milk', 'src': '/static/foodstim60/froot loops w milk.jpg', 'key': 'u', 'origWidth': 410, 'origHeight': 410, 'width': 410, 'height': 410, 'widthPercent': 0.45, 'rescaleHeight': False, 'trialN': 77, 'loaded': True, 'loadedTime': 2080.300000011921, 'positionName': 'LEFT', 'positionCoords': [511.6, 335], 'bid': 5.01}, {'imgObject': {}, 'id': 'Tribe humus pita', 'src': '/static/foodstim60/Tribe humus pita.jpg', 'key': 'i', 'origWidth': 411, 'origHeight': 411, 'width': 411, 'height': 411, 'widthPercent': 0.45, 'rescaleHeight': False, 'trialN': 77, 'loaded': True, 'loadedTime': 2324.300000011921, 'positionName': 'RIGHT', 'positionCoords': [998.4, 334.5], 'bid': 4.82}]",166800.70000004768,1669829585410,froot loops w milk,Tribe humus pita,5.01,4.82,-0.1899999999999995,Tribe humus pita,2504.699999988079,2505,2504.899999976158,True,i,169807.80000001192,3007.099999964237,1669829588417,3007,HRV,HRV_0062,2022-11-30 17:36:26
78,"[{'imgObject': {}, 'id': 'blueberries', 'src': '/static/foodstim60/blueberries.jpg', 'key': 'u', 'origWidth': 411, 'origHeight': 411, 'width': 411, 'height': 411, 'widthPercent': 0.45, 'rescaleHeight': False, 'trialN': 78, 'loaded': True, 'loadedTime': 2312.100000023842, 'positionName': 'LEFT', 'positionCoords': [510.6, 334.5], 'bid': 7.51}, {'imgObject': {}, 'id': 'grilled chicken strips', 'src': '/static/foodstim60/grilled chicken strips.jpg', 'key': 'i', 'origWidth': 410, 'origHeight': 411, 'width': 410, 'height': 411, 'widthPercent': 0.45, 'rescaleHeight': False, 'trialN': 78, 'loaded': True, 'loadedTime': 2327.5, 'positionName': 'RIGHT', 'positionCoords': [998.4, 334.5], 'bid': 9.69}]",169807.90000003576,1669829588418,blueberries,grilled chicken strips,7.51,9.69,2.1799999999999997,grilled chicken strips,968.8000000119209,969,969.1999999880791,True,i,171280.90000003576,1473.0,1669829589891,1473,HRV,HRV_0062,2022-11-30 17:36:26
79,"[{'imgObject': {}, 'id': 'fruitsalad', 'src': '/static/foodstim60/fruitsalad.jpg', 'key': 'u', 'origWidth': 410, 'origHeight': 410, 'width': 410, 'height': 410, 'widthPercent': 0.45, 'rescaleHeight': False, 'trialN': 79, 'loaded': True, 'loadedTime': 2324.900000035763, 'positionName': 'LEFT', 'positionCoords': [511.6, 335], 'bid': 4.68}, {'imgObject': {}, 'id': 'shreddedwheatwithmilk', 'src': '/static/foodstim60/shreddedwheatwithmilk.jpg', 'key': 'i', 'origWidth': 410, 'origHeight': 410, 'width': 410, 'height': 410, 'widthPercent': 0.45, 'rescaleHeight': False, 'trialN': 79, 'loaded': True, 'loadedTime': 2242.5, 'positionName': 'RIGHT', 'positionCoords': [998.4, 335], 'bid': 4.75}]",171280.90000003576,1669829589891,fruitsalad,shreddedwheatwithmilk,4.68,4.75,0.07000000000000028,shreddedwheatwithmilk,1603.5,1603,1603.699999988079,True,i,173391.10000002384,2110.199999988079,1669829592001,2110,HRV,HRV_0062,2022-11-30 17:36:26
80,"[{'imgObject': {}, 'id': 'kiwi', 'src': '/static/foodstim60/kiwi.jpg', 'key': 'u', 'origWidth': 410, 'origHeight': 410, 'width': 410, 'height': 410, 'widthPercent': 0.45, 'rescaleHeight': False, 'trialN': 80, 'loaded': True, 'loadedTime': 2360.400000035763, 'positionName': 'LEFT', 'positionCoords': [511.6, 335], 'bid': 4.1}, {'imgObject': {}, 'id': 'avocado', 'src': '/static/foodstim60/avocado.jpg', 'key': 'i', 'origWidth': 409, 'origHeight': 409, 'width': 409, 'height': 409, 'widthPercent': 0.45, 'rescaleHeight': False, 'trialN': 80, 'loaded': True, 'loadedTime': 2282.300000011921, 'positionName': 'RIGHT', 'positionCoords': [998.4, 335.5], 'bid': 1.92}]",173391.30000001192,1669829592001,kiwi,avocado,4.1,1.92,-2.1799999999999997,kiwi,2878,2878,2878.300000011921,True,u,176775.30000001192,3384.0,1669829595385,3384,HRV,HRV_0062,2022-11-30 17:36:26
81,"[{'imgObject': {}, 'id': 'sweetpotato', 'src': '/static/foodstim60/sweetpotato.jpg', 'key': 'u', 'origWidth': 410, 'origHeight': 410, 'width': 410, 'height': 410, 'widthPercent': 0.45, 'rescaleHeight': False, 'trialN': 81, 'loaded': True, 'loadedTime': 2215.2000000476837, 'positionName': 'LEFT', 'positionCoords': [511.6, 335], 'bid': 4.97}, {'imgObject': {}, 'id': 'omelette', 'src': '/static/foodstim60/omelette.jpg', 'key': 'i', 'origWidth': 410, 'origHeight': 409, 'width': 410, 'height': 409, 'widthPercent': 0.45, 'rescaleHeight': False, 'trialN': 81, 'loaded': True, 'loadedTime': 2361, 'positionName': 'RIGHT', 'positionCoords': [998.4, 335.5], 'bid': 6.57}]",176775.40000003576,1669829595385,sweetpotato,omelette,4.97,6.57,1.6000000000000005,omelette,1943.8999999761581,1944,1944.0999999642372,True,i,179223.20000004768,2447.800000011921,1669829597833,2448,HRV,HRV_0062,2022-11-30 17:36:26
82,"[{'imgObject': {}, 'id': 'rigatoni', 'src': '/static/foodstim60/rigatoni.jpg', 'key': 'u', 'origWidth': 411, 'origHeight': 411, 'width': 411, 'height': 411, 'widthPercent': 0.45, 'rescaleHeight': False, 'trialN': 82, 'loaded': True, 'loadedTime': 2079.300000011921, 'positionName': 'LEFT', 'positionCoords': [510.6, 334.5], 'bid': 4.33}, {'imgObject': {}, 'id': 'mango', 'src': '/static/foodstim60/mango.jpg', 'key': 'i', 'origWidth': 411, 'origHeight': 411, 'width': 411, 'height': 411, 'widthPercent': 0.45, 'rescaleHeight': False, 'trialN': 82, 'loaded': True, 'loadedTime': 2082.600000023842, 'positionName': 'RIGHT', 'positionCoords': [998.4, 334.5], 'bid': 3.12}]",179223.30000001192,1669829597833,rigatoni,mango,4.33,3.12,-1.21,NaN,NaN,NaN,,False,NaN,183232.30000001192,4009.0,1669829601842,4009,HRV,HRV_0062,2022-11-30 17:36:26
83,"[{'imgObject': {}, 'id': 'raisin bran w milk', 'src': '/static/foodstim60/raisin bran w milk.jpg', 'key': 'u', 'origWidth': 411, 'origHeight': 411, 'width': 411, 'height': 411, 'widthPercent': 0.45, 'rescaleHeight': False, 'trialN': 83, 'loaded': True, 'loadedTime': 2358.5, 'positionName': 'LEFT', 'positionCoords': [510.6, 334.5], 'bid': 2.59}, {'imgObject': {}, 'id': 'sweetpotato', 'src': '/static/foodstim60/sweetpotato.jpg', 'key': 'i', 'origWidth': 410, 'origHeight': 410, 'width': 410, 'height': 410, 'widthPercent': 0.45, 'rescaleHeight': False, 'trialN': 83, 'loaded': True, 'loadedTime': 2214.300000011921, 'positionName': 'RIGHT', 'positionCoords': [998.4, 335], 'bid': 4.97}]",183232.40000003576,1669829601842,raisin bran w milk,sweetpotato,2.59,4.97,2.38,raisin bran w milk,1769.8999999761581,1770,1770.0,True,u,185504.60000002384,2272.199999988079,1669829604114,2272,HRV,HRV_0062,2022-11-30 17:36:26
84,"[{'imgObject': {}, 'id': 'tacos', 'src': '/static/foodstim60/tacos.jpg', 'key': 'u', 'origWidth': 411, 'origHeight': 411, 'width': 411, 'height': 411, 'widthPercent': 0.45, 'rescaleHeight': False, 'trialN': 84, 'loaded': True, 'loadedTime': 2276, 'positionName': 'LEFT', 'positionCoords': [510.6, 334.5], 'bid': 9.8}, {'imgObject': {}, 'id': 'hotdog w must', 'src': '/static/foodstim60/hotdog w must.jpg', 'key': 'i', 'origWidth': 409, 'origHeight': 409, 'width': 409, 'height': 409, 'widthPercent': 0.45, 'rescaleHeight': False, 'trialN': 84, 'loaded': True, 'loadedTime': 2323.5, 'positionName': 'RIGHT', 'positionCoords': [998.4, 335.5], 'bid': 7.52}]",185504.70000004768,1669829604114,tacos,hotdog w must,9.8,7.52,-2.280000000000001,tacos,894.5,895,894.6999999880791,True,u,186904.60000002384,1399.8999999761581,1669829605514,1400,HRV,HRV_0062,2022-11-30 17:36:26
85,"[{'imgObject': {}, 'id': 'granola w milk', 'src': '/static/foodstim60/granola w milk.jpg', 'key': 'u', 'origWidth': 410, 'origHeight': 410, 'width': 410, 'height': 410, 'widthPercent': 0.45, 'rescaleHeight': False, 'trialN': 85, 'loaded': True, 'loadedTime': 2304.100000023842, 'positionName': 'LEFT', 'positionCoords': [511.6, 335], 'bid': 4.5200000000000005}, {'imgObject': {}, 'id': 'rigatoni', 'src': '/static/foodstim60/rigatoni.jpg', 'key': 'i', 'origWidth': 411, 'origHeight': 411, 'width': 411, 'height': 411, 'widthPercent': 0.45, 'rescaleHeight': False, 'trialN': 85, 'loaded': True, 'loadedTime': 2079.100000023842, 'positionName': 'RIGHT', 'positionCoords': [998.4, 334.5], 'bid': 4.33}]",186904.60000002384,1669829605514,granola w milk,rigatoni,4.5200000000000005,4.33,-0.1900000000000004,granola w milk,1542.6000000238419,1543,1542.800000011921,True,u,188952.20000004768,2047.6000000238419,1669829607562,2048,HRV,HRV_0062,2022-11-30 17:36:26
86,"[{'imgObject': {}, 'id': 'luckycharms', 'src': '/static/foodstim60/luckycharms.jpg', 'key': 'u', 'origWidth': 410, 'origHeight': 409, 'width': 410, 'height': 409, 'widthPercent': 0.45, 'rescaleHeight': False, 'trialN': 86, 'loaded': True, 'loadedTime': 2339.2000000476837, 'positionName': 'LEFT', 'positionCoords': [511.6, 335.5], 'bid': 5.01}, {'imgObject': {}, 'id': 'mango', 'src': '/static/foodstim60/mango.jpg', 'key': 'i', 'origWidth': 411, 'origHeight': 411, 'width': 411, 'height': 411, 'widthPercent': 0.45, 'rescaleHeight': False, 'trialN': 86, 'loaded': True, 'loadedTime': 2083, 'positionName': 'RIGHT', 'positionCoords': [998.4, 334.5], 'bid': 3.12}]",188952.40000003576,1669829607562,luckycharms,mango,5.01,3.12,-1.8899999999999997,luckycharms,1055.800000011921,1056,1056.0,True,u,190512.60000002384,1560.199999988079,1669829609122,1560,HRV,HRV_0062,2022-11-30 17:36:26
87,"[{'imgObject': {}, 'id': 'corn cob', 'src': '/static/foodstim60/corn cob.jpg', 'key': 'u', 'origWidth': 411, 'origHeight': 411, 'width': 411, 'height': 411, 'widthPercent': 0.45, 'rescaleHeight': False, 'trialN': 87, 'loaded': True, 'loadedTime': 2330.600000023842, 'positionName': 'LEFT', 'positionCoords': [510.6, 334.5], 'bid': 9.04}, {'imgObject': {}, 'id': 'turkey sandwich', 'src': '/static/foodstim60/turkey sandwich.jpg', 'key': 'i', 'origWidth': 409, 'origHeight': 409, 'width': 409, 'height': 409, 'widthPercent': 0.45, 'rescaleHeight': False, 'trialN': 87, 'loaded': True, 'loadedTime': 2340.5, 'positionName': 'RIGHT', 'positionCoords': [998.4, 335.5], 'bid': 8.91}]",190512.60000002384,1669829609122,corn cob,turkey sandwich,9.04,8.91,-0.129999999999999,turkey sandwich,2239.899999976158,2240,2240.0,True,i,193255.20000004768,2742.600000023842,1669829611865,2743,HRV,HRV_0062,2022-11-30 17:36:26
88,"[{'imgObject': {}, 'id': 'chicken nuggets2', 'src': '/static/foodstim60/chicken nuggets2.jpg', 'key': 'u', 'origWidth': 410, 'origHeight': 409, 'width': 410, 'height': 409, 'widthPercent': 0.45, 'rescaleHeight': False, 'trialN': 88, 'loaded': True, 'loadedTime': 2328.2000000476837, 'positionName': 'LEFT', 'positionCoords': [511.6, 335.5], 'bid': 8.52}, {'imgObject': {}, 'id': 'popsicles', 'src': '/static/foodstim60/popsicles.jpg', 'key': 'i', 'origWidth': 410, 'origHeight': 410, 'width': 410, 'height': 410, 'widthPercent': 0.45, 'rescaleHeight': False, 'trialN': 88, 'loaded': True, 'loadedTime': 2371.5, 'positionName': 'RIGHT', 'positionCoords': [998.4, 335], 'bid': 5.3500000000000005}]",193255.30000001192,1669829611865,chicken nuggets2,popsicles,8.52,5.3500000000000005,-3.169999999999999,chicken nuggets2,1148.1000000238419,1148,1148.300000011921,True,u,194912.5,1657.199999988079,1669829613522,1657,HRV,HRV_0062,2022-11-30 17:36:26
89,"[{'imgObject': {}, 'id': 'cocktailshrimp', 'src': '/static/foodstim60/cocktailshrimp.jpg', 'key': 'u', 'origWidth': 410, 'origHeight': 410, 'width': 410, 'height': 410, 'widthPercent': 0.45, 'rescaleHeight': False, 'trialN': 89, 'loaded': True, 'loadedTime': 2277.800000011921, 'positionName': 'LEFT', 'positionCoords': [511.6, 335], 'bid': 2.46}, {'imgObject': {}, 'id': 'avocado', 'src': '/static/foodstim60/avocado.jpg', 'key': 'i', 'origWidth': 409, 'origHeight': 409, 'width': 409, 'height': 409, 'widthPercent': 0.45, 'rescaleHeight': False, 'trialN': 89, 'loaded': True, 'loadedTime': 2289.300000011921, 'positionName': 'RIGHT', 'positionCoords': [998.4, 335.5], 'bid': 1.92}]",194912.60000002384,1669829613522,cocktailshrimp,avocado,2.46,1.92,-0.54,avocado,1434.5,1435,1434.699999988079,True,i,196855.5,1942.8999999761581,1669829615465,1943,HRV,HRV_0062,2022-11-30 17:36:26
90,"[{'imgObject': {}, 'id': 'mac & cheese', 'src': '/static/foodstim60/mac & cheese.jpg', 'key': 'u', 'origWidth': 410, 'origHeight': 410, 'width': 410, 'height': 410, 'widthPercent': 0.45, 'rescaleHeight': False, 'trialN': 90, 'loaded': True, 'loadedTime': 2139.100000023842, 'positionName': 'LEFT', 'positionCoords': [511.6, 335], 'bid': 8.82}, {'imgObject': {}, 'id': 'cherries', 'src': '/static/foodstim60/cherries.jpg', 'key': 'i', 'origWidth': 410, 'origHeight': 411, 'width': 410, 'height': 411, 'widthPercent': 0.45, 'rescaleHeight': False, 'trialN': 90, 'loaded': True, 'loadedTime': 2213, 'positionName': 'RIGHT', 'positionCoords': [998.4, 334.5], 'bid': 7.32}]",199872.80000001192,1669829618483,mac & cheese,cherries,8.82,7.32,-1.5,mac & cheese,1137.300000011921,1137,1137.6000000238419,True,u,201512.70000004768,1639.9000000357628,1669829620122,1639,HRV,HRV_0062,2022-11-30 17:36:26
91,"[{'imgObject': {}, 'id': 'olives', 'src': '/static/foodstim60/olives.jpg', 'key': 'u', 'origWidth': 410, 'origHeight': 410, 'width': 410, 'height': 410, 'widthPercent': 0.45, 'rescaleHeight': False, 'trialN': 91, 'loaded': True, 'loadedTime': 2179.600000023842, 'positionName': 'LEFT', 'positionCoords': [511.6, 335], 'bid': 0}, {'imgObject': {}, 'id': 'pear', 'src': '/static/foodstim60/pear.jpg', 'key': 'i', 'origWidth': 411, 'origHeight': 410, 'width': 411, 'height': 410, 'widthPercent': 0.45, 'rescaleHeight': False, 'trialN': 91, 'loaded': True, 'loadedTime': 2193.400000035763, 'positionName': 'RIGHT', 'positionCoords': [998.4, 335], 'bid': 3.62}]",201512.80000001192,1669829620123,olives,pear,0.0,3.62,3.62,pear,1206.4000000357628,1206,1206.6000000238419,True,i,203223.40000003576,1710.6000000238419,1669829621833,1710,HRV,HRV_0062,2022-11-30 17:36:26
92,"[{'imgObject': {}, 'id': 'luckycharms', 'src': '/static/foodstim60/luckycharms.jpg', 'key': 'u', 'origWidth': 410, 'origHeight': 409, 'width': 410, 'height': 409, 'widthPercent': 0.45, 'rescaleHeight': False, 'trialN': 92, 'loaded': True, 'loadedTime': 2339.900000035763, 'positionName': 'LEFT', 'positionCoords': [511.6, 335.5], 'bid': 5.01}, {'imgObject': {}, 'id': 'strawberries', 'src': '/static/foodstim60/strawberries.jpg', 'key': 'i', 'origWidth': 410, 'origHeight': 410, 'width': 410, 'height': 410, 'widthPercent': 0.45, 'rescaleHeight': False, 'trialN': 92, 'loaded': True, 'loadedTime': 2078.600000023842, 'positionName': 'RIGHT', 'positionCoords': [998.4, 335], 'bid': 6.03}]",203223.40000003576,1669829621833,luckycharms,strawberries,5.01,6.03,1.0200000000000005,luckycharms,2035.8999999761581,2036,2036.0999999642372,True,u,205760.40000003576,2537.0,1669829624370,2537,HRV,HRV_0062,2022-11-30 17:36:26
93,"[{'imgObject': {}, 'id': 'bagel plain', 'src': '/static/foodstim60/bagel plain.jpg', 'key': 'u', 'origWidth': 410, 'origHeight': 410, 'width': 410, 'height': 410, 'widthPercent': 0.45, 'rescaleHeight': False, 'trialN': 93, 'loaded': True, 'loadedTime': 2170.300000011921, 'positionName': 'LEFT', 'positionCoords': [511.6, 335], 'bid': 8.93}, {'imgObject': {}, 'id': 'hotdog w must', 'src': '/static/foodstim60/hotdog w must.jpg', 'key': 'i', 'origWidth': 409, 'origHeight': 409, 'width': 409, 'height': 409, 'widthPercent': 0.45, 'rescaleHeight': False, 'trialN': 93, 'loaded': True, 'loadedTime': 2323.400000035763, 'positionName': 'RIGHT', 'positionCoords': [998.4, 335.5], 'bid': 7.52}]",205760.5,1669829624370,bagel plain,hotdog w must,8.93,7.52,-1.4100000000000001,bagel plain,2347.5,2348,2347.900000035763,True,u,208616.40000003576,2855.900000035763,1669829627226,2856,HRV,HRV_0062,2022-11-30 17:36:26
94,"[{'imgObject': {}, 'id': 'rigatoni and sauce', 'src': '/static/foodstim60/rigatoni and sauce.jpg', 'key': 'u', 'origWidth': 410, 'origHeight': 411, 'width': 410, 'height': 411, 'widthPercent': 0.45, 'rescaleHeight': False, 'trialN': 94, 'loaded': True, 'loadedTime': 2296.400000035763, 'positionName': 'LEFT', 'positionCoords': [511.6, 334.5], 'bid': 5.78}, {'imgObject': {}, 'id': 'sushi w_condiments', 'src': '/static/foodstim60/sushi w_condiments.jpg', 'key': 'i', 'origWidth': 410, 'origHeight': 410, 'width': 410, 'height': 410, 'widthPercent': 0.45, 'rescaleHeight': False, 'trialN': 94, 'loaded': True, 'loadedTime': 2359.100000023842, 'positionName': 'RIGHT', 'positionCoords': [998.4, 335], 'bid': 0.09}]",208616.5,1669829627226,rigatoni and sauce,sushi w_condiments,5.78,0.09,-5.69,rigatoni and sauce,1365.7000000476837,1366,1365.9000000357628,True,u,210488.70000004768,1872.2000000476837,1669829629098,1872,HRV,HRV_0062,2022-11-30 17:36:26
95,"[{'imgObject': {}, 'id': 'mashed potato', 'src': '/static/foodstim60/mashed potato.jpg', 'key': 'u', 'origWidth': 409, 'origHeight': 409, 'width': 409, 'height': 409, 'widthPercent': 0.45, 'rescaleHeight': False, 'trialN': 95, 'loaded': True, 'loadedTime': 2082, 'positionName': 'LEFT', 'positionCoords': [512.6, 335.5], 'bid': 6.12}, {'imgObject': {}, 'id': 'cherry tomato', 'src': '/static/foodstim60/cherry tomato.jpg', 'key': 'i', 'origWidth': 410, 'origHeight': 410, 'width': 410, 'height': 410, 'widthPercent': 0.45, 'rescaleHeight': False, 'trialN': 95, 'loaded': True, 'loadedTime': 2203.5, 'positionName': 'RIGHT', 'positionCoords': [998.4, 335], 'bid': 1.25}]",210488.90000003576,1669829629099,mashed potato,cherry tomato,6.12,1.25,-4.87,mashed potato,979.1999999880791,979,979.5,True,u,211976.70000004768,1487.800000011921,1669829630586,1487,HRV,HRV_0062,2022-11-30 17:36:26
96,"[{'imgObject': {}, 'id': 'tacos', 'src': '/static/foodstim60/tacos.jpg', 'key': 'u', 'origWidth': 411, 'origHeight': 411, 'width': 411, 'height': 411, 'widthPercent': 0.45, 'rescaleHeight': False, 'trialN': 96, 'loaded': True, 'loadedTime': 2276, 'positionName': 'LEFT', 'positionCoords': [510.6, 334.5], 'bid': 9.8}, {'imgObject': {}, 'id': 'hashbrowns', 'src': '/static/foodstim60/hashbrowns.jpg', 'key': 'i', 'origWidth': 411, 'origHeight': 410, 'width': 411, 'height': 410, 'widthPercent': 0.45, 'rescaleHeight': False, 'trialN': 96, 'loaded': True, 'loadedTime': 2069.5, 'positionName': 'RIGHT', 'positionCoords': [998.4, 335], 'bid': 5}]",211976.80000001192,1669829630587,tacos,hashbrowns,9.8,5.0,-4.800000000000001,tacos,1077.5,1077,1077.699999988079,True,u,213559.80000001192,1583.0,1669829632169,1582,HRV,HRV_0062,2022-11-30 17:36:26
97,"[{'imgObject': {}, 'id': 'salmon', 'src': '/static/foodstim60/salmon.jpg', 'key': 'u', 'origWidth': 410, 'origHeight': 409, 'width': 410, 'height': 409, 'widthPercent': 0.45, 'rescaleHeight': False, 'trialN': 97, 'loaded': True, 'loadedTime': 2215.800000011921, 'positionName': 'LEFT', 'positionCoords': [511.6, 335.5], 'bid': 0.1}, {'imgObject': {}, 'id': 'banana', 'src': '/static/foodstim60/banana.jpg', 'key': 'i', 'origWidth': 410, 'origHeight': 410, 'width': 410, 'height': 410, 'widthPercent': 0.45, 'rescaleHeight': False, 'trialN': 97, 'loaded': True, 'loadedTime': 2226.5, 'positionName': 'RIGHT', 'positionCoords': [998.4, 335], 'bid': 2.44}]",213559.90000003576,1669829632170,salmon,banana,0.1,2.44,2.34,banana,1085.0999999642372,1085,1085.199999988079,True,i,215152.10000002384,1592.199999988079,1669829633762,1592,HRV,HRV_0062,2022-11-30 17:36:26
98,"[{'imgObject': {}, 'id': 'raspberries', 'src': '/static/foodstim60/raspberries.jpg', 'key': 'u', 'origWidth': 411, 'origHeight': 411, 'width': 411, 'height': 411, 'widthPercent': 0.45, 'rescaleHeight': False, 'trialN': 98, 'loaded': True, 'loadedTime': 2278.900000035763, 'positionName': 'LEFT', 'positionCoords': [510.6, 334.5], 'bid': 7.03}, {'imgObject': {}, 'id': 'luckycharms', 'src': '/static/foodstim60/luckycharms.jpg', 'key': 'i', 'origWidth': 410, 'origHeight': 409, 'width': 410, 'height': 409, 'widthPercent': 0.45, 'rescaleHeight': False, 'trialN': 98, 'loaded': True, 'loadedTime': 2339.800000011921, 'positionName': 'RIGHT', 'positionCoords': [998.4, 335.5], 'bid': 5.01}]",215152.20000004768,1669829633762,raspberries,luckycharms,7.03,5.01,-2.0200000000000005,raspberries,1496.5999999642372,1497,1496.699999988079,True,u,217152.0,1999.7999999523163,1669829635762,2000,HRV,HRV_0062,2022-11-30 17:36:26
99,"[{'imgObject': {}, 'id': 'chicken nuggets2', 'src': '/static/foodstim60/chicken nuggets2.jpg', 'key': 'u', 'origWidth': 410, 'origHeight': 409, 'width': 410, 'height': 409, 'widthPercent': 0.45, 'rescaleHeight': False, 'trialN': 99, 'loaded': True, 'loadedTime': 2327.5, 'positionName': 'LEFT', 'positionCoords': [511.6, 335.5], 'bid': 8.52}, {'imgObject': {}, 'id': 'chickenfingers', 'src': '/static/foodstim60/chickenfingers.jpg', 'key': 'i', 'origWidth': 410, 'origHeight': 410, 'width': 410, 'height': 410, 'widthPercent': 0.45, 'rescaleHeight': False, 'trialN': 99, 'loaded': True, 'loadedTime': 2312.900000035763, 'positionName': 'RIGHT', 'positionCoords': [998.4, 335], 'bid': 8.370000000000001}]",217152.10000002384,1669829635762,chicken nuggets2,chickenfingers,8.52,8.370000000000001,-0.14999999999999858,chickenfingers,1544.800000011921,1545,1545.0,True,i,219201.0,2048.899999976158,1669829637811,2049,HRV,HRV_0062,2022-11-30 17:36:26
100,"[{'imgObject': {}, 'id': 'corn cob', 'src': '/static/foodstim60/corn cob.jpg', 'key': 'u', 'origWidth': 411, 'origHeight': 411, 'width': 411, 'height': 411, 'widthPercent': 0.45, 'rescaleHeight': False, 'trialN': 100, 'loaded': True, 'loadedTime': 2330.7000000476837, 'positionName': 'LEFT', 'positionCoords': [510.6, 334.5], 'bid': 9.04}, {'imgObject': {}, 'id': 'baked potato', 'src': '/static/foodstim60/baked potato.jpg', 'key': 'i', 'origWidth': 409, 'origHeight': 410, 'width': 409, 'height': 410, 'widthPercent': 0.45, 'rescaleHeight': False, 'trialN': 100, 'loaded': True, 'loadedTime': 2322.300000011921, 'positionName': 'RIGHT', 'positionCoords': [998.4, 335], 'bid': 8.32}]",219201.10000002384,1669829637811,corn cob,baked potato,9.04,8.32,-0.7199999999999989,corn cob,1399.199999988079,1399,1399.3999999761581,True,u,221104.0,1902.8999999761581,1669829639714,1903,HRV,HRV_0062,2022-11-30 17:36:26
101,"[{'imgObject': {}, 'id': 'salad w chicken', 'src': '/static/foodstim60/salad w chicken.jpg', 'key': 'u', 'origWidth': 411, 'origHeight': 411, 'width': 411, 'height': 411, 'widthPercent': 0.45, 'rescaleHeight': False, 'trialN': 101, 'loaded': True, 'loadedTime': 2369.600000023842, 'positionName': 'LEFT', 'positionCoords': [510.6, 334.5], 'bid': 7.48}, {'imgObject': {}, 'id': 'chicken nuggets2', 'src': '/static/foodstim60/chicken nuggets2.jpg', 'key': 'i', 'origWidth': 410, 'origHeight': 409, 'width': 410, 'height': 409, 'widthPercent': 0.45, 'rescaleHeight': False, 'trialN': 101, 'loaded': True, 'loadedTime': 2328.100000023842, 'positionName': 'RIGHT', 'positionCoords': [998.4, 335.5], 'bid': 8.52}]",221104.20000004768,1669829639714,salad w chicken,chicken nuggets2,7.48,8.52,1.0399999999999991,chicken nuggets2,1514.699999988079,1515,1514.8999999761581,True,i,223121.10000002384,2016.8999999761581,1669829641731,2017,HRV,HRV_0062,2022-11-30 17:36:26
102,"[{'imgObject': {}, 'id': 'omelette', 'src': '/static/foodstim60/omelette.jpg', 'key': 'u', 'origWidth': 410, 'origHeight': 409, 'width': 410, 'height': 409, 'widthPercent': 0.45, 'rescaleHeight': False, 'trialN': 102, 'loaded': True, 'loadedTime': 2361.100000023842, 'positionName': 'LEFT', 'positionCoords': [511.6, 335.5], 'bid': 6.57}, {'imgObject': {}, 'id': 'mashed potato', 'src': '/static/foodstim60/mashed potato.jpg', 'key': 'i', 'origWidth': 409, 'origHeight': 409, 'width': 409, 'height': 409, 'widthPercent': 0.45, 'rescaleHeight': False, 'trialN': 102, 'loaded': True, 'loadedTime': 2082.2000000476837, 'positionName': 'RIGHT', 'positionCoords': [998.4, 335.5], 'bid': 6.12}]",223121.10000002384,1669829641731,omelette,mashed potato,6.57,6.12,-0.4500000000000002,omelette,1500.800000011921,1501,1500.8999999761581,True,u,225129.10000002384,2008.0,1669829643739,2008,HRV,HRV_0062,2022-11-30 17:36:26
103,"[{'imgObject': {}, 'id': 'roastedpotatoes', 'src': '/static/foodstim60/roastedpotatoes.jpg', 'key': 'u', 'origWidth': 409, 'origHeight': 410, 'width': 409, 'height': 410, 'widthPercent': 0.45, 'rescaleHeight': False, 'trialN': 103, 'loaded': True, 'loadedTime': 2326.800000011921, 'positionName': 'LEFT', 'positionCoords': [512.6, 335], 'bid': 8.67}, {'imgObject': {}, 'id': 'rigatoni and sauce', 'src': '/static/foodstim60/rigatoni and sauce.jpg', 'key': 'i', 'origWidth': 410, 'origHeight': 411, 'width': 410, 'height': 411, 'widthPercent': 0.45, 'rescaleHeight': False, 'trialN': 103, 'loaded': True, 'loadedTime': 2290.100000023842, 'positionName': 'RIGHT', 'positionCoords': [998.4, 334.5], 'bid': 5.78}]",225129.10000002384,1669829643739,roastedpotatoes,rigatoni and sauce,8.67,5.78,-2.8899999999999997,roastedpotatoes,1440.800000011921,1441,1441.300000011921,True,u,227072.10000002384,1943.0,1669829645682,1943,HRV,HRV_0062,2022-11-30 17:36:26
104,"[{'imgObject': {}, 'id': 'turkey sandwich', 'src': '/static/foodstim60/turkey sandwich.jpg', 'key': 'u', 'origWidth': 409, 'origHeight': 409, 'width': 409, 'height': 409, 'widthPercent': 0.45, 'rescaleHeight': False, 'trialN': 104, 'loaded': True, 'loadedTime': 2340.400000035763, 'positionName': 'LEFT', 'positionCoords': [512.6, 335.5], 'bid': 8.91}, {'imgObject': {}, 'id': 'bagel plain', 'src': '/static/foodstim60/bagel plain.jpg', 'key': 'i', 'origWidth': 410, 'origHeight': 410, 'width': 410, 'height': 410, 'widthPercent': 0.45, 'rescaleHeight': False, 'trialN': 104, 'loaded': True, 'loadedTime': 2170.400000035763, 'positionName': 'RIGHT', 'positionCoords': [998.4, 335], 'bid': 8.93}]",227072.20000004768,1669829645682,turkey sandwich,bagel plain,8.91,8.93,0.019999999999999574,turkey sandwich,1099.8999999761581,1100,1100.0999999642372,True,u,228672.40000003576,1600.199999988079,1669829647282,1600,HRV,HRV_0062,2022-11-30 17:36:26
105,"[{'imgObject': {}, 'id': 'salad w chicken', 'src': '/static/foodstim60/salad w chicken.jpg', 'key': 'u', 'origWidth': 411, 'origHeight': 411, 'width': 411, 'height': 411, 'widthPercent': 0.45, 'rescaleHeight': False, 'trialN': 105, 'loaded': True, 'loadedTime': 2369.5, 'positionName': 'LEFT', 'positionCoords': [510.6, 334.5], 'bid': 7.48}, {'imgObject': {}, 'id': 'cherries', 'src': '/static/foodstim60/cherries.jpg', 'key': 'i', 'origWidth': 410, 'origHeight': 411, 'width': 410, 'height': 411, 'widthPercent': 0.45, 'rescaleHeight': False, 'trialN': 105, 'loaded': True, 'loadedTime': 2212.2000000476837, 'positionName': 'RIGHT', 'positionCoords': [998.4, 334.5], 'bid': 7.32}]",228672.5,1669829647282,salad w chicken,cherries,7.48,7.32,-0.16000000000000014,salad w chicken,910.3000000119209,911,910.4000000357628,True,u,230087.30000001192,1414.800000011921,1669829648697,1415,HRV,HRV_0062,2022-11-30 17:36:26
106,"[{'imgObject': {}, 'id': 'cherries', 'src': '/static/foodstim60/cherries.jpg', 'key': 'u', 'origWidth': 410, 'origHeight': 411, 'width': 410, 'height': 411, 'widthPercent': 0.45, 'rescaleHeight': False, 'trialN': 106, 'loaded': True, 'loadedTime': 2212.7000000476837, 'positionName': 'LEFT', 'positionCoords': [511.6, 334.5], 'bid': 7.32}, {'imgObject': {}, 'id': 'fried eggs', 'src': '/static/foodstim60/fried eggs.jpg', 'key': 'i', 'origWidth': 410, 'origHeight': 410, 'width': 410, 'height': 410, 'widthPercent': 0.45, 'rescaleHeight': False, 'trialN': 106, 'loaded': True, 'loadedTime': 2297.400000035763, 'positionName': 'RIGHT', 'positionCoords': [998.4, 335], 'bid': 8.39}]",230087.5,1669829648697,cherries,fried eggs,7.32,8.39,1.0700000000000003,fried eggs,1708.4000000357628,1709,1708.9000000357628,True,i,232304.30000001192,2216.800000011921,1669829650914,2217,HRV,HRV_0062,2022-11-30 17:36:26
107,"[{'imgObject': {}, 'id': 'turkeysandwich', 'src': '/static/foodstim60/turkeysandwich.jpg', 'key': 'u', 'origWidth': 409, 'origHeight': 409, 'width': 409, 'height': 409, 'widthPercent': 0.45, 'rescaleHeight': False, 'trialN': 107, 'loaded': True, 'loadedTime': 2359.900000035763, 'positionName': 'LEFT', 'positionCoords': [512.6, 335.5], 'bid': 8.71}, {'imgObject': {}, 'id': 'Grapes', 'src': '/static/foodstim60/Grapes.jpg', 'key': 'i', 'origWidth': 411, 'origHeight': 411, 'width': 411, 'height': 411, 'widthPercent': 0.45, 'rescaleHeight': False, 'trialN': 107, 'loaded': True, 'loadedTime': 2146.800000011921, 'positionName': 'RIGHT', 'positionCoords': [998.4, 334.5], 'bid': 8.870000000000001}]",232304.40000003576,1669829650914,turkeysandwich,Grapes,8.71,8.870000000000001,0.16000000000000014,turkeysandwich,828.5999999642372,829,828.8000000119209,True,u,233640.40000003576,1336.0,1669829652250,1336,HRV,HRV_0062,2022-11-30 17:36:26
108,"[{'imgObject': {}, 'id': 'strawberries', 'src': '/static/foodstim60/strawberries.jpg', 'key': 'u', 'origWidth': 410, 'origHeight': 410, 'width': 410, 'height': 410, 'widthPercent': 0.45, 'rescaleHeight': False, 'trialN': 108, 'loaded': True, 'loadedTime': 2078.300000011921, 'positionName': 'LEFT', 'positionCoords': [511.6, 335], 'bid': 6.03}, {'imgObject': {}, 'id': 'edamame', 'src': '/static/foodstim60/edamame.jpg', 'key': 'i', 'origWidth': 409, 'origHeight': 410, 'width': 409, 'height': 410, 'widthPercent': 0.45, 'rescaleHeight': False, 'trialN': 108, 'loaded': True, 'loadedTime': 2340.7000000476837, 'positionName': 'RIGHT', 'positionCoords': [998.4, 335], 'bid': 0.93}]",233640.40000003576,1669829652250,strawberries,edamame,6.03,0.93,-5.1000000000000005,strawberries,1052.3999999761581,1053,1052.5999999642372,True,u,235200.40000003576,1560.0,1669829653810,1560,HRV,HRV_0062,2022-11-30 17:36:26
