success,trial_type,trial_index,time_elapsed,internal_node_id,Block,TrialNumber,TrialTime,trialTimeDiff,FPS_avg,FPS_med,FPS_mode,TrialDur,winResizeTime,rt,block,button_pressed,MotCoh,MotDir,ColCoh,Color,ChoiceKey,Choice,Accuracy,RT,nFrames,FPS,PPD,missTrial,missTrialMsg,onsetDelay,fullScreenExitTime,canvCenter,TrialType,Score,BlockTrial,stimulus,button_labels,exp,subjectId,date
True,fullscreen,0,2507,0.0-0.0,0.0,1.0,,,,,,,,,,,,,,,,,,,,,,,,,,,,,,,,HRV,HRV_0062,2022-11-30 18:00:10
,wl-check-fps,1,7506,0.0-1.0,0.0,2.0,"[2744.5, 2756.9, 2773.6, 2790.3, 2807, 2823.6, 2840.3, 2857, 2873.7, 2890.3, 2907, 2923.6, 2940.4, 2957, 2973.6, 2990.4, 3007.1, 3023.6, 3040.3, 3057.1, 3073.7, 3090.3, 3106.9, 3123.6, 3140.3, 3156.9, 3173.6, 3190.3, 3207, 3223.6, 3240.7, 3257, 3273.7, 3290.3, 3306.9, 3323.6, 3340.2, 3356.9, 3373.6, 3390.3, 3407, 3423.5, 3440.3, 3456.9, 3473.5, 3490.3, 3507, 3523.6, 3540.3, 3556.9, 3573.7, 3590.3, 3607, 3623.6, 3640.4, 3656.9, 3673.6, 3690.3, 3706.9, 3723.7, 3740.3, 3757, 3773.6, 3790.2, 3806.9, 3823.6, 3840.3, 3857, 3873.6, 3890.2, 3906.9, 3923.6, 3940.3, 3956.9, 3973.6, 3990.3, 4007, 4023.6, 4040.2, 4056.9, 4073.6, 4090.2, 4106.9, 4123.6, 4140.2, 4156.9, 4173.6, 4190.3, 4206.9, 4223.6, 4240.5, 4256.9, 4273.6, 4290.3, 4306.9, 4323.6, 4340.2, 4356.9, 4373.6, 4390.3, 4406.9, 4423.6, 4440.2, 4456.9, 4473.5, 4490.3, 4506.9, 4523.6, 4540.2, 4556.9, 4573.6, 4590.3, 4606.9, 4623.6, 4640.3, 4656.9, 4673.5, 4690.2, 4706.9, 4723.5, 4740.2, 4757, 4773.5, 4790.3, 4807, 4823.7, 4840.3, 4856.9, 4873.6, 4890.3, 4907, 4923.5, 4940.3, 4956.9, 4973.6, 4990.2, 5006.9, 5023.5, 5040.2, 5056.9, 5073.6, 5090.2, 5106.9, 5123.5, 5140.2, 5156.9, 5173.6, 5190.3, 5206.9, 5223.5, 5240.2, 5256.9, 5273.5, 5290.2, 5306.8, 5323.5, 5340.2, 5356.9, 5373.6, 5390.3, 5406.9, 5423.6, 5440.3, 5456.9, 5473.5, 5490.2, 5506.9, 5523.6, 5540.3, 5556.9, 5573.6, 5590.2, 5606.8, 5623.6, 5640.2, 5656.9, 5673.6, 5690.2, 5706.9, 5723.6, 5740.2, 5756.9, 5773.6, 5790.3, 5806.8, 5823.5, 5840.2, 5856.8, 5873.5, 5890.3, 5906.9, 5923.6, 5940.2, 5956.9, 5973.6, 5990.2, 6006.8, 6023.5, 6040.2, 6056.9, 6073.5, 6090.2, 6106.9, 6123.6, 6140.3, 6156.9, 6173.5, 6190.3, 6206.9, 6223.5, 6240.2, 6256.9, 6273.5, 6290.2, 6306.8, 6323.6, 6340.2, 6356.8, 6373.6, 6390.2, 6406.9, 6423.6, 6440.2, 6456.9, 6473.6, 6490.2, 6506.9, 6523.5, 6540.2, 6556.9, 6573.6, 6590.2, 6606.9, 6623.5, 6640.2, 6656.9, 6673.5, 6690.2, 6706.8, 6723.5, 6740.2, 6756.9, 6773.6, 6790.3, 6806.9, 6823.5, 6840.2, 6856.9, 6873.5, 6890.3, 6906.8, 6923.5, 6940.2, 6956.8, 6973.6, 6990.3, 7006.9, 7023.6, 7040.2, 7056.8, 7073.6, 7090.3, 7106.9, 7123.6, 7140.3, 7156.9, 7173.6, 7190.2, 7206.9, 7223.6, 7240.2, 7256.8, 7273.5, 7290.2, 7306.8, 7323.5, 7340.2, 7356.8, 7373.5, 7390.3, 7406.9, 7423.7, 7440.2, 7456.8, 7473.5, 7490.2, 7506.8, 7523.4, 7540.2, 7556.9, 7573.5, 7590.2, 7606.8, 7623.5, 7640.2, 7656.8, 7673.4, 7690.2, 7706.8, 7723.4]","[1.3, 12.4, 16.7, 16.7, 16.7, 16.6, 16.7, 16.7, 16.7, 16.6, 16.7, 16.6, 16.8, 16.6, 16.6, 16.8, 16.7, 16.5, 16.7, 16.8, 16.6, 16.6, 16.6, 16.7, 16.7, 16.6, 16.7, 16.7, 16.7, 16.6, 17.1, 16.3, 16.7, 16.6, 16.6, 16.7, 16.6, 16.7, 16.7, 16.7, 16.7, 16.5, 16.8, 16.6, 16.6, 16.8, 16.7, 16.6, 16.7, 16.6, 16.8, 16.6, 16.7, 16.6, 16.8, 16.5, 16.7, 16.7, 16.6, 16.8, 16.6, 16.7, 16.6, 16.6, 16.7, 16.7, 16.7, 16.7, 16.6, 16.6, 16.7, 16.7, 16.7, 16.6, 16.7, 16.7, 16.7, 16.6, 16.6, 16.7, 16.7, 16.6, 16.7, 16.7, 16.6, 16.7, 16.7, 16.7, 16.6, 16.7, 16.9, 16.4, 16.7, 16.7, 16.6, 16.7, 16.6, 16.7, 16.7, 16.7, 16.6, 16.7, 16.6, 16.7, 16.6, 16.8, 16.6, 16.7, 16.6, 16.7, 16.7, 16.7, 16.6, 16.7, 16.7, 16.6, 16.6, 16.7, 16.7, 16.6, 16.7, 16.8, 16.5, 16.8, 16.7, 16.7, 16.6, 16.6, 16.7, 16.7, 16.7, 16.5, 16.8, 16.6, 16.7, 16.6, 16.7, 16.6, 16.7, 16.7, 16.7, 16.6, 16.7, 16.6, 16.7, 16.7, 16.7, 16.7, 16.6, 16.6, 16.7, 16.7, 16.6, 16.7, 16.6, 16.7, 16.7, 16.7, 16.7, 16.7, 16.6, 16.7, 16.7, 16.6, 16.6, 16.7, 16.7, 16.7, 16.7, 16.6, 16.7, 16.6, 16.6, 16.8, 16.6, 16.7, 16.7, 16.6, 16.7, 16.7, 16.6, 16.7, 16.7, 16.7, 16.5, 16.7, 16.7, 16.6, 16.7, 16.8, 16.6, 16.7, 16.6, 16.7, 16.7, 16.6, 16.6, 16.7, 16.7, 16.7, 16.6, 16.7, 16.7, 16.7, 16.7, 16.6, 16.6, 16.8, 16.6, 16.6, 16.7, 16.7, 16.6, 16.7, 16.6, 16.8, 16.6, 16.6, 16.8, 16.6, 16.7, 16.7, 16.6, 16.7, 16.7, 16.6, 16.7, 16.6, 16.7, 16.7, 16.7, 16.6, 16.7, 16.6, 16.7, 16.7, 16.6, 16.7, 16.6, 16.7, 16.7, 16.7, 16.7, 16.7, 16.6, 16.6, 16.7, 16.7, 16.6, 16.8, 16.5, 16.7, 16.7, 16.6, 16.8, 16.7, 16.6, 16.7, 16.6, 16.6, 16.8, 16.7, 16.6, 16.7, 16.7, 16.6, 16.7, 16.6, 16.7, 16.7, 16.6, 16.6, 16.7, 16.7, 16.6, 16.7, 16.7, 16.6, 16.7, 16.8, 16.6, 16.8, 16.5, 16.6, 16.7, 16.7, 16.6, 16.6, 16.8, 16.7, 16.6, 16.7, 16.6, 16.7, 16.7, 16.6, 16.6, 16.8, 16.6, 16.6]",60.0,60.0,60.0,4996.9,[],,,,,,,,,,,,,,,,,,,,,,,,,HRV,HRV_0062,2022-11-30 18:00:10
,wl-html-keyboard-response,2,22756,0.0-2.0-0.0,0.0,3.0,,,,,,,,13243.599999964237,0.0,0,,,,,,,,,,,,,,,,,,,,,,HRV,HRV_0062,2022-11-30 18:00:10
,wl-rdm,3,32290,0.0-3.0-0.0,0.0,4.0,,,,,,,[],,,,0.0,0.0,87.9,0.0,u,0.0,True,3934.0,237.0,60.0,40.0,False,,3000.0,[],"[960, 540]",ColorTask_Demo,,,,,HRV,HRV_0062,2022-11-30 18:00:10
,wl-rdm,4,37356,0.0-3.0-1.0,0.0,5.0,,,,,,,[],,,,0.0,0.0,87.9,1.0,i,1.0,True,983.7999999523163,60.0,60.0,40.0,False,,2000.0,[],"[960, 540]",ColorTask_Demo,,,,,HRV,HRV_0062,2022-11-30 18:00:10
,wl-html-keyboard-response,5,42701,0.0-3.0-2.0,0.0,6.0,,,,,,,,3335.800000011921,0.0,1,,,,,,,,,,,,,,,,,,,,,,HRV,HRV_0062,2022-11-30 18:00:10
,wl-html-keyboard-response,6,49964,0.0-4.0-0.0,0.0,7.0,,,,,,,,5255.0,0.0,0,,,,,,,,,,,,,,,,,,,,,,HRV,HRV_0062,2022-11-30 18:00:10
,wl-html-keyboard-response,7,60204,0.0-5.0-0.0,0.0,8.0,,,,,,,,8235.5,0.0,0,,,,,,,,,,,,,,,,,,,,,,HRV,HRV_0062,2022-11-30 18:00:10
,wl-rdm,8,62652,0.0-6.0-0.0,0.0,9.0,,,,,,,[],,,,,,53.2,1.0,i,1.0,True,1055.3999999761581,64.0,60.0,40.0,False,,308.6788196256614,[],"[960, 540]",ColorTask,1.0,1.0,,,HRV,HRV_0062,2022-11-30 18:00:10
,wl-rdm,9,64902,0.0-6.1-0.1,0.0,10.0,,,,,,,[],,,,,,87.9,1.0,i,1.0,True,794.4000000357628,48.0,60.0,40.0,False,,378.85896174863,[],"[960, 540]",ColorTask,2.0,2.0,,,HRV,HRV_0062,2022-11-30 18:00:10
,wl-rdm,10,68168,0.0-6.2-0.2,0.0,11.0,,,,,,,[],,,,,,50.0,0.0,u,0.0,True,1928.300000011921,116.0,60.0,40.0,False,,255.87006826503804,[],"[960, 540]",ColorTask,3.0,3.0,,,HRV,HRV_0062,2022-11-30 18:00:10
,wl-rdm,11,70668,0.0-6.3-0.3,0.0,12.0,,,,,,,[],,,,,,50.0,0.0,u,0.0,True,1156.800000011921,70.0,60.0,40.0,False,,250.0346484107205,[],"[960, 540]",ColorTask,4.0,4.0,,,HRV,HRV_0062,2022-11-30 18:00:10
,wl-rdm,12,73335,0.0-6.4-0.4,0.0,13.0,,,,,,,[],,,,,,50.0,0.0,i,1.0,False,1347.1000000238419,81.0,60.0,40.0,False,,245.9780742207509,[],"[960, 540]",ColorTask,3.0,5.0,,,HRV,HRV_0062,2022-11-30 18:00:10
,wl-rdm,13,75885,0.0-6.5-0.5,0.0,14.0,,,,,,,[],,,,,,53.2,1.0,i,1.0,True,1237.199999988079,75.0,60.0,40.0,False,,221.52948009346642,[],"[960, 540]",ColorTask,4.0,6.0,,,HRV,HRV_0062,2022-11-30 18:00:10
,wl-rdm,14,78002,0.0-6.6-0.6,0.0,15.0,,,,,,,[],,,,,,53.2,1.0,i,1.0,True,810.3999999761581,49.0,60.0,40.0,False,,223.04220391500175,[],"[960, 540]",ColorTask,5.0,7.0,,,HRV,HRV_0062,2022-11-30 18:00:10
,wl-rdm,15,80835,0.0-6.7-0.7,0.0,16.0,,,,,,,[],,,,,,50.0,1.0,i,1.0,True,1501.300000011921,91.0,60.0,40.0,False,,249.12377605909154,[],"[960, 540]",ColorTask,6.0,8.0,,,HRV,HRV_0062,2022-11-30 18:00:10
,wl-rdm,16,83501,0.0-6.8-0.8,0.0,17.0,,,,,,,[],,,,,,50.0,1.0,i,1.0,True,1320.8999999761581,80.0,60.0,40.0,False,,261.045066658512,[],"[960, 540]",ColorTask,7.0,9.0,,,HRV,HRV_0062,2022-11-30 18:00:10
,wl-rdm,17,85651,0.0-6.9-0.9,0.0,18.0,,,,,,,[],,,,,,73.6,0.0,u,0.0,True,743.0,45.0,60.0,40.0,False,,334.31777876540474,[],"[960, 540]",ColorTask,8.0,10.0,,,HRV,HRV_0062,2022-11-30 18:00:10
,wl-rdm,18,87634,0.0-6.10-0.10,0.0,19.0,,,,,,,[],,,,,,56.4,0.0,i,1.0,False,631.0999999642372,38.0,60.0,40.0,False,,298.77522464004534,[],"[960, 540]",ColorTask,7.0,11.0,,,HRV,HRV_0062,2022-11-30 18:00:10
,wl-rdm,19,89618,0.0-6.11-0.11,0.0,20.0,,,,,,,[],,,,,,73.6,1.0,i,1.0,True,673.3999999761581,41.0,60.0,40.0,False,,232.84470092501658,[],"[960, 540]",ColorTask,8.0,12.0,,,HRV,HRV_0062,2022-11-30 18:00:10
,wl-rdm,20,92134,0.0-6.12-0.12,0.0,21.0,,,,,,,[],,,,,,62.5,0.0,u,0.0,True,1033.699999988079,63.0,60.0,40.0,False,,389.8181706028705,[],"[960, 540]",ColorTask,9.0,13.0,,,HRV,HRV_0062,2022-11-30 18:00:10
,wl-rdm,21,94284,0.0-6.13-0.13,0.0,22.0,,,,,,,[],,,,,,53.2,1.0,i,1.0,True,802.1000000238419,49.0,60.0,40.0,False,,266.6057117973866,[],"[960, 540]",ColorTask,10.0,14.0,,,HRV,HRV_0062,2022-11-30 18:00:10
,wl-rdm,22,96484,0.0-6.14-0.14,0.0,23.0,,,,,,,[],,,,,,50.0,0.0,i,1.0,False,900.3999999761581,55.0,60.0,40.0,False,,210.39625616152628,[],"[960, 540]",ColorTask,9.0,15.0,,,HRV,HRV_0062,2022-11-30 18:00:10
,wl-rdm,23,98534,0.0-6.15-0.15,0.0,24.0,,,,,,,[],,,,,,50.0,0.0,i,1.0,False,682.2999999523163,41.0,60.0,40.0,False,,306.90028058670725,[],"[960, 540]",ColorTask,8.0,16.0,,,HRV,HRV_0062,2022-11-30 18:00:10
,wl-rdm,24,100501,0.0-6.16-0.16,0.0,25.0,,,,,,,[],,,,,,62.5,1.0,i,1.0,True,659.6999999880791,40.0,60.0,40.0,False,,222.35610000273164,[],"[960, 540]",ColorTask,9.0,17.0,,,HRV,HRV_0062,2022-11-30 18:00:10
,wl-rdm,25,102518,0.0-6.17-0.17,0.0,26.0,,,,,,,[],,,,,,73.6,0.0,u,0.0,True,726.1000000238419,44.0,60.0,40.0,False,,217.05941766248347,[],"[960, 540]",ColorTask,10.0,18.0,,,HRV,HRV_0062,2022-11-30 18:00:10
,wl-rdm,26,104751,0.0-6.18-0.18,0.0,27.0,,,,,,,[],,,,,,62.5,1.0,i,1.0,True,843.1000000238419,51.0,60.0,40.0,False,,315.4894449393237,[],"[960, 540]",ColorTask,11.0,19.0,,,HRV,HRV_0062,2022-11-30 18:00:10
,wl-rdm,27,106684,0.0-6.19-0.19,0.0,28.0,,,,,,,[],,,,,,87.9,1.0,i,1.0,True,538.5999999642372,33.0,60.0,40.0,False,,306.9249969380427,[],"[960, 540]",ColorTask,12.0,20.0,,,HRV,HRV_0062,2022-11-30 18:00:10
,wl-rdm,28,108717,0.0-6.20-0.20,0.0,29.0,,,,,,,[],,,,,,73.6,1.0,i,1.0,True,621.6999999880791,38.0,60.0,40.0,False,,326.9623570788076,[],"[960, 540]",ColorTask,13.0,21.0,,,HRV,HRV_0062,2022-11-30 18:00:10
,wl-rdm,29,110634,0.0-6.21-0.21,0.0,30.0,,,,,,,[],,,,,,62.5,1.0,i,1.0,True,607.3999999761581,37.0,60.0,40.0,False,,229.45972723716613,[],"[960, 540]",ColorTask,14.0,22.0,,,HRV,HRV_0062,2022-11-30 18:00:10
,wl-rdm,30,113117,0.0-6.22-0.22,0.0,31.0,,,,,,,[],,,,,,56.4,1.0,i,1.0,True,1198.5999999642372,72.0,60.0,40.0,False,,202.16300642342674,[],"[960, 540]",ColorTask,15.0,23.0,,,HRV,HRV_0062,2022-11-30 18:00:10
,wl-rdm,31,116134,0.0-6.23-0.23,0.0,32.0,,,,,,,[],,,,,,62.5,1.0,i,1.0,True,1550.6000000238419,94.0,60.0,40.0,False,,371.011402778298,[],"[960, 540]",ColorTask,16.0,24.0,,,HRV,HRV_0062,2022-11-30 18:00:10
,wl-rdm,32,119234,0.0-6.24-0.24,0.0,33.0,,,,,,,[],,,,,,56.4,0.0,u,0.0,True,1702.5,103.0,60.0,40.0,False,,309.4754884992989,[],"[960, 540]",ColorTask,17.0,25.0,,,HRV,HRV_0062,2022-11-30 18:00:10
,wl-rdm,33,121184,0.0-6.25-0.25,0.0,34.0,,,,,,,[],,,,,,87.9,0.0,u,0.0,True,650.5,40.0,60.0,40.0,False,,216.54628530991215,[],"[960, 540]",ColorTask,18.0,26.0,,,HRV,HRV_0062,2022-11-30 18:00:10
,wl-rdm,34,123717,0.0-6.26-0.26,0.0,35.0,,,,,,,[],,,,,,50.0,0.0,u,0.0,True,1224.1000000238419,74.0,60.0,40.0,False,,220.43106538346842,[],"[960, 540]",ColorTask,19.0,27.0,,,HRV,HRV_0062,2022-11-30 18:00:10
,wl-rdm,35,127034,0.0-6.27-0.27,0.0,36.0,,,,,,,[],,,,,,53.2,0.0,u,0.0,True,2018.199999988079,122.0,60.0,40.0,False,,201.59738477441854,[],"[960, 540]",ColorTask,20.0,28.0,,,HRV,HRV_0062,2022-11-30 18:00:10
,wl-rdm,36,129201,0.0-6.28-0.28,0.0,37.0,,,,,,,[],,,,,,73.6,0.0,u,0.0,True,851.3000000119209,52.0,60.0,40.0,False,,248.10067853439077,[],"[960, 540]",ColorTask,21.0,29.0,,,HRV,HRV_0062,2022-11-30 18:00:10
,wl-rdm,37,131567,0.0-6.29-0.29,0.0,38.0,,,,,,,[],,,,,,50.0,0.0,i,1.0,False,1079.1000000238419,65.0,60.0,40.0,False,,210.6351316160316,[],"[960, 540]",ColorTask,20.0,30.0,,,HRV,HRV_0062,2022-11-30 18:00:10
,wl-rdm,38,133650,0.0-6.30-0.30,0.0,39.0,,,,,,,[],,,,,,87.9,0.0,u,0.0,True,740.3999999761581,45.0,60.0,40.0,False,,264.75837397685143,[],"[960, 540]",ColorTask,21.0,31.0,,,HRV,HRV_0062,2022-11-30 18:00:10
,wl-rdm,39,137550,0.0-6.31-0.31,0.0,40.0,,,,,,,[],,,,,,53.2,0.0,u,0.0,True,2464.300000011921,148.0,60.0,40.0,False,,365.10282919729445,[],"[960, 540]",ColorTask,22.0,32.0,,,HRV,HRV_0062,2022-11-30 18:00:10
,wl-rdm,40,139667,0.0-6.32-0.32,0.0,41.0,,,,,,,[],,,,,,62.5,1.0,i,1.0,True,804.5,49.0,60.0,40.0,False,,219.10430514407324,[],"[960, 540]",ColorTask,23.0,33.0,,,HRV,HRV_0062,2022-11-30 18:00:10
,wl-rdm,41,143450,0.0-6.33-0.33,0.0,42.0,,,,,,,[],,,,,,50.0,1.0,u,0.0,False,2392.399999976158,144.0,60.0,40.0,False,,310.7838891871413,[],"[960, 540]",ColorTask,22.0,34.0,,,HRV,HRV_0062,2022-11-30 18:00:10
,wl-rdm,42,146134,0.0-6.34-0.34,0.0,43.0,,,,,,,[],,,,,,56.4,1.0,i,1.0,True,1214.8999999761581,73.0,60.0,40.0,False,,399.3111699317771,[],"[960, 540]",ColorTask,23.0,35.0,,,HRV,HRV_0062,2022-11-30 18:00:10
,wl-rdm,43,148950,0.0-6.35-0.35,0.0,44.0,,,,,,,[],,,,,,62.5,1.0,i,1.0,True,1532.300000011921,92.0,60.0,40.0,False,,228.7146618429632,[],"[960, 540]",ColorTask,24.0,36.0,,,HRV,HRV_0062,2022-11-30 18:00:10
,wl-rdm,44,151067,0.0-6.36-0.36,0.0,45.0,,,,,,,[],,,,,,62.5,1.0,i,1.0,True,777.5999999642372,47.0,60.0,40.0,False,,276.77429117661177,[],"[960, 540]",ColorTask,25.0,37.0,,,HRV,HRV_0062,2022-11-30 18:00:10
,wl-rdm,45,153133,0.0-6.37-0.37,0.0,46.0,,,,,,,[],,,,,,73.6,0.0,u,0.0,True,676.6000000238419,41.0,60.0,40.0,False,,305.955992294188,[],"[960, 540]",ColorTask,26.0,38.0,,,HRV,HRV_0062,2022-11-30 18:00:10
,wl-rdm,46,155317,0.0-6.38-0.38,0.0,47.0,,,,,,,[],,,,,,62.5,1.0,i,1.0,True,725.3999999761581,44.0,60.0,40.0,False,,377.2937683934548,[],"[960, 540]",ColorTask,27.0,39.0,,,HRV,HRV_0062,2022-11-30 18:00:10
,wl-rdm,47,157383,0.0-6.39-0.39,0.0,48.0,,,,,,,[],,,,,,73.6,0.0,u,0.0,True,771.6000000238419,47.0,60.0,40.0,False,,207.6838329256168,[],"[960, 540]",ColorTask,28.0,40.0,,,HRV,HRV_0062,2022-11-30 18:00:10
,wl-rdm,48,159417,0.0-6.40-0.40,0.0,49.0,,,,,,,[],,,,,,56.4,0.0,i,1.0,False,725.7000000476837,44.0,60.0,40.0,False,,232.750127460682,[],"[960, 540]",ColorTask,27.0,41.0,,,HRV,HRV_0062,2022-11-30 18:00:10
,wl-rdm,49,161967,0.0-6.41-0.41,0.0,50.0,,,,,,,[],,,,,,56.4,1.0,i,1.0,True,1193.1000000238419,72.0,60.0,40.0,False,,280.98272989983525,[],"[960, 540]",ColorTask,28.0,42.0,,,HRV,HRV_0062,2022-11-30 18:00:10
,wl-rdm,50,163916,0.0-6.42-0.42,0.0,51.0,,,,,,,[],,,,,,87.9,1.0,i,1.0,True,574.5,35.0,60.0,40.0,False,,284.81239231981453,[],"[960, 540]",ColorTask,29.0,43.0,,,HRV,HRV_0062,2022-11-30 18:00:10
,wl-rdm,51,166400,0.0-6.43-0.43,0.0,52.0,,,,,,,[],,,,,,53.2,0.0,i,1.0,False,1005.5,61.0,60.0,40.0,False,,386.02864041576385,[],"[960, 540]",ColorTask,28.0,44.0,,,HRV,HRV_0062,2022-11-30 18:00:10
,wl-rdm,52,168316,0.0-6.44-0.44,0.0,53.0,,,,,,,[],,,,,,73.6,1.0,i,1.0,True,549.6000000238419,33.0,60.0,40.0,False,,314.20195275020956,[],"[960, 540]",ColorTask,29.0,45.0,,,HRV,HRV_0062,2022-11-30 18:00:10
,wl-rdm,53,170633,0.0-6.45-0.45,0.0,54.0,,,,,,,[],,,,,,62.5,0.0,u,0.0,True,1049.0999999642372,63.0,60.0,40.0,False,,206.19458337882256,[],"[960, 540]",ColorTask,30.0,46.0,,,HRV,HRV_0062,2022-11-30 18:00:10
,wl-rdm,54,172700,0.0-6.46-0.46,0.0,55.0,,,,,,,[],,,,,,53.2,0.0,i,1.0,False,761.8000000119209,46.0,60.0,40.0,False,,233.59775509258986,[],"[960, 540]",ColorTask,29.0,47.0,,,HRV,HRV_0062,2022-11-30 18:00:10
,wl-rdm,55,174666,0.0-6.47-0.47,0.0,56.0,,,,,,,[],,,,,,87.9,0.0,u,0.0,True,543.3999999761581,33.0,60.0,40.0,False,,333.6282092015947,[],"[960, 540]",ColorTask,30.0,48.0,,,HRV,HRV_0062,2022-11-30 18:00:10
,wl-rdm,56,176783,0.0-6.48-0.48,0.0,57.0,,,,,,,[],,,,,,62.5,0.0,u,0.0,True,699.3999999761581,42.0,60.0,40.0,False,,346.8257013881762,[],"[960, 540]",ColorTask,31.0,49.0,,,HRV,HRV_0062,2022-11-30 18:00:10
,wl-rdm,57,180416,0.0-6.49-0.49,0.0,58.0,,,,,,,[],,,,,,56.4,0.0,u,0.0,True,2273.400000035763,137.0,60.0,40.0,False,,274.8405315774288,[],"[960, 540]",ColorTask,32.0,50.0,,,HRV,HRV_0062,2022-11-30 18:00:10
,wl-rdm,58,182349,0.0-6.50-0.50,0.0,59.0,,,,,,,[],,,,,,73.6,0.0,u,0.0,True,636.0999999642372,39.0,60.0,40.0,False,,210.3094214269891,[],"[960, 540]",ColorTask,33.0,51.0,,,HRV,HRV_0062,2022-11-30 18:00:10
,wl-rdm,59,184399,0.0-6.51-0.51,0.0,60.0,,,,,,,[],,,,,,50.0,1.0,i,1.0,True,750.8000000119209,46.0,60.0,40.0,False,,211.72961002843488,[],"[960, 540]",ColorTask,34.0,52.0,,,HRV,HRV_0062,2022-11-30 18:00:10
,wl-rdm,60,186849,0.0-6.52-0.52,0.0,61.0,,,,,,,[],,,,,,56.4,0.0,u,0.0,True,1018.3999999761581,62.0,60.0,40.0,False,,342.169385390662,[],"[960, 540]",ColorTask,35.0,53.0,,,HRV,HRV_0062,2022-11-30 18:00:10
,wl-rdm,61,188732,0.0-6.53-0.53,0.0,62.0,,,,,,,[],,,,,,87.9,1.0,i,1.0,True,590.6999999880791,36.0,60.0,40.0,False,,211.2612118903664,[],"[960, 540]",ColorTask,36.0,54.0,,,HRV,HRV_0062,2022-11-30 18:00:10
,wl-rdm,62,190699,0.0-6.54-0.54,0.0,63.0,,,,,,,[],,,,,,56.4,1.0,i,1.0,True,678.6999999880791,41.0,60.0,40.0,False,,226.95956210626105,[],"[960, 540]",ColorTask,37.0,55.0,,,HRV,HRV_0062,2022-11-30 18:00:10
,wl-rdm,63,192716,0.0-6.55-0.55,0.0,64.0,,,,,,,[],,,,,,87.9,1.0,i,1.0,True,584.6000000238419,36.0,60.0,40.0,False,,333.4419650658127,[],"[960, 540]",ColorTask,38.0,56.0,,,HRV,HRV_0062,2022-11-30 18:00:10
,wl-rdm,64,195049,0.0-6.56-0.56,0.0,65.0,,,,,,,[],,,,,,73.6,1.0,i,1.0,True,1020.5,62.0,60.0,40.0,False,,232.3190899279224,[],"[960, 540]",ColorTask,39.0,57.0,,,HRV,HRV_0062,2022-11-30 18:00:10
,wl-rdm,65,197782,0.0-6.57-0.57,0.0,66.0,,,,,,,[],,,,,,53.2,1.0,i,1.0,True,1313.0,79.0,60.0,40.0,False,,364.8924270087232,[],"[960, 540]",ColorTask,40.0,58.0,,,HRV,HRV_0062,2022-11-30 18:00:10
,wl-rdm,66,200132,0.0-6.58-0.58,0.0,67.0,,,,,,,[],,,,,,73.6,0.0,u,0.0,True,910.6000000238419,55.0,60.0,40.0,False,,350.2416558613297,[],"[960, 540]",ColorTask,41.0,59.0,,,HRV,HRV_0062,2022-11-30 18:00:10
,wl-rdm,67,202365,0.0-6.59-0.59,0.0,68.0,,,,,,,[],,,,,,73.6,0.0,u,0.0,True,920.2999999523163,56.0,60.0,40.0,False,,238.12545983586298,[],"[960, 540]",ColorTask,42.0,60.0,,,HRV,HRV_0062,2022-11-30 18:00:10
,wl-rdm,68,206215,0.0-6.60-0.60,0.0,69.0,,,,,,,[],,,,,,53.2,1.0,u,0.0,False,2403.5,145.0,60.0,40.0,False,,363.5525669948122,[],"[960, 540]",ColorTask,41.0,61.0,,,HRV,HRV_0062,2022-11-30 18:00:10
,wl-rdm,69,208182,0.0-6.61-0.61,0.0,70.0,,,,,,,[],,,,,,53.2,0.0,i,1.0,False,626.3000000119209,38.0,60.0,40.0,False,,262.51245479216027,[],"[960, 540]",ColorTask,40.0,62.0,,,HRV,HRV_0062,2022-11-30 18:00:10
,wl-rdm,70,211082,0.0-6.62-0.62,0.0,71.0,,,,,,,[],,,,,,50.0,1.0,i,1.0,True,1507.699999988079,91.0,60.0,40.0,False,,305.02050244743293,[],"[960, 540]",ColorTask,41.0,63.0,,,HRV,HRV_0062,2022-11-30 18:00:10
,wl-rdm,71,213098,0.0-6.63-0.63,0.0,72.0,,,,,,,[],,,,,,87.9,0.0,u,0.0,True,642.4000000357628,39.0,60.0,40.0,False,,285.2351934490867,[],"[960, 540]",ColorTask,42.0,64.0,,,HRV,HRV_0062,2022-11-30 18:00:10
,wl-rdm,72,215365,0.0-6.64-0.64,0.0,73.0,,,,,,,[],,,,,,56.4,0.0,i,1.0,False,879.3000000119209,53.0,60.0,40.0,False,,321.563991342775,[],"[960, 540]",ColorTask,41.0,65.0,,,HRV,HRV_0062,2022-11-30 18:00:10
,wl-rdm,73,218915,0.0-6.65-0.65,0.0,74.0,,,,,,,[],,,,,,53.2,1.0,i,1.0,True,2230.0,134.0,60.0,40.0,False,,243.5111479261874,[],"[960, 540]",ColorTask,42.0,66.0,,,HRV,HRV_0062,2022-11-30 18:00:10
,wl-rdm,74,220948,0.0-6.66-0.66,0.0,75.0,,,,,,,[],,,,,,73.6,1.0,i,1.0,True,633.0999999642372,38.0,60.0,40.0,False,,347.37772177053836,[],"[960, 540]",ColorTask,43.0,67.0,,,HRV,HRV_0062,2022-11-30 18:00:10
,wl-rdm,75,222982,0.0-6.67-0.67,0.0,76.0,,,,,,,[],,,,,,87.9,0.0,u,0.0,True,619.5,38.0,60.0,40.0,False,,317.65190443775447,[],"[960, 540]",ColorTask,44.0,68.0,,,HRV,HRV_0062,2022-11-30 18:00:10
,wl-rdm,76,224948,0.0-6.68-0.68,0.0,77.0,,,,,,,[],,,,,,87.9,0.0,u,0.0,True,643.5999999642372,39.0,60.0,40.0,False,,249.10764105454422,[],"[960, 540]",ColorTask,45.0,69.0,,,HRV,HRV_0062,2022-11-30 18:00:10
,wl-rdm,77,227265,0.0-6.69-0.69,0.0,78.0,,,,,,,[],,,,,,53.2,1.0,i,1.0,True,977.1999999880791,59.0,60.0,40.0,False,,252.67447169214722,[],"[960, 540]",ColorTask,46.0,70.0,,,HRV,HRV_0062,2022-11-30 18:00:10
,wl-rdm,78,229331,0.0-6.70-0.70,0.0,79.0,,,,,,,[],,,,,,73.6,1.0,i,1.0,True,594.4000000357628,36.0,60.0,40.0,False,,387.5607924903884,[],"[960, 540]",ColorTask,47.0,71.0,,,HRV,HRV_0062,2022-11-30 18:00:10
,wl-rdm,79,231531,0.0-6.71-0.71,0.0,80.0,,,,,,,[],,,,,,56.4,1.0,i,1.0,True,839.6999999880791,51.0,60.0,40.0,False,,299.5694409272817,[],"[960, 540]",ColorTask,48.0,72.0,,,HRV,HRV_0062,2022-11-30 18:00:10
,wl-rdm,80,233531,0.0-6.72-0.72,0.0,81.0,,,,,,,[],,,,,,87.9,0.0,u,0.0,True,628.6000000238419,38.0,60.0,40.0,False,,286.0105741866457,[],"[960, 540]",ColorTask,49.0,73.0,,,HRV,HRV_0062,2022-11-30 18:00:10
,wl-rdm,81,235565,0.0-6.73-0.73,0.0,82.0,,,,,,,[],,,,,,87.9,1.0,i,1.0,True,595.1000000238419,36.0,60.0,40.0,False,,360.17684184820035,[],"[960, 540]",ColorTask,50.0,74.0,,,HRV,HRV_0062,2022-11-30 18:00:10
,wl-rdm,82,237931,0.0-6.74-0.74,0.0,83.0,,,,,,,[],,,,,,50.0,0.0,i,1.0,False,1054.4000000357628,64.0,60.0,40.0,False,,235.38376607207687,[],"[960, 540]",ColorTask,49.0,75.0,,,HRV,HRV_0062,2022-11-30 18:00:10
,wl-rdm,83,240431,0.0-6.75-0.75,0.0,84.0,,,,,,,[],,,,,,53.2,0.0,u,0.0,True,1102.199999988079,67.0,60.0,40.0,False,,307.5320138468802,[],"[960, 540]",ColorTask,50.0,76.0,,,HRV,HRV_0062,2022-11-30 18:00:10
,wl-rdm,84,242432,0.0-6.76-0.76,0.0,85.0,,,,,,,[],,,,,,62.5,0.0,u,0.0,True,659.1000000238419,40.0,60.0,40.0,False,,255.8309570188702,[],"[960, 540]",ColorTask,51.0,77.0,,,HRV,HRV_0062,2022-11-30 18:00:10
,wl-rdm,85,245598,0.0-6.77-0.77,0.0,86.0,,,,,,,[],,,,,,50.0,1.0,u,0.0,False,1786.199999988079,108.0,60.0,40.0,False,,316.4405808279523,[],"[960, 540]",ColorTask,50.0,78.0,,,HRV,HRV_0062,2022-11-30 18:00:10
,wl-rdm,86,248514,0.0-6.78-0.78,0.0,87.0,,,,,,,[],,,,,,50.0,1.0,i,1.0,True,1567.800000011921,95.0,60.0,40.0,False,,256.17311253980205,[],"[960, 540]",ColorTask,51.0,79.0,,,HRV,HRV_0062,2022-11-30 18:00:10
,wl-rdm,87,250864,0.0-6.79-0.79,0.0,88.0,,,,,,,[],,,,,,62.5,0.0,u,0.0,True,878.6999999880791,53.0,60.0,40.0,False,,385.9309090170199,[],"[960, 540]",ColorTask,52.0,80.0,,,HRV,HRV_0062,2022-11-30 18:00:10
,wl-rdm,88,253264,0.0-6.80-0.80,0.0,89.0,,,,,,,[],,,,,,62.5,0.0,u,0.0,True,1086.199999988079,66.0,60.0,40.0,False,,233.29599420611945,[],"[960, 540]",ColorTask,53.0,81.0,,,HRV,HRV_0062,2022-11-30 18:00:10
,wl-rdm,89,255981,0.0-6.81-0.81,0.0,90.0,,,,,,,[],,,,,,56.4,0.0,u,0.0,True,1384.5999999642372,84.0,60.0,40.0,False,,249.56802806256425,[],"[960, 540]",ColorTask,54.0,82.0,,,HRV,HRV_0062,2022-11-30 18:00:10
,wl-rdm,90,258631,0.0-6.82-0.82,0.0,91.0,,,,,,,[],,,,,,62.5,0.0,u,0.0,True,1244.699999988079,75.0,60.0,40.0,False,,320.1969255255937,[],"[960, 540]",ColorTask,55.0,83.0,,,HRV,HRV_0062,2022-11-30 18:00:10
,wl-rdm,91,261014,0.0-6.83-0.83,0.0,92.0,,,,,,,[],,,,,,73.6,0.0,u,0.0,True,1054.300000011921,64.0,60.0,40.0,False,,245.54602904211742,[],"[960, 540]",ColorTask,56.0,84.0,,,HRV,HRV_0062,2022-11-30 18:00:10
,wl-rdm,92,263947,0.0-6.84-0.84,0.0,93.0,,,,,,,[],,,,,,53.2,0.0,u,0.0,True,1480.5,89.0,60.0,40.0,False,,374.41323648486457,[],"[960, 540]",ColorTask,57.0,85.0,,,HRV,HRV_0062,2022-11-30 18:00:10
,wl-rdm,93,265947,0.0-6.85-0.85,0.0,94.0,,,,,,,[],,,,,,56.4,1.0,i,1.0,True,702.9000000357628,43.0,60.0,40.0,False,,216.02334277729227,[],"[960, 540]",ColorTask,58.0,86.0,,,HRV,HRV_0062,2022-11-30 18:00:10
,wl-rdm,94,269097,0.0-6.86-0.86,0.0,95.0,,,,,,,[],,,,,,50.0,1.0,u,0.0,False,1817.4000000357628,110.0,60.0,40.0,False,,237.43486993147565,[],"[960, 540]",ColorTask,57.0,87.0,,,HRV,HRV_0062,2022-11-30 18:00:10
,wl-rdm,95,271114,0.0-6.87-0.87,0.0,96.0,,,,,,,[],,,,,,73.6,1.0,i,1.0,True,632.5,38.0,60.0,40.0,False,,332.16572684450864,[],"[960, 540]",ColorTask,58.0,88.0,,,HRV,HRV_0062,2022-11-30 18:00:10
,wl-rdm,96,273130,0.0-6.88-0.88,0.0,97.0,,,,,,,[],,,,,,87.9,0.0,u,0.0,True,691.9000000357628,42.0,60.0,40.0,False,,247.56324744200145,[],"[960, 540]",ColorTask,59.0,89.0,,,HRV,HRV_0062,2022-11-30 18:00:10
,wl-rdm,97,276047,0.0-6.89-0.89,0.0,98.0,,,,,,,[],,,,,,56.4,0.0,u,0.0,True,1598.0999999642372,96.0,60.0,40.0,False,,238.02523173069395,[],"[960, 540]",ColorTask,60.0,90.0,,,HRV,HRV_0062,2022-11-30 18:00:10
,wl-rdm,98,278097,0.0-6.90-0.90,0.0,99.0,,,,,,,[],,,,,,73.6,1.0,i,1.0,True,686.3000000119209,42.0,60.0,40.0,False,,280.2816108922002,[],"[960, 540]",ColorTask,61.0,91.0,,,HRV,HRV_0062,2022-11-30 18:00:10
,wl-rdm,99,280214,0.0-6.91-0.91,0.0,100.0,,,,,,,[],,,,,,87.9,1.0,u,0.0,False,692.5999999642372,42.0,60.0,40.0,False,,346.1131024264633,[],"[960, 540]",ColorTask,60.0,92.0,,,HRV,HRV_0062,2022-11-30 18:00:10
,wl-rdm,100,282747,0.0-6.92-0.92,0.0,101.0,,,,,,,[],,,,,,53.2,0.0,u,0.0,True,1248.699999988079,75.0,60.0,40.0,False,,228.02876840045695,[],"[960, 540]",ColorTask,61.0,93.0,,,HRV,HRV_0062,2022-11-30 18:00:10
,wl-rdm,101,285513,0.0-6.93-0.93,0.0,102.0,,,,,,,[],,,,,,53.2,1.0,i,1.0,True,1292.6000000238419,78.0,60.0,40.0,False,,393.0130626655564,[],"[960, 540]",ColorTask,62.0,94.0,,,HRV,HRV_0062,2022-11-30 18:00:10
,wl-rdm,102,287497,0.0-6.94-0.94,0.0,103.0,,,,,,,[],,,,,,87.9,1.0,i,1.0,True,571.6000000238419,35.0,60.0,40.0,False,,327.4953759048279,[],"[960, 540]",ColorTask,63.0,95.0,,,HRV,HRV_0062,2022-11-30 18:00:10
,wl-rdm,103,289880,0.0-6.95-0.95,0.0,104.0,,,,,,,[],,,,,,50.0,0.0,i,1.0,False,1062.7000000476837,64.0,60.0,40.0,False,,245.73925211233956,[],"[960, 540]",ColorTask,62.0,96.0,,,HRV,HRV_0062,2022-11-30 18:00:10
,wl-rdm,104,292980,0.0-6.96-0.96,0.0,105.0,,,,,,,[],,,,,,56.4,1.0,i,1.0,True,1713.300000011921,103.0,60.0,40.0,False,,330.3669147798173,[],"[960, 540]",ColorTask,63.0,97.0,,,HRV,HRV_0062,2022-11-30 18:00:10
,wl-rdm,105,295280,0.0-6.97-0.97,0.0,106.0,,,,,,,[],,,,,,73.6,1.0,i,1.0,True,968.3999999761581,59.0,60.0,40.0,False,,241.41554541470666,[],"[960, 540]",ColorTask,64.0,98.0,,,HRV,HRV_0062,2022-11-30 18:00:10
,wl-rdm,106,297330,0.0-6.98-0.98,0.0,107.0,,,,,,,[],,,,,,62.5,0.0,u,0.0,True,764.9000000357628,46.0,60.0,40.0,False,,215.97825181242294,[],"[960, 540]",ColorTask,65.0,99.0,,,HRV,HRV_0062,2022-11-30 18:00:10
,wl-rdm,107,300030,0.0-6.99-0.99,0.0,108.0,,,,,,,[],,,,,,56.4,0.0,u,0.0,True,1353.8999999761581,82.0,60.0,40.0,False,,263.27065618770064,[],"[960, 540]",ColorTask,66.0,100.0,,,HRV,HRV_0062,2022-11-30 18:00:10
,wl-rdm,108,302880,0.0-6.100-0.100,0.0,109.0,,,,,,,[],,,,,,62.5,0.0,u,0.0,True,1456.800000011921,88.0,60.0,40.0,False,,313.62853505960913,[],"[960, 540]",ColorTask,67.0,101.0,,,HRV,HRV_0062,2022-11-30 18:00:10
,wl-rdm,109,304863,0.0-6.101-0.101,0.0,110.0,,,,,,,[],,,,,,87.9,0.0,u,0.0,True,662.8000000119209,40.0,60.0,40.0,False,,247.72241978444856,[],"[960, 540]",ColorTask,68.0,102.0,,,HRV,HRV_0062,2022-11-30 18:00:10
,wl-rdm,110,307130,0.0-6.102-0.102,0.0,111.0,,,,,,,[],,,,,,56.4,1.0,i,1.0,True,886.3000000119209,54.0,60.0,40.0,False,,287.6012945976746,[],"[960, 540]",ColorTask,69.0,103.0,,,HRV,HRV_0062,2022-11-30 18:00:10
,wl-rdm,111,310113,0.0-6.103-0.103,0.0,112.0,,,,,,,[],,,,,,56.4,1.0,u,0.0,False,1606.5,97.0,60.0,40.0,False,,287.61351893705967,[],"[960, 540]",ColorTask,68.0,104.0,,,HRV,HRV_0062,2022-11-30 18:00:10
,wl-rdm,112,312879,0.0-6.104-0.104,0.0,113.0,,,,,,,[],,,,,,53.2,0.0,u,0.0,True,1300.300000011921,79.0,60.0,40.0,False,,376.06530272540965,[],"[960, 540]",ColorTask,69.0,105.0,,,HRV,HRV_0062,2022-11-30 18:00:10
,wl-rdm,113,314963,0.0-6.105-0.105,0.0,114.0,,,,,,,[],,,,,,87.9,1.0,i,1.0,True,630.6000000238419,38.0,60.0,40.0,False,,366.93363009221883,[],"[960, 540]",ColorTask,70.0,106.0,,,HRV,HRV_0062,2022-11-30 18:00:10
,wl-rdm,114,317146,0.0-6.106-0.106,0.0,115.0,,,,,,,[],,,,,,62.5,1.0,i,1.0,True,863.3999999761581,52.0,60.0,40.0,False,,238.6421998458747,[],"[960, 540]",ColorTask,71.0,107.0,,,HRV,HRV_0062,2022-11-30 18:00:10
,wl-rdm,115,319963,0.0-6.107-0.107,0.0,116.0,,,,,,,[],,,,,,50.0,1.0,i,1.0,True,1365.8999999761581,82.0,60.0,40.0,False,,374.2093135587841,[],"[960, 540]",ColorTask,72.0,108.0,,,HRV,HRV_0062,2022-11-30 18:00:10
,wl-html-keyboard-response,116,327067,0.0-7.0-0.0,1.0,117.0,,,,,,,,5096.099999964237,1.0,0,,,,,,,,,,,,,,,,,,,,,,HRV,HRV_0062,2022-11-30 18:00:10
,wl-rdm,117,329873,0.0-8.0-0.0,1.0,118.0,,,,,,,[],,,,,,50.0,1.0,i,1.0,True,1512.6000000238419,91.0,60.0,40.0,False,,231.04417174234848,[],"[960, 540]",ColorTask,73.0,1.0,,,HRV,HRV_0062,2022-11-30 18:00:10
,wl-rdm,118,331923,0.0-8.1-0.1,1.0,119.0,,,,,,,[],,,,,,73.6,0.0,u,0.0,True,760.6999999284744,46.0,60.0,40.0,False,,207.7901060904862,[],"[960, 540]",ColorTask,74.0,2.0,,,HRV,HRV_0062,2022-11-30 18:00:10
,wl-rdm,119,334389,0.0-8.2-0.2,1.0,120.0,,,,,,,[],,,,,,56.4,0.0,u,0.0,True,1157.199999988079,70.0,60.0,40.0,False,,242.52007419974683,[],"[960, 540]",ColorTask,75.0,3.0,,,HRV,HRV_0062,2022-11-30 18:00:10
,wl-rdm,120,337623,0.0-8.3-0.3,1.0,121.0,,,,,,,[],,,,,,62.5,1.0,i,1.0,True,1818.4000000357628,110.0,60.0,40.0,False,,318.3649728810285,[],"[960, 540]",ColorTask,76.0,4.0,,,HRV,HRV_0062,2022-11-30 18:00:10
,wl-rdm,121,339706,0.0-8.4-0.4,1.0,122.0,,,,,,,[],,,,,,73.6,1.0,i,1.0,True,794.6000000238419,48.0,60.0,40.0,False,,216.57418820684225,[],"[960, 540]",ColorTask,77.0,5.0,,,HRV,HRV_0062,2022-11-30 18:00:10
,wl-rdm,122,341623,0.0-8.5-0.5,1.0,123.0,,,,,,,[],,,,,,87.9,0.0,u,0.0,True,625.3000000119209,38.0,60.0,40.0,False,,213.73919715356823,[],"[960, 540]",ColorTask,78.0,6.0,,,HRV,HRV_0062,2022-11-30 18:00:10
,wl-rdm,123,343606,0.0-8.6-0.6,1.0,124.0,,,,,,,[],,,,,,50.0,0.0,u,0.0,True,646.0,39.0,60.0,40.0,False,,270.8254678532538,[],"[960, 540]",ColorTask,79.0,7.0,,,HRV,HRV_0062,2022-11-30 18:00:10
,wl-rdm,124,345522,0.0-8.7-0.7,1.0,125.0,,,,,,,[],,,,,,53.2,0.0,u,0.0,True,647.4000000357628,39.0,60.0,40.0,False,,202.90408233247592,[],"[960, 540]",ColorTask,80.0,8.0,,,HRV,HRV_0062,2022-11-30 18:00:10
,wl-rdm,125,347456,0.0-8.8-0.8,1.0,126.0,,,,,,,[],,,,,,50.0,0.0,u,0.0,True,578.0,35.0,60.0,40.0,False,,281.15720874892156,[],"[960, 540]",ColorTask,81.0,9.0,,,HRV,HRV_0062,2022-11-30 18:00:10
,wl-rdm,126,349456,0.0-8.9-0.9,1.0,127.0,,,,,,,[],,,,,,73.6,0.0,u,0.0,True,671.1999999880791,41.0,60.0,40.0,False,,240.8664200429738,[],"[960, 540]",ColorTask,82.0,10.0,,,HRV,HRV_0062,2022-11-30 18:00:10
,wl-rdm,127,351522,0.0-8.10-0.10,1.0,128.0,,,,,,,[],,,,,,50.0,0.0,i,1.0,False,733.6000000238419,45.0,60.0,40.0,False,,250.30378287986582,[],"[960, 540]",ColorTask,81.0,11.0,,,HRV,HRV_0062,2022-11-30 18:00:10
,wl-rdm,128,353589,0.0-8.11-0.11,1.0,129.0,,,,,,,[],,,,,,62.5,1.0,i,1.0,True,646.6000000238419,39.0,60.0,40.0,False,,349.3358940105827,[],"[960, 540]",ColorTask,82.0,12.0,,,HRV,HRV_0062,2022-11-30 18:00:10
,wl-rdm,129,355689,0.0-8.12-0.12,1.0,130.0,,,,,,,[],,,,,,87.9,0.0,u,0.0,True,689.7000000476837,42.0,60.0,40.0,False,,331.17891036500055,[],"[960, 540]",ColorTask,83.0,13.0,,,HRV,HRV_0062,2022-11-30 18:00:10
,wl-rdm,130,357806,0.0-8.13-0.13,1.0,131.0,,,,,,,[],,,,,,62.5,1.0,i,1.0,True,799.1999999880791,48.0,60.0,40.0,False,,264.8405472446525,[],"[960, 540]",ColorTask,84.0,14.0,,,HRV,HRV_0062,2022-11-30 18:00:10
,wl-rdm,131,360739,0.0-8.14-0.14,1.0,132.0,,,,,,,[],,,,,,50.0,1.0,u,0.0,False,1473.5,89.0,60.0,40.0,False,,387.68641950541485,[],"[960, 540]",ColorTask,83.0,15.0,,,HRV,HRV_0062,2022-11-30 18:00:10
,wl-rdm,132,363089,0.0-8.15-0.15,1.0,133.0,,,,,,,[],,,,,,50.0,1.0,i,1.0,True,1054.300000011921,64.0,60.0,40.0,False,,209.32475370756933,[],"[960, 540]",ColorTask,84.0,16.0,,,HRV,HRV_0062,2022-11-30 18:00:10
,wl-rdm,133,365172,0.0-8.16-0.16,1.0,134.0,,,,,,,[],,,,,,73.6,0.0,u,0.0,True,713.1000000238419,43.0,60.0,40.0,False,,294.95492682830934,[],"[960, 540]",ColorTask,85.0,17.0,,,HRV,HRV_0062,2022-11-30 18:00:10
,wl-rdm,134,367839,0.0-8.17-0.17,1.0,135.0,,,,,,,[],,,,,,56.4,1.0,i,1.0,True,1306.5999999642372,79.0,60.0,40.0,False,,271.32033922131495,[],"[960, 540]",ColorTask,86.0,18.0,,,HRV,HRV_0062,2022-11-30 18:00:10
,wl-rdm,135,369822,0.0-8.18-0.18,1.0,136.0,,,,,,,[],,,,,,50.0,0.0,i,1.0,False,661.0,40.0,60.0,40.0,False,,245.9002578241473,[],"[960, 540]",ColorTask,85.0,19.0,,,HRV,HRV_0062,2022-11-30 18:00:10
,wl-rdm,136,371872,0.0-8.19-0.19,1.0,137.0,,,,,,,[],,,,,,73.6,1.0,i,1.0,True,681.0,41.0,60.0,40.0,False,,287.76761294441815,[],"[960, 540]",ColorTask,86.0,20.0,,,HRV,HRV_0062,2022-11-30 18:00:10
,wl-rdm,137,373939,0.0-8.20-0.20,1.0,138.0,,,,,,,[],,,,,,87.9,0.0,u,0.0,True,593.7999999523163,36.0,60.0,40.0,False,,392.25783779948506,[],"[960, 540]",ColorTask,87.0,21.0,,,HRV,HRV_0062,2022-11-30 18:00:10
,wl-rdm,138,376205,0.0-8.21-0.21,1.0,139.0,,,,,,,[],,,,,,53.2,1.0,i,1.0,True,814.1000000238419,49.0,60.0,40.0,False,,392.73701367832876,[],"[960, 540]",ColorTask,88.0,22.0,,,HRV,HRV_0062,2022-11-30 18:00:10
,wl-rdm,139,378639,0.0-8.22-0.22,1.0,140.0,,,,,,,[],,,,,,62.5,0.0,u,0.0,True,1120.1000000238419,68.0,60.0,40.0,False,,226.13772449050327,[],"[960, 540]",ColorTask,89.0,23.0,,,HRV,HRV_0062,2022-11-30 18:00:10
,wl-rdm,140,381922,0.0-8.23-0.23,1.0,141.0,,,,,,,[],,,,,,50.0,1.0,u,0.0,False,1901.2999999523163,115.0,60.0,40.0,False,,293.1111730348197,[],"[960, 540]",ColorTask,88.0,24.0,,,HRV,HRV_0062,2022-11-30 18:00:10
,wl-rdm,141,383822,0.0-8.24-0.24,1.0,142.0,,,,,,,[],,,,,,87.9,1.0,u,0.0,False,604.3000000119209,37.0,60.0,40.0,False,,213.46279109630703,[],"[960, 540]",ColorTask,87.0,25.0,,,HRV,HRV_0062,2022-11-30 18:00:10
,wl-rdm,142,386922,0.0-8.25-0.25,1.0,143.0,,,,,,,[],,,,,,56.4,1.0,i,1.0,True,1707.4000000357628,103.0,60.0,40.0,False,,301.86837308445206,[],"[960, 540]",ColorTask,88.0,26.0,,,HRV,HRV_0062,2022-11-30 18:00:10
,wl-rdm,143,388938,0.0-8.26-0.26,1.0,144.0,,,,,,,[],,,,,,87.9,0.0,u,0.0,True,708.8000000119209,43.0,60.0,40.0,False,,219.99183027999734,[],"[960, 540]",ColorTask,89.0,27.0,,,HRV,HRV_0062,2022-11-30 18:00:10
,wl-rdm,144,392605,0.0-8.27-0.27,1.0,145.0,,,,,,,[],,,,,,53.2,1.0,u,0.0,False,2244.699999988079,135.0,60.0,40.0,False,,339.90667902202824,[],"[960, 540]",ColorTask,88.0,28.0,,,HRV,HRV_0062,2022-11-30 18:00:10
,wl-rdm,145,394738,0.0-8.28-0.28,1.0,146.0,,,,,,,[],,,,,,73.6,0.0,u,0.0,True,814.6999999880791,49.0,60.0,40.0,False,,249.92453499543512,[],"[960, 540]",ColorTask,89.0,29.0,,,HRV,HRV_0062,2022-11-30 18:00:10
,wl-rdm,146,397055,0.0-8.29-0.29,1.0,147.0,,,,,,,[],,,,,,53.2,1.0,i,1.0,True,998.4000000357628,60.0,60.0,40.0,False,,249.8649561937576,[],"[960, 540]",ColorTask,90.0,30.0,,,HRV,HRV_0062,2022-11-30 18:00:10
,wl-rdm,147,400172,0.0-8.30-0.30,1.0,148.0,,,,,,,[],,,,,,56.4,0.0,i,1.0,False,1687.1000000238419,102.0,60.0,40.0,False,,353.57359192525985,[],"[960, 540]",ColorTask,89.0,31.0,,,HRV,HRV_0062,2022-11-30 18:00:10
,wl-rdm,148,402121,0.0-8.31-0.31,1.0,149.0,,,,,,,[],,,,,,73.6,1.0,i,1.0,True,648.8999999761581,39.0,60.0,40.0,False,,222.97105965368337,[],"[960, 540]",ColorTask,90.0,32.0,,,HRV,HRV_0062,2022-11-30 18:00:10
,wl-rdm,149,404621,0.0-8.32-0.32,1.0,150.0,,,,,,,[],,,,,,62.5,0.0,u,0.0,True,1060.699999988079,64.0,60.0,40.0,False,,364.9914183362346,[],"[960, 540]",ColorTask,91.0,33.0,,,HRV,HRV_0062,2022-11-30 18:00:10
,wl-rdm,150,407055,0.0-8.33-0.33,1.0,151.0,,,,,,,[],,,,,,62.5,1.0,i,1.0,True,1077.300000011921,65.0,60.0,40.0,False,,283.52679651120707,[],"[960, 540]",ColorTask,92.0,34.0,,,HRV,HRV_0062,2022-11-30 18:00:10
,wl-rdm,151,409855,0.0-8.34-0.34,1.0,152.0,,,,,,,[],,,,,,56.4,0.0,i,1.0,False,1356.199999988079,82.0,60.0,40.0,False,,360.72179294919727,[],"[960, 540]",ColorTask,91.0,35.0,,,HRV,HRV_0062,2022-11-30 18:00:10
,wl-rdm,152,411855,0.0-8.35-0.35,1.0,153.0,,,,,,,[],,,,,,87.9,1.0,i,1.0,True,609.3000000119209,37.0,60.0,40.0,False,,302.21284085297884,[],"[960, 540]",ColorTask,92.0,36.0,,,HRV,HRV_0062,2022-11-30 18:00:10
,wl-rdm,153,413855,0.0-8.36-0.36,1.0,154.0,,,,,,,[],,,,,,73.6,1.0,i,1.0,True,629.8999999761581,38.0,60.0,40.0,False,,292.97551667903645,[],"[960, 540]",ColorTask,93.0,37.0,,,HRV,HRV_0062,2022-11-30 18:00:10
,wl-rdm,154,415755,0.0-8.37-0.37,1.0,155.0,,,,,,,[],,,,,,73.6,1.0,i,1.0,True,564.8999999761581,34.0,60.0,40.0,False,,267.1086079761397,[],"[960, 540]",ColorTask,94.0,38.0,,,HRV,HRV_0062,2022-11-30 18:00:10
,wl-rdm,155,417921,0.0-8.38-0.38,1.0,156.0,,,,,,,[],,,,,,56.4,0.0,u,0.0,True,836.1000000238419,51.0,60.0,40.0,False,,236.04481164395682,[],"[960, 540]",ColorTask,95.0,39.0,,,HRV,HRV_0062,2022-11-30 18:00:10
,wl-rdm,156,419954,0.0-8.39-0.39,1.0,157.0,,,,,,,[],,,,,,62.5,1.0,i,1.0,True,717.3999999761581,44.0,60.0,40.0,False,,249.30479483788778,[],"[960, 540]",ColorTask,96.0,40.0,,,HRV,HRV_0062,2022-11-30 18:00:10
,wl-rdm,157,422088,0.0-8.40-0.40,1.0,158.0,,,,,,,[],,,,,,56.4,1.0,i,1.0,True,704.3999999761581,43.0,60.0,40.0,False,,356.5885500224341,[],"[960, 540]",ColorTask,97.0,41.0,,,HRV,HRV_0062,2022-11-30 18:00:10
,wl-rdm,158,424205,0.0-8.41-0.41,1.0,159.0,,,,,,,[],,,,,,56.4,0.0,u,0.0,True,669.0999999642372,41.0,60.0,40.0,False,,355.608786100636,[],"[960, 540]",ColorTask,98.0,42.0,,,HRV,HRV_0062,2022-11-30 18:00:10
,wl-rdm,159,426405,0.0-8.42-0.42,1.0,160.0,,,,,,,[],,,,,,53.2,0.0,u,0.0,True,731.3000000119209,44.0,60.0,40.0,False,,398.4561948457963,[],"[960, 540]",ColorTask,99.0,43.0,,,HRV,HRV_0062,2022-11-30 18:00:10
,wl-rdm,160,428338,0.0-8.43-0.43,1.0,161.0,,,,,,,[],,,,,,73.6,1.0,i,1.0,True,610.1999999880791,37.0,60.0,40.0,False,,244.51560317772658,[],"[960, 540]",ColorTask,100.0,44.0,,,HRV,HRV_0062,2022-11-30 18:00:10
,wl-rdm,161,430321,0.0-8.44-0.44,1.0,162.0,,,,,,,[],,,,,,73.6,0.0,u,0.0,True,698.1999999880791,42.0,60.0,40.0,False,,206.48805466202595,[],"[960, 540]",ColorTask,101.0,45.0,,,HRV,HRV_0062,2022-11-30 18:00:10
,wl-rdm,162,432771,0.0-8.45-0.45,1.0,163.0,,,,,,,[],,,,,,50.0,1.0,i,1.0,True,1166.0999999642372,70.0,60.0,40.0,False,,211.80098102128397,[],"[960, 540]",ColorTask,102.0,46.0,,,HRV,HRV_0062,2022-11-30 18:00:10
,wl-rdm,163,435137,0.0-8.46-0.46,1.0,164.0,,,,,,,[],,,,,,50.0,1.0,i,1.0,True,993.6999999880791,60.0,60.0,40.0,False,,293.756697796035,[],"[960, 540]",ColorTask,103.0,47.0,,,HRV,HRV_0062,2022-11-30 18:00:10
,wl-rdm,164,437937,0.0-8.47-0.47,1.0,165.0,,,,,,,[],,,,,,53.2,1.0,i,1.0,True,1486.800000011921,90.0,60.0,40.0,False,,221.8616708611404,[],"[960, 540]",ColorTask,104.0,48.0,,,HRV,HRV_0062,2022-11-30 18:00:10
,wl-rdm,165,440421,0.0-8.48-0.48,1.0,166.0,,,,,,,[],,,,,,53.2,0.0,u,0.0,True,1167.7999999523163,71.0,60.0,40.0,False,,226.04456265665644,[],"[960, 540]",ColorTask,105.0,49.0,,,HRV,HRV_0062,2022-11-30 18:00:10
,wl-rdm,166,443587,0.0-8.49-0.49,1.0,167.0,,,,,,,[],,,,,,56.4,1.0,i,1.0,True,1877.1000000238419,113.0,60.0,40.0,False,,209.33102464990316,[],"[960, 540]",ColorTask,106.0,50.0,,,HRV,HRV_0062,2022-11-30 18:00:10
,wl-rdm,167,447204,0.0-8.50-0.50,1.0,168.0,,,,,,,[],,,,,,50.0,1.0,i,1.0,True,2232.900000035763,134.0,60.0,40.0,False,,321.21907988023816,[],"[960, 540]",ColorTask,107.0,51.0,,,HRV,HRV_0062,2022-11-30 18:00:10
,wl-rdm,168,449954,0.0-8.51-0.51,1.0,169.0,,,,,,,[],,,,,,56.4,1.0,i,1.0,True,1347.5,81.0,60.0,40.0,False,,344.37363637828616,[],"[960, 540]",ColorTask,108.0,52.0,,,HRV,HRV_0062,2022-11-30 18:00:10
,wl-rdm,169,452020,0.0-8.52-0.52,1.0,170.0,,,,,,,[],,,,,,62.5,1.0,i,1.0,True,712.2000000476837,43.0,60.0,40.0,False,,273.99537617329776,[],"[960, 540]",ColorTask,109.0,53.0,,,HRV,HRV_0062,2022-11-30 18:00:10
,wl-rdm,170,454237,0.0-8.53-0.53,1.0,171.0,,,,,,,[],,,,,,56.4,0.0,i,1.0,False,925.2000000476837,56.0,60.0,40.0,False,,205.60133773091377,[],"[960, 540]",ColorTask,108.0,54.0,,,HRV,HRV_0062,2022-11-30 18:00:10
,wl-rdm,171,456504,0.0-8.54-0.54,1.0,172.0,,,,,,,[],,,,,,53.2,0.0,u,0.0,True,913.0,55.0,60.0,40.0,False,,269.0769583108183,[],"[960, 540]",ColorTask,109.0,55.0,,,HRV,HRV_0062,2022-11-30 18:00:10
,wl-rdm,172,459087,0.0-8.55-0.55,1.0,173.0,,,,,,,[],,,,,,62.5,0.0,u,0.0,True,1231.1000000238419,74.0,60.0,40.0,False,,281.06661727165636,[],"[960, 540]",ColorTask,110.0,56.0,,,HRV,HRV_0062,2022-11-30 18:00:10
,wl-rdm,173,461254,0.0-8.56-0.56,1.0,174.0,,,,,,,[],,,,,,87.9,1.0,i,1.0,True,733.7999999523163,45.0,60.0,40.0,False,,335.7977442858694,[],"[960, 540]",ColorTask,111.0,57.0,,,HRV,HRV_0062,2022-11-30 18:00:10
,wl-rdm,174,464287,0.0-8.57-0.57,1.0,175.0,,,,,,,[],,,,,,56.4,1.0,i,1.0,True,1712.0,103.0,60.0,40.0,False,,260.7878947210443,[],"[960, 540]",ColorTask,112.0,58.0,,,HRV,HRV_0062,2022-11-30 18:00:10
,wl-rdm,175,466270,0.0-8.58-0.58,1.0,176.0,,,,,,,[],,,,,,73.6,1.0,i,1.0,True,671.0,41.0,60.0,40.0,False,,222.29994044809,[],"[960, 540]",ColorTask,113.0,59.0,,,HRV,HRV_0062,2022-11-30 18:00:10
,wl-rdm,176,468337,0.0-8.59-0.59,1.0,177.0,,,,,,,[],,,,,,87.9,0.0,u,0.0,True,615.8000000119209,37.0,60.0,40.0,False,,371.36567207862356,[],"[960, 540]",ColorTask,114.0,60.0,,,HRV,HRV_0062,2022-11-30 18:00:10
,wl-rdm,177,470920,0.0-8.60-0.60,1.0,178.0,,,,,,,[],,,,,,53.2,0.0,i,1.0,False,1182.8999999761581,71.0,60.0,40.0,False,,330.88690480292536,[],"[960, 540]",ColorTask,113.0,61.0,,,HRV,HRV_0062,2022-11-30 18:00:10
,wl-rdm,178,473453,0.0-8.61-0.61,1.0,179.0,,,,,,,[],,,,,,53.2,0.0,u,0.0,True,1206.6000000238419,73.0,60.0,40.0,False,,255.4832083785231,[],"[960, 540]",ColorTask,114.0,62.0,,,HRV,HRV_0062,2022-11-30 18:00:10
,wl-rdm,179,475853,0.0-8.62-0.62,1.0,180.0,,,,,,,[],,,,,,62.5,1.0,i,1.0,True,1115.199999988079,67.0,60.0,40.0,False,,215.0776487734018,[],"[960, 540]",ColorTask,115.0,63.0,,,HRV,HRV_0062,2022-11-30 18:00:10
,wl-rdm,180,478387,0.0-8.63-0.63,1.0,181.0,,,,,,,[],,,,,,62.5,1.0,i,1.0,True,1190.0,72.0,60.0,40.0,False,,254.3348720425124,[],"[960, 540]",ColorTask,116.0,64.0,,,HRV,HRV_0062,2022-11-30 18:00:10
,wl-rdm,181,481020,0.0-8.64-0.64,1.0,182.0,,,,,,,[],,,,,,62.5,0.0,u,0.0,True,1336.7999999523163,81.0,60.0,40.0,False,,212.17660062187184,[],"[960, 540]",ColorTask,117.0,65.0,,,HRV,HRV_0062,2022-11-30 18:00:10
,wl-rdm,182,483070,0.0-8.65-0.65,1.0,183.0,,,,,,,[],,,,,,87.9,0.0,u,0.0,True,651.5999999642372,40.0,60.0,40.0,False,,305.0567975217405,[],"[960, 540]",ColorTask,118.0,66.0,,,HRV,HRV_0062,2022-11-30 18:00:10
,wl-rdm,183,485170,0.0-8.66-0.66,1.0,184.0,,,,,,,[],,,,,,87.9,1.0,i,1.0,True,659.6999999880791,40.0,60.0,40.0,False,,360.81614367646023,[],"[960, 540]",ColorTask,119.0,67.0,,,HRV,HRV_0062,2022-11-30 18:00:10
,wl-rdm,184,487053,0.0-8.67-0.67,1.0,185.0,,,,,,,[],,,,,,87.9,1.0,i,1.0,True,547.7000000476837,33.0,60.0,40.0,False,,251.83867601648228,[],"[960, 540]",ColorTask,120.0,68.0,,,HRV,HRV_0062,2022-11-30 18:00:10
,wl-rdm,185,488936,0.0-8.68-0.68,1.0,186.0,,,,,,,[],,,,,,73.6,1.0,i,1.0,True,551.0000000596046,34.0,60.0,40.0,False,,237.6678469898859,[],"[960, 540]",ColorTask,121.0,69.0,,,HRV,HRV_0062,2022-11-30 18:00:10
,wl-rdm,186,490920,0.0-8.69-0.69,1.0,187.0,,,,,,,[],,,,,,73.6,1.0,i,1.0,True,556.6000000238419,34.0,60.0,40.0,False,,349.50749298347813,[],"[960, 540]",ColorTask,122.0,70.0,,,HRV,HRV_0062,2022-11-30 18:00:10
,wl-rdm,187,493003,0.0-8.70-0.70,1.0,188.0,,,,,,,[],,,,,,53.2,1.0,u,0.0,False,772.0,47.0,60.0,40.0,False,,222.0222893327954,[],"[960, 540]",ColorTask,121.0,71.0,,,HRV,HRV_0062,2022-11-30 18:00:10
,wl-rdm,188,495520,0.0-8.71-0.71,1.0,189.0,,,,,,,[],,,,,,62.5,0.0,u,0.0,True,1245.5,75.0,60.0,40.0,False,,212.85760444078866,[],"[960, 540]",ColorTask,122.0,72.0,,,HRV,HRV_0062,2022-11-30 18:00:10
,wl-rdm,189,497453,0.0-8.72-0.72,1.0,190.0,,,,,,,[],,,,,,87.9,0.0,u,0.0,True,641.0,39.0,60.0,40.0,False,,231.85801131434852,[],"[960, 540]",ColorTask,123.0,73.0,,,HRV,HRV_0062,2022-11-30 18:00:10
,wl-rdm,190,499536,0.0-8.73-0.73,1.0,191.0,,,,,,,[],,,,,,53.2,1.0,i,1.0,True,755.1000000238419,46.0,60.0,40.0,False,,243.10974079655603,[],"[960, 540]",ColorTask,124.0,74.0,,,HRV,HRV_0062,2022-11-30 18:00:10
,wl-rdm,191,501403,0.0-8.74-0.74,1.0,192.0,,,,,,,[],,,,,,87.9,1.0,i,1.0,True,544.9000000357628,33.0,60.0,40.0,False,,234.82310576868443,[],"[960, 540]",ColorTask,125.0,75.0,,,HRV,HRV_0062,2022-11-30 18:00:10
,wl-rdm,192,503253,0.0-8.75-0.75,1.0,193.0,,,,,,,[],,,,,,87.9,1.0,i,1.0,True,549.6999999880791,33.0,60.0,40.0,False,,230.46202775279951,[],"[960, 540]",ColorTask,126.0,76.0,,,HRV,HRV_0062,2022-11-30 18:00:10
,wl-rdm,193,505703,0.0-8.76-0.76,1.0,194.0,,,,,,,[],,,,,,53.2,0.0,u,0.0,True,1001.6000000238419,61.0,60.0,40.0,False,,353.6185835289981,[],"[960, 540]",ColorTask,127.0,77.0,,,HRV,HRV_0062,2022-11-30 18:00:10
,wl-rdm,194,507619,0.0-8.77-0.77,1.0,195.0,,,,,,,[],,,,,,87.9,1.0,i,1.0,True,563.8000000119209,34.0,60.0,40.0,False,,267.19062629985945,[],"[960, 540]",ColorTask,128.0,78.0,,,HRV,HRV_0062,2022-11-30 18:00:10
,wl-rdm,195,509819,0.0-8.78-0.78,1.0,196.0,,,,,,,[],,,,,,50.0,0.0,u,0.0,True,884.3000000119209,54.0,60.0,40.0,False,,221.92341873336892,[],"[960, 540]",ColorTask,129.0,79.0,,,HRV,HRV_0062,2022-11-30 18:00:10
,wl-rdm,196,511869,0.0-8.79-0.79,1.0,197.0,,,,,,,[],,,,,,73.6,0.0,u,0.0,True,628.9000000357628,38.0,60.0,40.0,False,,359.32002332286993,[],"[960, 540]",ColorTask,130.0,80.0,,,HRV,HRV_0062,2022-11-30 18:00:10
,wl-rdm,197,514436,0.0-8.80-0.80,1.0,198.0,,,,,,,[],,,,,,56.4,1.0,i,1.0,True,1119.1000000238419,68.0,60.0,40.0,False,,351.00255870401656,[],"[960, 540]",ColorTask,131.0,81.0,,,HRV,HRV_0062,2022-11-30 18:00:10
,wl-rdm,198,517852,0.0-8.81-0.81,1.0,199.0,,,,,,,[],,,,,,53.2,0.0,i,1.0,False,2115.900000035763,127.0,60.0,40.0,False,,228.01189507551268,[],"[960, 540]",ColorTask,130.0,82.0,,,HRV,HRV_0062,2022-11-30 18:00:10
,wl-rdm,199,520552,0.0-8.82-0.82,1.0,200.0,,,,,,,[],,,,,,53.2,1.0,u,0.0,False,1304.7000000476837,79.0,60.0,40.0,False,,306.32853905933155,[],"[960, 540]",ColorTask,129.0,83.0,,,HRV,HRV_0062,2022-11-30 18:00:10
,wl-rdm,200,523969,0.0-8.83-0.83,1.0,201.0,,,,,,,[],,,,,,50.0,0.0,i,1.0,False,2135.5,129.0,60.0,40.0,False,,214.78603032681966,[],"[960, 540]",ColorTask,128.0,84.0,,,HRV,HRV_0062,2022-11-30 18:00:10
,wl-rdm,201,526136,0.0-8.84-0.84,1.0,202.0,,,,,,,[],,,,,,73.6,0.0,u,0.0,True,704.3000000119209,43.0,60.0,40.0,False,,383.495077725485,[],"[960, 540]",ColorTask,129.0,85.0,,,HRV,HRV_0062,2022-11-30 18:00:10
,wl-rdm,202,528336,0.0-8.85-0.85,1.0,203.0,,,,,,,[],,,,,,62.5,1.0,i,1.0,True,883.3999999761581,53.0,60.0,40.0,False,,240.5290425817721,[],"[960, 540]",ColorTask,130.0,86.0,,,HRV,HRV_0062,2022-11-30 18:00:10
,wl-rdm,203,530586,0.0-8.86-0.86,1.0,204.0,,,,,,,[],,,,,,87.9,0.0,u,0.0,True,775.1999999880791,47.0,60.0,40.0,False,,384.401505711907,[],"[960, 540]",ColorTask,131.0,87.0,,,HRV,HRV_0062,2022-11-30 18:00:10
,wl-rdm,204,532802,0.0-8.87-0.87,1.0,205.0,,,,,,,[],,,,,,50.0,0.0,i,1.0,False,904.6999999880791,55.0,60.0,40.0,False,,224.0294848503037,[],"[960, 540]",ColorTask,130.0,88.0,,,HRV,HRV_0062,2022-11-30 18:00:10
,wl-rdm,205,534902,0.0-8.88-0.88,1.0,206.0,,,,,,,[],,,,,,73.6,0.0,u,0.0,True,679.6000000238419,41.0,60.0,40.0,False,,340.3611406887178,[],"[960, 540]",ColorTask,131.0,89.0,,,HRV,HRV_0062,2022-11-30 18:00:10
,wl-rdm,206,537619,0.0-8.89-0.89,1.0,207.0,,,,,,,[],,,,,,56.4,0.0,u,0.0,True,1281.8999999761581,77.0,60.0,40.0,False,,360.8283551842664,[],"[960, 540]",ColorTask,132.0,90.0,,,HRV,HRV_0062,2022-11-30 18:00:10
,wl-rdm,207,539919,0.0-8.90-0.90,1.0,208.0,,,,,,,[],,,,,,62.5,0.0,u,0.0,True,969.2000000476837,59.0,60.0,40.0,False,,235.63625282869162,[],"[960, 540]",ColorTask,133.0,91.0,,,HRV,HRV_0062,2022-11-30 18:00:10
,wl-rdm,208,541952,0.0-8.91-0.91,1.0,209.0,,,,,,,[],,,,,,62.5,0.0,u,0.0,True,740.3999999761581,45.0,60.0,40.0,False,,209.00766829012775,[],"[960, 540]",ColorTask,134.0,92.0,,,HRV,HRV_0062,2022-11-30 18:00:10
,wl-rdm,209,544502,0.0-8.92-0.92,1.0,210.0,,,,,,,[],,,,,,53.2,1.0,i,1.0,True,1107.0999999642372,67.0,60.0,40.0,False,,364.2888653484708,[],"[960, 540]",ColorTask,135.0,93.0,,,HRV,HRV_0062,2022-11-30 18:00:10
,wl-rdm,210,547501,0.0-8.93-0.93,1.0,211.0,,,,,,,[],,,,,,50.0,1.0,i,1.0,True,1659.2000000476837,100.0,60.0,40.0,False,,257.29316494610055,[],"[960, 540]",ColorTask,136.0,94.0,,,HRV,HRV_0062,2022-11-30 18:00:10
,wl-rdm,211,549518,0.0-8.94-0.94,1.0,212.0,,,,,,,[],,,,,,73.6,0.0,u,0.0,True,678.0999999642372,41.0,60.0,40.0,False,,262.11719267563484,[],"[960, 540]",ColorTask,137.0,95.0,,,HRV,HRV_0062,2022-11-30 18:00:10
,wl-rdm,212,551501,0.0-8.95-0.95,1.0,213.0,,,,,,,[],,,,,,50.0,0.0,u,0.0,True,714.6000000238419,43.0,60.0,40.0,False,,203.35433331779151,[],"[960, 540]",ColorTask,138.0,96.0,,,HRV,HRV_0062,2022-11-30 18:00:10
,wl-rdm,213,553768,0.0-8.96-0.96,1.0,214.0,,,,,,,[],,,,,,62.5,0.0,u,0.0,True,843.6999999880791,51.0,60.0,40.0,False,,342.28051662550854,[],"[960, 540]",ColorTask,139.0,97.0,,,HRV,HRV_0062,2022-11-30 18:00:10
,wl-rdm,214,556101,0.0-8.97-0.97,1.0,215.0,,,,,,,[],,,,,,62.5,0.0,u,0.0,True,909.1999999880791,55.0,60.0,40.0,False,,342.5155453699845,[],"[960, 540]",ColorTask,140.0,98.0,,,HRV,HRV_0062,2022-11-30 18:00:10
,wl-rdm,215,558601,0.0-8.98-0.98,1.0,216.0,,,,,,,[],,,,,,56.4,0.0,u,0.0,True,1187.3999999761581,72.0,60.0,40.0,False,,218.85449357227614,[],"[960, 540]",ColorTask,141.0,99.0,,,HRV,HRV_0062,2022-11-30 18:00:10
,wl-rdm,216,561085,0.0-8.99-0.99,1.0,217.0,,,,,,,[],,,,,,53.2,1.0,i,1.0,True,1195.199999988079,72.0,60.0,40.0,False,,208.74402531453669,[],"[960, 540]",ColorTask,142.0,100.0,,,HRV,HRV_0062,2022-11-30 18:00:10
,wl-rdm,217,563168,0.0-8.100-0.100,1.0,218.0,,,,,,,[],,,,,,56.4,1.0,i,1.0,True,727.5000000596046,44.0,60.0,40.0,False,,280.0337955708432,[],"[960, 540]",ColorTask,143.0,101.0,,,HRV,HRV_0062,2022-11-30 18:00:10
,wl-rdm,218,565135,0.0-8.101-0.101,1.0,219.0,,,,,,,[],,,,,,56.4,0.0,u,0.0,True,634.5,39.0,60.0,40.0,False,,250.47762160346662,[],"[960, 540]",ColorTask,144.0,102.0,,,HRV,HRV_0062,2022-11-30 18:00:10
,wl-rdm,219,567884,0.0-8.102-0.102,1.0,220.0,,,,,,,[],,,,,,50.0,0.0,i,1.0,False,1465.9000000357628,88.0,60.0,40.0,False,,211.11800300481178,[],"[960, 540]",ColorTask,143.0,103.0,,,HRV,HRV_0062,2022-11-30 18:00:10
,wl-rdm,220,570318,0.0-8.103-0.103,1.0,221.0,,,,,,,[],,,,,,50.0,1.0,u,0.0,False,970.2000000476837,59.0,60.0,40.0,False,,381.3577475543544,[],"[960, 540]",ColorTask,142.0,104.0,,,HRV,HRV_0062,2022-11-30 18:00:10
,wl-rdm,221,572418,0.0-8.104-0.104,1.0,222.0,,,,,,,[],,,,,,87.9,1.0,i,1.0,True,727.3000000119209,44.0,60.0,40.0,False,,298.7605343669011,[],"[960, 540]",ColorTask,143.0,105.0,,,HRV,HRV_0062,2022-11-30 18:00:10
,wl-rdm,222,574501,0.0-8.105-0.105,1.0,223.0,,,,,,,[],,,,,,87.9,0.0,u,0.0,True,772.0999999642372,47.0,60.0,40.0,False,,232.17588724493032,[],"[960, 540]",ColorTask,144.0,106.0,,,HRV,HRV_0062,2022-11-30 18:00:10
,wl-rdm,223,576568,0.0-8.106-0.106,1.0,224.0,,,,,,,[],,,,,,53.2,0.0,u,0.0,True,736.1000000238419,45.0,60.0,40.0,False,,239.11654696883957,[],"[960, 540]",ColorTask,145.0,107.0,,,HRV,HRV_0062,2022-11-30 18:00:10
,wl-rdm,224,579934,0.0-8.107-0.107,1.0,225.0,,,,,,,[],,,,,,56.4,1.0,i,1.0,True,2008.3999999761581,121.0,60.0,40.0,False,,296.30794331475147,[],"[960, 540]",ColorTask,146.0,108.0,,,HRV,HRV_0062,2022-11-30 18:00:10
,wl-html-button-response,225,582718,0.0-9.0-0.0,,,,,,,,,,2782.199999988079,,0,,,,,,,,,,,,,,,,,,,,<h3>End of this session. Thank you!</h3><br>,['Close window'],HRV,HRV_0062,2022-11-30 18:00:10
