trialN,stimuli,question,trialStartTime,trialStartTime_UNIX,stimulus1,rt,receivedResponse,rating,trialEndTime,trialDuration,stimulus1Loaded,exp,subjectId,date
0,"[{'imgObject': {}, 'id': 'grilled chicken strips', 'src': '/static/foodstim60/grilled chicken strips.jpg', 'key': 'NaN', 'origWidth': 410, 'origHeight': 411, 'width': 410, 'height': 411, 'widthPercent': 0.8, 'rescaleHeight': True, 'trialN': 0, 'loaded': True, 'loadedTime': 2200.199999999255, 'positionName': 'CENTER', 'positionCoords': [755, 334.5]}]",Rate how much you want to eat this food from 0 (least) to 10 (most).,3165.5999999996275,1669829447893,grilled chicken strips,3025.5999999996275,True,8.08,6191.199999999255,3025.5999999996275,True,HRV,HRV_0096,2022-11-30 17:32:18
1,"[{'imgObject': {}, 'id': 'cherries', 'src': '/static/foodstim60/cherries.jpg', 'key': 'NaN', 'origWidth': 410, 'origHeight': 411, 'width': 410, 'height': 411, 'widthPercent': 0.8, 'rescaleHeight': True, 'trialN': 1, 'loaded': True, 'loadedTime': 2198.0999999996275, 'positionName': 'CENTER', 'positionCoords': [755, 334.5]}]",Rate how much you want to eat this food from 0 (least) to 10 (most).,6192.0,1669829450919,cherries,1511.199999999255,True,3.7,7703.199999999255,1511.199999999255,True,HRV,HRV_0096,2022-11-30 17:32:18
2,"[{'imgObject': {}, 'id': 'lox', 'src': '/static/foodstim60/lox.jpg', 'key': 'NaN', 'origWidth': 410, 'origHeight': 411, 'width': 410, 'height': 411, 'widthPercent': 0.8, 'rescaleHeight': True, 'trialN': 2, 'loaded': True, 'loadedTime': 2202.0999999996275, 'positionName': 'CENTER', 'positionCoords': [755, 334.5]}]",Rate how much you want to eat this food from 0 (least) to 10 (most).,7703.799999998882,1669829452431,lox,1903.4000000003725,True,2.73,9607.199999999255,1903.4000000003725,True,HRV,HRV_0096,2022-11-30 17:32:18
3,"[{'imgObject': {}, 'id': 'seaweed', 'src': '/static/foodstim60/seaweed.jpg', 'key': 'NaN', 'origWidth': 410, 'origHeight': 410, 'width': 410, 'height': 410, 'widthPercent': 0.8, 'rescaleHeight': True, 'trialN': 3, 'loaded': True, 'loadedTime': 2264.4000000003725, 'positionName': 'CENTER', 'positionCoords': [755, 335]}]",Rate how much you want to eat this food from 0 (least) to 10 (most).,9607.699999999255,1669829454335,seaweed,1623.4000000003725,True,7.73,11231.099999999627,1623.4000000003725,True,HRV,HRV_0096,2022-11-30 17:32:18
4,"[{'imgObject': {}, 'id': 'orange slices', 'src': '/static/foodstim60/orange slices.jpg', 'key': 'NaN', 'origWidth': 409, 'origHeight': 410, 'width': 409, 'height': 410, 'widthPercent': 0.8, 'rescaleHeight': True, 'trialN': 4, 'loaded': True, 'loadedTime': 2209.5999999996275, 'positionName': 'CENTER', 'positionCoords': [755.5, 335]}]",Rate how much you want to eat this food from 0 (least) to 10 (most).,11231.799999998882,1669829455959,orange slices,1575.4000000003725,True,5.64,12807.199999999255,1575.4000000003725,True,HRV,HRV_0096,2022-11-30 17:32:18
5,"[{'imgObject': {}, 'id': 'blueberries', 'src': '/static/foodstim60/blueberries.jpg', 'key': 'NaN', 'origWidth': 411, 'origHeight': 411, 'width': 411, 'height': 411, 'widthPercent': 0.8, 'rescaleHeight': True, 'trialN': 5, 'loaded': True, 'loadedTime': 2208.5999999996275, 'positionName': 'CENTER', 'positionCoords': [754.5, 334.5]}]",Rate how much you want to eat this food from 0 (least) to 10 (most).,12807.699999999255,1669829457535,blueberries,1303.4000000003725,True,4.17,14111.099999999627,1303.4000000003725,True,HRV,HRV_0096,2022-11-30 17:32:18
6,"[{'imgObject': {}, 'id': 'raisin bran w milk', 'src': '/static/foodstim60/raisin bran w milk.jpg', 'key': 'NaN', 'origWidth': 411, 'origHeight': 411, 'width': 411, 'height': 411, 'widthPercent': 0.8, 'rescaleHeight': True, 'trialN': 6, 'loaded': True, 'loadedTime': 2372.0999999996275, 'positionName': 'CENTER', 'positionCoords': [754.5, 334.5]}]",Rate how much you want to eat this food from 0 (least) to 10 (most).,14111.599999999627,1669829458839,raisin bran w milk,1975.5999999996275,True,4.9,16087.199999999255,1975.5999999996275,True,HRV,HRV_0096,2022-11-30 17:32:18
7,"[{'imgObject': {}, 'id': 'bagel and cc', 'src': '/static/foodstim60/bagel and cc.jpg', 'key': 'NaN', 'origWidth': 410, 'origHeight': 410, 'width': 410, 'height': 410, 'widthPercent': 0.8, 'rescaleHeight': True, 'trialN': 7, 'loaded': True, 'loadedTime': 2287.9000000003725, 'positionName': 'CENTER', 'positionCoords': [755, 335]}]",Rate how much you want to eat this food from 0 (least) to 10 (most).,16087.699999999255,1669829460815,bagel and cc,1119.4000000003725,True,6.8100000000000005,17207.099999999627,1119.4000000003725,True,HRV,HRV_0096,2022-11-30 17:32:18
8,"[{'imgObject': {}, 'id': 'avocado', 'src': '/static/foodstim60/avocado.jpg', 'key': 'NaN', 'origWidth': 409, 'origHeight': 409, 'width': 409, 'height': 409, 'widthPercent': 0.8, 'rescaleHeight': True, 'trialN': 8, 'loaded': True, 'loadedTime': 2317.9000000003725, 'positionName': 'CENTER', 'positionCoords': [755.5, 335.5]}]",Rate how much you want to eat this food from 0 (least) to 10 (most).,17207.699999999255,1669829461935,avocado,1175.4000000003725,True,2.38,18383.099999999627,1175.4000000003725,True,HRV,HRV_0096,2022-11-30 17:32:18
9,"[{'imgObject': {}, 'id': 'steak', 'src': '/static/foodstim60/steak.jpg', 'key': 'NaN', 'origWidth': 410, 'origHeight': 410, 'width': 410, 'height': 410, 'widthPercent': 0.8, 'rescaleHeight': True, 'trialN': 9, 'loaded': True, 'loadedTime': 2750.5, 'positionName': 'CENTER', 'positionCoords': [755, 335]}]",Rate how much you want to eat this food from 0 (least) to 10 (most).,18383.799999998882,1669829463111,steak,1295.4000000003725,True,8.950000000000001,19679.199999999255,1295.4000000003725,True,HRV,HRV_0096,2022-11-30 17:32:18
10,"[{'imgObject': {}, 'id': 'rigatoni and sauce', 'src': '/static/foodstim60/rigatoni and sauce.jpg', 'key': 'NaN', 'origWidth': 410, 'origHeight': 411, 'width': 410, 'height': 411, 'widthPercent': 0.8, 'rescaleHeight': True, 'trialN': 10, 'loaded': True, 'loadedTime': 2656.0999999996275, 'positionName': 'CENTER', 'positionCoords': [755, 334.5]}]",Rate how much you want to eat this food from 0 (least) to 10 (most).,19679.799999998882,1669829464407,rigatoni and sauce,1463.5,True,5.43,21143.299999998882,1463.5,True,HRV,HRV_0096,2022-11-30 17:32:18
11,"[{'imgObject': {}, 'id': 'veggieswithdip', 'src': '/static/foodstim60/veggieswithdip.jpg', 'key': 'NaN', 'origWidth': 409, 'origHeight': 409, 'width': 409, 'height': 409, 'widthPercent': 0.8, 'rescaleHeight': True, 'trialN': 11, 'loaded': True, 'loadedTime': 2970.2999999988824, 'positionName': 'CENTER', 'positionCoords': [755.5, 335.5]}]",Rate how much you want to eat this food from 0 (least) to 10 (most).,21143.900000000373,1669829465871,veggieswithdip,1471.2999999988824,True,1.16,22615.199999999255,1471.2999999988824,True,HRV,HRV_0096,2022-11-30 17:32:18
12,"[{'imgObject': {}, 'id': 'bagel plain', 'src': '/static/foodstim60/bagel plain.jpg', 'key': 'NaN', 'origWidth': 410, 'origHeight': 410, 'width': 410, 'height': 410, 'widthPercent': 0.8, 'rescaleHeight': True, 'trialN': 12, 'loaded': True, 'loadedTime': 2356.5999999996275, 'positionName': 'CENTER', 'positionCoords': [755, 335]}]",Rate how much you want to eat this food from 0 (least) to 10 (most).,22615.799999998882,1669829467343,bagel plain,1207.4000000003725,True,5.75,23823.199999999255,1207.4000000003725,True,HRV,HRV_0096,2022-11-30 17:32:18
13,"[{'imgObject': {}, 'id': 'ice cream sundae 002', 'src': '/static/foodstim60/ice cream sundae 002.jpg', 'key': 'NaN', 'origWidth': 409, 'origHeight': 409, 'width': 409, 'height': 409, 'widthPercent': 0.8, 'rescaleHeight': True, 'trialN': 13, 'loaded': True, 'loadedTime': 2388.9000000003725, 'positionName': 'CENTER', 'positionCoords': [755.5, 335.5]}]",Rate how much you want to eat this food from 0 (least) to 10 (most).,23823.799999998882,1669829468551,ice cream sundae 002,1455.300000000745,True,6.78,25279.099999999627,1455.300000000745,True,HRV,HRV_0096,2022-11-30 17:32:18
14,"[{'imgObject': {}, 'id': 'kiwi', 'src': '/static/foodstim60/kiwi.jpg', 'key': 'NaN', 'origWidth': 410, 'origHeight': 410, 'width': 410, 'height': 410, 'widthPercent': 0.8, 'rescaleHeight': True, 'trialN': 14, 'loaded': True, 'loadedTime': 2474.7999999988824, 'positionName': 'CENTER', 'positionCoords': [755, 335]}]",Rate how much you want to eat this food from 0 (least) to 10 (most).,25279.799999998882,1669829470007,kiwi,1111.4000000003725,True,2.88,26391.199999999255,1111.4000000003725,True,HRV,HRV_0096,2022-11-30 17:32:18
15,"[{'imgObject': {}, 'id': 'hashbrowns', 'src': '/static/foodstim60/hashbrowns.jpg', 'key': 'NaN', 'origWidth': 411, 'origHeight': 410, 'width': 411, 'height': 410, 'widthPercent': 0.8, 'rescaleHeight': True, 'trialN': 15, 'loaded': True, 'loadedTime': 2454.699999999255, 'positionName': 'CENTER', 'positionCoords': [754.5, 335]}]",Rate how much you want to eat this food from 0 (least) to 10 (most).,26391.799999998882,1669829471119,hashbrowns,1543.4000000003725,True,2.7800000000000002,27935.199999999255,1543.4000000003725,True,HRV,HRV_0096,2022-11-30 17:32:18
16,"[{'imgObject': {}, 'id': 'tacos', 'src': '/static/foodstim60/tacos.jpg', 'key': 'NaN', 'origWidth': 411, 'origHeight': 411, 'width': 411, 'height': 411, 'widthPercent': 0.8, 'rescaleHeight': True, 'trialN': 16, 'loaded': True, 'loadedTime': 2477.5999999996275, 'positionName': 'CENTER', 'positionCoords': [754.5, 334.5]}]",Rate how much you want to eat this food from 0 (least) to 10 (most).,27935.900000000373,1669829472663,tacos,1543.199999999255,True,4.03,29479.099999999627,1543.199999999255,True,HRV,HRV_0096,2022-11-30 17:32:18
17,"[{'imgObject': {}, 'id': 'turkey sandwich', 'src': '/static/foodstim60/turkey sandwich.jpg', 'key': 'NaN', 'origWidth': 409, 'origHeight': 409, 'width': 409, 'height': 409, 'widthPercent': 0.8, 'rescaleHeight': True, 'trialN': 17, 'loaded': True, 'loadedTime': 2549.0999999996275, 'positionName': 'CENTER', 'positionCoords': [755.5, 335.5]}]",Rate how much you want to eat this food from 0 (least) to 10 (most).,29479.900000000373,1669829474207,turkey sandwich,1703.2999999988824,True,5.9,31183.199999999255,1703.2999999988824,True,HRV,HRV_0096,2022-11-30 17:32:18
18,"[{'imgObject': {}, 'id': 'popsicles', 'src': '/static/foodstim60/popsicles.jpg', 'key': 'NaN', 'origWidth': 410, 'origHeight': 410, 'width': 410, 'height': 410, 'widthPercent': 0.8, 'rescaleHeight': True, 'trialN': 18, 'loaded': True, 'loadedTime': 2531.9000000003725, 'positionName': 'CENTER', 'positionCoords': [755, 335]}]",Rate how much you want to eat this food from 0 (least) to 10 (most).,31184.0,1669829475911,popsicles,1207.199999999255,True,7.7,32391.199999999255,1207.199999999255,True,HRV,HRV_0096,2022-11-30 17:32:18
19,"[{'imgObject': {}, 'id': 'Tribe humus pita', 'src': '/static/foodstim60/Tribe humus pita.jpg', 'key': 'NaN', 'origWidth': 411, 'origHeight': 411, 'width': 411, 'height': 411, 'widthPercent': 0.8, 'rescaleHeight': True, 'trialN': 19, 'loaded': True, 'loadedTime': 2552.9000000003725, 'positionName': 'CENTER', 'positionCoords': [754.5, 334.5]}]",Rate how much you want to eat this food from 0 (least) to 10 (most).,32391.900000000373,1669829477119,Tribe humus pita,1159.199999999255,True,7.3100000000000005,33551.09999999963,1159.199999999255,True,HRV,HRV_0096,2022-11-30 17:32:18
20,"[{'imgObject': {}, 'id': 'froot loops w milk', 'src': '/static/foodstim60/froot loops w milk.jpg', 'key': 'NaN', 'origWidth': 410, 'origHeight': 410, 'width': 410, 'height': 410, 'widthPercent': 0.8, 'rescaleHeight': True, 'trialN': 20, 'loaded': True, 'loadedTime': 2599.9000000003725, 'positionName': 'CENTER', 'positionCoords': [755, 335]}]",Rate how much you want to eat this food from 0 (least) to 10 (most).,33552.199999999255,1669829478279,froot loops w milk,1287.0,True,6.93,34839.199999999255,1287.0,True,HRV,HRV_0096,2022-11-30 17:32:18
21,"[{'imgObject': {}, 'id': 'apple slices', 'src': '/static/foodstim60/apple slices.jpg', 'key': 'NaN', 'origWidth': 409, 'origHeight': 410, 'width': 409, 'height': 410, 'widthPercent': 0.8, 'rescaleHeight': True, 'trialN': 21, 'loaded': True, 'loadedTime': 2623.7999999988824, 'positionName': 'CENTER', 'positionCoords': [755.5, 335]}]",Rate how much you want to eat this food from 0 (least) to 10 (most).,34839.59999999963,1669829479567,apple slices,1199.5999999996275,True,3.27,36039.199999999255,1199.5999999996275,True,HRV,HRV_0096,2022-11-30 17:32:18
22,"[{'imgObject': {}, 'id': 'edamame', 'src': '/static/foodstim60/edamame.jpg', 'key': 'NaN', 'origWidth': 409, 'origHeight': 410, 'width': 409, 'height': 410, 'widthPercent': 0.8, 'rescaleHeight': True, 'trialN': 22, 'loaded': True, 'loadedTime': 2625.7999999988824, 'positionName': 'CENTER', 'positionCoords': [755.5, 335]}]",Rate how much you want to eat this food from 0 (least) to 10 (most).,36039.59999999963,1669829480767,edamame,1311.5999999996275,True,1.77,37351.199999999255,1311.5999999996275,True,HRV,HRV_0096,2022-11-30 17:32:18
23,"[{'imgObject': {}, 'id': 'chicken nuggets2', 'src': '/static/foodstim60/chicken nuggets2.jpg', 'key': 'NaN', 'origWidth': 410, 'origHeight': 409, 'width': 410, 'height': 409, 'widthPercent': 0.8, 'rescaleHeight': True, 'trialN': 23, 'loaded': True, 'loadedTime': 2672.0999999996275, 'positionName': 'CENTER', 'positionCoords': [755, 335.5]}]",Rate how much you want to eat this food from 0 (least) to 10 (most).,37351.699999999255,1669829482079,chicken nuggets2,1455.5,True,8.2,38807.199999999255,1455.5,True,HRV,HRV_0096,2022-11-30 17:32:18
24,"[{'imgObject': {}, 'id': 'strawberries', 'src': '/static/foodstim60/strawberries.jpg', 'key': 'NaN', 'origWidth': 410, 'origHeight': 410, 'width': 410, 'height': 410, 'widthPercent': 0.8, 'rescaleHeight': True, 'trialN': 24, 'loaded': True, 'loadedTime': 2690.5999999996275, 'positionName': 'CENTER', 'positionCoords': [755, 335]}]",Rate how much you want to eat this food from 0 (least) to 10 (most).,38807.699999999255,1669829483535,strawberries,1359.4000000003725,True,5.5600000000000005,40167.09999999963,1359.4000000003725,True,HRV,HRV_0096,2022-11-30 17:32:18
25,"[{'imgObject': {}, 'id': 'pear', 'src': '/static/foodstim60/pear.jpg', 'key': 'NaN', 'origWidth': 411, 'origHeight': 410, 'width': 411, 'height': 410, 'widthPercent': 0.8, 'rescaleHeight': True, 'trialN': 25, 'loaded': True, 'loadedTime': 2694.5, 'positionName': 'CENTER', 'positionCoords': [754.5, 335]}]",Rate how much you want to eat this food from 0 (least) to 10 (most).,40167.699999999255,1669829484895,pear,1271.4000000003725,True,3.19,41439.09999999963,1271.4000000003725,True,HRV,HRV_0096,2022-11-30 17:32:18
26,"[{'imgObject': {}, 'id': 'sweetpotato', 'src': '/static/foodstim60/sweetpotato.jpg', 'key': 'NaN', 'origWidth': 410, 'origHeight': 410, 'width': 410, 'height': 410, 'widthPercent': 0.8, 'rescaleHeight': True, 'trialN': 26, 'loaded': True, 'loadedTime': 2724.7999999988824, 'positionName': 'CENTER', 'positionCoords': [755, 335]}]",Rate how much you want to eat this food from 0 (least) to 10 (most).,41439.699999999255,1669829486167,sweetpotato,1535.5,True,3.73,42975.199999999255,1535.5,True,HRV,HRV_0096,2022-11-30 17:32:18
27,"[{'imgObject': {}, 'id': 'eggs', 'src': '/static/foodstim60/eggs.jpg', 'key': 'NaN', 'origWidth': 409, 'origHeight': 409, 'width': 409, 'height': 409, 'widthPercent': 0.8, 'rescaleHeight': True, 'trialN': 27, 'loaded': True, 'loadedTime': 2736.699999999255, 'positionName': 'CENTER', 'positionCoords': [755.5, 335.5]}]",Rate how much you want to eat this food from 0 (least) to 10 (most).,42975.90000000037,1669829487703,eggs,1087.199999999255,True,3.06,44063.09999999963,1087.199999999255,True,HRV,HRV_0096,2022-11-30 17:32:18
28,"[{'imgObject': {}, 'id': 'salad w chicken', 'src': '/static/foodstim60/salad w chicken.jpg', 'key': 'NaN', 'origWidth': 411, 'origHeight': 411, 'width': 411, 'height': 411, 'widthPercent': 0.8, 'rescaleHeight': True, 'trialN': 28, 'loaded': True, 'loadedTime': 2770.199999999255, 'positionName': 'CENTER', 'positionCoords': [754.5, 334.5]}]",Rate how much you want to eat this food from 0 (least) to 10 (most).,44063.79999999888,1669829488791,salad w chicken,1879.300000000745,True,6.23,45943.09999999963,1879.300000000745,True,HRV,HRV_0096,2022-11-30 17:32:18
29,"[{'imgObject': {}, 'id': 'hotdog w must', 'src': '/static/foodstim60/hotdog w must.jpg', 'key': 'NaN', 'origWidth': 409, 'origHeight': 409, 'width': 409, 'height': 409, 'widthPercent': 0.8, 'rescaleHeight': True, 'trialN': 29, 'loaded': True, 'loadedTime': 2772, 'positionName': 'CENTER', 'positionCoords': [755.5, 335.5]}]",Rate how much you want to eat this food from 0 (least) to 10 (most).,45943.79999999888,1669829490671,hotdog w must,1567.300000000745,True,6.23,47511.09999999963,1567.300000000745,True,HRV,HRV_0096,2022-11-30 17:32:18
30,"[{'imgObject': {}, 'id': 'baked potato', 'src': '/static/foodstim60/baked potato.jpg', 'key': 'NaN', 'origWidth': 409, 'origHeight': 410, 'width': 409, 'height': 410, 'widthPercent': 0.8, 'rescaleHeight': True, 'trialN': 30, 'loaded': True, 'loadedTime': 2794.7999999988824, 'positionName': 'CENTER', 'positionCoords': [755.5, 335]}]",Rate how much you want to eat this food from 0 (least) to 10 (most).,47511.79999999888,1669829492239,baked potato,2759.300000000745,True,4.97,50271.09999999963,2759.300000000745,True,HRV,HRV_0096,2022-11-30 17:32:18
31,"[{'imgObject': {}, 'id': 'turkeysandwich', 'src': '/static/foodstim60/turkeysandwich.jpg', 'key': 'NaN', 'origWidth': 409, 'origHeight': 409, 'width': 409, 'height': 409, 'widthPercent': 0.8, 'rescaleHeight': True, 'trialN': 31, 'loaded': True, 'loadedTime': 2803.2999999988824, 'positionName': 'CENTER', 'positionCoords': [755.5, 335.5]}]",Rate how much you want to eat this food from 0 (least) to 10 (most).,50271.79999999888,1669829494999,turkeysandwich,1111.2000000011176,True,6.0600000000000005,51383.0,1111.2000000011176,True,HRV,HRV_0096,2022-11-30 17:32:18
32,"[{'imgObject': {}, 'id': 'mashed potato', 'src': '/static/foodstim60/mashed potato.jpg', 'key': 'NaN', 'origWidth': 409, 'origHeight': 409, 'width': 409, 'height': 409, 'widthPercent': 0.8, 'rescaleHeight': True, 'trialN': 32, 'loaded': True, 'loadedTime': 2817.5999999996275, 'positionName': 'CENTER', 'positionCoords': [755.5, 335.5]}]",Rate how much you want to eat this food from 0 (least) to 10 (most).,51383.90000000037,1669829496111,mashed potato,1279.0999999996275,True,7.12,52663.0,1279.0999999996275,True,HRV,HRV_0096,2022-11-30 17:32:18
33,"[{'imgObject': {}, 'id': 'fried eggs', 'src': '/static/foodstim60/fried eggs.jpg', 'key': 'NaN', 'origWidth': 410, 'origHeight': 410, 'width': 410, 'height': 410, 'widthPercent': 0.8, 'rescaleHeight': True, 'trialN': 33, 'loaded': True, 'loadedTime': 2835.9000000003725, 'positionName': 'CENTER', 'positionCoords': [755, 335]}]",Rate how much you want to eat this food from 0 (least) to 10 (most).,52663.79999999888,1669829497391,fried eggs,1175.300000000745,True,7.76,53839.09999999963,1175.300000000745,True,HRV,HRV_0096,2022-11-30 17:32:18
34,"[{'imgObject': {}, 'id': 'burrito', 'src': '/static/foodstim60/burrito.jpg', 'key': 'NaN', 'origWidth': 410, 'origHeight': 410, 'width': 410, 'height': 410, 'widthPercent': 0.8, 'rescaleHeight': True, 'trialN': 34, 'loaded': True, 'loadedTime': 2842.2999999988824, 'positionName': 'CENTER', 'positionCoords': [755, 335]}]",Rate how much you want to eat this food from 0 (least) to 10 (most).,53839.90000000037,1669829498567,burrito,2535.2999999988824,True,4.32,56375.199999999255,2535.2999999988824,True,HRV,HRV_0096,2022-11-30 17:32:18
35,"[{'imgObject': {}, 'id': 'eggsalad', 'src': '/static/foodstim60/eggsalad.jpg', 'key': 'NaN', 'origWidth': 410, 'origHeight': 409, 'width': 410, 'height': 409, 'widthPercent': 0.8, 'rescaleHeight': True, 'trialN': 35, 'loaded': True, 'loadedTime': 2858.699999999255, 'positionName': 'CENTER', 'positionCoords': [755, 335.5]}]",Rate how much you want to eat this food from 0 (least) to 10 (most).,56376.0,1669829501103,eggsalad,1927.199999999255,True,4.14,58303.199999999255,1927.199999999255,True,HRV,HRV_0096,2022-11-30 17:32:18
36,"[{'imgObject': {}, 'id': 'Grapes', 'src': '/static/foodstim60/Grapes.jpg', 'key': 'NaN', 'origWidth': 411, 'origHeight': 411, 'width': 411, 'height': 411, 'widthPercent': 0.8, 'rescaleHeight': True, 'trialN': 36, 'loaded': True, 'loadedTime': 2869.5, 'positionName': 'CENTER', 'positionCoords': [754.5, 334.5]}]",Rate how much you want to eat this food from 0 (least) to 10 (most).,58304.0,1669829503031,Grapes,1271.0,True,5.2,59575.0,1271.0,True,HRV,HRV_0096,2022-11-30 17:32:18
37,"[{'imgObject': {}, 'id': 'cantaloupe', 'src': '/static/foodstim60/cantaloupe.jpg', 'key': 'NaN', 'origWidth': 409, 'origHeight': 409, 'width': 409, 'height': 409, 'widthPercent': 0.8, 'rescaleHeight': True, 'trialN': 37, 'loaded': True, 'loadedTime': 2881.9000000003725, 'positionName': 'CENTER', 'positionCoords': [755.5, 335.5]}]",Rate how much you want to eat this food from 0 (least) to 10 (most).,59575.59999999963,1669829504303,cantaloupe,1351.5999999996275,True,4.97,60927.199999999255,1351.5999999996275,True,HRV,HRV_0096,2022-11-30 17:32:18
38,"[{'imgObject': {}, 'id': 'omelette', 'src': '/static/foodstim60/omelette.jpg', 'key': 'NaN', 'origWidth': 410, 'origHeight': 409, 'width': 410, 'height': 409, 'widthPercent': 0.8, 'rescaleHeight': True, 'trialN': 38, 'loaded': True, 'loadedTime': 2900.4000000003725, 'positionName': 'CENTER', 'positionCoords': [755, 335.5]}]",Rate how much you want to eat this food from 0 (least) to 10 (most).,60927.699999999255,1669829505655,omelette,1263.4000000003725,True,6.62,62191.09999999963,1263.4000000003725,True,HRV,HRV_0096,2022-11-30 17:32:18
39,"[{'imgObject': {}, 'id': 'cocktailshrimp', 'src': '/static/foodstim60/cocktailshrimp.jpg', 'key': 'NaN', 'origWidth': 410, 'origHeight': 410, 'width': 410, 'height': 410, 'widthPercent': 0.8, 'rescaleHeight': True, 'trialN': 39, 'loaded': True, 'loadedTime': 2905.2999999988824, 'positionName': 'CENTER', 'positionCoords': [755, 335]}]",Rate how much you want to eat this food from 0 (least) to 10 (most).,62191.699999999255,1669829506919,cocktailshrimp,1911.7000000011176,True,6.48,64103.40000000037,1911.7000000011176,True,HRV,HRV_0096,2022-11-30 17:32:18
40,"[{'imgObject': {}, 'id': 'fruitsalad', 'src': '/static/foodstim60/fruitsalad.jpg', 'key': 'NaN', 'origWidth': 410, 'origHeight': 410, 'width': 410, 'height': 410, 'widthPercent': 0.8, 'rescaleHeight': True, 'trialN': 40, 'loaded': True, 'loadedTime': 2941.5999999996275, 'positionName': 'CENTER', 'positionCoords': [755, 335]}]",Rate how much you want to eat this food from 0 (least) to 10 (most).,64104.09999999963,1669829508831,fruitsalad,1222.9000000003725,True,3.92,65327.0,1222.9000000003725,True,HRV,HRV_0096,2022-11-30 17:32:18
41,"[{'imgObject': {}, 'id': 'mac & cheese', 'src': '/static/foodstim60/mac & cheese.jpg', 'key': 'NaN', 'origWidth': 410, 'origHeight': 410, 'width': 410, 'height': 410, 'widthPercent': 0.8, 'rescaleHeight': True, 'trialN': 41, 'loaded': True, 'loadedTime': 2942.5, 'positionName': 'CENTER', 'positionCoords': [755, 335]}]",Rate how much you want to eat this food from 0 (least) to 10 (most).,65327.59999999963,1669829510055,mac & cheese,1159.5,True,6.68,66487.09999999963,1159.5,True,HRV,HRV_0096,2022-11-30 17:32:18
42,"[{'imgObject': {}, 'id': 'mango', 'src': '/static/foodstim60/mango.jpg', 'key': 'NaN', 'origWidth': 411, 'origHeight': 411, 'width': 411, 'height': 411, 'widthPercent': 0.8, 'rescaleHeight': True, 'trialN': 42, 'loaded': True, 'loadedTime': 2948.199999999255, 'positionName': 'CENTER', 'positionCoords': [754.5, 334.5]}]",Rate how much you want to eat this food from 0 (least) to 10 (most).,66487.59999999963,1669829511215,mango,2111.5,True,5.69,68599.09999999963,2111.5,True,HRV,HRV_0096,2022-11-30 17:32:18
43,"[{'imgObject': {}, 'id': 'yogurt no spoon', 'src': '/static/foodstim60/yogurt no spoon.jpg', 'key': 'NaN', 'origWidth': 411, 'origHeight': 410, 'width': 411, 'height': 410, 'widthPercent': 0.8, 'rescaleHeight': True, 'trialN': 43, 'loaded': True, 'loadedTime': 2967.199999999255, 'positionName': 'CENTER', 'positionCoords': [754.5, 335]}]",Rate how much you want to eat this food from 0 (least) to 10 (most).,68599.69999999925,1669829513327,yogurt no spoon,1311.5,True,6.390000000000001,69911.19999999925,1311.5,True,HRV,HRV_0096,2022-11-30 17:32:18
44,"[{'imgObject': {}, 'id': 'cheerios', 'src': '/static/foodstim60/cheerios.jpg', 'key': 'NaN', 'origWidth': 409, 'origHeight': 410, 'width': 409, 'height': 410, 'widthPercent': 0.8, 'rescaleHeight': True, 'trialN': 44, 'loaded': True, 'loadedTime': 2977.7999999988824, 'positionName': 'CENTER', 'positionCoords': [755.5, 335]}]",Rate how much you want to eat this food from 0 (least) to 10 (most).,69911.59999999963,1669829514639,cheerios,1151.300000000745,True,6.95,71062.90000000037,1151.300000000745,True,HRV,HRV_0096,2022-11-30 17:32:18
45,"[{'imgObject': {}, 'id': 'shreddedwheatwithmilk', 'src': '/static/foodstim60/shreddedwheatwithmilk.jpg', 'key': 'NaN', 'origWidth': 410, 'origHeight': 410, 'width': 410, 'height': 410, 'widthPercent': 0.8, 'rescaleHeight': True, 'trialN': 45, 'loaded': True, 'loadedTime': 3003.699999999255, 'positionName': 'CENTER', 'positionCoords': [755, 335]}]",Rate how much you want to eat this food from 0 (least) to 10 (most).,71063.5,1669829515791,shreddedwheatwithmilk,1879.699999999255,True,3.25,72943.19999999925,1879.699999999255,True,HRV,HRV_0096,2022-11-30 17:32:18
46,"[{'imgObject': {}, 'id': 'cherry tomato', 'src': '/static/foodstim60/cherry tomato.jpg', 'key': 'NaN', 'origWidth': 410, 'origHeight': 410, 'width': 410, 'height': 410, 'widthPercent': 0.8, 'rescaleHeight': True, 'trialN': 46, 'loaded': True, 'loadedTime': 3008.699999999255, 'positionName': 'CENTER', 'positionCoords': [755, 335]}]",Rate how much you want to eat this food from 0 (least) to 10 (most).,72943.79999999888,1669829517671,cherry tomato,1191.2000000011176,True,2.72,74135.0,1191.2000000011176,True,HRV,HRV_0096,2022-11-30 17:32:18
47,"[{'imgObject': {}, 'id': 'chickenfingers', 'src': '/static/foodstim60/chickenfingers.jpg', 'key': 'NaN', 'origWidth': 410, 'origHeight': 410, 'width': 410, 'height': 410, 'widthPercent': 0.8, 'rescaleHeight': True, 'trialN': 47, 'loaded': True, 'loadedTime': 3013.5999999996275, 'positionName': 'CENTER', 'positionCoords': [755, 335]}]",Rate how much you want to eat this food from 0 (least) to 10 (most).,74135.59999999963,1669829518863,chickenfingers,1447.5999999996275,True,7.72,75583.19999999925,1447.5999999996275,True,HRV,HRV_0096,2022-11-30 17:32:18
48,"[{'imgObject': {}, 'id': 'luckycharms', 'src': '/static/foodstim60/luckycharms.jpg', 'key': 'NaN', 'origWidth': 410, 'origHeight': 409, 'width': 410, 'height': 409, 'widthPercent': 0.8, 'rescaleHeight': True, 'trialN': 48, 'loaded': True, 'loadedTime': 3035.4000000003725, 'positionName': 'CENTER', 'positionCoords': [755, 335.5]}]",Rate how much you want to eat this food from 0 (least) to 10 (most).,75583.90000000037,1669829520311,luckycharms,1223.199999999255,True,6.43,76807.09999999963,1223.199999999255,True,HRV,HRV_0096,2022-11-30 17:32:18
49,"[{'imgObject': {}, 'id': 'roastedpotatoes', 'src': '/static/foodstim60/roastedpotatoes.jpg', 'key': 'NaN', 'origWidth': 409, 'origHeight': 410, 'width': 409, 'height': 410, 'widthPercent': 0.8, 'rescaleHeight': True, 'trialN': 49, 'loaded': True, 'loadedTime': 3040.199999999255, 'positionName': 'CENTER', 'positionCoords': [755.5, 335]}]",Rate how much you want to eat this food from 0 (least) to 10 (most).,76807.90000000037,1669829521535,roastedpotatoes,1687.199999999255,True,7.0,78495.09999999963,1687.199999999255,True,HRV,HRV_0096,2022-11-30 17:32:18
50,"[{'imgObject': {}, 'id': 'corn cob', 'src': '/static/foodstim60/corn cob.jpg', 'key': 'NaN', 'origWidth': 411, 'origHeight': 411, 'width': 411, 'height': 411, 'widthPercent': 0.8, 'rescaleHeight': True, 'trialN': 50, 'loaded': True, 'loadedTime': 3045.0999999996275, 'positionName': 'CENTER', 'positionCoords': [754.5, 334.5]}]",Rate how much you want to eat this food from 0 (least) to 10 (most).,78495.90000000037,1669829523223,corn cob,1743.199999999255,True,4.98,80239.09999999963,1743.199999999255,True,HRV,HRV_0096,2022-11-30 17:32:18
51,"[{'imgObject': {}, 'id': 'olives', 'src': '/static/foodstim60/olives.jpg', 'key': 'NaN', 'origWidth': 410, 'origHeight': 410, 'width': 410, 'height': 410, 'widthPercent': 0.8, 'rescaleHeight': True, 'trialN': 51, 'loaded': True, 'loadedTime': 3078, 'positionName': 'CENTER', 'positionCoords': [755, 335]}]",Rate how much you want to eat this food from 0 (least) to 10 (most).,80239.79999999888,1669829524967,olives,1223.1000000014901,True,2.52,81462.90000000037,1223.1000000014901,True,HRV,HRV_0096,2022-11-30 17:32:18
52,"[{'imgObject': {}, 'id': 'raspberries', 'src': '/static/foodstim60/raspberries.jpg', 'key': 'NaN', 'origWidth': 411, 'origHeight': 411, 'width': 411, 'height': 411, 'widthPercent': 0.8, 'rescaleHeight': True, 'trialN': 52, 'loaded': True, 'loadedTime': 3081.5999999996275, 'positionName': 'CENTER', 'positionCoords': [754.5, 334.5]}]",Rate how much you want to eat this food from 0 (least) to 10 (most).,81463.79999999888,1669829526191,raspberries,1439.300000000745,True,5.0,82903.09999999963,1439.300000000745,True,HRV,HRV_0096,2022-11-30 17:32:18
53,"[{'imgObject': {}, 'id': 'sushi w_condiments', 'src': '/static/foodstim60/sushi w_condiments.jpg', 'key': 'NaN', 'origWidth': 410, 'origHeight': 410, 'width': 410, 'height': 410, 'widthPercent': 0.8, 'rescaleHeight': True, 'trialN': 53, 'loaded': True, 'loadedTime': 3085.9000000003725, 'positionName': 'CENTER', 'positionCoords': [755, 335]}]",Rate how much you want to eat this food from 0 (least) to 10 (most).,82904.0,1669829527631,sushi w_condiments,1591.0999999996275,True,5.67,84495.09999999963,1591.0999999996275,True,HRV,HRV_0096,2022-11-30 17:32:18
54,"[{'imgObject': {}, 'id': 'burger', 'src': '/static/foodstim60/burger.jpg', 'key': 'NaN', 'origWidth': 409, 'origHeight': 409, 'width': 409, 'height': 409, 'widthPercent': 0.8, 'rescaleHeight': True, 'trialN': 54, 'loaded': True, 'loadedTime': 3120.9000000003725, 'positionName': 'CENTER', 'positionCoords': [755.5, 335.5]}]",Rate how much you want to eat this food from 0 (least) to 10 (most).,84495.5,1669829529223,burger,1183.5,True,6.95,85679.0,1183.5,True,HRV,HRV_0096,2022-11-30 17:32:18
55,"[{'imgObject': {}, 'id': 'granola w milk', 'src': '/static/foodstim60/granola w milk.jpg', 'key': 'NaN', 'origWidth': 410, 'origHeight': 410, 'width': 410, 'height': 410, 'widthPercent': 0.8, 'rescaleHeight': True, 'trialN': 55, 'loaded': True, 'loadedTime': 3122.2999999988824, 'positionName': 'CENTER', 'positionCoords': [755, 335]}]",Rate how much you want to eat this food from 0 (least) to 10 (most).,85679.59999999963,1669829530407,granola w milk,1583.300000000745,True,5.1000000000000005,87262.90000000037,1583.300000000745,True,HRV,HRV_0096,2022-11-30 17:32:18
56,"[{'imgObject': {}, 'id': 'banana', 'src': '/static/foodstim60/banana.jpg', 'key': 'NaN', 'origWidth': 410, 'origHeight': 410, 'width': 410, 'height': 410, 'widthPercent': 0.8, 'rescaleHeight': True, 'trialN': 56, 'loaded': True, 'loadedTime': 3123.4000000003725, 'positionName': 'CENTER', 'positionCoords': [755, 335]}]",Rate how much you want to eat this food from 0 (least) to 10 (most).,87263.5,1669829531990,banana,1255.699999999255,True,3.14,88519.19999999925,1255.699999999255,True,HRV,HRV_0096,2022-11-30 17:32:18
57,"[{'imgObject': {}, 'id': 'blackbeanswithrice', 'src': '/static/foodstim60/blackbeanswithrice.jpg', 'key': 'NaN', 'origWidth': 410, 'origHeight': 410, 'width': 410, 'height': 410, 'widthPercent': 0.8, 'rescaleHeight': True, 'trialN': 57, 'loaded': True, 'loadedTime': 3156.699999999255, 'positionName': 'CENTER', 'positionCoords': [755, 335]}]",Rate how much you want to eat this food from 0 (least) to 10 (most).,88519.69999999925,1669829533247,blackbeanswithrice,1487.4000000003725,True,3.64,90007.09999999963,1487.4000000003725,True,HRV,HRV_0096,2022-11-30 17:32:18
58,"[{'imgObject': {}, 'id': 'rigatoni', 'src': '/static/foodstim60/rigatoni.jpg', 'key': 'NaN', 'origWidth': 411, 'origHeight': 411, 'width': 411, 'height': 411, 'widthPercent': 0.8, 'rescaleHeight': True, 'trialN': 58, 'loaded': True, 'loadedTime': 3151.0999999996275, 'positionName': 'CENTER', 'positionCoords': [754.5, 334.5]}]",Rate how much you want to eat this food from 0 (least) to 10 (most).,90007.59999999963,1669829534735,rigatoni,1023.4000000003725,True,3.5500000000000003,91031.0,1023.4000000003725,True,HRV,HRV_0096,2022-11-30 17:32:18
59,"[{'imgObject': {}, 'id': 'salmon', 'src': '/static/foodstim60/salmon.jpg', 'key': 'NaN', 'origWidth': 410, 'origHeight': 409, 'width': 410, 'height': 409, 'widthPercent': 0.8, 'rescaleHeight': True, 'trialN': 59, 'loaded': True, 'loadedTime': 3160.5, 'positionName': 'CENTER', 'positionCoords': [755, 335.5]}]",Rate how much you want to eat this food from 0 (least) to 10 (most).,91031.69999999925,1669829535759,salmon,1415.4000000003725,True,7.29,92447.09999999963,1415.4000000003725,True,HRV,HRV_0096,2022-11-30 17:32:18
