trialN,stimuli,trialStartTime,trialStartTime_UNIX,stimulus1,stimulus2,stimulus1Bid,stimulus2Bid,delta,selected,rt,rt_UNIX,rt_perfnow,receivedResponse,rsp,trialEndTime,trialDuration,trialEndTime_UNIX,trialDuration_UNIX,exp,subjectId,date
0,"[{'imgObject': {}, 'id': 'blueberries', 'src': '/static/foodstim60/blueberries.jpg', 'key': 'u', 'origWidth': 411, 'origHeight': 411, 'width': 411, 'height': 411, 'widthPercent': 0.45, 'rescaleHeight': False, 'trialN': 0, 'loaded': True, 'loadedTime': 2090.0999999996275, 'positionName': 'LEFT', 'positionCoords': [510.6, 334.5], 'bid': 5.0200000000000005}, {'imgObject': {}, 'id': 'rigatoni', 'src': '/static/foodstim60/rigatoni.jpg', 'key': 'i', 'origWidth': 411, 'origHeight': 411, 'width': 411, 'height': 411, 'widthPercent': 0.45, 'rescaleHeight': False, 'trialN': 0, 'loaded': True, 'loadedTime': 2129.0999999996275, 'positionName': 'RIGHT', 'positionCoords': [998.4, 334.5], 'bid': 2.85}]",2202.5999999996275,1669829689579,blueberries,rigatoni,5.0200000000000005,2.85,-2.1700000000000004,rigatoni,1340.7999999988824,1341,1341.199999999255,True,i,4051.89999999851,1849.2999999988824,1669829691428,1849,HRV,HRV_0096,2022-11-30 17:39:40
1,"[{'imgObject': {}, 'id': 'strawberries', 'src': '/static/foodstim60/strawberries.jpg', 'key': 'u', 'origWidth': 410, 'origHeight': 410, 'width': 410, 'height': 410, 'widthPercent': 0.45, 'rescaleHeight': False, 'trialN': 1, 'loaded': True, 'loadedTime': 2130.0999999996275, 'positionName': 'LEFT', 'positionCoords': [511.6, 335], 'bid': 5.84}, {'imgObject': {}, 'id': 'Tribe humus pita', 'src': '/static/foodstim60/Tribe humus pita.jpg', 'key': 'i', 'origWidth': 411, 'origHeight': 411, 'width': 411, 'height': 411, 'widthPercent': 0.45, 'rescaleHeight': False, 'trialN': 1, 'loaded': True, 'loadedTime': 2130.5, 'positionName': 'RIGHT', 'positionCoords': [998.4, 334.5], 'bid': 5.84}]",4052.2999999988824,1669829691429,strawberries,Tribe humus pita,5.84,5.84,0.0,Tribe humus pita,723.8000000007451,724,724.2000000011176,True,i,5286.0999999996275,1233.800000000745,1669829692663,1234,HRV,HRV_0096,2022-11-30 17:39:40
2,"[{'imgObject': {}, 'id': 'banana', 'src': '/static/foodstim60/banana.jpg', 'key': 'u', 'origWidth': 410, 'origHeight': 410, 'width': 410, 'height': 410, 'widthPercent': 0.45, 'rescaleHeight': False, 'trialN': 2, 'loaded': True, 'loadedTime': 2132.0999999996275, 'positionName': 'LEFT', 'positionCoords': [511.6, 335], 'bid': 3.9}, {'imgObject': {}, 'id': 'avocado', 'src': '/static/foodstim60/avocado.jpg', 'key': 'i', 'origWidth': 409, 'origHeight': 409, 'width': 409, 'height': 409, 'widthPercent': 0.45, 'rescaleHeight': False, 'trialN': 2, 'loaded': True, 'loadedTime': 2133, 'positionName': 'RIGHT', 'positionCoords': [998.4, 335.5], 'bid': 2.62}]",5286.5,1669829692663,banana,avocado,3.9,2.62,-1.2799999999999998,banana,881.3999999985099,882,882.0,True,u,6681.799999998882,1395.2999999988824,1669829694058,1395,HRV,HRV_0096,2022-11-30 17:39:40
3,"[{'imgObject': {}, 'id': 'raisin bran w milk', 'src': '/static/foodstim60/raisin bran w milk.jpg', 'key': 'u', 'origWidth': 411, 'origHeight': 411, 'width': 411, 'height': 411, 'widthPercent': 0.45, 'rescaleHeight': False, 'trialN': 3, 'loaded': True, 'loadedTime': 2133.699999999255, 'positionName': 'LEFT', 'positionCoords': [510.6, 334.5], 'bid': 5.22}, {'imgObject': {}, 'id': 'rigatoni and sauce', 'src': '/static/foodstim60/rigatoni and sauce.jpg', 'key': 'i', 'origWidth': 410, 'origHeight': 411, 'width': 410, 'height': 411, 'widthPercent': 0.45, 'rescaleHeight': False, 'trialN': 3, 'loaded': True, 'loadedTime': 2134, 'positionName': 'RIGHT', 'positionCoords': [998.4, 334.5], 'bid': 5.39}]",6682.199999999255,1669829694059,raisin bran w milk,rigatoni and sauce,5.22,5.39,0.16999999999999993,rigatoni and sauce,1149.699999999255,1150,1150.0,True,i,8352.799999998882,1670.5999999996275,1669829695729,1670,HRV,HRV_0096,2022-11-30 17:39:40
4,"[{'imgObject': {}, 'id': 'popsicles', 'src': '/static/foodstim60/popsicles.jpg', 'key': 'u', 'origWidth': 410, 'origHeight': 410, 'width': 410, 'height': 410, 'widthPercent': 0.45, 'rescaleHeight': False, 'trialN': 4, 'loaded': True, 'loadedTime': 2201.5, 'positionName': 'LEFT', 'positionCoords': [511.6, 335], 'bid': 7.5}, {'imgObject': {}, 'id': 'seaweed', 'src': '/static/foodstim60/seaweed.jpg', 'key': 'i', 'origWidth': 410, 'origHeight': 410, 'width': 410, 'height': 410, 'widthPercent': 0.45, 'rescaleHeight': False, 'trialN': 4, 'loaded': True, 'loadedTime': 2135.199999999255, 'positionName': 'RIGHT', 'positionCoords': [998.4, 335], 'bid': 7.95}]",8352.799999998882,1669829695729,popsicles,seaweed,7.5,7.95,0.4500000000000002,seaweed,1462.800000000745,1463,1463.0,True,i,10322.5,1969.7000000011176,1669829697692,1963,HRV,HRV_0096,2022-11-30 17:39:40
5,"[{'imgObject': {}, 'id': 'burrito', 'src': '/static/foodstim60/burrito.jpg', 'key': 'u', 'origWidth': 410, 'origHeight': 410, 'width': 410, 'height': 410, 'widthPercent': 0.45, 'rescaleHeight': False, 'trialN': 5, 'loaded': True, 'loadedTime': 2137, 'positionName': 'LEFT', 'positionCoords': [511.6, 335], 'bid': 3.17}, {'imgObject': {}, 'id': 'Tribe humus pita', 'src': '/static/foodstim60/Tribe humus pita.jpg', 'key': 'i', 'origWidth': 411, 'origHeight': 411, 'width': 411, 'height': 411, 'widthPercent': 0.45, 'rescaleHeight': False, 'trialN': 5, 'loaded': True, 'loadedTime': 2131.0999999996275, 'positionName': 'RIGHT', 'positionCoords': [998.4, 334.5], 'bid': 5.84}]",10323.0,1669829697693,burrito,Tribe humus pita,3.17,5.84,2.67,Tribe humus pita,1068.5999999996275,1069,1068.7999999988824,True,i,11908.0,1585.0,1669829699278,1585,HRV,HRV_0096,2022-11-30 17:39:40
6,"[{'imgObject': {}, 'id': 'pear', 'src': '/static/foodstim60/pear.jpg', 'key': 'u', 'origWidth': 411, 'origHeight': 410, 'width': 411, 'height': 410, 'widthPercent': 0.45, 'rescaleHeight': False, 'trialN': 6, 'loaded': True, 'loadedTime': 2137.5, 'positionName': 'LEFT', 'positionCoords': [510.6, 335], 'bid': 3.42}, {'imgObject': {}, 'id': 'lox', 'src': '/static/foodstim60/lox.jpg', 'key': 'i', 'origWidth': 410, 'origHeight': 411, 'width': 410, 'height': 411, 'widthPercent': 0.45, 'rescaleHeight': False, 'trialN': 6, 'loaded': True, 'loadedTime': 2138, 'positionName': 'RIGHT', 'positionCoords': [998.4, 334.5], 'bid': 4.47}]",11908.099999999627,1669829699278,pear,lox,3.42,4.47,1.0499999999999998,pear,1540.0,1540,1540.5999999996275,True,u,13962.299999998882,2054.199999999255,1669829701332,2054,HRV,HRV_0096,2022-11-30 17:39:40
7,"[{'imgObject': {}, 'id': 'Grapes', 'src': '/static/foodstim60/Grapes.jpg', 'key': 'u', 'origWidth': 411, 'origHeight': 411, 'width': 411, 'height': 411, 'widthPercent': 0.45, 'rescaleHeight': False, 'trialN': 7, 'loaded': True, 'loadedTime': 2139.5999999996275, 'positionName': 'LEFT', 'positionCoords': [510.6, 334.5], 'bid': 5.41}, {'imgObject': {}, 'id': 'sushi w_condiments', 'src': '/static/foodstim60/sushi w_condiments.jpg', 'key': 'i', 'origWidth': 410, 'origHeight': 410, 'width': 410, 'height': 410, 'widthPercent': 0.45, 'rescaleHeight': False, 'trialN': 7, 'loaded': True, 'loadedTime': 2140.699999999255, 'positionName': 'RIGHT', 'positionCoords': [998.4, 335], 'bid': 5.87}]",13962.5,1669829701332,Grapes,sushi w_condiments,5.41,5.87,0.45999999999999996,sushi w_condiments,1245.5,1246,1246.0999999996275,True,i,15729.599999999627,1767.0999999996275,1669829703099,1767,HRV,HRV_0096,2022-11-30 17:39:40
8,"[{'imgObject': {}, 'id': 'cherries', 'src': '/static/foodstim60/cherries.jpg', 'key': 'u', 'origWidth': 410, 'origHeight': 411, 'width': 410, 'height': 411, 'widthPercent': 0.45, 'rescaleHeight': False, 'trialN': 8, 'loaded': True, 'loadedTime': 2141.5999999996275, 'positionName': 'LEFT', 'positionCoords': [511.6, 334.5], 'bid': 5.12}, {'imgObject': {}, 'id': 'bagel and cc', 'src': '/static/foodstim60/bagel and cc.jpg', 'key': 'i', 'origWidth': 410, 'origHeight': 410, 'width': 410, 'height': 410, 'widthPercent': 0.45, 'rescaleHeight': False, 'trialN': 8, 'loaded': True, 'loadedTime': 2142.39999999851, 'positionName': 'RIGHT', 'positionCoords': [998.4, 335], 'bid': 5.71}]",15729.799999998882,1669829703099,cherries,bagel and cc,5.12,5.71,0.5899999999999999,bagel and cc,1014.2000000011176,1015,1014.7000000011176,True,i,17265.599999999627,1535.800000000745,1669829704635,1536,HRV,HRV_0096,2022-11-30 17:39:40
9,"[{'imgObject': {}, 'id': 'rigatoni and sauce', 'src': '/static/foodstim60/rigatoni and sauce.jpg', 'key': 'u', 'origWidth': 410, 'origHeight': 411, 'width': 410, 'height': 411, 'widthPercent': 0.45, 'rescaleHeight': False, 'trialN': 9, 'loaded': True, 'loadedTime': 2134.7999999988824, 'positionName': 'LEFT', 'positionCoords': [511.6, 334.5], 'bid': 5.39}, {'imgObject': {}, 'id': 'bagel plain', 'src': '/static/foodstim60/bagel plain.jpg', 'key': 'i', 'origWidth': 410, 'origHeight': 410, 'width': 410, 'height': 410, 'widthPercent': 0.45, 'rescaleHeight': False, 'trialN': 9, 'loaded': True, 'loadedTime': 2143.2999999988824, 'positionName': 'RIGHT', 'positionCoords': [998.4, 335], 'bid': 5.8100000000000005}]",17265.799999998882,1669829704636,rigatoni and sauce,bagel plain,5.39,5.8100000000000005,0.4200000000000008,rigatoni and sauce,1710.2000000011176,1710,1710.5999999996275,True,u,19499.099999999627,2233.300000000745,1669829706869,2233,HRV,HRV_0096,2022-11-30 17:39:40
10,"[{'imgObject': {}, 'id': 'eggsalad', 'src': '/static/foodstim60/eggsalad.jpg', 'key': 'u', 'origWidth': 410, 'origHeight': 409, 'width': 410, 'height': 409, 'widthPercent': 0.45, 'rescaleHeight': False, 'trialN': 10, 'loaded': True, 'loadedTime': 2144.5, 'positionName': 'LEFT', 'positionCoords': [511.6, 335.5], 'bid': 3.92}, {'imgObject': {}, 'id': 'froot loops w milk', 'src': '/static/foodstim60/froot loops w milk.jpg', 'key': 'i', 'origWidth': 410, 'origHeight': 410, 'width': 410, 'height': 410, 'widthPercent': 0.45, 'rescaleHeight': False, 'trialN': 10, 'loaded': True, 'loadedTime': 2149, 'positionName': 'RIGHT', 'positionCoords': [998.4, 335], 'bid': 6.23}]",19499.39999999851,1669829706869,eggsalad,froot loops w milk,3.92,6.23,2.3100000000000005,froot loops w milk,876.8000000007451,877,877.3000000007451,True,i,20895.699999999255,1396.300000000745,1669829708265,1396,HRV,HRV_0096,2022-11-30 17:39:40
11,"[{'imgObject': {}, 'id': 'veggieswithdip', 'src': '/static/foodstim60/veggieswithdip.jpg', 'key': 'u', 'origWidth': 409, 'origHeight': 409, 'width': 409, 'height': 409, 'widthPercent': 0.45, 'rescaleHeight': False, 'trialN': 11, 'loaded': True, 'loadedTime': 2156.89999999851, 'positionName': 'LEFT', 'positionCoords': [512.6, 335.5], 'bid': 1.61}, {'imgObject': {}, 'id': 'olives', 'src': '/static/foodstim60/olives.jpg', 'key': 'i', 'origWidth': 410, 'origHeight': 410, 'width': 410, 'height': 410, 'widthPercent': 0.45, 'rescaleHeight': False, 'trialN': 11, 'loaded': True, 'loadedTime': 2166.5999999996275, 'positionName': 'RIGHT', 'positionCoords': [998.4, 335], 'bid': 2.3000000000000003}]",20895.799999998882,1669829708265,veggieswithdip,olives,1.61,2.3000000000000003,0.6900000000000002,olives,1503.7000000011176,1504,1504.0,True,i,22914.099999999627,2018.300000000745,1669829710284,2019,HRV,HRV_0096,2022-11-30 17:39:40
12,"[{'imgObject': {}, 'id': 'baked potato', 'src': '/static/foodstim60/baked potato.jpg', 'key': 'u', 'origWidth': 409, 'origHeight': 410, 'width': 409, 'height': 410, 'widthPercent': 0.45, 'rescaleHeight': False, 'trialN': 12, 'loaded': True, 'loadedTime': 2123.2999999988824, 'positionName': 'LEFT', 'positionCoords': [512.6, 335], 'bid': 5.8}, {'imgObject': {}, 'id': 'raisin bran w milk', 'src': '/static/foodstim60/raisin bran w milk.jpg', 'key': 'i', 'origWidth': 411, 'origHeight': 411, 'width': 411, 'height': 411, 'widthPercent': 0.45, 'rescaleHeight': False, 'trialN': 12, 'loaded': True, 'loadedTime': 2133.7999999988824, 'positionName': 'RIGHT', 'positionCoords': [998.4, 334.5], 'bid': 5.22}]",22914.39999999851,1669829710284,baked potato,raisin bran w milk,5.8,5.22,-0.5800000000000001,baked potato,989.7000000011176,990,990.2000000011176,True,u,24414.39999999851,1500.0,1669829711784,1500,HRV,HRV_0096,2022-11-30 17:39:40
13,"[{'imgObject': {}, 'id': 'bagel plain', 'src': '/static/foodstim60/bagel plain.jpg', 'key': 'u', 'origWidth': 410, 'origHeight': 410, 'width': 410, 'height': 410, 'widthPercent': 0.45, 'rescaleHeight': False, 'trialN': 13, 'loaded': True, 'loadedTime': 2142.5999999996275, 'positionName': 'LEFT', 'positionCoords': [511.6, 335], 'bid': 5.8100000000000005}, {'imgObject': {}, 'id': 'avocado', 'src': '/static/foodstim60/avocado.jpg', 'key': 'i', 'origWidth': 409, 'origHeight': 409, 'width': 409, 'height': 409, 'widthPercent': 0.45, 'rescaleHeight': False, 'trialN': 13, 'loaded': True, 'loadedTime': 2133, 'positionName': 'RIGHT', 'positionCoords': [998.4, 335.5], 'bid': 2.62}]",24414.599999999627,1669829711784,bagel plain,avocado,5.8100000000000005,2.62,-3.1900000000000004,bagel plain,993.5,994,993.9000000003725,True,u,25923.39999999851,1508.7999999988824,1669829713293,1509,HRV,HRV_0096,2022-11-30 17:39:40
14,"[{'imgObject': {}, 'id': 'salad w chicken', 'src': '/static/foodstim60/salad w chicken.jpg', 'key': 'u', 'origWidth': 411, 'origHeight': 411, 'width': 411, 'height': 411, 'widthPercent': 0.45, 'rescaleHeight': False, 'trialN': 14, 'loaded': True, 'loadedTime': 2143.5, 'positionName': 'LEFT', 'positionCoords': [510.6, 334.5], 'bid': 5.9}, {'imgObject': {}, 'id': 'sushi w_condiments', 'src': '/static/foodstim60/sushi w_condiments.jpg', 'key': 'i', 'origWidth': 410, 'origHeight': 410, 'width': 410, 'height': 410, 'widthPercent': 0.45, 'rescaleHeight': False, 'trialN': 14, 'loaded': True, 'loadedTime': 2140.39999999851, 'positionName': 'RIGHT', 'positionCoords': [998.4, 335], 'bid': 5.87}]",25923.599999999627,1669829713293,salad w chicken,sushi w_condiments,5.9,5.87,-0.03000000000000025,sushi w_condiments,1204.4000000003725,1205,1204.7999999988824,True,i,27642.89999999851,1719.2999999988824,1669829715013,1720,HRV,HRV_0096,2022-11-30 17:39:40
15,"[{'imgObject': {}, 'id': 'chickenfingers', 'src': '/static/foodstim60/chickenfingers.jpg', 'key': 'u', 'origWidth': 410, 'origHeight': 410, 'width': 410, 'height': 410, 'widthPercent': 0.45, 'rescaleHeight': False, 'trialN': 15, 'loaded': True, 'loadedTime': 2168.2999999988824, 'positionName': 'LEFT', 'positionCoords': [511.6, 335], 'bid': 7.38}, {'imgObject': {}, 'id': 'cherries', 'src': '/static/foodstim60/cherries.jpg', 'key': 'i', 'origWidth': 410, 'origHeight': 411, 'width': 410, 'height': 411, 'widthPercent': 0.45, 'rescaleHeight': False, 'trialN': 15, 'loaded': True, 'loadedTime': 2141.5999999996275, 'positionName': 'RIGHT', 'positionCoords': [998.4, 334.5], 'bid': 5.12}]",27643.199999999255,1669829715013,chickenfingers,cherries,7.38,5.12,-2.26,chickenfingers,892.8000000007451,893,893.5,True,u,29044.39999999851,1401.199999999255,1669829716414,1401,HRV,HRV_0096,2022-11-30 17:39:40
16,"[{'imgObject': {}, 'id': 'raisin bran w milk', 'src': '/static/foodstim60/raisin bran w milk.jpg', 'key': 'u', 'origWidth': 411, 'origHeight': 411, 'width': 411, 'height': 411, 'widthPercent': 0.45, 'rescaleHeight': False, 'trialN': 16, 'loaded': True, 'loadedTime': 2133.7999999988824, 'positionName': 'LEFT', 'positionCoords': [510.6, 334.5], 'bid': 5.22}, {'imgObject': {}, 'id': 'cherries', 'src': '/static/foodstim60/cherries.jpg', 'key': 'i', 'origWidth': 410, 'origHeight': 411, 'width': 410, 'height': 411, 'widthPercent': 0.45, 'rescaleHeight': False, 'trialN': 16, 'loaded': True, 'loadedTime': 2140.699999999255, 'positionName': 'RIGHT', 'positionCoords': [998.4, 334.5], 'bid': 5.12}]",29044.5,1669829716414,raisin bran w milk,cherries,5.22,5.12,-0.09999999999999964,raisin bran w milk,1067.5999999996275,1068,1068.0,True,u,30625.699999999255,1581.199999999255,1669829717995,1581,HRV,HRV_0096,2022-11-30 17:39:40
17,"[{'imgObject': {}, 'id': 'roastedpotatoes', 'src': '/static/foodstim60/roastedpotatoes.jpg', 'key': 'u', 'origWidth': 409, 'origHeight': 410, 'width': 409, 'height': 410, 'widthPercent': 0.45, 'rescaleHeight': False, 'trialN': 17, 'loaded': True, 'loadedTime': 2169.5, 'positionName': 'LEFT', 'positionCoords': [512.6, 335], 'bid': 7.29}, {'imgObject': {}, 'id': 'chicken nuggets2', 'src': '/static/foodstim60/chicken nuggets2.jpg', 'key': 'i', 'origWidth': 410, 'origHeight': 409, 'width': 410, 'height': 409, 'widthPercent': 0.45, 'rescaleHeight': False, 'trialN': 17, 'loaded': True, 'loadedTime': 2170.89999999851, 'positionName': 'RIGHT', 'positionCoords': [998.4, 335.5], 'bid': 8.11}]",30625.89999999851,1669829717996,roastedpotatoes,chicken nuggets2,7.29,8.11,0.8199999999999994,chicken nuggets2,1806.5,1807,1807.1000000014901,True,i,32954.29999999888,2328.4000000003725,1669829720324,2328,HRV,HRV_0096,2022-11-30 17:39:40
18,"[{'imgObject': {}, 'id': 'hashbrowns', 'src': '/static/foodstim60/hashbrowns.jpg', 'key': 'u', 'origWidth': 411, 'origHeight': 410, 'width': 411, 'height': 410, 'widthPercent': 0.45, 'rescaleHeight': False, 'trialN': 18, 'loaded': True, 'loadedTime': 2172.2999999988824, 'positionName': 'LEFT', 'positionCoords': [510.6, 335], 'bid': 4}, {'imgObject': {}, 'id': 'veggieswithdip', 'src': '/static/foodstim60/veggieswithdip.jpg', 'key': 'i', 'origWidth': 409, 'origHeight': 409, 'width': 409, 'height': 409, 'widthPercent': 0.45, 'rescaleHeight': False, 'trialN': 18, 'loaded': True, 'loadedTime': 2155.5999999996275, 'positionName': 'RIGHT', 'positionCoords': [998.4, 335.5], 'bid': 1.61}]",32954.39999999851,1669829720324,hashbrowns,veggieswithdip,4.0,1.61,-2.3899999999999997,hashbrowns,933.6000000014901,934,934.0,True,u,34409.09999999963,1454.7000000011176,1669829721779,1455,HRV,HRV_0096,2022-11-30 17:39:40
19,"[{'imgObject': {}, 'id': 'chickenfingers', 'src': '/static/foodstim60/chickenfingers.jpg', 'key': 'u', 'origWidth': 410, 'origHeight': 410, 'width': 410, 'height': 410, 'widthPercent': 0.45, 'rescaleHeight': False, 'trialN': 19, 'loaded': True, 'loadedTime': 2168.39999999851, 'positionName': 'LEFT', 'positionCoords': [511.6, 335], 'bid': 7.38}, {'imgObject': {}, 'id': 'omelette', 'src': '/static/foodstim60/omelette.jpg', 'key': 'i', 'origWidth': 410, 'origHeight': 409, 'width': 410, 'height': 409, 'widthPercent': 0.45, 'rescaleHeight': False, 'trialN': 19, 'loaded': True, 'loadedTime': 2173.5, 'positionName': 'RIGHT', 'positionCoords': [998.4, 335.5], 'bid': 6.6000000000000005}]",34409.39999999851,1669829721779,chickenfingers,omelette,7.38,6.6000000000000005,-0.7799999999999994,chickenfingers,1310.5,1311,1310.9000000003725,True,u,36238.09999999963,1828.7000000011176,1669829723608,1829,HRV,HRV_0096,2022-11-30 17:39:40
20,"[{'imgObject': {}, 'id': 'mango', 'src': '/static/foodstim60/mango.jpg', 'key': 'u', 'origWidth': 411, 'origHeight': 411, 'width': 411, 'height': 411, 'widthPercent': 0.45, 'rescaleHeight': False, 'trialN': 20, 'loaded': True, 'loadedTime': 2174.5999999996275, 'positionName': 'LEFT', 'positionCoords': [510.6, 334.5], 'bid': 5.04}, {'imgObject': {}, 'id': 'blueberries', 'src': '/static/foodstim60/blueberries.jpg', 'key': 'i', 'origWidth': 411, 'origHeight': 411, 'width': 411, 'height': 411, 'widthPercent': 0.45, 'rescaleHeight': False, 'trialN': 20, 'loaded': True, 'loadedTime': 2102.199999999255, 'positionName': 'RIGHT', 'positionCoords': [998.4, 334.5], 'bid': 5.0200000000000005}]",36238.29999999888,1669829723608,mango,blueberries,5.04,5.0200000000000005,-0.019999999999999574,mango,1329.800000000745,1330,1330.2000000011176,True,u,38085.699999999255,1847.4000000003725,1669829725455,1847,HRV,HRV_0096,2022-11-30 17:39:40
21,"[{'imgObject': {}, 'id': 'chicken nuggets2', 'src': '/static/foodstim60/chicken nuggets2.jpg', 'key': 'u', 'origWidth': 410, 'origHeight': 409, 'width': 410, 'height': 409, 'widthPercent': 0.45, 'rescaleHeight': False, 'trialN': 21, 'loaded': True, 'loadedTime': 2171.0999999996275, 'positionName': 'LEFT', 'positionCoords': [511.6, 335.5], 'bid': 8.11}, {'imgObject': {}, 'id': 'steak', 'src': '/static/foodstim60/steak.jpg', 'key': 'i', 'origWidth': 410, 'origHeight': 410, 'width': 410, 'height': 410, 'widthPercent': 0.45, 'rescaleHeight': False, 'trialN': 21, 'loaded': True, 'loadedTime': 2175.5999999996275, 'positionName': 'RIGHT', 'positionCoords': [998.4, 335], 'bid': 8.38}]",38085.79999999888,1669829725455,chicken nuggets2,steak,8.11,8.38,0.27000000000000135,steak,705.5999999996275,706,705.7000000011176,True,i,39304.29999999888,1218.5,1669829726674,1219,HRV,HRV_0096,2022-11-30 17:39:40
22,"[{'imgObject': {}, 'id': 'mango', 'src': '/static/foodstim60/mango.jpg', 'key': 'u', 'origWidth': 411, 'origHeight': 411, 'width': 411, 'height': 411, 'widthPercent': 0.45, 'rescaleHeight': False, 'trialN': 22, 'loaded': True, 'loadedTime': 2174.39999999851, 'positionName': 'LEFT', 'positionCoords': [510.6, 334.5], 'bid': 5.04}, {'imgObject': {}, 'id': 'cantaloupe', 'src': '/static/foodstim60/cantaloupe.jpg', 'key': 'i', 'origWidth': 409, 'origHeight': 409, 'width': 409, 'height': 409, 'widthPercent': 0.45, 'rescaleHeight': False, 'trialN': 22, 'loaded': True, 'loadedTime': 2176.39999999851, 'positionName': 'RIGHT', 'positionCoords': [998.4, 335.5], 'bid': 4.11}]",39304.59999999963,1669829726674,mango,cantaloupe,5.04,4.11,-0.9299999999999997,mango,1783.5,1784,1784.0999999996275,True,u,41606.59999999963,2302.0,1669829728976,2302,HRV,HRV_0096,2022-11-30 17:39:40
23,"[{'imgObject': {}, 'id': 'apple slices', 'src': '/static/foodstim60/apple slices.jpg', 'key': 'u', 'origWidth': 409, 'origHeight': 410, 'width': 409, 'height': 410, 'widthPercent': 0.45, 'rescaleHeight': False, 'trialN': 23, 'loaded': True, 'loadedTime': 2176.699999999255, 'positionName': 'LEFT', 'positionCoords': [512.6, 335], 'bid': 3.78}, {'imgObject': {}, 'id': 'banana', 'src': '/static/foodstim60/banana.jpg', 'key': 'i', 'origWidth': 410, 'origHeight': 410, 'width': 410, 'height': 410, 'widthPercent': 0.45, 'rescaleHeight': False, 'trialN': 23, 'loaded': True, 'loadedTime': 2131.39999999851, 'positionName': 'RIGHT', 'positionCoords': [998.4, 335], 'bid': 3.9}]",41606.699999999255,1669829728976,apple slices,banana,3.78,3.9,0.1200000000000001,banana,872.6999999992549,873,873.0,True,i,42995.699999999255,1389.0,1669829730365,1389,HRV,HRV_0096,2022-11-30 17:39:40
24,"[{'imgObject': {}, 'id': 'yogurt no spoon', 'src': '/static/foodstim60/yogurt no spoon.jpg', 'key': 'u', 'origWidth': 411, 'origHeight': 410, 'width': 411, 'height': 410, 'widthPercent': 0.45, 'rescaleHeight': False, 'trialN': 24, 'loaded': True, 'loadedTime': 2178.5, 'positionName': 'LEFT', 'positionCoords': [510.6, 335], 'bid': 5.84}, {'imgObject': {}, 'id': 'hotdog w must', 'src': '/static/foodstim60/hotdog w must.jpg', 'key': 'i', 'origWidth': 409, 'origHeight': 409, 'width': 409, 'height': 409, 'widthPercent': 0.45, 'rescaleHeight': False, 'trialN': 24, 'loaded': True, 'loadedTime': 2178.5999999996275, 'positionName': 'RIGHT', 'positionCoords': [998.4, 335.5], 'bid': 5.82}]",42995.89999999851,1669829730366,yogurt no spoon,hotdog w must,5.84,5.82,-0.019999999999999574,hotdog w must,1484.1000000014901,1484,1484.7000000011176,True,i,44996.39999999851,2000.5,1669829732366,2000,HRV,HRV_0096,2022-11-30 17:39:40
25,"[{'imgObject': {}, 'id': 'turkey sandwich', 'src': '/static/foodstim60/turkey sandwich.jpg', 'key': 'u', 'origWidth': 409, 'origHeight': 409, 'width': 409, 'height': 409, 'widthPercent': 0.45, 'rescaleHeight': False, 'trialN': 25, 'loaded': True, 'loadedTime': 2180, 'positionName': 'LEFT', 'positionCoords': [512.6, 335.5], 'bid': 6.43}, {'imgObject': {}, 'id': 'froot loops w milk', 'src': '/static/foodstim60/froot loops w milk.jpg', 'key': 'i', 'origWidth': 410, 'origHeight': 410, 'width': 410, 'height': 410, 'widthPercent': 0.45, 'rescaleHeight': False, 'trialN': 25, 'loaded': True, 'loadedTime': 2145.5999999996275, 'positionName': 'RIGHT', 'positionCoords': [998.4, 335], 'bid': 6.23}]",44996.5,1669829732366,turkey sandwich,froot loops w milk,6.43,6.23,-0.1999999999999993,turkey sandwich,923.5999999996275,924,924.0,True,u,46436.0,1439.5,1669829733806,1440,HRV,HRV_0096,2022-11-30 17:39:40
26,"[{'imgObject': {}, 'id': 'roastedpotatoes', 'src': '/static/foodstim60/roastedpotatoes.jpg', 'key': 'u', 'origWidth': 409, 'origHeight': 410, 'width': 409, 'height': 410, 'widthPercent': 0.45, 'rescaleHeight': False, 'trialN': 26, 'loaded': True, 'loadedTime': 2169.39999999851, 'positionName': 'LEFT', 'positionCoords': [512.6, 335], 'bid': 7.29}, {'imgObject': {}, 'id': 'mango', 'src': '/static/foodstim60/mango.jpg', 'key': 'i', 'origWidth': 411, 'origHeight': 411, 'width': 411, 'height': 411, 'widthPercent': 0.45, 'rescaleHeight': False, 'trialN': 26, 'loaded': True, 'loadedTime': 2174.699999999255, 'positionName': 'RIGHT', 'positionCoords': [998.4, 334.5], 'bid': 5.04}]",46436.5,1669829733806,roastedpotatoes,mango,7.29,5.04,-2.25,roastedpotatoes,803.5,804,804.0,True,u,47762.79999999888,1326.2999999988824,1669829735132,1326,HRV,HRV_0096,2022-11-30 17:39:40
27,"[{'imgObject': {}, 'id': 'blueberries', 'src': '/static/foodstim60/blueberries.jpg', 'key': 'u', 'origWidth': 411, 'origHeight': 411, 'width': 411, 'height': 411, 'widthPercent': 0.45, 'rescaleHeight': False, 'trialN': 27, 'loaded': True, 'loadedTime': 2101.699999999255, 'positionName': 'LEFT', 'positionCoords': [510.6, 334.5], 'bid': 5.0200000000000005}, {'imgObject': {}, 'id': 'eggsalad', 'src': '/static/foodstim60/eggsalad.jpg', 'key': 'i', 'origWidth': 410, 'origHeight': 409, 'width': 410, 'height': 409, 'widthPercent': 0.45, 'rescaleHeight': False, 'trialN': 27, 'loaded': True, 'loadedTime': 2145.5, 'positionName': 'RIGHT', 'positionCoords': [998.4, 335.5], 'bid': 3.92}]",47762.89999999851,1669829735133,blueberries,eggsalad,5.0200000000000005,3.92,-1.1000000000000005,blueberries,1052.5,1052,1052.7000000011176,True,u,49329.79999999888,1566.9000000003725,1669829736699,1566,HRV,HRV_0096,2022-11-30 17:39:40
28,"[{'imgObject': {}, 'id': 'mac & cheese', 'src': '/static/foodstim60/mac & cheese.jpg', 'key': 'u', 'origWidth': 410, 'origHeight': 410, 'width': 410, 'height': 410, 'widthPercent': 0.45, 'rescaleHeight': False, 'trialN': 28, 'loaded': True, 'loadedTime': 2181.199999999255, 'positionName': 'LEFT', 'positionCoords': [511.6, 335], 'bid': 7.19}, {'imgObject': {}, 'id': 'luckycharms', 'src': '/static/foodstim60/luckycharms.jpg', 'key': 'i', 'origWidth': 410, 'origHeight': 409, 'width': 410, 'height': 409, 'widthPercent': 0.45, 'rescaleHeight': False, 'trialN': 28, 'loaded': True, 'loadedTime': 2181.2999999988824, 'positionName': 'RIGHT', 'positionCoords': [998.4, 335.5], 'bid': 6}]",49330.09999999963,1669829736700,mac & cheese,luckycharms,7.19,6.0,-1.1900000000000004,mac & cheese,973.9000000003725,974,974.4000000003725,True,u,50815.09999999963,1485.0,1669829738185,1485,HRV,HRV_0096,2022-11-30 17:39:40
29,"[{'imgObject': {}, 'id': 'burrito', 'src': '/static/foodstim60/burrito.jpg', 'key': 'u', 'origWidth': 410, 'origHeight': 410, 'width': 410, 'height': 410, 'widthPercent': 0.45, 'rescaleHeight': False, 'trialN': 29, 'loaded': True, 'loadedTime': 2136.89999999851, 'positionName': 'LEFT', 'positionCoords': [511.6, 335], 'bid': 3.17}, {'imgObject': {}, 'id': 'mango', 'src': '/static/foodstim60/mango.jpg', 'key': 'i', 'origWidth': 411, 'origHeight': 411, 'width': 411, 'height': 411, 'widthPercent': 0.45, 'rescaleHeight': False, 'trialN': 29, 'loaded': True, 'loadedTime': 2173.89999999851, 'positionName': 'RIGHT', 'positionCoords': [998.4, 334.5], 'bid': 5.04}]",50815.29999999888,1669829738185,burrito,mango,3.17,5.04,1.87,mango,1248.0999999996275,1248,1248.300000000745,True,i,52583.89999999851,1768.5999999996275,1669829739954,1769,HRV,HRV_0096,2022-11-30 17:39:40
30,"[{'imgObject': {}, 'id': 'corn cob', 'src': '/static/foodstim60/corn cob.jpg', 'key': 'u', 'origWidth': 411, 'origHeight': 411, 'width': 411, 'height': 411, 'widthPercent': 0.45, 'rescaleHeight': False, 'trialN': 30, 'loaded': True, 'loadedTime': 2182.89999999851, 'positionName': 'LEFT', 'positionCoords': [510.6, 334.5], 'bid': 5.0600000000000005}, {'imgObject': {}, 'id': 'pear', 'src': '/static/foodstim60/pear.jpg', 'key': 'i', 'origWidth': 411, 'origHeight': 410, 'width': 411, 'height': 410, 'widthPercent': 0.45, 'rescaleHeight': False, 'trialN': 30, 'loaded': True, 'loadedTime': 2137.7999999988824, 'positionName': 'RIGHT', 'positionCoords': [998.4, 335], 'bid': 3.42}]",52584.09999999963,1669829739954,corn cob,pear,5.0600000000000005,3.42,-1.6400000000000006,corn cob,776.1999999992549,777,776.6999999992549,True,u,53883.5,1299.4000000003725,1669829741253,1299,HRV,HRV_0096,2022-11-30 17:39:40
31,"[{'imgObject': {}, 'id': 'froot loops w milk', 'src': '/static/foodstim60/froot loops w milk.jpg', 'key': 'u', 'origWidth': 410, 'origHeight': 410, 'width': 410, 'height': 410, 'widthPercent': 0.45, 'rescaleHeight': False, 'trialN': 31, 'loaded': True, 'loadedTime': 2149.0999999996275, 'positionName': 'LEFT', 'positionCoords': [511.6, 335], 'bid': 6.23}, {'imgObject': {}, 'id': 'mashed potato', 'src': '/static/foodstim60/mashed potato.jpg', 'key': 'i', 'origWidth': 409, 'origHeight': 409, 'width': 409, 'height': 409, 'widthPercent': 0.45, 'rescaleHeight': False, 'trialN': 31, 'loaded': True, 'loadedTime': 2183.7999999988824, 'positionName': 'RIGHT', 'positionCoords': [998.4, 335.5], 'bid': 6.58}]",53883.699999999255,1669829741253,froot loops w milk,mashed potato,6.23,6.58,0.34999999999999964,mashed potato,1267.5999999996275,1268,1267.800000000745,True,i,55668.5,1784.800000000745,1669829743038,1785,HRV,HRV_0096,2022-11-30 17:39:40
32,"[{'imgObject': {}, 'id': 'mac & cheese', 'src': '/static/foodstim60/mac & cheese.jpg', 'key': 'u', 'origWidth': 410, 'origHeight': 410, 'width': 410, 'height': 410, 'widthPercent': 0.45, 'rescaleHeight': False, 'trialN': 32, 'loaded': True, 'loadedTime': 2181, 'positionName': 'LEFT', 'positionCoords': [511.6, 335], 'bid': 7.19}, {'imgObject': {}, 'id': 'ice cream sundae 002', 'src': '/static/foodstim60/ice cream sundae 002.jpg', 'key': 'i', 'origWidth': 409, 'origHeight': 409, 'width': 409, 'height': 409, 'widthPercent': 0.45, 'rescaleHeight': False, 'trialN': 32, 'loaded': True, 'loadedTime': 2184.5999999996275, 'positionName': 'RIGHT', 'positionCoords': [998.4, 335.5], 'bid': 6.93}]",55668.79999999888,1669829743038,mac & cheese,ice cream sundae 002,7.19,6.93,-0.2600000000000007,mac & cheese,1595.2000000011176,1596,1595.5999999996275,True,u,57787.29999999888,2118.5,1669829745157,2119,HRV,HRV_0096,2022-11-30 17:39:40
33,"[{'imgObject': {}, 'id': 'sushi w_condiments', 'src': '/static/foodstim60/sushi w_condiments.jpg', 'key': 'u', 'origWidth': 410, 'origHeight': 410, 'width': 410, 'height': 410, 'widthPercent': 0.45, 'rescaleHeight': False, 'trialN': 33, 'loaded': True, 'loadedTime': 2140.5, 'positionName': 'LEFT', 'positionCoords': [511.6, 335], 'bid': 5.87}, {'imgObject': {}, 'id': 'grilled chicken strips', 'src': '/static/foodstim60/grilled chicken strips.jpg', 'key': 'i', 'origWidth': 410, 'origHeight': 411, 'width': 410, 'height': 411, 'widthPercent': 0.45, 'rescaleHeight': False, 'trialN': 33, 'loaded': True, 'loadedTime': 2185.39999999851, 'positionName': 'RIGHT', 'positionCoords': [998.4, 334.5], 'bid': 7.31}]",57787.59999999963,1669829745157,sushi w_condiments,grilled chicken strips,5.87,7.31,1.4399999999999995,grilled chicken strips,843.9000000003725,844,844.0,True,i,59141.699999999255,1354.0999999996275,1669829746511,1354,HRV,HRV_0096,2022-11-30 17:39:40
34,"[{'imgObject': {}, 'id': 'roastedpotatoes', 'src': '/static/foodstim60/roastedpotatoes.jpg', 'key': 'u', 'origWidth': 409, 'origHeight': 410, 'width': 409, 'height': 410, 'widthPercent': 0.45, 'rescaleHeight': False, 'trialN': 34, 'loaded': True, 'loadedTime': 2169.5999999996275, 'positionName': 'LEFT', 'positionCoords': [512.6, 335], 'bid': 7.29}, {'imgObject': {}, 'id': 'orange slices', 'src': '/static/foodstim60/orange slices.jpg', 'key': 'i', 'origWidth': 409, 'origHeight': 410, 'width': 409, 'height': 410, 'widthPercent': 0.45, 'rescaleHeight': False, 'trialN': 34, 'loaded': True, 'loadedTime': 2186.199999999255, 'positionName': 'RIGHT', 'positionCoords': [998.4, 335], 'bid': 6.0200000000000005}]",59142.0,1669829746512,roastedpotatoes,orange slices,7.29,6.0200000000000005,-1.2699999999999996,roastedpotatoes,722.0,722,722.3999999985099,True,u,60386.29999999888,1244.2999999988824,1669829747756,1244,HRV,HRV_0096,2022-11-30 17:39:40
35,"[{'imgObject': {}, 'id': 'lox', 'src': '/static/foodstim60/lox.jpg', 'key': 'u', 'origWidth': 410, 'origHeight': 411, 'width': 410, 'height': 411, 'widthPercent': 0.45, 'rescaleHeight': False, 'trialN': 35, 'loaded': True, 'loadedTime': 2138.699999999255, 'positionName': 'LEFT', 'positionCoords': [511.6, 334.5], 'bid': 4.47}, {'imgObject': {}, 'id': 'omelette', 'src': '/static/foodstim60/omelette.jpg', 'key': 'i', 'origWidth': 410, 'origHeight': 409, 'width': 410, 'height': 409, 'widthPercent': 0.45, 'rescaleHeight': False, 'trialN': 35, 'loaded': True, 'loadedTime': 2172.699999999255, 'positionName': 'RIGHT', 'positionCoords': [998.4, 335.5], 'bid': 6.6000000000000005}]",60386.39999999851,1669829747756,lox,omelette,4.47,6.6000000000000005,2.130000000000001,omelette,837.6000000014901,838,838.0,True,i,61742.5,1356.1000000014901,1669829749112,1356,HRV,HRV_0096,2022-11-30 17:39:40
36,"[{'imgObject': {}, 'id': 'steak', 'src': '/static/foodstim60/steak.jpg', 'key': 'u', 'origWidth': 410, 'origHeight': 410, 'width': 410, 'height': 410, 'widthPercent': 0.45, 'rescaleHeight': False, 'trialN': 36, 'loaded': True, 'loadedTime': 2174.699999999255, 'positionName': 'LEFT', 'positionCoords': [511.6, 335], 'bid': 8.38}, {'imgObject': {}, 'id': 'cocktailshrimp', 'src': '/static/foodstim60/cocktailshrimp.jpg', 'key': 'i', 'origWidth': 410, 'origHeight': 410, 'width': 410, 'height': 410, 'widthPercent': 0.45, 'rescaleHeight': False, 'trialN': 36, 'loaded': True, 'loadedTime': 2186.39999999851, 'positionName': 'RIGHT', 'positionCoords': [998.4, 335], 'bid': 5.55}]",61742.699999999255,1669829749112,steak,cocktailshrimp,8.38,5.55,-2.830000000000001,steak,825.0999999996275,826,825.4000000003725,True,u,63077.39999999851,1334.699999999255,1669829750447,1335,HRV,HRV_0096,2022-11-30 17:39:40
37,"[{'imgObject': {}, 'id': 'blackbeanswithrice', 'src': '/static/foodstim60/blackbeanswithrice.jpg', 'key': 'u', 'origWidth': 410, 'origHeight': 410, 'width': 410, 'height': 410, 'widthPercent': 0.45, 'rescaleHeight': False, 'trialN': 37, 'loaded': True, 'loadedTime': 2187.7999999988824, 'positionName': 'LEFT', 'positionCoords': [511.6, 335], 'bid': 4.3100000000000005}, {'imgObject': {}, 'id': 'burrito', 'src': '/static/foodstim60/burrito.jpg', 'key': 'i', 'origWidth': 410, 'origHeight': 410, 'width': 410, 'height': 410, 'widthPercent': 0.45, 'rescaleHeight': False, 'trialN': 37, 'loaded': True, 'loadedTime': 2136.7999999988824, 'positionName': 'RIGHT', 'positionCoords': [998.4, 335], 'bid': 3.17}]",63077.5,1669829750447,blackbeanswithrice,burrito,4.3100000000000005,3.17,-1.1400000000000006,burrito,1538.0999999996275,1539,1538.2999999988824,True,i,65129.5,2052.0,1669829752499,2052,HRV,HRV_0096,2022-11-30 17:39:40
38,"[{'imgObject': {}, 'id': 'popsicles', 'src': '/static/foodstim60/popsicles.jpg', 'key': 'u', 'origWidth': 410, 'origHeight': 410, 'width': 410, 'height': 410, 'widthPercent': 0.45, 'rescaleHeight': False, 'trialN': 38, 'loaded': True, 'loadedTime': 2201.5999999996275, 'positionName': 'LEFT', 'positionCoords': [511.6, 335], 'bid': 7.5}, {'imgObject': {}, 'id': 'fried eggs', 'src': '/static/foodstim60/fried eggs.jpg', 'key': 'i', 'origWidth': 410, 'origHeight': 410, 'width': 410, 'height': 410, 'widthPercent': 0.45, 'rescaleHeight': False, 'trialN': 38, 'loaded': True, 'loadedTime': 2188.5, 'positionName': 'RIGHT', 'positionCoords': [998.4, 335], 'bid': 7.13}]",65129.699999999255,1669829752499,popsicles,fried eggs,7.5,7.13,-0.3700000000000001,fried eggs,1294.4000000003725,1295,1295.0999999996275,True,i,66939.39999999851,1809.699999999255,1669829754309,1810,HRV,HRV_0096,2022-11-30 17:39:40
39,"[{'imgObject': {}, 'id': 'fruitsalad', 'src': '/static/foodstim60/fruitsalad.jpg', 'key': 'u', 'origWidth': 410, 'origHeight': 410, 'width': 410, 'height': 410, 'widthPercent': 0.45, 'rescaleHeight': False, 'trialN': 39, 'loaded': True, 'loadedTime': 2189.39999999851, 'positionName': 'LEFT', 'positionCoords': [511.6, 335], 'bid': 4.89}, {'imgObject': {}, 'id': 'lox', 'src': '/static/foodstim60/lox.jpg', 'key': 'i', 'origWidth': 410, 'origHeight': 411, 'width': 410, 'height': 411, 'widthPercent': 0.45, 'rescaleHeight': False, 'trialN': 39, 'loaded': True, 'loadedTime': 2138.5, 'positionName': 'RIGHT', 'positionCoords': [998.4, 334.5], 'bid': 4.47}]",66939.39999999851,1669829754309,fruitsalad,lox,4.89,4.47,-0.41999999999999993,lox,1044.6000000014901,1045,1044.9000000003725,True,i,68503.39999999851,1564.0,1669829755873,1564,HRV,HRV_0096,2022-11-30 17:39:40
40,"[{'imgObject': {}, 'id': 'yogurt no spoon', 'src': '/static/foodstim60/yogurt no spoon.jpg', 'key': 'u', 'origWidth': 411, 'origHeight': 410, 'width': 411, 'height': 410, 'widthPercent': 0.45, 'rescaleHeight': False, 'trialN': 40, 'loaded': True, 'loadedTime': 2178.39999999851, 'positionName': 'LEFT', 'positionCoords': [510.6, 335], 'bid': 5.84}, {'imgObject': {}, 'id': 'raspberries', 'src': '/static/foodstim60/raspberries.jpg', 'key': 'i', 'origWidth': 411, 'origHeight': 411, 'width': 411, 'height': 411, 'widthPercent': 0.45, 'rescaleHeight': False, 'trialN': 40, 'loaded': True, 'loadedTime': 2190.2999999988824, 'positionName': 'RIGHT', 'positionCoords': [998.4, 334.5], 'bid': 5.14}]",68503.59999999963,1669829755873,yogurt no spoon,raspberries,5.84,5.14,-0.7000000000000002,yogurt no spoon,976.4000000003725,977,976.7999999988824,True,u,70001.79999999888,1498.199999999255,1669829757371,1498,HRV,HRV_0096,2022-11-30 17:39:40
41,"[{'imgObject': {}, 'id': 'mashed potato', 'src': '/static/foodstim60/mashed potato.jpg', 'key': 'u', 'origWidth': 409, 'origHeight': 409, 'width': 409, 'height': 409, 'widthPercent': 0.45, 'rescaleHeight': False, 'trialN': 41, 'loaded': True, 'loadedTime': 2183.0999999996275, 'positionName': 'LEFT', 'positionCoords': [512.6, 335.5], 'bid': 6.58}, {'imgObject': {}, 'id': 'popsicles', 'src': '/static/foodstim60/popsicles.jpg', 'key': 'i', 'origWidth': 410, 'origHeight': 410, 'width': 410, 'height': 410, 'widthPercent': 0.45, 'rescaleHeight': False, 'trialN': 41, 'loaded': True, 'loadedTime': 2201.699999999255, 'positionName': 'RIGHT', 'positionCoords': [998.4, 335], 'bid': 7.5}]",70002.0,1669829757372,mashed potato,popsicles,6.58,7.5,0.9199999999999999,popsicles,693.2999999988824,703,693.5999999996275,True,i,71218.09999999963,1216.0999999996275,1669829758598,1226,HRV,HRV_0096,2022-11-30 17:39:40
42,"[{'imgObject': {}, 'id': 'mashed potato', 'src': '/static/foodstim60/mashed potato.jpg', 'key': 'u', 'origWidth': 409, 'origHeight': 409, 'width': 409, 'height': 409, 'widthPercent': 0.45, 'rescaleHeight': False, 'trialN': 42, 'loaded': True, 'loadedTime': 2183.699999999255, 'positionName': 'LEFT', 'positionCoords': [512.6, 335.5], 'bid': 6.58}, {'imgObject': {}, 'id': 'granola w milk', 'src': '/static/foodstim60/granola w milk.jpg', 'key': 'i', 'origWidth': 410, 'origHeight': 410, 'width': 410, 'height': 410, 'widthPercent': 0.45, 'rescaleHeight': False, 'trialN': 42, 'loaded': True, 'loadedTime': 2190.39999999851, 'positionName': 'RIGHT', 'positionCoords': [998.4, 335], 'bid': 5.79}]",71218.39999999851,1669829758598,mashed potato,granola w milk,6.58,5.79,-0.79,mashed potato,973.5,974,974.0,True,u,72709.79999999888,1491.4000000003725,1669829760090,1492,HRV,HRV_0096,2022-11-30 17:39:40
43,"[{'imgObject': {}, 'id': 'raspberries', 'src': '/static/foodstim60/raspberries.jpg', 'key': 'u', 'origWidth': 411, 'origHeight': 411, 'width': 411, 'height': 411, 'widthPercent': 0.45, 'rescaleHeight': False, 'trialN': 43, 'loaded': True, 'loadedTime': 2189.5, 'positionName': 'LEFT', 'positionCoords': [510.6, 334.5], 'bid': 5.14}, {'imgObject': {}, 'id': 'sweetpotato', 'src': '/static/foodstim60/sweetpotato.jpg', 'key': 'i', 'origWidth': 410, 'origHeight': 410, 'width': 410, 'height': 410, 'widthPercent': 0.45, 'rescaleHeight': False, 'trialN': 43, 'loaded': True, 'loadedTime': 2191.0999999996275, 'positionName': 'RIGHT', 'positionCoords': [998.4, 335], 'bid': 3.54}]",72709.89999999851,1669829760090,raspberries,sweetpotato,5.14,3.54,-1.5999999999999996,sweetpotato,1217.4000000003725,1217,1217.7000000011176,True,i,74446.29999999888,1736.4000000003725,1669829761826,1736,HRV,HRV_0096,2022-11-30 17:39:40
44,"[{'imgObject': {}, 'id': 'sweetpotato', 'src': '/static/foodstim60/sweetpotato.jpg', 'key': 'u', 'origWidth': 410, 'origHeight': 410, 'width': 410, 'height': 410, 'widthPercent': 0.45, 'rescaleHeight': False, 'trialN': 44, 'loaded': True, 'loadedTime': 2191.7999999988824, 'positionName': 'LEFT', 'positionCoords': [511.6, 335], 'bid': 3.54}, {'imgObject': {}, 'id': 'cheerios', 'src': '/static/foodstim60/cheerios.jpg', 'key': 'i', 'origWidth': 409, 'origHeight': 410, 'width': 409, 'height': 410, 'widthPercent': 0.45, 'rescaleHeight': False, 'trialN': 44, 'loaded': True, 'loadedTime': 2192.699999999255, 'positionName': 'RIGHT', 'positionCoords': [998.4, 335], 'bid': 5.91}]",74446.5,1669829761826,sweetpotato,cheerios,3.54,5.91,2.37,cheerios,1025.2999999988824,1026,1025.5999999996275,True,i,75990.09999999963,1543.5999999996275,1669829763370,1544,HRV,HRV_0096,2022-11-30 17:39:40
45,"[{'imgObject': {}, 'id': 'rigatoni', 'src': '/static/foodstim60/rigatoni.jpg', 'key': 'u', 'origWidth': 411, 'origHeight': 411, 'width': 411, 'height': 411, 'widthPercent': 0.45, 'rescaleHeight': False, 'trialN': 45, 'loaded': True, 'loadedTime': 2126.2999999988824, 'positionName': 'LEFT', 'positionCoords': [510.6, 334.5], 'bid': 2.85}, {'imgObject': {}, 'id': 'cherry tomato', 'src': '/static/foodstim60/cherry tomato.jpg', 'key': 'i', 'origWidth': 410, 'origHeight': 410, 'width': 410, 'height': 410, 'widthPercent': 0.45, 'rescaleHeight': False, 'trialN': 45, 'loaded': True, 'loadedTime': 2193.39999999851, 'positionName': 'RIGHT', 'positionCoords': [998.4, 335], 'bid': 2.71}]",75990.19999999925,1669829763370,rigatoni,cherry tomato,2.85,2.71,-0.14000000000000012,rigatoni,889.8000000007451,890,890.3000000007451,True,u,77399.5,1409.300000000745,1669829764779,1409,HRV,HRV_0096,2022-11-30 17:39:40
46,"[{'imgObject': {}, 'id': 'salmon', 'src': '/static/foodstim60/salmon.jpg', 'key': 'u', 'origWidth': 410, 'origHeight': 409, 'width': 410, 'height': 409, 'widthPercent': 0.45, 'rescaleHeight': False, 'trialN': 46, 'loaded': True, 'loadedTime': 2194.199999999255, 'positionName': 'LEFT', 'positionCoords': [511.6, 335.5], 'bid': 6.59}, {'imgObject': {}, 'id': 'turkey sandwich', 'src': '/static/foodstim60/turkey sandwich.jpg', 'key': 'i', 'origWidth': 409, 'origHeight': 409, 'width': 409, 'height': 409, 'widthPercent': 0.45, 'rescaleHeight': False, 'trialN': 46, 'loaded': True, 'loadedTime': 2180, 'positionName': 'RIGHT', 'positionCoords': [998.4, 335.5], 'bid': 6.43}]",77399.59999999963,1669829764779,salmon,turkey sandwich,6.59,6.43,-0.16000000000000014,salmon,944.4000000003725,945,944.9000000003725,True,u,78858.09999999963,1458.5,1669829766238,1459,HRV,HRV_0096,2022-11-30 17:39:40
47,"[{'imgObject': {}, 'id': 'shreddedwheatwithmilk', 'src': '/static/foodstim60/shreddedwheatwithmilk.jpg', 'key': 'u', 'origWidth': 410, 'origHeight': 410, 'width': 410, 'height': 410, 'widthPercent': 0.45, 'rescaleHeight': False, 'trialN': 47, 'loaded': True, 'loadedTime': 2194.699999999255, 'positionName': 'LEFT', 'positionCoords': [511.6, 335], 'bid': 5.04}, {'imgObject': {}, 'id': 'kiwi', 'src': '/static/foodstim60/kiwi.jpg', 'key': 'i', 'origWidth': 410, 'origHeight': 410, 'width': 410, 'height': 410, 'widthPercent': 0.45, 'rescaleHeight': False, 'trialN': 47, 'loaded': True, 'loadedTime': 2195.5999999996275, 'positionName': 'RIGHT', 'positionCoords': [998.4, 335], 'bid': 2.92}]",78858.19999999925,1669829766238,shreddedwheatwithmilk,kiwi,5.04,2.92,-2.12,shreddedwheatwithmilk,981.8000000007451,982,982.1999999992549,True,u,80358.5,1500.300000000745,1669829767738,1500,HRV,HRV_0096,2022-11-30 17:39:40
48,"[{'imgObject': {}, 'id': 'edamame', 'src': '/static/foodstim60/edamame.jpg', 'key': 'u', 'origWidth': 409, 'origHeight': 410, 'width': 409, 'height': 410, 'widthPercent': 0.45, 'rescaleHeight': False, 'trialN': 48, 'loaded': True, 'loadedTime': 2196.2999999988824, 'positionName': 'LEFT', 'positionCoords': [512.6, 335], 'bid': 3.56}, {'imgObject': {}, 'id': 'rigatoni', 'src': '/static/foodstim60/rigatoni.jpg', 'key': 'i', 'origWidth': 411, 'origHeight': 411, 'width': 411, 'height': 411, 'widthPercent': 0.45, 'rescaleHeight': False, 'trialN': 48, 'loaded': True, 'loadedTime': 2129.199999999255, 'positionName': 'RIGHT', 'positionCoords': [998.4, 334.5], 'bid': 2.85}]",80358.79999999888,1669829767739,edamame,rigatoni,3.56,2.85,-0.71,rigatoni,1217.2000000011176,1217,1217.5999999996275,True,i,82097.69999999925,1738.9000000003725,1669829769478,1739,HRV,HRV_0096,2022-11-30 17:39:40
49,"[{'imgObject': {}, 'id': 'olives', 'src': '/static/foodstim60/olives.jpg', 'key': 'u', 'origWidth': 410, 'origHeight': 410, 'width': 410, 'height': 410, 'widthPercent': 0.45, 'rescaleHeight': False, 'trialN': 49, 'loaded': True, 'loadedTime': 2166.5, 'positionName': 'LEFT', 'positionCoords': [511.6, 335], 'bid': 2.3000000000000003}, {'imgObject': {}, 'id': 'avocado', 'src': '/static/foodstim60/avocado.jpg', 'key': 'i', 'origWidth': 409, 'origHeight': 409, 'width': 409, 'height': 409, 'widthPercent': 0.45, 'rescaleHeight': False, 'trialN': 49, 'loaded': True, 'loadedTime': 2132.89999999851, 'positionName': 'RIGHT', 'positionCoords': [998.4, 335.5], 'bid': 2.62}]",82097.79999999888,1669829769478,olives,avocado,2.3000000000000003,2.62,0.31999999999999984,olives,1590.0999999996275,1590,1590.7000000011176,True,u,84206.0,2108.2000000011176,1669829771586,2108,HRV,HRV_0096,2022-11-30 17:39:40
50,"[{'imgObject': {}, 'id': 'burger', 'src': '/static/foodstim60/burger.jpg', 'key': 'u', 'origWidth': 409, 'origHeight': 409, 'width': 409, 'height': 409, 'widthPercent': 0.45, 'rescaleHeight': False, 'trialN': 50, 'loaded': True, 'loadedTime': 2196.5, 'positionName': 'LEFT', 'positionCoords': [512.6, 335.5], 'bid': 7.41}, {'imgObject': {}, 'id': 'turkey sandwich', 'src': '/static/foodstim60/turkey sandwich.jpg', 'key': 'i', 'origWidth': 409, 'origHeight': 409, 'width': 409, 'height': 409, 'widthPercent': 0.45, 'rescaleHeight': False, 'trialN': 50, 'loaded': True, 'loadedTime': 2179.5, 'positionName': 'RIGHT', 'positionCoords': [998.4, 335.5], 'bid': 6.43}]",84206.19999999925,1669829771586,burger,turkey sandwich,7.41,6.43,-0.9800000000000004,burger,1458.0999999996275,1459,1458.5,True,u,86176.79999999888,1970.5999999996275,1669829773557,1971,HRV,HRV_0096,2022-11-30 17:39:40
51,"[{'imgObject': {}, 'id': 'roastedpotatoes', 'src': '/static/foodstim60/roastedpotatoes.jpg', 'key': 'u', 'origWidth': 409, 'origHeight': 410, 'width': 409, 'height': 410, 'widthPercent': 0.45, 'rescaleHeight': False, 'trialN': 51, 'loaded': True, 'loadedTime': 2169.7999999988824, 'positionName': 'LEFT', 'positionCoords': [512.6, 335], 'bid': 7.29}, {'imgObject': {}, 'id': 'chickenfingers', 'src': '/static/foodstim60/chickenfingers.jpg', 'key': 'i', 'origWidth': 410, 'origHeight': 410, 'width': 410, 'height': 410, 'widthPercent': 0.45, 'rescaleHeight': False, 'trialN': 51, 'loaded': True, 'loadedTime': 2168.0999999996275, 'positionName': 'RIGHT', 'positionCoords': [998.4, 335], 'bid': 7.38}]",86177.0,1669829773557,roastedpotatoes,chickenfingers,7.29,7.38,0.08999999999999986,chickenfingers,839.0999999996275,839,839.3999999985099,True,i,87535.5,1358.5,1669829774915,1358,HRV,HRV_0096,2022-11-30 17:39:40
52,"[{'imgObject': {}, 'id': 'turkey sandwich', 'src': '/static/foodstim60/turkey sandwich.jpg', 'key': 'u', 'origWidth': 409, 'origHeight': 409, 'width': 409, 'height': 409, 'widthPercent': 0.45, 'rescaleHeight': False, 'trialN': 52, 'loaded': True, 'loadedTime': 2180.0999999996275, 'positionName': 'LEFT', 'positionCoords': [512.6, 335.5], 'bid': 6.43}, {'imgObject': {}, 'id': 'hashbrowns', 'src': '/static/foodstim60/hashbrowns.jpg', 'key': 'i', 'origWidth': 411, 'origHeight': 410, 'width': 411, 'height': 410, 'widthPercent': 0.45, 'rescaleHeight': False, 'trialN': 52, 'loaded': True, 'loadedTime': 2172.5, 'positionName': 'RIGHT', 'positionCoords': [998.4, 335], 'bid': 4}]",87535.69999999925,1669829774916,turkey sandwich,hashbrowns,6.43,4.0,-2.4299999999999997,turkey sandwich,1648.199999999255,1648,1648.800000000745,True,u,89704.69999999925,2169.0,1669829777085,2169,HRV,HRV_0096,2022-11-30 17:39:40
53,"[{'imgObject': {}, 'id': 'raisin bran w milk', 'src': '/static/foodstim60/raisin bran w milk.jpg', 'key': 'u', 'origWidth': 411, 'origHeight': 411, 'width': 411, 'height': 411, 'widthPercent': 0.45, 'rescaleHeight': False, 'trialN': 53, 'loaded': True, 'loadedTime': 2133.699999999255, 'positionName': 'LEFT', 'positionCoords': [510.6, 334.5], 'bid': 5.22}, {'imgObject': {}, 'id': 'popsicles', 'src': '/static/foodstim60/popsicles.jpg', 'key': 'i', 'origWidth': 410, 'origHeight': 410, 'width': 410, 'height': 410, 'widthPercent': 0.45, 'rescaleHeight': False, 'trialN': 53, 'loaded': True, 'loadedTime': 2201.699999999255, 'positionName': 'RIGHT', 'positionCoords': [998.4, 335], 'bid': 7.5}]",89704.89999999851,1669829777085,raisin bran w milk,popsicles,5.22,7.5,2.2800000000000002,popsicles,1174.5,1175,1174.7000000011176,True,i,91389.19999999925,1684.300000000745,1669829778769,1684,HRV,HRV_0096,2022-11-30 17:39:40
54,"[{'imgObject': {}, 'id': 'ice cream sundae 002', 'src': '/static/foodstim60/ice cream sundae 002.jpg', 'key': 'u', 'origWidth': 409, 'origHeight': 409, 'width': 409, 'height': 409, 'widthPercent': 0.45, 'rescaleHeight': False, 'trialN': 54, 'loaded': True, 'loadedTime': 2184.39999999851, 'positionName': 'LEFT', 'positionCoords': [512.6, 335.5], 'bid': 6.93}, {'imgObject': {}, 'id': 'fruitsalad', 'src': '/static/foodstim60/fruitsalad.jpg', 'key': 'i', 'origWidth': 410, 'origHeight': 410, 'width': 410, 'height': 410, 'widthPercent': 0.45, 'rescaleHeight': False, 'trialN': 54, 'loaded': True, 'loadedTime': 2189.199999999255, 'positionName': 'RIGHT', 'positionCoords': [998.4, 335], 'bid': 4.89}]",91389.29999999888,1669829778769,ice cream sundae 002,fruitsalad,6.93,4.89,-2.04,ice cream sundae 002,1010.0,1010,1010.2000000011176,True,u,92916.59999999963,1527.300000000745,1669829780296,1527,HRV,HRV_0096,2022-11-30 17:39:40
55,"[{'imgObject': {}, 'id': 'edamame', 'src': '/static/foodstim60/edamame.jpg', 'key': 'u', 'origWidth': 409, 'origHeight': 410, 'width': 409, 'height': 410, 'widthPercent': 0.45, 'rescaleHeight': False, 'trialN': 55, 'loaded': True, 'loadedTime': 2196.39999999851, 'positionName': 'LEFT', 'positionCoords': [512.6, 335], 'bid': 3.56}, {'imgObject': {}, 'id': 'sweetpotato', 'src': '/static/foodstim60/sweetpotato.jpg', 'key': 'i', 'origWidth': 410, 'origHeight': 410, 'width': 410, 'height': 410, 'widthPercent': 0.45, 'rescaleHeight': False, 'trialN': 55, 'loaded': True, 'loadedTime': 2191.5, 'positionName': 'RIGHT', 'positionCoords': [998.4, 335], 'bid': 3.54}]",92916.69999999925,1669829780297,edamame,sweetpotato,3.56,3.54,-0.020000000000000018,sweetpotato,1316.5,1317,1317.0999999996275,True,i,94746.59999999963,1829.9000000003725,1669829782126,1829,HRV,HRV_0096,2022-11-30 17:39:40
56,"[{'imgObject': {}, 'id': 'avocado', 'src': '/static/foodstim60/avocado.jpg', 'key': 'u', 'origWidth': 409, 'origHeight': 409, 'width': 409, 'height': 409, 'widthPercent': 0.45, 'rescaleHeight': False, 'trialN': 56, 'loaded': True, 'loadedTime': 2132.89999999851, 'positionName': 'LEFT', 'positionCoords': [512.6, 335.5], 'bid': 2.62}, {'imgObject': {}, 'id': 'tacos', 'src': '/static/foodstim60/tacos.jpg', 'key': 'i', 'origWidth': 411, 'origHeight': 411, 'width': 411, 'height': 411, 'widthPercent': 0.45, 'rescaleHeight': False, 'trialN': 56, 'loaded': True, 'loadedTime': 2197.199999999255, 'positionName': 'RIGHT', 'positionCoords': [998.4, 334.5], 'bid': 3.53}]",94746.69999999925,1669829782127,avocado,tacos,2.62,3.53,0.9099999999999997,tacos,1333.5999999996275,1334,1334.0999999996275,True,i,96592.39999999851,1845.699999999255,1669829783972,1845,HRV,HRV_0096,2022-11-30 17:39:40
57,"[{'imgObject': {}, 'id': 'tacos', 'src': '/static/foodstim60/tacos.jpg', 'key': 'u', 'origWidth': 411, 'origHeight': 411, 'width': 411, 'height': 411, 'widthPercent': 0.45, 'rescaleHeight': False, 'trialN': 57, 'loaded': True, 'loadedTime': 2197.89999999851, 'positionName': 'LEFT', 'positionCoords': [510.6, 334.5], 'bid': 3.53}, {'imgObject': {}, 'id': 'edamame', 'src': '/static/foodstim60/edamame.jpg', 'key': 'i', 'origWidth': 409, 'origHeight': 410, 'width': 409, 'height': 410, 'widthPercent': 0.45, 'rescaleHeight': False, 'trialN': 57, 'loaded': True, 'loadedTime': 2195.7999999988824, 'positionName': 'RIGHT', 'positionCoords': [998.4, 335], 'bid': 3.56}]",96592.5,1669829783972,tacos,edamame,3.53,3.56,0.03000000000000025,tacos,831.5,832,832.0,True,u,97945.79999999888,1353.2999999988824,1669829785326,1354,HRV,HRV_0096,2022-11-30 17:39:40
58,"[{'imgObject': {}, 'id': 'omelette', 'src': '/static/foodstim60/omelette.jpg', 'key': 'u', 'origWidth': 410, 'origHeight': 409, 'width': 410, 'height': 409, 'widthPercent': 0.45, 'rescaleHeight': False, 'trialN': 58, 'loaded': True, 'loadedTime': 2173.2999999988824, 'positionName': 'LEFT', 'positionCoords': [511.6, 335.5], 'bid': 6.6000000000000005}, {'imgObject': {}, 'id': 'fried eggs', 'src': '/static/foodstim60/fried eggs.jpg', 'key': 'i', 'origWidth': 410, 'origHeight': 410, 'width': 410, 'height': 410, 'widthPercent': 0.45, 'rescaleHeight': False, 'trialN': 58, 'loaded': True, 'loadedTime': 2188.5999999996275, 'positionName': 'RIGHT', 'positionCoords': [998.4, 335], 'bid': 7.13}]",97945.89999999851,1669829785326,omelette,fried eggs,6.6000000000000005,7.13,0.5299999999999994,fried eggs,717.5,717,717.6000000014901,True,i,99180.19999999925,1234.300000000745,1669829786560,1234,HRV,HRV_0096,2022-11-30 17:39:40
59,"[{'imgObject': {}, 'id': 'rigatoni', 'src': '/static/foodstim60/rigatoni.jpg', 'key': 'u', 'origWidth': 411, 'origHeight': 411, 'width': 411, 'height': 411, 'widthPercent': 0.45, 'rescaleHeight': False, 'trialN': 59, 'loaded': True, 'loadedTime': 2128.5, 'positionName': 'LEFT', 'positionCoords': [510.6, 334.5], 'bid': 2.85}, {'imgObject': {}, 'id': 'burrito', 'src': '/static/foodstim60/burrito.jpg', 'key': 'i', 'origWidth': 410, 'origHeight': 410, 'width': 410, 'height': 410, 'widthPercent': 0.45, 'rescaleHeight': False, 'trialN': 59, 'loaded': True, 'loadedTime': 2136.199999999255, 'positionName': 'RIGHT', 'positionCoords': [998.4, 335], 'bid': 3.17}]",99180.39999999851,1669829786560,rigatoni,burrito,2.85,3.17,0.31999999999999984,rigatoni,1291.0,1292,1291.300000000745,True,u,100987.19999999925,1806.800000000745,1669829788367,1807,HRV,HRV_0096,2022-11-30 17:39:40
60,"[{'imgObject': {}, 'id': 'orange slices', 'src': '/static/foodstim60/orange slices.jpg', 'key': 'u', 'origWidth': 409, 'origHeight': 410, 'width': 409, 'height': 410, 'widthPercent': 0.45, 'rescaleHeight': False, 'trialN': 60, 'loaded': True, 'loadedTime': 2186.199999999255, 'positionName': 'LEFT', 'positionCoords': [512.6, 335], 'bid': 6.0200000000000005}, {'imgObject': {}, 'id': 'cheerios', 'src': '/static/foodstim60/cheerios.jpg', 'key': 'i', 'origWidth': 409, 'origHeight': 410, 'width': 409, 'height': 410, 'widthPercent': 0.45, 'rescaleHeight': False, 'trialN': 60, 'loaded': True, 'loadedTime': 2192, 'positionName': 'RIGHT', 'positionCoords': [998.4, 335], 'bid': 5.91}]",100987.39999999851,1669829788367,orange slices,cheerios,6.0200000000000005,5.91,-0.11000000000000032,cheerios,1276.5,1277,1277.0,True,i,102787.0,1799.6000000014901,1669829790167,1800,HRV,HRV_0096,2022-11-30 17:39:40
61,"[{'imgObject': {}, 'id': 'shreddedwheatwithmilk', 'src': '/static/foodstim60/shreddedwheatwithmilk.jpg', 'key': 'u', 'origWidth': 410, 'origHeight': 410, 'width': 410, 'height': 410, 'widthPercent': 0.45, 'rescaleHeight': False, 'trialN': 61, 'loaded': True, 'loadedTime': 2195, 'positionName': 'LEFT', 'positionCoords': [511.6, 335], 'bid': 5.04}, {'imgObject': {}, 'id': 'hashbrowns', 'src': '/static/foodstim60/hashbrowns.jpg', 'key': 'i', 'origWidth': 411, 'origHeight': 410, 'width': 411, 'height': 410, 'widthPercent': 0.45, 'rescaleHeight': False, 'trialN': 61, 'loaded': True, 'loadedTime': 2171.39999999851, 'positionName': 'RIGHT', 'positionCoords': [998.4, 335], 'bid': 4}]",102787.09999999963,1669829790167,shreddedwheatwithmilk,hashbrowns,5.04,4.0,-1.04,shreddedwheatwithmilk,876.2999999988824,877,876.5999999996275,True,u,104177.19999999925,1390.0999999996275,1669829791557,1390,HRV,HRV_0096,2022-11-30 17:39:40
62,"[{'imgObject': {}, 'id': 'bagel plain', 'src': '/static/foodstim60/bagel plain.jpg', 'key': 'u', 'origWidth': 410, 'origHeight': 410, 'width': 410, 'height': 410, 'widthPercent': 0.45, 'rescaleHeight': False, 'trialN': 62, 'loaded': True, 'loadedTime': 2143.0999999996275, 'positionName': 'LEFT', 'positionCoords': [511.6, 335], 'bid': 5.8100000000000005}, {'imgObject': {}, 'id': 'corn cob', 'src': '/static/foodstim60/corn cob.jpg', 'key': 'i', 'origWidth': 411, 'origHeight': 411, 'width': 411, 'height': 411, 'widthPercent': 0.45, 'rescaleHeight': False, 'trialN': 62, 'loaded': True, 'loadedTime': 2182.89999999851, 'positionName': 'RIGHT', 'positionCoords': [998.4, 334.5], 'bid': 5.0600000000000005}]",104177.5,1669829791557,bagel plain,corn cob,5.8100000000000005,5.0600000000000005,-0.75,corn cob,766.0999999996275,767,766.5999999996275,True,i,105454.29999999888,1276.7999999988824,1669829792834,1277,HRV,HRV_0096,2022-11-30 17:39:40
63,"[{'imgObject': {}, 'id': 'cherry tomato', 'src': '/static/foodstim60/cherry tomato.jpg', 'key': 'u', 'origWidth': 410, 'origHeight': 410, 'width': 410, 'height': 410, 'widthPercent': 0.45, 'rescaleHeight': False, 'trialN': 63, 'loaded': True, 'loadedTime': 2193.39999999851, 'positionName': 'LEFT', 'positionCoords': [511.6, 335], 'bid': 2.71}, {'imgObject': {}, 'id': 'eggsalad', 'src': '/static/foodstim60/eggsalad.jpg', 'key': 'i', 'origWidth': 410, 'origHeight': 409, 'width': 410, 'height': 409, 'widthPercent': 0.45, 'rescaleHeight': False, 'trialN': 63, 'loaded': True, 'loadedTime': 2145.39999999851, 'positionName': 'RIGHT', 'positionCoords': [998.4, 335.5], 'bid': 3.92}]",105454.5,1669829792834,cherry tomato,eggsalad,2.71,3.92,1.21,eggsalad,1160.8999999985099,1161,1161.0,True,i,107138.09999999963,1683.5999999996275,1669829794518,1684,HRV,HRV_0096,2022-11-30 17:39:40
64,"[{'imgObject': {}, 'id': 'turkeysandwich', 'src': '/static/foodstim60/turkeysandwich.jpg', 'key': 'u', 'origWidth': 409, 'origHeight': 409, 'width': 409, 'height': 409, 'widthPercent': 0.45, 'rescaleHeight': False, 'trialN': 64, 'loaded': True, 'loadedTime': 2198.5999999996275, 'positionName': 'LEFT', 'positionCoords': [512.6, 335.5], 'bid': 6.03}, {'imgObject': {}, 'id': 'grilled chicken strips', 'src': '/static/foodstim60/grilled chicken strips.jpg', 'key': 'i', 'origWidth': 410, 'origHeight': 411, 'width': 410, 'height': 411, 'widthPercent': 0.45, 'rescaleHeight': False, 'trialN': 64, 'loaded': True, 'loadedTime': 2185.0999999996275, 'positionName': 'RIGHT', 'positionCoords': [998.4, 334.5], 'bid': 7.31}]",107138.29999999888,1669829794518,turkeysandwich,grilled chicken strips,6.03,7.31,1.2799999999999994,grilled chicken strips,877.2000000011176,878,877.5,True,i,108527.0,1388.7000000011176,1669829795907,1389,HRV,HRV_0096,2022-11-30 17:39:40
65,"[{'imgObject': {}, 'id': 'chickenfingers', 'src': '/static/foodstim60/chickenfingers.jpg', 'key': 'u', 'origWidth': 410, 'origHeight': 410, 'width': 410, 'height': 410, 'widthPercent': 0.45, 'rescaleHeight': False, 'trialN': 65, 'loaded': True, 'loadedTime': 2168.0999999996275, 'positionName': 'LEFT', 'positionCoords': [511.6, 335], 'bid': 7.38}, {'imgObject': {}, 'id': 'salad w chicken', 'src': '/static/foodstim60/salad w chicken.jpg', 'key': 'i', 'origWidth': 411, 'origHeight': 411, 'width': 411, 'height': 411, 'widthPercent': 0.45, 'rescaleHeight': False, 'trialN': 65, 'loaded': True, 'loadedTime': 2144.199999999255, 'positionName': 'RIGHT', 'positionCoords': [998.4, 334.5], 'bid': 5.9}]",108527.09999999963,1669829795907,chickenfingers,salad w chicken,7.38,5.9,-1.4799999999999995,chickenfingers,912.7999999988824,913,913.2999999988824,True,u,109957.59999999963,1430.5,1669829797337,1430,HRV,HRV_0096,2022-11-30 17:39:40
66,"[{'imgObject': {}, 'id': 'steak', 'src': '/static/foodstim60/steak.jpg', 'key': 'u', 'origWidth': 410, 'origHeight': 410, 'width': 410, 'height': 410, 'widthPercent': 0.45, 'rescaleHeight': False, 'trialN': 66, 'loaded': True, 'loadedTime': 2175.5, 'positionName': 'LEFT', 'positionCoords': [511.6, 335], 'bid': 8.38}, {'imgObject': {}, 'id': 'seaweed', 'src': '/static/foodstim60/seaweed.jpg', 'key': 'i', 'origWidth': 410, 'origHeight': 410, 'width': 410, 'height': 410, 'widthPercent': 0.45, 'rescaleHeight': False, 'trialN': 66, 'loaded': True, 'loadedTime': 2136.0999999996275, 'positionName': 'RIGHT', 'positionCoords': [998.4, 335], 'bid': 7.95}]",109957.79999999888,1669829797338,steak,seaweed,8.38,7.95,-0.4300000000000006,steak,1122.0999999996275,1122,1122.5,True,u,111592.39999999851,1634.5999999996275,1669829798972,1634,HRV,HRV_0096,2022-11-30 17:39:40
67,"[{'imgObject': {}, 'id': 'bagel and cc', 'src': '/static/foodstim60/bagel and cc.jpg', 'key': 'u', 'origWidth': 410, 'origHeight': 410, 'width': 410, 'height': 410, 'widthPercent': 0.45, 'rescaleHeight': False, 'trialN': 67, 'loaded': True, 'loadedTime': 2142.39999999851, 'positionName': 'LEFT', 'positionCoords': [511.6, 335], 'bid': 5.71}, {'imgObject': {}, 'id': 'turkey sandwich', 'src': '/static/foodstim60/turkey sandwich.jpg', 'key': 'i', 'origWidth': 409, 'origHeight': 409, 'width': 409, 'height': 409, 'widthPercent': 0.45, 'rescaleHeight': False, 'trialN': 67, 'loaded': True, 'loadedTime': 2180, 'positionName': 'RIGHT', 'positionCoords': [998.4, 335.5], 'bid': 6.43}]",111592.59999999963,1669829798973,bagel and cc,turkey sandwich,5.71,6.43,0.7199999999999998,turkey sandwich,958.5999999996275,958,958.7999999988824,True,i,113060.39999999851,1467.7999999988824,1669829800440,1467,HRV,HRV_0096,2022-11-30 17:39:40
68,"[{'imgObject': {}, 'id': 'rigatoni and sauce', 'src': '/static/foodstim60/rigatoni and sauce.jpg', 'key': 'u', 'origWidth': 410, 'origHeight': 411, 'width': 410, 'height': 411, 'widthPercent': 0.45, 'rescaleHeight': False, 'trialN': 68, 'loaded': True, 'loadedTime': 2134.5999999996275, 'positionName': 'LEFT', 'positionCoords': [511.6, 334.5], 'bid': 5.39}, {'imgObject': {}, 'id': 'Tribe humus pita', 'src': '/static/foodstim60/Tribe humus pita.jpg', 'key': 'i', 'origWidth': 411, 'origHeight': 411, 'width': 411, 'height': 411, 'widthPercent': 0.45, 'rescaleHeight': False, 'trialN': 68, 'loaded': True, 'loadedTime': 2131.199999999255, 'positionName': 'RIGHT', 'positionCoords': [998.4, 334.5], 'bid': 5.84}]",113060.69999999925,1669829800441,rigatoni and sauce,Tribe humus pita,5.39,5.84,0.4500000000000002,rigatoni and sauce,1642.9000000003725,1643,1643.199999999255,True,u,115213.89999999851,2153.199999999255,1669829802594,2153,HRV,HRV_0096,2022-11-30 17:39:40
69,"[{'imgObject': {}, 'id': 'seaweed', 'src': '/static/foodstim60/seaweed.jpg', 'key': 'u', 'origWidth': 410, 'origHeight': 410, 'width': 410, 'height': 410, 'widthPercent': 0.45, 'rescaleHeight': False, 'trialN': 69, 'loaded': True, 'loadedTime': 2136.0999999996275, 'positionName': 'LEFT', 'positionCoords': [511.6, 335], 'bid': 7.95}, {'imgObject': {}, 'id': 'mac & cheese', 'src': '/static/foodstim60/mac & cheese.jpg', 'key': 'i', 'origWidth': 410, 'origHeight': 410, 'width': 410, 'height': 410, 'widthPercent': 0.45, 'rescaleHeight': False, 'trialN': 69, 'loaded': True, 'loadedTime': 2180.89999999851, 'positionName': 'RIGHT', 'positionCoords': [998.4, 335], 'bid': 7.19}]",115214.19999999925,1669829802594,seaweed,mac & cheese,7.95,7.19,-0.7599999999999998,mac & cheese,865.1999999992549,865,865.3000000007451,True,i,116595.59999999963,1381.4000000003725,1669829803975,1381,HRV,HRV_0096,2022-11-30 17:39:40
70,"[{'imgObject': {}, 'id': 'yogurt no spoon', 'src': '/static/foodstim60/yogurt no spoon.jpg', 'key': 'u', 'origWidth': 411, 'origHeight': 410, 'width': 411, 'height': 410, 'widthPercent': 0.45, 'rescaleHeight': False, 'trialN': 70, 'loaded': True, 'loadedTime': 2177.5999999996275, 'positionName': 'LEFT', 'positionCoords': [510.6, 335], 'bid': 5.84}, {'imgObject': {}, 'id': 'cocktailshrimp', 'src': '/static/foodstim60/cocktailshrimp.jpg', 'key': 'i', 'origWidth': 410, 'origHeight': 410, 'width': 410, 'height': 410, 'widthPercent': 0.45, 'rescaleHeight': False, 'trialN': 70, 'loaded': True, 'loadedTime': 2186.89999999851, 'positionName': 'RIGHT', 'positionCoords': [998.4, 335], 'bid': 5.55}]",116595.69999999925,1669829803976,yogurt no spoon,cocktailshrimp,5.84,5.55,-0.29000000000000004,yogurt no spoon,1428.5999999996275,1429,1429.0,True,u,118535.0,1939.300000000745,1669829805915,1939,HRV,HRV_0096,2022-11-30 17:39:40
71,"[{'imgObject': {}, 'id': 'eggs', 'src': '/static/foodstim60/eggs.jpg', 'key': 'u', 'origWidth': 409, 'origHeight': 409, 'width': 409, 'height': 409, 'widthPercent': 0.45, 'rescaleHeight': False, 'trialN': 71, 'loaded': True, 'loadedTime': 2198.699999999255, 'positionName': 'LEFT', 'positionCoords': [512.6, 335.5], 'bid': 2.6}, {'imgObject': {}, 'id': 'avocado', 'src': '/static/foodstim60/avocado.jpg', 'key': 'i', 'origWidth': 409, 'origHeight': 409, 'width': 409, 'height': 409, 'widthPercent': 0.45, 'rescaleHeight': False, 'trialN': 71, 'loaded': True, 'loadedTime': 2132.699999999255, 'positionName': 'RIGHT', 'positionCoords': [998.4, 335.5], 'bid': 2.62}]",118535.0,1669829805915,eggs,avocado,2.6,2.62,0.020000000000000018,avocado,1033.0,1033,1033.2999999988824,True,i,120084.89999999851,1549.8999999985099,1669829807465,1550,HRV,HRV_0096,2022-11-30 17:39:40
72,"[{'imgObject': {}, 'id': 'eggsalad', 'src': '/static/foodstim60/eggsalad.jpg', 'key': 'u', 'origWidth': 410, 'origHeight': 409, 'width': 410, 'height': 409, 'widthPercent': 0.45, 'rescaleHeight': False, 'trialN': 72, 'loaded': True, 'loadedTime': 2145.2999999988824, 'positionName': 'LEFT', 'positionCoords': [511.6, 335.5], 'bid': 3.92}, {'imgObject': {}, 'id': 'hashbrowns', 'src': '/static/foodstim60/hashbrowns.jpg', 'key': 'i', 'origWidth': 411, 'origHeight': 410, 'width': 411, 'height': 410, 'widthPercent': 0.45, 'rescaleHeight': False, 'trialN': 72, 'loaded': True, 'loadedTime': 2172.199999999255, 'positionName': 'RIGHT', 'positionCoords': [998.4, 335], 'bid': 4}]",120085.09999999963,1669829807465,eggsalad,hashbrowns,3.92,4.0,0.08000000000000007,hashbrowns,1714.7999999988824,1715,1715.2999999988824,True,i,122319.09999999963,2234.0,1669829809699,2234,HRV,HRV_0096,2022-11-30 17:39:40
73,"[{'imgObject': {}, 'id': 'cantaloupe', 'src': '/static/foodstim60/cantaloupe.jpg', 'key': 'u', 'origWidth': 409, 'origHeight': 409, 'width': 409, 'height': 409, 'widthPercent': 0.45, 'rescaleHeight': False, 'trialN': 73, 'loaded': True, 'loadedTime': 2176.5, 'positionName': 'LEFT', 'positionCoords': [512.6, 335.5], 'bid': 4.11}, {'imgObject': {}, 'id': 'lox', 'src': '/static/foodstim60/lox.jpg', 'key': 'i', 'origWidth': 410, 'origHeight': 411, 'width': 410, 'height': 411, 'widthPercent': 0.45, 'rescaleHeight': False, 'trialN': 73, 'loaded': True, 'loadedTime': 2138.699999999255, 'positionName': 'RIGHT', 'positionCoords': [998.4, 334.5], 'bid': 4.47}]",122319.09999999963,1669829809699,cantaloupe,lox,4.11,4.47,0.35999999999999943,lox,872.2999999988824,872,872.5,True,i,123705.29999999888,1386.199999999255,1669829811085,1386,HRV,HRV_0096,2022-11-30 17:39:40
74,"[{'imgObject': {}, 'id': 'baked potato', 'src': '/static/foodstim60/baked potato.jpg', 'key': 'u', 'origWidth': 409, 'origHeight': 410, 'width': 409, 'height': 410, 'widthPercent': 0.45, 'rescaleHeight': False, 'trialN': 74, 'loaded': True, 'loadedTime': 2117.89999999851, 'positionName': 'LEFT', 'positionCoords': [512.6, 335], 'bid': 5.8}, {'imgObject': {}, 'id': 'salmon', 'src': '/static/foodstim60/salmon.jpg', 'key': 'i', 'origWidth': 410, 'origHeight': 409, 'width': 410, 'height': 409, 'widthPercent': 0.45, 'rescaleHeight': False, 'trialN': 74, 'loaded': True, 'loadedTime': 2193.89999999851, 'positionName': 'RIGHT', 'positionCoords': [998.4, 335.5], 'bid': 6.59}]",123705.39999999851,1669829811085,baked potato,salmon,5.8,6.59,0.79,salmon,1446.6000000014901,1447,1447.0,True,i,125673.5,1968.1000000014901,1669829813053,1968,HRV,HRV_0096,2022-11-30 17:39:40
75,"[{'imgObject': {}, 'id': 'salad w chicken', 'src': '/static/foodstim60/salad w chicken.jpg', 'key': 'u', 'origWidth': 411, 'origHeight': 411, 'width': 411, 'height': 411, 'widthPercent': 0.45, 'rescaleHeight': False, 'trialN': 75, 'loaded': True, 'loadedTime': 2144.39999999851, 'positionName': 'LEFT', 'positionCoords': [510.6, 334.5], 'bid': 5.9}, {'imgObject': {}, 'id': 'cocktailshrimp', 'src': '/static/foodstim60/cocktailshrimp.jpg', 'key': 'i', 'origWidth': 410, 'origHeight': 410, 'width': 410, 'height': 410, 'widthPercent': 0.45, 'rescaleHeight': False, 'trialN': 75, 'loaded': True, 'loadedTime': 2186.7999999988824, 'positionName': 'RIGHT', 'positionCoords': [998.4, 335], 'bid': 5.55}]",125673.79999999888,1669829813054,salad w chicken,cocktailshrimp,5.9,5.55,-0.35000000000000053,cocktailshrimp,1534.0999999996275,1534,1534.5999999996275,True,i,127725.5,2051.7000000011176,1669829815105,2051,HRV,HRV_0096,2022-11-30 17:39:40
76,"[{'imgObject': {}, 'id': 'ice cream sundae 002', 'src': '/static/foodstim60/ice cream sundae 002.jpg', 'key': 'u', 'origWidth': 409, 'origHeight': 409, 'width': 409, 'height': 409, 'widthPercent': 0.45, 'rescaleHeight': False, 'trialN': 76, 'loaded': True, 'loadedTime': 2184.5, 'positionName': 'LEFT', 'positionCoords': [512.6, 335.5], 'bid': 6.93}, {'imgObject': {}, 'id': 'burger', 'src': '/static/foodstim60/burger.jpg', 'key': 'i', 'origWidth': 409, 'origHeight': 409, 'width': 409, 'height': 409, 'widthPercent': 0.45, 'rescaleHeight': False, 'trialN': 76, 'loaded': True, 'loadedTime': 2197, 'positionName': 'RIGHT', 'positionCoords': [998.4, 335.5], 'bid': 7.41}]",127725.69999999925,1669829815106,ice cream sundae 002,burger,6.93,7.41,0.4800000000000004,burger,1162.5999999996275,1163,1163.0999999996275,True,i,129410.59999999963,1684.9000000003725,1669829816791,1685,HRV,HRV_0096,2022-11-30 17:39:40
77,"[{'imgObject': {}, 'id': 'cherries', 'src': '/static/foodstim60/cherries.jpg', 'key': 'u', 'origWidth': 410, 'origHeight': 411, 'width': 410, 'height': 411, 'widthPercent': 0.45, 'rescaleHeight': False, 'trialN': 77, 'loaded': True, 'loadedTime': 2141.5, 'positionName': 'LEFT', 'positionCoords': [511.6, 334.5], 'bid': 5.12}, {'imgObject': {}, 'id': 'hotdog w must', 'src': '/static/foodstim60/hotdog w must.jpg', 'key': 'i', 'origWidth': 409, 'origHeight': 409, 'width': 409, 'height': 409, 'widthPercent': 0.45, 'rescaleHeight': False, 'trialN': 77, 'loaded': True, 'loadedTime': 2179.39999999851, 'positionName': 'RIGHT', 'positionCoords': [998.4, 335.5], 'bid': 5.82}]",129410.89999999851,1669829816791,cherries,hotdog w must,5.12,5.82,0.7000000000000002,hotdog w must,741.1000000014901,741,741.5,True,i,130671.29999999888,1260.4000000003725,1669829818051,1260,HRV,HRV_0096,2022-11-30 17:39:40
78,"[{'imgObject': {}, 'id': 'grilled chicken strips', 'src': '/static/foodstim60/grilled chicken strips.jpg', 'key': 'u', 'origWidth': 410, 'origHeight': 411, 'width': 410, 'height': 411, 'widthPercent': 0.45, 'rescaleHeight': False, 'trialN': 78, 'loaded': True, 'loadedTime': 2185.5, 'positionName': 'LEFT', 'positionCoords': [511.6, 334.5], 'bid': 7.31}, {'imgObject': {}, 'id': 'steak', 'src': '/static/foodstim60/steak.jpg', 'key': 'i', 'origWidth': 410, 'origHeight': 410, 'width': 410, 'height': 410, 'widthPercent': 0.45, 'rescaleHeight': False, 'trialN': 78, 'loaded': True, 'loadedTime': 2175.5999999996275, 'positionName': 'RIGHT', 'positionCoords': [998.4, 335], 'bid': 8.38}]",130671.5,1669829818051,grilled chicken strips,steak,7.31,8.38,1.0700000000000012,steak,840.3999999985099,840,840.7999999988824,True,i,132030.29999999888,1358.7999999988824,1669829819409,1358,HRV,HRV_0096,2022-11-30 17:39:40
79,"[{'imgObject': {}, 'id': 'bagel plain', 'src': '/static/foodstim60/bagel plain.jpg', 'key': 'u', 'origWidth': 410, 'origHeight': 410, 'width': 410, 'height': 410, 'widthPercent': 0.45, 'rescaleHeight': False, 'trialN': 79, 'loaded': True, 'loadedTime': 2143.199999999255, 'positionName': 'LEFT', 'positionCoords': [511.6, 335], 'bid': 5.8100000000000005}, {'imgObject': {}, 'id': 'baked potato', 'src': '/static/foodstim60/baked potato.jpg', 'key': 'i', 'origWidth': 409, 'origHeight': 410, 'width': 409, 'height': 410, 'widthPercent': 0.45, 'rescaleHeight': False, 'trialN': 79, 'loaded': True, 'loadedTime': 2118.5, 'positionName': 'RIGHT', 'positionCoords': [998.4, 335], 'bid': 5.8}]",132030.5,1669829819409,bagel plain,baked potato,5.8100000000000005,5.8,-0.010000000000000675,baked potato,864.7999999988824,865,865.0999999996275,True,i,133414.79999999888,1384.2999999988824,1669829820793,1384,HRV,HRV_0096,2022-11-30 17:39:40
80,"[{'imgObject': {}, 'id': 'salad w chicken', 'src': '/static/foodstim60/salad w chicken.jpg', 'key': 'u', 'origWidth': 411, 'origHeight': 411, 'width': 411, 'height': 411, 'widthPercent': 0.45, 'rescaleHeight': False, 'trialN': 80, 'loaded': True, 'loadedTime': 2144.2999999988824, 'positionName': 'LEFT', 'positionCoords': [510.6, 334.5], 'bid': 5.9}, {'imgObject': {}, 'id': 'turkey sandwich', 'src': '/static/foodstim60/turkey sandwich.jpg', 'key': 'i', 'origWidth': 409, 'origHeight': 409, 'width': 409, 'height': 409, 'widthPercent': 0.45, 'rescaleHeight': False, 'trialN': 80, 'loaded': True, 'loadedTime': 2180.199999999255, 'positionName': 'RIGHT', 'positionCoords': [998.4, 335.5], 'bid': 6.43}]",133415.09999999963,1669829820794,salad w chicken,turkey sandwich,5.9,6.43,0.5299999999999994,turkey sandwich,1080.7999999988824,1081,1081.4000000003725,True,i,135018.79999999888,1603.699999999255,1669829822397,1603,HRV,HRV_0096,2022-11-30 17:39:40
81,"[{'imgObject': {}, 'id': 'steak', 'src': '/static/foodstim60/steak.jpg', 'key': 'u', 'origWidth': 410, 'origHeight': 410, 'width': 410, 'height': 410, 'widthPercent': 0.45, 'rescaleHeight': False, 'trialN': 81, 'loaded': True, 'loadedTime': 2175.5, 'positionName': 'LEFT', 'positionCoords': [511.6, 335], 'bid': 8.38}, {'imgObject': {}, 'id': 'ice cream sundae 002', 'src': '/static/foodstim60/ice cream sundae 002.jpg', 'key': 'i', 'origWidth': 409, 'origHeight': 409, 'width': 409, 'height': 409, 'widthPercent': 0.45, 'rescaleHeight': False, 'trialN': 81, 'loaded': True, 'loadedTime': 2184.5999999996275, 'positionName': 'RIGHT', 'positionCoords': [998.4, 335.5], 'bid': 6.93}]",135018.8999999985,1669829822397,steak,ice cream sundae 002,8.38,6.93,-1.450000000000001,steak,949.0,950,949.6000000014901,True,u,136488.3999999985,1469.5,1669829823867,1470,HRV,HRV_0096,2022-11-30 17:39:40
82,"[{'imgObject': {}, 'id': 'lox', 'src': '/static/foodstim60/lox.jpg', 'key': 'u', 'origWidth': 410, 'origHeight': 411, 'width': 410, 'height': 411, 'widthPercent': 0.45, 'rescaleHeight': False, 'trialN': 82, 'loaded': True, 'loadedTime': 2138.699999999255, 'positionName': 'LEFT', 'positionCoords': [511.6, 334.5], 'bid': 4.47}, {'imgObject': {}, 'id': 'apple slices', 'src': '/static/foodstim60/apple slices.jpg', 'key': 'i', 'origWidth': 409, 'origHeight': 410, 'width': 409, 'height': 410, 'widthPercent': 0.45, 'rescaleHeight': False, 'trialN': 82, 'loaded': True, 'loadedTime': 2177.39999999851, 'positionName': 'RIGHT', 'positionCoords': [998.4, 335], 'bid': 3.78}]",136488.5,1669829823867,lox,apple slices,4.47,3.78,-0.69,lox,1375.5,1376,1376.0,True,u,138382.29999999888,1893.7999999988824,1669829825761,1894,HRV,HRV_0096,2022-11-30 17:39:40
83,"[{'imgObject': {}, 'id': 'blackbeanswithrice', 'src': '/static/foodstim60/blackbeanswithrice.jpg', 'key': 'u', 'origWidth': 410, 'origHeight': 410, 'width': 410, 'height': 410, 'widthPercent': 0.45, 'rescaleHeight': False, 'trialN': 83, 'loaded': True, 'loadedTime': 2187.5999999996275, 'positionName': 'LEFT', 'positionCoords': [511.6, 335], 'bid': 4.3100000000000005}, {'imgObject': {}, 'id': 'corn cob', 'src': '/static/foodstim60/corn cob.jpg', 'key': 'i', 'origWidth': 411, 'origHeight': 411, 'width': 411, 'height': 411, 'widthPercent': 0.45, 'rescaleHeight': False, 'trialN': 83, 'loaded': True, 'loadedTime': 2182.199999999255, 'positionName': 'RIGHT', 'positionCoords': [998.4, 334.5], 'bid': 5.0600000000000005}]",138382.5,1669829825761,blackbeanswithrice,corn cob,4.3100000000000005,5.0600000000000005,0.75,corn cob,1065.699999999255,1066,1066.2999999988824,True,i,139956.0,1573.5,1669829827335,1574,HRV,HRV_0096,2022-11-30 17:39:40
84,"[{'imgObject': {}, 'id': 'pear', 'src': '/static/foodstim60/pear.jpg', 'key': 'u', 'origWidth': 411, 'origHeight': 410, 'width': 411, 'height': 410, 'widthPercent': 0.45, 'rescaleHeight': False, 'trialN': 84, 'loaded': True, 'loadedTime': 2137.699999999255, 'positionName': 'LEFT', 'positionCoords': [510.6, 335], 'bid': 3.42}, {'imgObject': {}, 'id': 'sushi w_condiments', 'src': '/static/foodstim60/sushi w_condiments.jpg', 'key': 'i', 'origWidth': 410, 'origHeight': 410, 'width': 410, 'height': 410, 'widthPercent': 0.45, 'rescaleHeight': False, 'trialN': 84, 'loaded': True, 'loadedTime': 2139.7999999988824, 'positionName': 'RIGHT', 'positionCoords': [998.4, 335], 'bid': 5.87}]",139956.19999999925,1669829827335,pear,sushi w_condiments,3.42,5.87,2.45,sushi w_condiments,963.6999999992549,964,964.3000000007451,True,i,141439.3999999985,1483.199999999255,1669829828818,1483,HRV,HRV_0096,2022-11-30 17:39:40
85,"[{'imgObject': {}, 'id': 'turkeysandwich', 'src': '/static/foodstim60/turkeysandwich.jpg', 'key': 'u', 'origWidth': 409, 'origHeight': 409, 'width': 409, 'height': 409, 'widthPercent': 0.45, 'rescaleHeight': False, 'trialN': 85, 'loaded': True, 'loadedTime': 2198.5999999996275, 'positionName': 'LEFT', 'positionCoords': [512.6, 335.5], 'bid': 6.03}, {'imgObject': {}, 'id': 'Tribe humus pita', 'src': '/static/foodstim60/Tribe humus pita.jpg', 'key': 'i', 'origWidth': 411, 'origHeight': 411, 'width': 411, 'height': 411, 'widthPercent': 0.45, 'rescaleHeight': False, 'trialN': 85, 'loaded': True, 'loadedTime': 2131.2999999988824, 'positionName': 'RIGHT', 'positionCoords': [998.4, 334.5], 'bid': 5.84}]",141439.69999999925,1669829828818,turkeysandwich,Tribe humus pita,6.03,5.84,-0.1900000000000004,turkeysandwich,2128.199999999255,2129,2128.5999999996275,True,u,144076.19999999925,2636.5,1669829831455,2637,HRV,HRV_0096,2022-11-30 17:39:40
86,"[{'imgObject': {}, 'id': 'apple slices', 'src': '/static/foodstim60/apple slices.jpg', 'key': 'u', 'origWidth': 409, 'origHeight': 410, 'width': 409, 'height': 410, 'widthPercent': 0.45, 'rescaleHeight': False, 'trialN': 86, 'loaded': True, 'loadedTime': 2177.5, 'positionName': 'LEFT', 'positionCoords': [512.6, 335], 'bid': 3.78}, {'imgObject': {}, 'id': 'eggsalad', 'src': '/static/foodstim60/eggsalad.jpg', 'key': 'i', 'origWidth': 410, 'origHeight': 409, 'width': 410, 'height': 409, 'widthPercent': 0.45, 'rescaleHeight': False, 'trialN': 86, 'loaded': True, 'loadedTime': 2145.39999999851, 'positionName': 'RIGHT', 'positionCoords': [998.4, 335.5], 'bid': 3.92}]",144076.3999999985,1669829831455,apple slices,eggsalad,3.78,3.92,0.14000000000000012,apple slices,1050.9000000003725,1051,1051.0,True,u,145644.5,1568.1000000014901,1669829833023,1568,HRV,HRV_0096,2022-11-30 17:39:40
87,"[{'imgObject': {}, 'id': 'banana', 'src': '/static/foodstim60/banana.jpg', 'key': 'u', 'origWidth': 410, 'origHeight': 410, 'width': 410, 'height': 410, 'widthPercent': 0.45, 'rescaleHeight': False, 'trialN': 87, 'loaded': True, 'loadedTime': 2131.7999999988824, 'positionName': 'LEFT', 'positionCoords': [511.6, 335], 'bid': 3.9}, {'imgObject': {}, 'id': 'fruitsalad', 'src': '/static/foodstim60/fruitsalad.jpg', 'key': 'i', 'origWidth': 410, 'origHeight': 410, 'width': 410, 'height': 410, 'widthPercent': 0.45, 'rescaleHeight': False, 'trialN': 87, 'loaded': True, 'loadedTime': 2188.699999999255, 'positionName': 'RIGHT', 'positionCoords': [998.4, 335], 'bid': 4.89}]",145644.69999999925,1669829833023,banana,fruitsalad,3.9,4.89,0.9899999999999998,banana,826.6999999992549,827,827.0,True,u,146983.19999999925,1338.5,1669829834362,1339,HRV,HRV_0096,2022-11-30 17:39:40
88,"[{'imgObject': {}, 'id': 'veggieswithdip', 'src': '/static/foodstim60/veggieswithdip.jpg', 'key': 'u', 'origWidth': 409, 'origHeight': 409, 'width': 409, 'height': 409, 'widthPercent': 0.45, 'rescaleHeight': False, 'trialN': 88, 'loaded': True, 'loadedTime': 2156.699999999255, 'positionName': 'LEFT', 'positionCoords': [512.6, 335.5], 'bid': 1.61}, {'imgObject': {}, 'id': 'kiwi', 'src': '/static/foodstim60/kiwi.jpg', 'key': 'i', 'origWidth': 410, 'origHeight': 410, 'width': 410, 'height': 410, 'widthPercent': 0.45, 'rescaleHeight': False, 'trialN': 88, 'loaded': True, 'loadedTime': 2195.5999999996275, 'positionName': 'RIGHT', 'positionCoords': [998.4, 335], 'bid': 2.92}]",146983.3999999985,1669829834362,veggieswithdip,kiwi,1.61,2.92,1.3099999999999998,kiwi,1296.5,1297,1296.9000000003725,True,i,148797.59999999963,1814.2000000011176,1669829836176,1814,HRV,HRV_0096,2022-11-30 17:39:40
89,"[{'imgObject': {}, 'id': 'kiwi', 'src': '/static/foodstim60/kiwi.jpg', 'key': 'u', 'origWidth': 410, 'origHeight': 410, 'width': 410, 'height': 410, 'widthPercent': 0.45, 'rescaleHeight': False, 'trialN': 89, 'loaded': True, 'loadedTime': 2195, 'positionName': 'LEFT', 'positionCoords': [511.6, 335], 'bid': 2.92}, {'imgObject': {}, 'id': 'cantaloupe', 'src': '/static/foodstim60/cantaloupe.jpg', 'key': 'i', 'origWidth': 409, 'origHeight': 409, 'width': 409, 'height': 409, 'widthPercent': 0.45, 'rescaleHeight': False, 'trialN': 89, 'loaded': True, 'loadedTime': 2176.39999999851, 'positionName': 'RIGHT', 'positionCoords': [998.4, 335.5], 'bid': 4.11}]",148797.69999999925,1669829836176,kiwi,cantaloupe,2.92,4.11,1.1900000000000004,cantaloupe,890.5,891,890.9000000003725,True,i,150205.5,1407.800000000745,1669829837584,1408,HRV,HRV_0096,2022-11-30 17:39:40
90,"[{'imgObject': {}, 'id': 'fruitsalad', 'src': '/static/foodstim60/fruitsalad.jpg', 'key': 'u', 'origWidth': 410, 'origHeight': 410, 'width': 410, 'height': 410, 'widthPercent': 0.45, 'rescaleHeight': False, 'trialN': 90, 'loaded': True, 'loadedTime': 2189.39999999851, 'positionName': 'LEFT', 'positionCoords': [511.6, 335], 'bid': 4.89}, {'imgObject': {}, 'id': 'cherry tomato', 'src': '/static/foodstim60/cherry tomato.jpg', 'key': 'i', 'origWidth': 410, 'origHeight': 410, 'width': 410, 'height': 410, 'widthPercent': 0.45, 'rescaleHeight': False, 'trialN': 90, 'loaded': True, 'loadedTime': 2193.2999999988824, 'positionName': 'RIGHT', 'positionCoords': [998.4, 335], 'bid': 2.71}]",153593.59999999963,1669829840972,fruitsalad,cherry tomato,4.89,2.71,-2.1799999999999997,fruitsalad,1085.699999999255,1086,1085.9000000003725,True,u,155200.5,1606.9000000003725,1669829842579,1607,HRV,HRV_0096,2022-11-30 17:39:40
91,"[{'imgObject': {}, 'id': 'burrito', 'src': '/static/foodstim60/burrito.jpg', 'key': 'u', 'origWidth': 410, 'origHeight': 410, 'width': 410, 'height': 410, 'widthPercent': 0.45, 'rescaleHeight': False, 'trialN': 91, 'loaded': True, 'loadedTime': 2136.699999999255, 'positionName': 'LEFT', 'positionCoords': [511.6, 335], 'bid': 3.17}, {'imgObject': {}, 'id': 'kiwi', 'src': '/static/foodstim60/kiwi.jpg', 'key': 'i', 'origWidth': 410, 'origHeight': 410, 'width': 410, 'height': 410, 'widthPercent': 0.45, 'rescaleHeight': False, 'trialN': 91, 'loaded': True, 'loadedTime': 2195.699999999255, 'positionName': 'RIGHT', 'positionCoords': [998.4, 335], 'bid': 2.92}]",155200.69999999925,1669829842579,burrito,kiwi,3.17,2.92,-0.25,burrito,1071.0999999996275,1072,1071.699999999255,True,u,156790.0,1589.300000000745,1669829844169,1590,HRV,HRV_0096,2022-11-30 17:39:40
92,"[{'imgObject': {}, 'id': 'edamame', 'src': '/static/foodstim60/edamame.jpg', 'key': 'u', 'origWidth': 409, 'origHeight': 410, 'width': 409, 'height': 410, 'widthPercent': 0.45, 'rescaleHeight': False, 'trialN': 92, 'loaded': True, 'loadedTime': 2196.39999999851, 'positionName': 'LEFT', 'positionCoords': [512.6, 335], 'bid': 3.56}, {'imgObject': {}, 'id': 'raisin bran w milk', 'src': '/static/foodstim60/raisin bran w milk.jpg', 'key': 'i', 'origWidth': 411, 'origHeight': 411, 'width': 411, 'height': 411, 'widthPercent': 0.45, 'rescaleHeight': False, 'trialN': 92, 'loaded': True, 'loadedTime': 2133.0999999996275, 'positionName': 'RIGHT', 'positionCoords': [998.4, 334.5], 'bid': 5.22}]",156790.09999999963,1669829844169,edamame,raisin bran w milk,3.56,5.22,1.6599999999999997,edamame,1281.5999999996275,1282,1282.0,True,u,158589.0,1798.9000000003725,1669829845968,1799,HRV,HRV_0096,2022-11-30 17:39:40
93,"[{'imgObject': {}, 'id': 'orange slices', 'src': '/static/foodstim60/orange slices.jpg', 'key': 'u', 'origWidth': 409, 'origHeight': 410, 'width': 409, 'height': 410, 'widthPercent': 0.45, 'rescaleHeight': False, 'trialN': 93, 'loaded': True, 'loadedTime': 2185.5, 'positionName': 'LEFT', 'positionCoords': [512.6, 335], 'bid': 6.0200000000000005}, {'imgObject': {}, 'id': 'apple slices', 'src': '/static/foodstim60/apple slices.jpg', 'key': 'i', 'origWidth': 409, 'origHeight': 410, 'width': 409, 'height': 410, 'widthPercent': 0.45, 'rescaleHeight': False, 'trialN': 93, 'loaded': True, 'loadedTime': 2177.5, 'positionName': 'RIGHT', 'positionCoords': [998.4, 335], 'bid': 3.78}]",158589.0,1669829845968,orange slices,apple slices,6.0200000000000005,3.78,-2.2400000000000007,orange slices,770.7999999988824,771,771.2999999988824,True,u,159874.29999999888,1285.2999999988824,1669829847253,1285,HRV,HRV_0096,2022-11-30 17:39:40
94,"[{'imgObject': {}, 'id': 'olives', 'src': '/static/foodstim60/olives.jpg', 'key': 'u', 'origWidth': 410, 'origHeight': 410, 'width': 410, 'height': 410, 'widthPercent': 0.45, 'rescaleHeight': False, 'trialN': 94, 'loaded': True, 'loadedTime': 2163.0999999996275, 'positionName': 'LEFT', 'positionCoords': [511.6, 335], 'bid': 2.3000000000000003}, {'imgObject': {}, 'id': 'cantaloupe', 'src': '/static/foodstim60/cantaloupe.jpg', 'key': 'i', 'origWidth': 409, 'origHeight': 409, 'width': 409, 'height': 409, 'widthPercent': 0.45, 'rescaleHeight': False, 'trialN': 94, 'loaded': True, 'loadedTime': 2176.699999999255, 'positionName': 'RIGHT', 'positionCoords': [998.4, 335.5], 'bid': 4.11}]",159874.59999999963,1669829847253,olives,cantaloupe,2.3000000000000003,4.11,1.81,cantaloupe,901.0,901,901.2999999988824,True,i,161292.8999999985,1418.2999999988824,1669829848671,1418,HRV,HRV_0096,2022-11-30 17:39:40
95,"[{'imgObject': {}, 'id': 'salmon', 'src': '/static/foodstim60/salmon.jpg', 'key': 'u', 'origWidth': 410, 'origHeight': 409, 'width': 410, 'height': 409, 'widthPercent': 0.45, 'rescaleHeight': False, 'trialN': 95, 'loaded': True, 'loadedTime': 2194.199999999255, 'positionName': 'LEFT', 'positionCoords': [511.6, 335.5], 'bid': 6.59}, {'imgObject': {}, 'id': 'mashed potato', 'src': '/static/foodstim60/mashed potato.jpg', 'key': 'i', 'origWidth': 409, 'origHeight': 409, 'width': 409, 'height': 409, 'widthPercent': 0.45, 'rescaleHeight': False, 'trialN': 95, 'loaded': True, 'loadedTime': 2183.89999999851, 'positionName': 'RIGHT', 'positionCoords': [998.4, 335.5], 'bid': 6.58}]",161293.0,1669829848672,salmon,mashed potato,6.59,6.58,-0.009999999999999787,mashed potato,1130.7999999988824,1131,1131.2999999988824,True,i,162935.5,1642.5,1669829850314,1642,HRV,HRV_0096,2022-11-30 17:39:40
96,"[{'imgObject': {}, 'id': 'corn cob', 'src': '/static/foodstim60/corn cob.jpg', 'key': 'u', 'origWidth': 411, 'origHeight': 411, 'width': 411, 'height': 411, 'widthPercent': 0.45, 'rescaleHeight': False, 'trialN': 96, 'loaded': True, 'loadedTime': 2182.699999999255, 'positionName': 'LEFT', 'positionCoords': [510.6, 334.5], 'bid': 5.0600000000000005}, {'imgObject': {}, 'id': 'mango', 'src': '/static/foodstim60/mango.jpg', 'key': 'i', 'origWidth': 411, 'origHeight': 411, 'width': 411, 'height': 411, 'widthPercent': 0.45, 'rescaleHeight': False, 'trialN': 96, 'loaded': True, 'loadedTime': 2174.5, 'positionName': 'RIGHT', 'positionCoords': [998.4, 334.5], 'bid': 5.04}]",162935.59999999963,1669829850314,corn cob,mango,5.0600000000000005,5.04,-0.020000000000000462,corn cob,1248.2999999988824,1249,1248.699999999255,True,u,164703.3999999985,1767.7999999988824,1669829852082,1768,HRV,HRV_0096,2022-11-30 17:39:40
97,"[{'imgObject': {}, 'id': 'salad w chicken', 'src': '/static/foodstim60/salad w chicken.jpg', 'key': 'u', 'origWidth': 411, 'origHeight': 411, 'width': 411, 'height': 411, 'widthPercent': 0.45, 'rescaleHeight': False, 'trialN': 97, 'loaded': True, 'loadedTime': 2144.5, 'positionName': 'LEFT', 'positionCoords': [510.6, 334.5], 'bid': 5.9}, {'imgObject': {}, 'id': 'tacos', 'src': '/static/foodstim60/tacos.jpg', 'key': 'i', 'origWidth': 411, 'origHeight': 411, 'width': 411, 'height': 411, 'widthPercent': 0.45, 'rescaleHeight': False, 'trialN': 97, 'loaded': True, 'loadedTime': 2197.7999999988824, 'positionName': 'RIGHT', 'positionCoords': [998.4, 334.5], 'bid': 3.53}]",164703.59999999963,1669829852082,salad w chicken,tacos,5.9,3.53,-2.3700000000000006,tacos,1192.2999999988824,1193,1192.699999999255,True,i,166425.79999999888,1722.199999999255,1669829853804,1722,HRV,HRV_0096,2022-11-30 17:39:40
98,"[{'imgObject': {}, 'id': 'strawberries', 'src': '/static/foodstim60/strawberries.jpg', 'key': 'u', 'origWidth': 410, 'origHeight': 410, 'width': 410, 'height': 410, 'widthPercent': 0.45, 'rescaleHeight': False, 'trialN': 98, 'loaded': True, 'loadedTime': 2130.2999999988824, 'positionName': 'LEFT', 'positionCoords': [511.6, 335], 'bid': 5.84}, {'imgObject': {}, 'id': 'kiwi', 'src': '/static/foodstim60/kiwi.jpg', 'key': 'i', 'origWidth': 410, 'origHeight': 410, 'width': 410, 'height': 410, 'widthPercent': 0.45, 'rescaleHeight': False, 'trialN': 98, 'loaded': True, 'loadedTime': 2195.7999999988824, 'positionName': 'RIGHT', 'positionCoords': [998.4, 335], 'bid': 2.92}]",166425.8999999985,1669829853804,strawberries,kiwi,5.84,2.92,-2.92,strawberries,1141.9000000003725,1143,1142.4000000003725,True,u,168082.8999999985,1657.0,1669829855461,1657,HRV,HRV_0096,2022-11-30 17:39:40
99,"[{'imgObject': {}, 'id': 'yogurt no spoon', 'src': '/static/foodstim60/yogurt no spoon.jpg', 'key': 'u', 'origWidth': 411, 'origHeight': 410, 'width': 411, 'height': 410, 'widthPercent': 0.45, 'rescaleHeight': False, 'trialN': 99, 'loaded': True, 'loadedTime': 2178.2999999988824, 'positionName': 'LEFT', 'positionCoords': [510.6, 335], 'bid': 5.84}, {'imgObject': {}, 'id': 'fried eggs', 'src': '/static/foodstim60/fried eggs.jpg', 'key': 'i', 'origWidth': 410, 'origHeight': 410, 'width': 410, 'height': 410, 'widthPercent': 0.45, 'rescaleHeight': False, 'trialN': 99, 'loaded': True, 'loadedTime': 2188.5999999996275, 'positionName': 'RIGHT', 'positionCoords': [998.4, 335], 'bid': 7.13}]",168083.0,1669829855462,yogurt no spoon,fried eggs,5.84,7.13,1.29,yogurt no spoon,780.5,780,781.0,True,u,169385.8999999985,1302.8999999985099,1669829856764,1302,HRV,HRV_0096,2022-11-30 17:39:40
100,"[{'imgObject': {}, 'id': 'Grapes', 'src': '/static/foodstim60/Grapes.jpg', 'key': 'u', 'origWidth': 411, 'origHeight': 411, 'width': 411, 'height': 411, 'widthPercent': 0.45, 'rescaleHeight': False, 'trialN': 100, 'loaded': True, 'loadedTime': 2139.699999999255, 'positionName': 'LEFT', 'positionCoords': [510.6, 334.5], 'bid': 5.41}, {'imgObject': {}, 'id': 'bagel and cc', 'src': '/static/foodstim60/bagel and cc.jpg', 'key': 'i', 'origWidth': 410, 'origHeight': 410, 'width': 410, 'height': 410, 'widthPercent': 0.45, 'rescaleHeight': False, 'trialN': 100, 'loaded': True, 'loadedTime': 2141.699999999255, 'positionName': 'RIGHT', 'positionCoords': [998.4, 335], 'bid': 5.71}]",169386.09999999963,1669829856765,Grapes,bagel and cc,5.41,5.71,0.2999999999999998,Grapes,941.6999999992549,942,942.1999999992549,True,u,170849.8999999985,1463.7999999988824,1669829858228,1463,HRV,HRV_0096,2022-11-30 17:39:40
101,"[{'imgObject': {}, 'id': 'steak', 'src': '/static/foodstim60/steak.jpg', 'key': 'u', 'origWidth': 410, 'origHeight': 410, 'width': 410, 'height': 410, 'widthPercent': 0.45, 'rescaleHeight': False, 'trialN': 101, 'loaded': True, 'loadedTime': 2175.699999999255, 'positionName': 'LEFT', 'positionCoords': [511.6, 335], 'bid': 8.38}, {'imgObject': {}, 'id': 'froot loops w milk', 'src': '/static/foodstim60/froot loops w milk.jpg', 'key': 'i', 'origWidth': 410, 'origHeight': 410, 'width': 410, 'height': 410, 'widthPercent': 0.45, 'rescaleHeight': False, 'trialN': 101, 'loaded': True, 'loadedTime': 2148.7999999988824, 'positionName': 'RIGHT', 'positionCoords': [998.4, 335], 'bid': 6.23}]",170850.0,1669829858229,steak,froot loops w milk,8.38,6.23,-2.1500000000000004,steak,814.1999999992549,814,814.5999999996275,True,u,172179.8999999985,1329.8999999985099,1669829859558,1329,HRV,HRV_0096,2022-11-30 17:39:40
102,"[{'imgObject': {}, 'id': 'mac & cheese', 'src': '/static/foodstim60/mac & cheese.jpg', 'key': 'u', 'origWidth': 410, 'origHeight': 410, 'width': 410, 'height': 410, 'widthPercent': 0.45, 'rescaleHeight': False, 'trialN': 102, 'loaded': True, 'loadedTime': 2181, 'positionName': 'LEFT', 'positionCoords': [511.6, 335], 'bid': 7.19}, {'imgObject': {}, 'id': 'shreddedwheatwithmilk', 'src': '/static/foodstim60/shreddedwheatwithmilk.jpg', 'key': 'i', 'origWidth': 410, 'origHeight': 410, 'width': 410, 'height': 410, 'widthPercent': 0.45, 'rescaleHeight': False, 'trialN': 102, 'loaded': True, 'loadedTime': 2195, 'positionName': 'RIGHT', 'positionCoords': [998.4, 335], 'bid': 5.04}]",172180.09999999963,1669829859559,mac & cheese,shreddedwheatwithmilk,7.19,5.04,-2.1500000000000004,mac & cheese,923.6999999992549,924,924.1999999992549,True,u,173622.29999999888,1442.199999999255,1669829861001,1442,HRV,HRV_0096,2022-11-30 17:39:40
103,"[{'imgObject': {}, 'id': 'tacos', 'src': '/static/foodstim60/tacos.jpg', 'key': 'u', 'origWidth': 411, 'origHeight': 411, 'width': 411, 'height': 411, 'widthPercent': 0.45, 'rescaleHeight': False, 'trialN': 103, 'loaded': True, 'loadedTime': 2197.7999999988824, 'positionName': 'LEFT', 'positionCoords': [510.6, 334.5], 'bid': 3.53}, {'imgObject': {}, 'id': 'pear', 'src': '/static/foodstim60/pear.jpg', 'key': 'i', 'origWidth': 411, 'origHeight': 410, 'width': 411, 'height': 410, 'widthPercent': 0.45, 'rescaleHeight': False, 'trialN': 103, 'loaded': True, 'loadedTime': 2137.7999999988824, 'positionName': 'RIGHT', 'positionCoords': [998.4, 335], 'bid': 3.42}]",173622.5,1669829861001,tacos,pear,3.53,3.42,-0.10999999999999988,tacos,840.7999999988824,841,841.0999999996275,True,u,174979.09999999963,1356.5999999996275,1669829862358,1357,HRV,HRV_0096,2022-11-30 17:39:40
104,"[{'imgObject': {}, 'id': 'strawberries', 'src': '/static/foodstim60/strawberries.jpg', 'key': 'u', 'origWidth': 410, 'origHeight': 410, 'width': 410, 'height': 410, 'widthPercent': 0.45, 'rescaleHeight': False, 'trialN': 104, 'loaded': True, 'loadedTime': 2129.5, 'positionName': 'LEFT', 'positionCoords': [511.6, 335], 'bid': 5.84}, {'imgObject': {}, 'id': 'raisin bran w milk', 'src': '/static/foodstim60/raisin bran w milk.jpg', 'key': 'i', 'origWidth': 411, 'origHeight': 411, 'width': 411, 'height': 411, 'widthPercent': 0.45, 'rescaleHeight': False, 'trialN': 104, 'loaded': True, 'loadedTime': 2133.89999999851, 'positionName': 'RIGHT', 'positionCoords': [998.4, 334.5], 'bid': 5.22}]",174979.29999999888,1669829862358,strawberries,raisin bran w milk,5.84,5.22,-0.6200000000000001,strawberries,1044.300000000745,1044,1044.5999999996275,True,u,176540.69999999925,1561.4000000003725,1669829863919,1561,HRV,HRV_0096,2022-11-30 17:39:40
105,"[{'imgObject': {}, 'id': 'burger', 'src': '/static/foodstim60/burger.jpg', 'key': 'u', 'origWidth': 409, 'origHeight': 409, 'width': 409, 'height': 409, 'widthPercent': 0.45, 'rescaleHeight': False, 'trialN': 105, 'loaded': True, 'loadedTime': 2197.0999999996275, 'positionName': 'LEFT', 'positionCoords': [512.6, 335.5], 'bid': 7.41}, {'imgObject': {}, 'id': 'grilled chicken strips', 'src': '/static/foodstim60/grilled chicken strips.jpg', 'key': 'i', 'origWidth': 410, 'origHeight': 411, 'width': 410, 'height': 411, 'widthPercent': 0.45, 'rescaleHeight': False, 'trialN': 105, 'loaded': True, 'loadedTime': 2185.2999999988824, 'positionName': 'RIGHT', 'positionCoords': [998.4, 334.5], 'bid': 7.31}]",176540.79999999888,1669829863919,burger,grilled chicken strips,7.41,7.31,-0.10000000000000053,grilled chicken strips,811.0999999996275,812,811.5,True,i,177874.3999999985,1333.5999999996275,1669829865253,1334,HRV,HRV_0096,2022-11-30 17:39:40
106,"[{'imgObject': {}, 'id': 'cocktailshrimp', 'src': '/static/foodstim60/cocktailshrimp.jpg', 'key': 'u', 'origWidth': 410, 'origHeight': 410, 'width': 410, 'height': 410, 'widthPercent': 0.45, 'rescaleHeight': False, 'trialN': 106, 'loaded': True, 'loadedTime': 2187, 'positionName': 'LEFT', 'positionCoords': [511.6, 335], 'bid': 5.55}, {'imgObject': {}, 'id': 'granola w milk', 'src': '/static/foodstim60/granola w milk.jpg', 'key': 'i', 'origWidth': 410, 'origHeight': 410, 'width': 410, 'height': 410, 'widthPercent': 0.45, 'rescaleHeight': False, 'trialN': 106, 'loaded': True, 'loadedTime': 2191, 'positionName': 'RIGHT', 'positionCoords': [998.4, 335], 'bid': 5.79}]",177874.59999999963,1669829865253,cocktailshrimp,granola w milk,5.55,5.79,0.2400000000000002,cocktailshrimp,1349.2999999988824,1350,1349.7999999988824,True,u,179744.3999999985,1869.7999999988824,1669829867123,1870,HRV,HRV_0096,2022-11-30 17:39:40
107,"[{'imgObject': {}, 'id': 'omelette', 'src': '/static/foodstim60/omelette.jpg', 'key': 'u', 'origWidth': 410, 'origHeight': 409, 'width': 410, 'height': 409, 'widthPercent': 0.45, 'rescaleHeight': False, 'trialN': 107, 'loaded': True, 'loadedTime': 2173.5999999996275, 'positionName': 'LEFT', 'positionCoords': [511.6, 335.5], 'bid': 6.6000000000000005}, {'imgObject': {}, 'id': 'bagel plain', 'src': '/static/foodstim60/bagel plain.jpg', 'key': 'i', 'origWidth': 410, 'origHeight': 410, 'width': 410, 'height': 410, 'widthPercent': 0.45, 'rescaleHeight': False, 'trialN': 107, 'loaded': True, 'loadedTime': 2143.199999999255, 'positionName': 'RIGHT', 'positionCoords': [998.4, 335], 'bid': 5.8100000000000005}]",179744.5,1669829867123,omelette,bagel plain,6.6000000000000005,5.8100000000000005,-0.79,omelette,1150.699999999255,1151,1150.7999999988824,True,u,181412.79999999888,1668.2999999988824,1669829868791,1668,HRV,HRV_0096,2022-11-30 17:39:40
108,"[{'imgObject': {}, 'id': 'cheerios', 'src': '/static/foodstim60/cheerios.jpg', 'key': 'u', 'origWidth': 409, 'origHeight': 410, 'width': 409, 'height': 410, 'widthPercent': 0.45, 'rescaleHeight': False, 'trialN': 108, 'loaded': True, 'loadedTime': 2192.5999999996275, 'positionName': 'LEFT', 'positionCoords': [512.6, 335], 'bid': 5.91}, {'imgObject': {}, 'id': 'burger', 'src': '/static/foodstim60/burger.jpg', 'key': 'i', 'origWidth': 409, 'origHeight': 409, 'width': 409, 'height': 409, 'widthPercent': 0.45, 'rescaleHeight': False, 'trialN': 108, 'loaded': True, 'loadedTime': 2197.0999999996275, 'positionName': 'RIGHT', 'positionCoords': [998.4, 335.5], 'bid': 7.41}]",181412.8999999985,1669829868791,cheerios,burger,5.91,7.41,1.5,burger,883.7000000011176,885,884.1000000014901,True,i,182814.09999999963,1401.2000000011176,1669829870193,1402,HRV,HRV_0096,2022-11-30 17:39:40
