success,trial_type,trial_index,time_elapsed,internal_node_id,Block,TrialNumber,TrialTime,trialTimeDiff,FPS_avg,FPS_med,FPS_mode,TrialDur,winResizeTime,rt,block,button_pressed,MotCoh,MotDir,ColCoh,Color,ChoiceKey,Choice,Accuracy,RT,nFrames,FPS,PPD,missTrial,missTrialMsg,onsetDelay,fullScreenExitTime,canvCenter,TrialType,Score,BlockTrial,stimulus,button_labels,exp,subjectId,date
True,fullscreen,0,3210,0.0-0.0,0.0,1.0,,,,,,,,,,,,,,,,,,,,,,,,,,,,,,,,HRV,HRV_0096,2022-11-30 18:13:16
,wl-check-fps,1,8201,0.0-1.0,0.0,2.0,"[3639, 3639.8, 3653.8, 3670.5, 3687.4, 3703.9, 3720.6, 3737.1, 3754.3, 3771, 3787.7, 3804.3, 3820.9, 3837.6, 3854.3, 3871, 3888, 3904.3, 3921, 3937.7, 3954.2, 3970.9, 3987.7, 4004.7, 4021.2, 4038, 4054.3, 4071, 4087.5, 4104.2, 4120.8, 4137.5, 4154.2, 4172.2, 4187.8, 4204.5, 4221.2, 4237.9, 4254.5, 4271.2, 4287.7, 4304.6, 4321.1, 4355.5, 4355.8, 4371.1, 4387.9, 4404.6, 4421.2, 4437.9, 4454.4, 4471.1, 4487.8, 4504.6, 4521.3, 4537.9, 4554.7, 4571.4, 4588, 4604.7, 4621.4, 4638.1, 4654.8, 4671.4, 4688.5, 4705.1, 4721.5, 4738.3, 4754.9, 4771.4, 4788.2, 4805, 4821.5, 4838.3, 4854.9, 4871.6, 4888.3, 4905, 4921.8, 4938.5, 4955.1, 4971.8, 4988.5, 5005.2, 5021.9, 5038.6, 5055.1, 5071.9, 5089, 5105.6, 5122.1, 5138.9, 5155.5, 5172.4, 5189.1, 5205.8, 5222.3, 5239, 5255.8, 5272.6, 5288.6, 5305.4, 5322.2, 5338.7, 5355.4, 5372.2, 5388.9, 5405.6, 5422.1, 5439, 5455.5, 5472.6, 5489.5, 5505.8, 5522.5, 5539.3, 5556, 5572.9, 5589.2, 5606.1, 5622.7, 5639.4, 5656, 5672.7, 5689.4, 5706.1, 5723, 5739.4, 5756.2, 5772.9, 5789.6, 5806.2, 5823, 5839.8, 5856.7, 5873.2, 5889.9, 5906.6, 5923, 5939.6, 5956.6, 5973.4, 5990, 6006.6, 6023, 6039.4, 6056.1, 6072.7, 6089.5, 6106.1, 6123.1, 6139.6, 6156.3, 6172.8, 6189.5, 6206.3, 6223.1, 6239.7, 6256.4, 6273.1, 6289.8, 6306.6, 6323.8, 6339.7, 6356.4, 6373.2, 6390, 6406.5, 6423.3, 6440.4, 6456.6, 6473.2, 6490, 6506.6, 6523.5, 6540.2, 6556.9, 6573.6, 6590.2, 6607, 6623.6, 6640.2, 6656.9, 6673.6, 6690.3, 6707, 6723.7, 6740.5, 6757, 6773.7, 6790.4, 6807, 6823.6, 6840.4, 6857.2, 6874.1, 6890.9, 6907.5, 6924.2, 6940.9, 6957.5, 6974.2, 6991, 7007.6, 7024.2, 7041, 7057.4, 7074.3, 7090.9, 7107.5, 7124.2, 7140.9, 7157.8, 7174.5, 7191.1, 7208, 7224.4, 7241.1, 7257.8, 7274.4, 7291.1, 7307.8, 7324.5, 7341.1, 7357.8, 7374.5, 7391.3, 7407.9, 7424.5, 7441.6, 7458, 7474.6, 7491.3, 7507.9, 7524.7, 7541.4, 7558, 7574.7, 7591.3, 7608.1, 7624.8, 7641.5, 7658.4, 7675, 7691.6, 7708.4, 7725.2, 7741.8, 7758.4, 7774.9, 7791.7, 7808.4, 7825, 7841.4, 7858, 7874.5, 7891.3, 7907.9, 7924.6, 7941.4, 7958, 7974.8, 7991.3, 8008.1, 8024.7, 8041.4, 8058.1, 8074.9, 8091.6, 8108.1, 8124.9, 8141.6, 8158.3, 8174.9, 8191.5, 8208.4, 8225.1, 8241.8, 8258.4, 8275.1, 8291.8, 8311.1, 8330.9, 8341.7, 8358.4, 8375.3, 8391.9, 8408.5, 8425.2, 8442, 8458.5, 8475.3, 8492.1, 8508.7, 8525.3, 8542.1, 8558.7, 8575.5, 8592.1, 8608.8]","[1.6, 0.8, 14, 16.7, 16.9, 16.5, 16.7, 16.5, 17.2, 16.7, 16.7, 16.6, 16.6, 16.7, 16.7, 16.7, 17, 16.3, 16.7, 16.7, 16.5, 16.7, 16.8, 17, 16.5, 16.8, 16.3, 16.7, 16.5, 16.7, 16.6, 16.7, 16.7, 18, 15.6, 16.7, 16.7, 16.7, 16.6, 16.7, 16.5, 16.9, 16.5, 34.4, 0.3, 15.3, 16.8, 16.7, 16.6, 16.7, 16.5, 16.7, 16.7, 16.8, 16.7, 16.6, 16.8, 16.7, 16.6, 16.7, 16.7, 16.7, 16.7, 16.6, 17.1, 16.6, 16.4, 16.8, 16.6, 16.5, 16.8, 16.8, 16.5, 16.8, 16.6, 16.7, 16.7, 16.7, 16.8, 16.7, 16.6, 16.7, 16.7, 16.7, 16.7, 16.7, 16.5, 16.8, 17.1, 16.6, 16.5, 16.8, 16.6, 16.9, 16.7, 16.7, 16.5, 16.7, 16.8, 16.8, 16, 16.8, 16.8, 16.5, 16.7, 16.8, 16.7, 16.7, 16.5, 16.9, 16.5, 17.1, 16.9, 16.3, 16.7, 16.8, 16.7, 16.9, 16.3, 16.9, 16.6, 16.7, 16.6, 16.7, 16.7, 16.7, 16.9, 16.4, 16.8, 16.7, 16.7, 16.6, 16.8, 16.8, 16.9, 16.5, 16.7, 16.7, 16.4, 16.6, 17, 16.8, 16.6, 16.6, 16.4, 16.4, 16.7, 16.6, 16.8, 16.6, 17, 16.5, 16.7, 16.5, 16.7, 16.8, 16.8, 16.6, 16.7, 16.7, 16.7, 16.8, 17.2, 15.9, 16.7, 16.8, 16.8, 16.5, 16.8, 17.1, 16.2, 16.6, 16.8, 16.6, 16.9, 16.7, 16.7, 16.7, 16.6, 16.8, 16.6, 16.6, 16.7, 16.7, 16.7, 16.7, 16.7, 16.8, 16.5, 16.7, 16.7, 16.6, 16.6, 16.8, 16.8, 16.9, 16.8, 16.6, 16.7, 16.7, 16.6, 16.7, 16.8, 16.6, 16.6, 16.8, 16.4, 16.9, 16.6, 16.6, 16.7, 16.7, 16.9, 16.7, 16.6, 16.9, 16.4, 16.7, 16.7, 16.6, 16.7, 16.7, 16.7, 16.6, 16.7, 16.7, 16.8, 16.6, 16.6, 17.1, 16.4, 16.6, 16.7, 16.6, 16.8, 16.7, 16.6, 16.7, 16.6, 16.8, 16.7, 16.7, 16.9, 16.6, 16.6, 16.8, 16.8, 16.6, 16.6, 16.5, 16.8, 16.7, 16.6, 16.4, 16.6, 16.5, 16.8, 16.6, 16.7, 16.8, 16.6, 16.8, 16.5, 16.8, 16.6, 16.7, 16.7, 16.8, 16.7, 16.5, 16.8, 16.7, 16.7, 16.6, 16.6, 16.9, 16.7, 16.7, 16.6, 16.7, 16.7, 19.3, 19.8, 10.8, 16.7, 16.9, 16.6, 16.6, 16.7, 16.8, 16.5, 16.8, 16.8, 16.6, 16.6, 16.8, 16.6, 16.8, 16.6, 16.7]",60.0,60.0,60.0,4988.0,[],,,,,,,,,,,,,,,,,,,,,,,,,HRV,HRV_0096,2022-11-30 18:13:16
,wl-html-keyboard-response,2,27952,0.0-2.0-0.0,0.0,3.0,,,,,,,,17721.0,0.0,0,,,,,,,,,,,,,,,,,,,,,,HRV,HRV_0096,2022-11-30 18:13:16
,wl-rdm,3,35643,0.0-3.0-0.0,0.0,4.0,,,,,,,[],,,,0.0,0.0,87.9,0.0,u,0.0,True,2115.89999999851,127.0,60.0,40.0,False,,3000.0,[],"[960, 540]",ColorTask_Demo,,,,,HRV,HRV_0096,2022-11-30 18:13:16
,wl-rdm,4,40515,0.0-3.0-1.0,0.0,5.0,,,,,,,[],,,,0.0,0.0,87.9,1.0,i,1.0,True,801.8999999985099,49.0,60.0,40.0,False,,2000.0,[],"[960, 540]",ColorTask_Demo,,,,,HRV,HRV_0096,2022-11-30 18:13:16
,wl-html-keyboard-response,5,47636,0.0-3.0-2.0,0.0,6.0,,,,,,,,5113.0999999996275,0.0,1,,,,,,,,,,,,,,,,,,,,,,HRV,HRV_0096,2022-11-30 18:13:16
,wl-html-keyboard-response,6,55411,0.0-4.0-0.0,0.0,7.0,,,,,,,,5766.0999999996275,0.0,0,,,,,,,,,,,,,,,,,,,,,,HRV,HRV_0096,2022-11-30 18:13:16
,wl-html-keyboard-response,7,74283,0.0-5.0-0.0,0.0,8.0,,,,,,,,16866.099999999627,0.0,0,,,,,,,,,,,,,,,,,,,,,,HRV,HRV_0096,2022-11-30 18:13:16
,wl-rdm,8,76885,0.0-6.0-0.0,0.0,9.0,,,,,,,[],,,,,,56.4,0.0,u,0.0,True,1208.5,73.0,60.0,40.0,False,,321.73562593281883,[],"[960, 540]",ColorTask,1.0,1.0,,,HRV,HRV_0096,2022-11-30 18:13:16
,wl-rdm,9,79154,0.0-6.1-0.1,0.0,10.0,,,,,,,[],,,,,,56.4,1.0,i,1.0,True,927.5999999996275,56.0,60.0,40.0,False,,277.46552087992495,[],"[960, 540]",ColorTask,2.0,2.0,,,HRV,HRV_0096,2022-11-30 18:13:16
,wl-rdm,10,81740,0.0-6.2-0.2,0.0,11.0,,,,,,,[],,,,,,56.4,1.0,i,1.0,True,1199.699999999255,72.0,60.0,40.0,False,,322.25705439395574,[],"[960, 540]",ColorTask,3.0,3.0,,,HRV,HRV_0096,2022-11-30 18:13:16
,wl-rdm,11,84009,0.0-6.3-0.3,0.0,12.0,,,,,,,[],,,,,,56.4,0.0,u,0.0,True,994.5999999996275,60.0,60.0,40.0,False,,212.02774751518277,[],"[960, 540]",ColorTask,4.0,4.0,,,HRV,HRV_0096,2022-11-30 18:13:16
,wl-rdm,12,86178,0.0-6.4-0.4,0.0,13.0,,,,,,,[],,,,,,50.0,0.0,i,1.0,False,769.5999999996275,47.0,60.0,40.0,False,,321.48395239485336,[],"[960, 540]",ColorTask,3.0,5.0,,,HRV,HRV_0096,2022-11-30 18:13:16
,wl-rdm,13,88413,0.0-6.5-0.5,0.0,14.0,,,,,,,[],,,,,,62.5,1.0,i,1.0,True,958.0,58.0,60.0,40.0,False,,211.11234847089153,[],"[960, 540]",ColorTask,4.0,6.0,,,HRV,HRV_0096,2022-11-30 18:13:16
,wl-rdm,14,90648,0.0-6.6-0.6,0.0,15.0,,,,,,,[],,,,,,87.9,0.0,u,0.0,True,962.0999999996275,58.0,60.0,40.0,False,,212.59362679498622,[],"[960, 540]",ColorTask,5.0,7.0,,,HRV,HRV_0096,2022-11-30 18:13:16
,wl-rdm,15,92934,0.0-6.7-0.7,0.0,16.0,,,,,,,[],,,,,,53.2,0.0,i,1.0,False,865.1999999992549,52.0,60.0,40.0,False,,349.5803321435995,[],"[960, 540]",ColorTask,4.0,8.0,,,HRV,HRV_0096,2022-11-30 18:13:16
,wl-rdm,16,95403,0.0-6.8-0.8,0.0,17.0,,,,,,,[],,,,,,56.4,1.0,i,1.0,True,1036.2999999988824,63.0,60.0,40.0,False,,361.4746560280377,[],"[960, 540]",ColorTask,5.0,9.0,,,HRV,HRV_0096,2022-11-30 18:13:16
,wl-rdm,17,97539,0.0-6.9-0.9,0.0,18.0,,,,,,,[],,,,,,73.6,1.0,i,1.0,True,768.1999999992549,47.0,60.0,40.0,False,,289.66781074790987,[],"[960, 540]",ColorTask,6.0,10.0,,,HRV,HRV_0096,2022-11-30 18:13:16
,wl-rdm,18,99808,0.0-6.10-0.10,0.0,19.0,,,,,,,[],,,,,,62.5,1.0,i,1.0,True,912.0999999996275,55.0,60.0,40.0,False,,289.2183915705824,[],"[960, 540]",ColorTask,7.0,11.0,,,HRV,HRV_0096,2022-11-30 18:13:16
,wl-rdm,19,102294,0.0-6.11-0.11,0.0,20.0,,,,,,,[],,,,,,53.2,1.0,u,0.0,False,1123.7999999988824,68.0,60.0,40.0,False,,284.2677531264576,[],"[960, 540]",ColorTask,6.0,12.0,,,HRV,HRV_0096,2022-11-30 18:13:16
,wl-rdm,20,104530,0.0-6.12-0.12,0.0,21.0,,,,,,,[],,,,,,50.0,0.0,i,1.0,False,927.7000000011176,56.0,60.0,40.0,False,,243.7605512942381,[],"[960, 540]",ColorTask,5.0,13.0,,,HRV,HRV_0096,2022-11-30 18:13:16
,wl-rdm,21,107148,0.0-6.13-0.13,0.0,22.0,,,,,,,[],,,,,,62.5,0.0,i,1.0,False,1324.699999999255,80.0,60.0,40.0,False,,220.19676822648535,[],"[960, 540]",ColorTask,4.0,14.0,,,HRV,HRV_0096,2022-11-30 18:13:16
,wl-rdm,22,109551,0.0-6.14-0.14,0.0,23.0,,,,,,,[],,,,,,53.2,1.0,u,0.0,False,1096.0999999996275,66.0,60.0,40.0,False,,245.7662148476255,[],"[960, 540]",ColorTask,3.0,15.0,,,HRV,HRV_0096,2022-11-30 18:13:16
,wl-rdm,23,111603,0.0-6.15-0.15,0.0,24.0,,,,,,,[],,,,,,87.9,0.0,u,0.0,True,783.4000000003725,47.0,60.0,40.0,False,,208.90505207049543,[],"[960, 540]",ColorTask,4.0,16.0,,,HRV,HRV_0096,2022-11-30 18:13:16
,wl-rdm,24,113688,0.0-6.16-0.16,0.0,25.0,,,,,,,[],,,,,,73.6,1.0,i,1.0,True,786.5,48.0,60.0,40.0,False,,217.28504953783968,[],"[960, 540]",ColorTask,5.0,17.0,,,HRV,HRV_0096,2022-11-30 18:13:16
,wl-rdm,25,116458,0.0-6.17-0.17,0.0,26.0,,,,,,,[],,,,,,50.0,1.0,u,0.0,False,1310.7000000011176,79.0,60.0,40.0,False,,393.9327466003294,[],"[960, 540]",ColorTask,4.0,18.0,,,HRV,HRV_0096,2022-11-30 18:13:16
,wl-rdm,26,119094,0.0-6.18-0.18,0.0,27.0,,,,,,,[],,,,,,53.2,0.0,u,0.0,True,1265.800000000745,76.0,60.0,40.0,False,,300.40086776782283,[],"[960, 540]",ColorTask,5.0,19.0,,,HRV,HRV_0096,2022-11-30 18:13:16
,wl-rdm,27,121330,0.0-6.19-0.19,0.0,28.0,,,,,,,[],,,,,,73.6,0.0,u,0.0,True,928.0,56.0,60.0,40.0,False,,243.15532330417508,[],"[960, 540]",ColorTask,6.0,20.0,,,HRV,HRV_0096,2022-11-30 18:13:16
,wl-rdm,28,123415,0.0-6.20-0.20,0.0,29.0,,,,,,,[],,,,,,53.2,0.0,i,1.0,False,795.0999999996275,48.0,60.0,40.0,False,,218.71718125220372,[],"[960, 540]",ColorTask,5.0,21.0,,,HRV,HRV_0096,2022-11-30 18:13:16
,wl-rdm,29,125417,0.0-6.21-0.21,0.0,30.0,,,,,,,[],,,,,,87.9,1.0,i,1.0,True,669.6999999992549,41.0,60.0,40.0,False,,260.6387473186878,[],"[960, 540]",ColorTask,6.0,22.0,,,HRV,HRV_0096,2022-11-30 18:13:16
,wl-rdm,30,127436,0.0-6.22-0.22,0.0,31.0,,,,,,,[],,,,,,73.6,0.0,u,0.0,True,742.2000000011176,45.0,60.0,40.0,False,,216.87158584617504,[],"[960, 540]",ColorTask,7.0,23.0,,,HRV,HRV_0096,2022-11-30 18:13:16
,wl-rdm,31,129805,0.0-6.23-0.23,0.0,32.0,,,,,,,[],,,,,,53.2,1.0,i,1.0,True,958.8999999985099,58.0,60.0,40.0,False,,334.7770363502511,[],"[960, 540]",ColorTask,8.0,24.0,,,HRV,HRV_0096,2022-11-30 18:13:16
,wl-rdm,32,132007,0.0-6.24-0.24,0.0,33.0,,,,,,,[],,,,,,62.5,0.0,u,0.0,True,788.9000000003725,48.0,60.0,40.0,False,,346.9477677302957,[],"[960, 540]",ColorTask,9.0,25.0,,,HRV,HRV_0096,2022-11-30 18:13:16
,wl-rdm,33,134293,0.0-6.25-0.25,0.0,34.0,,,,,,,[],,,,,,73.6,0.0,u,0.0,True,941.7000000011176,57.0,60.0,40.0,False,,282.4671043938471,[],"[960, 540]",ColorTask,10.0,26.0,,,HRV,HRV_0096,2022-11-30 18:13:16
,wl-rdm,34,136996,0.0-6.26-0.26,0.0,35.0,,,,,,,[],,,,,,56.4,0.0,i,1.0,False,1342.7999999988824,81.0,60.0,40.0,False,,290.9518217264342,[],"[960, 540]",ColorTask,9.0,27.0,,,HRV,HRV_0096,2022-11-30 18:13:16
,wl-rdm,35,139217,0.0-6.27-0.27,0.0,36.0,,,,,,,[],,,,,,50.0,1.0,u,0.0,False,830.4000000003725,50.0,60.0,40.0,False,,349.9139263555621,[],"[960, 540]",ColorTask,8.0,28.0,,,HRV,HRV_0096,2022-11-30 18:13:16
,wl-rdm,36,141516,0.0-6.28-0.28,0.0,37.0,,,,,,,[],,,,,,73.6,0.0,u,0.0,True,941.0999999996275,57.0,60.0,40.0,False,,283.7861945829501,[],"[960, 540]",ColorTask,9.0,29.0,,,HRV,HRV_0096,2022-11-30 18:13:16
,wl-rdm,37,143952,0.0-6.29-0.29,0.0,38.0,,,,,,,[],,,,,,56.4,1.0,i,1.0,True,1128.5999999996275,68.0,60.0,40.0,False,,240.50140200215165,[],"[960, 540]",ColorTask,10.0,30.0,,,HRV,HRV_0096,2022-11-30 18:13:16
,wl-rdm,38,146188,0.0-6.30-0.30,0.0,39.0,,,,,,,[],,,,,,73.6,1.0,i,1.0,True,874.5999999996275,53.0,60.0,40.0,False,,295.31617367692155,[],"[960, 540]",ColorTask,11.0,31.0,,,HRV,HRV_0096,2022-11-30 18:13:16
,wl-rdm,39,148507,0.0-6.31-0.31,0.0,40.0,,,,,,,[],,,,,,50.0,0.0,u,0.0,True,1017.8000000007451,62.0,60.0,40.0,False,,225.5443092976092,[],"[960, 540]",ColorTask,12.0,32.0,,,HRV,HRV_0096,2022-11-30 18:13:16
,wl-rdm,40,151276,0.0-6.32-0.32,0.0,41.0,,,,,,,[],,,,,,53.2,0.0,i,1.0,False,1366.9000000003725,82.0,60.0,40.0,False,,350.516454663323,[],"[960, 540]",ColorTask,11.0,33.0,,,HRV,HRV_0096,2022-11-30 18:13:16
,wl-rdm,41,153511,0.0-6.33-0.33,0.0,42.0,,,,,,,[],,,,,,73.6,0.0,u,0.0,True,887.8000000007451,54.0,60.0,40.0,False,,277.9944878037668,[],"[960, 540]",ColorTask,12.0,34.0,,,HRV,HRV_0096,2022-11-30 18:13:16
,wl-rdm,42,155663,0.0-6.34-0.34,0.0,43.0,,,,,,,[],,,,,,62.5,0.0,u,0.0,True,878.2000000011176,53.0,60.0,40.0,False,,204.3645475592074,[],"[960, 540]",ColorTask,13.0,35.0,,,HRV,HRV_0096,2022-11-30 18:13:16
,wl-rdm,43,157882,0.0-6.35-0.35,0.0,44.0,,,,,,,[],,,,,,62.5,1.0,i,1.0,True,809.0999999996275,49.0,60.0,40.0,False,,340.49377352854094,[],"[960, 540]",ColorTask,14.0,36.0,,,HRV,HRV_0096,2022-11-30 18:13:16
,wl-rdm,44,160168,0.0-6.36-0.36,0.0,45.0,,,,,,,[],,,,,,53.2,1.0,i,1.0,True,903.5,55.0,60.0,40.0,False,,304.9639110918207,[],"[960, 540]",ColorTask,15.0,37.0,,,HRV,HRV_0096,2022-11-30 18:13:16
,wl-rdm,45,162353,0.0-6.37-0.37,0.0,46.0,,,,,,,[],,,,,,87.9,0.0,u,0.0,True,808.8000000007451,49.0,60.0,40.0,False,,315.0032610945194,[],"[960, 540]",ColorTask,16.0,38.0,,,HRV,HRV_0096,2022-11-30 18:13:16
,wl-rdm,46,164606,0.0-6.38-0.38,0.0,47.0,,,,,,,[],,,,,,87.9,0.0,u,0.0,True,797.4000000003725,48.0,60.0,40.0,False,,399.9000924389136,[],"[960, 540]",ColorTask,17.0,39.0,,,HRV,HRV_0096,2022-11-30 18:13:16
,wl-rdm,47,166958,0.0-6.39-0.39,0.0,48.0,,,,,,,[],,,,,,62.5,1.0,i,1.0,True,947.3999999985099,57.0,60.0,40.0,False,,344.2702706034458,[],"[960, 540]",ColorTask,18.0,40.0,,,HRV,HRV_0096,2022-11-30 18:13:16
,wl-rdm,48,169027,0.0-6.40-0.40,0.0,49.0,,,,,,,[],,,,,,62.5,0.0,u,0.0,True,759.3999999985099,46.0,60.0,40.0,False,,250.16221524711366,[],"[960, 540]",ColorTask,19.0,41.0,,,HRV,HRV_0096,2022-11-30 18:13:16
,wl-rdm,49,171212,0.0-6.41-0.41,0.0,50.0,,,,,,,[],,,,,,56.4,1.0,i,1.0,True,799.0999999996275,48.0,60.0,40.0,False,,317.24063662274006,[],"[960, 540]",ColorTask,20.0,42.0,,,HRV,HRV_0096,2022-11-30 18:13:16
,wl-rdm,50,173781,0.0-6.42-0.42,0.0,51.0,,,,,,,[],,,,,,62.5,1.0,i,1.0,True,1263.7999999988824,76.0,60.0,40.0,False,,234.85356503577466,[],"[960, 540]",ColorTask,21.0,43.0,,,HRV,HRV_0096,2022-11-30 18:13:16
,wl-rdm,51,175851,0.0-6.43-0.43,0.0,52.0,,,,,,,[],,,,,,87.9,1.0,i,1.0,True,658.9000000003725,40.0,60.0,40.0,False,,341.6957016355946,[],"[960, 540]",ColorTask,22.0,44.0,,,HRV,HRV_0096,2022-11-30 18:13:16
,wl-rdm,52,177836,0.0-6.44-0.44,0.0,53.0,,,,,,,[],,,,,,73.6,0.0,u,0.0,True,699.1999999992549,42.0,60.0,40.0,False,,229.12479001474117,[],"[960, 540]",ColorTask,23.0,45.0,,,HRV,HRV_0096,2022-11-30 18:13:16
,wl-rdm,53,179837,0.0-6.45-0.45,0.0,54.0,,,,,,,[],,,,,,73.6,1.0,i,1.0,True,630.4999999981374,38.0,60.0,40.0,False,,302.31270281893023,[],"[960, 540]",ColorTask,24.0,46.0,,,HRV,HRV_0096,2022-11-30 18:13:16
,wl-rdm,54,182107,0.0-6.46-0.46,0.0,55.0,,,,,,,[],,,,,,56.4,1.0,i,1.0,True,941.8000000007451,57.0,60.0,40.0,False,,254.73280399716796,[],"[960, 540]",ColorTask,25.0,47.0,,,HRV,HRV_0096,2022-11-30 18:13:16
,wl-rdm,55,184209,0.0-6.47-0.47,0.0,56.0,,,,,,,[],,,,,,73.6,0.0,u,0.0,True,676.8000000007451,41.0,60.0,40.0,False,,351.0154540940686,[],"[960, 540]",ColorTask,26.0,48.0,,,HRV,HRV_0096,2022-11-30 18:13:16
,wl-rdm,56,186228,0.0-6.48-0.48,0.0,57.0,,,,,,,[],,,,,,73.6,1.0,i,1.0,True,709.3000000007451,43.0,60.0,40.0,False,,246.0317706991753,[],"[960, 540]",ColorTask,27.0,49.0,,,HRV,HRV_0096,2022-11-30 18:13:16
,wl-rdm,57,188163,0.0-6.49-0.49,0.0,58.0,,,,,,,[],,,,,,73.6,1.0,i,1.0,True,650.5999999996275,39.0,60.0,40.0,False,,225.58446357684127,[],"[960, 540]",ColorTask,28.0,50.0,,,HRV,HRV_0096,2022-11-30 18:13:16
,wl-rdm,58,190515,0.0-6.50-0.50,0.0,59.0,,,,,,,[],,,,,,56.4,1.0,i,1.0,True,986.0,60.0,60.0,40.0,False,,287.54386562160425,[],"[960, 540]",ColorTask,29.0,51.0,,,HRV,HRV_0096,2022-11-30 18:13:16
,wl-rdm,59,192467,0.0-6.51-0.51,0.0,60.0,,,,,,,[],,,,,,87.9,1.0,i,1.0,True,625.6999999992549,38.0,60.0,40.0,False,,262.3941831235753,[],"[960, 540]",ColorTask,30.0,52.0,,,HRV,HRV_0096,2022-11-30 18:13:16
,wl-rdm,60,194602,0.0-6.52-0.52,0.0,61.0,,,,,,,[],,,,,,53.2,0.0,u,0.0,True,833.9999999981374,50.0,60.0,40.0,False,,249.59115541433675,[],"[960, 540]",ColorTask,31.0,53.0,,,HRV,HRV_0096,2022-11-30 18:13:16
,wl-rdm,61,196554,0.0-6.53-0.53,0.0,62.0,,,,,,,[],,,,,,87.9,0.0,u,0.0,True,652.3000000007451,40.0,60.0,40.0,False,,224.15934331464035,[],"[960, 540]",ColorTask,32.0,54.0,,,HRV,HRV_0096,2022-11-30 18:13:16
,wl-rdm,62,198790,0.0-6.54-0.54,0.0,63.0,,,,,,,[],,,,,,53.2,1.0,u,0.0,False,864.1999999992549,52.0,60.0,40.0,False,,311.4863588941368,[],"[960, 540]",ColorTask,31.0,55.0,,,HRV,HRV_0096,2022-11-30 18:13:16
,wl-rdm,63,200992,0.0-6.55-0.55,0.0,64.0,,,,,,,[],,,,,,50.0,0.0,i,1.0,False,879.4000000003725,53.0,60.0,40.0,False,,247.6918412015078,[],"[960, 540]",ColorTask,30.0,56.0,,,HRV,HRV_0096,2022-11-30 18:13:16
,wl-rdm,64,203311,0.0-6.56-0.56,0.0,65.0,,,,,,,[],,,,,,50.0,0.0,u,0.0,True,929.0,56.0,60.0,40.0,False,,322.3713046231722,[],"[960, 540]",ColorTask,31.0,57.0,,,HRV,HRV_0096,2022-11-30 18:13:16
,wl-rdm,65,205914,0.0-6.57-0.57,0.0,66.0,,,,,,,[],,,,,,62.5,1.0,i,1.0,True,1193.699999999255,72.0,60.0,40.0,False,,348.47553623609474,[],"[960, 540]",ColorTask,32.0,58.0,,,HRV,HRV_0096,2022-11-30 18:13:16
,wl-rdm,66,208350,0.0-6.58-0.58,0.0,67.0,,,,,,,[],,,,,,53.2,0.0,u,0.0,True,1157.199999999255,70.0,60.0,40.0,False,,201.47061435225038,[],"[960, 540]",ColorTask,33.0,59.0,,,HRV,HRV_0096,2022-11-30 18:13:16
,wl-rdm,67,210519,0.0-6.59-0.59,0.0,68.0,,,,,,,[],,,,,,62.5,0.0,u,0.0,True,730.0,44.0,60.0,40.0,False,,379.6590388017131,[],"[960, 540]",ColorTask,34.0,60.0,,,HRV,HRV_0096,2022-11-30 18:13:16
,wl-rdm,68,213021,0.0-6.60-0.60,0.0,69.0,,,,,,,[],,,,,,62.5,1.0,i,1.0,True,1140.5,69.0,60.0,40.0,False,,269.9881675090737,[],"[960, 540]",ColorTask,35.0,61.0,,,HRV,HRV_0096,2022-11-30 18:13:16
,wl-rdm,69,215390,0.0-6.61-0.61,0.0,70.0,,,,,,,[],,,,,,50.0,0.0,u,0.0,True,1088.9000000003725,66.0,60.0,40.0,False,,208.9354022396239,[],"[960, 540]",ColorTask,36.0,62.0,,,HRV,HRV_0096,2022-11-30 18:13:16
,wl-rdm,70,217810,0.0-6.62-0.62,0.0,71.0,,,,,,,[],,,,,,53.2,1.0,u,0.0,False,1102.800000000745,67.0,60.0,40.0,False,,245.69529725050876,[],"[960, 540]",ColorTask,35.0,63.0,,,HRV,HRV_0096,2022-11-30 18:13:16
,wl-rdm,71,219945,0.0-6.63-0.63,0.0,72.0,,,,,,,[],,,,,,73.6,1.0,i,1.0,True,728.6999999992549,44.0,60.0,40.0,False,,342.49423844687715,[],"[960, 540]",ColorTask,36.0,64.0,,,HRV,HRV_0096,2022-11-30 18:13:16
,wl-rdm,72,222247,0.0-6.64-0.64,0.0,73.0,,,,,,,[],,,,,,56.4,0.0,i,1.0,False,1005.0999999996275,61.0,60.0,40.0,False,,231.86236624705234,[],"[960, 540]",ColorTask,35.0,65.0,,,HRV,HRV_0096,2022-11-30 18:13:16
,wl-rdm,73,224699,0.0-6.65-0.65,0.0,74.0,,,,,,,[],,,,,,53.2,0.0,u,0.0,True,1001.0999999996275,60.0,60.0,40.0,False,,373.3244996590055,[],"[960, 540]",ColorTask,36.0,66.0,,,HRV,HRV_0096,2022-11-30 18:13:16
,wl-rdm,74,226885,0.0-6.66-0.66,0.0,75.0,,,,,,,[],,,,,,62.5,0.0,i,1.0,False,881.5000000018626,53.0,60.0,40.0,False,,247.986117899828,[],"[960, 540]",ColorTask,35.0,67.0,,,HRV,HRV_0096,2022-11-30 18:13:16
,wl-rdm,75,229805,0.0-6.67-0.67,0.0,76.0,,,,,,,[],,,,,,50.0,1.0,u,0.0,False,1591.199999999255,96.0,60.0,40.0,False,,264.6850029169428,[],"[960, 540]",ColorTask,34.0,68.0,,,HRV,HRV_0096,2022-11-30 18:13:16
,wl-rdm,76,231874,0.0-6.68-0.68,0.0,77.0,,,,,,,[],,,,,,62.5,1.0,i,1.0,True,743.4000000003725,45.0,60.0,40.0,False,,264.3386326037658,[],"[960, 540]",ColorTask,35.0,69.0,,,HRV,HRV_0096,2022-11-30 18:13:16
,wl-rdm,77,234109,0.0-6.69-0.69,0.0,78.0,,,,,,,[],,,,,,56.4,0.0,u,0.0,True,931.7999999988824,56.0,60.0,40.0,False,,236.15729485426863,[],"[960, 540]",ColorTask,36.0,70.0,,,HRV,HRV_0096,2022-11-30 18:13:16
,wl-rdm,78,236511,0.0-6.70-0.70,0.0,79.0,,,,,,,[],,,,,,56.4,0.0,u,0.0,True,1063.3999999985099,64.0,60.0,40.0,False,,269.6586646996875,[],"[960, 540]",ColorTask,37.0,71.0,,,HRV,HRV_0096,2022-11-30 18:13:16
,wl-rdm,79,239181,0.0-6.71-0.71,0.0,80.0,,,,,,,[],,,,,,56.4,1.0,i,1.0,True,1299.0,78.0,60.0,40.0,False,,300.78304591181217,[],"[960, 540]",ColorTask,38.0,72.0,,,HRV,HRV_0096,2022-11-30 18:13:16
,wl-rdm,80,241283,0.0-6.72-0.72,0.0,81.0,,,,,,,[],,,,,,73.6,1.0,i,1.0,True,642.0999999996275,39.0,60.0,40.0,False,,398.0244979895821,[],"[960, 540]",ColorTask,39.0,73.0,,,HRV,HRV_0096,2022-11-30 18:13:16
,wl-rdm,81,243585,0.0-6.73-0.73,0.0,82.0,,,,,,,[],,,,,,53.2,0.0,u,0.0,True,835.9000000003725,51.0,60.0,40.0,False,,398.0978319410041,[],"[960, 540]",ColorTask,40.0,74.0,,,HRV,HRV_0096,2022-11-30 18:13:16
,wl-rdm,82,245688,0.0-6.74-0.74,0.0,83.0,,,,,,,[],,,,,,87.9,1.0,i,1.0,True,654.7000000011176,40.0,60.0,40.0,False,,379.53313616793,[],"[960, 540]",ColorTask,41.0,75.0,,,HRV,HRV_0096,2022-11-30 18:13:16
,wl-rdm,83,248139,0.0-6.75-0.75,0.0,84.0,,,,,,,[],,,,,,62.5,0.0,u,0.0,True,1086.699999999255,66.0,60.0,40.0,False,,269.6890055234044,[],"[960, 540]",ColorTask,42.0,76.0,,,HRV,HRV_0096,2022-11-30 18:13:16
,wl-rdm,84,250258,0.0-6.76-0.76,0.0,85.0,,,,,,,[],,,,,,87.9,1.0,i,1.0,True,701.5,43.0,60.0,40.0,False,,337.3955075031188,[],"[960, 540]",ColorTask,43.0,77.0,,,HRV,HRV_0096,2022-11-30 18:13:16
,wl-rdm,85,252244,0.0-6.77-0.77,0.0,86.0,,,,,,,[],,,,,,87.9,0.0,u,0.0,True,691.9999999981374,42.0,60.0,40.0,False,,221.0377715256754,[],"[960, 540]",ColorTask,44.0,78.0,,,HRV,HRV_0096,2022-11-30 18:13:16
,wl-rdm,86,254329,0.0-6.78-0.78,0.0,87.0,,,,,,,[],,,,,,87.9,1.0,i,1.0,True,677.5999999996275,41.0,60.0,40.0,False,,339.5975303443994,[],"[960, 540]",ColorTask,45.0,79.0,,,HRV,HRV_0096,2022-11-30 18:13:16
,wl-rdm,87,256698,0.0-6.79-0.79,0.0,88.0,,,,,,,[],,,,,,56.4,0.0,u,0.0,True,1001.4000000003725,61.0,60.0,40.0,False,,289.7724178275578,[],"[960, 540]",ColorTask,46.0,80.0,,,HRV,HRV_0096,2022-11-30 18:13:16
,wl-rdm,88,258650,0.0-6.80-0.80,0.0,89.0,,,,,,,[],,,,,,87.9,0.0,u,0.0,True,650.8999999985099,40.0,60.0,40.0,False,,222.18067109448606,[],"[960, 540]",ColorTask,47.0,81.0,,,HRV,HRV_0096,2022-11-30 18:13:16
,wl-rdm,89,261170,0.0-6.81-0.81,0.0,90.0,,,,,,,[],,,,,,50.0,1.0,u,0.0,False,1069.1000000014901,65.0,60.0,40.0,False,,380.1758116893988,[],"[960, 540]",ColorTask,46.0,82.0,,,HRV,HRV_0096,2022-11-30 18:13:16
,wl-rdm,90,263605,0.0-6.82-0.82,0.0,91.0,,,,,,,[],,,,,,50.0,1.0,u,0.0,False,1132.0999999996275,68.0,60.0,40.0,False,,249.9299883470243,[],"[960, 540]",ColorTask,45.0,83.0,,,HRV,HRV_0096,2022-11-30 18:13:16
,wl-rdm,91,265975,0.0-6.83-0.83,0.0,92.0,,,,,,,[],,,,,,62.5,0.0,u,0.0,True,1056.5,64.0,60.0,40.0,False,,249.02828111652468,[],"[960, 540]",ColorTask,46.0,84.0,,,HRV,HRV_0096,2022-11-30 18:13:16
,wl-rdm,92,268393,0.0-6.84-0.84,0.0,93.0,,,,,,,[],,,,,,56.4,1.0,u,0.0,False,1062.0,64.0,60.0,40.0,False,,272.76321924570743,[],"[960, 540]",ColorTask,45.0,85.0,,,HRV,HRV_0096,2022-11-30 18:13:16
,wl-rdm,93,270629,0.0-6.85-0.85,0.0,94.0,,,,,,,[],,,,,,50.0,1.0,i,1.0,True,897.8000000007451,54.0,60.0,40.0,False,,276.55174289491185,[],"[960, 540]",ColorTask,46.0,86.0,,,HRV,HRV_0096,2022-11-30 18:13:16
,wl-rdm,94,272814,0.0-6.86-0.86,0.0,95.0,,,,,,,[],,,,,,73.6,0.0,u,0.0,True,788.3000000007451,48.0,60.0,40.0,False,,322.87403791468336,[],"[960, 540]",ColorTask,47.0,87.0,,,HRV,HRV_0096,2022-11-30 18:13:16
,wl-rdm,95,275284,0.0-6.87-0.87,0.0,96.0,,,,,,,[],,,,,,53.2,0.0,i,1.0,False,1042.4000000003725,63.0,60.0,40.0,False,,366.1365370861648,[],"[960, 540]",ColorTask,46.0,88.0,,,HRV,HRV_0096,2022-11-30 18:13:16
,wl-rdm,96,277819,0.0-6.88-0.88,0.0,97.0,,,,,,,[],,,,,,53.2,1.0,u,0.0,False,1142.7000000011176,69.0,60.0,40.0,False,,322.4871983383633,[],"[960, 540]",ColorTask,45.0,89.0,,,HRV,HRV_0096,2022-11-30 18:13:16
,wl-rdm,97,279888,0.0-6.89-0.89,0.0,98.0,,,,,,,[],,,,,,87.9,1.0,i,1.0,True,754.4000000003725,46.0,60.0,40.0,False,,236.35092735765454,[],"[960, 540]",ColorTask,46.0,90.0,,,HRV,HRV_0096,2022-11-30 18:13:16
,wl-rdm,98,282057,0.0-6.90-0.90,0.0,99.0,,,,,,,[],,,,,,73.6,1.0,i,1.0,True,878.3999999985099,53.0,60.0,40.0,False,,217.77034665579754,[],"[960, 540]",ColorTask,47.0,91.0,,,HRV,HRV_0096,2022-11-30 18:13:16
,wl-rdm,99,284560,0.0-6.91-0.91,0.0,100.0,,,,,,,[],,,,,,53.2,1.0,i,1.0,True,1220.9000000003725,74.0,60.0,40.0,False,,210.734471137126,[],"[960, 540]",ColorTask,48.0,92.0,,,HRV,HRV_0096,2022-11-30 18:13:16
,wl-rdm,100,287229,0.0-6.92-0.92,0.0,101.0,,,,,,,[],,,,,,50.0,0.0,u,0.0,True,1390.5,84.0,60.0,40.0,False,,210.02023775152333,[],"[960, 540]",ColorTask,49.0,93.0,,,HRV,HRV_0096,2022-11-30 18:13:16
,wl-rdm,101,289782,0.0-6.93-0.93,0.0,102.0,,,,,,,[],,,,,,50.0,0.0,i,1.0,False,1106.699999999255,67.0,60.0,40.0,False,,374.0042448968249,[],"[960, 540]",ColorTask,48.0,94.0,,,HRV,HRV_0096,2022-11-30 18:13:16
,wl-rdm,102,292133,0.0-6.94-0.94,0.0,103.0,,,,,,,[],,,,,,50.0,1.0,u,0.0,False,930.5999999996275,56.0,60.0,40.0,False,,351.161748770699,[],"[960, 540]",ColorTask,47.0,95.0,,,HRV,HRV_0096,2022-11-30 18:13:16
,wl-rdm,103,294436,0.0-6.95-0.95,0.0,104.0,,,,,,,[],,,,,,62.5,0.0,u,0.0,True,1024.2000000011176,62.0,60.0,40.0,False,,210.05879507186984,[],"[960, 540]",ColorTask,48.0,96.0,,,HRV,HRV_0096,2022-11-30 18:13:16
,wl-rdm,104,296771,0.0-6.96-0.96,0.0,105.0,,,,,,,[],,,,,,62.5,1.0,u,0.0,False,915.4000000003725,55.0,60.0,40.0,False,,361.5649022223953,[],"[960, 540]",ColorTask,47.0,97.0,,,HRV,HRV_0096,2022-11-30 18:13:16
,wl-rdm,105,299425,0.0-6.97-0.97,0.0,106.0,,,,,,,[],,,,,,56.4,0.0,i,1.0,False,1220.300000000745,74.0,60.0,40.0,False,,359.84321088981216,[],"[960, 540]",ColorTask,46.0,98.0,,,HRV,HRV_0096,2022-11-30 18:13:16
,wl-rdm,106,301960,0.0-6.98-0.98,0.0,107.0,,,,,,,[],,,,,,50.0,1.0,i,1.0,True,1271.0,77.0,60.0,40.0,False,,200.01602600747182,[],"[960, 540]",ColorTask,47.0,99.0,,,HRV,HRV_0096,2022-11-30 18:13:16
,wl-rdm,107,304262,0.0-6.99-0.99,0.0,108.0,,,,,,,[],,,,,,87.9,0.0,u,0.0,True,871.5999999996275,53.0,60.0,40.0,False,,352.23832629060166,[],"[960, 540]",ColorTask,48.0,100.0,,,HRV,HRV_0096,2022-11-30 18:13:16
,wl-rdm,108,306331,0.0-6.100-0.100,0.0,109.0,,,,,,,[],,,,,,73.6,0.0,u,0.0,True,732.7999999988824,44.0,60.0,40.0,False,,279.3119238818555,[],"[960, 540]",ColorTask,49.0,101.0,,,HRV,HRV_0096,2022-11-30 18:13:16
,wl-rdm,109,308667,0.0-6.101-0.101,0.0,110.0,,,,,,,[],,,,,,50.0,0.0,i,1.0,False,1066.8999999985099,64.0,60.0,40.0,False,,206.09784685975413,[],"[960, 540]",ColorTask,48.0,102.0,,,HRV,HRV_0096,2022-11-30 18:13:16
,wl-rdm,110,311236,0.0-6.102-0.102,0.0,111.0,,,,,,,[],,,,,,53.2,1.0,i,1.0,True,1191.4000000003725,72.0,60.0,40.0,False,,313.70815223082695,[],"[960, 540]",ColorTask,49.0,103.0,,,HRV,HRV_0096,2022-11-30 18:13:16
,wl-rdm,111,313655,0.0-6.103-0.103,0.0,112.0,,,,,,,[],,,,,,50.0,1.0,u,0.0,False,1105.0999999996275,67.0,60.0,40.0,False,,246.89926948015864,[],"[960, 540]",ColorTask,48.0,104.0,,,HRV,HRV_0096,2022-11-30 18:13:16
,wl-rdm,112,315924,0.0-6.104-0.104,0.0,113.0,,,,,,,[],,,,,,87.9,0.0,u,0.0,True,982.5,59.0,60.0,40.0,False,,229.45195572510676,[],"[960, 540]",ColorTask,49.0,105.0,,,HRV,HRV_0096,2022-11-30 18:13:16
,wl-rdm,113,317976,0.0-6.105-0.105,0.0,114.0,,,,,,,[],,,,,,87.9,1.0,i,1.0,True,636.9000000003725,39.0,60.0,40.0,False,,340.8967122150972,[],"[960, 540]",ColorTask,50.0,106.0,,,HRV,HRV_0096,2022-11-30 18:13:16
,wl-rdm,114,320045,0.0-6.106-0.106,0.0,115.0,,,,,,,[],,,,,,87.9,1.0,i,1.0,True,798.6999999992549,48.0,60.0,40.0,False,,202.23337011427344,[],"[960, 540]",ColorTask,51.0,107.0,,,HRV,HRV_0096,2022-11-30 18:13:16
,wl-rdm,115,322447,0.0-6.107-0.107,0.0,116.0,,,,,,,[],,,,,,56.4,0.0,i,1.0,False,1079.4000000003725,65.0,60.0,40.0,False,,258.07007527473843,[],"[960, 540]",ColorTask,50.0,108.0,,,HRV,HRV_0096,2022-11-30 18:13:16
,wl-html-keyboard-response,116,330145,0.0-7.0-0.0,1.0,117.0,,,,,,,,5675.200000001118,1.0,0,,,,,,,,,,,,,,,,,,,,,,HRV,HRV_0096,2022-11-30 18:13:16
,wl-rdm,117,332658,0.0-8.0-0.0,1.0,118.0,,,,,,,[],,,,,,62.5,0.0,u,0.0,True,1126.199999999255,68.0,60.0,40.0,False,,329.8827827606816,[],"[960, 540]",ColorTask,51.0,1.0,,,HRV,HRV_0096,2022-11-30 18:13:16
,wl-rdm,118,334961,0.0-8.1-0.1,1.0,119.0,,,,,,,[],,,,,,73.6,1.0,i,1.0,True,928.1999999992549,56.0,60.0,40.0,False,,311.0244580911673,[],"[960, 540]",ColorTask,52.0,2.0,,,HRV,HRV_0096,2022-11-30 18:13:16
,wl-rdm,119,336996,0.0-8.2-0.2,1.0,120.0,,,,,,,[],,,,,,50.0,1.0,u,0.0,False,742.5,45.0,60.0,40.0,False,,223.17298574766536,[],"[960, 540]",ColorTask,51.0,3.0,,,HRV,HRV_0096,2022-11-30 18:13:16
,wl-rdm,120,339465,0.0-8.3-0.3,1.0,121.0,,,,,,,[],,,,,,56.4,1.0,i,1.0,True,1082.699999999255,66.0,60.0,40.0,False,,314.51986690870643,[],"[960, 540]",ColorTask,52.0,4.0,,,HRV,HRV_0096,2022-11-30 18:13:16
,wl-rdm,121,341784,0.0-8.4-0.4,1.0,122.0,,,,,,,[],,,,,,53.2,1.0,i,1.0,True,896.3000000026077,54.0,60.0,40.0,False,,351.16459216832754,[],"[960, 540]",ColorTask,53.0,5.0,,,HRV,HRV_0096,2022-11-30 18:13:16
,wl-rdm,122,343953,0.0-8.5-0.5,1.0,123.0,,,,,,,[],,,,,,87.9,1.0,i,1.0,True,744.6999999992549,45.0,60.0,40.0,False,,361.98846441956823,[],"[960, 540]",ColorTask,54.0,6.0,,,HRV,HRV_0096,2022-11-30 18:13:16
,wl-rdm,123,346789,0.0-8.6-0.6,1.0,124.0,,,,,,,[],,,,,,56.4,0.0,u,0.0,True,1382.0,83.0,60.0,40.0,False,,391.0663106367474,[],"[960, 540]",ColorTask,55.0,7.0,,,HRV,HRV_0096,2022-11-30 18:13:16
,wl-rdm,124,348891,0.0-8.7-0.7,1.0,125.0,,,,,,,[],,,,,,87.9,1.0,i,1.0,True,693.0,42.0,60.0,40.0,False,,344.03808993620646,[],"[960, 540]",ColorTask,56.0,8.0,,,HRV,HRV_0096,2022-11-30 18:13:16
,wl-rdm,125,351377,0.0-8.8-0.8,1.0,126.0,,,,,,,[],,,,,,53.2,1.0,u,0.0,False,1062.2999999988824,64.0,60.0,40.0,False,,354.6793838763306,[],"[960, 540]",ColorTask,55.0,9.0,,,HRV,HRV_0096,2022-11-30 18:13:16
,wl-rdm,126,354163,0.0-8.9-0.9,1.0,127.0,,,,,,,[],,,,,,56.4,1.0,i,1.0,True,1417.5,85.0,60.0,40.0,False,,312.6015586755748,[],"[960, 540]",ColorTask,56.0,10.0,,,HRV,HRV_0096,2022-11-30 18:13:16
,wl-rdm,127,356599,0.0-8.10-0.10,1.0,128.0,,,,,,,[],,,,,,56.4,0.0,u,0.0,True,1038.5,63.0,60.0,40.0,False,,325.7465126020417,[],"[960, 540]",ColorTask,57.0,11.0,,,HRV,HRV_0096,2022-11-30 18:13:16
,wl-rdm,128,359952,0.0-8.11-0.11,1.0,129.0,,,,,,,[],,,,,,53.2,1.0,u,0.0,False,2047.4000000003725,123.0,60.0,40.0,False,,236.7563739646797,[],"[960, 540]",ColorTask,56.0,12.0,,,HRV,HRV_0096,2022-11-30 18:13:16
,wl-rdm,129,362138,0.0-8.12-0.12,1.0,130.0,,,,,,,[],,,,,,73.6,0.0,u,0.0,True,910.3000000026077,55.0,60.0,40.0,False,,201.46839984425606,[],"[960, 540]",ColorTask,57.0,13.0,,,HRV,HRV_0096,2022-11-30 18:13:16
,wl-rdm,130,364406,0.0-8.13-0.13,1.0,131.0,,,,,,,[],,,,,,53.2,1.0,u,0.0,False,963.6999999992549,57.0,60.0,40.0,False,,247.35888441947432,[],"[960, 540]",ColorTask,56.0,14.0,,,HRV,HRV_0096,2022-11-30 18:13:16
,wl-rdm,131,367093,0.0-8.14-0.14,1.0,132.0,,,,,,,[],,,,,,56.4,0.0,i,1.0,False,1349.800000000745,81.0,60.0,40.0,False,,276.86693068494844,[],"[960, 540]",ColorTask,55.0,15.0,,,HRV,HRV_0096,2022-11-30 18:13:16
,wl-rdm,132,369078,0.0-8.15-0.15,1.0,133.0,,,,,,,[],,,,,,87.9,1.0,i,1.0,True,655.7999999988824,40.0,60.0,40.0,False,,258.1127369195871,[],"[960, 540]",ColorTask,56.0,16.0,,,HRV,HRV_0096,2022-11-30 18:13:16
,wl-rdm,133,371914,0.0-8.16-0.16,1.0,134.0,,,,,,,[],,,,,,50.0,1.0,u,0.0,False,1386.0,84.0,60.0,40.0,False,,383.30302065595635,[],"[960, 540]",ColorTask,55.0,17.0,,,HRV,HRV_0096,2022-11-30 18:13:16
,wl-rdm,134,374850,0.0-8.17-0.17,1.0,135.0,,,,,,,[],,,,,,73.6,1.0,i,1.0,True,1576.7999999988824,95.0,60.0,40.0,False,,292.79201194253517,[],"[960, 540]",ColorTask,56.0,18.0,,,HRV,HRV_0096,2022-11-30 18:13:16
,wl-rdm,135,377853,0.0-8.18-0.18,1.0,136.0,,,,,,,[],,,,,,53.2,0.0,i,1.0,False,1699.5000000018626,102.0,60.0,40.0,False,,233.44058909746028,[],"[960, 540]",ColorTask,55.0,19.0,,,HRV,HRV_0096,2022-11-30 18:13:16
,wl-rdm,136,380122,0.0-8.19-0.19,1.0,137.0,,,,,,,[],,,,,,73.6,0.0,u,0.0,True,934.6999999992549,57.0,60.0,40.0,False,,257.84522638015954,[],"[960, 540]",ColorTask,56.0,20.0,,,HRV,HRV_0096,2022-11-30 18:13:16
,wl-rdm,137,383342,0.0-8.20-0.20,1.0,138.0,,,,,,,[],,,,,,56.4,0.0,i,1.0,False,1774.2000000011176,107.0,60.0,40.0,False,,368.97981530936306,[],"[960, 540]",ColorTask,55.0,21.0,,,HRV,HRV_0096,2022-11-30 18:13:16
,wl-rdm,138,386161,0.0-8.21-0.21,1.0,139.0,,,,,,,[],,,,,,50.0,1.0,u,0.0,False,1511.0,91.0,60.0,40.0,False,,235.3280020735836,[],"[960, 540]",ColorTask,54.0,22.0,,,HRV,HRV_0096,2022-11-30 18:13:16
,wl-rdm,139,388364,0.0-8.22-0.22,1.0,140.0,,,,,,,[],,,,,,62.5,0.0,u,0.0,True,799.3000000007451,48.0,60.0,40.0,False,,340.63416425784106,[],"[960, 540]",ColorTask,55.0,23.0,,,HRV,HRV_0096,2022-11-30 18:13:16
,wl-rdm,140,390315,0.0-8.23-0.23,1.0,141.0,,,,,,,[],,,,,,87.9,0.0,u,0.0,True,666.1000000014901,40.0,60.0,40.0,False,,222.28080401706023,[],"[960, 540]",ColorTask,56.0,24.0,,,HRV,HRV_0096,2022-11-30 18:13:16
,wl-rdm,141,393051,0.0-8.24-0.24,1.0,142.0,,,,,,,[],,,,,,62.5,0.0,i,1.0,False,1358.9000000003725,82.0,60.0,40.0,False,,313.6011756547198,[],"[960, 540]",ColorTask,55.0,25.0,,,HRV,HRV_0096,2022-11-30 18:13:16
,wl-rdm,142,396172,0.0-8.25-0.25,1.0,143.0,,,,,,,[],,,,,,50.0,0.0,i,1.0,False,1750.8999999985099,105.0,60.0,40.0,False,,288.80697762168916,[],"[960, 540]",ColorTask,54.0,26.0,,,HRV,HRV_0096,2022-11-30 18:13:16
,wl-rdm,143,398457,0.0-8.26-0.26,1.0,144.0,,,,,,,[],,,,,,56.4,0.0,u,0.0,True,1003.3000000007451,61.0,60.0,40.0,False,,205.94247815910984,[],"[960, 540]",ColorTask,55.0,27.0,,,HRV,HRV_0096,2022-11-30 18:13:16
,wl-rdm,144,401076,0.0-8.27-0.27,1.0,145.0,,,,,,,[],,,,,,50.0,0.0,i,1.0,False,1332.2999999988824,80.0,60.0,40.0,False,,218.7765357853402,[],"[960, 540]",ColorTask,54.0,28.0,,,HRV,HRV_0096,2022-11-30 18:13:16
,wl-rdm,145,403145,0.0-8.28-0.28,1.0,146.0,,,,,,,[],,,,,,73.6,0.0,u,0.0,True,793.8000000026077,48.0,60.0,40.0,False,,202.81661893143317,[],"[960, 540]",ColorTask,55.0,29.0,,,HRV,HRV_0096,2022-11-30 18:13:16
,wl-rdm,146,405148,0.0-8.29-0.29,1.0,147.0,,,,,,,[],,,,,,73.6,0.0,u,0.0,True,717.0,43.0,60.0,40.0,False,,221.96302118858358,[],"[960, 540]",ColorTask,56.0,30.0,,,HRV,HRV_0096,2022-11-30 18:13:16
,wl-rdm,147,407633,0.0-8.30-0.30,1.0,148.0,,,,,,,[],,,,,,62.5,1.0,i,1.0,True,1178.2000000011176,71.0,60.0,40.0,False,,225.04938629379836,[],"[960, 540]",ColorTask,57.0,31.0,,,HRV,HRV_0096,2022-11-30 18:13:16
,wl-rdm,148,409851,0.0-8.31-0.31,1.0,149.0,,,,,,,[],,,,,,56.4,1.0,u,0.0,False,942.0999999996275,57.0,60.0,40.0,False,,205.93820678095693,[],"[960, 540]",ColorTask,56.0,32.0,,,HRV,HRV_0096,2022-11-30 18:13:16
,wl-rdm,149,411871,0.0-8.32-0.32,1.0,150.0,,,,,,,[],,,,,,87.9,1.0,i,1.0,True,729.7000000011176,44.0,60.0,40.0,False,,218.84514693848303,[],"[960, 540]",ColorTask,57.0,33.0,,,HRV,HRV_0096,2022-11-30 18:13:16
,wl-rdm,150,414156,0.0-8.33-0.33,1.0,151.0,,,,,,,[],,,,,,62.5,0.0,u,0.0,True,998.9000000003725,60.0,60.0,40.0,False,,224.52098801380973,[],"[960, 540]",ColorTask,58.0,34.0,,,HRV,HRV_0096,2022-11-30 18:13:16
,wl-rdm,151,416358,0.0-8.34-0.34,1.0,152.0,,,,,,,[],,,,,,62.5,1.0,i,1.0,True,822.7999999988824,50.0,60.0,40.0,False,,298.5084076502367,[],"[960, 540]",ColorTask,59.0,35.0,,,HRV,HRV_0096,2022-11-30 18:13:16
,wl-rdm,152,419695,0.0-8.35-0.35,1.0,153.0,,,,,,,[],,,,,,62.5,1.0,i,1.0,True,1988.5999999996275,120.0,60.0,40.0,False,,271.3499607160418,[],"[960, 540]",ColorTask,60.0,36.0,,,HRV,HRV_0096,2022-11-30 18:13:16
,wl-rdm,153,421747,0.0-8.36-0.36,1.0,154.0,,,,,,,[],,,,,,87.9,0.0,u,0.0,True,783.3000000007451,47.0,60.0,40.0,False,,205.26304935979996,[],"[960, 540]",ColorTask,61.0,37.0,,,HRV,HRV_0096,2022-11-30 18:13:16
,wl-rdm,154,424016,0.0-8.37-0.37,1.0,155.0,,,,,,,[],,,,,,87.9,1.0,i,1.0,True,912.5,55.0,60.0,40.0,False,,284.6550719194746,[],"[960, 540]",ColorTask,62.0,38.0,,,HRV,HRV_0096,2022-11-30 18:13:16
,wl-rdm,155,427470,0.0-8.38-0.38,1.0,156.0,,,,,,,[],,,,,,56.4,0.0,u,0.0,True,2157.7000000011176,130.0,60.0,40.0,False,,227.96265734688336,[],"[960, 540]",ColorTask,63.0,39.0,,,HRV,HRV_0096,2022-11-30 18:13:16
,wl-rdm,156,430706,0.0-8.39-0.39,1.0,157.0,,,,,,,[],,,,,,50.0,0.0,i,1.0,False,1786.0,108.0,60.0,40.0,False,,376.335666943749,[],"[960, 540]",ColorTask,62.0,40.0,,,HRV,HRV_0096,2022-11-30 18:13:16
,wl-rdm,157,434843,0.0-8.40-0.40,1.0,158.0,,,,,,,[],,,,,,50.0,1.0,u,0.0,False,2684.39999999851,161.0,60.0,40.0,False,,386.34534831400424,[],"[960, 540]",ColorTask,61.0,41.0,,,HRV,HRV_0096,2022-11-30 18:13:16
,wl-rdm,158,438213,0.0-8.41-0.41,1.0,159.0,,,,,,,[],,,,,,50.0,1.0,u,0.0,False,2091.3000000026077,126.0,60.0,40.0,False,,204.27085143304134,[],"[960, 540]",ColorTask,60.0,42.0,,,HRV,HRV_0096,2022-11-30 18:13:16
,wl-rdm,159,440399,0.0-8.42-0.42,1.0,160.0,,,,,,,[],,,,,,87.9,1.0,i,1.0,True,804.3000000007451,49.0,60.0,40.0,False,,312.75629738490284,[],"[960, 540]",ColorTask,61.0,43.0,,,HRV,HRV_0096,2022-11-30 18:13:16
,wl-rdm,160,442601,0.0-8.43-0.43,1.0,161.0,,,,,,,[],,,,,,87.9,0.0,u,0.0,True,805.3000000007451,47.0,60.0,40.0,False,,318.4066113808995,[],"[960, 540]",ColorTask,62.0,44.0,,,HRV,HRV_0096,2022-11-30 18:13:16
,wl-rdm,161,444570,0.0-8.44-0.44,1.0,162.0,,,,,,,[],,,,,,87.9,1.0,i,1.0,True,692.3000000007451,42.0,60.0,40.0,False,,216.80577637666067,[],"[960, 540]",ColorTask,63.0,45.0,,,HRV,HRV_0096,2022-11-30 18:13:16
,wl-rdm,162,446723,0.0-8.45-0.45,1.0,163.0,,,,,,,[],,,,,,87.9,0.0,u,0.0,True,734.6999999992549,45.0,60.0,40.0,False,,338.73646456184053,[],"[960, 540]",ColorTask,64.0,46.0,,,HRV,HRV_0096,2022-11-30 18:13:16
,wl-rdm,163,449275,0.0-8.46-0.46,1.0,164.0,,,,,,,[],,,,,,62.5,0.0,u,0.0,True,1110.0,67.0,60.0,40.0,False,,381.90655749023153,[],"[960, 540]",ColorTask,65.0,47.0,,,HRV,HRV_0096,2022-11-30 18:13:16
,wl-rdm,164,452077,0.0-8.47-0.47,1.0,165.0,,,,,,,[],,,,,,62.5,1.0,i,1.0,True,1415.9000000003725,85.0,60.0,40.0,False,,304.0219096251398,[],"[960, 540]",ColorTask,66.0,48.0,,,HRV,HRV_0096,2022-11-30 18:13:16
,wl-rdm,165,454396,0.0-8.48-0.48,1.0,166.0,,,,,,,[],,,,,,62.5,0.0,u,0.0,True,1007.5999999996275,61.0,60.0,40.0,False,,237.23185172039354,[],"[960, 540]",ColorTask,67.0,49.0,,,HRV,HRV_0096,2022-11-30 18:13:16
,wl-rdm,166,457717,0.0-8.49-0.49,1.0,167.0,,,,,,,[],,,,,,62.5,1.0,i,1.0,True,1975.2000000011176,119.0,60.0,40.0,False,,281.9231655036819,[],"[960, 540]",ColorTask,68.0,50.0,,,HRV,HRV_0096,2022-11-30 18:13:16
,wl-rdm,167,460402,0.0-8.50-0.50,1.0,168.0,,,,,,,[],,,,,,53.2,0.0,u,0.0,True,1285.699999999255,78.0,60.0,40.0,False,,330.13344500925973,[],"[960, 540]",ColorTask,69.0,51.0,,,HRV,HRV_0096,2022-11-30 18:13:16
,wl-rdm,168,462989,0.0-8.51-0.51,1.0,169.0,,,,,,,[],,,,,,73.6,1.0,i,1.0,True,1315.4000000003725,79.0,60.0,40.0,False,,207.0920078198426,[],"[960, 540]",ColorTask,70.0,52.0,,,HRV,HRV_0096,2022-11-30 18:13:16
,wl-rdm,169,466124,0.0-8.52-0.52,1.0,170.0,,,,,,,[],,,,,,53.2,1.0,i,1.0,True,1849.4000000003725,111.0,60.0,40.0,False,,227.29762139303656,[],"[960, 540]",ColorTask,71.0,53.0,,,HRV,HRV_0096,2022-11-30 18:13:16
,wl-rdm,170,468460,0.0-8.53-0.53,1.0,171.0,,,,,,,[],,,,,,73.6,0.0,u,0.0,True,924.1000000014901,56.0,60.0,40.0,False,,338.2201791060397,[],"[960, 540]",ColorTask,72.0,54.0,,,HRV,HRV_0096,2022-11-30 18:13:16
,wl-rdm,171,470897,0.0-8.54-0.54,1.0,172.0,,,,,,,[],,,,,,73.6,0.0,u,0.0,True,977.9000000003725,59.0,60.0,40.0,False,,394.9766850248699,[],"[960, 540]",ColorTask,73.0,55.0,,,HRV,HRV_0096,2022-11-30 18:13:16
,wl-rdm,172,473299,0.0-8.55-0.55,1.0,173.0,,,,,,,[],,,,,,62.5,0.0,u,0.0,True,950.9000000003725,57.0,60.0,40.0,False,,388.8194514002737,[],"[960, 540]",ColorTask,74.0,56.0,,,HRV,HRV_0096,2022-11-30 18:13:16
,wl-rdm,173,475384,0.0-8.56-0.56,1.0,174.0,,,,,,,[],,,,,,73.6,1.0,i,1.0,True,720.4000000003725,44.0,60.0,40.0,False,,283.74972530813693,[],"[960, 540]",ColorTask,75.0,57.0,,,HRV,HRV_0096,2022-11-30 18:13:16
,wl-rdm,174,478103,0.0-8.57-0.57,1.0,175.0,,,,,,,[],,,,,,53.2,0.0,i,1.0,False,1404.9000000022352,85.0,60.0,40.0,False,,236.49419718898199,[],"[960, 540]",ColorTask,74.0,58.0,,,HRV,HRV_0096,2022-11-30 18:13:16
,wl-rdm,175,480355,0.0-8.58-0.58,1.0,176.0,,,,,,,[],,,,,,87.9,0.0,u,0.0,True,848.7999999988824,51.0,60.0,40.0,False,,348.63880403795827,[],"[960, 540]",ColorTask,75.0,59.0,,,HRV,HRV_0096,2022-11-30 18:13:16
,wl-rdm,176,482975,0.0-8.59-0.59,1.0,177.0,,,,,,,[],,,,,,50.0,1.0,i,1.0,True,1329.0999999996275,80.0,60.0,40.0,False,,222.25059458035193,[],"[960, 540]",ColorTask,76.0,60.0,,,HRV,HRV_0096,2022-11-30 18:13:16
,wl-rdm,177,485344,0.0-8.60-0.60,1.0,178.0,,,,,,,[],,,,,,53.2,0.0,u,0.0,True,1044.699999999255,63.0,60.0,40.0,False,,251.92898179461895,[],"[960, 540]",ColorTask,77.0,61.0,,,HRV,HRV_0096,2022-11-30 18:13:16
,wl-rdm,178,487413,0.0-8.61-0.61,1.0,179.0,,,,,,,[],,,,,,87.9,0.0,u,0.0,True,757.3000000007451,46.0,60.0,40.0,False,,238.53426192168246,[],"[960, 540]",ColorTask,78.0,62.0,,,HRV,HRV_0096,2022-11-30 18:13:16
,wl-rdm,179,489765,0.0-8.62-0.62,1.0,180.0,,,,,,,[],,,,,,50.0,0.0,i,1.0,False,914.6999999992549,55.0,60.0,40.0,False,,382.409934512577,[],"[960, 540]",ColorTask,77.0,63.0,,,HRV,HRV_0096,2022-11-30 18:13:16
,wl-rdm,180,492435,0.0-8.63-0.63,1.0,181.0,,,,,,,[],,,,,,53.2,0.0,i,1.0,False,1370.199999999255,83.0,60.0,40.0,False,,223.9429730296971,[],"[960, 540]",ColorTask,76.0,64.0,,,HRV,HRV_0096,2022-11-30 18:13:16
,wl-rdm,181,494737,0.0-8.64-0.64,1.0,182.0,,,,,,,[],,,,,,87.9,0.0,u,0.0,True,993.9000000003725,60.0,60.0,40.0,False,,242.40283107182836,[],"[960, 540]",ColorTask,77.0,65.0,,,HRV,HRV_0096,2022-11-30 18:13:16
,wl-rdm,182,497056,0.0-8.65-0.65,1.0,183.0,,,,,,,[],,,,,,56.4,0.0,u,0.0,True,961.7999999988824,58.0,60.0,40.0,False,,297.2511375253652,[],"[960, 540]",ColorTask,78.0,66.0,,,HRV,HRV_0096,2022-11-30 18:13:16
,wl-rdm,183,499542,0.0-8.66-0.66,1.0,184.0,,,,,,,[],,,,,,62.5,1.0,i,1.0,True,1089.699999999255,66.0,60.0,40.0,False,,318.1117582366667,[],"[960, 540]",ColorTask,79.0,67.0,,,HRV,HRV_0096,2022-11-30 18:13:16
,wl-rdm,184,502411,0.0-8.67-0.67,1.0,185.0,,,,,,,[],,,,,,53.2,1.0,i,1.0,True,1493.2999999988824,90.0,60.0,40.0,False,,305.2908221071085,[],"[960, 540]",ColorTask,80.0,68.0,,,HRV,HRV_0096,2022-11-30 18:13:16
,wl-rdm,185,504513,0.0-8.68-0.68,1.0,186.0,,,,,,,[],,,,,,73.6,1.0,i,1.0,True,726.3999999985099,44.0,60.0,40.0,False,,313.0448299736578,[],"[960, 540]",ColorTask,81.0,69.0,,,HRV,HRV_0096,2022-11-30 18:13:16
,wl-rdm,186,506532,0.0-8.69-0.69,1.0,187.0,,,,,,,[],,,,,,87.9,0.0,u,0.0,True,708.0,43.0,60.0,40.0,False,,235.15777812702817,[],"[960, 540]",ColorTask,82.0,70.0,,,HRV,HRV_0096,2022-11-30 18:13:16
,wl-rdm,187,509401,0.0-8.70-0.70,1.0,188.0,,,,,,,[],,,,,,62.5,1.0,i,1.0,True,1452.6000000014901,88.0,60.0,40.0,False,,338.43746193026993,[],"[960, 540]",ColorTask,83.0,71.0,,,HRV,HRV_0096,2022-11-30 18:13:16
,wl-rdm,188,512454,0.0-8.71-0.71,1.0,189.0,,,,,,,[],,,,,,53.2,0.0,i,1.0,False,1780.800000000745,107.0,60.0,40.0,False,,208.0873378907167,[],"[960, 540]",ColorTask,82.0,72.0,,,HRV,HRV_0096,2022-11-30 18:13:16
,wl-rdm,189,514807,0.0-8.72-0.72,1.0,190.0,,,,,,,[],,,,,,53.2,1.0,u,0.0,False,945.8999999985099,57.0,60.0,40.0,False,,343.38360695974177,[],"[960, 540]",ColorTask,81.0,73.0,,,HRV,HRV_0096,2022-11-30 18:13:16
,wl-rdm,190,518110,0.0-8.73-0.73,1.0,191.0,,,,,,,[],,,,,,50.0,0.0,i,1.0,False,1923.2000000011176,116.0,60.0,40.0,False,,314.24370869456015,[],"[960, 540]",ColorTask,80.0,74.0,,,HRV,HRV_0096,2022-11-30 18:13:16
,wl-rdm,191,520629,0.0-8.74-0.74,1.0,192.0,,,,,,,[],,,,,,56.4,1.0,u,0.0,False,1072.7999999988824,65.0,60.0,40.0,False,,374.51511643851785,[],"[960, 540]",ColorTask,79.0,75.0,,,HRV,HRV_0096,2022-11-30 18:13:16
,wl-rdm,192,523550,0.0-8.75-0.75,1.0,193.0,,,,,,,[],,,,,,56.4,1.0,i,1.0,True,1549.2999999988824,93.0,60.0,40.0,False,,307.9275502939628,[],"[960, 540]",ColorTask,80.0,76.0,,,HRV,HRV_0096,2022-11-30 18:13:16
,wl-rdm,193,526385,0.0-8.76-0.76,1.0,194.0,,,,,,,[],,,,,,56.4,0.0,u,0.0,True,1479.4000000003725,89.0,60.0,40.0,False,,271.0006879075344,[],"[960, 540]",ColorTask,81.0,77.0,,,HRV,HRV_0096,2022-11-30 18:13:16
,wl-rdm,194,528854,0.0-8.77-0.77,1.0,195.0,,,,,,,[],,,,,,50.0,1.0,u,0.0,False,1113.0999999996275,67.0,60.0,40.0,False,,285.9340050900995,[],"[960, 540]",ColorTask,80.0,78.0,,,HRV,HRV_0096,2022-11-30 18:13:16
,wl-rdm,195,531190,0.0-8.78-0.78,1.0,196.0,,,,,,,[],,,,,,73.6,0.0,u,0.0,True,972.4999999981374,59.0,60.0,40.0,False,,295.0978811124926,[],"[960, 540]",ColorTask,81.0,79.0,,,HRV,HRV_0096,2022-11-30 18:13:16
,wl-rdm,196,534243,0.0-8.79-0.79,1.0,197.0,,,,,,,[],,,,,,53.2,1.0,i,1.0,True,1659.5,100.0,60.0,40.0,False,,333.5987672329072,[],"[960, 540]",ColorTask,82.0,80.0,,,HRV,HRV_0096,2022-11-30 18:13:16
,wl-rdm,197,537163,0.0-8.80-0.80,1.0,198.0,,,,,,,[],,,,,,73.6,1.0,i,1.0,True,1609.5,97.0,60.0,40.0,False,,234.07941622287734,[],"[960, 540]",ColorTask,83.0,81.0,,,HRV,HRV_0096,2022-11-30 18:13:16
,wl-rdm,198,539399,0.0-8.81-0.81,1.0,199.0,,,,,,,[],,,,,,73.6,0.0,u,0.0,True,896.6999999992549,54.0,60.0,40.0,False,,277.68959008622505,[],"[960, 540]",ColorTask,84.0,82.0,,,HRV,HRV_0096,2022-11-30 18:13:16
,wl-rdm,199,542017,0.0-8.82-0.82,1.0,200.0,,,,,,,[],,,,,,73.6,0.0,u,0.0,True,1168.5,71.0,60.0,40.0,False,,367.614932545692,[],"[960, 540]",ColorTask,85.0,83.0,,,HRV,HRV_0096,2022-11-30 18:13:16
,wl-rdm,200,544804,0.0-8.83-0.83,1.0,201.0,,,,,,,[],,,,,,53.2,1.0,i,1.0,True,1442.5999999996275,87.0,60.0,40.0,False,,280.22444720715924,[],"[960, 540]",ColorTask,86.0,84.0,,,HRV,HRV_0096,2022-11-30 18:13:16
,wl-rdm,201,547339,0.0-8.84-0.84,1.0,202.0,,,,,,,[],,,,,,56.4,0.0,u,0.0,True,1217.699999999255,73.0,60.0,40.0,False,,238.47576214908196,[],"[960, 540]",ColorTask,87.0,85.0,,,HRV,HRV_0096,2022-11-30 18:13:16
,wl-rdm,202,549541,0.0-8.85-0.85,1.0,203.0,,,,,,,[],,,,,,73.6,1.0,i,1.0,True,805.8999999985099,49.0,60.0,40.0,False,,331.00740601501064,[],"[960, 540]",ColorTask,88.0,86.0,,,HRV,HRV_0096,2022-11-30 18:13:16
,wl-rdm,203,552778,0.0-8.86-0.86,1.0,204.0,,,,,,,[],,,,,,53.2,0.0,i,1.0,False,1902.0999999996275,115.0,60.0,40.0,False,,262.9346615146058,[],"[960, 540]",ColorTask,87.0,87.0,,,HRV,HRV_0096,2022-11-30 18:13:16
,wl-rdm,204,556014,0.0-8.87-0.87,1.0,205.0,,,,,,,[],,,,,,50.0,1.0,i,1.0,True,1772.0,107.0,60.0,40.0,False,,390.5253549189854,[],"[960, 540]",ColorTask,88.0,88.0,,,HRV,HRV_0096,2022-11-30 18:13:16
,wl-rdm,205,558434,0.0-8.88-0.88,1.0,206.0,,,,,,,[],,,,,,73.6,1.0,i,1.0,True,1001.0,60.0,60.0,40.0,False,,358.4840040534202,[],"[960, 540]",ColorTask,89.0,89.0,,,HRV,HRV_0096,2022-11-30 18:13:16
,wl-rdm,206,561024,0.0-8.89-0.89,1.0,207.0,,,,,,,[],,,,,,50.0,0.0,u,0.0,True,1199.699999999255,72.0,60.0,40.0,False,,322.5269216688281,[],"[960, 540]",ColorTask,90.0,90.0,,,HRV,HRV_0096,2022-11-30 18:13:16
,wl-rdm,207,563055,0.0-8.90-0.90,1.0,208.0,,,,,,,[],,,,,,87.9,0.0,u,0.0,True,721.6999999992549,44.0,60.0,40.0,False,,220.93448109976737,[],"[960, 540]",ColorTask,91.0,91.0,,,HRV,HRV_0096,2022-11-30 18:13:16
,wl-rdm,208,565324,0.0-8.91-0.91,1.0,209.0,,,,,,,[],,,,,,62.5,1.0,i,1.0,True,857.6999999992549,52.0,60.0,40.0,False,,342.3070192551916,[],"[960, 540]",ColorTask,92.0,92.0,,,HRV,HRV_0096,2022-11-30 18:13:16
,wl-rdm,209,567593,0.0-8.92-0.92,1.0,210.0,,,,,,,[],,,,,,62.5,0.0,u,0.0,True,876.4000000003725,53.0,60.0,40.0,False,,326.9027176205195,[],"[960, 540]",ColorTask,93.0,93.0,,,HRV,HRV_0096,2022-11-30 18:13:16
,wl-rdm,210,570446,0.0-8.93-0.93,1.0,211.0,,,,,,,[],,,,,,53.2,0.0,i,1.0,False,1389.800000000745,84.0,60.0,40.0,False,,392.77583788893776,[],"[960, 540]",ColorTask,92.0,94.0,,,HRV,HRV_0096,2022-11-30 18:13:16
,wl-rdm,211,572899,0.0-8.94-0.94,1.0,212.0,,,,,,,[],,,,,,50.0,0.0,u,0.0,True,1143.2999999988824,69.0,60.0,40.0,False,,235.67140674549256,[],"[960, 540]",ColorTask,93.0,95.0,,,HRV,HRV_0096,2022-11-30 18:13:16
,wl-rdm,212,575150,0.0-8.95-0.95,1.0,213.0,,,,,,,[],,,,,,62.5,0.0,u,0.0,True,888.0999999977648,54.0,60.0,40.0,False,,287.8996506091288,[],"[960, 540]",ColorTask,94.0,96.0,,,HRV,HRV_0096,2022-11-30 18:13:16
,wl-rdm,213,578103,0.0-8.96-0.96,1.0,214.0,,,,,,,[],,,,,,50.0,1.0,u,0.0,False,1487.5,90.0,60.0,40.0,False,,386.6177033373194,[],"[960, 540]",ColorTask,93.0,97.0,,,HRV,HRV_0096,2022-11-30 18:13:16
,wl-rdm,214,580189,0.0-8.97-0.97,1.0,215.0,,,,,,,[],,,,,,87.9,1.0,i,1.0,True,714.9000000003725,43.0,60.0,40.0,False,,310.523877657724,[],"[960, 540]",ColorTask,94.0,98.0,,,HRV,HRV_0096,2022-11-30 18:13:16
,wl-rdm,215,583993,0.0-8.98-0.98,1.0,216.0,,,,,,,[],,,,,,53.2,0.0,i,1.0,False,2520.0,152.0,60.0,40.0,False,,200.7072157365528,[],"[960, 540]",ColorTask,93.0,99.0,,,HRV,HRV_0096,2022-11-30 18:13:16
,wl-rdm,216,586980,0.0-8.99-0.99,1.0,217.0,,,,,,,[],,,,,,50.0,0.0,u,0.0,True,1600.7000000011176,96.0,60.0,40.0,False,,328.4357991092058,[],"[960, 540]",ColorTask,94.0,100.0,,,HRV,HRV_0096,2022-11-30 18:13:16
,wl-rdm,217,589114,0.0-8.100-0.100,1.0,218.0,,,,,,,[],,,,,,73.6,1.0,i,1.0,True,676.1999999992549,41.0,60.0,40.0,False,,388.3227878676411,[],"[960, 540]",ColorTask,95.0,101.0,,,HRV,HRV_0096,2022-11-30 18:13:16
,wl-rdm,218,591450,0.0-8.101-0.101,1.0,219.0,,,,,,,[],,,,,,56.4,1.0,u,0.0,False,1001.0,61.0,60.0,40.0,False,,257.15955900613744,[],"[960, 540]",ColorTask,94.0,102.0,,,HRV,HRV_0096,2022-11-30 18:13:16
,wl-rdm,219,593635,0.0-8.102-0.102,1.0,220.0,,,,,,,[],,,,,,62.5,1.0,i,1.0,True,857.1000000014901,52.0,60.0,40.0,False,,253.3674804045047,[],"[960, 540]",ColorTask,95.0,103.0,,,HRV,HRV_0096,2022-11-30 18:13:16
,wl-rdm,220,595637,0.0-8.103-0.103,1.0,221.0,,,,,,,[],,,,,,87.9,1.0,i,1.0,True,671.7000000011176,41.0,60.0,40.0,False,,262.6338099110327,[],"[960, 540]",ColorTask,96.0,104.0,,,HRV,HRV_0096,2022-11-30 18:13:16
,wl-rdm,221,597657,0.0-8.104-0.104,1.0,222.0,,,,,,,[],,,,,,56.4,1.0,i,1.0,True,618.5,38.0,60.0,40.0,False,,317.35384845556524,[],"[960, 540]",ColorTask,97.0,105.0,,,HRV,HRV_0096,2022-11-30 18:13:16
,wl-rdm,222,600309,0.0-8.105-0.105,1.0,223.0,,,,,,,[],,,,,,56.4,1.0,i,1.0,True,1331.800000000745,80.0,60.0,40.0,False,,251.55694836623007,[],"[960, 540]",ColorTask,98.0,106.0,,,HRV,HRV_0096,2022-11-30 18:13:16
,wl-rdm,223,603228,0.0-8.106-0.106,1.0,224.0,,,,,,,[],,,,,,50.0,0.0,u,0.0,True,1541.7000000011176,93.0,60.0,40.0,False,,295.664416035104,[],"[960, 540]",ColorTask,99.0,107.0,,,HRV,HRV_0096,2022-11-30 18:13:16
,wl-rdm,224,606566,0.0-8.107-0.107,1.0,225.0,,,,,,,[],,,,,,56.4,1.0,i,1.0,True,1906.300000000745,115.0,60.0,40.0,False,,351.315333183753,[],"[960, 540]",ColorTask,100.0,108.0,,,HRV,HRV_0096,2022-11-30 18:13:16
,wl-html-button-response,225,608982,0.0-9.0-0.0,,,,,,,,,,2408.7999999988824,,0,,,,,,,,,,,,,,,,,,,,<h3>End of this session. Thank you!</h3><br>,['Close window'],HRV,HRV_0096,2022-11-30 18:13:16
