Answer,C_Pay,Question,QuestionNum,jitter,C_Trial,C_QPresent,rsp,C_SWK,C_SWK_rt,C_TrialEnd,exp,subjectId,date
Monrovia,6,What African capital city is named after a U.S. president? ,128,1.216,0,3174.5999999046326,q,S,1792.5,6711.0,HRV,HRV_0010,2022-11-30 17:46:53
The Big Bang,4,"Arno Penzias and Robert Wilson shared a Nobel Prize for accidentally discovering ""CMB,"" leftover radiation from what?",22,1.035,1,6711.200000047684,q,S,2520.0,10801.0,HRV,HRV_0010,2022-11-30 17:46:53
Peter Pan ,2,What was the first English play to be written especially for children? ,283,0.824,2,10801.0,q,S,1946.8999998569489,14094.0,HRV,HRV_0010,2022-11-30 17:46:53
George H.W. Bush ,2,"Who said: ""I'm the president of the United States and I'm not going to eat any more broccoli""? ",415,0.781,3,14094.099999904633,q,S,2870.7000000476837,18273.5,HRV,HRV_0010,2022-11-30 17:46:53
Ripe cranerries bounce when dropped on the ground,7,How do farmers test whether cranberries are ripe?,452,1.887,4,18273.5,q,S,2312.5,22986.599999904633,HRV,HRV_0010,2022-11-30 17:46:53
Australia,2,What country has six sheep for every human? ,158,0.558,5,22986.599999904633,q,S,2246.4000000953674,26306.700000047684,HRV,HRV_0010,2022-11-30 17:46:53
over 10 billion donuts. ,3,How many donuts are concumed in the US every year?,463,0.749,6,26306.700000047684,q,S,1935.0,29509.0,HRV,HRV_0010,2022-11-30 17:46:53
Syzygy,2,What's the astronomical term for three celestial bodies aligning?   ,302,1.739,7,29509.0,q,S,2493.5,34259.5,HRV,HRV_0010,2022-11-30 17:46:53
Coca-Cola,1,"""Project Kansas"" was the name for the top secret 1985 attempt to revamp what product?",416,1.821,8,34259.5,q,S,1990.7999999523163,38582.09999990463,HRV,HRV_0010,2022-11-30 17:46:53
Haddock,3,"If you ordered an Omelet Arnold Bennett, what fish would you find in it?",429,1.521,9,38582.200000047684,q,S,3097.2999999523163,43726.09999990463,HRV,HRV_0010,2022-11-30 17:46:53
The bishop,6,Which chess piece was originally called 'the elephant'? ,334,1.265,10,43726.09999990463,q,S,1748.5,47265.89999985695,HRV,HRV_0010,2022-11-30 17:46:53
popscicle,2,What food was invented by an 11 year old in 1905?,450,1.88,11,47266.0,q,S,2660.5999999046326,52343.5,HRV,HRV_0010,2022-11-30 17:46:53
Choking on food,7,"Each year, approximately 125 people die of what? ",417,0.502,12,52343.59999990463,q,S,1644.7999999523163,55002.59999990463,HRV,HRV_0010,2022-11-30 17:46:53
A glacial ridge,5,What is an esker? ,198,1.963,13,55002.59999990463,q,S,1930.7999999523163,59424.5,HRV,HRV_0010,2022-11-30 17:46:53
Pepper and Mustard,1,What are the top two most popular spices in the world?,422,0.53,14,59424.5,q,S,2945.5999999046326,63427.200000047684,HRV,HRV_0010,2022-11-30 17:46:53
Sepia,6,What tinting process for black and white photography was named for the genus of cuttlefish that originally provided the pigment?,266,1.16,15,63427.299999952316,q,S,3061.4000000953674,68165.59999990463,HRV,HRV_0010,2022-11-30 17:46:53
The Mini Cooper,3,"With over 5.3 million sold since 1959, what's by far the most successful British car of all time?",394,0.625,16,68165.70000004768,q,S,2838.5999999046326,72140.5,HRV,HRV_0010,2022-11-30 17:46:53
PayPal,4,YouTube.com is the brainchild of three former employees of what other major website? ,396,1.201,17,72140.5,q,S,1762.7000000476837,75627.0,HRV,HRV_0010,2022-11-30 17:46:53
James Buchanan ,5,Who was the only U.S. president never to be married?,383,1.267,18,75627.0,q,S,1741.7999999523163,79158.59999990463,HRV,HRV_0010,2022-11-30 17:46:53
Shenandoah Valley,7,What area changed hands 72 times during the Civil War? ,139,1.497,19,79158.59999990463,q,S,1956.0,83126.5,HRV,HRV_0010,2022-11-30 17:46:53
Ohio,5,Which is the only U.S. state that has a pennant-shaped flag instead of a rectangular one?  ,345,0.897,20,83126.5,q,S,2546.0999999046326,87088.89999985695,HRV,HRV_0010,2022-11-30 17:46:53
Belgium,2,Where were French fries invented?,437,1.803,21,87088.89999985695,q,S,1861.5,91280.79999995232,HRV,HRV_0010,2022-11-30 17:46:53
It sits beside the Finger Lakes ,4,"Why is Oneida Lake, near Syracuse, New York, sometimes called ""the thumb""?",393,1.121,22,91280.79999995232,q,S,1842.7000000476837,94773.70000004768,HRV,HRV_0010,2022-11-30 17:46:53
Endeavour ,3,What is the name of the ship that carried Captain Cook to Australia?  ,208,1.957,23,94773.70000004768,q,S,1700.5999999046326,98954.5,HRV,HRV_0010,2022-11-30 17:46:53
Ostrich,5,Which animal's eyes are bigger than its brain?   ,327,1.242,24,98954.5,q,S,1515.3999998569489,102255.79999995232,HRV,HRV_0010,2022-11-30 17:46:53
George Orwell ,1,"Whose first book was ""Down and Out in Paris and London"", about his year among the poverty-stricken underclass of those cities?",388,1.463,25,102255.89999985695,q,S,2389.800000190735,106641.70000004768,HRV,HRV_0010,2022-11-30 17:46:53
Broccoli! ,1,Whice vegeteable has more vitamin C than an orange and as much calcium as whole milk?,456,1.103,26,106641.70000004768,q,S,3164.0,111431.89999985695,HRV,HRV_0010,2022-11-30 17:46:53
Tuxedo Club ,2,What New York country club lent its name to the kind of dinner jacket first worn there in 1886?  ,238,0.913,27,111432.0,q,S,2662.399999856949,115529.09999990463,HRV,HRV_0010,2022-11-30 17:46:53
Your blind spot,2,What's the more common name for the retinal scotoma caused by the optic nerve? ,303,1.04,28,115529.09999990463,q,S,4241.299999952316,121341.59999990463,HRV,HRV_0010,2022-11-30 17:46:53
Snoopy's,6,"Whose doghouse apparently contains a basement, a pool table, an Andrew Wyeth painting, and a Jacuzzi?",387,1.403,29,121341.59999990463,q,S,3911.5,127172.39999985695,HRV,HRV_0010,2022-11-30 17:46:53
The U.S. Air Force,6,What current branch of the U.S. military was a corps of only 50 soldiers when World War I broke out?,161,1.713,30,127172.39999985695,q,S,3541.4000000953674,132968.70000004768,HRV,HRV_0010,2022-11-30 17:46:53
Plumbing,4,"What common English word derives from the Latin for ""lead"", for the Roman practice of making water pipes out of lead?",153,1.237,31,132968.70000004768,q,S,2616.399999856949,137349.59999990463,HRV,HRV_0010,2022-11-30 17:46:53
Uncle Tom's Cabin ,7,What was the first American novel to sell one million copies? ,281,1.109,32,137349.59999990463,q,S,2197.9000000953674,141179.89999985695,HRV,HRV_0010,2022-11-30 17:46:53
Catapult ,5,What artillery weapon was launched upon the world in 400 B.C.?  ,140,0.635,33,141179.89999985695,q,S,5048.700000047684,147393.20000004768,HRV,HRV_0010,2022-11-30 17:46:53
The Loch Ness Monster,7,"In 1994, Christian Spurling confessed that the so-called Surgeon's Photo of 1934 was a fake. What was pictured in it?",55,1.683,34,147393.20000004768,q,S,1598.8999998569489,151208.29999995232,HRV,HRV_0010,2022-11-30 17:46:53
Silicon,7,What element is combined with oxygen to make up the mineral quartz?,269,0.631,35,151208.29999995232,q,S,1872.7000000476837,154242.0,HRV,HRV_0010,2022-11-30 17:46:53
Adding olive juice,3,What turns a plain martini into a dirty martini?,440,1.416,36,154242.0,q,S,2493.7999999523163,158672.09999990463,HRV,HRV_0010,2022-11-30 17:46:53
Thomas Hardy,3,"Though the rest of him lies in Westminster Abbey, what writer's heart is buried near his native Dorchester?",116,0.876,37,158672.09999990463,q,S,1615.2999999523163,161683.79999995232,HRV,HRV_0010,2022-11-30 17:46:53
Bacon,5,"In Britain, what kind of meat comes in rashers?",397,1.966,38,161683.79999995232,q,S,4654.900000095367,168831.20000004768,HRV,HRV_0010,2022-11-30 17:46:53
Sic semper tyrannis ,2,What state motto of Virginia did John Wilkes Booth shout as he jumped from Lincoln's box to the stage of Ford's Theatre? ,262,1.159,39,168831.20000004768,q,S,1967.3999998569489,172485.70000004768,HRV,HRV_0010,2022-11-30 17:46:53
Cell,1,Robert Hooke coined what scientific term after looking at a piece of cork under a microscope?,81,0.552,40,172485.70000004768,q,S,2458.2999999523163,176032.09999990463,HRV,HRV_0010,2022-11-30 17:46:53
China,6,Which country first used the decimal system?  ,338,0.836,41,176032.09999990463,q,S,2005.4000000953674,179392.09999990463,HRV,HRV_0010,2022-11-30 17:46:53
chickpeas,7,What is used to make hummus?,424,0.619,42,179392.09999990463,q,S,1671.2000000476837,182213.79999995232,HRV,HRV_0010,2022-11-30 17:46:53
James Brown,4,"When asked to define ""cool,"" what two words did James Brown use? ",312,1.06,43,182213.79999995232,q,S,3327.0,187121.29999995232,HRV,HRV_0010,2022-11-30 17:46:53
Bhutan,5,"Thimpu, the world's only capital city with no traffic lights, is the capital of what tiny kingdom?",114,1.423,44,187121.39999985695,q,S,2961.4000000953674,192030.70000004768,HRV,HRV_0010,2022-11-30 17:46:53
honey,4,Which is the only food that can never go off or go bad?,442,1.241,45,192030.70000004768,q,S,3561.699999809265,197349.59999990463,HRV,HRV_0010,2022-11-30 17:46:53
Francisco Goya,7,"After a fever took his hearing, who painted his bleak ""Black Paintings"" in a house called Quinta del Sordo, Spanish for ""House of the Deaf Man""?",15,1.336,46,197349.59999990463,q,S,4040.7999999523163,203256.29999995232,HRV,HRV_0010,2022-11-30 17:46:53
Vietnam,1,"In what country did the domesticated ""potbellied pig"" originate?",61,1.346,47,203256.29999995232,q,S,2696.2999999523163,207825.39999985695,HRV,HRV_0010,2022-11-30 17:46:53
" ""!"" ",6,"Eager to find out how his novel Les Miserables was being received, Victor Hugo sent a telegram to his publisher that read ""?"" What did his publisher reply?",35,1.495,48,207825.39999985695,q,S,3797.0,213645.29999995232,HRV,HRV_0010,2022-11-30 17:46:53
The Missouri River ,7,"What forms the only part of the Kansas border, a seventy-five mile stretch, that's not drawn with a straight edge?",179,0.804,49,213645.29999995232,q,S,2114.4000000953674,217095.5,HRV,HRV_0010,2022-11-30 17:46:53
Saffron,6,What is the most expensive spice (by weight) in the world?,431,0.888,50,217095.59999990463,p,K,6102.400000095367,224610.59999990463,HRV,HRV_0010,2022-11-30 17:46:53
Generals,5,Eleven U.S. presidents have been what before being elected?,36,1.141,51,224610.59999990463,,,,234140.59999990463,HRV,HRV_0010,2022-11-30 17:46:53
Lightning strike,6,Carnivorous animals will not eat another animal that has been killed by what means?,29,1.651,52,234140.59999990463,q,S,3803.7999999523163,240115.29999995232,HRV,HRV_0010,2022-11-30 17:46:53
Avocados have twice the amount of potassium as bananas. ,2,Which fruit has more potassium than bananas?,455,0.78,53,240115.29999995232,q,S,2448.5999999046326,243869.39999985695,HRV,HRV_0010,2022-11-30 17:46:53
Pressure,6,What is measured in millibars? ,202,0.976,54,243869.39999985695,q,S,2247.7000000476837,247610.39999985695,HRV,HRV_0010,2022-11-30 17:46:53
Love Me Do ,5,What was The Beatles's first song to hit the UK charts?,280,1.315,55,247610.5,q,S,2968.399999856949,252419.79999995232,HRV,HRV_0010,2022-11-30 17:46:53
Genetics,7,Har Gobind Khorana won the 1968 Nobel Prize for Medicine for research into what?,44,1.318,56,252419.79999995232,q,S,4144.900000095367,258405.70000004768,HRV,HRV_0010,2022-11-30 17:46:53
Green Eggs and Ham,5,What 1960 classic originated when Bennett Cerf bet one of his authors that he couldn't write a book using only fifty words?,419,0.92,57,258405.79999995232,q,S,4768.200000047684,264621.5,HRV,HRV_0010,2022-11-30 17:46:53
The Beatles' Rain ,5,What was the first rock song ever to feature hidden messages in the form of back-masked vocals?  ,284,0.561,58,264621.59999990463,q,S,2500.2000000476837,268198.39999985695,HRV,HRV_0010,2022-11-30 17:46:53
The Discovery,6,Which space shuttle is named for the ship on which Robert Scott first sailed to Antarctica? ,352,1.313,59,268198.39999985695,q,S,2727.4000000953674,272775.7000000477,HRV,HRV_0010,2022-11-30 17:46:53
AstroTurf ,2,"What was originally sold in 1965 under the name ""Chemgrass""?  ",277,0.829,60,272775.7000000477,q,S,1675.7999999523163,275817.2000000477,HRV,HRV_0010,2022-11-30 17:46:53
All in the Family ,6,"What's the only TV show to top the Nielsen ratings five seasons in a row, from 1972 to 1976?  ",311,0.788,61,275817.2000000477,q,S,2583.0,279714.7999999523,HRV,HRV_0010,2022-11-30 17:46:53
"the white flesh that houses the seeds, known as the placenta",7,What is the hottest part of a chili?,432,0.967,62,279714.7999999523,q,S,2064.2000000476837,283264.59999990463,HRV,HRV_0010,2022-11-30 17:46:53
A jenny ,7,What is a female donkey called?,194,1.96,63,283264.59999990463,q,S,1854.9000000953674,287606.7000000477,HRV,HRV_0010,2022-11-30 17:46:53
There was a pound of every ingredient in the original reciipe. ,7,How did the pound cake get its name?,460,0.891,64,287606.7000000477,q,S,1607.6999998092651,290629.39999985695,HRV,HRV_0010,2022-11-30 17:46:53
A castrated rooster,2,What is a capon?  ,193,0.974,65,290629.39999985695,q,S,1771.6000001430511,293901.2999999523,HRV,HRV_0010,2022-11-30 17:46:53
Model train set,4,HO scale is the world's most popular size of what?,45,1.653,66,293901.2999999523,q,S,2370.7000000476837,298450.89999985695,HRV,HRV_0010,2022-11-30 17:46:53
Patch Addams ,5,"What doctor, whose life was fictionalized in a 1998 film, founded the Gesundheit! Institute and named his oldest son ""Atomic Zagnut""?",166,1.697,67,298450.89999985695,q,S,2077.600000143051,302751.5,HRV,HRV_0010,2022-11-30 17:46:53
Smurfette,3,"Who did Gargamel create using ingredients like crocodile tears, the tip of an adder's tongue and a hard stone for a heart?",364,0.533,68,302751.5,q,S,3196.0999999046326,307014.2000000477,HRV,HRV_0010,2022-11-30 17:46:53
The crocodile,3,The Egyptian plover is a bird best known for its symbiotic relationship with what host animal?,95,0.888,69,307014.2000000477,q,S,2853.199999809265,311281.5,HRV,HRV_0010,2022-11-30 17:46:53
Bile,4,"Two of the ""four humors"" the ancients believed controlled temperament consist of what bodily fluid?",118,1.079,70,311281.5,q,S,3609.0999999046326,316496.2999999523,HRV,HRV_0010,2022-11-30 17:46:53
Pandemonium,4,"What noisy word comes from the capital of Hell in Milton's ""Paradise Lost""? ",239,1.489,71,316496.2999999523,q,S,4207.900000095367,322721.7999999523,HRV,HRV_0010,2022-11-30 17:46:53
Nutmeg,5,What slightly hallucinogenic spice did Malcolm X use to get high while in prison? ,407,1.346,72,322721.7999999523,q,S,2617.5999999046326,327220.59999990463,HRV,HRV_0010,2022-11-30 17:46:53
Capitol Hill,2,"Until 1790, what was known as Jenkins Hill? ",119,0.74,73,327220.59999990463,q,S,3373.100000143051,331868.2000000477,HRV,HRV_0010,2022-11-30 17:46:53
The La Brea tar pits ,1,"A California Chumash Indian woman, who appears to have been killed by a blow to the head 9,000 years ago, is the only human ever to be found where?",7,0.828,74,331868.2999999523,q,S,2445.5,335651.7999999523,HRV,HRV_0010,2022-11-30 17:46:53
Cadabra.com ,4,What was the magical original name of the online bookstore that changed its name in 1995 to Amazon.com?,287,0.52,75,335651.89999985695,q,S,3797.600000143051,340501.5,HRV,HRV_0010,2022-11-30 17:46:53
Mice,2,"After humans, what's the worlds most abundant mammal species?",16,0.743,76,340501.5,q,S,2125.899999856949,343888.7999999523,HRV,HRV_0010,2022-11-30 17:46:53
pastry,2,Choux and filo are two types of what food product?,446,1.827,77,343888.89999985695,q,S,1781.4000000953674,348025.39999985695,HRV,HRV_0010,2022-11-30 17:46:53
J,4,What's the only letter that doesn't appear in the periodic table of elements?,309,1.391,78,348025.39999985695,q,S,2390.0,352334.2000000477,HRV,HRV_0010,2022-11-30 17:46:53
Cayenne pepper ,6,What spice is named for the capital of French Guiana? ,409,0.779,79,352334.2000000477,q,S,3086.5999999046326,356725.89999985695,HRV,HRV_0010,2022-11-30 17:46:53
Cockroach,1,What animal can live up to a week without its head?,131,1.245,80,356725.89999985695,q,S,2171.4000000953674,360676.59999990463,HRV,HRV_0010,2022-11-30 17:46:53
Roulette,7,What game was created by French mathematician Blaise Pascal when he was experimenting with perpetual motion? ,182,1.104,81,360676.59999990463,q,S,1631.7000000476837,363924.0,HRV,HRV_0010,2022-11-30 17:46:53
Botany Bay,1,"What Pacific inlet was called ""Stingray Bay"" until Captain Cook renamed it for ""the great quantity of plants"" his scientists had discovered?",242,1.585,82,363924.0,q,S,2038.5999999046326,368070.0,HRV,HRV_0010,2022-11-30 17:46:53
Haricot beans,2,Baked beans are made from what type of bean?,443,1.53,83,368070.09999990463,q,S,2164.9000000953674,372296.2000000477,HRV,HRV_0010,2022-11-30 17:46:53
Throat,6,Where in the human body is the only bone that is not jointed to another?  ,317,1.157,84,372296.2999999523,q,S,2320.0,376286.7999999523,HRV,HRV_0010,2022-11-30 17:46:53
Kiwi,1,"Which bird species has survived more than 70 million years, despite the fact that it lays one egg a year and is nearly blind?",331,1.424,85,376286.7999999523,q,S,2998.4000000953674,381228.0,HRV,HRV_0010,2022-11-30 17:46:53
Pieces of Skylab fell there,1,"Why did the Shire of Esperance, in Western Australia, issue the United States a $400 fine for littering in 1979?",391,0.918,86,381228.09999990463,q,S,1861.6000001430511,384529.89999985695,HRV,HRV_0010,2022-11-30 17:46:53
Speed of wind,5,What does an anemometer measure? ,168,0.901,87,384529.89999985695,q,S,1822.2000000476837,387765.59999990463,HRV,HRV_0010,2022-11-30 17:46:53
Brine Shrimp ,5,"What kind of animal is Artemia Salina, the ""sea monkey"" of novelty pet ad fame? ",222,1.942,88,387765.7000000477,q,S,2989.899999856949,393220.7999999523,HRV,HRV_0010,2022-11-30 17:46:53
Lou Gehrig,2,"In 1934, five years before his retirement, who became the first athlete to appear on a Wheaties box? ",53,1.299,89,393220.7999999523,q,S,2057.5,397095.2999999523,HRV,HRV_0010,2022-11-30 17:46:53
Ian Thorpe ,5,Who outgrew a childhood chlorine allergy to become the biggest Olympic medal winner in Australian history? ,370,1.561,90,397095.39999985695,q,S,2350.100000143051,401517.09999990463,HRV,HRV_0010,2022-11-30 17:46:53
Tea leaves,2,Tasseomancy is a method of fortune telling that primarily uses what? ,418,1.625,91,401517.2000000477,q,S,1763.8999998569489,405435.7999999523,HRV,HRV_0010,2022-11-30 17:46:53
Criss-Cross ,2,What was the game of Scrabble originally called? ,286,0.691,92,405435.7999999523,q,S,1928.5999999046326,408584.0,HRV,HRV_0010,2022-11-30 17:46:53
Texas,6,"In what state was the U.S.'s first ""Adopt-a-Highway"" program started?",67,1.094,93,408584.0,q,S,1537.7000000476837,411753.2000000477,HRV,HRV_0010,2022-11-30 17:46:53
Blue,7,Lobster blood is what color?,73,1.095,94,411753.2000000477,p,K,3599.199999809265,416976.89999985695,HRV,HRV_0010,2022-11-30 17:46:53
Michael Dell,7,What founder of PCs Limited went on to become the youngest Fortune 500 CEO in history?,180,1.226,95,416977.0,q,S,1882.7999999523163,420619.2999999523,HRV,HRV_0010,2022-11-30 17:46:53
Mars,1,Where did the Beagle 2 crash and disappear on Christmas Day 2003?  ,316,0.695,96,420619.2999999523,q,S,1926.7999999523163,423765.0,HRV,HRV_0010,2022-11-30 17:46:53
Teapot Dome scandal,6,Albert Fall became the first US cabinet officer to serve jail time for his part in what scandal? ,19,1.216,97,423765.0,q,S,1735.2999999523163,427228.7999999523,HRV,HRV_0010,2022-11-30 17:46:53
Owl,1,"Which animal has tubular shaped eyeballs, which therefore cannot move?  ",325,0.996,98,427228.7999999523,q,S,2265.5,431025.0,HRV,HRV_0010,2022-11-30 17:46:53
A sneeze,1,The air expelled from what can travel at 100 mph?,90,1.939,99,431025.0,q,S,1593.2999999523163,435077.0,HRV,HRV_0010,2022-11-30 17:46:53
USA,7,Which country invented volleyball?   ,340,1.802,100,435077.0,q,S,1757.7000000476837,439156.5,HRV,HRV_0010,2022-11-30 17:46:53
Oxygen,7,"By a wide margin (more than 3:2), what's the most abundant element in the Earth's crust?",28,0.842,101,439156.5,q,S,4252.0,444762.7000000477,HRV,HRV_0010,2022-11-30 17:46:53
School buses were painted yellow,3,A conference on safety held at Columbia University's Teacher College in 1939 led to what change? ,9,1.473,102,444762.7999999523,q,S,1507.7999999523163,448263.39999985695,HRV,HRV_0010,2022-11-30 17:46:53
Claudius,6,Which Roman emperor had a speech impediment?  ,351,0.925,103,448263.5,q,S,1755.5999999046326,451481.39999985695,HRV,HRV_0010,2022-11-30 17:46:53
Woodrow Wilson ,2,"Which U.S. president declared the first national ""Mother's Day""?  ",355,1.533,104,451481.39999985695,q,S,1645.1000001430511,455176.09999990463,HRV,HRV_0010,2022-11-30 17:46:53
Bouquet,7,"Young wines are said to have ""aroma."" What do older wines have instead?",395,0.76,105,455176.09999990463,q,S,3082.2999999523163,459552.5,HRV,HRV_0010,2022-11-30 17:46:53
8 Mile Road ,6,"What road, which names a 2002 film, divides Wayne County from affluent Oakland and Maycomb Counties?",254,1.784,106,459552.59999990463,q,S,2418.100000143051,464269.2999999523,HRV,HRV_0010,2022-11-30 17:46:53
France,4,"What country launched Europe's first super-high-speed passenger train, in 1981?",159,0.53,107,464269.2999999523,q,S,1764.2999999523163,467094.2999999523,HRV,HRV_0010,2022-11-30 17:46:53
Ear ,3,"The pinna is the outer, visible part of what?",103,1.301,108,467094.2999999523,q,S,2001.0999999046326,470929.0,HRV,HRV_0010,2022-11-30 17:46:53
Anaconda,3,Which species of snake gives birth to its young instead of laying eggs?  ,353,1.931,109,470929.09999990463,q,S,2890.7999999523163,476259.39999985695,HRV,HRV_0010,2022-11-30 17:46:53
Don Adams,5,Who provided the voice for cartoon character Inspector Gadget? ,372,1.467,110,476259.5,q,S,1615.0999999046326,479871.7999999523,HRV,HRV_0010,2022-11-30 17:46:53
Koala,2,"What animal, which eighteenth century settlers called a ""native bear"" has two opposable thumbs on each hand?",134,1.408,111,479871.7999999523,q,S,2511.2999999523163,484323.7999999523,HRV,HRV_0010,2022-11-30 17:46:53
Peregrine falcon,6,"With its 240 mph hunting dive, what species of raptor is the fastest animal on earth?",60,1.644,112,484323.89999985695,q,S,3348.300000190735,489829.0,HRV,HRV_0010,2022-11-30 17:46:53
"Third finger, left hand ",6,What part of his body did Keith Richards insure for a million pounds?,243,1.372,113,489829.09999990463,q,S,1848.1000001430511,493567.2000000477,HRV,HRV_0010,2022-11-30 17:46:53
Fiber is the gut bacteria's preferred fuel source. ,4,What food is most beneficial for your gut bacteria?,458,1.62,114,493567.2000000477,q,S,1799.8999998569489,497529.89999985695,HRV,HRV_0010,2022-11-30 17:46:53
The Commodore 64 ,4,What 1982 successor to the VIC-20 is still the bestselling computer model of all time?,124,0.635,115,497529.89999985695,q,S,1668.7000000476837,500367.7999999523,HRV,HRV_0010,2022-11-30 17:46:53
George Marshall,1,What future secretary of state became America's first five-star general in December 1944? ,181,1.894,116,500367.89999985695,q,S,2066.2000000476837,504862.89999985695,HRV,HRV_0010,2022-11-30 17:46:53
Juvenile deliquent,3,What did popular author J.D. Salinger reveal the first two intials in his name to stand for?  ,163,1.702,117,504863.0,q,S,3441.7999999523163,510524.89999985695,HRV,HRV_0010,2022-11-30 17:46:53
Copperhead snake,6,Which poisonous snake smells like fresh cut cucumbers? ,350,0.809,118,510524.89999985695,q,S,1672.7000000476837,513525.7999999523,HRV,HRV_0010,2022-11-30 17:46:53
Rat,3,Which animal can go longer without water than a camel can? ,323,1.097,119,513525.7999999523,q,S,3241.2999999523163,518378.7000000477,HRV,HRV_0010,2022-11-30 17:46:53
Avocado,1,Pet parrots can eat most human foods except chocolate and which pitted food?  ,398,1.816,120,518378.7999999523,q,S,2994.2000000476837,523699.2000000477,HRV,HRV_0010,2022-11-30 17:46:53
Martin Luther King Jr. ,7,What civil rights leader did Dorothy Parker leave the bulk of her estate to?,149,1.935,121,523699.2999999523,q,S,1604.7000000476837,527777.2999999523,HRV,HRV_0010,2022-11-30 17:46:53
Germany,7,Which European country was the first to produce decaffeinated coffee? ,412,1.745,122,527777.2999999523,q,S,1742.5,531807.2999999523,HRV,HRV_0010,2022-11-30 17:46:53
Mushrooms which have been exposed to light,4,What is the only non-animal natural source of vitamin D?,459,1.486,123,531807.2999999523,q,S,2062.0,535877.2000000477,HRV,HRV_0010,2022-11-30 17:46:53
Asparagus,4,what vegetable loses its flavour the quickest?,451,1.662,124,535877.2000000477,q,S,1826.5999999046326,539879.7000000477,HRV,HRV_0010,2022-11-30 17:46:53
Boston Tea Party,6,"The Dartmouth, the Eleanor,  and the Beaver were the three ships on which what famous event from American history occurred?",94,1.427,125,539879.7000000477,q,S,2820.5,544653.7999999523,HRV,HRV_0010,2022-11-30 17:46:53
Peanuts ,4,What snack food is an ingredient in the explosive dynamite?  ,408,1.049,126,544653.7999999523,q,S,3018.5999999046326,549239.0,HRV,HRV_0010,2022-11-30 17:46:53
Betty Rubble,4,Which core Flintstones cast member was absent from Flintstone vitamins until 1996? ,337,1.133,127,549239.0,q,S,2276.899999856949,553181.7999999523,HRV,HRV_0010,2022-11-30 17:46:53
Temple Prostitute,6,"Anciently, what was the job description of a ""hierodule""?",21,0.927,128,553181.7999999523,q,S,2501.7000000476837,557135.7000000477,HRV,HRV_0010,2022-11-30 17:46:53
A mine shaft passage,2,What is an adit?  ,197,1.01,129,557135.7000000477,q,S,1620.1999998092651,560288.7000000477,HRV,HRV_0010,2022-11-30 17:46:53
Quotations ,4,What did the letter Q originally stand for in NASDAQ?  ,165,0.595,130,560288.7999999523,q,S,1724.2000000476837,563123.5999999046,HRV,HRV_0010,2022-11-30 17:46:53
Shaving,1,"The average male spends 2,965 hours doing what over the course of his lifetime?",92,1.054,131,563123.5999999046,q,S,3872.4000000953674,568582.2999999523,HRV,HRV_0010,2022-11-30 17:46:53
Apples. They don't have caffeine but the natural sugar and vitamins release slowly and make you feel more awake. ,7,Whice fruit is effective than coffee at waking you up in the morning?,454,1.714,132,568582.399999857,q,S,2661.300000190735,573488.0,HRV,HRV_0010,2022-11-30 17:46:53
Traffic lights,4,"Thimpu, the capital of Bhutan, is known for being the only world capital without any what?",113,1.353,133,573488.0,q,S,2864.399999856949,578235.5,HRV,HRV_0010,2022-11-30 17:46:53
Joan of Arc's ,3,"Whose remains were thrown in the Seine River on May 30, 1431? ",389,0.894,134,578235.5,q,S,1694.0999999046326,581341.399999857,HRV,HRV_0010,2022-11-30 17:46:53
"Puffer fish, if they are prepared incorrectly thheir poison could kill the eater. ",4,Cooking which food requires over two years of training?,461,0.532,135,581341.399999857,q,S,1796.1000001430511,584187.5999999046,HRV,HRV_0010,2022-11-30 17:46:53
Dutch Oven,3,"What kind of ""oven"" is the official state cooking pot of Utah? ",220,1.582,136,584187.5999999046,q,S,1863.2999999523163,588161.7999999523,HRV,HRV_0010,2022-11-30 17:46:53
Teeth,7,"One in every 2,000 babies is born with what? ",77,1.474,137,588161.7999999523,q,S,1543.4000000953674,591699.399999857,HRV,HRV_0010,2022-11-30 17:46:53
Bed ,1,"Shakespeare mentioned his wife only once in his will, making her the odd bequest of his ""second best"" what? ",82,1.979,138,591699.5,q,S,3421.2999999523163,597624.5999999046,HRV,HRV_0010,2022-11-30 17:46:53
lobster,3,Which expensive restaurant item used to be fed to pisinors and servants?,449,0.935,139,597624.5999999046,q,S,1645.7000000476837,600727.5,HRV,HRV_0010,2022-11-30 17:46:53
