trialN,stimuli,trialStartTime,trialStartTime_UNIX,stimulus1,stimulus2,stimulus1Bid,stimulus2Bid,delta,selected,rt,rt_UNIX,rt_perfnow,receivedResponse,rsp,trialEndTime,trialDuration,trialEndTime_UNIX,trialDuration_UNIX,exp,subjectId,date
0,"[{'imgObject': {}, 'id': 'yogurt no spoon', 'src': '/static/foodstim60/yogurt no spoon.jpg', 'key': 'u', 'origWidth': 411, 'origHeight': 410, 'width': 411, 'height': 410, 'widthPercent': 0.45, 'rescaleHeight': False, 'trialN': 0, 'loaded': True, 'loadedTime': 2692.4000000953674, 'positionName': 'LEFT', 'positionCoords': [357.48, 245], 'bid': 4.33}, {'imgObject': {}, 'id': 'Grapes', 'src': '/static/foodstim60/Grapes.jpg', 'key': 'i', 'origWidth': 411, 'origHeight': 411, 'width': 411, 'height': 411, 'widthPercent': 0.45, 'rescaleHeight': False, 'trialN': 0, 'loaded': True, 'loadedTime': 2741.4000000953674, 'positionName': 'RIGHT', 'positionCoords': [832.52, 244.5], 'bid': 4.18}]",2872.7000000476837,1669829317159,yogurt no spoon,Grapes,4.33,4.18,-0.15000000000000036,yogurt no spoon,1836.2000000476837,1837,1836.9000000953674,True,u,5218.0,2345.2999999523163,1669829319505,2346,HRV,HRV_0010,2022-11-30 17:34:11
1,"[{'imgObject': {}, 'id': 'cherry tomato', 'src': '/static/foodstim60/cherry tomato.jpg', 'key': 'u', 'origWidth': 410, 'origHeight': 410, 'width': 410, 'height': 410, 'widthPercent': 0.45, 'rescaleHeight': False, 'trialN': 1, 'loaded': True, 'loadedTime': 2743.4000000953674, 'positionName': 'LEFT', 'positionCoords': [358.48, 245], 'bid': 4.78}, {'imgObject': {}, 'id': 'olives', 'src': '/static/foodstim60/olives.jpg', 'key': 'i', 'origWidth': 410, 'origHeight': 410, 'width': 410, 'height': 410, 'widthPercent': 0.45, 'rescaleHeight': False, 'trialN': 1, 'loaded': True, 'loadedTime': 2760.600000143051, 'positionName': 'RIGHT', 'positionCoords': [832.52, 245], 'bid': 4.05}]",5218.400000095367,1669829319505,cherry tomato,olives,4.78,4.05,-0.7300000000000004,olives,1228.4000000953674,1229,1228.9000000953674,True,i,6959.600000143051,1741.2000000476837,1669829321246,1741,HRV,HRV_0010,2022-11-30 17:34:11
2,"[{'imgObject': {}, 'id': 'lox', 'src': '/static/foodstim60/lox.jpg', 'key': 'u', 'origWidth': 410, 'origHeight': 411, 'width': 410, 'height': 411, 'widthPercent': 0.45, 'rescaleHeight': False, 'trialN': 2, 'loaded': True, 'loadedTime': 2761.800000190735, 'positionName': 'LEFT', 'positionCoords': [358.48, 244.5], 'bid': 2.18}, {'imgObject': {}, 'id': 'cherries', 'src': '/static/foodstim60/cherries.jpg', 'key': 'i', 'origWidth': 410, 'origHeight': 411, 'width': 410, 'height': 411, 'widthPercent': 0.45, 'rescaleHeight': False, 'trialN': 2, 'loaded': True, 'loadedTime': 2763.4000000953674, 'positionName': 'RIGHT', 'positionCoords': [832.52, 244.5], 'bid': 7.0600000000000005}]",6960.0,1669829321247,lox,cherries,2.18,7.0600000000000005,4.880000000000001,cherries,910.5,911,911.0,True,i,8386.300000190735,1426.3000001907349,1669829322673,1426,HRV,HRV_0010,2022-11-30 17:34:11
3,"[{'imgObject': {}, 'id': 'rigatoni', 'src': '/static/foodstim60/rigatoni.jpg', 'key': 'u', 'origWidth': 411, 'origHeight': 411, 'width': 411, 'height': 411, 'widthPercent': 0.45, 'rescaleHeight': False, 'trialN': 3, 'loaded': True, 'loadedTime': 2771.4000000953674, 'positionName': 'LEFT', 'positionCoords': [357.48, 244.5], 'bid': 6.61}, {'imgObject': {}, 'id': 'roastedpotatoes', 'src': '/static/foodstim60/roastedpotatoes.jpg', 'key': 'i', 'origWidth': 409, 'origHeight': 410, 'width': 409, 'height': 410, 'widthPercent': 0.45, 'rescaleHeight': False, 'trialN': 3, 'loaded': True, 'loadedTime': 2772.9000000953674, 'positionName': 'RIGHT', 'positionCoords': [832.52, 245], 'bid': 7.390000000000001}]",8386.5,1669829322673,rigatoni,roastedpotatoes,6.61,7.390000000000001,0.7800000000000002,roastedpotatoes,1312.3000001907349,1313,1312.8000001907349,True,i,10204.600000143051,1818.1000001430511,1669829324491,1818,HRV,HRV_0010,2022-11-30 17:34:11
4,"[{'imgObject': {}, 'id': 'edamame', 'src': '/static/foodstim60/edamame.jpg', 'key': 'u', 'origWidth': 409, 'origHeight': 410, 'width': 409, 'height': 410, 'widthPercent': 0.45, 'rescaleHeight': False, 'trialN': 4, 'loaded': True, 'loadedTime': 2773.800000190735, 'positionName': 'LEFT', 'positionCoords': [359.48, 245], 'bid': 8.21}, {'imgObject': {}, 'id': 'mango', 'src': '/static/foodstim60/mango.jpg', 'key': 'i', 'origWidth': 411, 'origHeight': 411, 'width': 411, 'height': 411, 'widthPercent': 0.45, 'rescaleHeight': False, 'trialN': 4, 'loaded': True, 'loadedTime': 2813.100000143051, 'positionName': 'RIGHT', 'positionCoords': [832.52, 244.5], 'bid': 6.21}]",10204.800000190735,1669829324492,edamame,mango,8.21,6.21,-2.000000000000001,edamame,1160.5999999046326,1161,1161.0999999046326,True,u,11869.400000095367,1664.5999999046326,1669829326156,1664,HRV,HRV_0010,2022-11-30 17:34:11
5,"[{'imgObject': {}, 'id': 'roastedpotatoes', 'src': '/static/foodstim60/roastedpotatoes.jpg', 'key': 'u', 'origWidth': 409, 'origHeight': 410, 'width': 409, 'height': 410, 'widthPercent': 0.45, 'rescaleHeight': False, 'trialN': 5, 'loaded': True, 'loadedTime': 2772.4000000953674, 'positionName': 'LEFT', 'positionCoords': [359.48, 245], 'bid': 7.390000000000001}, {'imgObject': {}, 'id': 'raisin bran w milk', 'src': '/static/foodstim60/raisin bran w milk.jpg', 'key': 'i', 'origWidth': 411, 'origHeight': 411, 'width': 411, 'height': 411, 'widthPercent': 0.45, 'rescaleHeight': False, 'trialN': 5, 'loaded': True, 'loadedTime': 2813.2000000476837, 'positionName': 'RIGHT', 'positionCoords': [832.52, 244.5], 'bid': 7.67}]",11869.600000143051,1669829326156,roastedpotatoes,raisin bran w milk,7.390000000000001,7.67,0.27999999999999936,raisin bran w milk,1006.3999998569489,1007,1006.7999999523163,True,i,13380.5,1510.8999998569489,1669829327667,1511,HRV,HRV_0010,2022-11-30 17:34:11
6,"[{'imgObject': {}, 'id': 'tacos', 'src': '/static/foodstim60/tacos.jpg', 'key': 'u', 'origWidth': 411, 'origHeight': 411, 'width': 411, 'height': 411, 'widthPercent': 0.45, 'rescaleHeight': False, 'trialN': 6, 'loaded': True, 'loadedTime': 2824.100000143051, 'positionName': 'LEFT', 'positionCoords': [357.48, 244.5], 'bid': 6.48}, {'imgObject': {}, 'id': 'blackbeanswithrice', 'src': '/static/foodstim60/blackbeanswithrice.jpg', 'key': 'i', 'origWidth': 410, 'origHeight': 410, 'width': 410, 'height': 410, 'widthPercent': 0.45, 'rescaleHeight': False, 'trialN': 6, 'loaded': True, 'loadedTime': 2747.4000000953674, 'positionName': 'RIGHT', 'positionCoords': [832.52, 245], 'bid': 5.03}]",13380.800000190735,1669829327667,tacos,blackbeanswithrice,6.48,5.03,-1.4500000000000002,tacos,978.7999999523163,980,979.3999998569489,True,u,14878.900000095367,1498.0999999046326,1669829329166,1499,HRV,HRV_0010,2022-11-30 17:34:11
7,"[{'imgObject': {}, 'id': 'luckycharms', 'src': '/static/foodstim60/luckycharms.jpg', 'key': 'u', 'origWidth': 410, 'origHeight': 409, 'width': 410, 'height': 409, 'widthPercent': 0.45, 'rescaleHeight': False, 'trialN': 7, 'loaded': True, 'loadedTime': 2749.4000000953674, 'positionName': 'LEFT', 'positionCoords': [358.48, 245.5], 'bid': 6.8}, {'imgObject': {}, 'id': 'mac & cheese', 'src': '/static/foodstim60/mac & cheese.jpg', 'key': 'i', 'origWidth': 410, 'origHeight': 410, 'width': 410, 'height': 410, 'widthPercent': 0.45, 'rescaleHeight': False, 'trialN': 7, 'loaded': True, 'loadedTime': 2751.600000143051, 'positionName': 'RIGHT', 'positionCoords': [832.52, 245], 'bid': 8.870000000000001}]",14879.200000047684,1669829329166,luckycharms,mac & cheese,6.8,8.870000000000001,2.070000000000001,mac & cheese,1289.7000000476837,1290,1290.2000000476837,True,i,16675.5,1796.2999999523163,1669829330962,1796,HRV,HRV_0010,2022-11-30 17:34:11
8,"[{'imgObject': {}, 'id': 'olives', 'src': '/static/foodstim60/olives.jpg', 'key': 'u', 'origWidth': 410, 'origHeight': 410, 'width': 410, 'height': 410, 'widthPercent': 0.45, 'rescaleHeight': False, 'trialN': 8, 'loaded': True, 'loadedTime': 2760.300000190735, 'positionName': 'LEFT', 'positionCoords': [358.48, 245], 'bid': 4.05}, {'imgObject': {}, 'id': 'rigatoni and sauce', 'src': '/static/foodstim60/rigatoni and sauce.jpg', 'key': 'i', 'origWidth': 410, 'origHeight': 411, 'width': 410, 'height': 411, 'widthPercent': 0.45, 'rescaleHeight': False, 'trialN': 8, 'loaded': True, 'loadedTime': 2755.5, 'positionName': 'RIGHT', 'positionCoords': [832.52, 244.5], 'bid': 7.76}]",16675.800000190735,1669829330963,olives,rigatoni and sauce,4.05,7.76,3.71,rigatoni and sauce,705.5999999046326,706,706.0999999046326,True,i,17891.800000190735,1216.0,1669829332178,1215,HRV,HRV_0010,2022-11-30 17:34:11
9,"[{'imgObject': {}, 'id': 'froot loops w milk', 'src': '/static/foodstim60/froot loops w milk.jpg', 'key': 'u', 'origWidth': 410, 'origHeight': 410, 'width': 410, 'height': 410, 'widthPercent': 0.45, 'rescaleHeight': False, 'trialN': 9, 'loaded': True, 'loadedTime': 2756.9000000953674, 'positionName': 'LEFT', 'positionCoords': [358.48, 245], 'bid': 6.99}, {'imgObject': {}, 'id': 'cheerios', 'src': '/static/foodstim60/cheerios.jpg', 'key': 'i', 'origWidth': 409, 'origHeight': 410, 'width': 409, 'height': 410, 'widthPercent': 0.45, 'rescaleHeight': False, 'trialN': 9, 'loaded': True, 'loadedTime': 2759.100000143051, 'positionName': 'RIGHT', 'positionCoords': [832.52, 245], 'bid': 6.86}]",17892.0,1669829332179,froot loops w milk,cheerios,6.99,6.86,-0.1299999999999999,cheerios,1467.6000001430511,1468,1468.2000000476837,True,i,19861.60000014305,1969.6000001430511,1669829334148,1969,HRV,HRV_0010,2022-11-30 17:34:11
10,"[{'imgObject': {}, 'id': 'eggs', 'src': '/static/foodstim60/eggs.jpg', 'key': 'u', 'origWidth': 409, 'origHeight': 409, 'width': 409, 'height': 409, 'widthPercent': 0.45, 'rescaleHeight': False, 'trialN': 10, 'loaded': True, 'loadedTime': 2764.4000000953674, 'positionName': 'LEFT', 'positionCoords': [359.48, 245.5], 'bid': 2.23}, {'imgObject': {}, 'id': 'lox', 'src': '/static/foodstim60/lox.jpg', 'key': 'i', 'origWidth': 410, 'origHeight': 411, 'width': 410, 'height': 411, 'widthPercent': 0.45, 'rescaleHeight': False, 'trialN': 10, 'loaded': True, 'loadedTime': 2762.2000000476837, 'positionName': 'RIGHT', 'positionCoords': [832.52, 244.5], 'bid': 2.18}]",19861.800000190735,1669829334149,eggs,lox,2.23,2.18,-0.04999999999999982,eggs,1202.6999998092651,1203,1203.1999998092651,True,u,21581.300000190735,1719.5,1669829335868,1719,HRV,HRV_0010,2022-11-30 17:34:11
11,"[{'imgObject': {}, 'id': 'ice cream sundae 002', 'src': '/static/foodstim60/ice cream sundae 002.jpg', 'key': 'u', 'origWidth': 409, 'origHeight': 409, 'width': 409, 'height': 409, 'widthPercent': 0.45, 'rescaleHeight': False, 'trialN': 11, 'loaded': True, 'loadedTime': 2765.4000000953674, 'positionName': 'LEFT', 'positionCoords': [359.48, 245.5], 'bid': 10}, {'imgObject': {}, 'id': 'roastedpotatoes', 'src': '/static/foodstim60/roastedpotatoes.jpg', 'key': 'i', 'origWidth': 409, 'origHeight': 410, 'width': 409, 'height': 410, 'widthPercent': 0.45, 'rescaleHeight': False, 'trialN': 11, 'loaded': True, 'loadedTime': 2773.100000143051, 'positionName': 'RIGHT', 'positionCoords': [832.52, 245], 'bid': 7.390000000000001}]",21581.60000014305,1669829335868,ice cream sundae 002,roastedpotatoes,10.0,7.390000000000001,-2.6099999999999994,ice cream sundae 002,736.7999999523163,738,737.2000000476837,True,u,22841.5,1259.8999998569489,1669829337128,1260,HRV,HRV_0010,2022-11-30 17:34:11
12,"[{'imgObject': {}, 'id': 'seaweed', 'src': '/static/foodstim60/seaweed.jpg', 'key': 'u', 'origWidth': 410, 'origHeight': 410, 'width': 410, 'height': 410, 'widthPercent': 0.45, 'rescaleHeight': False, 'trialN': 12, 'loaded': True, 'loadedTime': 2766.2000000476837, 'positionName': 'LEFT', 'positionCoords': [358.48, 245], 'bid': 4.91}, {'imgObject': {}, 'id': 'hashbrowns', 'src': '/static/foodstim60/hashbrowns.jpg', 'key': 'i', 'origWidth': 411, 'origHeight': 410, 'width': 411, 'height': 410, 'widthPercent': 0.45, 'rescaleHeight': False, 'trialN': 12, 'loaded': True, 'loadedTime': 2767.100000143051, 'positionName': 'RIGHT', 'positionCoords': [832.52, 245], 'bid': 4.88}]",22841.700000047684,1669829337128,seaweed,hashbrowns,4.91,4.88,-0.03000000000000025,seaweed,1632.7000000476837,1634,1633.2000000476837,True,u,24991.900000095367,2150.2000000476837,1669829339279,2151,HRV,HRV_0010,2022-11-30 17:34:11
13,"[{'imgObject': {}, 'id': 'Grapes', 'src': '/static/foodstim60/Grapes.jpg', 'key': 'u', 'origWidth': 411, 'origHeight': 411, 'width': 411, 'height': 411, 'widthPercent': 0.45, 'rescaleHeight': False, 'trialN': 13, 'loaded': True, 'loadedTime': 2736.2000000476837, 'positionName': 'LEFT', 'positionCoords': [357.48, 244.5], 'bid': 4.18}, {'imgObject': {}, 'id': 'veggieswithdip', 'src': '/static/foodstim60/veggieswithdip.jpg', 'key': 'i', 'origWidth': 409, 'origHeight': 409, 'width': 409, 'height': 409, 'widthPercent': 0.45, 'rescaleHeight': False, 'trialN': 13, 'loaded': True, 'loadedTime': 2767.5, 'positionName': 'RIGHT', 'positionCoords': [832.52, 245.5], 'bid': 0.62}]",24992.300000190735,1669829339279,Grapes,veggieswithdip,4.18,0.62,-3.5599999999999996,Grapes,1625.3999998569489,1626,1625.7999999523163,True,u,27128.200000047684,2135.899999856949,1669829341415,2136,HRV,HRV_0010,2022-11-30 17:34:11
14,"[{'imgObject': {}, 'id': 'eggs', 'src': '/static/foodstim60/eggs.jpg', 'key': 'u', 'origWidth': 409, 'origHeight': 409, 'width': 409, 'height': 409, 'widthPercent': 0.45, 'rescaleHeight': False, 'trialN': 14, 'loaded': True, 'loadedTime': 2763.600000143051, 'positionName': 'LEFT', 'positionCoords': [359.48, 245.5], 'bid': 2.23}, {'imgObject': {}, 'id': 'yogurt no spoon', 'src': '/static/foodstim60/yogurt no spoon.jpg', 'key': 'i', 'origWidth': 411, 'origHeight': 410, 'width': 411, 'height': 410, 'widthPercent': 0.45, 'rescaleHeight': False, 'trialN': 14, 'loaded': True, 'loadedTime': 2711.100000143051, 'positionName': 'RIGHT', 'positionCoords': [832.52, 245], 'bid': 4.33}]",27128.5,1669829341415,eggs,yogurt no spoon,2.23,4.33,2.1,yogurt no spoon,1711.5,1712,1712.0,True,i,29351.400000095367,2222.9000000953674,1669829343638,2223,HRV,HRV_0010,2022-11-30 17:34:11
15,"[{'imgObject': {}, 'id': 'lox', 'src': '/static/foodstim60/lox.jpg', 'key': 'u', 'origWidth': 410, 'origHeight': 411, 'width': 410, 'height': 411, 'widthPercent': 0.45, 'rescaleHeight': False, 'trialN': 15, 'loaded': True, 'loadedTime': 2762.300000190735, 'positionName': 'LEFT', 'positionCoords': [358.48, 244.5], 'bid': 2.18}, {'imgObject': {}, 'id': 'kiwi', 'src': '/static/foodstim60/kiwi.jpg', 'key': 'i', 'origWidth': 410, 'origHeight': 410, 'width': 410, 'height': 410, 'widthPercent': 0.45, 'rescaleHeight': False, 'trialN': 15, 'loaded': True, 'loadedTime': 2768.300000190735, 'positionName': 'RIGHT', 'positionCoords': [832.52, 245], 'bid': 3.0500000000000003}]",29351.60000014305,1669829343638,lox,kiwi,2.18,3.0500000000000003,0.8700000000000001,kiwi,1784.8999998569489,1786,1785.5,True,i,31656.0,2304.399999856949,1669829345943,2305,HRV,HRV_0010,2022-11-30 17:34:11
16,"[{'imgObject': {}, 'id': 'omelette', 'src': '/static/foodstim60/omelette.jpg', 'key': 'u', 'origWidth': 410, 'origHeight': 409, 'width': 410, 'height': 409, 'widthPercent': 0.45, 'rescaleHeight': False, 'trialN': 16, 'loaded': True, 'loadedTime': 2768.4000000953674, 'positionName': 'LEFT', 'positionCoords': [358.48, 245.5], 'bid': 8.3}, {'imgObject': {}, 'id': 'blueberries', 'src': '/static/foodstim60/blueberries.jpg', 'key': 'i', 'origWidth': 411, 'origHeight': 411, 'width': 411, 'height': 411, 'widthPercent': 0.45, 'rescaleHeight': False, 'trialN': 16, 'loaded': True, 'loadedTime': 2770, 'positionName': 'RIGHT', 'positionCoords': [832.52, 244.5], 'bid': 4.64}]",31656.200000047684,1669829345943,omelette,blueberries,8.3,4.64,-3.660000000000001,omelette,911.4000000953674,912,911.9000000953674,True,u,33088.90000009537,1432.7000000476837,1669829347376,1433,HRV,HRV_0010,2022-11-30 17:34:11
17,"[{'imgObject': {}, 'id': 'burrito', 'src': '/static/foodstim60/burrito.jpg', 'key': 'u', 'origWidth': 410, 'origHeight': 410, 'width': 410, 'height': 410, 'widthPercent': 0.45, 'rescaleHeight': False, 'trialN': 17, 'loaded': True, 'loadedTime': 2770.100000143051, 'positionName': 'LEFT', 'positionCoords': [358.48, 245], 'bid': 3.23}, {'imgObject': {}, 'id': 'kiwi', 'src': '/static/foodstim60/kiwi.jpg', 'key': 'i', 'origWidth': 410, 'origHeight': 410, 'width': 410, 'height': 410, 'widthPercent': 0.45, 'rescaleHeight': False, 'trialN': 17, 'loaded': True, 'loadedTime': 2768.4000000953674, 'positionName': 'RIGHT', 'positionCoords': [832.52, 245], 'bid': 3.0500000000000003}]",33089.10000014305,1669829347376,burrito,kiwi,3.23,3.0500000000000003,-0.17999999999999972,burrito,1180.5999999046326,1181,1181.0,True,u,34771.60000014305,1682.5,1669829349058,1682,HRV,HRV_0010,2022-11-30 17:34:11
18,"[{'imgObject': {}, 'id': 'salad w chicken', 'src': '/static/foodstim60/salad w chicken.jpg', 'key': 'u', 'origWidth': 411, 'origHeight': 411, 'width': 411, 'height': 411, 'widthPercent': 0.45, 'rescaleHeight': False, 'trialN': 18, 'loaded': True, 'loadedTime': 2771.600000143051, 'positionName': 'LEFT', 'positionCoords': [357.48, 244.5], 'bid': 0.05}, {'imgObject': {}, 'id': 'veggieswithdip', 'src': '/static/foodstim60/veggieswithdip.jpg', 'key': 'i', 'origWidth': 409, 'origHeight': 409, 'width': 409, 'height': 409, 'widthPercent': 0.45, 'rescaleHeight': False, 'trialN': 18, 'loaded': True, 'loadedTime': 2767.600000143051, 'positionName': 'RIGHT', 'positionCoords': [832.52, 245.5], 'bid': 0.62}]",34772.0,1669829349059,salad w chicken,veggieswithdip,0.05,0.62,0.57,veggieswithdip,1281.6000001430511,1281,1281.8000001907349,True,i,36571.0,1799.0,1669829350858,1799,HRV,HRV_0010,2022-11-30 17:34:11
19,"[{'imgObject': {}, 'id': 'ice cream sundae 002', 'src': '/static/foodstim60/ice cream sundae 002.jpg', 'key': 'u', 'origWidth': 409, 'origHeight': 409, 'width': 409, 'height': 409, 'widthPercent': 0.45, 'rescaleHeight': False, 'trialN': 19, 'loaded': True, 'loadedTime': 2765.300000190735, 'positionName': 'LEFT', 'positionCoords': [359.48, 245.5], 'bid': 10}, {'imgObject': {}, 'id': 'corn cob', 'src': '/static/foodstim60/corn cob.jpg', 'key': 'i', 'origWidth': 411, 'origHeight': 411, 'width': 411, 'height': 411, 'widthPercent': 0.45, 'rescaleHeight': False, 'trialN': 19, 'loaded': True, 'loadedTime': 2773.7000000476837, 'positionName': 'RIGHT', 'positionCoords': [832.52, 244.5], 'bid': 9.91}]",36571.200000047684,1669829350858,ice cream sundae 002,corn cob,10.0,9.91,-0.08999999999999986,ice cream sundae 002,1227.1000001430511,1228,1227.7999999523163,True,u,38306.200000047684,1735.0,1669829352593,1735,HRV,HRV_0010,2022-11-30 17:34:11
20,"[{'imgObject': {}, 'id': 'blackbeanswithrice', 'src': '/static/foodstim60/blackbeanswithrice.jpg', 'key': 'u', 'origWidth': 410, 'origHeight': 410, 'width': 410, 'height': 410, 'widthPercent': 0.45, 'rescaleHeight': False, 'trialN': 20, 'loaded': True, 'loadedTime': 2746.5, 'positionName': 'LEFT', 'positionCoords': [358.48, 245], 'bid': 5.03}, {'imgObject': {}, 'id': 'raspberries', 'src': '/static/foodstim60/raspberries.jpg', 'key': 'i', 'origWidth': 411, 'origHeight': 411, 'width': 411, 'height': 411, 'widthPercent': 0.45, 'rescaleHeight': False, 'trialN': 20, 'loaded': True, 'loadedTime': 2774.600000143051, 'positionName': 'RIGHT', 'positionCoords': [832.52, 244.5], 'bid': 4.89}]",38306.60000014305,1669829352593,blackbeanswithrice,raspberries,5.03,4.89,-0.14000000000000057,blackbeanswithrice,1317.2000000476837,1318,1317.5999999046326,True,u,40137.0,1830.3999998569489,1669829354424,1831,HRV,HRV_0010,2022-11-30 17:34:11
21,"[{'imgObject': {}, 'id': 'cheerios', 'src': '/static/foodstim60/cheerios.jpg', 'key': 'u', 'origWidth': 409, 'origHeight': 410, 'width': 409, 'height': 410, 'widthPercent': 0.45, 'rescaleHeight': False, 'trialN': 21, 'loaded': True, 'loadedTime': 2758, 'positionName': 'LEFT', 'positionCoords': [359.48, 245], 'bid': 6.86}, {'imgObject': {}, 'id': 'cherries', 'src': '/static/foodstim60/cherries.jpg', 'key': 'i', 'origWidth': 410, 'origHeight': 411, 'width': 410, 'height': 411, 'widthPercent': 0.45, 'rescaleHeight': False, 'trialN': 21, 'loaded': True, 'loadedTime': 2763.5, 'positionName': 'RIGHT', 'positionCoords': [832.52, 244.5], 'bid': 7.0600000000000005}]",40137.200000047684,1669829354424,cheerios,cherries,6.86,7.0600000000000005,0.20000000000000018,cheerios,1394.7000000476837,1395,1395.2000000476837,True,u,42035.800000190735,1898.6000001430511,1669829356323,1899,HRV,HRV_0010,2022-11-30 17:34:11
22,"[{'imgObject': {}, 'id': 'steak', 'src': '/static/foodstim60/steak.jpg', 'key': 'u', 'origWidth': 410, 'origHeight': 410, 'width': 410, 'height': 410, 'widthPercent': 0.45, 'rescaleHeight': False, 'trialN': 22, 'loaded': True, 'loadedTime': 2776, 'positionName': 'LEFT', 'positionCoords': [358.48, 245], 'bid': 0.14}, {'imgObject': {}, 'id': 'apple slices', 'src': '/static/foodstim60/apple slices.jpg', 'key': 'i', 'origWidth': 409, 'origHeight': 410, 'width': 409, 'height': 410, 'widthPercent': 0.45, 'rescaleHeight': False, 'trialN': 22, 'loaded': True, 'loadedTime': 2779.100000143051, 'positionName': 'RIGHT', 'positionCoords': [832.52, 245], 'bid': 6.44}]",42036.10000014305,1669829356323,steak,apple slices,0.14,6.44,6.300000000000001,apple slices,840.0,840,840.5999999046326,True,i,43386.5,1350.3999998569489,1669829357673,1350,HRV,HRV_0010,2022-11-30 17:34:11
23,"[{'imgObject': {}, 'id': 'froot loops w milk', 'src': '/static/foodstim60/froot loops w milk.jpg', 'key': 'u', 'origWidth': 410, 'origHeight': 410, 'width': 410, 'height': 410, 'widthPercent': 0.45, 'rescaleHeight': False, 'trialN': 23, 'loaded': True, 'loadedTime': 2756.600000143051, 'positionName': 'LEFT', 'positionCoords': [358.48, 245], 'bid': 6.99}, {'imgObject': {}, 'id': 'bagel and cc', 'src': '/static/foodstim60/bagel and cc.jpg', 'key': 'i', 'origWidth': 410, 'origHeight': 410, 'width': 410, 'height': 410, 'widthPercent': 0.45, 'rescaleHeight': False, 'trialN': 23, 'loaded': True, 'loadedTime': 2820.7000000476837, 'positionName': 'RIGHT', 'positionCoords': [832.52, 245], 'bid': 9.47}]",43386.700000047684,1669829357673,froot loops w milk,bagel and cc,6.99,9.47,2.4800000000000004,bagel and cc,739.5,740,740.0,True,i,44648.700000047684,1262.0,1669829358935,1262,HRV,HRV_0010,2022-11-30 17:34:11
24,"[{'imgObject': {}, 'id': 'strawberries', 'src': '/static/foodstim60/strawberries.jpg', 'key': 'u', 'origWidth': 410, 'origHeight': 410, 'width': 410, 'height': 410, 'widthPercent': 0.45, 'rescaleHeight': False, 'trialN': 24, 'loaded': True, 'loadedTime': 2821, 'positionName': 'LEFT', 'positionCoords': [358.48, 245], 'bid': 6.26}, {'imgObject': {}, 'id': 'omelette', 'src': '/static/foodstim60/omelette.jpg', 'key': 'i', 'origWidth': 410, 'origHeight': 409, 'width': 410, 'height': 409, 'widthPercent': 0.45, 'rescaleHeight': False, 'trialN': 24, 'loaded': True, 'loadedTime': 2769.2000000476837, 'positionName': 'RIGHT', 'positionCoords': [832.52, 245.5], 'bid': 8.3}]",44648.90000009537,1669829358936,strawberries,omelette,6.26,8.3,2.040000000000001,omelette,859.7999999523163,860,860.2999999523163,True,i,46025.800000190735,1376.9000000953674,1669829360312,1376,HRV,HRV_0010,2022-11-30 17:34:11
25,"[{'imgObject': {}, 'id': 'rigatoni', 'src': '/static/foodstim60/rigatoni.jpg', 'key': 'u', 'origWidth': 411, 'origHeight': 411, 'width': 411, 'height': 411, 'widthPercent': 0.45, 'rescaleHeight': False, 'trialN': 25, 'loaded': True, 'loadedTime': 2771.5, 'positionName': 'LEFT', 'positionCoords': [357.48, 244.5], 'bid': 6.61}, {'imgObject': {}, 'id': 'granola w milk', 'src': '/static/foodstim60/granola w milk.jpg', 'key': 'i', 'origWidth': 410, 'origHeight': 410, 'width': 410, 'height': 410, 'widthPercent': 0.45, 'rescaleHeight': False, 'trialN': 25, 'loaded': True, 'loadedTime': 2825.600000143051, 'positionName': 'RIGHT', 'positionCoords': [832.52, 245], 'bid': 8.69}]",46026.0,1669829360313,rigatoni,granola w milk,6.61,8.69,2.079999999999999,granola w milk,942.4000000953674,943,942.8000001907349,True,i,47475.300000190735,1449.3000001907349,1669829361762,1449,HRV,HRV_0010,2022-11-30 17:34:11
26,"[{'imgObject': {}, 'id': 'raisin bran w milk', 'src': '/static/foodstim60/raisin bran w milk.jpg', 'key': 'u', 'origWidth': 411, 'origHeight': 411, 'width': 411, 'height': 411, 'widthPercent': 0.45, 'rescaleHeight': False, 'trialN': 26, 'loaded': True, 'loadedTime': 2814.100000143051, 'positionName': 'LEFT', 'positionCoords': [357.48, 244.5], 'bid': 7.67}, {'imgObject': {}, 'id': 'salmon', 'src': '/static/foodstim60/salmon.jpg', 'key': 'i', 'origWidth': 410, 'origHeight': 409, 'width': 410, 'height': 409, 'widthPercent': 0.45, 'rescaleHeight': False, 'trialN': 26, 'loaded': True, 'loadedTime': 2827.600000143051, 'positionName': 'RIGHT', 'positionCoords': [832.52, 245.5], 'bid': 8.92}]",47475.40000009537,1669829361762,raisin bran w milk,salmon,7.67,8.92,1.25,raisin bran w milk,1269.9000000953674,1271,1270.4000000953674,True,u,49258.300000190735,1782.9000000953674,1669829363545,1783,HRV,HRV_0010,2022-11-30 17:34:11
27,"[{'imgObject': {}, 'id': 'bagel plain', 'src': '/static/foodstim60/bagel plain.jpg', 'key': 'u', 'origWidth': 410, 'origHeight': 410, 'width': 410, 'height': 410, 'widthPercent': 0.45, 'rescaleHeight': False, 'trialN': 27, 'loaded': True, 'loadedTime': 2830.4000000953674, 'positionName': 'LEFT', 'positionCoords': [358.48, 245], 'bid': 8.3}, {'imgObject': {}, 'id': 'apple slices', 'src': '/static/foodstim60/apple slices.jpg', 'key': 'i', 'origWidth': 409, 'origHeight': 410, 'width': 409, 'height': 410, 'widthPercent': 0.45, 'rescaleHeight': False, 'trialN': 27, 'loaded': True, 'loadedTime': 2776.5, 'positionName': 'RIGHT', 'positionCoords': [832.52, 245], 'bid': 6.44}]",49258.5,1669829363545,bagel plain,apple slices,8.3,6.44,-1.8600000000000003,bagel plain,869.5,870,869.8000001907349,True,u,50647.90000009537,1389.4000000953674,1669829364935,1390,HRV,HRV_0010,2022-11-30 17:34:11
28,"[{'imgObject': {}, 'id': 'turkeysandwich', 'src': '/static/foodstim60/turkeysandwich.jpg', 'key': 'u', 'origWidth': 409, 'origHeight': 409, 'width': 409, 'height': 409, 'widthPercent': 0.45, 'rescaleHeight': False, 'trialN': 28, 'loaded': True, 'loadedTime': 2832.100000143051, 'positionName': 'LEFT', 'positionCoords': [359.48, 245.5], 'bid': 0}, {'imgObject': {}, 'id': 'popsicles', 'src': '/static/foodstim60/popsicles.jpg', 'key': 'i', 'origWidth': 410, 'origHeight': 410, 'width': 410, 'height': 410, 'widthPercent': 0.45, 'rescaleHeight': False, 'trialN': 28, 'loaded': True, 'loadedTime': 2871.4000000953674, 'positionName': 'RIGHT', 'positionCoords': [832.52, 245], 'bid': 2.05}]",50648.10000014305,1669829364935,turkeysandwich,popsicles,0.0,2.05,2.05,popsicles,1395.0,1395,1395.5,True,i,52551.60000014305,1903.5,1669829366838,1903,HRV,HRV_0010,2022-11-30 17:34:11
29,"[{'imgObject': {}, 'id': 'froot loops w milk', 'src': '/static/foodstim60/froot loops w milk.jpg', 'key': 'u', 'origWidth': 410, 'origHeight': 410, 'width': 410, 'height': 410, 'widthPercent': 0.45, 'rescaleHeight': False, 'trialN': 29, 'loaded': True, 'loadedTime': 2757.2000000476837, 'positionName': 'LEFT', 'positionCoords': [358.48, 245], 'bid': 6.99}, {'imgObject': {}, 'id': 'cantaloupe', 'src': '/static/foodstim60/cantaloupe.jpg', 'key': 'i', 'origWidth': 409, 'origHeight': 409, 'width': 409, 'height': 409, 'widthPercent': 0.45, 'rescaleHeight': False, 'trialN': 29, 'loaded': True, 'loadedTime': 2837.300000190735, 'positionName': 'RIGHT', 'positionCoords': [832.52, 245.5], 'bid': 2.14}]",52551.90000009537,1669829366839,froot loops w milk,cantaloupe,6.99,2.14,-4.85,froot loops w milk,991.0999999046326,991,991.5999999046326,True,u,54059.200000047684,1507.2999999523163,1669829368346,1507,HRV,HRV_0010,2022-11-30 17:34:11
30,"[{'imgObject': {}, 'id': 'raspberries', 'src': '/static/foodstim60/raspberries.jpg', 'key': 'u', 'origWidth': 411, 'origHeight': 411, 'width': 411, 'height': 411, 'widthPercent': 0.45, 'rescaleHeight': False, 'trialN': 30, 'loaded': True, 'loadedTime': 2775.2000000476837, 'positionName': 'LEFT', 'positionCoords': [357.48, 244.5], 'bid': 4.89}, {'imgObject': {}, 'id': 'strawberries', 'src': '/static/foodstim60/strawberries.jpg', 'key': 'i', 'origWidth': 410, 'origHeight': 410, 'width': 410, 'height': 410, 'widthPercent': 0.45, 'rescaleHeight': False, 'trialN': 30, 'loaded': True, 'loadedTime': 2822.100000143051, 'positionName': 'RIGHT', 'positionCoords': [832.52, 245], 'bid': 6.26}]",54059.300000190735,1669829368346,raspberries,strawberries,4.89,6.26,1.37,strawberries,1436.0,1436,1436.5,True,i,56013.800000190735,1954.5,1669829370301,1955,HRV,HRV_0010,2022-11-30 17:34:11
31,"[{'imgObject': {}, 'id': 'edamame', 'src': '/static/foodstim60/edamame.jpg', 'key': 'u', 'origWidth': 409, 'origHeight': 410, 'width': 409, 'height': 410, 'widthPercent': 0.45, 'rescaleHeight': False, 'trialN': 31, 'loaded': True, 'loadedTime': 2774.4000000953674, 'positionName': 'LEFT', 'positionCoords': [359.48, 245], 'bid': 8.21}, {'imgObject': {}, 'id': 'bagel plain', 'src': '/static/foodstim60/bagel plain.jpg', 'key': 'i', 'origWidth': 410, 'origHeight': 410, 'width': 410, 'height': 410, 'widthPercent': 0.45, 'rescaleHeight': False, 'trialN': 31, 'loaded': True, 'loadedTime': 2828.5, 'positionName': 'RIGHT', 'positionCoords': [832.52, 245], 'bid': 8.3}]",56014.0,1669829370301,edamame,bagel plain,8.21,8.3,0.08999999999999986,bagel plain,894.5,895,895.0,True,i,57413.40000009537,1399.4000000953674,1669829371700,1399,HRV,HRV_0010,2022-11-30 17:34:11
32,"[{'imgObject': {}, 'id': 'shreddedwheatwithmilk', 'src': '/static/foodstim60/shreddedwheatwithmilk.jpg', 'key': 'u', 'origWidth': 410, 'origHeight': 410, 'width': 410, 'height': 410, 'widthPercent': 0.45, 'rescaleHeight': False, 'trialN': 32, 'loaded': True, 'loadedTime': 2842.600000143051, 'positionName': 'LEFT', 'positionCoords': [358.48, 245], 'bid': 5.69}, {'imgObject': {}, 'id': 'raspberries', 'src': '/static/foodstim60/raspberries.jpg', 'key': 'i', 'origWidth': 411, 'origHeight': 411, 'width': 411, 'height': 411, 'widthPercent': 0.45, 'rescaleHeight': False, 'trialN': 32, 'loaded': True, 'loadedTime': 2775.100000143051, 'positionName': 'RIGHT', 'positionCoords': [832.52, 244.5], 'bid': 4.89}]",57413.60000014305,1669829371700,shreddedwheatwithmilk,raspberries,5.69,4.89,-0.8000000000000007,shreddedwheatwithmilk,1854.0999999046326,1855,1854.5999999046326,True,u,59785.5,2371.899999856949,1669829374072,2372,HRV,HRV_0010,2022-11-30 17:34:11
33,"[{'imgObject': {}, 'id': 'salad w chicken', 'src': '/static/foodstim60/salad w chicken.jpg', 'key': 'u', 'origWidth': 411, 'origHeight': 411, 'width': 411, 'height': 411, 'widthPercent': 0.45, 'rescaleHeight': False, 'trialN': 33, 'loaded': True, 'loadedTime': 2772.4000000953674, 'positionName': 'LEFT', 'positionCoords': [357.48, 244.5], 'bid': 0.05}, {'imgObject': {}, 'id': 'burger', 'src': '/static/foodstim60/burger.jpg', 'key': 'i', 'origWidth': 409, 'origHeight': 409, 'width': 409, 'height': 409, 'widthPercent': 0.45, 'rescaleHeight': False, 'trialN': 33, 'loaded': True, 'loadedTime': 2849, 'positionName': 'RIGHT', 'positionCoords': [832.52, 245.5], 'bid': 0.07}]",59785.60000014305,1669829374073,salad w chicken,burger,0.05,0.07,0.020000000000000004,burger,2823.2000000476837,2823,2823.7000000476837,True,i,63115.300000190735,3329.7000000476837,1669829377402,3329,HRV,HRV_0010,2022-11-30 17:34:11
34,"[{'imgObject': {}, 'id': 'steak', 'src': '/static/foodstim60/steak.jpg', 'key': 'u', 'origWidth': 410, 'origHeight': 410, 'width': 410, 'height': 410, 'widthPercent': 0.45, 'rescaleHeight': False, 'trialN': 34, 'loaded': True, 'loadedTime': 2776, 'positionName': 'LEFT', 'positionCoords': [358.48, 245], 'bid': 0.14}, {'imgObject': {}, 'id': 'olives', 'src': '/static/foodstim60/olives.jpg', 'key': 'i', 'origWidth': 410, 'origHeight': 410, 'width': 410, 'height': 410, 'widthPercent': 0.45, 'rescaleHeight': False, 'trialN': 34, 'loaded': True, 'loadedTime': 2760.4000000953674, 'positionName': 'RIGHT', 'positionCoords': [832.52, 245], 'bid': 4.05}]",63116.0,1669829377403,steak,olives,0.14,4.05,3.9099999999999997,olives,1162.4000000953674,1163,1162.9000000953674,True,i,64798.40000009537,1682.4000000953674,1669829379085,1682,HRV,HRV_0010,2022-11-30 17:34:11
35,"[{'imgObject': {}, 'id': 'corn cob', 'src': '/static/foodstim60/corn cob.jpg', 'key': 'u', 'origWidth': 411, 'origHeight': 411, 'width': 411, 'height': 411, 'widthPercent': 0.45, 'rescaleHeight': False, 'trialN': 35, 'loaded': True, 'loadedTime': 2773.7000000476837, 'positionName': 'LEFT', 'positionCoords': [357.48, 244.5], 'bid': 9.91}, {'imgObject': {}, 'id': 'mashed potato', 'src': '/static/foodstim60/mashed potato.jpg', 'key': 'i', 'origWidth': 409, 'origHeight': 409, 'width': 409, 'height': 409, 'widthPercent': 0.45, 'rescaleHeight': False, 'trialN': 35, 'loaded': True, 'loadedTime': 2849.9000000953674, 'positionName': 'RIGHT', 'positionCoords': [832.52, 245.5], 'bid': 5.23}]",64798.60000014305,1669829379085,corn cob,mashed potato,9.91,5.23,-4.68,corn cob,1150.5,1152,1151.0999999046326,True,u,66464.0,1665.3999998569489,1669829380751,1666,HRV,HRV_0010,2022-11-30 17:34:11
36,"[{'imgObject': {}, 'id': 'orange slices', 'src': '/static/foodstim60/orange slices.jpg', 'key': 'u', 'origWidth': 409, 'origHeight': 410, 'width': 409, 'height': 410, 'widthPercent': 0.45, 'rescaleHeight': False, 'trialN': 36, 'loaded': True, 'loadedTime': 2851.2000000476837, 'positionName': 'LEFT', 'positionCoords': [359.48, 245], 'bid': 4.11}, {'imgObject': {}, 'id': 'turkey sandwich', 'src': '/static/foodstim60/turkey sandwich.jpg', 'key': 'i', 'origWidth': 409, 'origHeight': 409, 'width': 409, 'height': 409, 'widthPercent': 0.45, 'rescaleHeight': False, 'trialN': 36, 'loaded': True, 'loadedTime': 2852.300000190735, 'positionName': 'RIGHT', 'positionCoords': [832.52, 245.5], 'bid': 0.25}]",66464.20000004768,1669829380751,orange slices,turkey sandwich,4.11,0.25,-3.8600000000000003,orange slices,1709.9000000953674,1710,1710.1000001430511,True,u,68684.40000009537,2220.2000000476837,1669829382971,2220,HRV,HRV_0010,2022-11-30 17:34:11
37,"[{'imgObject': {}, 'id': 'chicken nuggets2', 'src': '/static/foodstim60/chicken nuggets2.jpg', 'key': 'u', 'origWidth': 410, 'origHeight': 409, 'width': 410, 'height': 409, 'widthPercent': 0.45, 'rescaleHeight': False, 'trialN': 37, 'loaded': True, 'loadedTime': 2854.5, 'positionName': 'LEFT', 'positionCoords': [358.48, 245.5], 'bid': 4.74}, {'imgObject': {}, 'id': 'Tribe humus pita', 'src': '/static/foodstim60/Tribe humus pita.jpg', 'key': 'i', 'origWidth': 411, 'origHeight': 411, 'width': 411, 'height': 411, 'widthPercent': 0.45, 'rescaleHeight': False, 'trialN': 37, 'loaded': True, 'loadedTime': 2855.5, 'positionName': 'RIGHT', 'positionCoords': [832.52, 244.5], 'bid': 4.79}]",68684.60000014305,1669829382971,chicken nuggets2,Tribe humus pita,4.74,4.79,0.04999999999999982,chicken nuggets2,1228.7999999523163,1230,1229.3999998569489,True,u,70429.30000019073,1744.7000000476837,1669829384716,1745,HRV,HRV_0010,2022-11-30 17:34:11
38,"[{'imgObject': {}, 'id': 'grilled chicken strips', 'src': '/static/foodstim60/grilled chicken strips.jpg', 'key': 'u', 'origWidth': 410, 'origHeight': 411, 'width': 410, 'height': 411, 'widthPercent': 0.45, 'rescaleHeight': False, 'trialN': 38, 'loaded': True, 'loadedTime': 2856.7000000476837, 'positionName': 'LEFT', 'positionCoords': [358.48, 244.5], 'bid': 0.08}, {'imgObject': {}, 'id': 'yogurt no spoon', 'src': '/static/foodstim60/yogurt no spoon.jpg', 'key': 'i', 'origWidth': 411, 'origHeight': 410, 'width': 411, 'height': 410, 'widthPercent': 0.45, 'rescaleHeight': False, 'trialN': 38, 'loaded': True, 'loadedTime': 2710.9000000953674, 'positionName': 'RIGHT', 'positionCoords': [832.52, 245], 'bid': 4.33}]",70429.5,1669829384716,grilled chicken strips,yogurt no spoon,0.08,4.33,4.25,yogurt no spoon,876.4000000953674,877,876.8000001907349,True,i,71813.10000014305,1383.6000001430511,1669829386100,1384,HRV,HRV_0010,2022-11-30 17:34:11
39,"[{'imgObject': {}, 'id': 'cheerios', 'src': '/static/foodstim60/cheerios.jpg', 'key': 'u', 'origWidth': 409, 'origHeight': 410, 'width': 409, 'height': 410, 'widthPercent': 0.45, 'rescaleHeight': False, 'trialN': 39, 'loaded': True, 'loadedTime': 2759.100000143051, 'positionName': 'LEFT', 'positionCoords': [359.48, 245], 'bid': 6.86}, {'imgObject': {}, 'id': 'salmon', 'src': '/static/foodstim60/salmon.jpg', 'key': 'i', 'origWidth': 410, 'origHeight': 409, 'width': 410, 'height': 409, 'widthPercent': 0.45, 'rescaleHeight': False, 'trialN': 39, 'loaded': True, 'loadedTime': 2827.600000143051, 'positionName': 'RIGHT', 'positionCoords': [832.52, 245.5], 'bid': 8.92}]",71813.30000019073,1669829386100,cheerios,salmon,6.86,8.92,2.0599999999999996,cheerios,1336.8999998569489,1337,1337.0999999046326,True,u,73662.0,1848.6999998092651,1669829387949,1849,HRV,HRV_0010,2022-11-30 17:34:11
40,"[{'imgObject': {}, 'id': 'mac & cheese', 'src': '/static/foodstim60/mac & cheese.jpg', 'key': 'u', 'origWidth': 410, 'origHeight': 410, 'width': 410, 'height': 410, 'widthPercent': 0.45, 'rescaleHeight': False, 'trialN': 40, 'loaded': True, 'loadedTime': 2752.300000190735, 'positionName': 'LEFT', 'positionCoords': [358.48, 245], 'bid': 8.870000000000001}, {'imgObject': {}, 'id': 'hashbrowns', 'src': '/static/foodstim60/hashbrowns.jpg', 'key': 'i', 'origWidth': 411, 'origHeight': 410, 'width': 411, 'height': 410, 'widthPercent': 0.45, 'rescaleHeight': False, 'trialN': 40, 'loaded': True, 'loadedTime': 2766.800000190735, 'positionName': 'RIGHT', 'positionCoords': [832.52, 245], 'bid': 4.88}]",73662.20000004768,1669829387949,mac & cheese,hashbrowns,8.870000000000001,4.88,-3.990000000000001,mac & cheese,930.0,931,930.5,True,u,75107.60000014305,1445.4000000953674,1669829389394,1445,HRV,HRV_0010,2022-11-30 17:34:11
41,"[{'imgObject': {}, 'id': 'granola w milk', 'src': '/static/foodstim60/granola w milk.jpg', 'key': 'u', 'origWidth': 410, 'origHeight': 410, 'width': 410, 'height': 410, 'widthPercent': 0.45, 'rescaleHeight': False, 'trialN': 41, 'loaded': True, 'loadedTime': 2826.300000190735, 'positionName': 'LEFT', 'positionCoords': [358.48, 245], 'bid': 8.69}, {'imgObject': {}, 'id': 'Tribe humus pita', 'src': '/static/foodstim60/Tribe humus pita.jpg', 'key': 'i', 'origWidth': 411, 'origHeight': 411, 'width': 411, 'height': 411, 'widthPercent': 0.45, 'rescaleHeight': False, 'trialN': 41, 'loaded': True, 'loadedTime': 2855.600000143051, 'positionName': 'RIGHT', 'positionCoords': [832.52, 244.5], 'bid': 4.79}]",75107.90000009537,1669829389395,granola w milk,Tribe humus pita,8.69,4.79,-3.8999999999999995,granola w milk,1046.0999999046326,1046,1046.5999999046326,True,u,76660.60000014305,1552.7000000476837,1669829390947,1552,HRV,HRV_0010,2022-11-30 17:34:11
42,"[{'imgObject': {}, 'id': 'roastedpotatoes', 'src': '/static/foodstim60/roastedpotatoes.jpg', 'key': 'u', 'origWidth': 409, 'origHeight': 410, 'width': 409, 'height': 410, 'widthPercent': 0.45, 'rescaleHeight': False, 'trialN': 42, 'loaded': True, 'loadedTime': 2772.9000000953674, 'positionName': 'LEFT', 'positionCoords': [359.48, 245], 'bid': 7.390000000000001}, {'imgObject': {}, 'id': 'mac & cheese', 'src': '/static/foodstim60/mac & cheese.jpg', 'key': 'i', 'origWidth': 410, 'origHeight': 410, 'width': 410, 'height': 410, 'widthPercent': 0.45, 'rescaleHeight': False, 'trialN': 42, 'loaded': True, 'loadedTime': 2751.2000000476837, 'positionName': 'RIGHT', 'positionCoords': [832.52, 245], 'bid': 8.870000000000001}]",76660.90000009537,1669829390948,roastedpotatoes,mac & cheese,7.390000000000001,8.870000000000001,1.4800000000000004,mac & cheese,2607.0,2607,2607.5999999046326,True,i,79775.70000004768,3114.7999999523163,1669829394062,3114,HRV,HRV_0010,2022-11-30 17:34:11
43,"[{'imgObject': {}, 'id': 'rigatoni', 'src': '/static/foodstim60/rigatoni.jpg', 'key': 'u', 'origWidth': 411, 'origHeight': 411, 'width': 411, 'height': 411, 'widthPercent': 0.45, 'rescaleHeight': False, 'trialN': 43, 'loaded': True, 'loadedTime': 2771.300000190735, 'positionName': 'LEFT', 'positionCoords': [357.48, 244.5], 'bid': 6.61}, {'imgObject': {}, 'id': 'luckycharms', 'src': '/static/foodstim60/luckycharms.jpg', 'key': 'i', 'origWidth': 410, 'origHeight': 409, 'width': 410, 'height': 409, 'widthPercent': 0.45, 'rescaleHeight': False, 'trialN': 43, 'loaded': True, 'loadedTime': 2750, 'positionName': 'RIGHT', 'positionCoords': [832.52, 245.5], 'bid': 6.8}]",79775.90000009537,1669829394063,rigatoni,luckycharms,6.61,6.8,0.1899999999999995,luckycharms,1794.5,1795,1794.9000000953674,True,i,82087.5,2311.5999999046326,1669829396374,2311,HRV,HRV_0010,2022-11-30 17:34:11
44,"[{'imgObject': {}, 'id': 'yogurt no spoon', 'src': '/static/foodstim60/yogurt no spoon.jpg', 'key': 'u', 'origWidth': 411, 'origHeight': 410, 'width': 411, 'height': 410, 'widthPercent': 0.45, 'rescaleHeight': False, 'trialN': 44, 'loaded': True, 'loadedTime': 2711.800000190735, 'positionName': 'LEFT', 'positionCoords': [357.48, 245], 'bid': 4.33}, {'imgObject': {}, 'id': 'edamame', 'src': '/static/foodstim60/edamame.jpg', 'key': 'i', 'origWidth': 409, 'origHeight': 410, 'width': 409, 'height': 410, 'widthPercent': 0.45, 'rescaleHeight': False, 'trialN': 44, 'loaded': True, 'loadedTime': 2774.600000143051, 'positionName': 'RIGHT', 'positionCoords': [832.52, 245], 'bid': 8.21}]",82087.70000004768,1669829396374,yogurt no spoon,edamame,4.33,8.21,3.880000000000001,edamame,1082.5,1083,1082.9000000953674,True,i,83697.60000014305,1609.9000000953674,1669829397984,1610,HRV,HRV_0010,2022-11-30 17:34:11
45,"[{'imgObject': {}, 'id': 'chickenfingers', 'src': '/static/foodstim60/chickenfingers.jpg', 'key': 'u', 'origWidth': 410, 'origHeight': 410, 'width': 410, 'height': 410, 'widthPercent': 0.45, 'rescaleHeight': False, 'trialN': 45, 'loaded': True, 'loadedTime': 2857.800000190735, 'positionName': 'LEFT', 'positionCoords': [358.48, 245], 'bid': 0.03}, {'imgObject': {}, 'id': 'turkey sandwich', 'src': '/static/foodstim60/turkey sandwich.jpg', 'key': 'i', 'origWidth': 409, 'origHeight': 409, 'width': 409, 'height': 409, 'widthPercent': 0.45, 'rescaleHeight': False, 'trialN': 45, 'loaded': True, 'loadedTime': 2853.2000000476837, 'positionName': 'RIGHT', 'positionCoords': [832.52, 245.5], 'bid': 0.25}]",83697.80000019073,1669829397985,chickenfingers,turkey sandwich,0.03,0.25,0.22,chickenfingers,1607.0999999046326,1607,1607.5999999046326,True,u,85811.70000004768,2113.899999856949,1669829400099,2114,HRV,HRV_0010,2022-11-30 17:34:11
46,"[{'imgObject': {}, 'id': 'cheerios', 'src': '/static/foodstim60/cheerios.jpg', 'key': 'u', 'origWidth': 409, 'origHeight': 410, 'width': 409, 'height': 410, 'widthPercent': 0.45, 'rescaleHeight': False, 'trialN': 46, 'loaded': True, 'loadedTime': 2759.600000143051, 'positionName': 'LEFT', 'positionCoords': [359.48, 245], 'bid': 6.86}, {'imgObject': {}, 'id': 'rigatoni and sauce', 'src': '/static/foodstim60/rigatoni and sauce.jpg', 'key': 'i', 'origWidth': 410, 'origHeight': 411, 'width': 410, 'height': 411, 'widthPercent': 0.45, 'rescaleHeight': False, 'trialN': 46, 'loaded': True, 'loadedTime': 2754.600000143051, 'positionName': 'RIGHT', 'positionCoords': [832.52, 244.5], 'bid': 7.76}]",85811.90000009537,1669829400099,cheerios,rigatoni and sauce,6.86,7.76,0.8999999999999995,rigatoni and sauce,3191.5,3192,3192.0999999046326,True,i,89520.5,3708.5999999046326,1669829403807,3708,HRV,HRV_0010,2022-11-30 17:34:11
47,"[{'imgObject': {}, 'id': 'rigatoni', 'src': '/static/foodstim60/rigatoni.jpg', 'key': 'u', 'origWidth': 411, 'origHeight': 411, 'width': 411, 'height': 411, 'widthPercent': 0.45, 'rescaleHeight': False, 'trialN': 47, 'loaded': True, 'loadedTime': 2771.4000000953674, 'positionName': 'LEFT', 'positionCoords': [357.48, 244.5], 'bid': 6.61}, {'imgObject': {}, 'id': 'apple slices', 'src': '/static/foodstim60/apple slices.jpg', 'key': 'i', 'origWidth': 409, 'origHeight': 410, 'width': 409, 'height': 410, 'widthPercent': 0.45, 'rescaleHeight': False, 'trialN': 47, 'loaded': True, 'loadedTime': 2776.100000143051, 'positionName': 'RIGHT', 'positionCoords': [832.52, 245], 'bid': 6.44}]",89521.0,1669829403808,rigatoni,apple slices,6.61,6.44,-0.16999999999999993,rigatoni,1258.3000001907349,1259,1258.8000001907349,True,u,91287.10000014305,1766.1000001430511,1669829405574,1766,HRV,HRV_0010,2022-11-30 17:34:11
48,"[{'imgObject': {}, 'id': 'hashbrowns', 'src': '/static/foodstim60/hashbrowns.jpg', 'key': 'u', 'origWidth': 411, 'origHeight': 410, 'width': 411, 'height': 410, 'widthPercent': 0.45, 'rescaleHeight': False, 'trialN': 48, 'loaded': True, 'loadedTime': 2767, 'positionName': 'LEFT', 'positionCoords': [357.48, 245], 'bid': 4.88}, {'imgObject': {}, 'id': 'mango', 'src': '/static/foodstim60/mango.jpg', 'key': 'i', 'origWidth': 411, 'origHeight': 411, 'width': 411, 'height': 411, 'widthPercent': 0.45, 'rescaleHeight': False, 'trialN': 48, 'loaded': True, 'loadedTime': 2813.2000000476837, 'positionName': 'RIGHT', 'positionCoords': [832.52, 244.5], 'bid': 6.21}]",91287.5,1669829405574,hashbrowns,mango,4.88,6.21,1.33,mango,841.8000001907349,843,842.3000001907349,True,i,92636.40000009537,1348.9000000953674,1669829406923,1349,HRV,HRV_0010,2022-11-30 17:34:11
49,"[{'imgObject': {}, 'id': 'apple slices', 'src': '/static/foodstim60/apple slices.jpg', 'key': 'u', 'origWidth': 409, 'origHeight': 410, 'width': 409, 'height': 410, 'widthPercent': 0.45, 'rescaleHeight': False, 'trialN': 49, 'loaded': True, 'loadedTime': 2779.4000000953674, 'positionName': 'LEFT', 'positionCoords': [359.48, 245], 'bid': 6.44}, {'imgObject': {}, 'id': 'seaweed', 'src': '/static/foodstim60/seaweed.jpg', 'key': 'i', 'origWidth': 410, 'origHeight': 410, 'width': 410, 'height': 410, 'widthPercent': 0.45, 'rescaleHeight': False, 'trialN': 49, 'loaded': True, 'loadedTime': 2765.600000143051, 'positionName': 'RIGHT', 'positionCoords': [832.52, 245], 'bid': 4.91}]",92636.5,1669829406923,apple slices,seaweed,6.44,4.91,-1.5300000000000002,apple slices,1605.5,1606,1606.0,True,u,94751.70000004768,2115.2000000476837,1669829409039,2116,HRV,HRV_0010,2022-11-30 17:34:11
50,"[{'imgObject': {}, 'id': 'mango', 'src': '/static/foodstim60/mango.jpg', 'key': 'u', 'origWidth': 411, 'origHeight': 411, 'width': 411, 'height': 411, 'widthPercent': 0.45, 'rescaleHeight': False, 'trialN': 50, 'loaded': True, 'loadedTime': 2812.5, 'positionName': 'LEFT', 'positionCoords': [357.48, 244.5], 'bid': 6.21}, {'imgObject': {}, 'id': 'grilled chicken strips', 'src': '/static/foodstim60/grilled chicken strips.jpg', 'key': 'i', 'origWidth': 410, 'origHeight': 411, 'width': 410, 'height': 411, 'widthPercent': 0.45, 'rescaleHeight': False, 'trialN': 50, 'loaded': True, 'loadedTime': 2856.600000143051, 'positionName': 'RIGHT', 'positionCoords': [832.52, 244.5], 'bid': 0.08}]",94751.90000009537,1669829409039,mango,grilled chicken strips,6.21,0.08,-6.13,mango,774.4000000953674,775,775.0,True,u,96049.5,1297.5999999046326,1669829410336,1297,HRV,HRV_0010,2022-11-30 17:34:11
51,"[{'imgObject': {}, 'id': 'chicken nuggets2', 'src': '/static/foodstim60/chicken nuggets2.jpg', 'key': 'u', 'origWidth': 410, 'origHeight': 409, 'width': 410, 'height': 409, 'widthPercent': 0.45, 'rescaleHeight': False, 'trialN': 51, 'loaded': True, 'loadedTime': 2854.300000190735, 'positionName': 'LEFT', 'positionCoords': [358.48, 245.5], 'bid': 4.74}, {'imgObject': {}, 'id': 'steak', 'src': '/static/foodstim60/steak.jpg', 'key': 'i', 'origWidth': 410, 'origHeight': 410, 'width': 410, 'height': 410, 'widthPercent': 0.45, 'rescaleHeight': False, 'trialN': 51, 'loaded': True, 'loadedTime': 2775.300000190735, 'positionName': 'RIGHT', 'positionCoords': [832.52, 245], 'bid': 0.14}]",96049.80000019073,1669829410337,chicken nuggets2,steak,4.74,0.14,-4.6000000000000005,chicken nuggets2,837.1999998092651,837,837.5999999046326,True,u,97403.0,1353.1999998092651,1669829411690,1353,HRV,HRV_0010,2022-11-30 17:34:11
52,"[{'imgObject': {}, 'id': 'mashed potato', 'src': '/static/foodstim60/mashed potato.jpg', 'key': 'u', 'origWidth': 409, 'origHeight': 409, 'width': 409, 'height': 409, 'widthPercent': 0.45, 'rescaleHeight': False, 'trialN': 52, 'loaded': True, 'loadedTime': 2849, 'positionName': 'LEFT', 'positionCoords': [359.48, 245.5], 'bid': 5.23}, {'imgObject': {}, 'id': 'eggsalad', 'src': '/static/foodstim60/eggsalad.jpg', 'key': 'i', 'origWidth': 410, 'origHeight': 409, 'width': 410, 'height': 409, 'widthPercent': 0.45, 'rescaleHeight': False, 'trialN': 52, 'loaded': True, 'loadedTime': 2858.4000000953674, 'positionName': 'RIGHT', 'positionCoords': [832.52, 245.5], 'bid': 5.36}]",97403.20000004768,1669829411690,mashed potato,eggsalad,5.23,5.36,0.1299999999999999,mashed potato,1696.4000000953674,1697,1696.7000000476837,True,u,99615.40000009537,2212.2000000476837,1669829413902,2212,HRV,HRV_0010,2022-11-30 17:34:11
53,"[{'imgObject': {}, 'id': 'shreddedwheatwithmilk', 'src': '/static/foodstim60/shreddedwheatwithmilk.jpg', 'key': 'u', 'origWidth': 410, 'origHeight': 410, 'width': 410, 'height': 410, 'widthPercent': 0.45, 'rescaleHeight': False, 'trialN': 53, 'loaded': True, 'loadedTime': 2842.4000000953674, 'positionName': 'LEFT', 'positionCoords': [358.48, 245], 'bid': 5.69}, {'imgObject': {}, 'id': 'pear', 'src': '/static/foodstim60/pear.jpg', 'key': 'i', 'origWidth': 411, 'origHeight': 410, 'width': 411, 'height': 410, 'widthPercent': 0.45, 'rescaleHeight': False, 'trialN': 53, 'loaded': True, 'loadedTime': 2859, 'positionName': 'RIGHT', 'positionCoords': [832.52, 245], 'bid': 5.66}]",99615.80000019073,1669829413903,shreddedwheatwithmilk,pear,5.69,5.66,-0.03000000000000025,shreddedwheatwithmilk,1586.7999999523163,1587,1587.2999999523163,True,u,101716.30000019073,2100.5,1669829416003,2100,HRV,HRV_0010,2022-11-30 17:34:11
54,"[{'imgObject': {}, 'id': 'corn cob', 'src': '/static/foodstim60/corn cob.jpg', 'key': 'u', 'origWidth': 411, 'origHeight': 411, 'width': 411, 'height': 411, 'widthPercent': 0.45, 'rescaleHeight': False, 'trialN': 54, 'loaded': True, 'loadedTime': 2773.600000143051, 'positionName': 'LEFT', 'positionCoords': [357.48, 244.5], 'bid': 9.91}, {'imgObject': {}, 'id': 'baked potato', 'src': '/static/foodstim60/baked potato.jpg', 'key': 'i', 'origWidth': 409, 'origHeight': 410, 'width': 409, 'height': 410, 'widthPercent': 0.45, 'rescaleHeight': False, 'trialN': 54, 'loaded': True, 'loadedTime': 2859.2000000476837, 'positionName': 'RIGHT', 'positionCoords': [832.52, 245], 'bid': 7.97}]",101716.60000014305,1669829416003,corn cob,baked potato,9.91,7.97,-1.9400000000000004,corn cob,962.0,963,962.3999998569489,True,u,103200.0,1483.3999998569489,1669829417487,1484,HRV,HRV_0010,2022-11-30 17:34:11
55,"[{'imgObject': {}, 'id': 'tacos', 'src': '/static/foodstim60/tacos.jpg', 'key': 'u', 'origWidth': 411, 'origHeight': 411, 'width': 411, 'height': 411, 'widthPercent': 0.45, 'rescaleHeight': False, 'trialN': 55, 'loaded': True, 'loadedTime': 2824.5, 'positionName': 'LEFT', 'positionCoords': [357.48, 244.5], 'bid': 6.48}, {'imgObject': {}, 'id': 'apple slices', 'src': '/static/foodstim60/apple slices.jpg', 'key': 'i', 'origWidth': 409, 'origHeight': 410, 'width': 409, 'height': 410, 'widthPercent': 0.45, 'rescaleHeight': False, 'trialN': 55, 'loaded': True, 'loadedTime': 2779.2000000476837, 'positionName': 'RIGHT', 'positionCoords': [832.52, 245], 'bid': 6.44}]",103200.30000019073,1669829417487,tacos,apple slices,6.48,6.44,-0.040000000000000036,tacos,849.6999998092651,850,850.0999999046326,True,u,104563.30000019073,1363.0,1669829418850,1363,HRV,HRV_0010,2022-11-30 17:34:11
56,"[{'imgObject': {}, 'id': 'baked potato', 'src': '/static/foodstim60/baked potato.jpg', 'key': 'u', 'origWidth': 409, 'origHeight': 410, 'width': 409, 'height': 410, 'widthPercent': 0.45, 'rescaleHeight': False, 'trialN': 56, 'loaded': True, 'loadedTime': 2859.800000190735, 'positionName': 'LEFT', 'positionCoords': [359.48, 245], 'bid': 7.97}, {'imgObject': {}, 'id': 'Grapes', 'src': '/static/foodstim60/Grapes.jpg', 'key': 'i', 'origWidth': 411, 'origHeight': 411, 'width': 411, 'height': 411, 'widthPercent': 0.45, 'rescaleHeight': False, 'trialN': 56, 'loaded': True, 'loadedTime': 2735.300000190735, 'positionName': 'RIGHT', 'positionCoords': [832.52, 244.5], 'bid': 4.18}]",104563.5,1669829418850,baked potato,Grapes,7.97,4.18,-3.79,baked potato,961.0,962,961.5,True,u,106032.5,1469.0,1669829420319,1469,HRV,HRV_0010,2022-11-30 17:34:11
57,"[{'imgObject': {}, 'id': 'granola w milk', 'src': '/static/foodstim60/granola w milk.jpg', 'key': 'u', 'origWidth': 410, 'origHeight': 410, 'width': 410, 'height': 410, 'widthPercent': 0.45, 'rescaleHeight': False, 'trialN': 57, 'loaded': True, 'loadedTime': 2825.7000000476837, 'positionName': 'LEFT', 'positionCoords': [358.48, 245], 'bid': 8.69}, {'imgObject': {}, 'id': 'salmon', 'src': '/static/foodstim60/salmon.jpg', 'key': 'i', 'origWidth': 410, 'origHeight': 409, 'width': 410, 'height': 409, 'widthPercent': 0.45, 'rescaleHeight': False, 'trialN': 57, 'loaded': True, 'loadedTime': 2827.600000143051, 'positionName': 'RIGHT', 'positionCoords': [832.52, 245.5], 'bid': 8.92}]",106032.80000019073,1669829420320,granola w milk,salmon,8.69,8.92,0.23000000000000043,granola w milk,1000.0999999046326,1000,1000.5,True,u,107545.10000014305,1512.2999999523163,1669829421832,1512,HRV,HRV_0010,2022-11-30 17:34:11
58,"[{'imgObject': {}, 'id': 'popsicles', 'src': '/static/foodstim60/popsicles.jpg', 'key': 'u', 'origWidth': 410, 'origHeight': 410, 'width': 410, 'height': 410, 'widthPercent': 0.45, 'rescaleHeight': False, 'trialN': 58, 'loaded': True, 'loadedTime': 2872.100000143051, 'positionName': 'LEFT', 'positionCoords': [358.48, 245], 'bid': 2.05}, {'imgObject': {}, 'id': 'cantaloupe', 'src': '/static/foodstim60/cantaloupe.jpg', 'key': 'i', 'origWidth': 409, 'origHeight': 409, 'width': 409, 'height': 409, 'widthPercent': 0.45, 'rescaleHeight': False, 'trialN': 58, 'loaded': True, 'loadedTime': 2833.100000143051, 'positionName': 'RIGHT', 'positionCoords': [832.52, 245.5], 'bid': 2.14}]",107545.30000019073,1669829421832,popsicles,cantaloupe,2.05,2.14,0.0900000000000003,popsicles,1056.6999998092651,1057,1057.0,True,u,109122.0,1576.6999998092651,1669829423409,1577,HRV,HRV_0010,2022-11-30 17:34:11
59,"[{'imgObject': {}, 'id': 'avocado', 'src': '/static/foodstim60/avocado.jpg', 'key': 'u', 'origWidth': 409, 'origHeight': 409, 'width': 409, 'height': 409, 'widthPercent': 0.45, 'rescaleHeight': False, 'trialN': 59, 'loaded': True, 'loadedTime': 2860.7000000476837, 'positionName': 'LEFT', 'positionCoords': [359.48, 245.5], 'bid': 7.2}, {'imgObject': {}, 'id': 'corn cob', 'src': '/static/foodstim60/corn cob.jpg', 'key': 'i', 'origWidth': 411, 'origHeight': 411, 'width': 411, 'height': 411, 'widthPercent': 0.45, 'rescaleHeight': False, 'trialN': 59, 'loaded': True, 'loadedTime': 2773.100000143051, 'positionName': 'RIGHT', 'positionCoords': [832.52, 244.5], 'bid': 9.91}]",109122.10000014305,1669829423409,avocado,corn cob,7.2,9.91,2.71,corn cob,1883.0999999046326,1883,1883.5,True,i,111516.0,2393.899999856949,1669829425803,2394,HRV,HRV_0010,2022-11-30 17:34:11
60,"[{'imgObject': {}, 'id': 'fried eggs', 'src': '/static/foodstim60/fried eggs.jpg', 'key': 'u', 'origWidth': 410, 'origHeight': 410, 'width': 410, 'height': 410, 'widthPercent': 0.45, 'rescaleHeight': False, 'trialN': 60, 'loaded': True, 'loadedTime': 2862.2000000476837, 'positionName': 'LEFT', 'positionCoords': [358.48, 245], 'bid': 7.94}, {'imgObject': {}, 'id': 'froot loops w milk', 'src': '/static/foodstim60/froot loops w milk.jpg', 'key': 'i', 'origWidth': 410, 'origHeight': 410, 'width': 410, 'height': 410, 'widthPercent': 0.45, 'rescaleHeight': False, 'trialN': 60, 'loaded': True, 'loadedTime': 2755.800000190735, 'positionName': 'RIGHT', 'positionCoords': [832.52, 245], 'bid': 6.99}]",111516.30000019073,1669829425803,fried eggs,froot loops w milk,7.94,6.99,-0.9500000000000002,fried eggs,1230.6999998092651,1231,1231.1999998092651,True,u,113260.10000014305,1743.7999999523163,1669829427547,1744,HRV,HRV_0010,2022-11-30 17:34:11
61,"[{'imgObject': {}, 'id': 'orange slices', 'src': '/static/foodstim60/orange slices.jpg', 'key': 'u', 'origWidth': 409, 'origHeight': 410, 'width': 409, 'height': 410, 'widthPercent': 0.45, 'rescaleHeight': False, 'trialN': 61, 'loaded': True, 'loadedTime': 2850.5, 'positionName': 'LEFT', 'positionCoords': [359.48, 245], 'bid': 4.11}, {'imgObject': {}, 'id': 'yogurt no spoon', 'src': '/static/foodstim60/yogurt no spoon.jpg', 'key': 'i', 'origWidth': 411, 'origHeight': 410, 'width': 411, 'height': 410, 'widthPercent': 0.45, 'rescaleHeight': False, 'trialN': 61, 'loaded': True, 'loadedTime': 2711.2000000476837, 'positionName': 'RIGHT', 'positionCoords': [832.52, 245], 'bid': 4.33}]",113260.20000004768,1669829427547,orange slices,yogurt no spoon,4.11,4.33,0.21999999999999975,orange slices,1181.0,1181,1181.5,True,u,114961.5,1701.2999999523163,1669829429248,1701,HRV,HRV_0010,2022-11-30 17:34:11
62,"[{'imgObject': {}, 'id': 'bagel plain', 'src': '/static/foodstim60/bagel plain.jpg', 'key': 'u', 'origWidth': 410, 'origHeight': 410, 'width': 410, 'height': 410, 'widthPercent': 0.45, 'rescaleHeight': False, 'trialN': 62, 'loaded': True, 'loadedTime': 2828.600000143051, 'positionName': 'LEFT', 'positionCoords': [358.48, 245], 'bid': 8.3}, {'imgObject': {}, 'id': 'froot loops w milk', 'src': '/static/foodstim60/froot loops w milk.jpg', 'key': 'i', 'origWidth': 410, 'origHeight': 410, 'width': 410, 'height': 410, 'widthPercent': 0.45, 'rescaleHeight': False, 'trialN': 62, 'loaded': True, 'loadedTime': 2757.4000000953674, 'positionName': 'RIGHT', 'positionCoords': [832.52, 245], 'bid': 6.99}]",114961.70000004768,1669829429249,bagel plain,froot loops w milk,8.3,6.99,-1.3100000000000005,bagel plain,725.1000001430511,725,725.4000000953674,True,u,116195.40000009537,1233.7000000476837,1669829430482,1233,HRV,HRV_0010,2022-11-30 17:34:11
63,"[{'imgObject': {}, 'id': 'yogurt no spoon', 'src': '/static/foodstim60/yogurt no spoon.jpg', 'key': 'u', 'origWidth': 411, 'origHeight': 410, 'width': 411, 'height': 410, 'widthPercent': 0.45, 'rescaleHeight': False, 'trialN': 63, 'loaded': True, 'loadedTime': 2712.300000190735, 'positionName': 'LEFT', 'positionCoords': [357.48, 245], 'bid': 4.33}, {'imgObject': {}, 'id': 'fruitsalad', 'src': '/static/foodstim60/fruitsalad.jpg', 'key': 'i', 'origWidth': 410, 'origHeight': 410, 'width': 410, 'height': 410, 'widthPercent': 0.45, 'rescaleHeight': False, 'trialN': 63, 'loaded': True, 'loadedTime': 2862.300000190735, 'positionName': 'RIGHT', 'positionCoords': [832.52, 245], 'bid': 1.68}]",116195.60000014305,1669829430482,yogurt no spoon,fruitsalad,4.33,1.68,-2.6500000000000004,yogurt no spoon,889.2999999523163,890,889.7000000476837,True,u,117587.60000014305,1392.0,1669829431874,1392,HRV,HRV_0010,2022-11-30 17:34:11
64,"[{'imgObject': {}, 'id': 'hotdog w must', 'src': '/static/foodstim60/hotdog w must.jpg', 'key': 'u', 'origWidth': 409, 'origHeight': 409, 'width': 409, 'height': 409, 'widthPercent': 0.45, 'rescaleHeight': False, 'trialN': 64, 'loaded': True, 'loadedTime': 2863.100000143051, 'positionName': 'LEFT', 'positionCoords': [359.48, 245.5], 'bid': 0.12}, {'imgObject': {}, 'id': 'strawberries', 'src': '/static/foodstim60/strawberries.jpg', 'key': 'i', 'origWidth': 410, 'origHeight': 410, 'width': 410, 'height': 410, 'widthPercent': 0.45, 'rescaleHeight': False, 'trialN': 64, 'loaded': True, 'loadedTime': 2822.2000000476837, 'positionName': 'RIGHT', 'positionCoords': [832.52, 245], 'bid': 6.26}]",117587.90000009537,1669829431874,hotdog w must,strawberries,0.12,6.26,6.14,strawberries,818.9000000953674,820,819.4000000953674,True,i,118927.70000004768,1339.7999999523163,1669829433214,1340,HRV,HRV_0010,2022-11-30 17:34:11
65,"[{'imgObject': {}, 'id': 'shreddedwheatwithmilk', 'src': '/static/foodstim60/shreddedwheatwithmilk.jpg', 'key': 'u', 'origWidth': 410, 'origHeight': 410, 'width': 410, 'height': 410, 'widthPercent': 0.45, 'rescaleHeight': False, 'trialN': 65, 'loaded': True, 'loadedTime': 2840, 'positionName': 'LEFT', 'positionCoords': [358.48, 245], 'bid': 5.69}, {'imgObject': {}, 'id': 'eggsalad', 'src': '/static/foodstim60/eggsalad.jpg', 'key': 'i', 'origWidth': 410, 'origHeight': 409, 'width': 410, 'height': 409, 'widthPercent': 0.45, 'rescaleHeight': False, 'trialN': 65, 'loaded': True, 'loadedTime': 2858.5, 'positionName': 'RIGHT', 'positionCoords': [832.52, 245.5], 'bid': 5.36}]",118927.90000009537,1669829433214,shreddedwheatwithmilk,eggsalad,5.69,5.36,-0.33000000000000007,shreddedwheatwithmilk,1213.9000000953674,1215,1214.4000000953674,True,u,120649.40000009537,1721.5,1669829434936,1722,HRV,HRV_0010,2022-11-30 17:34:11
66,"[{'imgObject': {}, 'id': 'turkey sandwich', 'src': '/static/foodstim60/turkey sandwich.jpg', 'key': 'u', 'origWidth': 409, 'origHeight': 409, 'width': 409, 'height': 409, 'widthPercent': 0.45, 'rescaleHeight': False, 'trialN': 66, 'loaded': True, 'loadedTime': 2853.4000000953674, 'positionName': 'LEFT', 'positionCoords': [359.48, 245.5], 'bid': 0.25}, {'imgObject': {}, 'id': 'steak', 'src': '/static/foodstim60/steak.jpg', 'key': 'i', 'origWidth': 410, 'origHeight': 410, 'width': 410, 'height': 410, 'widthPercent': 0.45, 'rescaleHeight': False, 'trialN': 66, 'loaded': True, 'loadedTime': 2776, 'positionName': 'RIGHT', 'positionCoords': [832.52, 245], 'bid': 0.14}]",120649.60000014305,1669829434936,turkey sandwich,steak,0.25,0.14,-0.10999999999999999,turkey sandwich,1778.2000000476837,1779,1778.7000000476837,True,u,122941.70000004768,2292.0999999046326,1669829437228,2292,HRV,HRV_0010,2022-11-30 17:34:11
67,"[{'imgObject': {}, 'id': 'salmon', 'src': '/static/foodstim60/salmon.jpg', 'key': 'u', 'origWidth': 410, 'origHeight': 409, 'width': 410, 'height': 409, 'widthPercent': 0.45, 'rescaleHeight': False, 'trialN': 67, 'loaded': True, 'loadedTime': 2827.4000000953674, 'positionName': 'LEFT', 'positionCoords': [358.48, 245.5], 'bid': 8.92}, {'imgObject': {}, 'id': 'raspberries', 'src': '/static/foodstim60/raspberries.jpg', 'key': 'i', 'origWidth': 411, 'origHeight': 411, 'width': 411, 'height': 411, 'widthPercent': 0.45, 'rescaleHeight': False, 'trialN': 67, 'loaded': True, 'loadedTime': 2775.2000000476837, 'positionName': 'RIGHT', 'positionCoords': [832.52, 244.5], 'bid': 4.89}]",122941.90000009537,1669829437228,salmon,raspberries,8.92,4.89,-4.03,salmon,1089.7000000476837,1091,1090.2000000476837,True,u,124540.80000019073,1598.9000000953674,1669829438827,1599,HRV,HRV_0010,2022-11-30 17:34:11
68,"[{'imgObject': {}, 'id': 'cherries', 'src': '/static/foodstim60/cherries.jpg', 'key': 'u', 'origWidth': 410, 'origHeight': 411, 'width': 410, 'height': 411, 'widthPercent': 0.45, 'rescaleHeight': False, 'trialN': 68, 'loaded': True, 'loadedTime': 2762.600000143051, 'positionName': 'LEFT', 'positionCoords': [358.48, 244.5], 'bid': 7.0600000000000005}, {'imgObject': {}, 'id': 'sushi w_condiments', 'src': '/static/foodstim60/sushi w_condiments.jpg', 'key': 'i', 'origWidth': 410, 'origHeight': 410, 'width': 410, 'height': 410, 'widthPercent': 0.45, 'rescaleHeight': False, 'trialN': 68, 'loaded': True, 'loadedTime': 2864.600000143051, 'positionName': 'RIGHT', 'positionCoords': [832.52, 245], 'bid': 9.74}]",124541.10000014305,1669829438828,cherries,sushi w_condiments,7.0600000000000005,9.74,2.6799999999999997,sushi w_condiments,1325.2999999523163,1325,1325.7999999523163,True,i,126377.0,1835.8999998569489,1669829440664,1836,HRV,HRV_0010,2022-11-30 17:34:11
69,"[{'imgObject': {}, 'id': 'eggs', 'src': '/static/foodstim60/eggs.jpg', 'key': 'u', 'origWidth': 409, 'origHeight': 409, 'width': 409, 'height': 409, 'widthPercent': 0.45, 'rescaleHeight': False, 'trialN': 69, 'loaded': True, 'loadedTime': 2764.600000143051, 'positionName': 'LEFT', 'positionCoords': [359.48, 245.5], 'bid': 2.23}, {'imgObject': {}, 'id': 'avocado', 'src': '/static/foodstim60/avocado.jpg', 'key': 'i', 'origWidth': 409, 'origHeight': 409, 'width': 409, 'height': 409, 'widthPercent': 0.45, 'rescaleHeight': False, 'trialN': 69, 'loaded': True, 'loadedTime': 2861, 'positionName': 'RIGHT', 'positionCoords': [832.52, 245.5], 'bid': 7.2}]",126377.30000019073,1669829440664,eggs,avocado,2.23,7.2,4.970000000000001,avocado,798.5,799,799.0,True,i,127691.20000004768,1313.8999998569489,1669829441978,1314,HRV,HRV_0010,2022-11-30 17:34:11
70,"[{'imgObject': {}, 'id': 'popsicles', 'src': '/static/foodstim60/popsicles.jpg', 'key': 'u', 'origWidth': 410, 'origHeight': 410, 'width': 410, 'height': 410, 'widthPercent': 0.45, 'rescaleHeight': False, 'trialN': 70, 'loaded': True, 'loadedTime': 2872.4000000953674, 'positionName': 'LEFT', 'positionCoords': [358.48, 245], 'bid': 2.05}, {'imgObject': {}, 'id': 'grilled chicken strips', 'src': '/static/foodstim60/grilled chicken strips.jpg', 'key': 'i', 'origWidth': 410, 'origHeight': 411, 'width': 410, 'height': 411, 'widthPercent': 0.45, 'rescaleHeight': False, 'trialN': 70, 'loaded': True, 'loadedTime': 2855.7000000476837, 'positionName': 'RIGHT', 'positionCoords': [832.52, 244.5], 'bid': 0.08}]",127691.30000019073,1669829441978,popsicles,grilled chicken strips,2.05,0.08,-1.9699999999999998,popsicles,1108.7999999523163,1109,1109.2999999523163,True,u,129308.40000009537,1617.0999999046326,1669829443595,1617,HRV,HRV_0010,2022-11-30 17:34:11
71,"[{'imgObject': {}, 'id': 'chickenfingers', 'src': '/static/foodstim60/chickenfingers.jpg', 'key': 'u', 'origWidth': 410, 'origHeight': 410, 'width': 410, 'height': 410, 'widthPercent': 0.45, 'rescaleHeight': False, 'trialN': 71, 'loaded': True, 'loadedTime': 2857.9000000953674, 'positionName': 'LEFT', 'positionCoords': [358.48, 245], 'bid': 0.03}, {'imgObject': {}, 'id': 'turkeysandwich', 'src': '/static/foodstim60/turkeysandwich.jpg', 'key': 'i', 'origWidth': 409, 'origHeight': 409, 'width': 409, 'height': 409, 'widthPercent': 0.45, 'rescaleHeight': False, 'trialN': 71, 'loaded': True, 'loadedTime': 2831.300000190735, 'positionName': 'RIGHT', 'positionCoords': [832.52, 245.5], 'bid': 0}]",129309.0,1669829443596,chickenfingers,turkeysandwich,0.03,0.0,-0.03,chickenfingers,731.1000001430511,731,731.5,True,u,130540.90000009537,1231.9000000953674,1669829444827,1231,HRV,HRV_0010,2022-11-30 17:34:11
72,"[{'imgObject': {}, 'id': 'corn cob', 'src': '/static/foodstim60/corn cob.jpg', 'key': 'u', 'origWidth': 411, 'origHeight': 411, 'width': 411, 'height': 411, 'widthPercent': 0.45, 'rescaleHeight': False, 'trialN': 72, 'loaded': True, 'loadedTime': 2773.800000190735, 'positionName': 'LEFT', 'positionCoords': [357.48, 244.5], 'bid': 9.91}, {'imgObject': {}, 'id': 'bagel and cc', 'src': '/static/foodstim60/bagel and cc.jpg', 'key': 'i', 'origWidth': 410, 'origHeight': 410, 'width': 410, 'height': 410, 'widthPercent': 0.45, 'rescaleHeight': False, 'trialN': 72, 'loaded': True, 'loadedTime': 2820.9000000953674, 'positionName': 'RIGHT', 'positionCoords': [832.52, 245], 'bid': 9.47}]",130541.10000014305,1669829444828,corn cob,bagel and cc,9.91,9.47,-0.4399999999999995,bagel and cc,1497.2000000476837,1497,1497.5,True,i,132550.40000009537,2009.2999999523163,1669829446837,2009,HRV,HRV_0010,2022-11-30 17:34:11
73,"[{'imgObject': {}, 'id': 'cherries', 'src': '/static/foodstim60/cherries.jpg', 'key': 'u', 'origWidth': 410, 'origHeight': 411, 'width': 410, 'height': 411, 'widthPercent': 0.45, 'rescaleHeight': False, 'trialN': 73, 'loaded': True, 'loadedTime': 2763.300000190735, 'positionName': 'LEFT', 'positionCoords': [358.48, 244.5], 'bid': 7.0600000000000005}, {'imgObject': {}, 'id': 'apple slices', 'src': '/static/foodstim60/apple slices.jpg', 'key': 'i', 'origWidth': 409, 'origHeight': 410, 'width': 409, 'height': 410, 'widthPercent': 0.45, 'rescaleHeight': False, 'trialN': 73, 'loaded': True, 'loadedTime': 2779.4000000953674, 'positionName': 'RIGHT', 'positionCoords': [832.52, 245], 'bid': 6.44}]",132550.70000004768,1669829446837,cherries,apple slices,7.0600000000000005,6.44,-0.6200000000000001,cherries,779.4000000953674,780,779.7999999523163,True,u,133835.60000014305,1284.9000000953674,1669829448122,1285,HRV,HRV_0010,2022-11-30 17:34:11
74,"[{'imgObject': {}, 'id': 'baked potato', 'src': '/static/foodstim60/baked potato.jpg', 'key': 'u', 'origWidth': 409, 'origHeight': 410, 'width': 409, 'height': 410, 'widthPercent': 0.45, 'rescaleHeight': False, 'trialN': 74, 'loaded': True, 'loadedTime': 2859.800000190735, 'positionName': 'LEFT', 'positionCoords': [359.48, 245], 'bid': 7.97}, {'imgObject': {}, 'id': 'omelette', 'src': '/static/foodstim60/omelette.jpg', 'key': 'i', 'origWidth': 410, 'origHeight': 409, 'width': 410, 'height': 409, 'widthPercent': 0.45, 'rescaleHeight': False, 'trialN': 74, 'loaded': True, 'loadedTime': 2769, 'positionName': 'RIGHT', 'positionCoords': [832.52, 245.5], 'bid': 8.3}]",133835.70000004768,1669829448122,baked potato,omelette,7.97,8.3,0.33000000000000096,omelette,1819.6000001430511,1820,1820.0,True,i,136169.5,2333.7999999523163,1669829450456,2334,HRV,HRV_0010,2022-11-30 17:34:11
75,"[{'imgObject': {}, 'id': 'eggsalad', 'src': '/static/foodstim60/eggsalad.jpg', 'key': 'u', 'origWidth': 410, 'origHeight': 409, 'width': 410, 'height': 409, 'widthPercent': 0.45, 'rescaleHeight': False, 'trialN': 75, 'loaded': True, 'loadedTime': 2858.5, 'positionName': 'LEFT', 'positionCoords': [358.48, 245.5], 'bid': 5.36}, {'imgObject': {}, 'id': 'luckycharms', 'src': '/static/foodstim60/luckycharms.jpg', 'key': 'i', 'origWidth': 410, 'origHeight': 409, 'width': 410, 'height': 409, 'widthPercent': 0.45, 'rescaleHeight': False, 'trialN': 75, 'loaded': True, 'loadedTime': 2748.2000000476837, 'positionName': 'RIGHT', 'positionCoords': [832.52, 245.5], 'bid': 6.8}]",136169.80000019073,1669829450456,eggsalad,luckycharms,5.36,6.8,1.4399999999999995,luckycharms,920.0999999046326,921,920.3999998569489,True,i,137610.10000014305,1440.2999999523163,1669829451897,1441,HRV,HRV_0010,2022-11-30 17:34:11
76,"[{'imgObject': {}, 'id': 'roastedpotatoes', 'src': '/static/foodstim60/roastedpotatoes.jpg', 'key': 'u', 'origWidth': 409, 'origHeight': 410, 'width': 409, 'height': 410, 'widthPercent': 0.45, 'rescaleHeight': False, 'trialN': 76, 'loaded': True, 'loadedTime': 2772.9000000953674, 'positionName': 'LEFT', 'positionCoords': [359.48, 245], 'bid': 7.390000000000001}, {'imgObject': {}, 'id': 'rigatoni and sauce', 'src': '/static/foodstim60/rigatoni and sauce.jpg', 'key': 'i', 'origWidth': 410, 'origHeight': 411, 'width': 410, 'height': 411, 'widthPercent': 0.45, 'rescaleHeight': False, 'trialN': 76, 'loaded': True, 'loadedTime': 2755, 'positionName': 'RIGHT', 'positionCoords': [832.52, 244.5], 'bid': 7.76}]",137610.30000019073,1669829451897,roastedpotatoes,rigatoni and sauce,7.390000000000001,7.76,0.3699999999999992,rigatoni and sauce,658.0,658,658.5,True,i,138771.10000014305,1160.7999999523163,1669829453058,1161,HRV,HRV_0010,2022-11-30 17:34:11
77,"[{'imgObject': {}, 'id': 'burrito', 'src': '/static/foodstim60/burrito.jpg', 'key': 'u', 'origWidth': 410, 'origHeight': 410, 'width': 410, 'height': 410, 'widthPercent': 0.45, 'rescaleHeight': False, 'trialN': 77, 'loaded': True, 'loadedTime': 2770.7000000476837, 'positionName': 'LEFT', 'positionCoords': [358.48, 245], 'bid': 3.23}, {'imgObject': {}, 'id': 'turkeysandwich', 'src': '/static/foodstim60/turkeysandwich.jpg', 'key': 'i', 'origWidth': 409, 'origHeight': 409, 'width': 409, 'height': 409, 'widthPercent': 0.45, 'rescaleHeight': False, 'trialN': 77, 'loaded': True, 'loadedTime': 2831.800000190735, 'positionName': 'RIGHT', 'positionCoords': [832.52, 245.5], 'bid': 0}]",138771.30000019073,1669829453058,burrito,turkeysandwich,3.23,0.0,-3.23,burrito,960.0,961,960.6999998092651,True,u,140236.80000019073,1465.5,1669829454523,1465,HRV,HRV_0010,2022-11-30 17:34:11
78,"[{'imgObject': {}, 'id': 'seaweed', 'src': '/static/foodstim60/seaweed.jpg', 'key': 'u', 'origWidth': 410, 'origHeight': 410, 'width': 410, 'height': 410, 'widthPercent': 0.45, 'rescaleHeight': False, 'trialN': 78, 'loaded': True, 'loadedTime': 2766.300000190735, 'positionName': 'LEFT', 'positionCoords': [358.48, 245], 'bid': 4.91}, {'imgObject': {}, 'id': 'bagel and cc', 'src': '/static/foodstim60/bagel and cc.jpg', 'key': 'i', 'origWidth': 410, 'origHeight': 410, 'width': 410, 'height': 410, 'widthPercent': 0.45, 'rescaleHeight': False, 'trialN': 78, 'loaded': True, 'loadedTime': 2820.9000000953674, 'positionName': 'RIGHT', 'positionCoords': [832.52, 245], 'bid': 9.47}]",140237.10000014305,1669829454524,seaweed,bagel and cc,4.91,9.47,4.5600000000000005,bagel and cc,887.2000000476837,887,887.5999999046326,True,i,141634.30000019073,1397.2000000476837,1669829455921,1397,HRV,HRV_0010,2022-11-30 17:34:11
79,"[{'imgObject': {}, 'id': 'eggs', 'src': '/static/foodstim60/eggs.jpg', 'key': 'u', 'origWidth': 409, 'origHeight': 409, 'width': 409, 'height': 409, 'widthPercent': 0.45, 'rescaleHeight': False, 'trialN': 79, 'loaded': True, 'loadedTime': 2764.600000143051, 'positionName': 'LEFT', 'positionCoords': [359.48, 245.5], 'bid': 2.23}, {'imgObject': {}, 'id': 'burrito', 'src': '/static/foodstim60/burrito.jpg', 'key': 'i', 'origWidth': 410, 'origHeight': 410, 'width': 410, 'height': 410, 'widthPercent': 0.45, 'rescaleHeight': False, 'trialN': 79, 'loaded': True, 'loadedTime': 2770.600000143051, 'positionName': 'RIGHT', 'positionCoords': [832.52, 245], 'bid': 3.23}]",141634.40000009537,1669829455921,eggs,burrito,2.23,3.23,1.0,burrito,1485.2999999523163,1486,1485.7999999523163,True,i,143635.30000019073,2000.9000000953674,1669829457922,2001,HRV,HRV_0010,2022-11-30 17:34:11
80,"[{'imgObject': {}, 'id': 'olives', 'src': '/static/foodstim60/olives.jpg', 'key': 'u', 'origWidth': 410, 'origHeight': 410, 'width': 410, 'height': 410, 'widthPercent': 0.45, 'rescaleHeight': False, 'trialN': 80, 'loaded': True, 'loadedTime': 2760.600000143051, 'positionName': 'LEFT', 'positionCoords': [358.48, 245], 'bid': 4.05}, {'imgObject': {}, 'id': 'Grapes', 'src': '/static/foodstim60/Grapes.jpg', 'key': 'i', 'origWidth': 411, 'origHeight': 411, 'width': 411, 'height': 411, 'widthPercent': 0.45, 'rescaleHeight': False, 'trialN': 80, 'loaded': True, 'loadedTime': 2736.4000000953674, 'positionName': 'RIGHT', 'positionCoords': [832.52, 244.5], 'bid': 4.18}]",143635.5,1669829457922,olives,Grapes,4.05,4.18,0.1299999999999999,olives,2036.9000000953674,2038,2037.5,True,u,146188.0,2552.5,1669829460474,2552,HRV,HRV_0010,2022-11-30 17:34:11
81,"[{'imgObject': {}, 'id': 'cherry tomato', 'src': '/static/foodstim60/cherry tomato.jpg', 'key': 'u', 'origWidth': 410, 'origHeight': 410, 'width': 410, 'height': 410, 'widthPercent': 0.45, 'rescaleHeight': False, 'trialN': 81, 'loaded': True, 'loadedTime': 2744.5, 'positionName': 'LEFT', 'positionCoords': [358.48, 245], 'bid': 4.78}, {'imgObject': {}, 'id': 'turkey sandwich', 'src': '/static/foodstim60/turkey sandwich.jpg', 'key': 'i', 'origWidth': 409, 'origHeight': 409, 'width': 409, 'height': 409, 'widthPercent': 0.45, 'rescaleHeight': False, 'trialN': 81, 'loaded': True, 'loadedTime': 2853.5, 'positionName': 'RIGHT', 'positionCoords': [832.52, 245.5], 'bid': 0.25}]",146188.20000004768,1669829460475,cherry tomato,turkey sandwich,4.78,0.25,-4.53,cherry tomato,987.5,988,988.0,True,u,147692.10000014305,1503.9000000953674,1669829461979,1504,HRV,HRV_0010,2022-11-30 17:34:11
82,"[{'imgObject': {}, 'id': 'lox', 'src': '/static/foodstim60/lox.jpg', 'key': 'u', 'origWidth': 410, 'origHeight': 411, 'width': 410, 'height': 411, 'widthPercent': 0.45, 'rescaleHeight': False, 'trialN': 82, 'loaded': True, 'loadedTime': 2760.9000000953674, 'positionName': 'LEFT', 'positionCoords': [358.48, 244.5], 'bid': 2.18}, {'imgObject': {}, 'id': 'salad w chicken', 'src': '/static/foodstim60/salad w chicken.jpg', 'key': 'i', 'origWidth': 411, 'origHeight': 411, 'width': 411, 'height': 411, 'widthPercent': 0.45, 'rescaleHeight': False, 'trialN': 82, 'loaded': True, 'loadedTime': 2772.2000000476837, 'positionName': 'RIGHT', 'positionCoords': [832.52, 244.5], 'bid': 0.05}]",147692.40000009537,1669829461979,lox,salad w chicken,2.18,0.05,-2.1300000000000003,lox,1231.4000000953674,1232,1232.0,True,u,149442.10000014305,1749.7000000476837,1669829463729,1750,HRV,HRV_0010,2022-11-30 17:34:11
83,"[{'imgObject': {}, 'id': 'hotdog w must', 'src': '/static/foodstim60/hotdog w must.jpg', 'key': 'u', 'origWidth': 409, 'origHeight': 409, 'width': 409, 'height': 409, 'widthPercent': 0.45, 'rescaleHeight': False, 'trialN': 83, 'loaded': True, 'loadedTime': 2863.7000000476837, 'positionName': 'LEFT', 'positionCoords': [359.48, 245.5], 'bid': 0.12}, {'imgObject': {}, 'id': 'grilled chicken strips', 'src': '/static/foodstim60/grilled chicken strips.jpg', 'key': 'i', 'origWidth': 410, 'origHeight': 411, 'width': 410, 'height': 411, 'widthPercent': 0.45, 'rescaleHeight': False, 'trialN': 83, 'loaded': True, 'loadedTime': 2856.7000000476837, 'positionName': 'RIGHT', 'positionCoords': [832.52, 244.5], 'bid': 0.08}]",149442.40000009537,1669829463729,hotdog w must,grilled chicken strips,0.12,0.08,-0.039999999999999994,grilled chicken strips,1947.5,1948,1948.0999999046326,True,i,151897.90000009537,2455.5,1669829466184,2455,HRV,HRV_0010,2022-11-30 17:34:11
84,"[{'imgObject': {}, 'id': 'rigatoni and sauce', 'src': '/static/foodstim60/rigatoni and sauce.jpg', 'key': 'u', 'origWidth': 410, 'origHeight': 411, 'width': 410, 'height': 411, 'widthPercent': 0.45, 'rescaleHeight': False, 'trialN': 84, 'loaded': True, 'loadedTime': 2753.9000000953674, 'positionName': 'LEFT', 'positionCoords': [358.48, 244.5], 'bid': 7.76}, {'imgObject': {}, 'id': 'shreddedwheatwithmilk', 'src': '/static/foodstim60/shreddedwheatwithmilk.jpg', 'key': 'i', 'origWidth': 410, 'origHeight': 410, 'width': 410, 'height': 410, 'widthPercent': 0.45, 'rescaleHeight': False, 'trialN': 84, 'loaded': True, 'loadedTime': 2842.4000000953674, 'positionName': 'RIGHT', 'positionCoords': [832.52, 245], 'bid': 5.69}]",151898.10000014305,1669829466185,rigatoni and sauce,shreddedwheatwithmilk,7.76,5.69,-2.0699999999999994,rigatoni and sauce,986.2999999523163,986,986.7999999523163,True,u,153398.40000009537,1500.2999999523163,1669829467685,1500,HRV,HRV_0010,2022-11-30 17:34:11
85,"[{'imgObject': {}, 'id': 'cantaloupe', 'src': '/static/foodstim60/cantaloupe.jpg', 'key': 'u', 'origWidth': 409, 'origHeight': 409, 'width': 409, 'height': 409, 'widthPercent': 0.45, 'rescaleHeight': False, 'trialN': 85, 'loaded': True, 'loadedTime': 2837.5, 'positionName': 'LEFT', 'positionCoords': [359.48, 245.5], 'bid': 2.14}, {'imgObject': {}, 'id': 'fruitsalad', 'src': '/static/foodstim60/fruitsalad.jpg', 'key': 'i', 'origWidth': 410, 'origHeight': 410, 'width': 410, 'height': 410, 'widthPercent': 0.45, 'rescaleHeight': False, 'trialN': 85, 'loaded': True, 'loadedTime': 2862.9000000953674, 'positionName': 'RIGHT', 'positionCoords': [832.52, 245], 'bid': 1.68}]",153398.60000014305,1669829467685,cantaloupe,fruitsalad,2.14,1.68,-0.4600000000000002,fruitsalad,1712.2999999523163,1713,1712.7999999523163,True,i,155622.30000019073,2223.7000000476837,1669829469909,2224,HRV,HRV_0010,2022-11-30 17:34:11
86,"[{'imgObject': {}, 'id': 'salad w chicken', 'src': '/static/foodstim60/salad w chicken.jpg', 'key': 'u', 'origWidth': 411, 'origHeight': 411, 'width': 411, 'height': 411, 'widthPercent': 0.45, 'rescaleHeight': False, 'trialN': 86, 'loaded': True, 'loadedTime': 2772.2000000476837, 'positionName': 'LEFT', 'positionCoords': [357.48, 244.5], 'bid': 0.05}, {'imgObject': {}, 'id': 'cocktailshrimp', 'src': '/static/foodstim60/cocktailshrimp.jpg', 'key': 'i', 'origWidth': 410, 'origHeight': 410, 'width': 410, 'height': 410, 'widthPercent': 0.45, 'rescaleHeight': False, 'trialN': 86, 'loaded': True, 'loadedTime': 2865.2000000476837, 'positionName': 'RIGHT', 'positionCoords': [832.52, 245], 'bid': 5.93}]",155622.5,1669829469909,salad w chicken,cocktailshrimp,0.05,5.93,5.88,cocktailshrimp,1078.3000001907349,1079,1078.8000001907349,True,i,157204.20000004768,1581.7000000476837,1669829471491,1582,HRV,HRV_0010,2022-11-30 17:34:11
87,"[{'imgObject': {}, 'id': 'steak', 'src': '/static/foodstim60/steak.jpg', 'key': 'u', 'origWidth': 410, 'origHeight': 410, 'width': 410, 'height': 410, 'widthPercent': 0.45, 'rescaleHeight': False, 'trialN': 87, 'loaded': True, 'loadedTime': 2775.9000000953674, 'positionName': 'LEFT', 'positionCoords': [358.48, 245], 'bid': 0.14}, {'imgObject': {}, 'id': 'grilled chicken strips', 'src': '/static/foodstim60/grilled chicken strips.jpg', 'key': 'i', 'origWidth': 410, 'origHeight': 411, 'width': 410, 'height': 411, 'widthPercent': 0.45, 'rescaleHeight': False, 'trialN': 87, 'loaded': True, 'loadedTime': 2857, 'positionName': 'RIGHT', 'positionCoords': [832.52, 244.5], 'bid': 0.08}]",157204.40000009537,1669829471491,steak,grilled chicken strips,0.14,0.08,-0.06000000000000001,grilled chicken strips,901.4000000953674,902,901.7000000476837,True,i,158611.20000004768,1406.7999999523163,1669829472898,1407,HRV,HRV_0010,2022-11-30 17:34:11
88,"[{'imgObject': {}, 'id': 'Tribe humus pita', 'src': '/static/foodstim60/Tribe humus pita.jpg', 'key': 'u', 'origWidth': 411, 'origHeight': 411, 'width': 411, 'height': 411, 'widthPercent': 0.45, 'rescaleHeight': False, 'trialN': 88, 'loaded': True, 'loadedTime': 2855.600000143051, 'positionName': 'LEFT', 'positionCoords': [357.48, 244.5], 'bid': 4.79}, {'imgObject': {}, 'id': 'orange slices', 'src': '/static/foodstim60/orange slices.jpg', 'key': 'i', 'origWidth': 409, 'origHeight': 410, 'width': 409, 'height': 410, 'widthPercent': 0.45, 'rescaleHeight': False, 'trialN': 88, 'loaded': True, 'loadedTime': 2851.7000000476837, 'positionName': 'RIGHT', 'positionCoords': [832.52, 245], 'bid': 4.11}]",158611.40000009537,1669829472898,Tribe humus pita,orange slices,4.79,4.11,-0.6799999999999997,orange slices,1649.0999999046326,1650,1649.5999999046326,True,i,160778.30000019073,2166.9000000953674,1669829475065,2167,HRV,HRV_0010,2022-11-30 17:34:11
89,"[{'imgObject': {}, 'id': 'rigatoni and sauce', 'src': '/static/foodstim60/rigatoni and sauce.jpg', 'key': 'u', 'origWidth': 410, 'origHeight': 411, 'width': 410, 'height': 411, 'widthPercent': 0.45, 'rescaleHeight': False, 'trialN': 89, 'loaded': True, 'loadedTime': 2752.600000143051, 'positionName': 'LEFT', 'positionCoords': [358.48, 244.5], 'bid': 7.76}, {'imgObject': {}, 'id': 'fried eggs', 'src': '/static/foodstim60/fried eggs.jpg', 'key': 'i', 'origWidth': 410, 'origHeight': 410, 'width': 410, 'height': 410, 'widthPercent': 0.45, 'rescaleHeight': False, 'trialN': 89, 'loaded': True, 'loadedTime': 2862.100000143051, 'positionName': 'RIGHT', 'positionCoords': [832.52, 245], 'bid': 7.94}]",160778.5,1669829475065,rigatoni and sauce,fried eggs,7.76,7.94,0.1800000000000006,rigatoni and sauce,783.9000000953674,785,784.5,True,u,162079.10000014305,1300.6000001430511,1669829476366,1301,HRV,HRV_0010,2022-11-30 17:34:11
90,"[{'imgObject': {}, 'id': 'strawberries', 'src': '/static/foodstim60/strawberries.jpg', 'key': 'u', 'origWidth': 410, 'origHeight': 410, 'width': 410, 'height': 410, 'widthPercent': 0.45, 'rescaleHeight': False, 'trialN': 90, 'loaded': True, 'loadedTime': 2822.800000190735, 'positionName': 'LEFT', 'positionCoords': [358.48, 245], 'bid': 6.26}, {'imgObject': {}, 'id': 'mango', 'src': '/static/foodstim60/mango.jpg', 'key': 'i', 'origWidth': 411, 'origHeight': 411, 'width': 411, 'height': 411, 'widthPercent': 0.45, 'rescaleHeight': False, 'trialN': 90, 'loaded': True, 'loadedTime': 2780.2000000476837, 'positionName': 'RIGHT', 'positionCoords': [832.52, 244.5], 'bid': 6.21}]",179838.0,1669829494125,strawberries,mango,6.26,6.21,-0.04999999999999982,mango,983.6000001430511,984,984.0,True,i,181323.70000004768,1485.7000000476837,1669829495611,1486,HRV,HRV_0010,2022-11-30 17:34:11
91,"[{'imgObject': {}, 'id': 'banana', 'src': '/static/foodstim60/banana.jpg', 'key': 'u', 'origWidth': 410, 'origHeight': 410, 'width': 410, 'height': 410, 'widthPercent': 0.45, 'rescaleHeight': False, 'trialN': 91, 'loaded': True, 'loadedTime': 2866.300000190735, 'positionName': 'LEFT', 'positionCoords': [358.48, 245], 'bid': 6.04}, {'imgObject': {}, 'id': 'blackbeanswithrice', 'src': '/static/foodstim60/blackbeanswithrice.jpg', 'key': 'i', 'origWidth': 410, 'origHeight': 410, 'width': 410, 'height': 410, 'widthPercent': 0.45, 'rescaleHeight': False, 'trialN': 91, 'loaded': True, 'loadedTime': 2747.600000143051, 'positionName': 'RIGHT', 'positionCoords': [832.52, 245], 'bid': 5.03}]",181324.0,1669829495611,banana,blackbeanswithrice,6.04,5.03,-1.0099999999999998,blackbeanswithrice,1098.0,1098,1098.4000000953674,True,i,182926.5,1602.5,1669829497213,1602,HRV,HRV_0010,2022-11-30 17:34:11
92,"[{'imgObject': {}, 'id': 'chicken nuggets2', 'src': '/static/foodstim60/chicken nuggets2.jpg', 'key': 'u', 'origWidth': 410, 'origHeight': 409, 'width': 410, 'height': 409, 'widthPercent': 0.45, 'rescaleHeight': False, 'trialN': 92, 'loaded': True, 'loadedTime': 2853.600000143051, 'positionName': 'LEFT', 'positionCoords': [358.48, 245.5], 'bid': 4.74}, {'imgObject': {}, 'id': 'shreddedwheatwithmilk', 'src': '/static/foodstim60/shreddedwheatwithmilk.jpg', 'key': 'i', 'origWidth': 410, 'origHeight': 410, 'width': 410, 'height': 410, 'widthPercent': 0.45, 'rescaleHeight': False, 'trialN': 92, 'loaded': True, 'loadedTime': 2842.600000143051, 'positionName': 'RIGHT', 'positionCoords': [832.52, 245], 'bid': 5.69}]",182926.80000019073,1669829497214,chicken nuggets2,shreddedwheatwithmilk,4.74,5.69,0.9500000000000002,chicken nuggets2,2143.899999856949,2144,2144.2999999523163,True,u,185581.10000014305,2654.2999999523163,1669829499868,2654,HRV,HRV_0010,2022-11-30 17:34:11
93,"[{'imgObject': {}, 'id': 'fried eggs', 'src': '/static/foodstim60/fried eggs.jpg', 'key': 'u', 'origWidth': 410, 'origHeight': 410, 'width': 410, 'height': 410, 'widthPercent': 0.45, 'rescaleHeight': False, 'trialN': 93, 'loaded': True, 'loadedTime': 2861.9000000953674, 'positionName': 'LEFT', 'positionCoords': [358.48, 245], 'bid': 7.94}, {'imgObject': {}, 'id': 'sushi w_condiments', 'src': '/static/foodstim60/sushi w_condiments.jpg', 'key': 'i', 'origWidth': 410, 'origHeight': 410, 'width': 410, 'height': 410, 'widthPercent': 0.45, 'rescaleHeight': False, 'trialN': 93, 'loaded': True, 'loadedTime': 2864.600000143051, 'positionName': 'RIGHT', 'positionCoords': [832.52, 245], 'bid': 9.74}]",185581.30000019073,1669829499868,fried eggs,sushi w_condiments,7.94,9.74,1.7999999999999998,sushi w_condiments,976.5,977,977.0,True,i,187067.80000019073,1486.5,1669829501355,1487,HRV,HRV_0010,2022-11-30 17:34:11
94,"[{'imgObject': {}, 'id': 'hotdog w must', 'src': '/static/foodstim60/hotdog w must.jpg', 'key': 'u', 'origWidth': 409, 'origHeight': 409, 'width': 409, 'height': 409, 'widthPercent': 0.45, 'rescaleHeight': False, 'trialN': 94, 'loaded': True, 'loadedTime': 2863.800000190735, 'positionName': 'LEFT', 'positionCoords': [359.48, 245.5], 'bid': 0.12}, {'imgObject': {}, 'id': 'cantaloupe', 'src': '/static/foodstim60/cantaloupe.jpg', 'key': 'i', 'origWidth': 409, 'origHeight': 409, 'width': 409, 'height': 409, 'widthPercent': 0.45, 'rescaleHeight': False, 'trialN': 94, 'loaded': True, 'loadedTime': 2838.5, 'positionName': 'RIGHT', 'positionCoords': [832.52, 245.5], 'bid': 2.14}]",187068.0,1669829501355,hotdog w must,cantaloupe,0.12,2.14,2.02,cantaloupe,771.1000001430511,771,771.6000001430511,True,i,188361.90000009537,1293.9000000953674,1669829502649,1294,HRV,HRV_0010,2022-11-30 17:34:11
95,"[{'imgObject': {}, 'id': 'fruitsalad', 'src': '/static/foodstim60/fruitsalad.jpg', 'key': 'u', 'origWidth': 410, 'origHeight': 410, 'width': 410, 'height': 410, 'widthPercent': 0.45, 'rescaleHeight': False, 'trialN': 95, 'loaded': True, 'loadedTime': 2862.9000000953674, 'positionName': 'LEFT', 'positionCoords': [358.48, 245], 'bid': 1.68}, {'imgObject': {}, 'id': 'hashbrowns', 'src': '/static/foodstim60/hashbrowns.jpg', 'key': 'i', 'origWidth': 411, 'origHeight': 410, 'width': 411, 'height': 410, 'widthPercent': 0.45, 'rescaleHeight': False, 'trialN': 95, 'loaded': True, 'loadedTime': 2767.100000143051, 'positionName': 'RIGHT', 'positionCoords': [832.52, 245], 'bid': 4.88}]",188362.0,1669829502649,fruitsalad,hashbrowns,1.68,4.88,3.2,hashbrowns,2975.800000190735,2976,2976.300000190735,True,i,191857.5,3495.5,1669829506144,3495,HRV,HRV_0010,2022-11-30 17:34:11
96,"[{'imgObject': {}, 'id': 'burrito', 'src': '/static/foodstim60/burrito.jpg', 'key': 'u', 'origWidth': 410, 'origHeight': 410, 'width': 410, 'height': 410, 'widthPercent': 0.45, 'rescaleHeight': False, 'trialN': 96, 'loaded': True, 'loadedTime': 2770.600000143051, 'positionName': 'LEFT', 'positionCoords': [358.48, 245], 'bid': 3.23}, {'imgObject': {}, 'id': 'hotdog w must', 'src': '/static/foodstim60/hotdog w must.jpg', 'key': 'i', 'origWidth': 409, 'origHeight': 409, 'width': 409, 'height': 409, 'widthPercent': 0.45, 'rescaleHeight': False, 'trialN': 96, 'loaded': True, 'loadedTime': 2863.9000000953674, 'positionName': 'RIGHT', 'positionCoords': [832.52, 245.5], 'bid': 0.12}]",191857.80000019073,1669829506145,burrito,hotdog w must,3.23,0.12,-3.11,burrito,836.0999999046326,836,836.5999999046326,True,u,193201.5,1343.6999998092651,1669829507488,1343,HRV,HRV_0010,2022-11-30 17:34:11
97,"[{'imgObject': {}, 'id': 'tacos', 'src': '/static/foodstim60/tacos.jpg', 'key': 'u', 'origWidth': 411, 'origHeight': 411, 'width': 411, 'height': 411, 'widthPercent': 0.45, 'rescaleHeight': False, 'trialN': 97, 'loaded': True, 'loadedTime': 2824.600000143051, 'positionName': 'LEFT', 'positionCoords': [357.48, 244.5], 'bid': 6.48}, {'imgObject': {}, 'id': 'turkey sandwich', 'src': '/static/foodstim60/turkey sandwich.jpg', 'key': 'i', 'origWidth': 409, 'origHeight': 409, 'width': 409, 'height': 409, 'widthPercent': 0.45, 'rescaleHeight': False, 'trialN': 97, 'loaded': True, 'loadedTime': 2853.5, 'positionName': 'RIGHT', 'positionCoords': [832.52, 245.5], 'bid': 0.25}]",193201.80000019073,1669829507489,tacos,turkey sandwich,6.48,0.25,-6.23,tacos,857.0999999046326,857,857.3999998569489,True,u,194568.5,1366.6999998092651,1669829508855,1366,HRV,HRV_0010,2022-11-30 17:34:11
98,"[{'imgObject': {}, 'id': 'mango', 'src': '/static/foodstim60/mango.jpg', 'key': 'u', 'origWidth': 411, 'origHeight': 411, 'width': 411, 'height': 411, 'widthPercent': 0.45, 'rescaleHeight': False, 'trialN': 98, 'loaded': True, 'loadedTime': 2780.4000000953674, 'positionName': 'LEFT', 'positionCoords': [357.48, 244.5], 'bid': 6.21}, {'imgObject': {}, 'id': 'mashed potato', 'src': '/static/foodstim60/mashed potato.jpg', 'key': 'i', 'origWidth': 409, 'origHeight': 409, 'width': 409, 'height': 409, 'widthPercent': 0.45, 'rescaleHeight': False, 'trialN': 98, 'loaded': True, 'loadedTime': 2850.4000000953674, 'positionName': 'RIGHT', 'positionCoords': [832.52, 245.5], 'bid': 5.23}]",194568.80000019073,1669829508856,mango,mashed potato,6.21,5.23,-0.9799999999999995,mango,1107.5999999046326,1108,1108.0,True,u,196185.20000004768,1616.3999998569489,1669829510472,1616,HRV,HRV_0010,2022-11-30 17:34:11
99,"[{'imgObject': {}, 'id': 'baked potato', 'src': '/static/foodstim60/baked potato.jpg', 'key': 'u', 'origWidth': 409, 'origHeight': 410, 'width': 409, 'height': 410, 'widthPercent': 0.45, 'rescaleHeight': False, 'trialN': 99, 'loaded': True, 'loadedTime': 2859.9000000953674, 'positionName': 'LEFT', 'positionCoords': [359.48, 245], 'bid': 7.97}, {'imgObject': {}, 'id': 'banana', 'src': '/static/foodstim60/banana.jpg', 'key': 'i', 'origWidth': 410, 'origHeight': 410, 'width': 410, 'height': 410, 'widthPercent': 0.45, 'rescaleHeight': False, 'trialN': 99, 'loaded': True, 'loadedTime': 2866.2000000476837, 'positionName': 'RIGHT', 'positionCoords': [832.52, 245], 'bid': 6.04}]",196185.40000009537,1669829510472,baked potato,banana,7.97,6.04,-1.9299999999999997,baked potato,807.5,808,808.0,True,u,197505.70000004768,1320.2999999523163,1669829511792,1320,HRV,HRV_0010,2022-11-30 17:34:11
100,"[{'imgObject': {}, 'id': 'salmon', 'src': '/static/foodstim60/salmon.jpg', 'key': 'u', 'origWidth': 410, 'origHeight': 409, 'width': 410, 'height': 409, 'widthPercent': 0.45, 'rescaleHeight': False, 'trialN': 100, 'loaded': True, 'loadedTime': 2827.300000190735, 'positionName': 'LEFT', 'positionCoords': [358.48, 245.5], 'bid': 8.92}, {'imgObject': {}, 'id': 'mac & cheese', 'src': '/static/foodstim60/mac & cheese.jpg', 'key': 'i', 'origWidth': 410, 'origHeight': 410, 'width': 410, 'height': 410, 'widthPercent': 0.45, 'rescaleHeight': False, 'trialN': 100, 'loaded': True, 'loadedTime': 2750.4000000953674, 'positionName': 'RIGHT', 'positionCoords': [832.52, 245], 'bid': 8.870000000000001}]",197505.90000009537,1669829511793,salmon,mac & cheese,8.92,8.870000000000001,-0.049999999999998934,mac & cheese,1081.7000000476837,1082,1082.2999999523163,True,i,199104.60000014305,1598.7000000476837,1669829513391,1598,HRV,HRV_0010,2022-11-30 17:34:11
101,"[{'imgObject': {}, 'id': 'avocado', 'src': '/static/foodstim60/avocado.jpg', 'key': 'u', 'origWidth': 409, 'origHeight': 409, 'width': 409, 'height': 409, 'widthPercent': 0.45, 'rescaleHeight': False, 'trialN': 101, 'loaded': True, 'loadedTime': 2860.9000000953674, 'positionName': 'LEFT', 'positionCoords': [359.48, 245.5], 'bid': 7.2}, {'imgObject': {}, 'id': 'froot loops w milk', 'src': '/static/foodstim60/froot loops w milk.jpg', 'key': 'i', 'origWidth': 410, 'origHeight': 410, 'width': 410, 'height': 410, 'widthPercent': 0.45, 'rescaleHeight': False, 'trialN': 101, 'loaded': True, 'loadedTime': 2757.600000143051, 'positionName': 'RIGHT', 'positionCoords': [832.52, 245], 'bid': 6.99}]",199105.30000019073,1669829513392,avocado,froot loops w milk,7.2,6.99,-0.20999999999999996,avocado,855.2999999523163,856,855.8999998569489,True,u,200470.90000009537,1365.5999999046326,1669829514758,1366,HRV,HRV_0010,2022-11-30 17:34:11
102,"[{'imgObject': {}, 'id': 'popsicles', 'src': '/static/foodstim60/popsicles.jpg', 'key': 'u', 'origWidth': 410, 'origHeight': 410, 'width': 410, 'height': 410, 'widthPercent': 0.45, 'rescaleHeight': False, 'trialN': 102, 'loaded': True, 'loadedTime': 2872.2000000476837, 'positionName': 'LEFT', 'positionCoords': [358.48, 245], 'bid': 2.05}, {'imgObject': {}, 'id': 'cheerios', 'src': '/static/foodstim60/cheerios.jpg', 'key': 'i', 'origWidth': 409, 'origHeight': 410, 'width': 409, 'height': 410, 'widthPercent': 0.45, 'rescaleHeight': False, 'trialN': 102, 'loaded': True, 'loadedTime': 2758.800000190735, 'positionName': 'RIGHT', 'positionCoords': [832.52, 245], 'bid': 6.86}]",200471.20000004768,1669829514758,popsicles,cheerios,2.05,6.86,4.8100000000000005,cheerios,770.0,770,770.5,True,i,201748.10000014305,1276.9000000953674,1669829516035,1277,HRV,HRV_0010,2022-11-30 17:34:11
103,"[{'imgObject': {}, 'id': 'banana', 'src': '/static/foodstim60/banana.jpg', 'key': 'u', 'origWidth': 410, 'origHeight': 410, 'width': 410, 'height': 410, 'widthPercent': 0.45, 'rescaleHeight': False, 'trialN': 103, 'loaded': True, 'loadedTime': 2865.7000000476837, 'positionName': 'LEFT', 'positionCoords': [358.48, 245], 'bid': 6.04}, {'imgObject': {}, 'id': 'strawberries', 'src': '/static/foodstim60/strawberries.jpg', 'key': 'i', 'origWidth': 410, 'origHeight': 410, 'width': 410, 'height': 410, 'widthPercent': 0.45, 'rescaleHeight': False, 'trialN': 103, 'loaded': True, 'loadedTime': 2821.7000000476837, 'positionName': 'RIGHT', 'positionCoords': [832.52, 245], 'bid': 6.26}]",201748.30000019073,1669829516035,banana,strawberries,6.04,6.26,0.21999999999999975,strawberries,1036.7999999523163,1037,1037.1999998092651,True,i,203297.30000019073,1549.0,1669829517584,1549,HRV,HRV_0010,2022-11-30 17:34:11
104,"[{'imgObject': {}, 'id': 'hashbrowns', 'src': '/static/foodstim60/hashbrowns.jpg', 'key': 'u', 'origWidth': 411, 'origHeight': 410, 'width': 411, 'height': 410, 'widthPercent': 0.45, 'rescaleHeight': False, 'trialN': 104, 'loaded': True, 'loadedTime': 2766.4000000953674, 'positionName': 'LEFT', 'positionCoords': [357.48, 245], 'bid': 4.88}, {'imgObject': {}, 'id': 'raspberries', 'src': '/static/foodstim60/raspberries.jpg', 'key': 'i', 'origWidth': 411, 'origHeight': 411, 'width': 411, 'height': 411, 'widthPercent': 0.45, 'rescaleHeight': False, 'trialN': 104, 'loaded': True, 'loadedTime': 2775.2000000476837, 'positionName': 'RIGHT', 'positionCoords': [832.52, 244.5], 'bid': 4.89}]",203297.60000014305,1669829517584,hashbrowns,raspberries,4.88,4.89,0.009999999999999787,raspberries,1264.0,1265,1264.3999998569489,True,i,205080.0,1782.3999998569489,1669829519367,1783,HRV,HRV_0010,2022-11-30 17:34:11
105,"[{'imgObject': {}, 'id': 'mac & cheese', 'src': '/static/foodstim60/mac & cheese.jpg', 'key': 'u', 'origWidth': 410, 'origHeight': 410, 'width': 410, 'height': 410, 'widthPercent': 0.45, 'rescaleHeight': False, 'trialN': 105, 'loaded': True, 'loadedTime': 2751.600000143051, 'positionName': 'LEFT', 'positionCoords': [358.48, 245], 'bid': 8.870000000000001}, {'imgObject': {}, 'id': 'baked potato', 'src': '/static/foodstim60/baked potato.jpg', 'key': 'i', 'origWidth': 409, 'origHeight': 410, 'width': 409, 'height': 410, 'widthPercent': 0.45, 'rescaleHeight': False, 'trialN': 105, 'loaded': True, 'loadedTime': 2859.800000190735, 'positionName': 'RIGHT', 'positionCoords': [832.52, 245], 'bid': 7.97}]",205080.20000004768,1669829519367,mac & cheese,baked potato,8.870000000000001,7.97,-0.9000000000000012,mac & cheese,1181.0,1181,1181.5,True,u,206768.40000009537,1688.2000000476837,1669829521055,1688,HRV,HRV_0010,2022-11-30 17:34:11
106,"[{'imgObject': {}, 'id': 'sweetpotato', 'src': '/static/foodstim60/sweetpotato.jpg', 'key': 'u', 'origWidth': 410, 'origHeight': 410, 'width': 410, 'height': 410, 'widthPercent': 0.45, 'rescaleHeight': False, 'trialN': 106, 'loaded': True, 'loadedTime': 2867, 'positionName': 'LEFT', 'positionCoords': [358.48, 245], 'bid': 8.44}, {'imgObject': {}, 'id': 'mac & cheese', 'src': '/static/foodstim60/mac & cheese.jpg', 'key': 'i', 'origWidth': 410, 'origHeight': 410, 'width': 410, 'height': 410, 'widthPercent': 0.45, 'rescaleHeight': False, 'trialN': 106, 'loaded': True, 'loadedTime': 2751.9000000953674, 'positionName': 'RIGHT', 'positionCoords': [832.52, 245], 'bid': 8.870000000000001}]",206768.60000014305,1669829521055,sweetpotato,mac & cheese,8.44,8.870000000000001,0.4300000000000015,sweetpotato,1173.7999999523163,1175,1174.2000000476837,True,u,208463.60000014305,1695.0,1669829522750,1695,HRV,HRV_0010,2022-11-30 17:34:11
107,"[{'imgObject': {}, 'id': 'hashbrowns', 'src': '/static/foodstim60/hashbrowns.jpg', 'key': 'u', 'origWidth': 411, 'origHeight': 410, 'width': 411, 'height': 410, 'widthPercent': 0.45, 'rescaleHeight': False, 'trialN': 107, 'loaded': True, 'loadedTime': 2766.9000000953674, 'positionName': 'LEFT', 'positionCoords': [357.48, 245], 'bid': 4.88}, {'imgObject': {}, 'id': 'pear', 'src': '/static/foodstim60/pear.jpg', 'key': 'i', 'origWidth': 411, 'origHeight': 410, 'width': 411, 'height': 410, 'widthPercent': 0.45, 'rescaleHeight': False, 'trialN': 107, 'loaded': True, 'loadedTime': 2859.100000143051, 'positionName': 'RIGHT', 'positionCoords': [832.52, 245], 'bid': 5.66}]",208463.80000019073,1669829522751,hashbrowns,pear,4.88,5.66,0.7800000000000002,pear,1487.2999999523163,1487,1488.0,True,i,210462.80000019073,1999.0,1669829524750,1999,HRV,HRV_0010,2022-11-30 17:34:11
108,"[{'imgObject': {}, 'id': 'cherry tomato', 'src': '/static/foodstim60/cherry tomato.jpg', 'key': 'u', 'origWidth': 410, 'origHeight': 410, 'width': 410, 'height': 410, 'widthPercent': 0.45, 'rescaleHeight': False, 'trialN': 108, 'loaded': True, 'loadedTime': 2744.9000000953674, 'positionName': 'LEFT', 'positionCoords': [358.48, 245], 'bid': 4.78}, {'imgObject': {}, 'id': 'sweetpotato', 'src': '/static/foodstim60/sweetpotato.jpg', 'key': 'i', 'origWidth': 410, 'origHeight': 410, 'width': 410, 'height': 410, 'widthPercent': 0.45, 'rescaleHeight': False, 'trialN': 108, 'loaded': True, 'loadedTime': 2866.4000000953674, 'positionName': 'RIGHT', 'positionCoords': [832.52, 245], 'bid': 8.44}]",210463.0,1669829524750,cherry tomato,sweetpotato,4.78,8.44,3.6599999999999993,sweetpotato,713.5,714,713.9000000953674,True,i,211683.20000004768,1220.2000000476837,1669829525970,1220,HRV,HRV_0010,2022-11-30 17:34:11
