success,trial_type,trial_index,time_elapsed,internal_node_id,Block,TrialNumber,TrialTime,trialTimeDiff,FPS_avg,FPS_med,FPS_mode,TrialDur,winResizeTime,rt,block,button_pressed,MotCoh,MotDir,ColCoh,Color,ChoiceKey,Choice,Accuracy,RT,nFrames,FPS,PPD,missTrial,missTrialMsg,onsetDelay,fullScreenExitTime,canvCenter,TrialType,Score,BlockTrial,stimulus,button_labels,exp,subjectId,date
True,fullscreen,0,2268,0.0-0.0,0.0,1.0,,,,,,,,,,,,,,,,,,,,,,,,,,,,,,,,HRV,HRV_0010,2022-11-30 18:02:11
,wl-check-fps,1,7254,0.0-1.0,0.0,2.0,"[2838.3, 2839.2, 2854.5, 2871.3, 2888, 2904.9, 2921.2, 2940.2, 2956.1, 2972.7, 2989.9, 3006.4, 3022.8, 3038.9, 3054.8, 3071.3, 3088.3, 3104.5, 3121.3, 3138.6, 3154.9, 3171.3, 3187.9, 3204.7, 3221.4, 3238, 3254.9, 3271.3, 3287.5, 3304.5, 3321.3, 3338.1, 3354.6, 3370.8, 3388.4, 3405.2, 3421.5, 3438.5, 3455, 3471.4, 3487.9, 3505, 3521.5, 3538.6, 3554.2, 3571.1, 3588.2, 3604.4, 3620.7, 3637.5, 3654.3, 3671.1, 3687.9, 3704.3, 3721, 3737.6, 3754.2, 3770.7, 3787.5, 3804.1, 3821.2, 3838.3, 3855.2, 3870.9, 3888.2, 3904.6, 3921.7, 3937.7, 3955, 3971.1, 3987.4, 4004.6, 4021.2, 4037.8, 4054.5, 4071.3, 4088.1, 4104.8, 4121, 4138.2, 4155.1, 4171.9, 4187.8, 4205, 4221.3, 4238.1, 4254.4, 4271.3, 4288, 4304.6, 4321.5, 4338, 4354.4, 4371.2, 4388.1, 4404.7, 4421.3, 4438.1, 4454.6, 4471.1, 4487.7, 4504.4, 4521, 4538, 4554.5, 4571.2, 4587.7, 4604.5, 4621.1, 4637.8, 4654.4, 4671.4, 4687.9, 4704.3, 4721.1, 4737.8, 4754.5, 4771.1, 4787.9, 4804.2, 4821, 4837.5, 4854.5, 4871.2, 4887, 4904.3, 4921.1, 4937.8, 4954.3, 4970.7, 4987.4, 5003.5, 5020.2, 5037.5, 5054.2, 5070.7, 5087.1, 5104.6, 5120.9, 5138.2, 5154.1, 5170.9, 5187.7, 5204.2, 5221.1, 5237.8, 5254.2, 5270.9, 5287.7, 5304.4, 5320.9, 5337.2, 5354.1, 5371.2, 5387.4, 5404.2, 5421, 5437.3, 5454.2, 5470.9, 5487.7, 5504.3, 5520.9, 5537.4, 5554.1, 5570.7, 5587.9, 5603.3, 5620.6, 5637.6, 5654, 5670.8, 5687.5, 5704.2, 5720.9, 5737.5, 5753.8, 5770.9, 5787.4, 5804.1, 5820.7, 5836.8, 5853.6, 5870, 5886.9, 5903.8, 5919.9, 5937.3, 5954.2, 5971.1, 5987.1, 6003.9, 6020.3, 6037.4, 6053.9, 6070.2, 6086.9, 6103.9, 6120.3, 6136.8, 6153.8, 6170.2, 6186.9, 6203.9, 6220.4, 6237, 6253.9, 6270.6, 6287.4, 6303.4, 6320.1, 6336.6, 6353.7, 6370.6, 6387.3, 6403.8, 6420.6, 6437.2, 6453.9, 6472.2, 6489.4, 6505.7, 6522.8, 6539.2, 6555.7, 6571.3, 6586.9, 6605.6, 6622.2, 6637.1, 6653.6, 6671.2, 6687.7, 6704.5, 6721.3, 6737.8, 6754.3, 6771.2, 6787.8, 6804.3, 6821.4, 6837.8, 6854.7, 6871.1, 6888.2, 6904.3, 6921.5, 6937.7, 6953, 6970, 6987.6, 7004.3, 7021.1, 7037.5, 7054.4, 7071, 7088, 7104.3, 7121.3, 7137.6, 7154.3, 7169.7, 7186.6, 7203.3, 7220.4, 7236.5, 7253.9, 7270.5, 7287.1, 7303.5, 7320.3, 7337, 7353.4, 7369.6, 7386.5, 7403, 7419.6, 7436.2, 7452.9, 7469.7, 7486.4, 7502.8, 7519.6, 7536.5, 7552.7, 7569.5, 7586.8, 7602.7, 7619.9, 7636.3, 7652.7, 7669.5, 7686.1, 7702.9, 7719.7, 7736.5, 7753.2, 7770, 7787.2, 7803.2]","[1.1, 0.9, 15.3, 16.8, 16.7, 16.9, 16.3, 19, 15.9, 16.6, 17.2, 16.5, 16.4, 16.1, 15.9, 16.5, 17, 16.2, 16.8, 17.3, 16.3, 16.4, 16.6, 16.8, 16.7, 16.6, 16.9, 16.4, 16.2, 17, 16.8, 16.8, 16.5, 16.2, 17.6, 16.8, 16.3, 17, 16.5, 16.4, 16.5, 17.1, 16.5, 17.1, 15.6, 16.9, 17.1, 16.2, 16.3, 16.8, 16.8, 16.8, 16.8, 16.4, 16.7, 16.6, 16.6, 16.5, 16.8, 16.6, 17.1, 17.1, 16.9, 15.7, 17.3, 16.4, 17.1, 16, 17.3, 16.1, 16.3, 17.2, 16.6, 16.6, 16.7, 16.8, 16.8, 16.7, 16.2, 17.2, 16.9, 16.8, 15.9, 17.2, 16.3, 16.8, 16.3, 16.9, 16.7, 16.6, 16.9, 16.5, 16.4, 16.8, 16.9, 16.6, 16.6, 16.8, 16.5, 16.5, 16.6, 16.7, 16.6, 17, 16.5, 16.7, 16.5, 16.8, 16.6, 16.7, 16.6, 17, 16.5, 16.4, 16.8, 16.7, 16.7, 16.6, 16.8, 16.3, 16.8, 16.5, 17, 16.7, 15.8, 17.3, 16.8, 16.7, 16.5, 16.4, 16.7, 16.1, 16.7, 17.3, 16.7, 16.5, 16.4, 17.5, 16.3, 17.3, 15.9, 16.8, 16.8, 16.5, 16.9, 16.7, 16.4, 16.7, 16.8, 16.7, 16.5, 16.3, 16.9, 17.1, 16.2, 16.8, 16.8, 16.3, 16.9, 16.7, 16.8, 16.6, 16.6, 16.5, 16.7, 16.6, 17.2, 15.4, 17.3, 17, 16.4, 16.8, 16.7, 16.7, 16.7, 16.6, 16.3, 17.1, 16.5, 16.7, 16.6, 16.1, 16.8, 16.4, 16.9, 16.9, 16.1, 17.4, 16.9, 16.9, 16, 16.8, 16.4, 17.1, 16.5, 16.3, 16.7, 17, 16.4, 16.5, 17, 16.4, 16.7, 17, 16.5, 16.6, 16.9, 16.7, 16.8, 16, 16.7, 16.5, 17.1, 16.9, 16.7, 16.5, 16.8, 16.6, 16.7, 18.3, 17.2, 16.3, 17.1, 16.4, 16.5, 15.6, 15.6, 18.7, 16.6, 14.9, 16.5, 17.6, 16.5, 16.8, 16.8, 16.5, 16.5, 16.9, 16.6, 16.5, 17.1, 16.4, 16.9, 16.4, 17.1, 16.1, 17.2, 16.2, 15.3, 17, 17.6, 16.7, 16.8, 16.4, 16.9, 16.6, 17, 16.3, 17, 16.3, 16.7, 15.4, 16.9, 16.7, 17.1, 16.1, 17.4, 16.6, 16.6, 16.4, 16.8, 16.7, 16.4, 16.2, 16.9, 16.5, 16.6, 16.6, 16.7, 16.8, 16.7, 16.4, 16.8, 16.9, 16.2, 16.8, 17.3, 15.9, 17.2, 16.4, 16.4, 16.8, 16.6, 16.8, 16.8, 16.8, 16.7, 16.8, 17.2, 16]",60.0,60.0,60.0,4982.9,[],,,,,,,,,,,,,,,,,,,,,,,,,HRV,HRV_0010,2022-11-30 18:02:11
,wl-html-keyboard-response,2,21583,0.0-2.0-0.0,0.0,3.0,,,,,,,,12308.800000190735,0.0,0,,,,,,,,,,,,,,,,,,,,,,HRV,HRV_0010,2022-11-30 18:02:11
,wl-rdm,3,28512,0.0-3.0-0.0,0.0,4.0,,,,,,,[],,,,0.0,0.0,87.9,0.0,u,0.0,True,1340.4999997615814,81.0,60.0,40.0,False,,3000.0,[],"[800.5, 450]",ColorTask_Demo,,,,,HRV,HRV_0010,2022-11-30 18:02:11
,wl-rdm,4,33293,0.0-3.0-1.0,0.0,5.0,,,,,,,[],,,,0.0,0.0,87.9,1.0,i,1.0,True,710.0,43.0,60.0,40.0,False,,2000.0,[],"[800.5, 450]",ColorTask_Demo,,,,,HRV,HRV_0010,2022-11-30 18:02:11
,wl-html-keyboard-response,5,46429,0.0-3.0-2.0,0.0,6.0,,,,,,,,11125.799999952316,0.0,1,,,,,,,,,,,,,,,,,,,,,,HRV,HRV_0010,2022-11-30 18:02:11
,wl-html-keyboard-response,6,55805,0.0-4.0-0.0,0.0,7.0,,,,,,,,7369.5,0.0,0,,,,,,,,,,,,,,,,,,,,,,HRV,HRV_0010,2022-11-30 18:02:11
,wl-html-keyboard-response,7,74981,0.0-5.0-0.0,0.0,8.0,,,,,,,,17167.0,0.0,0,,,,,,,,,,,,,,,,,,,,,,HRV,HRV_0010,2022-11-30 18:02:11
,wl-rdm,8,77662,0.0-6.0-0.0,0.0,9.0,,,,,,,[],,,,,,62.5,1.0,i,1.0,True,1369.3000001907349,83.0,60.0,40.0,False,,223.77174615783227,[],"[800.5, 450]",ColorTask,1.0,1.0,,,HRV,HRV_0010,2022-11-30 18:02:11
,wl-rdm,9,79712,0.0-6.1-0.1,0.0,10.0,,,,,,,[],,,,,,62.5,0.0,u,0.0,True,706.8000001907349,43.0,60.0,40.0,False,,252.64039667183278,[],"[800.5, 450]",ColorTask,2.0,2.0,,,HRV,HRV_0010,2022-11-30 18:02:11
,wl-rdm,10,81928,0.0-6.2-0.2,0.0,11.0,,,,,,,[],,,,,,73.6,1.0,i,1.0,True,787.9000000953674,48.0,60.0,40.0,False,,350.5661286113336,[],"[800.5, 450]",ColorTask,3.0,3.0,,,HRV,HRV_0010,2022-11-30 18:02:11
,wl-rdm,11,84010,0.0-6.3-0.3,0.0,12.0,,,,,,,[],,,,,,62.5,0.0,u,0.0,True,718.2999999523163,44.0,60.0,40.0,False,,284.6846098317503,[],"[800.5, 450]",ColorTask,4.0,4.0,,,HRV,HRV_0010,2022-11-30 18:02:11
,wl-rdm,12,86375,0.0-6.4-0.4,0.0,13.0,,,,,,,[],,,,,,56.4,1.0,i,1.0,True,1056.7999999523163,64.0,60.0,40.0,False,,217.77664474744537,[],"[800.5, 450]",ColorTask,5.0,5.0,,,HRV,HRV_0010,2022-11-30 18:02:11
,wl-rdm,13,88758,0.0-6.5-0.5,0.0,14.0,,,,,,,[],,,,,,50.0,0.0,u,0.0,True,960.0,58.0,60.0,40.0,False,,352.00873614489217,[],"[800.5, 450]",ColorTask,6.0,6.0,,,HRV,HRV_0010,2022-11-30 18:02:11
,wl-rdm,14,91058,0.0-6.6-0.6,0.0,15.0,,,,,,,[],,,,,,50.0,1.0,u,0.0,False,952.0,58.0,60.0,40.0,False,,271.2630223758117,[],"[800.5, 450]",ColorTask,5.0,7.0,,,HRV,HRV_0010,2022-11-30 18:02:11
,wl-rdm,15,93256,0.0-6.7-0.7,0.0,16.0,,,,,,,[],,,,,,73.6,0.0,u,0.0,True,847.1999998092651,51.0,60.0,40.0,False,,271.716134484072,[],"[800.5, 450]",ColorTask,6.0,8.0,,,HRV,HRV_0010,2022-11-30 18:02:11
,wl-rdm,16,95339,0.0-6.8-0.8,0.0,17.0,,,,,,,[],,,,,,73.6,1.0,i,1.0,True,789.5999999046326,48.0,60.0,40.0,False,,224.5760719362064,[],"[800.5, 450]",ColorTask,7.0,9.0,,,HRV,HRV_0010,2022-11-30 18:02:11
,wl-rdm,17,97438,0.0-6.9-0.9,0.0,18.0,,,,,,,[],,,,,,87.9,1.0,i,1.0,True,715.6999998092651,43.0,60.0,40.0,False,,311.5709450505057,[],"[800.5, 450]",ColorTask,8.0,10.0,,,HRV,HRV_0010,2022-11-30 18:02:11
,wl-rdm,18,99771,0.0-6.10-0.10,0.0,19.0,,,,,,,[],,,,,,73.6,1.0,i,1.0,True,944.9000000953674,57.0,60.0,40.0,False,,314.67610118838115,[],"[800.5, 450]",ColorTask,9.0,11.0,,,HRV,HRV_0010,2022-11-30 18:02:11
,wl-rdm,19,101903,0.0-6.11-0.11,0.0,20.0,,,,,,,[],,,,,,73.6,0.0,u,0.0,True,652.4000000953674,40.0,60.0,40.0,False,,394.1075386203824,[],"[800.5, 450]",ColorTask,10.0,12.0,,,HRV,HRV_0010,2022-11-30 18:02:11
,wl-rdm,20,104169,0.0-6.12-0.12,0.0,21.0,,,,,,,[],,,,,,50.0,0.0,i,1.0,False,910.9000000953674,55.0,60.0,40.0,False,,267.97843784140383,[],"[800.5, 450]",ColorTask,9.0,13.0,,,HRV,HRV_0010,2022-11-30 18:02:11
,wl-rdm,21,106319,0.0-6.13-0.13,0.0,22.0,,,,,,,[],,,,,,87.9,0.0,u,0.0,True,855.7000000476837,52.0,60.0,40.0,False,,214.199535491952,[],"[800.5, 450]",ColorTask,10.0,14.0,,,HRV,HRV_0010,2022-11-30 18:02:11
,wl-rdm,22,108918,0.0-6.14-0.14,0.0,23.0,,,,,,,[],,,,,,62.5,0.0,u,0.0,True,1184.9000000953674,72.0,60.0,40.0,False,,330.6222745332457,[],"[800.5, 450]",ColorTask,11.0,15.0,,,HRV,HRV_0010,2022-11-30 18:02:11
,wl-rdm,23,112066,0.0-6.15-0.15,0.0,24.0,,,,,,,[],,,,,,56.4,1.0,i,1.0,True,1851.3999998569489,112.0,60.0,40.0,False,,203.88302362090724,[],"[800.5, 450]",ColorTask,12.0,16.0,,,HRV,HRV_0010,2022-11-30 18:02:11
,wl-rdm,24,116198,0.0-6.16-0.16,0.0,25.0,,,,,,,[],,,,,,53.2,1.0,i,1.0,True,2672.0999999046326,161.0,60.0,40.0,False,,372.93147453007293,[],"[800.5, 450]",ColorTask,13.0,17.0,,,HRV,HRV_0010,2022-11-30 18:02:11
,wl-rdm,25,118297,0.0-6.17-0.17,0.0,26.0,,,,,,,[],,,,,,87.9,0.0,u,0.0,True,811.1000001430511,49.0,60.0,40.0,False,,225.74669710073726,[],"[800.5, 450]",ColorTask,14.0,18.0,,,HRV,HRV_0010,2022-11-30 18:02:11
,wl-rdm,26,121730,0.0-6.18-0.18,0.0,27.0,,,,,,,[],,,,,,56.4,0.0,u,0.0,True,2042.4000000953674,123.0,60.0,40.0,False,,314.57071585760724,[],"[800.5, 450]",ColorTask,15.0,19.0,,,HRV,HRV_0010,2022-11-30 18:02:11
,wl-rdm,27,125029,0.0-6.19-0.19,0.0,28.0,,,,,,,[],,,,,,53.2,0.0,i,1.0,False,1864.0999999046326,112.0,60.0,40.0,False,,354.71029818906993,[],"[800.5, 450]",ColorTask,14.0,20.0,,,HRV,HRV_0010,2022-11-30 18:02:11
,wl-rdm,28,128828,0.0-6.20-0.20,0.0,29.0,,,,,,,[],,,,,,56.4,0.0,u,0.0,True,2321.7999999523163,140.0,60.0,40.0,False,,386.7851368030117,[],"[800.5, 450]",ColorTask,15.0,21.0,,,HRV,HRV_0010,2022-11-30 18:02:11
,wl-rdm,29,131593,0.0-6.21-0.21,0.0,30.0,,,,,,,[],,,,,,50.0,1.0,i,1.0,True,1461.5999999046326,88.0,60.0,40.0,False,,240.65204698243463,[],"[800.5, 450]",ColorTask,16.0,22.0,,,HRV,HRV_0010,2022-11-30 18:02:11
,wl-rdm,30,134143,0.0-6.22-0.22,0.0,31.0,,,,,,,[],,,,,,73.6,1.0,i,1.0,True,1162.5,70.0,60.0,40.0,False,,330.70220011898743,[],"[800.5, 450]",ColorTask,17.0,23.0,,,HRV,HRV_0010,2022-11-30 18:02:11
,wl-rdm,31,136775,0.0-6.23-0.23,0.0,32.0,,,,,,,[],,,,,,56.4,0.0,u,0.0,True,1317.5,80.0,60.0,40.0,False,,229.47447255036008,[],"[800.5, 450]",ColorTask,18.0,24.0,,,HRV,HRV_0010,2022-11-30 18:02:11
,wl-rdm,32,141090,0.0-6.24-0.24,0.0,33.0,,,,,,,[],,,,,,50.0,0.0,u,0.0,True,2994.5,179.0,60.0,40.0,False,,236.90358887690013,[],"[800.5, 450]",ColorTask,19.0,25.0,,,HRV,HRV_0010,2022-11-30 18:02:11
,wl-rdm,33,145088,0.0-6.25-0.25,0.0,34.0,,,,,,,[],,,,,,62.5,0.0,u,0.0,True,2700.4000000953674,163.0,60.0,40.0,False,,210.61767162057308,[],"[800.5, 450]",ColorTask,20.0,26.0,,,HRV,HRV_0010,2022-11-30 18:02:11
,wl-rdm,34,147521,0.0-6.26-0.26,0.0,35.0,,,,,,,[],,,,,,53.2,0.0,i,1.0,False,1133.6000001430511,69.0,60.0,40.0,False,,212.79794695214412,[],"[800.5, 450]",ColorTask,19.0,27.0,,,HRV,HRV_0010,2022-11-30 18:02:11
,wl-rdm,35,150070,0.0-6.27-0.27,0.0,36.0,,,,,,,[],,,,,,87.9,1.0,i,1.0,True,1200.7999999523163,73.0,60.0,40.0,False,,254.99279552074503,[],"[800.5, 450]",ColorTask,20.0,28.0,,,HRV,HRV_0010,2022-11-30 18:02:11
,wl-rdm,36,153951,0.0-6.28-0.28,0.0,37.0,,,,,,,[],,,,,,53.2,1.0,i,1.0,True,2454.7999997138977,148.0,60.0,40.0,False,,333.54604446207884,[],"[800.5, 450]",ColorTask,21.0,29.0,,,HRV,HRV_0010,2022-11-30 18:02:11
,wl-rdm,37,157517,0.0-6.29-0.29,0.0,38.0,,,,,,,[],,,,,,62.5,1.0,i,1.0,True,2269.4000000953674,137.0,60.0,40.0,False,,213.92586461199542,[],"[800.5, 450]",ColorTask,22.0,30.0,,,HRV,HRV_0010,2022-11-30 18:02:11
,wl-rdm,38,161266,0.0-6.30-0.30,0.0,39.0,,,,,,,[],,,,,,50.0,1.0,u,0.0,False,2451.2999999523163,148.0,60.0,40.0,False,,221.0023261988474,[],"[800.5, 450]",ColorTask,21.0,31.0,,,HRV,HRV_0010,2022-11-30 18:02:11
,wl-rdm,39,164015,0.0-6.31-0.31,0.0,40.0,,,,,,,[],,,,,,53.2,1.0,u,0.0,False,1386.5,84.0,60.0,40.0,False,,288.56109512983375,[],"[800.5, 450]",ColorTask,20.0,32.0,,,HRV,HRV_0010,2022-11-30 18:02:11
,wl-rdm,40,167081,0.0-6.32-0.32,0.0,41.0,,,,,,,[],,,,,,53.2,1.0,i,1.0,True,1704.5,103.0,60.0,40.0,False,,267.2713613864258,[],"[800.5, 450]",ColorTask,21.0,33.0,,,HRV,HRV_0010,2022-11-30 18:02:11
,wl-rdm,41,170829,0.0-6.33-0.33,0.0,42.0,,,,,,,[],,,,,,62.5,0.0,u,0.0,True,2383.9999997615814,144.0,60.0,40.0,False,,281.165220961185,[],"[800.5, 450]",ColorTask,22.0,34.0,,,HRV,HRV_0010,2022-11-30 18:02:11
,wl-rdm,42,173229,0.0-6.34-0.34,0.0,43.0,,,,,,,[],,,,,,73.6,0.0,u,0.0,True,1091.4000000953674,66.0,60.0,40.0,False,,242.64010777734285,[],"[800.5, 450]",ColorTask,23.0,35.0,,,HRV,HRV_0010,2022-11-30 18:02:11
,wl-rdm,43,177144,0.0-6.35-0.35,0.0,44.0,,,,,,,[],,,,,,53.2,1.0,i,1.0,True,2591.5,156.0,60.0,40.0,False,,243.67153058783705,[],"[800.5, 450]",ColorTask,24.0,36.0,,,HRV,HRV_0010,2022-11-30 18:02:11
,wl-rdm,44,179643,0.0-6.36-0.36,0.0,45.0,,,,,,,[],,,,,,73.6,0.0,u,0.0,True,1188.5,72.0,60.0,40.0,False,,220.69483587402593,[],"[800.5, 450]",ColorTask,25.0,37.0,,,HRV,HRV_0010,2022-11-30 18:02:11
,wl-rdm,45,181909,0.0-6.37-0.37,0.0,46.0,,,,,,,[],,,,,,87.9,0.0,u,0.0,True,921.0,56.0,60.0,40.0,False,,251.5229654808461,[],"[800.5, 450]",ColorTask,26.0,38.0,,,HRV,HRV_0010,2022-11-30 18:02:11
,wl-rdm,46,186307,0.0-6.38-0.38,0.0,47.0,,,,,,,[],,,,,,50.0,0.0,i,1.0,False,3015.800000190735,179.0,60.0,40.0,False,,304.93385597918586,[],"[800.5, 450]",ColorTask,25.0,39.0,,,HRV,HRV_0010,2022-11-30 18:02:11
,wl-rdm,47,188574,0.0-6.39-0.39,0.0,48.0,,,,,,,[],,,,,,87.9,0.0,u,0.0,True,928.5000002384186,56.0,60.0,40.0,False,,263.5190020506564,[],"[800.5, 450]",ColorTask,26.0,40.0,,,HRV,HRV_0010,2022-11-30 18:02:11
,wl-rdm,48,190822,0.0-6.40-0.40,0.0,49.0,,,,,,,[],,,,,,87.9,0.0,u,0.0,True,922.7000000476837,56.0,60.0,40.0,False,,247.9480168090605,[],"[800.5, 450]",ColorTask,27.0,41.0,,,HRV,HRV_0010,2022-11-30 18:02:11
,wl-rdm,49,195205,0.0-6.41-0.41,0.0,49.0,,,,,,,[],,,,,,53.2,0.0,,,,,179.0,60.0,40.0,True,RT_timeout ,275.57213807111185,[],"[800.5, 450]",ColorTask,26.0,42.0,,,HRV,HRV_0010,2022-11-30 18:02:11
,wl-rdm,50,197637,0.0-6.42-0.42,0.0,50.0,,,,,,,[],,,,,,73.6,0.0,u,0.0,True,1001.5999999046326,61.0,60.0,40.0,False,,349.33968520770986,[],"[800.5, 450]",ColorTask,27.0,43.0,,,HRV,HRV_0010,2022-11-30 18:02:11
,wl-rdm,51,200619,0.0-6.43-0.43,0.0,51.0,,,,,,,[],,,,,,62.5,1.0,i,1.0,True,1660.1999998092651,100.0,60.0,40.0,False,,233.44315648183863,[],"[800.5, 450]",ColorTask,28.0,44.0,,,HRV,HRV_0010,2022-11-30 18:02:11
,wl-rdm,52,203735,0.0-6.44-0.44,0.0,52.0,,,,,,,[],,,,,,53.2,0.0,i,1.0,False,1819.0,110.0,60.0,40.0,False,,203.1109355162669,[],"[800.5, 450]",ColorTask,27.0,45.0,,,HRV,HRV_0010,2022-11-30 18:02:11
,wl-rdm,53,205951,0.0-6.45-0.45,0.0,53.0,,,,,,,[],,,,,,73.6,0.0,u,0.0,True,764.2999999523163,46.0,60.0,40.0,False,,391.30752435997,[],"[800.5, 450]",ColorTask,28.0,46.0,,,HRV,HRV_0010,2022-11-30 18:02:11
,wl-rdm,54,208350,0.0-6.46-0.46,0.0,54.0,,,,,,,[],,,,,,73.6,1.0,i,1.0,True,1087.8000001907349,66.0,60.0,40.0,False,,223.8626573206853,[],"[800.5, 450]",ColorTask,29.0,47.0,,,HRV,HRV_0010,2022-11-30 18:02:11
,wl-rdm,55,210766,0.0-6.47-0.47,0.0,55.0,,,,,,,[],,,,,,56.4,0.0,i,1.0,False,1034.2999997138977,63.0,60.0,40.0,False,,287.0761062625339,[],"[800.5, 450]",ColorTask,28.0,48.0,,,HRV,HRV_0010,2022-11-30 18:02:11
,wl-rdm,56,212916,0.0-6.48-0.48,0.0,56.0,,,,,,,[],,,,,,87.9,0.0,u,0.0,True,769.0000002384186,47.0,60.0,40.0,False,,286.1096202090777,[],"[800.5, 450]",ColorTask,29.0,49.0,,,HRV,HRV_0010,2022-11-30 18:02:11
,wl-rdm,57,215365,0.0-6.49-0.49,0.0,57.0,,,,,,,[],,,,,,73.6,1.0,i,1.0,True,1025.5,62.0,60.0,40.0,False,,335.178706201775,[],"[800.5, 450]",ColorTask,30.0,50.0,,,HRV,HRV_0010,2022-11-30 18:02:11
,wl-rdm,58,217364,0.0-6.50-0.50,0.0,58.0,,,,,,,[],,,,,,87.9,1.0,i,1.0,True,704.3999998569489,43.0,60.0,40.0,False,,201.02209471526356,[],"[800.5, 450]",ColorTask,31.0,51.0,,,HRV,HRV_0010,2022-11-30 18:02:11
,wl-rdm,59,219581,0.0-6.51-0.51,0.0,59.0,,,,,,,[],,,,,,62.5,0.0,u,0.0,True,863.4000000953674,52.0,60.0,40.0,False,,275.50421875111317,[],"[800.5, 450]",ColorTask,32.0,52.0,,,HRV,HRV_0010,2022-11-30 18:02:11
,wl-rdm,60,222529,0.0-6.52-0.52,0.0,60.0,,,,,,,[],,,,,,56.4,1.0,i,1.0,True,1599.7999999523163,97.0,60.0,40.0,False,,251.34709441231018,[],"[800.5, 450]",ColorTask,33.0,53.0,,,HRV,HRV_0010,2022-11-30 18:02:11
,wl-rdm,61,225162,0.0-6.53-0.53,0.0,61.0,,,,,,,[],,,,,,53.2,0.0,u,0.0,True,1324.8999998569489,80.0,60.0,40.0,False,,228.65913275930134,[],"[800.5, 450]",ColorTask,34.0,54.0,,,HRV,HRV_0010,2022-11-30 18:02:11
,wl-rdm,62,227394,0.0-6.54-0.54,0.0,62.0,,,,,,,[],,,,,,87.9,1.0,i,1.0,True,778.3999998569489,47.0,60.0,40.0,False,,379.44611982798517,[],"[800.5, 450]",ColorTask,35.0,55.0,,,HRV,HRV_0010,2022-11-30 18:02:11
,wl-rdm,63,229477,0.0-6.55-0.55,0.0,63.0,,,,,,,[],,,,,,87.9,1.0,i,1.0,True,674.2999999523163,41.0,60.0,40.0,False,,321.6932405133342,[],"[800.5, 450]",ColorTask,36.0,56.0,,,HRV,HRV_0010,2022-11-30 18:02:11
,wl-rdm,64,232142,0.0-6.56-0.56,0.0,64.0,,,,,,,[],,,,,,53.2,0.0,u,0.0,True,1195.0,72.0,60.0,40.0,False,,386.4268410860236,[],"[800.5, 450]",ColorTask,37.0,57.0,,,HRV,HRV_0010,2022-11-30 18:02:11
,wl-rdm,65,234909,0.0-6.57-0.57,0.0,65.0,,,,,,,[],,,,,,50.0,1.0,i,1.0,True,1425.2999999523163,86.0,60.0,40.0,False,,252.83126918121496,[],"[800.5, 450]",ColorTask,38.0,58.0,,,HRV,HRV_0010,2022-11-30 18:02:11
,wl-rdm,66,237109,0.0-6.58-0.58,0.0,66.0,,,,,,,[],,,,,,56.4,1.0,i,1.0,True,864.8999998569489,52.0,60.0,40.0,False,,278.288738048107,[],"[800.5, 450]",ColorTask,39.0,59.0,,,HRV,HRV_0010,2022-11-30 18:02:11
,wl-rdm,67,239823,0.0-6.59-0.59,0.0,67.0,,,,,,,[],,,,,,53.2,0.0,u,0.0,True,1401.2999999523163,85.0,60.0,40.0,False,,221.280887252525,[],"[800.5, 450]",ColorTask,40.0,60.0,,,HRV,HRV_0010,2022-11-30 18:02:11
,wl-rdm,68,242589,0.0-6.60-0.60,0.0,68.0,,,,,,,[],,,,,,50.0,1.0,i,1.0,True,1420.7999999523163,86.0,60.0,40.0,False,,264.1575452976747,[],"[800.5, 450]",ColorTask,41.0,61.0,,,HRV,HRV_0010,2022-11-30 18:02:11
,wl-rdm,69,244822,0.0-6.61-0.61,0.0,69.0,,,,,,,[],,,,,,73.6,0.0,u,0.0,True,947.2999999523163,57.0,60.0,40.0,False,,228.22951068997702,[],"[800.5, 450]",ColorTask,42.0,62.0,,,HRV,HRV_0010,2022-11-30 18:02:11
,wl-rdm,70,247304,0.0-6.62-0.62,0.0,70.0,,,,,,,[],,,,,,62.5,1.0,i,1.0,True,1046.0,63.0,60.0,40.0,False,,358.5776554774239,[],"[800.5, 450]",ColorTask,43.0,63.0,,,HRV,HRV_0010,2022-11-30 18:02:11
,wl-rdm,71,250337,0.0-6.63-0.63,0.0,71.0,,,,,,,[],,,,,,50.0,1.0,u,0.0,False,1713.7999997138977,103.0,60.0,40.0,False,,241.09529155085818,[],"[800.5, 450]",ColorTask,42.0,64.0,,,HRV,HRV_0010,2022-11-30 18:02:11
,wl-rdm,72,252969,0.0-6.64-0.64,0.0,72.0,,,,,,,[],,,,,,62.5,1.0,i,1.0,True,1324.8000001907349,80.0,60.0,40.0,False,,246.39327486190018,[],"[800.5, 450]",ColorTask,43.0,65.0,,,HRV,HRV_0010,2022-11-30 18:02:11
,wl-rdm,73,255501,0.0-6.65-0.65,0.0,73.0,,,,,,,[],,,,,,56.4,1.0,i,1.0,True,1089.5999999046326,66.0,60.0,40.0,False,,361.1141114609261,[],"[800.5, 450]",ColorTask,44.0,66.0,,,HRV,HRV_0010,2022-11-30 18:02:11
,wl-rdm,74,258384,0.0-6.66-0.66,0.0,74.0,,,,,,,[],,,,,,50.0,0.0,i,1.0,False,1417.5000002384186,86.0,60.0,40.0,False,,369.1556750099932,[],"[800.5, 450]",ColorTask,43.0,67.0,,,HRV,HRV_0010,2022-11-30 18:02:11
,wl-rdm,75,260783,0.0-6.67-0.67,0.0,75.0,,,,,,,[],,,,,,73.6,1.0,i,1.0,True,971.3000001907349,59.0,60.0,40.0,False,,360.4434030102068,[],"[800.5, 450]",ColorTask,44.0,68.0,,,HRV,HRV_0010,2022-11-30 18:02:11
,wl-rdm,76,263032,0.0-6.68-0.68,0.0,76.0,,,,,,,[],,,,,,87.9,0.0,u,0.0,True,951.1000001430511,58.0,60.0,40.0,False,,213.99553031976285,[],"[800.5, 450]",ColorTask,45.0,69.0,,,HRV,HRV_0010,2022-11-30 18:02:11
,wl-rdm,77,265698,0.0-6.69-0.69,0.0,77.0,,,,,,,[],,,,,,56.4,0.0,u,0.0,True,1371.9000000953674,83.0,60.0,40.0,False,,203.88990422866445,[],"[800.5, 450]",ColorTask,46.0,70.0,,,HRV,HRV_0010,2022-11-30 18:02:11
,wl-rdm,78,268797,0.0-6.70-0.70,0.0,78.0,,,,,,,[],,,,,,53.2,1.0,u,0.0,False,1637.9000000953674,99.0,60.0,40.0,False,,372.4333394219063,[],"[800.5, 450]",ColorTask,45.0,71.0,,,HRV,HRV_0010,2022-11-30 18:02:11
,wl-rdm,79,272511,0.0-6.71-0.71,0.0,79.0,,,,,,,[],,,,,,53.2,1.0,i,1.0,True,2237.2999999523163,135.0,60.0,40.0,False,,394.41007304666743,[],"[800.5, 450]",ColorTask,46.0,72.0,,,HRV,HRV_0010,2022-11-30 18:02:11
,wl-rdm,80,275011,0.0-6.72-0.72,0.0,80.0,,,,,,,[],,,,,,50.0,1.0,i,1.0,True,1115.7999999523163,67.0,60.0,40.0,False,,307.0777565673742,[],"[800.5, 450]",ColorTask,47.0,73.0,,,HRV,HRV_0010,2022-11-30 18:02:11
,wl-rdm,81,277310,0.0-6.73-0.73,0.0,81.0,,,,,,,[],,,,,,50.0,0.0,i,1.0,False,924.8000001907349,56.0,60.0,40.0,False,,286.73891079046166,[],"[800.5, 450]",ColorTask,46.0,74.0,,,HRV,HRV_0010,2022-11-30 18:02:11
,wl-rdm,82,279892,0.0-6.74-0.74,0.0,82.0,,,,,,,[],,,,,,62.5,1.0,i,1.0,True,1288.8999998569489,78.0,60.0,40.0,False,,203.79411452003788,[],"[800.5, 450]",ColorTask,47.0,75.0,,,HRV,HRV_0010,2022-11-30 18:02:11
,wl-rdm,83,282275,0.0-6.75-0.75,0.0,83.0,,,,,,,[],,,,,,73.6,0.0,u,0.0,True,908.3999998569489,55.0,60.0,40.0,False,,389.6604269816262,[],"[800.5, 450]",ColorTask,48.0,76.0,,,HRV,HRV_0010,2022-11-30 18:02:11
,wl-rdm,84,284957,0.0-6.76-0.76,0.0,84.0,,,,,,,[],,,,,,56.4,0.0,u,0.0,True,1351.3000001907349,82.0,60.0,40.0,False,,240.34498004646738,[],"[800.5, 450]",ColorTask,49.0,77.0,,,HRV,HRV_0010,2022-11-30 18:02:11
,wl-rdm,85,287723,0.0-6.77-0.77,0.0,85.0,,,,,,,[],,,,,,50.0,0.0,i,1.0,False,1341.5,81.0,60.0,40.0,False,,341.11181586788405,[],"[800.5, 450]",ColorTask,48.0,78.0,,,HRV,HRV_0010,2022-11-30 18:02:11
,wl-rdm,86,290322,0.0-6.78-0.78,0.0,86.0,,,,,,,[],,,,,,53.2,0.0,u,0.0,True,1314.7000000476837,79.0,60.0,40.0,False,,225.90208376050842,[],"[800.5, 450]",ColorTask,49.0,79.0,,,HRV,HRV_0010,2022-11-30 18:02:11
,wl-rdm,87,293038,0.0-6.79-0.79,0.0,87.0,,,,,,,[],,,,,,73.6,1.0,i,1.0,True,1285.1000001430511,78.0,60.0,40.0,False,,339.0780061644694,[],"[800.5, 450]",ColorTask,50.0,80.0,,,HRV,HRV_0010,2022-11-30 18:02:11
,wl-rdm,88,295854,0.0-6.80-0.80,0.0,88.0,,,,,,,[],,,,,,56.4,0.0,u,0.0,True,1511.2999999523163,91.0,60.0,40.0,False,,218.85240235573616,[],"[800.5, 450]",ColorTask,51.0,81.0,,,HRV,HRV_0010,2022-11-30 18:02:11
,wl-rdm,89,298603,0.0-6.81-0.81,0.0,89.0,,,,,,,[],,,,,,50.0,0.0,u,0.0,True,1280.0000002384186,77.0,60.0,40.0,False,,393.183446748012,[],"[800.5, 450]",ColorTask,52.0,82.0,,,HRV,HRV_0010,2022-11-30 18:02:11
,wl-rdm,90,301102,0.0-6.82-0.82,0.0,90.0,,,,,,,[],,,,,,56.4,1.0,i,1.0,True,1051.2999999523163,64.0,60.0,40.0,False,,365.363123128277,[],"[800.5, 450]",ColorTask,53.0,83.0,,,HRV,HRV_0010,2022-11-30 18:02:11
,wl-rdm,91,303734,0.0-6.83-0.83,0.0,91.0,,,,,,,[],,,,,,56.4,0.0,u,0.0,True,1343.0999999046326,81.0,60.0,40.0,False,,212.60745512807506,[],"[800.5, 450]",ColorTask,54.0,84.0,,,HRV,HRV_0010,2022-11-30 18:02:11
,wl-rdm,92,306800,0.0-6.84-0.84,0.0,92.0,,,,,,,[],,,,,,62.5,0.0,u,0.0,True,1756.4000000953674,106.0,60.0,40.0,False,,222.1684346763642,[],"[800.5, 450]",ColorTask,55.0,85.0,,,HRV,HRV_0010,2022-11-30 18:02:11
,wl-rdm,93,308999,0.0-6.85-0.85,0.0,93.0,,,,,,,[],,,,,,87.9,1.0,i,1.0,True,901.1999998092651,55.0,60.0,40.0,False,,214.96643020279444,[],"[800.5, 450]",ColorTask,56.0,86.0,,,HRV,HRV_0010,2022-11-30 18:02:11
,wl-rdm,94,311682,0.0-6.86-0.86,0.0,94.0,,,,,,,[],,,,,,62.5,0.0,u,0.0,True,1244.2000000476837,75.0,60.0,40.0,False,,359.78067441940925,[],"[800.5, 450]",ColorTask,57.0,87.0,,,HRV,HRV_0010,2022-11-30 18:02:11
,wl-rdm,95,314348,0.0-6.87-0.87,0.0,95.0,,,,,,,[],,,,,,62.5,0.0,u,0.0,True,1237.2999999523163,75.0,60.0,40.0,False,,342.4849101472271,[],"[800.5, 450]",ColorTask,58.0,88.0,,,HRV,HRV_0010,2022-11-30 18:02:11
,wl-rdm,96,316480,0.0-6.88-0.88,0.0,96.0,,,,,,,[],,,,,,73.6,1.0,i,1.0,True,711.4999997615814,43.0,60.0,40.0,False,,357.0029910475362,[],"[800.5, 450]",ColorTask,59.0,89.0,,,HRV,HRV_0010,2022-11-30 18:02:11
,wl-rdm,97,318813,0.0-6.89-0.89,0.0,97.0,,,,,,,[],,,,,,62.5,1.0,i,1.0,True,936.6000001430511,57.0,60.0,40.0,False,,309.585835528743,[],"[800.5, 450]",ColorTask,60.0,90.0,,,HRV,HRV_0010,2022-11-30 18:02:11
,wl-rdm,98,321378,0.0-6.90-0.90,0.0,98.0,,,,,,,[],,,,,,62.5,1.0,i,1.0,True,1281.5999999046326,77.0,60.0,40.0,False,,216.6615825123314,[],"[800.5, 450]",ColorTask,61.0,91.0,,,HRV,HRV_0010,2022-11-30 18:02:11
,wl-rdm,99,324127,0.0-6.91-0.91,0.0,99.0,,,,,,,[],,,,,,56.4,1.0,u,0.0,False,1425.2000000476837,86.0,60.0,40.0,False,,258.96134761104344,[],"[800.5, 450]",ColorTask,60.0,92.0,,,HRV,HRV_0010,2022-11-30 18:02:11
,wl-rdm,100,326960,0.0-6.92-0.92,0.0,100.0,,,,,,,[],,,,,,53.2,0.0,u,0.0,True,1486.5999999046326,90.0,60.0,40.0,False,,251.9174990660833,[],"[800.5, 450]",ColorTask,61.0,93.0,,,HRV,HRV_0010,2022-11-30 18:02:11
,wl-rdm,101,329509,0.0-6.93-0.93,0.0,101.0,,,,,,,[],,,,,,53.2,0.0,i,1.0,False,1148.5999999046326,69.0,60.0,40.0,False,,341.73321773702753,[],"[800.5, 450]",ColorTask,60.0,94.0,,,HRV,HRV_0010,2022-11-30 18:02:11
,wl-rdm,102,332008,0.0-6.94-0.94,0.0,102.0,,,,,,,[],,,,,,87.9,1.0,i,1.0,True,1141.0,69.0,60.0,40.0,False,,278.3660327946665,[],"[800.5, 450]",ColorTask,61.0,95.0,,,HRV,HRV_0010,2022-11-30 18:02:11
,wl-rdm,103,334274,0.0-6.95-0.95,0.0,103.0,,,,,,,[],,,,,,56.4,0.0,u,0.0,True,955.8000001907349,58.0,60.0,40.0,False,,234.10879701787937,[],"[800.5, 450]",ColorTask,62.0,96.0,,,HRV,HRV_0010,2022-11-30 18:02:11
,wl-rdm,104,337007,0.0-6.96-0.96,0.0,104.0,,,,,,,[],,,,,,62.5,1.0,i,1.0,True,1438.0999999046326,87.0,60.0,40.0,False,,201.4601967101563,[],"[800.5, 450]",ColorTask,63.0,97.0,,,HRV,HRV_0010,2022-11-30 18:02:11
,wl-rdm,105,340056,0.0-6.97-0.97,0.0,105.0,,,,,,,[],,,,,,50.0,1.0,i,1.0,True,1750.7999999523163,106.0,60.0,40.0,False,,202.30921979893512,[],"[800.5, 450]",ColorTask,64.0,98.0,,,HRV,HRV_0010,2022-11-30 18:02:11
,wl-rdm,106,342172,0.0-6.98-0.98,0.0,106.0,,,,,,,[],,,,,,87.9,0.0,u,0.0,True,749.8999998569489,46.0,60.0,40.0,False,,266.9578410501248,[],"[800.5, 450]",ColorTask,65.0,99.0,,,HRV,HRV_0010,2022-11-30 18:02:11
,wl-rdm,107,345237,0.0-6.99-0.99,0.0,107.0,,,,,,,[],,,,,,50.0,1.0,i,1.0,True,1667.1000001430511,101.0,60.0,40.0,False,,305.10814284588855,[],"[800.5, 450]",ColorTask,66.0,100.0,,,HRV,HRV_0010,2022-11-30 18:02:11
,wl-rdm,108,348503,0.0-6.100-0.100,0.0,108.0,,,,,,,[],,,,,,50.0,0.0,u,0.0,True,1967.5999999046326,119.0,60.0,40.0,False,,211.6234847271605,[],"[800.5, 450]",ColorTask,67.0,101.0,,,HRV,HRV_0010,2022-11-30 18:02:11
,wl-rdm,109,351385,0.0-6.101-0.101,0.0,109.0,,,,,,,[],,,,,,56.4,1.0,i,1.0,True,1473.9000000953674,89.0,60.0,40.0,False,,323.4992362332788,[],"[800.5, 450]",ColorTask,68.0,102.0,,,HRV,HRV_0010,2022-11-30 18:02:11
,wl-rdm,110,353717,0.0-6.102-0.102,0.0,110.0,,,,,,,[],,,,,,56.4,1.0,i,1.0,True,954.9999997615814,58.0,60.0,40.0,False,,302.17341149137224,[],"[800.5, 450]",ColorTask,69.0,103.0,,,HRV,HRV_0010,2022-11-30 18:02:11
,wl-rdm,111,355733,0.0-6.103-0.103,0.0,111.0,,,,,,,[],,,,,,87.9,1.0,i,1.0,True,712.0999999046326,43.0,60.0,40.0,False,,216.89476694604673,[],"[800.5, 450]",ColorTask,70.0,104.0,,,HRV,HRV_0010,2022-11-30 18:02:11
,wl-rdm,112,358083,0.0-6.104-0.104,0.0,112.0,,,,,,,[],,,,,,73.6,0.0,u,0.0,True,949.2999999523163,57.0,60.0,40.0,False,,329.20761711177033,[],"[800.5, 450]",ColorTask,71.0,105.0,,,HRV,HRV_0010,2022-11-30 18:02:11
,wl-rdm,113,361082,0.0-6.105-0.105,0.0,113.0,,,,,,,[],,,,,,53.2,1.0,i,1.0,True,1634.4000000953674,99.0,60.0,40.0,False,,281.87458654643586,[],"[800.5, 450]",ColorTask,72.0,106.0,,,HRV,HRV_0010,2022-11-30 18:02:11
,wl-rdm,114,363231,0.0-6.106-0.106,0.0,114.0,,,,,,,[],,,,,,87.9,0.0,u,0.0,True,677.8999998569489,41.0,60.0,40.0,False,,399.0515381903174,[],"[800.5, 450]",ColorTask,73.0,107.0,,,HRV,HRV_0010,2022-11-30 18:02:11
,wl-rdm,115,365313,0.0-6.107-0.107,0.0,115.0,,,,,,,[],,,,,,87.9,1.0,i,1.0,True,698.5,42.0,60.0,40.0,False,,331.04551880024417,[],"[800.5, 450]",ColorTask,74.0,108.0,,,HRV,HRV_0010,2022-11-30 18:02:11
,wl-rdm,116,367580,0.0-6.108-0.108,0.0,116.0,,,,,,,[],,,,,,53.2,1.0,i,1.0,True,842.0999999046326,51.0,60.0,40.0,False,,339.58314970087247,[],"[800.5, 450]",ColorTask,75.0,109.0,,,HRV,HRV_0010,2022-11-30 18:02:11
,wl-html-keyboard-response,117,466013,0.0-7.0-0.0,1.0,117.0,,,,,,,,96419.30000019073,1.0,0,,,,,,,,,,,,,,,,,,,,,,HRV,HRV_0010,2022-11-30 18:02:11
,wl-rdm,118,468729,0.0-8.0-0.0,1.0,118.0,,,,,,,[],,,,,,53.2,0.0,u,0.0,True,1392.0,84.0,60.0,40.0,False,,238.29308539703402,[],"[800.5, 450]",ColorTask,76.0,1.0,,,HRV,HRV_0010,2022-11-30 18:02:11
,wl-rdm,119,471445,0.0-8.1-0.1,1.0,119.0,,,,,,,[],,,,,,50.0,1.0,u,0.0,False,1309.2999999523163,79.0,60.0,40.0,False,,345.9764945671944,[],"[800.5, 450]",ColorTask,75.0,2.0,,,HRV,HRV_0010,2022-11-30 18:02:11
,wl-rdm,120,474443,0.0-8.2-0.2,1.0,120.0,,,,,,,[],,,,,,62.5,0.0,u,0.0,True,1620.5999999046326,98.0,60.0,40.0,False,,286.73536609575694,[],"[800.5, 450]",ColorTask,76.0,3.0,,,HRV,HRV_0010,2022-11-30 18:02:11
,wl-rdm,121,477343,0.0-8.3-0.3,1.0,121.0,,,,,,,[],,,,,,56.4,0.0,i,1.0,False,1585.0999999046326,96.0,60.0,40.0,False,,228.39837419386055,[],"[800.5, 450]",ColorTask,75.0,4.0,,,HRV,HRV_0010,2022-11-30 18:02:11
,wl-rdm,122,480192,0.0-8.4-0.4,1.0,122.0,,,,,,,[],,,,,,50.0,0.0,i,1.0,False,1524.9000000953674,92.0,60.0,40.0,False,,262.453373475615,[],"[800.5, 450]",ColorTask,74.0,5.0,,,HRV,HRV_0010,2022-11-30 18:02:11
,wl-rdm,123,483590,0.0-8.5-0.5,1.0,123.0,,,,,,,[],,,,,,50.0,1.0,u,0.0,False,1956.7000000476837,118.0,60.0,40.0,False,,349.9450548135271,[],"[800.5, 450]",ColorTask,73.0,6.0,,,HRV,HRV_0010,2022-11-30 18:02:11
,wl-rdm,124,487323,0.0-8.6-0.6,1.0,124.0,,,,,,,[],,,,,,50.0,1.0,i,1.0,True,2355.0,142.0,60.0,40.0,False,,283.5735234972296,[],"[800.5, 450]",ColorTask,74.0,7.0,,,HRV,HRV_0010,2022-11-30 18:02:11
,wl-rdm,125,489889,0.0-8.7-0.7,1.0,125.0,,,,,,,[],,,,,,73.6,0.0,u,0.0,True,1188.5999999046326,72.0,60.0,40.0,False,,283.39919852880587,[],"[800.5, 450]",ColorTask,75.0,8.0,,,HRV,HRV_0010,2022-11-30 18:02:11
,wl-rdm,126,491988,0.0-8.8-0.8,1.0,126.0,,,,,,,[],,,,,,73.6,0.0,u,0.0,True,697.7999999523163,42.0,60.0,40.0,False,,345.8240221319991,[],"[800.5, 450]",ColorTask,76.0,9.0,,,HRV,HRV_0010,2022-11-30 18:02:11
,wl-rdm,127,494554,0.0-8.9-0.9,1.0,127.0,,,,,,,[],,,,,,50.0,1.0,i,1.0,True,1198.7000000476837,72.0,60.0,40.0,False,,303.96962000095573,[],"[800.5, 450]",ColorTask,77.0,10.0,,,HRV,HRV_0010,2022-11-30 18:02:11
,wl-rdm,128,496736,0.0-8.10-0.10,1.0,128.0,,,,,,,[],,,,,,87.9,0.0,u,0.0,True,752.0,46.0,60.0,40.0,False,,339.0557425793105,[],"[800.5, 450]",ColorTask,78.0,11.0,,,HRV,HRV_0010,2022-11-30 18:02:11
,wl-rdm,129,498785,0.0-8.11-0.11,1.0,129.0,,,,,,,[],,,,,,87.9,0.0,u,0.0,True,672.2999999523163,41.0,60.0,40.0,False,,289.7889695558529,[],"[800.5, 450]",ColorTask,79.0,12.0,,,HRV,HRV_0010,2022-11-30 18:02:11
,wl-rdm,130,501735,0.0-8.12-0.12,1.0,130.0,,,,,,,[],,,,,,62.5,1.0,i,1.0,True,1466.5999999046326,89.0,60.0,40.0,False,,391.16470033200517,[],"[800.5, 450]",ColorTask,80.0,13.0,,,HRV,HRV_0010,2022-11-30 18:02:11
,wl-rdm,131,504950,0.0-8.13-0.13,1.0,131.0,,,,,,,[],,,,,,62.5,1.0,i,1.0,True,1828.5999999046326,110.0,60.0,40.0,False,,321.1056481334079,[],"[800.5, 450]",ColorTask,81.0,14.0,,,HRV,HRV_0010,2022-11-30 18:02:11
,wl-rdm,132,507299,0.0-8.14-0.14,1.0,132.0,,,,,,,[],,,,,,73.6,1.0,i,1.0,True,987.3000001907349,60.0,60.0,40.0,False,,281.05359525364884,[],"[800.5, 450]",ColorTask,82.0,15.0,,,HRV,HRV_0010,2022-11-30 18:02:11
,wl-rdm,133,510432,0.0-8.15-0.15,1.0,133.0,,,,,,,[],,,,,,50.0,0.0,u,0.0,True,1850.8000001907349,112.0,60.0,40.0,False,,201.58462544460505,[],"[800.5, 450]",ColorTask,83.0,16.0,,,HRV,HRV_0010,2022-11-30 18:02:11
,wl-rdm,134,513646,0.0-8.16-0.16,1.0,134.0,,,,,,,[],,,,,,53.2,1.0,i,1.0,True,1786.5,108.0,60.0,40.0,False,,349.46471523492824,[],"[800.5, 450]",ColorTask,84.0,17.0,,,HRV,HRV_0010,2022-11-30 18:02:11
,wl-rdm,135,516146,0.0-8.17-0.17,1.0,135.0,,,,,,,[],,,,,,62.5,1.0,i,1.0,True,1041.6999998092651,63.0,60.0,40.0,False,,377.3120635230198,[],"[800.5, 450]",ColorTask,85.0,18.0,,,HRV,HRV_0010,2022-11-30 18:02:11
,wl-rdm,136,518362,0.0-8.18-0.18,1.0,136.0,,,,,,,[],,,,,,50.0,1.0,i,1.0,True,945.0999999046326,57.0,60.0,40.0,False,,205.58997742603574,[],"[800.5, 450]",ColorTask,86.0,19.0,,,HRV,HRV_0010,2022-11-30 18:02:11
,wl-rdm,137,521077,0.0-8.19-0.19,1.0,137.0,,,,,,,[],,,,,,53.2,0.0,i,1.0,False,1368.0,83.0,60.0,40.0,False,,250.66079996579194,[],"[800.5, 450]",ColorTask,85.0,20.0,,,HRV,HRV_0010,2022-11-30 18:02:11
,wl-rdm,138,523843,0.0-8.20-0.20,1.0,138.0,,,,,,,[],,,,,,56.4,1.0,u,0.0,False,1401.0999999046326,85.0,60.0,40.0,False,,277.5395127952564,[],"[800.5, 450]",ColorTask,84.0,21.0,,,HRV,HRV_0010,2022-11-30 18:02:11
,wl-rdm,139,525892,0.0-8.21-0.21,1.0,139.0,,,,,,,[],,,,,,62.5,0.0,u,0.0,True,632.4999997615814,38.0,60.0,40.0,False,,359.5000642304989,[],"[800.5, 450]",ColorTask,85.0,22.0,,,HRV,HRV_0010,2022-11-30 18:02:11
,wl-rdm,140,528025,0.0-8.22-0.22,1.0,140.0,,,,,,,[],,,,,,87.9,1.0,i,1.0,True,720.2999999523163,44.0,60.0,40.0,False,,319.6106870453758,[],"[800.5, 450]",ColorTask,86.0,23.0,,,HRV,HRV_0010,2022-11-30 18:02:11
,wl-rdm,141,531241,0.0-8.23-0.23,1.0,141.0,,,,,,,[],,,,,,62.5,1.0,i,1.0,True,1793.2000000476837,108.0,60.0,40.0,False,,357.4560709428962,[],"[800.5, 450]",ColorTask,87.0,24.0,,,HRV,HRV_0010,2022-11-30 18:02:11
,wl-rdm,142,533190,0.0-8.24-0.24,1.0,142.0,,,,,,,[],,,,,,87.9,0.0,u,0.0,True,656.1999998092651,40.0,60.0,40.0,False,,210.5094097828225,[],"[800.5, 450]",ColorTask,88.0,25.0,,,HRV,HRV_0010,2022-11-30 18:02:11
,wl-rdm,143,536272,0.0-8.25-0.25,1.0,143.0,,,,,,,[],,,,,,53.2,1.0,i,1.0,True,1726.0000002384186,104.0,60.0,40.0,False,,297.9648134293325,[],"[800.5, 450]",ColorTask,89.0,26.0,,,HRV,HRV_0010,2022-11-30 18:02:11
,wl-rdm,144,538471,0.0-8.26-0.26,1.0,144.0,,,,,,,[],,,,,,73.6,0.0,u,0.0,True,736.7999999523163,45.0,60.0,40.0,False,,371.5756656822766,[],"[800.5, 450]",ColorTask,90.0,27.0,,,HRV,HRV_0010,2022-11-30 18:02:11
,wl-rdm,145,540420,0.0-8.27-0.27,1.0,145.0,,,,,,,[],,,,,,87.9,1.0,i,1.0,True,678.5999999046326,41.0,60.0,40.0,False,,204.79653542755088,[],"[800.5, 450]",ColorTask,91.0,28.0,,,HRV,HRV_0010,2022-11-30 18:02:11
,wl-rdm,146,542437,0.0-8.28-0.28,1.0,146.0,,,,,,,[],,,,,,62.5,0.0,u,0.0,True,638.6000001430511,39.0,60.0,40.0,False,,286.65108181629967,[],"[800.5, 450]",ColorTask,92.0,29.0,,,HRV,HRV_0010,2022-11-30 18:02:11
,wl-rdm,147,544486,0.0-8.29-0.29,1.0,147.0,,,,,,,[],,,,,,53.2,0.0,u,0.0,True,686.5999999046326,42.0,60.0,40.0,False,,278.463401621745,[],"[800.5, 450]",ColorTask,93.0,30.0,,,HRV,HRV_0010,2022-11-30 18:02:11
,wl-rdm,148,546569,0.0-8.30-0.30,1.0,148.0,,,,,,,[],,,,,,73.6,1.0,i,1.0,True,656.0999999046326,40.0,60.0,40.0,False,,342.4300899479769,[],"[800.5, 450]",ColorTask,94.0,31.0,,,HRV,HRV_0010,2022-11-30 18:02:11
,wl-rdm,149,548468,0.0-8.31-0.31,1.0,149.0,,,,,,,[],,,,,,73.6,1.0,i,1.0,True,564.7000000476837,34.0,60.0,40.0,False,,252.52539061991075,[],"[800.5, 450]",ColorTask,95.0,32.0,,,HRV,HRV_0010,2022-11-30 18:02:11
,wl-rdm,150,550367,0.0-8.32-0.32,1.0,150.0,,,,,,,[],,,,,,73.6,0.0,u,0.0,True,613.0,37.0,60.0,40.0,False,,202.2069395818863,[],"[800.5, 450]",ColorTask,96.0,33.0,,,HRV,HRV_0010,2022-11-30 18:02:11
,wl-rdm,151,552383,0.0-8.33-0.33,1.0,151.0,,,,,,,[],,,,,,87.9,1.0,i,1.0,True,566.7000000476837,35.0,60.0,40.0,False,,376.871856639989,[],"[800.5, 450]",ColorTask,97.0,34.0,,,HRV,HRV_0010,2022-11-30 18:02:11
,wl-rdm,152,555033,0.0-8.34-0.34,1.0,152.0,,,,,,,[],,,,,,50.0,0.0,i,1.0,False,1225.6999998092651,74.0,60.0,40.0,False,,356.99141614876805,[],"[800.5, 450]",ColorTask,96.0,35.0,,,HRV,HRV_0010,2022-11-30 18:02:11
,wl-rdm,153,557065,0.0-8.35-0.35,1.0,153.0,,,,,,,[],,,,,,73.6,0.0,u,0.0,True,701.7000000476837,43.0,60.0,40.0,False,,259.26340830405263,[],"[800.5, 450]",ColorTask,97.0,36.0,,,HRV,HRV_0010,2022-11-30 18:02:11
,wl-rdm,154,559231,0.0-8.36-0.36,1.0,154.0,,,,,,,[],,,,,,53.2,1.0,i,1.0,True,694.0000002384186,42.0,60.0,40.0,False,,389.766073859013,[],"[800.5, 450]",ColorTask,98.0,37.0,,,HRV,HRV_0010,2022-11-30 18:02:11
,wl-rdm,155,561663,0.0-8.37-0.37,1.0,155.0,,,,,,,[],,,,,,56.4,0.0,u,0.0,True,1029.0,62.0,60.0,40.0,False,,330.405683885288,[],"[800.5, 450]",ColorTask,99.0,38.0,,,HRV,HRV_0010,2022-11-30 18:02:11
,wl-rdm,156,564079,0.0-8.38-0.38,1.0,156.0,,,,,,,[],,,,,,53.2,1.0,i,1.0,True,1037.8000001907349,63.0,60.0,40.0,False,,310.30778327020664,[],"[800.5, 450]",ColorTask,100.0,39.0,,,HRV,HRV_0010,2022-11-30 18:02:11
,wl-rdm,157,566745,0.0-8.39-0.39,1.0,157.0,,,,,,,[],,,,,,50.0,0.0,i,1.0,False,1261.6000001430511,76.0,60.0,40.0,False,,327.1605230203493,[],"[800.5, 450]",ColorTask,99.0,40.0,,,HRV,HRV_0010,2022-11-30 18:02:11
,wl-rdm,158,569527,0.0-8.40-0.40,1.0,158.0,,,,,,,[],,,,,,56.4,0.0,u,0.0,True,1392.0,84.0,60.0,40.0,False,,308.5931627397938,[],"[800.5, 450]",ColorTask,100.0,41.0,,,HRV,HRV_0010,2022-11-30 18:02:11
,wl-rdm,159,572260,0.0-8.41-0.41,1.0,159.0,,,,,,,[],,,,,,56.4,1.0,i,1.0,True,1427.6999998092651,86.0,60.0,40.0,False,,223.45231273042555,[],"[800.5, 450]",ColorTask,101.0,42.0,,,HRV,HRV_0010,2022-11-30 18:02:11
,wl-rdm,160,574309,0.0-8.42-0.42,1.0,160.0,,,,,,,[],,,,,,73.6,0.0,u,0.0,True,647.2999999523163,39.0,60.0,40.0,False,,324.4300372947848,[],"[800.5, 450]",ColorTask,102.0,43.0,,,HRV,HRV_0010,2022-11-30 18:02:11
,wl-rdm,161,576842,0.0-8.43-0.43,1.0,161.0,,,,,,,[],,,,,,56.4,0.0,i,1.0,False,1234.0,75.0,60.0,40.0,False,,211.8315895113548,[],"[800.5, 450]",ColorTask,101.0,44.0,,,HRV,HRV_0010,2022-11-30 18:02:11
,wl-rdm,162,579407,0.0-8.44-0.44,1.0,162.0,,,,,,,[],,,,,,53.2,0.0,i,1.0,False,1173.7999999523163,71.0,60.0,40.0,False,,305.9050225682285,[],"[800.5, 450]",ColorTask,100.0,45.0,,,HRV,HRV_0010,2022-11-30 18:02:11
,wl-rdm,163,582074,0.0-8.45-0.45,1.0,163.0,,,,,,,[],,,,,,50.0,1.0,i,1.0,True,1321.1999998092651,80.0,60.0,40.0,False,,252.68942298262306,[],"[800.5, 450]",ColorTask,101.0,46.0,,,HRV,HRV_0010,2022-11-30 18:02:11
,wl-rdm,164,584007,0.0-8.46-0.46,1.0,164.0,,,,,,,[],,,,,,62.5,0.0,u,0.0,True,639.4999997615814,39.0,60.0,40.0,False,,225.72386858270696,[],"[800.5, 450]",ColorTask,102.0,47.0,,,HRV,HRV_0010,2022-11-30 18:02:11
,wl-rdm,165,586089,0.0-8.47-0.47,1.0,165.0,,,,,,,[],,,,,,87.9,0.0,u,0.0,True,645.0999999046326,39.0,60.0,40.0,False,,352.9459889893169,[],"[800.5, 450]",ColorTask,103.0,48.0,,,HRV,HRV_0010,2022-11-30 18:02:11
,wl-rdm,166,588321,0.0-8.48-0.48,1.0,166.0,,,,,,,[],,,,,,87.9,1.0,i,1.0,True,890.2000002861023,54.0,60.0,40.0,False,,271.11901520215645,[],"[800.5, 450]",ColorTask,104.0,49.0,,,HRV,HRV_0010,2022-11-30 18:02:11
,wl-rdm,167,590987,0.0-8.49-0.49,1.0,167.0,,,,,,,[],,,,,,53.2,1.0,u,0.0,False,1291.5999999046326,78.0,60.0,40.0,False,,300.91330962821814,[],"[800.5, 450]",ColorTask,103.0,50.0,,,HRV,HRV_0010,2022-11-30 18:02:11
,wl-rdm,168,593020,0.0-8.50-0.50,1.0,168.0,,,,,,,[],,,,,,87.9,0.0,u,0.0,True,738.9999997615814,45.0,60.0,40.0,False,,226.35451078943157,[],"[800.5, 450]",ColorTask,104.0,51.0,,,HRV,HRV_0010,2022-11-30 18:02:11
,wl-rdm,169,595636,0.0-8.51-0.51,1.0,169.0,,,,,,,[],,,,,,62.5,1.0,i,1.0,True,1173.8999998569489,71.0,60.0,40.0,False,,352.3954389551526,[],"[800.5, 450]",ColorTask,105.0,52.0,,,HRV,HRV_0010,2022-11-30 18:02:11
,wl-rdm,170,598285,0.0-8.52-0.52,1.0,170.0,,,,,,,[],,,,,,53.2,1.0,i,1.0,True,1177.7999997138977,71.0,60.0,40.0,False,,386.16992512656066,[],"[800.5, 450]",ColorTask,106.0,53.0,,,HRV,HRV_0010,2022-11-30 18:02:11
,wl-rdm,171,601001,0.0-8.53-0.53,1.0,171.0,,,,,,,[],,,,,,62.5,0.0,u,0.0,True,1359.2000000476837,82.0,60.0,40.0,False,,268.5548840642089,[],"[800.5, 450]",ColorTask,107.0,54.0,,,HRV,HRV_0010,2022-11-30 18:02:11
,wl-rdm,172,603649,0.0-8.54-0.54,1.0,172.0,,,,,,,[],,,,,,50.0,1.0,i,1.0,True,1298.9000000953674,78.0,60.0,40.0,False,,275.9892165895932,[],"[800.5, 450]",ColorTask,108.0,55.0,,,HRV,HRV_0010,2022-11-30 18:02:11
,wl-rdm,173,605782,0.0-8.55-0.55,1.0,173.0,,,,,,,[],,,,,,73.6,1.0,i,1.0,True,796.4000000953674,48.0,60.0,40.0,False,,272.46556806153717,[],"[800.5, 450]",ColorTask,109.0,56.0,,,HRV,HRV_0010,2022-11-30 18:02:11
,wl-rdm,174,607965,0.0-8.56-0.56,1.0,174.0,,,,,,,[],,,,,,87.9,1.0,i,1.0,True,806.5,49.0,60.0,40.0,False,,314.927303862576,[],"[800.5, 450]",ColorTask,110.0,57.0,,,HRV,HRV_0010,2022-11-30 18:02:11
,wl-rdm,175,611064,0.0-8.57-0.57,1.0,175.0,,,,,,,[],,,,,,56.4,1.0,i,1.0,True,1644.5,99.0,60.0,40.0,False,,398.8998662480693,[],"[800.5, 450]",ColorTask,111.0,58.0,,,HRV,HRV_0010,2022-11-30 18:02:11
,wl-rdm,176,613612,0.0-8.58-0.58,1.0,176.0,,,,,,,[],,,,,,50.0,0.0,i,1.0,False,1226.5999999046326,74.0,60.0,40.0,False,,244.59909678068337,[],"[800.5, 450]",ColorTask,110.0,59.0,,,HRV,HRV_0010,2022-11-30 18:02:11
,wl-rdm,177,615878,0.0-8.59-0.59,1.0,177.0,,,,,,,[],,,,,,53.2,0.0,u,0.0,True,914.5,55.0,60.0,40.0,False,,280.7301512083626,[],"[800.5, 450]",ColorTask,111.0,60.0,,,HRV,HRV_0010,2022-11-30 18:02:11
,wl-rdm,178,618061,0.0-8.60-0.60,1.0,178.0,,,,,,,[],,,,,,62.5,0.0,u,0.0,True,761.2999999523163,46.0,60.0,40.0,False,,334.35194581576445,[],"[800.5, 450]",ColorTask,112.0,61.0,,,HRV,HRV_0010,2022-11-30 18:02:11
,wl-rdm,179,620594,0.0-8.61-0.61,1.0,179.0,,,,,,,[],,,,,,56.4,1.0,i,1.0,True,1147.8999998569489,69.0,60.0,40.0,False,,313.5840638739777,[],"[800.5, 450]",ColorTask,113.0,62.0,,,HRV,HRV_0010,2022-11-30 18:02:11
,wl-rdm,180,623526,0.0-8.62-0.62,1.0,180.0,,,,,,,[],,,,,,53.2,1.0,u,0.0,False,1536.7999999523163,93.0,60.0,40.0,False,,304.3839201953786,[],"[800.5, 450]",ColorTask,112.0,63.0,,,HRV,HRV_0010,2022-11-30 18:02:11
,wl-rdm,181,625692,0.0-8.63-0.63,1.0,181.0,,,,,,,[],,,,,,73.6,1.0,i,1.0,True,720.0999999046326,44.0,60.0,40.0,False,,366.7147104382957,[],"[800.5, 450]",ColorTask,113.0,64.0,,,HRV,HRV_0010,2022-11-30 18:02:11
,wl-rdm,182,627875,0.0-8.64-0.64,1.0,182.0,,,,,,,[],,,,,,73.6,1.0,i,1.0,True,916.0000002384186,55.0,60.0,40.0,False,,207.38278852360511,[],"[800.5, 450]",ColorTask,114.0,65.0,,,HRV,HRV_0010,2022-11-30 18:02:11
,wl-rdm,183,630624,0.0-8.65-0.65,1.0,183.0,,,,,,,[],,,,,,50.0,1.0,i,1.0,True,1392.8000001907349,84.0,60.0,40.0,False,,277.7274456899784,[],"[800.5, 450]",ColorTask,115.0,66.0,,,HRV,HRV_0010,2022-11-30 18:02:11
,wl-rdm,184,632773,0.0-8.66-0.66,1.0,184.0,,,,,,,[],,,,,,87.9,0.0,u,0.0,True,790.8999998569489,48.0,60.0,40.0,False,,268.27107415446875,[],"[800.5, 450]",ColorTask,116.0,67.0,,,HRV,HRV_0010,2022-11-30 18:02:11
,wl-rdm,185,634956,0.0-8.67-0.67,1.0,185.0,,,,,,,[],,,,,,73.6,1.0,i,1.0,True,834.9999997615814,51.0,60.0,40.0,False,,282.4213199223009,[],"[800.5, 450]",ColorTask,117.0,68.0,,,HRV,HRV_0010,2022-11-30 18:02:11
,wl-rdm,186,637022,0.0-8.68-0.68,1.0,186.0,,,,,,,[],,,,,,87.9,1.0,i,1.0,True,697.2000000476837,42.0,60.0,40.0,False,,310.9862436073079,[],"[800.5, 450]",ColorTask,118.0,69.0,,,HRV,HRV_0010,2022-11-30 18:02:11
,wl-rdm,187,639005,0.0-8.69-0.69,1.0,187.0,,,,,,,[],,,,,,87.9,0.0,u,0.0,True,569.5,35.0,60.0,40.0,False,,340.09887231601397,[],"[800.5, 450]",ColorTask,119.0,70.0,,,HRV,HRV_0010,2022-11-30 18:02:11
,wl-rdm,188,641121,0.0-8.70-0.70,1.0,188.0,,,,,,,[],,,,,,62.5,0.0,u,0.0,True,812.0,49.0,60.0,40.0,False,,232.28477289579138,[],"[800.5, 450]",ColorTask,120.0,71.0,,,HRV,HRV_0010,2022-11-30 18:02:11
,wl-rdm,189,643753,0.0-8.71-0.71,1.0,189.0,,,,,,,[],,,,,,53.2,0.0,u,0.0,True,1242.9999997615814,75.0,60.0,40.0,False,,300.6975834218715,[],"[800.5, 450]",ColorTask,121.0,72.0,,,HRV,HRV_0010,2022-11-30 18:02:11
,wl-rdm,190,646002,0.0-8.72-0.72,1.0,190.0,,,,,,,[],,,,,,56.4,1.0,i,1.0,True,859.7999997138977,52.0,60.0,40.0,False,,303.184729891766,[],"[800.5, 450]",ColorTask,122.0,73.0,,,HRV,HRV_0010,2022-11-30 18:02:11
,wl-rdm,191,648518,0.0-8.73-0.73,1.0,191.0,,,,,,,[],,,,,,50.0,1.0,u,0.0,False,1148.0,69.0,60.0,40.0,False,,295.7097944387905,[],"[800.5, 450]",ColorTask,121.0,74.0,,,HRV,HRV_0010,2022-11-30 18:02:11
,wl-rdm,192,651817,0.0-8.74-0.74,1.0,192.0,,,,,,,[],,,,,,56.4,1.0,i,1.0,True,2008.0999999046326,121.0,60.0,40.0,False,,218.60800945888434,[],"[800.5, 450]",ColorTask,122.0,75.0,,,HRV,HRV_0010,2022-11-30 18:02:11
,wl-rdm,193,653983,0.0-8.75-0.75,1.0,193.0,,,,,,,[],,,,,,73.6,0.0,u,0.0,True,771.5999999046326,47.0,60.0,40.0,False,,300.25118187962175,[],"[800.5, 450]",ColorTask,123.0,76.0,,,HRV,HRV_0010,2022-11-30 18:02:11
,wl-rdm,194,656882,0.0-8.76-0.76,1.0,194.0,,,,,,,[],,,,,,62.5,0.0,u,0.0,True,1460.8999998569489,88.0,60.0,40.0,False,,356.4860546862618,[],"[800.5, 450]",ColorTask,124.0,77.0,,,HRV,HRV_0010,2022-11-30 18:02:11
,wl-rdm,195,659064,0.0-8.77-0.77,1.0,195.0,,,,,,,[],,,,,,73.6,0.0,u,0.0,True,893.0999999046326,54.0,60.0,40.0,False,,200.5738299536594,[],"[800.5, 450]",ColorTask,125.0,78.0,,,HRV,HRV_0010,2022-11-30 18:02:11
,wl-rdm,196,661830,0.0-8.78-0.78,1.0,196.0,,,,,,,[],,,,,,53.2,0.0,i,1.0,False,1371.7999999523163,83.0,60.0,40.0,False,,326.4537820461917,[],"[800.5, 450]",ColorTask,124.0,79.0,,,HRV,HRV_0010,2022-11-30 18:02:11
,wl-rdm,197,663896,0.0-8.79-0.79,1.0,197.0,,,,,,,[],,,,,,87.9,0.0,u,0.0,True,658.8000001907349,40.0,60.0,40.0,False,,320.7097407581981,[],"[800.5, 450]",ColorTask,125.0,80.0,,,HRV,HRV_0010,2022-11-30 18:02:11
,wl-rdm,198,666095,0.0-8.80-0.80,1.0,198.0,,,,,,,[],,,,,,56.4,1.0,i,1.0,True,718.1000001430511,44.0,60.0,40.0,False,,396.3784593784396,[],"[800.5, 450]",ColorTask,126.0,81.0,,,HRV,HRV_0010,2022-11-30 18:02:11
,wl-rdm,199,668278,0.0-8.81-0.81,1.0,199.0,,,,,,,[],,,,,,73.6,1.0,i,1.0,True,708.4000000953674,43.0,60.0,40.0,False,,394.03286496374744,[],"[800.5, 450]",ColorTask,127.0,82.0,,,HRV,HRV_0010,2022-11-30 18:02:11
,wl-rdm,200,671260,0.0-8.82-0.82,1.0,200.0,,,,,,,[],,,,,,53.2,0.0,u,0.0,True,1612.7000000476837,97.0,60.0,40.0,False,,286.6132698978308,[],"[800.5, 450]",ColorTask,128.0,83.0,,,HRV,HRV_0010,2022-11-30 18:02:11
,wl-rdm,201,673293,0.0-8.83-0.83,1.0,201.0,,,,,,,[],,,,,,50.0,0.0,i,1.0,False,727.3000001907349,44.0,60.0,40.0,False,,221.9355280857545,[],"[800.5, 450]",ColorTask,127.0,84.0,,,HRV,HRV_0010,2022-11-30 18:02:11
,wl-rdm,202,675775,0.0-8.84-0.84,1.0,202.0,,,,,,,[],,,,,,56.4,0.0,u,0.0,True,1120.3999998569489,68.0,60.0,40.0,False,,272.56135297650144,[],"[800.5, 450]",ColorTask,128.0,85.0,,,HRV,HRV_0010,2022-11-30 18:02:11
,wl-rdm,203,677858,0.0-8.85-0.85,1.0,203.0,,,,,,,[],,,,,,87.9,0.0,u,0.0,True,607.4999997615814,37.0,60.0,40.0,False,,391.107159366412,[],"[800.5, 450]",ColorTask,129.0,86.0,,,HRV,HRV_0010,2022-11-30 18:02:11
,wl-rdm,204,680724,0.0-8.86-0.86,1.0,204.0,,,,,,,[],,,,,,56.4,1.0,i,1.0,True,1401.6000001430511,85.0,60.0,40.0,False,,371.9506123594988,[],"[800.5, 450]",ColorTask,130.0,87.0,,,HRV,HRV_0010,2022-11-30 18:02:11
,wl-rdm,205,683240,0.0-8.87-0.87,1.0,205.0,,,,,,,[],,,,,,53.2,1.0,u,0.0,False,1203.0000002384186,73.0,60.0,40.0,False,,216.4970570371224,[],"[800.5, 450]",ColorTask,129.0,88.0,,,HRV,HRV_0010,2022-11-30 18:02:11
,wl-rdm,206,685322,0.0-8.88-0.88,1.0,206.0,,,,,,,[],,,,,,87.9,1.0,i,1.0,True,679.0999999046326,41.0,60.0,40.0,False,,324.7971793256864,[],"[800.5, 450]",ColorTask,130.0,89.0,,,HRV,HRV_0010,2022-11-30 18:02:11
,wl-rdm,207,687571,0.0-8.89-0.89,1.0,207.0,,,,,,,[],,,,,,50.0,0.0,u,0.0,True,907.5,55.0,60.0,40.0,False,,257.2668886086841,[],"[800.5, 450]",ColorTask,131.0,90.0,,,HRV,HRV_0010,2022-11-30 18:02:11
,wl-rdm,208,689937,0.0-8.90-0.90,1.0,208.0,,,,,,,[],,,,,,56.4,0.0,u,0.0,True,928.2999999523163,56.0,60.0,40.0,False,,376.08495140082914,[],"[800.5, 450]",ColorTask,132.0,91.0,,,HRV,HRV_0010,2022-11-30 18:02:11
,wl-rdm,209,692436,0.0-8.91-0.91,1.0,209.0,,,,,,,[],,,,,,62.5,1.0,i,1.0,True,1188.0,72.0,60.0,40.0,False,,219.65359793587143,[],"[800.5, 450]",ColorTask,133.0,92.0,,,HRV,HRV_0010,2022-11-30 18:02:11
,wl-rdm,210,694552,0.0-8.92-0.92,1.0,210.0,,,,,,,[],,,,,,53.2,0.0,i,1.0,False,819.8000001907349,50.0,60.0,40.0,False,,210.94741861955174,[],"[800.5, 450]",ColorTask,132.0,93.0,,,HRV,HRV_0010,2022-11-30 18:02:11
,wl-rdm,211,696585,0.0-8.93-0.93,1.0,211.0,,,,,,,[],,,,,,53.2,1.0,u,0.0,False,735.8000001907349,45.0,60.0,40.0,False,,201.3622322285881,[],"[800.5, 450]",ColorTask,131.0,94.0,,,HRV,HRV_0010,2022-11-30 18:02:11
,wl-rdm,212,699234,0.0-8.94-0.94,1.0,212.0,,,,,,,[],,,,,,56.4,0.0,u,0.0,True,1287.7000000476837,78.0,60.0,40.0,False,,280.9307556278916,[],"[800.5, 450]",ColorTask,132.0,95.0,,,HRV,HRV_0010,2022-11-30 18:02:11
,wl-rdm,213,701267,0.0-8.95-0.95,1.0,213.0,,,,,,,[],,,,,,73.6,0.0,u,0.0,True,723.5,44.0,60.0,40.0,False,,234.85117305396724,[],"[800.5, 450]",ColorTask,133.0,96.0,,,HRV,HRV_0010,2022-11-30 18:02:11
,wl-rdm,214,703983,0.0-8.96-0.96,1.0,214.0,,,,,,,[],,,,,,62.5,0.0,u,0.0,True,1334.6000001430511,81.0,60.0,40.0,False,,286.9760051010103,[],"[800.5, 450]",ColorTask,134.0,97.0,,,HRV,HRV_0010,2022-11-30 18:02:11
,wl-rdm,215,706298,0.0-8.97-0.97,1.0,215.0,,,,,,,[],,,,,,73.6,1.0,i,1.0,True,947.9999997615814,57.0,60.0,40.0,False,,304.28358054759224,[],"[800.5, 450]",ColorTask,135.0,98.0,,,HRV,HRV_0010,2022-11-30 18:02:11
,wl-rdm,216,709097,0.0-8.98-0.98,1.0,216.0,,,,,,,[],,,,,,56.4,0.0,i,1.0,False,1462.8000001907349,88.0,60.0,40.0,False,,259.3858058317679,[],"[800.5, 450]",ColorTask,134.0,99.0,,,HRV,HRV_0010,2022-11-30 18:02:11
,wl-rdm,217,711896,0.0-8.99-0.99,1.0,217.0,,,,,,,[],,,,,,62.5,1.0,u,0.0,False,1351.1000001430511,82.0,60.0,40.0,False,,363.8141959071191,[],"[800.5, 450]",ColorTask,133.0,100.0,,,HRV,HRV_0010,2022-11-30 18:02:11
,wl-rdm,218,715179,0.0-8.100-0.100,1.0,218.0,,,,,,,[],,,,,,62.5,1.0,i,1.0,True,1985.3999998569489,120.0,60.0,40.0,False,,201.51003880259412,[],"[800.5, 450]",ColorTask,134.0,101.0,,,HRV,HRV_0010,2022-11-30 18:02:11
,wl-rdm,219,717995,0.0-8.101-0.101,1.0,219.0,,,,,,,[],,,,,,56.4,0.0,u,0.0,True,1455.6999998092651,88.0,60.0,40.0,False,,277.053954615159,[],"[800.5, 450]",ColorTask,135.0,102.0,,,HRV,HRV_0010,2022-11-30 18:02:11
,wl-rdm,220,720277,0.0-8.102-0.102,1.0,220.0,,,,,,,[],,,,,,62.5,1.0,i,1.0,True,973.7999999523163,59.0,60.0,40.0,False,,234.52217698523663,[],"[800.5, 450]",ColorTask,136.0,103.0,,,HRV,HRV_0010,2022-11-30 18:02:11
,wl-rdm,221,722343,0.0-8.103-0.103,1.0,221.0,,,,,,,[],,,,,,87.9,1.0,i,1.0,True,664.0000002384186,40.0,60.0,40.0,False,,318.13649295753083,[],"[800.5, 450]",ColorTask,137.0,104.0,,,HRV,HRV_0010,2022-11-30 18:02:11
,wl-rdm,222,725009,0.0-8.104-0.104,1.0,222.0,,,,,,,[],,,,,,50.0,0.0,u,0.0,True,1283.0999999046326,78.0,60.0,40.0,False,,284.13135365556343,[],"[800.5, 450]",ColorTask,138.0,105.0,,,HRV,HRV_0010,2022-11-30 18:02:11
,wl-rdm,223,727474,0.0-8.105-0.105,1.0,223.0,,,,,,,[],,,,,,56.4,1.0,i,1.0,True,1065.5,64.0,60.0,40.0,False,,338.32938041976854,[],"[800.5, 450]",ColorTask,139.0,106.0,,,HRV,HRV_0010,2022-11-30 18:02:11
,wl-rdm,224,729790,0.0-8.106-0.106,1.0,224.0,,,,,,,[],,,,,,50.0,0.0,u,0.0,True,967.7999999523163,59.0,60.0,40.0,False,,282.3418250095754,[],"[800.5, 450]",ColorTask,140.0,107.0,,,HRV,HRV_0010,2022-11-30 18:02:11
,wl-rdm,225,731906,0.0-8.107-0.107,1.0,225.0,,,,,,,[],,,,,,87.9,1.0,i,1.0,True,785.2000000476837,48.0,60.0,40.0,False,,259.74192918819125,[],"[800.5, 450]",ColorTask,141.0,108.0,,,HRV,HRV_0010,2022-11-30 18:02:11
,wl-html-button-response,226,784084,0.0-9.0-0.0,,,,,,,,,,52173.299999952316,,0,,,,,,,,,,,,,,,,,,,,<h3>End of this session. Thank you!</h3><br>,['Close window'],HRV,HRV_0010,2022-11-30 18:02:11
