trialN,stimuli,question,trialStartTime,trialStartTime_UNIX,stimulus1,rt,receivedResponse,rating,trialEndTime,trialDuration,stimulus1Loaded,exp,subjectId,date
0,"[{'imgObject': {}, 'id': 'strawberries', 'src': '/static/foodstim60/strawberries.jpg', 'key': 'NaN', 'origWidth': 410, 'origHeight': 410, 'width': 410, 'height': 410, 'widthPercent': 0.8, 'rescaleHeight': True, 'trialN': 0, 'loaded': True, 'loadedTime': 1835.9000000953674, 'positionName': 'CENTER', 'positionCoords': [595.5, 245]}]",Rate how much you want to eat this food from 0 (least) to 10 (most).,1924.7000000476837,1669829135422,strawberries,2809.0999999046326,True,6.26,4733.799999952316,2809.0999999046326,True,HRV,HRV_0010,2022-11-30 17:27:09
1,"[{'imgObject': {}, 'id': 'burrito', 'src': '/static/foodstim60/burrito.jpg', 'key': 'NaN', 'origWidth': 410, 'origHeight': 410, 'width': 410, 'height': 410, 'widthPercent': 0.8, 'rescaleHeight': True, 'trialN': 1, 'loaded': True, 'loadedTime': 1837.1000001430511, 'positionName': 'CENTER', 'positionCoords': [595.5, 245]}]",Rate how much you want to eat this food from 0 (least) to 10 (most).,4735.200000047684,1669829138233,burrito,1583.0,True,3.23,6318.200000047684,1583.0,True,HRV,HRV_0010,2022-11-30 17:27:09
2,"[{'imgObject': {}, 'id': 'olives', 'src': '/static/foodstim60/olives.jpg', 'key': 'NaN', 'origWidth': 410, 'origHeight': 410, 'width': 410, 'height': 410, 'widthPercent': 0.8, 'rescaleHeight': True, 'trialN': 2, 'loaded': True, 'loadedTime': 1838.6000001430511, 'positionName': 'CENTER', 'positionCoords': [595.5, 245]}]",Rate how much you want to eat this food from 0 (least) to 10 (most).,6319.200000047684,1669829139817,olives,1335.9000000953674,True,4.05,7655.100000143051,1335.9000000953674,True,HRV,HRV_0010,2022-11-30 17:27:09
3,"[{'imgObject': {}, 'id': 'bagel and cc', 'src': '/static/foodstim60/bagel and cc.jpg', 'key': 'NaN', 'origWidth': 410, 'origHeight': 410, 'width': 410, 'height': 410, 'widthPercent': 0.8, 'rescaleHeight': True, 'trialN': 3, 'loaded': True, 'loadedTime': 1841.5, 'positionName': 'CENTER', 'positionCoords': [595.5, 245]}]",Rate how much you want to eat this food from 0 (least) to 10 (most).,7656.100000143051,1669829141154,bagel and cc,1207.0999999046326,True,9.47,8863.200000047684,1207.0999999046326,True,HRV,HRV_0010,2022-11-30 17:27:09
4,"[{'imgObject': {}, 'id': 'turkeysandwich', 'src': '/static/foodstim60/turkeysandwich.jpg', 'key': 'NaN', 'origWidth': 409, 'origHeight': 409, 'width': 409, 'height': 409, 'widthPercent': 0.8, 'rescaleHeight': True, 'trialN': 4, 'loaded': True, 'loadedTime': 1843.4000000953674, 'positionName': 'CENTER', 'positionCoords': [596, 245.5]}]",Rate how much you want to eat this food from 0 (least) to 10 (most).,8864.200000047684,1669829142362,turkeysandwich,1735.0,True,0.0,10599.200000047684,1735.0,True,HRV,HRV_0010,2022-11-30 17:27:09
5,"[{'imgObject': {}, 'id': 'ice cream sundae 002', 'src': '/static/foodstim60/ice cream sundae 002.jpg', 'key': 'NaN', 'origWidth': 409, 'origHeight': 409, 'width': 409, 'height': 409, 'widthPercent': 0.8, 'rescaleHeight': True, 'trialN': 5, 'loaded': True, 'loadedTime': 1844.2000000476837, 'positionName': 'CENTER', 'positionCoords': [596, 245.5]}]",Rate how much you want to eat this food from 0 (least) to 10 (most).,10600.200000047684,1669829144098,ice cream sundae 002,1446.9000000953674,True,10.0,12047.100000143051,1446.9000000953674,True,HRV,HRV_0010,2022-11-30 17:27:09
6,"[{'imgObject': {}, 'id': 'luckycharms', 'src': '/static/foodstim60/luckycharms.jpg', 'key': 'NaN', 'origWidth': 410, 'origHeight': 409, 'width': 410, 'height': 409, 'widthPercent': 0.8, 'rescaleHeight': True, 'trialN': 6, 'loaded': True, 'loadedTime': 1853, 'positionName': 'CENTER', 'positionCoords': [595.5, 245.5]}]",Rate how much you want to eat this food from 0 (least) to 10 (most).,12049.200000047684,1669829145547,luckycharms,1053.9000000953674,True,6.8,13103.100000143051,1053.9000000953674,True,HRV,HRV_0010,2022-11-30 17:27:09
7,"[{'imgObject': {}, 'id': 'pear', 'src': '/static/foodstim60/pear.jpg', 'key': 'NaN', 'origWidth': 411, 'origHeight': 410, 'width': 411, 'height': 410, 'widthPercent': 0.8, 'rescaleHeight': True, 'trialN': 7, 'loaded': True, 'loadedTime': 1854, 'positionName': 'CENTER', 'positionCoords': [595, 245]}]",Rate how much you want to eat this food from 0 (least) to 10 (most).,13104.5,1669829146602,pear,1230.7999999523163,True,5.66,14335.299999952316,1230.7999999523163,True,HRV,HRV_0010,2022-11-30 17:27:09
8,"[{'imgObject': {}, 'id': 'roastedpotatoes', 'src': '/static/foodstim60/roastedpotatoes.jpg', 'key': 'NaN', 'origWidth': 409, 'origHeight': 410, 'width': 409, 'height': 410, 'widthPercent': 0.8, 'rescaleHeight': True, 'trialN': 8, 'loaded': True, 'loadedTime': 1860.5, 'positionName': 'CENTER', 'positionCoords': [596, 245]}]",Rate how much you want to eat this food from 0 (least) to 10 (most).,14336.5,1669829147834,roastedpotatoes,1935.7000000476837,True,7.390000000000001,16272.200000047684,1935.7000000476837,True,HRV,HRV_0010,2022-11-30 17:27:09
9,"[{'imgObject': {}, 'id': 'chickenfingers', 'src': '/static/foodstim60/chickenfingers.jpg', 'key': 'NaN', 'origWidth': 410, 'origHeight': 410, 'width': 410, 'height': 410, 'widthPercent': 0.8, 'rescaleHeight': True, 'trialN': 9, 'loaded': True, 'loadedTime': 1864.2999999523163, 'positionName': 'CENTER', 'positionCoords': [595.5, 245]}]",Rate how much you want to eat this food from 0 (least) to 10 (most).,16273.5,1669829149771,chickenfingers,1870.5,True,0.03,18144.0,1870.5,True,HRV,HRV_0010,2022-11-30 17:27:09
10,"[{'imgObject': {}, 'id': 'avocado', 'src': '/static/foodstim60/avocado.jpg', 'key': 'NaN', 'origWidth': 409, 'origHeight': 409, 'width': 409, 'height': 409, 'widthPercent': 0.8, 'rescaleHeight': True, 'trialN': 10, 'loaded': True, 'loadedTime': 1865.2000000476837, 'positionName': 'CENTER', 'positionCoords': [596, 245.5]}]",Rate how much you want to eat this food from 0 (least) to 10 (most).,18145.299999952316,1669829151643,avocado,1494.6000001430511,True,7.2,19639.900000095367,1494.6000001430511,True,HRV,HRV_0010,2022-11-30 17:27:09
11,"[{'imgObject': {}, 'id': 'sushi w_condiments', 'src': '/static/foodstim60/sushi w_condiments.jpg', 'key': 'NaN', 'origWidth': 410, 'origHeight': 410, 'width': 410, 'height': 410, 'widthPercent': 0.8, 'rescaleHeight': True, 'trialN': 11, 'loaded': True, 'loadedTime': 1866.9000000953674, 'positionName': 'CENTER', 'positionCoords': [595.5, 245]}]",Rate how much you want to eat this food from 0 (least) to 10 (most).,19641.10000014305,1669829153139,sushi w_condiments,1120.0,True,9.74,20761.10000014305,1120.0,True,HRV,HRV_0010,2022-11-30 17:27:09
12,"[{'imgObject': {}, 'id': 'blackbeanswithrice', 'src': '/static/foodstim60/blackbeanswithrice.jpg', 'key': 'NaN', 'origWidth': 410, 'origHeight': 410, 'width': 410, 'height': 410, 'widthPercent': 0.8, 'rescaleHeight': True, 'trialN': 12, 'loaded': True, 'loadedTime': 1874.7000000476837, 'positionName': 'CENTER', 'positionCoords': [595.5, 245]}]",Rate how much you want to eat this food from 0 (least) to 10 (most).,20762.400000095367,1669829154260,blackbeanswithrice,1703.2000000476837,True,5.03,22465.60000014305,1703.2000000476837,True,HRV,HRV_0010,2022-11-30 17:27:09
13,"[{'imgObject': {}, 'id': 'mango', 'src': '/static/foodstim60/mango.jpg', 'key': 'NaN', 'origWidth': 411, 'origHeight': 411, 'width': 411, 'height': 411, 'widthPercent': 0.8, 'rescaleHeight': True, 'trialN': 13, 'loaded': True, 'loadedTime': 1878, 'positionName': 'CENTER', 'positionCoords': [595, 244.5]}]",Rate how much you want to eat this food from 0 (least) to 10 (most).,22466.299999952316,1669829155964,mango,1246.8000001907349,True,6.21,23713.10000014305,1246.8000001907349,True,HRV,HRV_0010,2022-11-30 17:27:09
14,"[{'imgObject': {}, 'id': 'salmon', 'src': '/static/foodstim60/salmon.jpg', 'key': 'NaN', 'origWidth': 410, 'origHeight': 409, 'width': 410, 'height': 409, 'widthPercent': 0.8, 'rescaleHeight': True, 'trialN': 14, 'loaded': True, 'loadedTime': 1879, 'positionName': 'CENTER', 'positionCoords': [595.5, 245.5]}]",Rate how much you want to eat this food from 0 (least) to 10 (most).,23714.5,1669829157212,salmon,1382.6000001430511,True,8.92,25097.10000014305,1382.6000001430511,True,HRV,HRV_0010,2022-11-30 17:27:09
15,"[{'imgObject': {}, 'id': 'kiwi', 'src': '/static/foodstim60/kiwi.jpg', 'key': 'NaN', 'origWidth': 410, 'origHeight': 410, 'width': 410, 'height': 410, 'widthPercent': 0.8, 'rescaleHeight': True, 'trialN': 15, 'loaded': True, 'loadedTime': 1855, 'positionName': 'CENTER', 'positionCoords': [595.5, 245]}]",Rate how much you want to eat this food from 0 (least) to 10 (most).,25098.200000047684,1669829158596,kiwi,1310.4000000953674,True,3.0500000000000003,26408.60000014305,1310.4000000953674,True,HRV,HRV_0010,2022-11-30 17:27:09
16,"[{'imgObject': {}, 'id': 'mashed potato', 'src': '/static/foodstim60/mashed potato.jpg', 'key': 'NaN', 'origWidth': 409, 'origHeight': 409, 'width': 409, 'height': 409, 'widthPercent': 0.8, 'rescaleHeight': True, 'trialN': 16, 'loaded': True, 'loadedTime': 1857.4000000953674, 'positionName': 'CENTER', 'positionCoords': [596, 245.5]}]",Rate how much you want to eat this food from 0 (least) to 10 (most).,26409.5,1669829159907,mashed potato,1608.6000001430511,True,5.23,28018.10000014305,1608.6000001430511,True,HRV,HRV_0010,2022-11-30 17:27:09
17,"[{'imgObject': {}, 'id': 'turkey sandwich', 'src': '/static/foodstim60/turkey sandwich.jpg', 'key': 'NaN', 'origWidth': 409, 'origHeight': 409, 'width': 409, 'height': 409, 'widthPercent': 0.8, 'rescaleHeight': True, 'trialN': 17, 'loaded': True, 'loadedTime': 1858.2999999523163, 'positionName': 'CENTER', 'positionCoords': [596, 245.5]}]",Rate how much you want to eat this food from 0 (least) to 10 (most).,28019.10000014305,1669829161517,turkey sandwich,1742.0,True,0.25,29761.10000014305,1742.0,True,HRV,HRV_0010,2022-11-30 17:27:09
18,"[{'imgObject': {}, 'id': 'seaweed', 'src': '/static/foodstim60/seaweed.jpg', 'key': 'NaN', 'origWidth': 410, 'origHeight': 410, 'width': 410, 'height': 410, 'widthPercent': 0.8, 'rescaleHeight': True, 'trialN': 18, 'loaded': True, 'loadedTime': 1858.9000000953674, 'positionName': 'CENTER', 'positionCoords': [595.5, 245]}]",Rate how much you want to eat this food from 0 (least) to 10 (most).,29762.200000047684,1669829163260,seaweed,1664.0,True,4.91,31426.200000047684,1664.0,True,HRV,HRV_0010,2022-11-30 17:27:09
19,"[{'imgObject': {}, 'id': 'raspberries', 'src': '/static/foodstim60/raspberries.jpg', 'key': 'NaN', 'origWidth': 411, 'origHeight': 411, 'width': 411, 'height': 411, 'widthPercent': 0.8, 'rescaleHeight': True, 'trialN': 19, 'loaded': True, 'loadedTime': 1859.7999999523163, 'positionName': 'CENTER', 'positionCoords': [595, 244.5]}]",Rate how much you want to eat this food from 0 (least) to 10 (most).,31427.60000014305,1669829164925,raspberries,1790.6999998092651,True,4.89,33218.299999952316,1790.6999998092651,True,HRV,HRV_0010,2022-11-30 17:27:09
20,"[{'imgObject': {}, 'id': 'shreddedwheatwithmilk', 'src': '/static/foodstim60/shreddedwheatwithmilk.jpg', 'key': 'NaN', 'origWidth': 410, 'origHeight': 410, 'width': 410, 'height': 410, 'widthPercent': 0.8, 'rescaleHeight': True, 'trialN': 20, 'loaded': True, 'loadedTime': 1866.2000000476837, 'positionName': 'CENTER', 'positionCoords': [595.5, 245]}]",Rate how much you want to eat this food from 0 (least) to 10 (most).,33219.799999952316,1669829166718,shreddedwheatwithmilk,1438.5,True,5.69,34658.299999952316,1438.5,True,HRV,HRV_0010,2022-11-30 17:27:09
21,"[{'imgObject': {}, 'id': 'lox', 'src': '/static/foodstim60/lox.jpg', 'key': 'NaN', 'origWidth': 410, 'origHeight': 411, 'width': 410, 'height': 411, 'widthPercent': 0.8, 'rescaleHeight': True, 'trialN': 21, 'loaded': True, 'loadedTime': 1873.4000000953674, 'positionName': 'CENTER', 'positionCoords': [595.5, 244.5]}]",Rate how much you want to eat this food from 0 (least) to 10 (most).,34658.90000009537,1669829168157,lox,1254.7999999523163,True,2.18,35913.700000047684,1254.7999999523163,True,HRV,HRV_0010,2022-11-30 17:27:09
22,"[{'imgObject': {}, 'id': 'cantaloupe', 'src': '/static/foodstim60/cantaloupe.jpg', 'key': 'NaN', 'origWidth': 409, 'origHeight': 409, 'width': 409, 'height': 409, 'widthPercent': 0.8, 'rescaleHeight': True, 'trialN': 22, 'loaded': True, 'loadedTime': 1875.7999999523163, 'positionName': 'CENTER', 'positionCoords': [596, 245.5]}]",Rate how much you want to eat this food from 0 (least) to 10 (most).,35914.700000047684,1669829169413,cantaloupe,1255.0999999046326,True,2.14,37169.799999952316,1255.0999999046326,True,HRV,HRV_0010,2022-11-30 17:27:09
23,"[{'imgObject': {}, 'id': 'froot loops w milk', 'src': '/static/foodstim60/froot loops w milk.jpg', 'key': 'NaN', 'origWidth': 410, 'origHeight': 410, 'width': 410, 'height': 410, 'widthPercent': 0.8, 'rescaleHeight': True, 'trialN': 23, 'loaded': True, 'loadedTime': 1876.7000000476837, 'positionName': 'CENTER', 'positionCoords': [595.5, 245]}]",Rate how much you want to eat this food from 0 (least) to 10 (most).,37171.200000047684,1669829170669,froot loops w milk,1895.2999999523163,True,6.99,39066.5,1895.2999999523163,True,HRV,HRV_0010,2022-11-30 17:27:09
24,"[{'imgObject': {}, 'id': 'sweetpotato', 'src': '/static/foodstim60/sweetpotato.jpg', 'key': 'NaN', 'origWidth': 410, 'origHeight': 410, 'width': 410, 'height': 410, 'widthPercent': 0.8, 'rescaleHeight': True, 'trialN': 24, 'loaded': True, 'loadedTime': 1879.7999999523163, 'positionName': 'CENTER', 'positionCoords': [595.5, 245]}]",Rate how much you want to eat this food from 0 (least) to 10 (most).,39067.5,1669829172565,sweetpotato,1263.5,True,8.44,40331.0,1263.5,True,HRV,HRV_0010,2022-11-30 17:27:09
25,"[{'imgObject': {}, 'id': 'grilled chicken strips', 'src': '/static/foodstim60/grilled chicken strips.jpg', 'key': 'NaN', 'origWidth': 410, 'origHeight': 411, 'width': 410, 'height': 411, 'widthPercent': 0.8, 'rescaleHeight': True, 'trialN': 25, 'loaded': True, 'loadedTime': 1880.5, 'positionName': 'CENTER', 'positionCoords': [595.5, 244.5]}]",Rate how much you want to eat this food from 0 (least) to 10 (most).,40332.10000014305,1669829173830,grilled chicken strips,1927.0,True,0.08,42259.10000014305,1927.0,True,HRV,HRV_0010,2022-11-30 17:27:09
26,"[{'imgObject': {}, 'id': 'veggieswithdip', 'src': '/static/foodstim60/veggieswithdip.jpg', 'key': 'NaN', 'origWidth': 409, 'origHeight': 409, 'width': 409, 'height': 409, 'widthPercent': 0.8, 'rescaleHeight': True, 'trialN': 26, 'loaded': True, 'loadedTime': 1881.5, 'positionName': 'CENTER', 'positionCoords': [596, 245.5]}]",Rate how much you want to eat this food from 0 (least) to 10 (most).,42260.299999952316,1669829175758,veggieswithdip,2510.800000190735,True,0.62,44771.10000014305,2510.800000190735,True,HRV,HRV_0010,2022-11-30 17:27:09
27,"[{'imgObject': {}, 'id': 'raisin bran w milk', 'src': '/static/foodstim60/raisin bran w milk.jpg', 'key': 'NaN', 'origWidth': 411, 'origHeight': 411, 'width': 411, 'height': 411, 'widthPercent': 0.8, 'rescaleHeight': True, 'trialN': 27, 'loaded': True, 'loadedTime': 1895.7000000476837, 'positionName': 'CENTER', 'positionCoords': [595, 244.5]}]",Rate how much you want to eat this food from 0 (least) to 10 (most).,44772.299999952316,1669829178270,raisin bran w milk,1567.8000001907349,True,7.67,46340.10000014305,1567.8000001907349,True,HRV,HRV_0010,2022-11-30 17:27:09
28,"[{'imgObject': {}, 'id': 'banana', 'src': '/static/foodstim60/banana.jpg', 'key': 'NaN', 'origWidth': 410, 'origHeight': 410, 'width': 410, 'height': 410, 'widthPercent': 0.8, 'rescaleHeight': True, 'trialN': 28, 'loaded': True, 'loadedTime': 1896.2999999523163, 'positionName': 'CENTER', 'positionCoords': [595.5, 245]}]",Rate how much you want to eat this food from 0 (least) to 10 (most).,46341.90000009537,1669829179840,banana,1837.7000000476837,True,6.04,48179.60000014305,1837.7000000476837,True,HRV,HRV_0010,2022-11-30 17:27:09
29,"[{'imgObject': {}, 'id': 'Grapes', 'src': '/static/foodstim60/Grapes.jpg', 'key': 'NaN', 'origWidth': 411, 'origHeight': 411, 'width': 411, 'height': 411, 'widthPercent': 0.8, 'rescaleHeight': True, 'trialN': 29, 'loaded': True, 'loadedTime': 1896.7000000476837, 'positionName': 'CENTER', 'positionCoords': [595, 244.5]}]",Rate how much you want to eat this food from 0 (least) to 10 (most).,48180.799999952316,1669829181679,Grapes,1384.3000001907349,True,4.18,49565.10000014305,1384.3000001907349,True,HRV,HRV_0010,2022-11-30 17:27:09
30,"[{'imgObject': {}, 'id': 'blueberries', 'src': '/static/foodstim60/blueberries.jpg', 'key': 'NaN', 'origWidth': 411, 'origHeight': 411, 'width': 411, 'height': 411, 'widthPercent': 0.8, 'rescaleHeight': True, 'trialN': 30, 'loaded': True, 'loadedTime': 1897.2000000476837, 'positionName': 'CENTER', 'positionCoords': [595, 244.5]}]",Rate how much you want to eat this food from 0 (least) to 10 (most).,49566.40000009537,1669829183064,blueberries,1150.3999998569489,True,4.64,50716.799999952316,1150.3999998569489,True,HRV,HRV_0010,2022-11-30 17:27:09
31,"[{'imgObject': {}, 'id': 'omelette', 'src': '/static/foodstim60/omelette.jpg', 'key': 'NaN', 'origWidth': 410, 'origHeight': 409, 'width': 410, 'height': 409, 'widthPercent': 0.8, 'rescaleHeight': True, 'trialN': 31, 'loaded': True, 'loadedTime': 1897.6000001430511, 'positionName': 'CENTER', 'positionCoords': [595.5, 245.5]}]",Rate how much you want to eat this food from 0 (least) to 10 (most).,50718.10000014305,1669829184216,omelette,1590.5999999046326,True,8.3,52308.700000047684,1590.5999999046326,True,HRV,HRV_0010,2022-11-30 17:27:09
32,"[{'imgObject': {}, 'id': 'tacos', 'src': '/static/foodstim60/tacos.jpg', 'key': 'NaN', 'origWidth': 411, 'origHeight': 411, 'width': 411, 'height': 411, 'widthPercent': 0.8, 'rescaleHeight': True, 'trialN': 32, 'loaded': True, 'loadedTime': 1898.1000001430511, 'positionName': 'CENTER', 'positionCoords': [595, 244.5]}]",Rate how much you want to eat this food from 0 (least) to 10 (most).,52310.0,1669829185808,tacos,1766.4000000953674,True,6.48,54076.40000009537,1766.4000000953674,True,HRV,HRV_0010,2022-11-30 17:27:09
33,"[{'imgObject': {}, 'id': 'corn cob', 'src': '/static/foodstim60/corn cob.jpg', 'key': 'NaN', 'origWidth': 411, 'origHeight': 411, 'width': 411, 'height': 411, 'widthPercent': 0.8, 'rescaleHeight': True, 'trialN': 33, 'loaded': True, 'loadedTime': 1898.7000000476837, 'positionName': 'CENTER', 'positionCoords': [595, 244.5]}]",Rate how much you want to eat this food from 0 (least) to 10 (most).,54077.299999952316,1669829187575,corn cob,1559.7000000476837,True,9.91,55637.0,1559.7000000476837,True,HRV,HRV_0010,2022-11-30 17:27:09
34,"[{'imgObject': {}, 'id': 'cherry tomato', 'src': '/static/foodstim60/cherry tomato.jpg', 'key': 'NaN', 'origWidth': 410, 'origHeight': 410, 'width': 410, 'height': 410, 'widthPercent': 0.8, 'rescaleHeight': True, 'trialN': 34, 'loaded': True, 'loadedTime': 1899.2000000476837, 'positionName': 'CENTER', 'positionCoords': [595.5, 245]}]",Rate how much you want to eat this food from 0 (least) to 10 (most).,55638.200000047684,1669829189136,cherry tomato,1814.9000000953674,True,4.78,57453.10000014305,1814.9000000953674,True,HRV,HRV_0010,2022-11-30 17:27:09
35,"[{'imgObject': {}, 'id': 'rigatoni and sauce', 'src': '/static/foodstim60/rigatoni and sauce.jpg', 'key': 'NaN', 'origWidth': 410, 'origHeight': 411, 'width': 410, 'height': 411, 'widthPercent': 0.8, 'rescaleHeight': True, 'trialN': 35, 'loaded': True, 'loadedTime': 1899.6000001430511, 'positionName': 'CENTER', 'positionCoords': [595.5, 244.5]}]",Rate how much you want to eat this food from 0 (least) to 10 (most).,57454.200000047684,1669829190952,rigatoni and sauce,1199.9000000953674,True,7.76,58654.10000014305,1199.9000000953674,True,HRV,HRV_0010,2022-11-30 17:27:09
36,"[{'imgObject': {}, 'id': 'baked potato', 'src': '/static/foodstim60/baked potato.jpg', 'key': 'NaN', 'origWidth': 409, 'origHeight': 410, 'width': 409, 'height': 410, 'widthPercent': 0.8, 'rescaleHeight': True, 'trialN': 36, 'loaded': True, 'loadedTime': 1900.6000001430511, 'positionName': 'CENTER', 'positionCoords': [596, 245]}]",Rate how much you want to eat this food from 0 (least) to 10 (most).,58655.5,1669829192153,baked potato,1062.1000001430511,True,7.97,59717.60000014305,1062.1000001430511,True,HRV,HRV_0010,2022-11-30 17:27:09
37,"[{'imgObject': {}, 'id': 'salad w chicken', 'src': '/static/foodstim60/salad w chicken.jpg', 'key': 'NaN', 'origWidth': 411, 'origHeight': 411, 'width': 411, 'height': 411, 'widthPercent': 0.8, 'rescaleHeight': True, 'trialN': 37, 'loaded': True, 'loadedTime': 1901.2000000476837, 'positionName': 'CENTER', 'positionCoords': [595, 244.5]}]",Rate how much you want to eat this food from 0 (least) to 10 (most).,59718.90000009537,1669829193216,salad w chicken,1583.2000000476837,True,0.05,61302.10000014305,1583.2000000476837,True,HRV,HRV_0010,2022-11-30 17:27:09
38,"[{'imgObject': {}, 'id': 'eggs', 'src': '/static/foodstim60/eggs.jpg', 'key': 'NaN', 'origWidth': 409, 'origHeight': 409, 'width': 409, 'height': 409, 'widthPercent': 0.8, 'rescaleHeight': True, 'trialN': 38, 'loaded': True, 'loadedTime': 1901.7000000476837, 'positionName': 'CENTER', 'positionCoords': [596, 245.5]}]",Rate how much you want to eat this food from 0 (least) to 10 (most).,61303.10000014305,1669829194801,eggs,1182.8999998569489,True,2.23,62486.0,1182.8999998569489,True,HRV,HRV_0010,2022-11-30 17:27:09
39,"[{'imgObject': {}, 'id': 'apple slices', 'src': '/static/foodstim60/apple slices.jpg', 'key': 'NaN', 'origWidth': 409, 'origHeight': 410, 'width': 409, 'height': 410, 'widthPercent': 0.8, 'rescaleHeight': True, 'trialN': 39, 'loaded': True, 'loadedTime': 1902.2000000476837, 'positionName': 'CENTER', 'positionCoords': [596, 245]}]",Rate how much you want to eat this food from 0 (least) to 10 (most).,62487.200000047684,1669829195985,apple slices,1542.9000000953674,True,6.44,64030.10000014305,1542.9000000953674,True,HRV,HRV_0010,2022-11-30 17:27:09
40,"[{'imgObject': {}, 'id': 'chicken nuggets2', 'src': '/static/foodstim60/chicken nuggets2.jpg', 'key': 'NaN', 'origWidth': 410, 'origHeight': 409, 'width': 410, 'height': 409, 'widthPercent': 0.8, 'rescaleHeight': True, 'trialN': 40, 'loaded': True, 'loadedTime': 1902.7000000476837, 'positionName': 'CENTER', 'positionCoords': [595.5, 245.5]}]",Rate how much you want to eat this food from 0 (least) to 10 (most).,64031.299999952316,1669829197529,chicken nuggets2,1151.8000001907349,True,4.74,65183.10000014305,1151.8000001907349,True,HRV,HRV_0010,2022-11-30 17:27:09
41,"[{'imgObject': {}, 'id': 'edamame', 'src': '/static/foodstim60/edamame.jpg', 'key': 'NaN', 'origWidth': 409, 'origHeight': 410, 'width': 409, 'height': 410, 'widthPercent': 0.8, 'rescaleHeight': True, 'trialN': 41, 'loaded': True, 'loadedTime': 1903.2999999523163, 'positionName': 'CENTER', 'positionCoords': [596, 245]}]",Rate how much you want to eat this food from 0 (least) to 10 (most).,65184.700000047684,1669829198682,edamame,1694.2000000476837,True,8.21,66878.90000009537,1694.2000000476837,True,HRV,HRV_0010,2022-11-30 17:27:09
42,"[{'imgObject': {}, 'id': 'eggsalad', 'src': '/static/foodstim60/eggsalad.jpg', 'key': 'NaN', 'origWidth': 410, 'origHeight': 409, 'width': 410, 'height': 409, 'widthPercent': 0.8, 'rescaleHeight': True, 'trialN': 42, 'loaded': True, 'loadedTime': 1903.7000000476837, 'positionName': 'CENTER', 'positionCoords': [595.5, 245.5]}]",Rate how much you want to eat this food from 0 (least) to 10 (most).,66880.29999995232,1669829200378,eggsalad,1486.8000001907349,True,5.36,68367.10000014305,1486.8000001907349,True,HRV,HRV_0010,2022-11-30 17:27:09
43,"[{'imgObject': {}, 'id': 'fried eggs', 'src': '/static/foodstim60/fried eggs.jpg', 'key': 'NaN', 'origWidth': 410, 'origHeight': 410, 'width': 410, 'height': 410, 'widthPercent': 0.8, 'rescaleHeight': True, 'trialN': 43, 'loaded': True, 'loadedTime': 1904.1000001430511, 'positionName': 'CENTER', 'positionCoords': [595.5, 245]}]",Rate how much you want to eat this food from 0 (least) to 10 (most).,68368.20000004768,1669829201866,fried eggs,1478.2999999523163,True,7.94,69846.5,1478.2999999523163,True,HRV,HRV_0010,2022-11-30 17:27:09
44,"[{'imgObject': {}, 'id': 'cherries', 'src': '/static/foodstim60/cherries.jpg', 'key': 'NaN', 'origWidth': 410, 'origHeight': 411, 'width': 410, 'height': 411, 'widthPercent': 0.8, 'rescaleHeight': True, 'trialN': 44, 'loaded': True, 'loadedTime': 1904.6000001430511, 'positionName': 'CENTER', 'positionCoords': [595.5, 244.5]}]",Rate how much you want to eat this food from 0 (least) to 10 (most).,69847.70000004768,1669829203345,cherries,1232.4000000953674,True,7.0600000000000005,71080.10000014305,1232.4000000953674,True,HRV,HRV_0010,2022-11-30 17:27:09
45,"[{'imgObject': {}, 'id': 'popsicles', 'src': '/static/foodstim60/popsicles.jpg', 'key': 'NaN', 'origWidth': 410, 'origHeight': 410, 'width': 410, 'height': 410, 'widthPercent': 0.8, 'rescaleHeight': True, 'trialN': 45, 'loaded': True, 'loadedTime': 1905, 'positionName': 'CENTER', 'positionCoords': [595.5, 245]}]",Rate how much you want to eat this food from 0 (least) to 10 (most).,71081.29999995232,1669829204579,popsicles,1245.7000000476837,True,2.05,72327.0,1245.7000000476837,True,HRV,HRV_0010,2022-11-30 17:27:09
46,"[{'imgObject': {}, 'id': 'burger', 'src': '/static/foodstim60/burger.jpg', 'key': 'NaN', 'origWidth': 409, 'origHeight': 409, 'width': 409, 'height': 409, 'widthPercent': 0.8, 'rescaleHeight': True, 'trialN': 46, 'loaded': True, 'loadedTime': 1905.4000000953674, 'positionName': 'CENTER', 'positionCoords': [596, 245.5]}]",Rate how much you want to eat this food from 0 (least) to 10 (most).,72328.60000014305,1669829205826,burger,1751.3999998569489,True,0.07,74080.0,1751.3999998569489,True,HRV,HRV_0010,2022-11-30 17:27:09
47,"[{'imgObject': {}, 'id': 'fruitsalad', 'src': '/static/foodstim60/fruitsalad.jpg', 'key': 'NaN', 'origWidth': 410, 'origHeight': 410, 'width': 410, 'height': 410, 'widthPercent': 0.8, 'rescaleHeight': True, 'trialN': 47, 'loaded': True, 'loadedTime': 1905.7999999523163, 'positionName': 'CENTER', 'positionCoords': [595.5, 245]}]",Rate how much you want to eat this food from 0 (least) to 10 (most).,74081.40000009537,1669829207579,fruitsalad,1214.5999999046326,True,1.68,75296.0,1214.5999999046326,True,HRV,HRV_0010,2022-11-30 17:27:09
48,"[{'imgObject': {}, 'id': 'yogurt no spoon', 'src': '/static/foodstim60/yogurt no spoon.jpg', 'key': 'NaN', 'origWidth': 411, 'origHeight': 410, 'width': 411, 'height': 410, 'widthPercent': 0.8, 'rescaleHeight': True, 'trialN': 48, 'loaded': True, 'loadedTime': 1906.2000000476837, 'positionName': 'CENTER', 'positionCoords': [595, 245]}]",Rate how much you want to eat this food from 0 (least) to 10 (most).,75297.29999995232,1669829208795,yogurt no spoon,1222.9000000953674,True,4.33,76520.20000004768,1222.9000000953674,True,HRV,HRV_0010,2022-11-30 17:27:09
49,"[{'imgObject': {}, 'id': 'rigatoni', 'src': '/static/foodstim60/rigatoni.jpg', 'key': 'NaN', 'origWidth': 411, 'origHeight': 411, 'width': 411, 'height': 411, 'widthPercent': 0.8, 'rescaleHeight': True, 'trialN': 49, 'loaded': True, 'loadedTime': 1906.7000000476837, 'positionName': 'CENTER', 'positionCoords': [595, 244.5]}]",Rate how much you want to eat this food from 0 (least) to 10 (most).,76521.79999995232,1669829210019,rigatoni,1391.2000000476837,True,6.61,77913.0,1391.2000000476837,True,HRV,HRV_0010,2022-11-30 17:27:09
50,"[{'imgObject': {}, 'id': 'hotdog w must', 'src': '/static/foodstim60/hotdog w must.jpg', 'key': 'NaN', 'origWidth': 409, 'origHeight': 409, 'width': 409, 'height': 409, 'widthPercent': 0.8, 'rescaleHeight': True, 'trialN': 50, 'loaded': True, 'loadedTime': 1907.2000000476837, 'positionName': 'CENTER', 'positionCoords': [596, 245.5]}]",Rate how much you want to eat this food from 0 (least) to 10 (most).,77914.20000004768,1669829211412,hotdog w must,1373.7999999523163,True,0.12,79288.0,1373.7999999523163,True,HRV,HRV_0010,2022-11-30 17:27:09
51,"[{'imgObject': {}, 'id': 'granola w milk', 'src': '/static/foodstim60/granola w milk.jpg', 'key': 'NaN', 'origWidth': 410, 'origHeight': 410, 'width': 410, 'height': 410, 'widthPercent': 0.8, 'rescaleHeight': True, 'trialN': 51, 'loaded': True, 'loadedTime': 1907.7000000476837, 'positionName': 'CENTER', 'positionCoords': [595.5, 245]}]",Rate how much you want to eat this food from 0 (least) to 10 (most).,79289.40000009537,1669829212787,granola w milk,1487.2999999523163,True,8.69,80776.70000004768,1487.2999999523163,True,HRV,HRV_0010,2022-11-30 17:27:09
52,"[{'imgObject': {}, 'id': 'steak', 'src': '/static/foodstim60/steak.jpg', 'key': 'NaN', 'origWidth': 410, 'origHeight': 410, 'width': 410, 'height': 410, 'widthPercent': 0.8, 'rescaleHeight': True, 'trialN': 52, 'loaded': True, 'loadedTime': 1910.4000000953674, 'positionName': 'CENTER', 'positionCoords': [595.5, 245]}]",Rate how much you want to eat this food from 0 (least) to 10 (most).,80777.60000014305,1669829214275,steak,3415.5,True,0.14,84193.10000014305,3415.5,True,HRV,HRV_0010,2022-11-30 17:27:09
53,"[{'imgObject': {}, 'id': 'cheerios', 'src': '/static/foodstim60/cheerios.jpg', 'key': 'NaN', 'origWidth': 409, 'origHeight': 410, 'width': 409, 'height': 410, 'widthPercent': 0.8, 'rescaleHeight': True, 'trialN': 53, 'loaded': True, 'loadedTime': 1911.4000000953674, 'positionName': 'CENTER', 'positionCoords': [596, 245]}]",Rate how much you want to eat this food from 0 (least) to 10 (most).,84194.20000004768,1669829217692,cheerios,1486.2000000476837,True,6.86,85680.40000009537,1486.2000000476837,True,HRV,HRV_0010,2022-11-30 17:27:09
54,"[{'imgObject': {}, 'id': 'hashbrowns', 'src': '/static/foodstim60/hashbrowns.jpg', 'key': 'NaN', 'origWidth': 411, 'origHeight': 410, 'width': 411, 'height': 410, 'widthPercent': 0.8, 'rescaleHeight': True, 'trialN': 54, 'loaded': True, 'loadedTime': 1912.2000000476837, 'positionName': 'CENTER', 'positionCoords': [595, 245]}]",Rate how much you want to eat this food from 0 (least) to 10 (most).,85681.40000009537,1669829219179,hashbrowns,4672.700000047684,True,4.88,90354.10000014305,4672.700000047684,True,HRV,HRV_0010,2022-11-30 17:27:09
55,"[{'imgObject': {}, 'id': 'orange slices', 'src': '/static/foodstim60/orange slices.jpg', 'key': 'NaN', 'origWidth': 409, 'origHeight': 410, 'width': 409, 'height': 410, 'widthPercent': 0.8, 'rescaleHeight': True, 'trialN': 55, 'loaded': True, 'loadedTime': 1912.9000000953674, 'positionName': 'CENTER', 'positionCoords': [596, 245]}]",Rate how much you want to eat this food from 0 (least) to 10 (most).,90355.10000014305,1669829223853,orange slices,910.3999998569489,True,4.11,91265.5,910.3999998569489,True,HRV,HRV_0010,2022-11-30 17:27:09
56,"[{'imgObject': {}, 'id': 'bagel plain', 'src': '/static/foodstim60/bagel plain.jpg', 'key': 'NaN', 'origWidth': 410, 'origHeight': 410, 'width': 410, 'height': 410, 'widthPercent': 0.8, 'rescaleHeight': True, 'trialN': 56, 'loaded': True, 'loadedTime': 1919, 'positionName': 'CENTER', 'positionCoords': [595.5, 245]}]",Rate how much you want to eat this food from 0 (least) to 10 (most).,91267.0,1669829224765,bagel plain,1439.1000001430511,True,8.3,92706.10000014305,1439.1000001430511,True,HRV,HRV_0010,2022-11-30 17:27:09
57,"[{'imgObject': {}, 'id': 'mac & cheese', 'src': '/static/foodstim60/mac & cheese.jpg', 'key': 'NaN', 'origWidth': 410, 'origHeight': 410, 'width': 410, 'height': 410, 'widthPercent': 0.8, 'rescaleHeight': True, 'trialN': 57, 'loaded': True, 'loadedTime': 1920.4000000953674, 'positionName': 'CENTER', 'positionCoords': [595.5, 245]}]",Rate how much you want to eat this food from 0 (least) to 10 (most).,92707.20000004768,1669829226205,mac & cheese,1247.7999999523163,True,8.870000000000001,93955.0,1247.7999999523163,True,HRV,HRV_0010,2022-11-30 17:27:09
58,"[{'imgObject': {}, 'id': 'Tribe humus pita', 'src': '/static/foodstim60/Tribe humus pita.jpg', 'key': 'NaN', 'origWidth': 411, 'origHeight': 411, 'width': 411, 'height': 411, 'widthPercent': 0.8, 'rescaleHeight': True, 'trialN': 58, 'loaded': True, 'loadedTime': 1921.5, 'positionName': 'CENTER', 'positionCoords': [595, 244.5]}]",Rate how much you want to eat this food from 0 (least) to 10 (most).,93956.29999995232,1669829227454,Tribe humus pita,1614.8000001907349,True,4.79,95571.10000014305,1614.8000001907349,True,HRV,HRV_0010,2022-11-30 17:27:09
59,"[{'imgObject': {}, 'id': 'cocktailshrimp', 'src': '/static/foodstim60/cocktailshrimp.jpg', 'key': 'NaN', 'origWidth': 410, 'origHeight': 410, 'width': 410, 'height': 410, 'widthPercent': 0.8, 'rescaleHeight': True, 'trialN': 59, 'loaded': True, 'loadedTime': 1924, 'positionName': 'CENTER', 'positionCoords': [595.5, 245]}]",Rate how much you want to eat this food from 0 (least) to 10 (most).,95572.20000004768,1669829229070,cocktailshrimp,1286.7999999523163,True,5.93,96859.0,1286.7999999523163,True,HRV,HRV_0010,2022-11-30 17:27:09
