success,trial_type,trial_index,time_elapsed,internal_node_id,Block,TrialNumber,TrialTime,trialTimeDiff,FPS_avg,FPS_med,FPS_mode,TrialDur,winResizeTime,rt,block,button_pressed,MotCoh,MotDir,ColCoh,Color,ChoiceKey,Choice,Accuracy,RT,nFrames,FPS,PPD,missTrial,missTrialMsg,onsetDelay,fullScreenExitTime,canvCenter,TrialType,Score,BlockTrial,stimulus,button_labels,exp,subjectId,date
True,fullscreen,0,2016,0.0-0.0,0.0,1.0,,,,,,,,,,,,,,,,,,,,,,,,,,,,,,,,HRV,HRV_0134,2022-11-30 18:26:17
,wl-check-fps,1,7006,0.0-1.0,0.0,2.0,"[2805.4, 2806.7, 2820.4, 2836.9, 2854.2, 2870.4, 2887.1, 2905.9, 2920.3, 2936.9, 2956.9, 2972.6, 2987.1, 3005.9, 3025.7, 3037, 3055.8, 3075.7, 3086.8, 3105.2, 3120.1, 3136.8, 3153.5, 3171.7, 3186.8, 3204.1, 3220.2, 3237, 3253.8, 3270.4, 3286.9, 3303.4, 3320.2, 3336.8, 3353.4, 3370.3, 3386.8, 3403.5, 3420.1, 3436.8, 3453.5, 3470.1, 3486.6, 3503.4, 3520.1, 3536.8, 3553.5, 3570, 3587.1, 3603.6, 3620.1, 3636.7, 3653.6, 3670, 3686.9, 3703.5, 3720.1, 3739.1, 3757.3, 3770.2, 3786.9, 3806.1, 3820.2, 3842.4, 3859.1, 3870.2, 3886.8, 3906.9, 3920.5, 3936.8, 3955.9, 3970.2, 3986.8, 4007.4, 4020.1, 4036.6, 4053.2, 4070, 4086.6, 4106.3, 4120, 4139.5, 4156.9, 4170.1, 4186.7, 4207, 4220.1, 4236.8, 4256.6, 4271.1, 4286.6, 4306.9, 4320.2, 4337, 4356.8, 4370.7, 4386.9, 4407.3, 4419.8, 4437.7, 4456.9, 4470, 4486.7, 4506.5, 4519.8, 4536.4, 4553.2, 4569.9, 4586.4, 4603.1, 4619.8, 4636.3, 4653.1, 4669.7, 4686.4, 4703.2, 4719.7, 4736.4, 4753, 4769.7, 4786.4, 4803.2, 4819.7, 4836.4, 4853.1, 4869.6, 4886.8, 4903, 4919.6, 4936.3, 4952.8, 4969.5, 4986.1, 5003, 5019.4, 5036.3, 5053, 5069.6, 5086.3, 5103.2, 5119.7, 5136.2, 5153, 5169.5, 5186.3, 5203.1, 5219.7, 5236.3, 5256.4, 5269.5, 5286.3, 5302.9, 5319.5, 5336.2, 5352.8, 5369.4, 5386.2, 5402.8, 5419.4, 5436.1, 5452.8, 5469.4, 5486.1, 5502.8, 5519.7, 5536, 5552.9, 5569.4, 5586.1, 5602.8, 5619.4, 5636, 5655.9, 5669.2, 5686, 5705.3, 5719.3, 5735.9, 5752.7, 5769.3, 5786, 5802.7, 5819.4, 5836, 5852.8, 5869.4, 5886.2, 5907.9, 5919.4, 5936, 5952.7, 5969.3, 5985.8, 6002.6, 6019.3, 6035.9, 6052.6, 6071.3, 6085.9, 6102.5, 6119.3, 6135.9, 6152.6, 6169.2, 6185.9, 6202.6, 6219.2, 6235.9, 6252.6, 6269.2, 6285.9, 6304.1, 6319.2, 6336, 6352.6, 6371.9, 6386, 6402.4, 6419.2, 6436, 6452.5, 6470.5, 6486, 6502.6, 6519.8, 6535.9, 6552.5, 6569.5, 6585.9, 6602.5, 6619.2, 6635.8, 6655.5, 6669, 6685.8, 6702.3, 6719.1, 6735.7, 6752.5, 6769.2, 6785.9, 6802.4, 6819.1, 6836.1, 6852.4, 6869.4, 6885.6, 6902.3, 6919.1, 6935.7, 6952.4, 6969.1, 6985.8, 7002.4, 7019.1, 7035.5, 7052.3, 7070.5, 7087.1, 7102.5, 7120.8, 7135.6, 7153.3, 7171, 7187.9, 7204.6, 7219.9, 7237.2, 7252.9, 7269.5, 7286, 7303.2, 7320.2, 7336.4, 7353.2, 7369.7, 7386.3, 7403.2, 7419.8, 7436.3, 7453.1, 7469.7, 7486.6, 7503.6, 7519.8, 7536.4, 7552.8, 7569.8, 7586.3, 7603.3, 7619.6, 7636.2, 7652.9, 7669.7, 7686.5, 7703, 7719.5, 7736.1, 7753.9, 7769.6]","[5.1, 1.3, 13.7, 16.5, 17.3, 16.2, 16.7, 18.8, 14.4, 16.6, 20, 15.7, 14.5, 18.8, 19.8, 11.3, 18.8, 19.9, 11.1, 18.4, 14.9, 16.7, 16.7, 18.2, 15.1, 17.3, 16.1, 16.8, 16.8, 16.6, 16.5, 16.5, 16.8, 16.6, 16.6, 16.9, 16.5, 16.7, 16.6, 16.7, 16.7, 16.6, 16.5, 16.8, 16.7, 16.7, 16.7, 16.5, 17.1, 16.5, 16.5, 16.6, 16.9, 16.4, 16.9, 16.6, 16.6, 19, 18.2, 12.9, 16.7, 19.2, 14.1, 22.2, 16.7, 11.1, 16.6, 20.1, 13.6, 16.3, 19.1, 14.3, 16.6, 20.6, 12.7, 16.5, 16.6, 16.8, 16.6, 19.7, 13.7, 19.5, 17.4, 13.2, 16.6, 20.3, 13.1, 16.7, 19.8, 14.5, 15.5, 20.3, 13.3, 16.8, 19.8, 13.9, 16.2, 20.4, 12.5, 17.9, 19.2, 13.1, 16.7, 19.8, 13.3, 16.6, 16.8, 16.7, 16.5, 16.7, 16.7, 16.5, 16.8, 16.6, 16.7, 16.8, 16.5, 16.7, 16.6, 16.7, 16.7, 16.8, 16.5, 16.7, 16.7, 16.5, 17.2, 16.2, 16.6, 16.7, 16.5, 16.7, 16.6, 16.9, 16.4, 16.9, 16.7, 16.6, 16.7, 16.9, 16.5, 16.5, 16.8, 16.5, 16.8, 16.8, 16.6, 16.6, 20.1, 13.1, 16.8, 16.6, 16.6, 16.7, 16.6, 16.6, 16.8, 16.6, 16.6, 16.7, 16.7, 16.6, 16.7, 16.7, 16.9, 16.3, 16.9, 16.5, 16.7, 16.7, 16.6, 16.6, 19.9, 13.3, 16.8, 19.3, 14, 16.6, 16.8, 16.6, 16.7, 16.7, 16.7, 16.6, 16.8, 16.6, 16.8, 21.7, 11.5, 16.6, 16.7, 16.6, 16.5, 16.8, 16.7, 16.6, 16.7, 18.7, 14.6, 16.6, 16.8, 16.6, 16.7, 16.6, 16.7, 16.7, 16.6, 16.7, 16.7, 16.6, 16.7, 18.2, 15.1, 16.8, 16.6, 19.3, 14.1, 16.4, 16.8, 16.8, 16.5, 18, 15.5, 16.6, 17.2, 16.1, 16.6, 17, 16.4, 16.6, 16.7, 16.6, 19.7, 13.5, 16.8, 16.5, 16.8, 16.6, 16.8, 16.7, 16.7, 16.5, 16.7, 17, 16.3, 17, 16.2, 16.7, 16.8, 16.6, 16.7, 16.7, 16.7, 16.6, 16.7, 16.4, 16.8, 18.2, 16.6, 15.4, 18.3, 14.8, 17.7, 17.7, 16.9, 16.7, 15.3, 17.3, 15.7, 16.6, 16.5, 17.2, 17, 16.2, 16.8, 16.5, 16.6, 16.9, 16.6, 16.5, 16.8, 16.6, 16.9, 17, 16.2, 16.6, 16.4, 17, 16.5, 17, 16.3, 16.6, 16.7, 16.8, 16.8, 16.5, 16.5, 16.6, 17.8, 15.7]",60.0,67.0,60.0,4985.7,[],,,,,,,,,,,,,,,,,,,,,,,,,HRV,HRV_0134,2022-11-30 18:26:17
,wl-html-keyboard-response,2,29230,0.0-2.0-0.0,0.0,3.0,,,,,,,,20209.0,0.0,0,,,,,,,,,,,,,,,,,,,,,,HRV,HRV_0134,2022-11-30 18:26:17
,wl-rdm,3,36846,0.0-3.0-0.0,0.0,4.0,,,,,,,[],,,,0.0,0.0,87.9,0.0,u,0.0,True,2044.0,123.0,60.0,40.0,False,,3000.0,[],"[768, 432]",ColorTask_Demo,,,,,HRV,HRV_0134,2022-11-30 18:26:17
,wl-rdm,4,42393,0.0-3.0-1.0,0.0,5.0,,,,,,,[],,,,0.0,0.0,87.9,1.0,i,1.0,True,1470.199999988079,89.0,60.0,40.0,False,,2000.0,[],"[768, 432]",ColorTask_Demo,,,,,HRV,HRV_0134,2022-11-30 18:26:17
,wl-html-keyboard-response,5,48305,0.0-3.0-2.0,0.0,6.0,,,,,,,,3905.699999988079,0.0,1,,,,,,,,,,,,,,,,,,,,,,HRV,HRV_0134,2022-11-30 18:26:17
,wl-html-keyboard-response,6,60689,0.0-4.0-0.0,0.0,7.0,,,,,,,,10376.200000017881,0.0,0,,,,,,,,,,,,,,,,,,,,,,HRV,HRV_0134,2022-11-30 18:26:17
,wl-html-keyboard-response,7,77130,0.0-5.0-0.0,0.0,8.0,,,,,,,,14437.0,0.0,0,,,,,,,,,,,,,,,,,,,,,,HRV,HRV_0134,2022-11-30 18:26:17
,wl-rdm,8,81079,0.0-6.0-0.0,0.0,9.0,,,,,,,[],,,,,,53.2,0.0,u,0.0,True,2517.199999988079,152.0,60.0,40.0,False,,336.38275643550367,[],"[768, 432]",ColorTask,1.0,1.0,,,HRV,HRV_0134,2022-11-30 18:26:17
,wl-rdm,9,84744,0.0-6.1-0.1,0.0,10.0,,,,,,,[],,,,,,62.5,1.0,i,1.0,True,2192.0,132.0,60.0,40.0,False,,391.09736714146555,[],"[768, 432]",ColorTask,2.0,2.0,,,HRV,HRV_0134,2022-11-30 18:26:17
,wl-rdm,10,88060,0.0-6.2-0.2,0.0,11.0,,,,,,,[],,,,,,53.2,0.0,u,0.0,True,1987.5,120.0,60.0,40.0,False,,245.87542897078015,[],"[768, 432]",ColorTask,3.0,3.0,,,HRV,HRV_0134,2022-11-30 18:26:17
,wl-rdm,11,90875,0.0-6.3-0.3,0.0,12.0,,,,,,,[],,,,,,50.0,0.0,u,0.0,True,1491.0999999940395,90.0,60.0,40.0,False,,238.18023293265634,[],"[768, 432]",ColorTask,4.0,4.0,,,HRV,HRV_0134,2022-11-30 18:26:17
,wl-rdm,12,93241,0.0-6.4-0.4,0.0,13.0,,,,,,,[],,,,,,56.4,0.0,u,0.0,True,1079.199999988079,65.0,60.0,40.0,False,,208.52218230448784,[],"[768, 432]",ColorTask,5.0,5.0,,,HRV,HRV_0134,2022-11-30 18:26:17
,wl-rdm,13,95690,0.0-6.5-0.5,0.0,14.0,,,,,,,[],,,,,,73.6,1.0,i,1.0,True,1001.0,61.0,60.0,40.0,False,,361.54126095257664,[],"[768, 432]",ColorTask,6.0,6.0,,,HRV,HRV_0134,2022-11-30 18:26:17
,wl-rdm,14,98306,0.0-6.6-0.6,0.0,15.0,,,,,,,[],,,,,,62.5,0.0,u,0.0,True,1143.3999999761581,69.0,60.0,40.0,False,,386.1113392144,[],"[768, 432]",ColorTask,7.0,7.0,,,HRV,HRV_0134,2022-11-30 18:26:17
,wl-rdm,15,100522,0.0-6.7-0.7,0.0,16.0,,,,,,,[],,,,,,73.6,0.0,u,0.0,True,867.5,53.0,60.0,40.0,False,,251.05454822837123,[],"[768, 432]",ColorTask,8.0,8.0,,,HRV,HRV_0134,2022-11-30 18:26:17
,wl-rdm,16,102705,0.0-6.8-0.8,0.0,17.0,,,,,,,[],,,,,,73.6,0.0,u,0.0,True,798.5,48.0,60.0,40.0,False,,300.5325545816762,[],"[768, 432]",ColorTask,9.0,9.0,,,HRV,HRV_0134,2022-11-30 18:26:17
,wl-rdm,17,105021,0.0-6.9-0.9,0.0,18.0,,,,,,,[],,,,,,53.2,1.0,u,0.0,False,967.6999999880791,59.0,60.0,40.0,False,,250.28800096874502,[],"[768, 432]",ColorTask,8.0,10.0,,,HRV,HRV_0134,2022-11-30 18:26:17
,wl-rdm,18,107753,0.0-6.10-0.10,0.0,19.0,,,,,,,[],,,,,,56.4,1.0,i,1.0,True,1414.7000000178814,85.0,60.0,40.0,False,,247.6809195756292,[],"[768, 432]",ColorTask,9.0,11.0,,,HRV,HRV_0134,2022-11-30 18:26:17
,wl-rdm,19,109869,0.0-6.11-0.11,0.0,20.0,,,,,,,[],,,,,,56.4,1.0,i,1.0,True,829.0999999940395,50.0,60.0,40.0,False,,201.4452878794063,[],"[768, 432]",ColorTask,10.0,12.0,,,HRV,HRV_0134,2022-11-30 18:26:17
,wl-rdm,20,112385,0.0-6.12-0.12,0.0,21.0,,,,,,,[],,,,,,56.4,0.0,i,1.0,False,1131.800000011921,68.0,60.0,40.0,False,,309.99885778637514,[],"[768, 432]",ColorTask,9.0,13.0,,,HRV,HRV_0134,2022-11-30 18:26:17
,wl-rdm,21,114667,0.0-6.13-0.13,0.0,22.0,,,,,,,[],,,,,,62.5,1.0,i,1.0,True,811.2999999821186,49.0,60.0,40.0,False,,394.6587669914494,[],"[768, 432]",ColorTask,10.0,14.0,,,HRV,HRV_0134,2022-11-30 18:26:17
,wl-rdm,22,116900,0.0-6.14-0.14,0.0,23.0,,,,,,,[],,,,,,73.6,0.0,u,0.0,True,904.5999999940395,55.0,60.0,40.0,False,,242.39633720698774,[],"[768, 432]",ColorTask,11.0,15.0,,,HRV,HRV_0134,2022-11-30 18:26:17
,wl-rdm,23,118966,0.0-6.15-0.15,0.0,24.0,,,,,,,[],,,,,,87.9,0.0,u,0.0,True,698.0,42.0,60.0,40.0,False,,291.52484189925525,[],"[768, 432]",ColorTask,12.0,16.0,,,HRV,HRV_0134,2022-11-30 18:26:17
,wl-rdm,24,121765,0.0-6.16-0.16,0.0,25.0,,,,,,,[],,,,,,53.2,1.0,i,1.0,True,1434.2999999821186,87.0,60.0,40.0,False,,279.2330506034407,[],"[768, 432]",ColorTask,13.0,17.0,,,HRV,HRV_0134,2022-11-30 18:26:17
,wl-rdm,25,124697,0.0-6.17-0.17,0.0,26.0,,,,,,,[],,,,,,56.4,1.0,i,1.0,True,1468.3999999761581,89.0,60.0,40.0,False,,379.2523599362133,[],"[768, 432]",ColorTask,14.0,18.0,,,HRV,HRV_0134,2022-11-30 18:26:17
,wl-rdm,26,128479,0.0-6.18-0.18,0.0,27.0,,,,,,,[],,,,,,50.0,0.0,u,0.0,True,2375.100000023842,143.0,60.0,40.0,False,,318.0897531285627,[],"[768, 432]",ColorTask,15.0,19.0,,,HRV,HRV_0134,2022-11-30 18:26:17
,wl-rdm,27,130796,0.0-6.19-0.19,0.0,28.0,,,,,,,[],,,,,,87.9,1.0,i,1.0,True,887.2999999821186,54.0,60.0,40.0,False,,348.04762121395277,[],"[768, 432]",ColorTask,16.0,20.0,,,HRV,HRV_0134,2022-11-30 18:26:17
,wl-rdm,28,134077,0.0-6.20-0.20,0.0,29.0,,,,,,,[],,,,,,53.2,0.0,i,1.0,False,1826.9000000059605,110.0,60.0,40.0,False,,377.04336421219057,[],"[768, 432]",ColorTask,15.0,21.0,,,HRV,HRV_0134,2022-11-30 18:26:17
,wl-rdm,29,136259,0.0-6.21-0.21,0.0,30.0,,,,,,,[],,,,,,73.6,1.0,i,1.0,True,843.7999999821186,51.0,60.0,40.0,False,,259.4874586273707,[],"[768, 432]",ColorTask,16.0,22.0,,,HRV,HRV_0134,2022-11-30 18:26:17
,wl-rdm,30,138792,0.0-6.22-0.22,0.0,31.0,,,,,,,[],,,,,,56.4,0.0,u,0.0,True,1054.199999988079,64.0,60.0,40.0,False,,399.2269481280133,[],"[768, 432]",ColorTask,17.0,23.0,,,HRV,HRV_0134,2022-11-30 18:26:17
,wl-rdm,31,142257,0.0-6.23-0.23,0.0,32.0,,,,,,,[],,,,,,56.4,1.0,i,1.0,True,2098.800000011921,126.0,60.0,40.0,False,,284.70566907114335,[],"[768, 432]",ColorTask,18.0,24.0,,,HRV,HRV_0134,2022-11-30 18:26:17
,wl-rdm,32,144640,0.0-6.24-0.24,0.0,33.0,,,,,,,[],,,,,,73.6,1.0,i,1.0,True,1031.5,62.0,60.0,40.0,False,,276.4156105377948,[],"[768, 432]",ColorTask,19.0,25.0,,,HRV,HRV_0134,2022-11-30 18:26:17
,wl-rdm,33,146956,0.0-6.25-0.25,0.0,34.0,,,,,,,[],,,,,,53.2,1.0,u,0.0,False,947.0,57.0,60.0,40.0,False,,289.47130078658114,[],"[768, 432]",ColorTask,18.0,26.0,,,HRV,HRV_0134,2022-11-30 18:26:17
,wl-rdm,34,150155,0.0-6.26-0.26,0.0,35.0,,,,,,,[],,,,,,50.0,0.0,u,0.0,True,1856.3999999761581,112.0,60.0,40.0,False,,252.92858709672595,[],"[768, 432]",ColorTask,19.0,27.0,,,HRV,HRV_0134,2022-11-30 18:26:17
,wl-rdm,35,154603,0.0-6.27-0.27,0.0,36.0,,,,,,,[],,,,,,53.2,1.0,u,0.0,False,3023.300000011921,179.0,60.0,40.0,False,,338.3519990236857,[],"[768, 432]",ColorTask,18.0,28.0,,,HRV,HRV_0134,2022-11-30 18:26:17
,wl-rdm,36,156752,0.0-6.28-0.28,0.0,37.0,,,,,,,[],,,,,,73.6,1.0,i,1.0,True,729.0,44.0,60.0,40.0,False,,348.132585923335,[],"[768, 432]",ColorTask,19.0,29.0,,,HRV,HRV_0134,2022-11-30 18:26:17
,wl-rdm,37,159202,0.0-6.29-0.29,0.0,38.0,,,,,,,[],,,,,,62.5,1.0,i,1.0,True,973.0999999940395,59.0,60.0,40.0,False,,395.36141810136974,[],"[768, 432]",ColorTask,20.0,30.0,,,HRV,HRV_0134,2022-11-30 18:26:17
,wl-rdm,38,162117,0.0-6.30-0.30,0.0,39.0,,,,,,,[],,,,,,50.0,1.0,i,1.0,True,1595.5999999940395,96.0,60.0,40.0,False,,239.45645032120473,[],"[768, 432]",ColorTask,21.0,31.0,,,HRV,HRV_0134,2022-11-30 18:26:17
,wl-rdm,39,164200,0.0-6.31-0.31,0.0,40.0,,,,,,,[],,,,,,62.5,1.0,i,1.0,True,621.1999999880791,38.0,60.0,40.0,False,,369.7763439849199,[],"[768, 432]",ColorTask,22.0,32.0,,,HRV,HRV_0134,2022-11-30 18:26:17
,wl-rdm,40,166899,0.0-6.32-0.32,0.0,41.0,,,,,,,[],,,,,,50.0,1.0,i,1.0,True,1322.800000011921,80.0,60.0,40.0,False,,292.54092118100755,[],"[768, 432]",ColorTask,23.0,33.0,,,HRV,HRV_0134,2022-11-30 18:26:17
,wl-rdm,41,168849,0.0-6.33-0.33,0.0,42.0,,,,,,,[],,,,,,73.6,1.0,i,1.0,True,648.6999999880791,39.0,60.0,40.0,False,,231.99765735826696,[],"[768, 432]",ColorTask,24.0,34.0,,,HRV,HRV_0134,2022-11-30 18:26:17
,wl-rdm,42,170998,0.0-6.34-0.34,0.0,43.0,,,,,,,[],,,,,,87.9,0.0,u,0.0,True,771.0999999940395,47.0,60.0,40.0,False,,289.99377444941433,[],"[768, 432]",ColorTask,25.0,35.0,,,HRV,HRV_0134,2022-11-30 18:26:17
,wl-rdm,43,173147,0.0-6.35-0.35,0.0,44.0,,,,,,,[],,,,,,56.4,1.0,i,1.0,True,803.5,49.0,60.0,40.0,False,,265.333496427232,[],"[768, 432]",ColorTask,26.0,36.0,,,HRV,HRV_0134,2022-11-30 18:26:17
,wl-rdm,44,175013,0.0-6.36-0.36,0.0,45.0,,,,,,,[],,,,,,56.4,1.0,i,1.0,True,554.0,34.0,60.0,40.0,False,,235.29202786507443,[],"[768, 432]",ColorTask,27.0,37.0,,,HRV,HRV_0134,2022-11-30 18:26:17
,wl-rdm,45,177112,0.0-6.37-0.37,0.0,46.0,,,,,,,[],,,,,,53.2,0.0,u,0.0,True,738.0,45.0,60.0,40.0,False,,269.31006098356335,[],"[768, 432]",ColorTask,28.0,38.0,,,HRV,HRV_0134,2022-11-30 18:26:17
,wl-rdm,46,179295,0.0-6.38-0.38,0.0,47.0,,,,,,,[],,,,,,50.0,0.0,u,0.0,True,844.4000000059605,51.0,60.0,40.0,False,,253.49024162532749,[],"[768, 432]",ColorTask,29.0,39.0,,,HRV,HRV_0134,2022-11-30 18:26:17
,wl-rdm,47,181328,0.0-6.39-0.39,0.0,48.0,,,,,,,[],,,,,,87.9,0.0,u,0.0,True,687.6000000238419,42.0,60.0,40.0,False,,273.1141890712887,[],"[768, 432]",ColorTask,30.0,40.0,,,HRV,HRV_0134,2022-11-30 18:26:17
,wl-rdm,48,183210,0.0-6.40-0.40,0.0,49.0,,,,,,,[],,,,,,53.2,1.0,u,0.0,False,571.0999999940395,35.0,60.0,40.0,False,,225.6670093895021,[],"[768, 432]",ColorTask,29.0,41.0,,,HRV,HRV_0134,2022-11-30 18:26:17
,wl-rdm,49,186443,0.0-6.41-0.41,0.0,50.0,,,,,,,[],,,,,,50.0,0.0,u,0.0,True,1839.8999999761581,111.0,60.0,40.0,False,,300.19844760520823,[],"[768, 432]",ColorTask,30.0,42.0,,,HRV,HRV_0134,2022-11-30 18:26:17
,wl-rdm,50,188642,0.0-6.42-0.42,0.0,51.0,,,,,,,[],,,,,,62.5,0.0,u,0.0,True,863.0,52.0,60.0,40.0,False,,266.0917181421006,[],"[768, 432]",ColorTask,31.0,43.0,,,HRV,HRV_0134,2022-11-30 18:26:17
,wl-rdm,51,191292,0.0-6.43-0.43,0.0,52.0,,,,,,,[],,,,,,62.5,0.0,u,0.0,True,1354.3999999761581,82.0,60.0,40.0,False,,211.23739799895836,[],"[768, 432]",ColorTask,32.0,44.0,,,HRV,HRV_0134,2022-11-30 18:26:17
,wl-rdm,52,193408,0.0-6.44-0.44,0.0,53.0,,,,,,,[],,,,,,87.9,0.0,u,0.0,True,771.2999999821186,47.0,60.0,40.0,False,,259.2667999888984,[],"[768, 432]",ColorTask,33.0,45.0,,,HRV,HRV_0134,2022-11-30 18:26:17
,wl-rdm,53,196623,0.0-6.45-0.45,0.0,54.0,,,,,,,[],,,,,,62.5,1.0,i,1.0,True,1804.0999999940395,109.0,60.0,40.0,False,,320.207025277694,[],"[768, 432]",ColorTask,34.0,46.0,,,HRV,HRV_0134,2022-11-30 18:26:17
,wl-rdm,54,198806,0.0-6.46-0.46,0.0,55.0,,,,,,,[],,,,,,56.4,0.0,u,0.0,True,821.4000000357628,50.0,60.0,40.0,False,,270.95290141545513,[],"[768, 432]",ColorTask,35.0,47.0,,,HRV,HRV_0134,2022-11-30 18:26:17
,wl-rdm,55,201421,0.0-6.47-0.47,0.0,56.0,,,,,,,[],,,,,,50.0,1.0,i,1.0,True,1258.5,76.0,60.0,40.0,False,,270.1946105516816,[],"[768, 432]",ColorTask,36.0,48.0,,,HRV,HRV_0134,2022-11-30 18:26:17
,wl-rdm,56,203387,0.0-6.48-0.48,0.0,57.0,,,,,,,[],,,,,,87.9,1.0,i,1.0,True,609.3999999761581,37.0,60.0,40.0,False,,278.5587502184476,[],"[768, 432]",ColorTask,37.0,49.0,,,HRV,HRV_0134,2022-11-30 18:26:17
,wl-rdm,57,205587,0.0-6.49-0.49,0.0,58.0,,,,,,,[],,,,,,87.9,0.0,u,0.0,True,760.0999999940395,46.0,60.0,40.0,False,,357.34138864070366,[],"[768, 432]",ColorTask,38.0,50.0,,,HRV,HRV_0134,2022-11-30 18:26:17
,wl-rdm,58,209485,0.0-6.50-0.50,0.0,59.0,,,,,,,[],,,,,,50.0,0.0,u,0.0,True,2613.4000000059605,157.0,60.0,40.0,False,,201.95876148554703,[],"[768, 432]",ColorTask,39.0,51.0,,,HRV,HRV_0134,2022-11-30 18:26:17
,wl-rdm,59,211468,0.0-6.51-0.51,0.0,60.0,,,,,,,[],,,,,,87.9,1.0,i,1.0,True,604.1000000238419,37.0,60.0,40.0,False,,293.78074044626885,[],"[768, 432]",ColorTask,40.0,52.0,,,HRV,HRV_0134,2022-11-30 18:26:17
,wl-rdm,60,213434,0.0-6.52-0.52,0.0,61.0,,,,,,,[],,,,,,87.9,1.0,i,1.0,True,581.9000000059605,35.0,60.0,40.0,False,,305.5652838596381,[],"[768, 432]",ColorTask,41.0,53.0,,,HRV,HRV_0134,2022-11-30 18:26:17
,wl-rdm,61,215467,0.0-6.53-0.53,0.0,62.0,,,,,,,[],,,,,,50.0,0.0,i,1.0,False,655.1999999880791,40.0,60.0,40.0,False,,293.7280172184018,[],"[768, 432]",ColorTask,40.0,54.0,,,HRV,HRV_0134,2022-11-30 18:26:17
,wl-rdm,62,217566,0.0-6.54-0.54,0.0,63.0,,,,,,,[],,,,,,73.6,0.0,u,0.0,True,770.9999999701977,47.0,60.0,40.0,False,,241.40960077929634,[],"[768, 432]",ColorTask,41.0,55.0,,,HRV,HRV_0134,2022-11-30 18:26:17
,wl-rdm,63,220049,0.0-6.55-0.55,0.0,64.0,,,,,,,[],,,,,,62.5,0.0,u,0.0,True,1165.0,70.0,60.0,40.0,False,,259.35560683975166,[],"[768, 432]",ColorTask,42.0,56.0,,,HRV,HRV_0134,2022-11-30 18:26:17
,wl-rdm,64,224364,0.0-6.56-0.56,0.0,64.0,,,,,,,[],,,,,,62.5,1.0,i,,,3272.7000000178814,179.0,60.0,40.0,True,RT_timeout ,200.32549151673686,[],"[768, 432]",ColorTask,41.0,57.0,,,HRV,HRV_0134,2022-11-30 18:26:17
,wl-rdm,65,226263,0.0-6.57-0.57,0.0,65.0,,,,,,,[],,,,,,73.6,1.0,i,1.0,True,588.1999999880791,36.0,60.0,40.0,False,,228.51234877846255,[],"[768, 432]",ColorTask,42.0,58.0,,,HRV,HRV_0134,2022-11-30 18:26:17
,wl-rdm,66,228812,0.0-6.58-0.58,0.0,66.0,,,,,,,[],,,,,,56.4,1.0,i,1.0,True,1081.5999999940395,65.0,60.0,40.0,False,,388.24835039423135,[],"[768, 432]",ColorTask,43.0,59.0,,,HRV,HRV_0134,2022-11-30 18:26:17
,wl-rdm,67,230728,0.0-6.59-0.59,0.0,67.0,,,,,,,[],,,,,,87.9,0.0,u,0.0,True,530.2000000178814,32.0,60.0,40.0,False,,330.5121371042682,[],"[768, 432]",ColorTask,44.0,60.0,,,HRV,HRV_0134,2022-11-30 18:26:17
,wl-rdm,68,232544,0.0-6.60-0.60,0.0,68.0,,,,,,,[],,,,,,87.9,0.0,u,0.0,True,528.8000000119209,32.0,60.0,40.0,False,,203.48767621247163,[],"[768, 432]",ColorTask,45.0,61.0,,,HRV,HRV_0134,2022-11-30 18:26:17
,wl-rdm,69,234527,0.0-6.61-0.61,0.0,69.0,,,,,,,[],,,,,,50.0,1.0,u,0.0,False,671.6999999880791,41.0,60.0,40.0,False,,224.67866705055982,[],"[768, 432]",ColorTask,44.0,62.0,,,HRV,HRV_0134,2022-11-30 18:26:17
,wl-rdm,70,236743,0.0-6.62-0.62,0.0,70.0,,,,,,,[],,,,,,56.4,0.0,u,0.0,True,897.2999999821186,54.0,60.0,40.0,False,,249.5814148900883,[],"[768, 432]",ColorTask,45.0,63.0,,,HRV,HRV_0134,2022-11-30 18:26:17
,wl-rdm,71,239059,0.0-6.63-0.63,0.0,71.0,,,,,,,[],,,,,,53.2,0.0,u,0.0,True,920.6999999880791,56.0,60.0,40.0,False,,303.5940645031223,[],"[768, 432]",ColorTask,46.0,64.0,,,HRV,HRV_0134,2022-11-30 18:26:17
,wl-rdm,72,241375,0.0-6.64-0.64,0.0,72.0,,,,,,,[],,,,,,62.5,1.0,i,1.0,True,1012.5000000298023,61.0,60.0,40.0,False,,224.44355770015008,[],"[768, 432]",ColorTask,47.0,65.0,,,HRV,HRV_0134,2022-11-30 18:26:17
,wl-rdm,73,243657,0.0-6.65-0.65,0.0,73.0,,,,,,,[],,,,,,62.5,0.0,u,0.0,True,874.6999999880791,53.0,60.0,40.0,False,,325.2516670282989,[],"[768, 432]",ColorTask,48.0,66.0,,,HRV,HRV_0134,2022-11-30 18:26:17
,wl-rdm,74,245857,0.0-6.66-0.66,0.0,74.0,,,,,,,[],,,,,,53.2,1.0,u,0.0,False,916.0,55.0,60.0,40.0,False,,213.37691365960296,[],"[768, 432]",ColorTask,47.0,67.0,,,HRV,HRV_0134,2022-11-30 18:26:17
,wl-rdm,75,248022,0.0-6.67-0.67,0.0,75.0,,,,,,,[],,,,,,73.6,0.0,u,0.0,True,711.7999999821186,43.0,60.0,40.0,False,,377.55056907456986,[],"[768, 432]",ColorTask,48.0,68.0,,,HRV,HRV_0134,2022-11-30 18:26:17
,wl-rdm,76,250005,0.0-6.68-0.68,0.0,76.0,,,,,,,[],,,,,,62.5,1.0,i,1.0,True,654.2999999821186,40.0,60.0,40.0,False,,245.37980728556386,[],"[768, 432]",ColorTask,49.0,69.0,,,HRV,HRV_0134,2022-11-30 18:26:17
,wl-rdm,77,252187,0.0-6.69-0.69,0.0,77.0,,,,,,,[],,,,,,87.9,1.0,i,1.0,True,705.1999999880791,43.0,60.0,40.0,False,,391.5285499606225,[],"[768, 432]",ColorTask,50.0,70.0,,,HRV,HRV_0134,2022-11-30 18:26:17
,wl-rdm,78,254120,0.0-6.70-0.70,0.0,78.0,,,,,,,[],,,,,,73.6,0.0,u,0.0,True,591.0,36.0,60.0,40.0,False,,263.77127446229264,[],"[768, 432]",ColorTask,51.0,71.0,,,HRV,HRV_0134,2022-11-30 18:26:17
,wl-rdm,79,256170,0.0-6.71-0.71,0.0,79.0,,,,,,,[],,,,,,56.4,1.0,i,1.0,True,587.5,36.0,60.0,40.0,False,,375.518098172504,[],"[768, 432]",ColorTask,52.0,72.0,,,HRV,HRV_0134,2022-11-30 18:26:17
,wl-rdm,80,258135,0.0-6.72-0.72,0.0,80.0,,,,,,,[],,,,,,62.5,0.0,u,0.0,True,637.6999999880791,39.0,60.0,40.0,False,,242.84605973917806,[],"[768, 432]",ColorTask,53.0,73.0,,,HRV,HRV_0134,2022-11-30 18:26:17
,wl-rdm,81,260218,0.0-6.73-0.73,0.0,81.0,,,,,,,[],,,,,,50.0,1.0,u,0.0,False,687.7000000178814,42.0,60.0,40.0,False,,305.93040906050254,[],"[768, 432]",ColorTask,52.0,74.0,,,HRV,HRV_0134,2022-11-30 18:26:17
,wl-rdm,82,262217,0.0-6.74-0.74,0.0,82.0,,,,,,,[],,,,,,62.5,1.0,i,1.0,True,621.6000000238419,38.0,60.0,40.0,False,,296.0887020877998,[],"[768, 432]",ColorTask,53.0,75.0,,,HRV,HRV_0134,2022-11-30 18:26:17
,wl-rdm,83,264183,0.0-6.75-0.75,0.0,83.0,,,,,,,[],,,,,,87.9,1.0,i,1.0,True,629.5,38.0,60.0,40.0,False,,250.239091088597,[],"[768, 432]",ColorTask,54.0,76.0,,,HRV,HRV_0134,2022-11-30 18:26:17
,wl-rdm,84,266166,0.0-6.76-0.76,0.0,84.0,,,,,,,[],,,,,,73.6,0.0,u,0.0,True,604.1999999880791,37.0,60.0,40.0,False,,284.2561128447581,[],"[768, 432]",ColorTask,55.0,77.0,,,HRV,HRV_0134,2022-11-30 18:26:17
,wl-rdm,85,268165,0.0-6.77-0.77,0.0,85.0,,,,,,,[],,,,,,73.6,1.0,i,1.0,True,656.1999999880791,40.0,60.0,40.0,False,,259.11174792884043,[],"[768, 432]",ColorTask,56.0,78.0,,,HRV,HRV_0134,2022-11-30 18:26:17
,wl-rdm,86,270248,0.0-6.78-0.78,0.0,86.0,,,,,,,[],,,,,,87.9,0.0,u,0.0,True,664.1999999880791,40.0,60.0,40.0,False,,345.7979845622609,[],"[768, 432]",ColorTask,57.0,79.0,,,HRV,HRV_0134,2022-11-30 18:26:17
,wl-rdm,87,272764,0.0-6.79-0.79,0.0,87.0,,,,,,,[],,,,,,56.4,1.0,i,1.0,True,1064.5999999940395,64.0,60.0,40.0,False,,375.7991839861897,[],"[768, 432]",ColorTask,58.0,80.0,,,HRV,HRV_0134,2022-11-30 18:26:17
,wl-rdm,88,274813,0.0-6.80-0.80,0.0,88.0,,,,,,,[],,,,,,56.4,0.0,u,0.0,True,762.7000000178814,46.0,60.0,40.0,False,,202.3628157823199,[],"[768, 432]",ColorTask,59.0,81.0,,,HRV,HRV_0134,2022-11-30 18:26:17
,wl-rdm,89,277162,0.0-6.81-0.81,0.0,89.0,,,,,,,[],,,,,,50.0,1.0,u,0.0,False,870.7999999821186,53.0,60.0,40.0,False,,388.5831043913565,[],"[768, 432]",ColorTask,58.0,82.0,,,HRV,HRV_0134,2022-11-30 18:26:17
,wl-rdm,90,279345,0.0-6.82-0.82,0.0,90.0,,,,,,,[],,,,,,56.4,0.0,i,1.0,False,845.5999999940395,51.0,60.0,40.0,False,,255.17060997907996,[],"[768, 432]",ColorTask,57.0,83.0,,,HRV,HRV_0134,2022-11-30 18:26:17
,wl-rdm,91,281628,0.0-6.83-0.83,0.0,91.0,,,,,,,[],,,,,,50.0,0.0,u,0.0,True,842.3000000119209,51.0,60.0,40.0,False,,362.47911689800156,[],"[768, 432]",ColorTask,58.0,84.0,,,HRV,HRV_0134,2022-11-30 18:26:17
,wl-rdm,92,283793,0.0-6.84-0.84,0.0,92.0,,,,,,,[],,,,,,50.0,1.0,u,0.0,False,812.5,49.0,60.0,40.0,False,,274.4875204185188,[],"[768, 432]",ColorTask,57.0,85.0,,,HRV,HRV_0134,2022-11-30 18:26:17
,wl-rdm,93,285776,0.0-6.85-0.85,0.0,93.0,,,,,,,[],,,,,,87.9,1.0,i,1.0,True,639.1000000238419,39.0,60.0,40.0,False,,250.61195883804226,[],"[768, 432]",ColorTask,58.0,86.0,,,HRV,HRV_0134,2022-11-30 18:26:17
,wl-rdm,94,287892,0.0-6.86-0.86,0.0,94.0,,,,,,,[],,,,,,73.6,0.0,u,0.0,True,687.6999999880791,42.0,60.0,40.0,False,,338.528276992314,[],"[768, 432]",ColorTask,59.0,87.0,,,HRV,HRV_0134,2022-11-30 18:26:17
,wl-rdm,95,290074,0.0-6.87-0.87,0.0,95.0,,,,,,,[],,,,,,62.5,0.0,u,0.0,True,857.1000000238419,52.0,60.0,40.0,False,,235.04660655530694,[],"[768, 432]",ColorTask,60.0,88.0,,,HRV,HRV_0134,2022-11-30 18:26:17
,wl-rdm,96,291957,0.0-6.88-0.88,0.0,96.0,,,,,,,[],,,,,,73.6,1.0,i,1.0,True,594.8000000119209,36.0,60.0,40.0,False,,209.1652158844459,[],"[768, 432]",ColorTask,61.0,89.0,,,HRV,HRV_0134,2022-11-30 18:26:17
,wl-rdm,97,293807,0.0-6.89-0.89,0.0,97.0,,,,,,,[],,,,,,87.9,0.0,u,0.0,True,562.9000000059605,34.0,60.0,40.0,False,,201.24188450913468,[],"[768, 432]",ColorTask,62.0,90.0,,,HRV,HRV_0134,2022-11-30 18:26:17
,wl-rdm,98,296006,0.0-6.90-0.90,0.0,98.0,,,,,,,[],,,,,,53.2,0.0,i,1.0,False,861.6999999880791,52.0,60.0,40.0,False,,264.85898045512994,[],"[768, 432]",ColorTask,61.0,91.0,,,HRV,HRV_0134,2022-11-30 18:26:17
,wl-rdm,99,298272,0.0-6.91-0.91,0.0,99.0,,,,,,,[],,,,,,62.5,1.0,u,0.0,False,980.8999999761581,59.0,60.0,40.0,False,,213.2360689434028,[],"[768, 432]",ColorTask,60.0,92.0,,,HRV,HRV_0134,2022-11-30 18:26:17
,wl-rdm,100,300488,0.0-6.92-0.92,0.0,100.0,,,,,,,[],,,,,,53.2,1.0,u,0.0,False,782.6999999880791,47.0,60.0,40.0,False,,365.9962897743848,[],"[768, 432]",ColorTask,59.0,93.0,,,HRV,HRV_0134,2022-11-30 18:26:17
,wl-rdm,101,302604,0.0-6.93-0.93,0.0,101.0,,,,,,,[],,,,,,53.2,1.0,u,0.0,False,746.0999999940395,45.0,60.0,40.0,False,,294.746467049872,[],"[768, 432]",ColorTask,58.0,94.0,,,HRV,HRV_0134,2022-11-30 18:26:17
,wl-rdm,102,304853,0.0-6.94-0.94,0.0,102.0,,,,,,,[],,,,,,50.0,1.0,u,0.0,False,828.4000000059605,50.0,60.0,40.0,False,,337.64128072066137,[],"[768, 432]",ColorTask,57.0,95.0,,,HRV,HRV_0134,2022-11-30 18:26:17
,wl-rdm,103,307069,0.0-6.95-0.95,0.0,103.0,,,,,,,[],,,,,,53.2,0.0,u,0.0,True,853.9000000059605,52.0,60.0,40.0,False,,278.19084031120383,[],"[768, 432]",ColorTask,58.0,96.0,,,HRV,HRV_0134,2022-11-30 18:26:17
,wl-rdm,104,309751,0.0-6.96-0.96,0.0,104.0,,,,,,,[],,,,,,50.0,0.0,u,0.0,True,1304.3000000417233,79.0,60.0,40.0,False,,291.6239022083,[],"[768, 432]",ColorTask,59.0,97.0,,,HRV,HRV_0134,2022-11-30 18:26:17
,wl-rdm,105,312184,0.0-6.97-0.97,0.0,105.0,,,,,,,[],,,,,,53.2,0.0,i,1.0,False,971.9000000059605,59.0,60.0,40.0,False,,372.94549501589756,[],"[768, 432]",ColorTask,58.0,98.0,,,HRV,HRV_0134,2022-11-30 18:26:17
,wl-rdm,106,314266,0.0-6.98-0.98,0.0,106.0,,,,,,,[],,,,,,56.4,0.0,u,0.0,True,794.5999999940395,48.0,60.0,40.0,False,,205.39882713880527,[],"[768, 432]",ColorTask,59.0,99.0,,,HRV,HRV_0134,2022-11-30 18:26:17
,wl-rdm,107,316432,0.0-6.99-0.99,0.0,107.0,,,,,,,[],,,,,,73.6,1.0,u,0.0,False,713.9000000059605,43.0,60.0,40.0,False,,373.6422646552613,[],"[768, 432]",ColorTask,58.0,100.0,,,HRV,HRV_0134,2022-11-30 18:26:17
,wl-rdm,108,318465,0.0-6.100-0.100,0.0,108.0,,,,,,,[],,,,,,53.2,1.0,u,0.0,False,640.6000000238419,39.0,60.0,40.0,False,,312.02048083622265,[],"[768, 432]",ColorTask,57.0,101.0,,,HRV,HRV_0134,2022-11-30 18:26:17
,wl-rdm,109,320514,0.0-6.101-0.101,0.0,109.0,,,,,,,[],,,,,,56.4,0.0,u,0.0,True,759.0,46.0,60.0,40.0,False,,204.18331220210501,[],"[768, 432]",ColorTask,58.0,102.0,,,HRV,HRV_0134,2022-11-30 18:26:17
,wl-rdm,110,322880,0.0-6.102-0.102,0.0,110.0,,,,,,,[],,,,,,62.5,0.0,u,0.0,True,904.5999999940395,55.0,60.0,40.0,False,,379.5629834426526,[],"[768, 432]",ColorTask,59.0,103.0,,,HRV,HRV_0134,2022-11-30 18:26:17
,wl-rdm,111,324879,0.0-6.103-0.103,0.0,111.0,,,,,,,[],,,,,,87.9,1.0,i,1.0,True,581.6999999880791,35.0,60.0,40.0,False,,349.17790081408873,[],"[768, 432]",ColorTask,60.0,104.0,,,HRV,HRV_0134,2022-11-30 18:26:17
,wl-rdm,112,327129,0.0-6.104-0.104,0.0,112.0,,,,,,,[],,,,,,62.5,0.0,u,0.0,True,920.6999999880791,56.0,60.0,40.0,False,,233.42784673819307,[],"[768, 432]",ColorTask,61.0,105.0,,,HRV,HRV_0134,2022-11-30 18:26:17
,wl-rdm,113,329461,0.0-6.105-0.105,0.0,113.0,,,,,,,[],,,,,,73.6,0.0,u,0.0,True,954.5,58.0,60.0,40.0,False,,293.8624671799448,[],"[768, 432]",ColorTask,62.0,106.0,,,HRV,HRV_0134,2022-11-30 18:26:17
,wl-rdm,114,331610,0.0-6.106-0.106,0.0,114.0,,,,,,,[],,,,,,87.9,1.0,i,1.0,True,680.5,41.0,60.0,40.0,False,,384.2676710358279,[],"[768, 432]",ColorTask,63.0,107.0,,,HRV,HRV_0134,2022-11-30 18:26:17
,wl-rdm,115,334126,0.0-6.107-0.107,0.0,115.0,,,,,,,[],,,,,,53.2,0.0,u,0.0,True,1074.9000000059605,65.0,60.0,40.0,False,,351.1869620432458,[],"[768, 432]",ColorTask,64.0,108.0,,,HRV,HRV_0134,2022-11-30 18:26:17
,wl-rdm,116,336659,0.0-6.108-0.108,0.0,116.0,,,,,,,[],,,,,,50.0,1.0,u,0.0,False,1074.9000000059605,65.0,60.0,40.0,False,,374.84540189990213,[],"[768, 432]",ColorTask,63.0,109.0,,,HRV,HRV_0134,2022-11-30 18:26:17
,wl-html-keyboard-response,117,351584,0.0-7.0-0.0,1.0,117.0,,,,,,,,12905.59999999404,1.0,0,,,,,,,,,,,,,,,,,,,,,,HRV,HRV_0134,2022-11-30 18:26:17
,wl-rdm,118,353686,0.0-8.0-0.0,1.0,118.0,,,,,,,[],,,,,,56.4,1.0,i,1.0,True,704.9000000059605,43.0,60.0,40.0,False,,328.14199022294895,[],"[768, 432]",ColorTask,64.0,1.0,,,HRV,HRV_0134,2022-11-30 18:26:17
,wl-rdm,119,355702,0.0-8.1-0.1,1.0,119.0,,,,,,,[],,,,,,87.9,0.0,u,0.0,True,637.5999999940395,39.0,60.0,40.0,False,,287.65663767042156,[],"[768, 432]",ColorTask,65.0,2.0,,,HRV,HRV_0134,2022-11-30 18:26:17
,wl-rdm,120,357902,0.0-8.2-0.2,1.0,120.0,,,,,,,[],,,,,,56.4,0.0,i,1.0,False,811.2999999821186,49.0,60.0,40.0,False,,306.30879247190495,[],"[768, 432]",ColorTask,64.0,3.0,,,HRV,HRV_0134,2022-11-30 18:26:17
,wl-rdm,121,360418,0.0-8.3-0.3,1.0,121.0,,,,,,,[],,,,,,50.0,1.0,i,1.0,True,1093.2999999821186,66.0,60.0,40.0,False,,338.05529727104266,[],"[768, 432]",ColorTask,65.0,4.0,,,HRV,HRV_0134,2022-11-30 18:26:17
,wl-rdm,122,362833,0.0-8.4-0.4,1.0,122.0,,,,,,,[],,,,,,50.0,1.0,i,1.0,True,1064.5,64.0,60.0,40.0,False,,267.18837678569895,[],"[768, 432]",ColorTask,66.0,5.0,,,HRV,HRV_0134,2022-11-30 18:26:17
,wl-rdm,123,365316,0.0-8.5-0.5,1.0,123.0,,,,,,,[],,,,,,53.2,0.0,u,0.0,True,1189.0,72.0,60.0,40.0,False,,201.7224278137139,[],"[768, 432]",ColorTask,67.0,6.0,,,HRV,HRV_0134,2022-11-30 18:26:17
,wl-rdm,124,367548,0.0-8.6-0.6,1.0,124.0,,,,,,,[],,,,,,50.0,0.0,i,1.0,False,882.3000000119209,53.0,60.0,40.0,False,,283.0405989047514,[],"[768, 432]",ColorTask,66.0,7.0,,,HRV,HRV_0134,2022-11-30 18:26:17
,wl-rdm,125,370265,0.0-8.7-0.7,1.0,125.0,,,,,,,[],,,,,,62.5,1.0,i,1.0,True,1254.5,76.0,60.0,40.0,False,,378.98590159706976,[],"[768, 432]",ColorTask,67.0,8.0,,,HRV,HRV_0134,2022-11-30 18:26:17
,wl-rdm,126,372264,0.0-8.8-0.8,1.0,126.0,,,,,,,[],,,,,,73.6,0.0,u,0.0,True,687.3999999761581,42.0,60.0,40.0,False,,223.9763464673568,[],"[768, 432]",ColorTask,68.0,9.0,,,HRV,HRV_0134,2022-11-30 18:26:17
,wl-rdm,127,374263,0.0-8.9-0.9,1.0,127.0,,,,,,,[],,,,,,73.6,0.0,u,0.0,True,674.5,41.0,60.0,40.0,False,,236.35980080856916,[],"[768, 432]",ColorTask,69.0,10.0,,,HRV,HRV_0134,2022-11-30 18:26:17
,wl-rdm,128,376362,0.0-8.10-0.10,1.0,128.0,,,,,,,[],,,,,,50.0,0.0,u,0.0,True,813.5,49.0,60.0,40.0,False,,210.48098786721687,[],"[768, 432]",ColorTask,70.0,11.0,,,HRV,HRV_0134,2022-11-30 18:26:17
,wl-rdm,129,378462,0.0-8.11-0.11,1.0,129.0,,,,,,,[],,,,,,56.4,1.0,i,1.0,True,761.3000000119209,46.0,60.0,40.0,False,,259.4351818046096,[],"[768, 432]",ColorTask,71.0,12.0,,,HRV,HRV_0134,2022-11-30 18:26:17
,wl-rdm,130,380877,0.0-8.12-0.12,1.0,130.0,,,,,,,[],,,,,,62.5,0.0,u,0.0,True,989.1000000238419,60.0,60.0,40.0,False,,336.4077601817646,[],"[768, 432]",ColorTask,72.0,13.0,,,HRV,HRV_0134,2022-11-30 18:26:17
,wl-rdm,131,383543,0.0-8.13-0.13,1.0,131.0,,,,,,,[],,,,,,56.4,1.0,u,0.0,False,1220.9000000059605,74.0,60.0,40.0,False,,357.51867275008,[],"[768, 432]",ColorTask,71.0,14.0,,,HRV,HRV_0134,2022-11-30 18:26:17
,wl-rdm,132,385692,0.0-8.14-0.14,1.0,132.0,,,,,,,[],,,,,,50.0,1.0,u,0.0,False,760.0,46.0,60.0,40.0,False,,302.57723989368617,[],"[768, 432]",ColorTask,70.0,15.0,,,HRV,HRV_0134,2022-11-30 18:26:17
,wl-rdm,133,387592,0.0-8.15-0.15,1.0,133.0,,,,,,,[],,,,,,87.9,1.0,i,1.0,True,614.4000000059605,37.0,60.0,40.0,False,,207.04217204640238,[],"[768, 432]",ColorTask,71.0,16.0,,,HRV,HRV_0134,2022-11-30 18:26:17
,wl-rdm,134,389508,0.0-8.16-0.16,1.0,134.0,,,,,,,[],,,,,,73.6,1.0,i,1.0,True,470.89999997615814,29.0,60.0,40.0,False,,354.58518925327803,[],"[768, 432]",ColorTask,72.0,17.0,,,HRV,HRV_0134,2022-11-30 18:26:17
,wl-rdm,135,391824,0.0-8.17-0.17,1.0,135.0,,,,,,,[],,,,,,50.0,1.0,u,0.0,False,1019.9999999701977,62.0,60.0,40.0,False,,202.93002979513668,[],"[768, 432]",ColorTask,71.0,18.0,,,HRV,HRV_0134,2022-11-30 18:26:17
,wl-rdm,136,393940,0.0-8.18-0.18,1.0,136.0,,,,,,,[],,,,,,53.2,1.0,u,0.0,False,787.4000000357628,48.0,60.0,40.0,False,,247.11682795535552,[],"[768, 432]",ColorTask,70.0,19.0,,,HRV,HRV_0134,2022-11-30 18:26:17
,wl-rdm,137,396256,0.0-8.19-0.19,1.0,137.0,,,,,,,[],,,,,,50.0,1.0,i,1.0,True,994.5999999940395,60.0,60.0,40.0,False,,242.7989144350911,[],"[768, 432]",ColorTask,71.0,20.0,,,HRV,HRV_0134,2022-11-30 18:26:17
,wl-rdm,138,398605,0.0-8.20-0.20,1.0,138.0,,,,,,,[],,,,,,62.5,0.0,i,1.0,False,1009.0999999940395,61.0,60.0,40.0,False,,262.0099873702695,[],"[768, 432]",ColorTask,70.0,21.0,,,HRV,HRV_0134,2022-11-30 18:26:17
,wl-rdm,139,400671,0.0-8.21-0.21,1.0,139.0,,,,,,,[],,,,,,56.4,0.0,u,0.0,True,755.7999999821186,46.0,60.0,40.0,False,,226.44568404484795,[],"[768, 432]",ColorTask,71.0,22.0,,,HRV,HRV_0134,2022-11-30 18:26:17
,wl-rdm,140,402603,0.0-8.22-0.22,1.0,140.0,,,,,,,[],,,,,,73.6,1.0,i,1.0,True,621.0999999940395,38.0,60.0,40.0,False,,231.78093534145256,[],"[768, 432]",ColorTask,72.0,23.0,,,HRV,HRV_0134,2022-11-30 18:26:17
,wl-rdm,141,404919,0.0-8.23-0.23,1.0,141.0,,,,,,,[],,,,,,73.6,1.0,i,1.0,True,859.0,52.0,60.0,40.0,False,,379.6918198754915,[],"[768, 432]",ColorTask,73.0,24.0,,,HRV,HRV_0134,2022-11-30 18:26:17
,wl-rdm,142,407385,0.0-8.24-0.24,1.0,142.0,,,,,,,[],,,,,,73.6,1.0,i,1.0,True,1109.5999999940395,67.0,60.0,40.0,False,,275.17667827728724,[],"[768, 432]",ColorTask,74.0,25.0,,,HRV,HRV_0134,2022-11-30 18:26:17
,wl-rdm,143,409501,0.0-8.25-0.25,1.0,143.0,,,,,,,[],,,,,,62.5,1.0,i,1.0,True,721.5999999940395,44.0,60.0,40.0,False,,300.5229510467469,[],"[768, 432]",ColorTask,75.0,26.0,,,HRV,HRV_0134,2022-11-30 18:26:17
,wl-rdm,144,411801,0.0-8.26-0.26,1.0,144.0,,,,,,,[],,,,,,62.5,1.0,i,1.0,True,898.7999999821186,54.0,60.0,40.0,False,,338.3802751560783,[],"[768, 432]",ColorTask,76.0,27.0,,,HRV,HRV_0134,2022-11-30 18:26:17
,wl-rdm,145,413716,0.0-8.27-0.27,1.0,145.0,,,,,,,[],,,,,,87.9,1.0,i,1.0,True,580.5999999940395,35.0,60.0,40.0,False,,259.80142243405436,[],"[768, 432]",ColorTask,77.0,28.0,,,HRV,HRV_0134,2022-11-30 18:26:17
,wl-rdm,146,415866,0.0-8.28-0.28,1.0,146.0,,,,,,,[],,,,,,62.5,0.0,u,0.0,True,788.7999999821186,48.0,60.0,40.0,False,,279.32074615262866,[],"[768, 432]",ColorTask,78.0,29.0,,,HRV,HRV_0134,2022-11-30 18:26:17
,wl-rdm,147,417782,0.0-8.29-0.29,1.0,147.0,,,,,,,[],,,,,,87.9,1.0,i,1.0,True,557.8000000119209,34.0,60.0,40.0,False,,273.6327609755695,[],"[768, 432]",ColorTask,79.0,30.0,,,HRV,HRV_0134,2022-11-30 18:26:17
,wl-rdm,148,420115,0.0-8.30-0.30,1.0,148.0,,,,,,,[],,,,,,53.2,1.0,u,0.0,False,936.3999999761581,57.0,60.0,40.0,False,,316.0409623032043,[],"[768, 432]",ColorTask,78.0,31.0,,,HRV,HRV_0134,2022-11-30 18:26:17
,wl-rdm,149,422180,0.0-8.31-0.31,1.0,149.0,,,,,,,[],,,,,,56.4,0.0,u,0.0,True,725.7000000178814,44.0,60.0,40.0,False,,250.53784982723764,[],"[768, 432]",ColorTask,79.0,32.0,,,HRV,HRV_0134,2022-11-30 18:26:17
,wl-rdm,150,423980,0.0-8.32-0.32,1.0,150.0,,,,,,,[],,,,,,87.9,0.0,u,0.0,True,494.0,30.0,60.0,40.0,False,,217.932469855762,[],"[768, 432]",ColorTask,80.0,33.0,,,HRV,HRV_0134,2022-11-30 18:26:17
,wl-rdm,151,425962,0.0-8.33-0.33,1.0,151.0,,,,,,,[],,,,,,53.2,0.0,u,0.0,True,679.1000000238419,41.0,60.0,40.0,False,,219.52562547717156,[],"[768, 432]",ColorTask,81.0,34.0,,,HRV,HRV_0134,2022-11-30 18:26:17
,wl-rdm,152,428378,0.0-8.34-0.34,1.0,152.0,,,,,,,[],,,,,,50.0,0.0,i,1.0,False,1010.2000000178814,61.0,60.0,40.0,False,,348.34807584742555,[],"[768, 432]",ColorTask,80.0,35.0,,,HRV,HRV_0134,2022-11-30 18:26:17
,wl-rdm,153,430544,0.0-8.35-0.35,1.0,153.0,,,,,,,[],,,,,,73.6,0.0,u,0.0,True,787.1999999880791,48.0,60.0,40.0,False,,294.8033171102576,[],"[768, 432]",ColorTask,81.0,36.0,,,HRV,HRV_0134,2022-11-30 18:26:17
,wl-rdm,154,432527,0.0-8.36-0.36,1.0,154.0,,,,,,,[],,,,,,56.4,1.0,u,0.0,False,677.3999999761581,41.0,60.0,40.0,False,,217.49730524127662,[],"[768, 432]",ColorTask,80.0,37.0,,,HRV,HRV_0134,2022-11-30 18:26:17
,wl-rdm,155,434360,0.0-8.37-0.37,1.0,155.0,,,,,,,[],,,,,,87.9,0.0,u,0.0,True,476.59999999403954,29.0,60.0,40.0,False,,271.50596175390734,[],"[768, 432]",ColorTask,81.0,38.0,,,HRV,HRV_0134,2022-11-30 18:26:17
,wl-rdm,156,436492,0.0-8.38-0.38,1.0,156.0,,,,,,,[],,,,,,56.4,0.0,u,0.0,True,848.5999999940395,51.0,60.0,40.0,False,,203.2014713363985,[],"[768, 432]",ColorTask,82.0,39.0,,,HRV,HRV_0134,2022-11-30 18:26:17
,wl-rdm,157,438508,0.0-8.39-0.39,1.0,157.0,,,,,,,[],,,,,,87.9,1.0,i,1.0,True,587.1999999880791,36.0,60.0,40.0,False,,342.0468823517345,[],"[768, 432]",ColorTask,83.0,40.0,,,HRV,HRV_0134,2022-11-30 18:26:17
,wl-rdm,158,440724,0.0-8.40-0.40,1.0,158.0,,,,,,,[],,,,,,53.2,0.0,u,0.0,True,887.4000000059605,54.0,60.0,40.0,False,,237.9492367325879,[],"[768, 432]",ColorTask,84.0,41.0,,,HRV,HRV_0134,2022-11-30 18:26:17
,wl-rdm,159,442757,0.0-8.41-0.41,1.0,159.0,,,,,,,[],,,,,,73.6,0.0,u,0.0,True,627.4000000357628,38.0,60.0,40.0,False,,329.59359917689216,[],"[768, 432]",ColorTask,85.0,42.0,,,HRV,HRV_0134,2022-11-30 18:26:17
,wl-rdm,160,444690,0.0-8.42-0.42,1.0,160.0,,,,,,,[],,,,,,87.9,0.0,u,0.0,True,604.3000000119209,37.0,60.0,40.0,False,,248.4932440843254,[],"[768, 432]",ColorTask,86.0,43.0,,,HRV,HRV_0134,2022-11-30 18:26:17
,wl-rdm,161,446805,0.0-8.43-0.43,1.0,161.0,,,,,,,[],,,,,,53.2,0.0,u,0.0,True,754.1999999880791,46.0,60.0,40.0,False,,270.9562251387707,[],"[768, 432]",ColorTask,87.0,44.0,,,HRV,HRV_0134,2022-11-30 18:26:17
,wl-rdm,162,449138,0.0-8.44-0.44,1.0,162.0,,,,,,,[],,,,,,56.4,1.0,i,1.0,True,1054.0999999940395,64.0,60.0,40.0,False,,201.32492544360923,[],"[768, 432]",ColorTask,88.0,45.0,,,HRV,HRV_0134,2022-11-30 18:26:17
,wl-rdm,163,451154,0.0-8.45-0.45,1.0,163.0,,,,,,,[],,,,,,53.2,0.0,i,1.0,False,654.8999999761581,40.0,60.0,40.0,False,,272.1556665505884,[],"[768, 432]",ColorTask,87.0,46.0,,,HRV,HRV_0134,2022-11-30 18:26:17
,wl-rdm,164,453070,0.0-8.46-0.46,1.0,164.0,,,,,,,[],,,,,,56.4,1.0,i,1.0,True,591.8000000119209,36.0,60.0,40.0,False,,239.47939419064534,[],"[768, 432]",ColorTask,88.0,47.0,,,HRV,HRV_0134,2022-11-30 18:26:17
,wl-rdm,165,455269,0.0-8.47-0.47,1.0,165.0,,,,,,,[],,,,,,53.2,1.0,i,1.0,True,825.2000000178814,50.0,60.0,40.0,False,,292.1511250890759,[],"[768, 432]",ColorTask,89.0,48.0,,,HRV,HRV_0134,2022-11-30 18:26:17
,wl-rdm,166,457485,0.0-8.48-0.48,1.0,166.0,,,,,,,[],,,,,,50.0,0.0,i,1.0,False,795.8999999761581,48.0,60.0,40.0,False,,349.4389891754921,[],"[768, 432]",ColorTask,88.0,49.0,,,HRV,HRV_0134,2022-11-30 18:26:17
,wl-rdm,167,459385,0.0-8.49-0.49,1.0,167.0,,,,,,,[],,,,,,53.2,1.0,i,1.0,True,599.2000000476837,36.0,60.0,40.0,False,,222.3916234193114,[],"[768, 432]",ColorTask,89.0,50.0,,,HRV,HRV_0134,2022-11-30 18:26:17
,wl-rdm,168,461450,0.0-8.50-0.50,1.0,168.0,,,,,,,[],,,,,,87.9,0.0,u,0.0,True,687.8000000119209,42.0,60.0,40.0,False,,291.65090313488054,[],"[768, 432]",ColorTask,90.0,51.0,,,HRV,HRV_0134,2022-11-30 18:26:17
,wl-rdm,169,463517,0.0-8.51-0.51,1.0,169.0,,,,,,,[],,,,,,56.4,1.0,i,1.0,True,587.0,36.0,60.0,40.0,False,,395.2225822093357,[],"[768, 432]",ColorTask,91.0,52.0,,,HRV,HRV_0134,2022-11-30 18:26:17
,wl-rdm,170,465916,0.0-8.52-0.52,1.0,170.0,,,,,,,[],,,,,,50.0,0.0,i,1.0,False,1031.199999988079,62.0,60.0,40.0,False,,294.8781682679322,[],"[768, 432]",ColorTask,90.0,53.0,,,HRV,HRV_0134,2022-11-30 18:26:17
,wl-rdm,171,467965,0.0-8.53-0.53,1.0,171.0,,,,,,,[],,,,,,87.9,1.0,u,0.0,False,631.7000000178814,38.0,60.0,40.0,False,,341.63122421625144,[],"[768, 432]",ColorTask,89.0,54.0,,,HRV,HRV_0134,2022-11-30 18:26:17
,wl-rdm,172,470664,0.0-8.54-0.54,1.0,172.0,,,,,,,[],,,,,,53.2,1.0,u,0.0,False,1313.2000000178814,79.0,60.0,40.0,False,,307.7891342343991,[],"[768, 432]",ColorTask,88.0,55.0,,,HRV,HRV_0134,2022-11-30 18:26:17
,wl-rdm,173,473080,0.0-8.55-0.55,1.0,173.0,,,,,,,[],,,,,,53.2,1.0,u,0.0,False,976.8999999761581,59.0,60.0,40.0,False,,349.6700926258525,[],"[768, 432]",ColorTask,87.0,56.0,,,HRV,HRV_0134,2022-11-30 18:26:17
,wl-rdm,174,475146,0.0-8.56-0.56,1.0,174.0,,,,,,,[],,,,,,73.6,1.0,i,1.0,True,630.4999999701977,38.0,60.0,40.0,False,,359.66441558810607,[],"[768, 432]",ColorTask,88.0,57.0,,,HRV,HRV_0134,2022-11-30 18:26:17
,wl-rdm,175,477645,0.0-8.57-0.57,1.0,175.0,,,,,,,[],,,,,,53.2,1.0,u,0.0,False,1054.0999999940395,64.0,60.0,40.0,False,,362.61776614451475,[],"[768, 432]",ColorTask,87.0,58.0,,,HRV,HRV_0134,2022-11-30 18:26:17
,wl-rdm,176,479861,0.0-8.58-0.58,1.0,176.0,,,,,,,[],,,,,,73.6,1.0,i,1.0,True,890.5,54.0,60.0,40.0,False,,237.89444691556247,[],"[768, 432]",ColorTask,88.0,59.0,,,HRV,HRV_0134,2022-11-30 18:26:17
,wl-rdm,177,481710,0.0-8.59-0.59,1.0,177.0,,,,,,,[],,,,,,87.9,1.0,i,1.0,True,511.90000000596046,31.0,60.0,40.0,False,,259.25960017791186,[],"[768, 432]",ColorTask,89.0,60.0,,,HRV,HRV_0134,2022-11-30 18:26:17
,wl-rdm,178,483843,0.0-8.60-0.60,1.0,178.0,,,,,,,[],,,,,,56.4,0.0,u,0.0,True,804.5,49.0,60.0,40.0,False,,258.3342547451308,[],"[768, 432]",ColorTask,90.0,61.0,,,HRV,HRV_0134,2022-11-30 18:26:17
,wl-rdm,179,485909,0.0-8.61-0.61,1.0,179.0,,,,,,,[],,,,,,87.9,0.0,u,0.0,True,688.2000000178814,42.0,60.0,40.0,False,,287.45182334824864,[],"[768, 432]",ColorTask,91.0,62.0,,,HRV,HRV_0134,2022-11-30 18:26:17
,wl-rdm,180,488292,0.0-8.62-0.62,1.0,180.0,,,,,,,[],,,,,,62.5,1.0,i,1.0,True,920.6999999880791,56.0,60.0,40.0,False,,372.67853703367257,[],"[768, 432]",ColorTask,92.0,63.0,,,HRV,HRV_0134,2022-11-30 18:26:17
,wl-rdm,181,490124,0.0-8.63-0.63,1.0,181.0,,,,,,,[],,,,,,62.5,1.0,i,1.0,True,530.7999999821186,32.0,60.0,40.0,False,,225.9286053103086,[],"[768, 432]",ColorTask,93.0,64.0,,,HRV,HRV_0134,2022-11-30 18:26:17
,wl-rdm,182,492490,0.0-8.64-0.64,1.0,182.0,,,,,,,[],,,,,,56.4,0.0,u,0.0,True,1071.199999988079,65.0,60.0,40.0,False,,200.01407633454284,[],"[768, 432]",ColorTask,94.0,65.0,,,HRV,HRV_0134,2022-11-30 18:26:17
,wl-rdm,183,494656,0.0-8.65-0.65,1.0,183.0,,,,,,,[],,,,,,53.2,0.0,i,1.0,False,872.3999999761581,53.0,60.0,40.0,False,,211.33132685605685,[],"[768, 432]",ColorTask,93.0,66.0,,,HRV,HRV_0134,2022-11-30 18:26:17
,wl-rdm,184,496956,0.0-8.66-0.66,1.0,184.0,,,,,,,[],,,,,,53.2,0.0,u,0.0,True,899.5,54.0,60.0,40.0,False,,321.7802370828769,[],"[768, 432]",ColorTask,94.0,67.0,,,HRV,HRV_0134,2022-11-30 18:26:17
,wl-rdm,185,499071,0.0-8.67-0.67,1.0,185.0,,,,,,,[],,,,,,62.5,0.0,u,0.0,True,816.2999999821186,49.0,60.0,40.0,False,,224.65145680432013,[],"[768, 432]",ColorTask,95.0,68.0,,,HRV,HRV_0134,2022-11-30 18:26:17
,wl-rdm,186,501671,0.0-8.68-0.68,1.0,186.0,,,,,,,[],,,,,,73.6,0.0,u,0.0,True,1153.8000000417233,70.0,60.0,40.0,False,,357.55842913245704,[],"[768, 432]",ColorTask,96.0,69.0,,,HRV,HRV_0134,2022-11-30 18:26:17
,wl-rdm,187,503803,0.0-8.69-0.69,1.0,187.0,,,,,,,[],,,,,,73.6,0.0,u,0.0,True,659.7999999821186,40.0,60.0,40.0,False,,391.0029856127669,[],"[768, 432]",ColorTask,97.0,70.0,,,HRV,HRV_0134,2022-11-30 18:26:17
,wl-rdm,188,505869,0.0-8.70-0.70,1.0,188.0,,,,,,,[],,,,,,62.5,1.0,u,0.0,False,762.0999999940395,46.0,60.0,40.0,False,,224.94638729717522,[],"[768, 432]",ColorTask,96.0,71.0,,,HRV,HRV_0134,2022-11-30 18:26:17
,wl-rdm,189,507968,0.0-8.71-0.71,1.0,189.0,,,,,,,[],,,,,,73.6,1.0,i,1.0,True,754.6000000238419,46.0,60.0,40.0,False,,259.30236110036725,[],"[768, 432]",ColorTask,97.0,72.0,,,HRV,HRV_0134,2022-11-30 18:26:17
,wl-rdm,190,509851,0.0-8.72-0.72,1.0,190.0,,,,,,,[],,,,,,62.5,1.0,i,1.0,True,546.1999999880791,33.0,60.0,40.0,False,,255.68257553576285,[],"[768, 432]",ColorTask,98.0,73.0,,,HRV,HRV_0134,2022-11-30 18:26:17
,wl-rdm,191,512200,0.0-8.73-0.73,1.0,191.0,,,,,,,[],,,,,,73.6,0.0,u,0.0,True,887.7999999821186,54.0,60.0,40.0,False,,373.0441783883133,[],"[768, 432]",ColorTask,99.0,74.0,,,HRV,HRV_0134,2022-11-30 18:26:17
,wl-rdm,192,514616,0.0-8.74-0.74,1.0,192.0,,,,,,,[],,,,,,62.5,0.0,u,0.0,True,1037.2000000178814,63.0,60.0,40.0,False,,294.1888080041458,[],"[768, 432]",ColorTask,100.0,75.0,,,HRV,HRV_0134,2022-11-30 18:26:17
,wl-rdm,193,516615,0.0-8.75-0.75,1.0,193.0,,,,,,,[],,,,,,87.9,0.0,u,0.0,True,544.2000000178814,33.0,60.0,40.0,False,,374.83552475349865,[],"[768, 432]",ColorTask,101.0,76.0,,,HRV,HRV_0134,2022-11-30 18:26:17
,wl-rdm,194,518915,0.0-8.76-0.76,1.0,194.0,,,,,,,[],,,,,,50.0,1.0,u,0.0,False,910.9000000059605,55.0,60.0,40.0,False,,305.23638345376133,[],"[768, 432]",ColorTask,100.0,77.0,,,HRV,HRV_0134,2022-11-30 18:26:17
,wl-rdm,195,521397,0.0-8.77-0.77,1.0,195.0,,,,,,,[],,,,,,56.4,0.0,u,0.0,True,1049.4000000059605,63.0,60.0,40.0,False,,350.6921257941704,[],"[768, 432]",ColorTask,101.0,78.0,,,HRV,HRV_0134,2022-11-30 18:26:17
,wl-rdm,196,524030,0.0-8.78-0.78,1.0,196.0,,,,,,,[],,,,,,62.5,0.0,i,1.0,False,1324.7999999821186,80.0,60.0,40.0,False,,220.13401916057416,[],"[768, 432]",ColorTask,100.0,79.0,,,HRV,HRV_0134,2022-11-30 18:26:17
,wl-rdm,197,525946,0.0-8.79-0.79,1.0,197.0,,,,,,,[],,,,,,50.0,1.0,u,0.0,False,607.7000000178814,37.0,60.0,40.0,False,,225.8215018990152,[],"[768, 432]",ColorTask,99.0,80.0,,,HRV,HRV_0134,2022-11-30 18:26:17
,wl-rdm,198,528045,0.0-8.80-0.80,1.0,198.0,,,,,,,[],,,,,,73.6,1.0,i,1.0,True,761.2000000178814,46.0,60.0,40.0,False,,252.56208220318135,[],"[768, 432]",ColorTask,100.0,81.0,,,HRV,HRV_0134,2022-11-30 18:26:17
,wl-rdm,199,529978,0.0-8.81-0.81,1.0,199.0,,,,,,,[],,,,,,53.2,0.0,i,1.0,False,591.2999999821186,36.0,60.0,40.0,False,,255.3316349063358,[],"[768, 432]",ColorTask,99.0,82.0,,,HRV,HRV_0134,2022-11-30 18:26:17
,wl-rdm,200,532310,0.0-8.82-0.82,1.0,200.0,,,,,,,[],,,,,,53.2,0.0,u,0.0,True,937.5,57.0,60.0,40.0,False,,304.7572426009817,[],"[768, 432]",ColorTask,100.0,83.0,,,HRV,HRV_0134,2022-11-30 18:26:17
,wl-rdm,201,534476,0.0-8.83-0.83,1.0,201.0,,,,,,,[],,,,,,50.0,0.0,u,0.0,True,777.4000000059605,47.0,60.0,40.0,False,,314.8876693577837,[],"[768, 432]",ColorTask,101.0,84.0,,,HRV,HRV_0134,2022-11-30 18:26:17
,wl-rdm,202,536376,0.0-8.84-0.84,1.0,202.0,,,,,,,[],,,,,,87.9,1.0,i,1.0,True,569.9000000059605,35.0,60.0,40.0,False,,247.81359869891722,[],"[768, 432]",ColorTask,102.0,85.0,,,HRV,HRV_0134,2022-11-30 18:26:17
,wl-rdm,203,538358,0.0-8.85-0.85,1.0,203.0,,,,,,,[],,,,,,87.9,0.0,u,0.0,True,554.3000000119209,34.0,60.0,40.0,False,,334.07509906983347,[],"[768, 432]",ColorTask,103.0,86.0,,,HRV,HRV_0134,2022-11-30 18:26:17
,wl-rdm,204,540458,0.0-8.86-0.86,1.0,204.0,,,,,,,[],,,,,,56.4,1.0,i,1.0,True,631.5,38.0,60.0,40.0,False,,386.69284286603323,[],"[768, 432]",ColorTask,104.0,87.0,,,HRV,HRV_0134,2022-11-30 18:26:17
,wl-rdm,205,542440,0.0-8.87-0.87,1.0,205.0,,,,,,,[],,,,,,50.0,0.0,i,1.0,False,646.0,39.0,60.0,40.0,False,,255.62862223570508,[],"[768, 432]",ColorTask,103.0,88.0,,,HRV,HRV_0134,2022-11-30 18:26:17
,wl-rdm,206,544440,0.0-8.88-0.88,1.0,206.0,,,,,,,[],,,,,,62.5,1.0,i,1.0,True,712.0,43.0,60.0,40.0,False,,208.20108101728212,[],"[768, 432]",ColorTask,104.0,89.0,,,HRV,HRV_0134,2022-11-30 18:26:17
,wl-rdm,207,546689,0.0-8.89-0.89,1.0,207.0,,,,,,,[],,,,,,50.0,0.0,u,0.0,True,960.0,58.0,60.0,40.0,False,,201.24158122013395,[],"[768, 432]",ColorTask,105.0,90.0,,,HRV,HRV_0134,2022-11-30 18:26:17
,wl-rdm,208,549038,0.0-8.90-0.90,1.0,208.0,,,,,,,[],,,,,,56.4,0.0,u,0.0,True,921.3000000119209,56.0,60.0,40.0,False,,341.2834239634114,[],"[768, 432]",ColorTask,106.0,91.0,,,HRV,HRV_0134,2022-11-30 18:26:17
,wl-rdm,209,550987,0.0-8.91-0.91,1.0,209.0,,,,,,,[],,,,,,73.6,0.0,u,0.0,True,624.4000000059605,38.0,60.0,40.0,False,,246.25552552333843,[],"[768, 432]",ColorTask,107.0,92.0,,,HRV,HRV_0134,2022-11-30 18:26:17
,wl-rdm,210,553187,0.0-8.92-0.92,1.0,210.0,,,,,,,[],,,,,,50.0,1.0,i,1.0,True,860.5,52.0,60.0,40.0,False,,259.29463038272144,[],"[768, 432]",ColorTask,108.0,93.0,,,HRV,HRV_0134,2022-11-30 18:26:17
,wl-rdm,211,555169,0.0-8.93-0.93,1.0,211.0,,,,,,,[],,,,,,87.9,0.0,u,0.0,True,609.4000000059605,37.0,60.0,40.0,False,,284.099697915869,[],"[768, 432]",ColorTask,109.0,94.0,,,HRV,HRV_0134,2022-11-30 18:26:17
,wl-rdm,212,557502,0.0-8.94-0.94,1.0,212.0,,,,,,,[],,,,,,62.5,0.0,i,1.0,False,979.1999999880791,59.0,60.0,40.0,False,,273.8213133091633,[],"[768, 432]",ColorTask,108.0,95.0,,,HRV,HRV_0134,2022-11-30 18:26:17
,wl-rdm,213,560051,0.0-8.95-0.95,1.0,213.0,,,,,,,[],,,,,,53.2,1.0,i,1.0,True,1090.5,66.0,60.0,40.0,False,,399.4471159971617,[],"[768, 432]",ColorTask,109.0,96.0,,,HRV,HRV_0134,2022-11-30 18:26:17
,wl-rdm,214,561917,0.0-8.96-0.96,1.0,214.0,,,,,,,[],,,,,,73.6,0.0,u,0.0,True,554.5,34.0,60.0,40.0,False,,226.72961399761135,[],"[768, 432]",ColorTask,110.0,97.0,,,HRV,HRV_0134,2022-11-30 18:26:17
,wl-rdm,215,563816,0.0-8.97-0.97,1.0,215.0,,,,,,,[],,,,,,56.4,1.0,i,1.0,True,560.3000000119209,34.0,60.0,40.0,False,,250.9505245705595,[],"[768, 432]",ColorTask,111.0,98.0,,,HRV,HRV_0134,2022-11-30 18:26:17
,wl-rdm,216,565899,0.0-8.98-0.98,1.0,216.0,,,,,,,[],,,,,,62.5,0.0,i,1.0,False,676.9000000059605,41.0,60.0,40.0,False,,321.81309050987267,[],"[768, 432]",ColorTask,110.0,99.0,,,HRV,HRV_0134,2022-11-30 18:26:17
,wl-rdm,217,567915,0.0-8.99-0.99,1.0,217.0,,,,,,,[],,,,,,50.0,1.0,i,1.0,True,677.6999999880791,41.0,60.0,40.0,False,,262.8362344283283,[],"[768, 432]",ColorTask,111.0,100.0,,,HRV,HRV_0134,2022-11-30 18:26:17
,wl-rdm,218,570181,0.0-8.100-0.100,1.0,218.0,,,,,,,[],,,,,,62.5,0.0,i,1.0,False,826.0999999940395,50.0,60.0,40.0,False,,350.9629323629092,[],"[768, 432]",ColorTask,110.0,101.0,,,HRV,HRV_0134,2022-11-30 18:26:17
,wl-rdm,219,572130,0.0-8.101-0.101,1.0,219.0,,,,,,,[],,,,,,62.5,1.0,i,1.0,True,637.5,39.0,60.0,40.0,False,,246.72295721856213,[],"[768, 432]",ColorTask,111.0,102.0,,,HRV,HRV_0134,2022-11-30 18:26:17
,wl-rdm,220,574096,0.0-8.102-0.102,1.0,220.0,,,,,,,[],,,,,,73.6,1.0,i,1.0,True,673.1999999880791,41.0,60.0,40.0,False,,205.86114837341415,[],"[768, 432]",ColorTask,112.0,103.0,,,HRV,HRV_0134,2022-11-30 18:26:17
,wl-rdm,221,575979,0.0-8.103-0.103,1.0,221.0,,,,,,,[],,,,,,87.9,1.0,i,1.0,True,545.4000000059605,33.0,60.0,40.0,False,,254.69150622993996,[],"[768, 432]",ColorTask,113.0,104.0,,,HRV,HRV_0134,2022-11-30 18:26:17
,wl-rdm,222,578461,0.0-8.104-0.104,1.0,222.0,,,,,,,[],,,,,,53.2,1.0,i,1.0,True,1073.1000000238419,65.0,60.0,40.0,False,,326.96649538106817,[],"[768, 432]",ColorTask,114.0,105.0,,,HRV,HRV_0134,2022-11-30 18:26:17
,wl-rdm,223,580777,0.0-8.105-0.105,1.0,223.0,,,,,,,[],,,,,,56.4,0.0,u,0.0,True,907.3000000417233,55.0,60.0,40.0,False,,328.35260105888415,[],"[768, 432]",ColorTask,115.0,106.0,,,HRV,HRV_0134,2022-11-30 18:26:17
,wl-rdm,224,582810,0.0-8.106-0.106,1.0,224.0,,,,,,,[],,,,,,87.9,1.0,i,1.0,True,643.0,39.0,60.0,40.0,False,,309.13627227767336,[],"[768, 432]",ColorTask,116.0,107.0,,,HRV,HRV_0134,2022-11-30 18:26:17
,wl-rdm,225,585009,0.0-8.107-0.107,1.0,225.0,,,,,,,[],,,,,,50.0,0.0,i,1.0,False,854.2000000178814,52.0,60.0,40.0,False,,260.1926933335614,[],"[768, 432]",ColorTask,115.0,108.0,,,HRV,HRV_0134,2022-11-30 18:26:17
,wl-html-button-response,226,590323,0.0-9.0-0.0,,,,,,,,,,5307.4000000059605,,0,,,,,,,,,,,,,,,,,,,,<h3>End of this session. Thank you!</h3><br>,['Close window'],HRV,HRV_0134,2022-11-30 18:26:17
