trialN,stimuli,trialStartTime,trialStartTime_UNIX,stimulus1,stimulus2,stimulus1Bid,stimulus2Bid,delta,selected,rt,rt_UNIX,rt_perfnow,receivedResponse,rsp,trialEndTime,trialDuration,trialEndTime_UNIX,trialDuration_UNIX,exp,subjectId,date
0,"[{'imgObject': {}, 'id': 'eggs', 'src': '/static/foodstim60/eggs.jpg', 'key': 'u', 'origWidth': 409, 'origHeight': 409, 'width': 409, 'height': 409, 'widthPercent': 0.45, 'rescaleHeight': False, 'trialN': 0, 'loaded': True, 'loadedTime': 4000, 'positionName': 'LEFT', 'positionCoords': [328.28, 227.5], 'bid': 6.3100000000000005}, {'imgObject': {}, 'id': 'bagel and cc', 'src': '/static/foodstim60/bagel and cc.jpg', 'key': 'i', 'origWidth': 410, 'origHeight': 410, 'width': 410, 'height': 410, 'widthPercent': 0.45, 'rescaleHeight': False, 'trialN': 0, 'loaded': True, 'loadedTime': 4003, 'positionName': 'RIGHT', 'positionCoords': [798.72, 227], 'bid': 7.05}]",4601,1669830792022,eggs,bagel and cc,6.3100000000000005,7.05,0.7399999999999993,eggs,1286,1302,1302,True,u,6420,1819,1669830793841,1819,HRV,HRV_0134,2022-11-30 17:59:36
1,"[{'imgObject': {}, 'id': 'hashbrowns', 'src': '/static/foodstim60/hashbrowns.jpg', 'key': 'u', 'origWidth': 411, 'origHeight': 410, 'width': 411, 'height': 410, 'widthPercent': 0.45, 'rescaleHeight': False, 'trialN': 1, 'loaded': True, 'loadedTime': 4009, 'positionName': 'LEFT', 'positionCoords': [326.28, 227], 'bid': 2.36}, {'imgObject': {}, 'id': 'blackbeanswithrice', 'src': '/static/foodstim60/blackbeanswithrice.jpg', 'key': 'i', 'origWidth': 410, 'origHeight': 410, 'width': 410, 'height': 410, 'widthPercent': 0.45, 'rescaleHeight': False, 'trialN': 1, 'loaded': True, 'loadedTime': 4019, 'positionName': 'RIGHT', 'positionCoords': [798.72, 227], 'bid': 2.72}]",6420,1669830793841,hashbrowns,blackbeanswithrice,2.36,2.72,0.3600000000000003,blackbeanswithrice,1170,1185,1185,True,i,8120,1700,1669830795540,1699,HRV,HRV_0134,2022-11-30 17:59:36
2,"[{'imgObject': {}, 'id': 'baked potato', 'src': '/static/foodstim60/baked potato.jpg', 'key': 'u', 'origWidth': 409, 'origHeight': 410, 'width': 409, 'height': 410, 'widthPercent': 0.45, 'rescaleHeight': False, 'trialN': 2, 'loaded': True, 'loadedTime': 4027, 'positionName': 'LEFT', 'positionCoords': [328.28, 227], 'bid': 3.5500000000000003}, {'imgObject': {}, 'id': 'strawberries', 'src': '/static/foodstim60/strawberries.jpg', 'key': 'i', 'origWidth': 410, 'origHeight': 410, 'width': 410, 'height': 410, 'widthPercent': 0.45, 'rescaleHeight': False, 'trialN': 2, 'loaded': True, 'loadedTime': 4036, 'positionName': 'RIGHT', 'positionCoords': [798.72, 227], 'bid': 5.0200000000000005}]",8121,1669830795541,baked potato,strawberries,3.5500000000000003,5.0200000000000005,1.4700000000000002,strawberries,1266,1274,1273,True,i,9910,1789,1669830797330,1789,HRV,HRV_0134,2022-11-30 17:59:36
3,"[{'imgObject': {}, 'id': 'pear', 'src': '/static/foodstim60/pear.jpg', 'key': 'u', 'origWidth': 411, 'origHeight': 410, 'width': 411, 'height': 410, 'widthPercent': 0.45, 'rescaleHeight': False, 'trialN': 3, 'loaded': True, 'loadedTime': 4045, 'positionName': 'LEFT', 'positionCoords': [326.28, 227], 'bid': 2}, {'imgObject': {}, 'id': 'banana', 'src': '/static/foodstim60/banana.jpg', 'key': 'i', 'origWidth': 410, 'origHeight': 410, 'width': 410, 'height': 410, 'widthPercent': 0.45, 'rescaleHeight': False, 'trialN': 3, 'loaded': True, 'loadedTime': 4057, 'positionName': 'RIGHT', 'positionCoords': [798.72, 227], 'bid': 0.66}]",9910,1669830797332,pear,banana,2.0,0.66,-1.3399999999999999,pear,960,977,979,True,u,11390,1480,1669830798810,1478,HRV,HRV_0134,2022-11-30 17:59:36
4,"[{'imgObject': {}, 'id': 'Tribe humus pita', 'src': '/static/foodstim60/Tribe humus pita.jpg', 'key': 'u', 'origWidth': 411, 'origHeight': 411, 'width': 411, 'height': 411, 'widthPercent': 0.45, 'rescaleHeight': False, 'trialN': 4, 'loaded': True, 'loadedTime': 4063, 'positionName': 'LEFT', 'positionCoords': [326.28, 226.5], 'bid': 8.99}, {'imgObject': {}, 'id': 'salad w chicken', 'src': '/static/foodstim60/salad w chicken.jpg', 'key': 'i', 'origWidth': 411, 'origHeight': 411, 'width': 411, 'height': 411, 'widthPercent': 0.45, 'rescaleHeight': False, 'trialN': 4, 'loaded': True, 'loadedTime': 4073, 'positionName': 'RIGHT', 'positionCoords': [798.72, 226.5], 'bid': 9.76}]",11391,1669830798811,Tribe humus pita,salad w chicken,8.99,9.76,0.7699999999999996,salad w chicken,1324,1331,1331,True,i,13230,1839,1669830800651,1840,HRV,HRV_0134,2022-11-30 17:59:36
5,"[{'imgObject': {}, 'id': 'baked potato', 'src': '/static/foodstim60/baked potato.jpg', 'key': 'u', 'origWidth': 409, 'origHeight': 410, 'width': 409, 'height': 410, 'widthPercent': 0.45, 'rescaleHeight': False, 'trialN': 5, 'loaded': True, 'loadedTime': 4035, 'positionName': 'LEFT', 'positionCoords': [328.28, 227], 'bid': 3.5500000000000003}, {'imgObject': {}, 'id': 'cocktailshrimp', 'src': '/static/foodstim60/cocktailshrimp.jpg', 'key': 'i', 'origWidth': 410, 'origHeight': 410, 'width': 410, 'height': 410, 'widthPercent': 0.45, 'rescaleHeight': False, 'trialN': 5, 'loaded': True, 'loadedTime': 4080, 'positionName': 'RIGHT', 'positionCoords': [798.72, 227], 'bid': 3.47}]",13231,1669830800652,baked potato,cocktailshrimp,3.5500000000000003,3.47,-0.08000000000000007,cocktailshrimp,1187,1192,1193,True,i,14930,1699,1669830802351,1699,HRV,HRV_0134,2022-11-30 17:59:36
6,"[{'imgObject': {}, 'id': 'lox', 'src': '/static/foodstim60/lox.jpg', 'key': 'u', 'origWidth': 410, 'origHeight': 411, 'width': 410, 'height': 411, 'widthPercent': 0.45, 'rescaleHeight': False, 'trialN': 6, 'loaded': True, 'loadedTime': 4089, 'positionName': 'LEFT', 'positionCoords': [327.28, 226.5], 'bid': 1.87}, {'imgObject': {}, 'id': 'omelette', 'src': '/static/foodstim60/omelette.jpg', 'key': 'i', 'origWidth': 410, 'origHeight': 409, 'width': 410, 'height': 409, 'widthPercent': 0.45, 'rescaleHeight': False, 'trialN': 6, 'loaded': True, 'loadedTime': 4097, 'positionName': 'RIGHT', 'positionCoords': [798.72, 227.5], 'bid': 7.47}]",14931,1669830802351,lox,omelette,1.87,7.47,5.6,omelette,1019,1031,1031,True,i,16468,1537,1669830803888,1537,HRV,HRV_0134,2022-11-30 17:59:36
7,"[{'imgObject': {}, 'id': 'apple slices', 'src': '/static/foodstim60/apple slices.jpg', 'key': 'u', 'origWidth': 409, 'origHeight': 410, 'width': 409, 'height': 410, 'widthPercent': 0.45, 'rescaleHeight': False, 'trialN': 7, 'loaded': True, 'loadedTime': 4104, 'positionName': 'LEFT', 'positionCoords': [328.28, 227], 'bid': 9.6}, {'imgObject': {}, 'id': 'raisin bran w milk', 'src': '/static/foodstim60/raisin bran w milk.jpg', 'key': 'i', 'origWidth': 411, 'origHeight': 411, 'width': 411, 'height': 411, 'widthPercent': 0.45, 'rescaleHeight': False, 'trialN': 7, 'loaded': True, 'loadedTime': 4124, 'positionName': 'RIGHT', 'positionCoords': [798.72, 226.5], 'bid': 5.03}]",16468,1669830803888,apple slices,raisin bran w milk,9.6,5.03,-4.569999999999999,apple slices,1247,1271,1271,True,u,18250,1782,1669830805670,1782,HRV,HRV_0134,2022-11-30 17:59:36
8,"[{'imgObject': {}, 'id': 'sushi w_condiments', 'src': '/static/foodstim60/sushi w_condiments.jpg', 'key': 'u', 'origWidth': 410, 'origHeight': 410, 'width': 410, 'height': 410, 'widthPercent': 0.45, 'rescaleHeight': False, 'trialN': 8, 'loaded': True, 'loadedTime': 4135, 'positionName': 'LEFT', 'positionCoords': [327.28, 227], 'bid': 9.76}, {'imgObject': {}, 'id': 'olives', 'src': '/static/foodstim60/olives.jpg', 'key': 'i', 'origWidth': 410, 'origHeight': 410, 'width': 410, 'height': 410, 'widthPercent': 0.45, 'rescaleHeight': False, 'trialN': 8, 'loaded': True, 'loadedTime': 4147, 'positionName': 'RIGHT', 'positionCoords': [798.72, 227], 'bid': 9.01}]",18250,1669830805671,sushi w_condiments,olives,9.76,9.01,-0.75,sushi w_condiments,887,901,902,True,u,19670,1420,1669830807090,1419,HRV,HRV_0134,2022-11-30 17:59:36
9,"[{'imgObject': {}, 'id': 'olives', 'src': '/static/foodstim60/olives.jpg', 'key': 'u', 'origWidth': 410, 'origHeight': 410, 'width': 410, 'height': 410, 'widthPercent': 0.45, 'rescaleHeight': False, 'trialN': 9, 'loaded': True, 'loadedTime': 4160, 'positionName': 'LEFT', 'positionCoords': [327.28, 227], 'bid': 9.01}, {'imgObject': {}, 'id': 'salmon', 'src': '/static/foodstim60/salmon.jpg', 'key': 'i', 'origWidth': 410, 'origHeight': 409, 'width': 410, 'height': 409, 'widthPercent': 0.45, 'rescaleHeight': False, 'trialN': 9, 'loaded': True, 'loadedTime': 4163, 'positionName': 'RIGHT', 'positionCoords': [798.72, 227.5], 'bid': 9.59}]",19670,1669830807091,olives,salmon,9.01,9.59,0.5800000000000001,salmon,826,841,842,True,i,21030,1360,1669830808451,1360,HRV,HRV_0134,2022-11-30 17:59:36
10,"[{'imgObject': {}, 'id': 'banana', 'src': '/static/foodstim60/banana.jpg', 'key': 'u', 'origWidth': 410, 'origHeight': 410, 'width': 410, 'height': 410, 'widthPercent': 0.45, 'rescaleHeight': False, 'trialN': 10, 'loaded': True, 'loadedTime': 4063, 'positionName': 'LEFT', 'positionCoords': [327.28, 227], 'bid': 0.66}, {'imgObject': {}, 'id': 'fruitsalad', 'src': '/static/foodstim60/fruitsalad.jpg', 'key': 'i', 'origWidth': 410, 'origHeight': 410, 'width': 410, 'height': 410, 'widthPercent': 0.45, 'rescaleHeight': False, 'trialN': 10, 'loaded': True, 'loadedTime': 4217, 'positionName': 'RIGHT', 'positionCoords': [798.72, 227], 'bid': 2.89}]",21030,1669830808451,banana,fruitsalad,0.66,2.89,2.23,fruitsalad,1075,1095,1095,True,i,22630,1600,1669830810051,1600,HRV,HRV_0134,2022-11-30 17:59:36
11,"[{'imgObject': {}, 'id': 'turkeysandwich', 'src': '/static/foodstim60/turkeysandwich.jpg', 'key': 'u', 'origWidth': 409, 'origHeight': 409, 'width': 409, 'height': 409, 'widthPercent': 0.45, 'rescaleHeight': False, 'trialN': 11, 'loaded': True, 'loadedTime': 4244, 'positionName': 'LEFT', 'positionCoords': [328.28, 227.5], 'bid': 7.57}, {'imgObject': {}, 'id': 'pear', 'src': '/static/foodstim60/pear.jpg', 'key': 'i', 'origWidth': 411, 'origHeight': 410, 'width': 411, 'height': 410, 'widthPercent': 0.45, 'rescaleHeight': False, 'trialN': 11, 'loaded': True, 'loadedTime': 4057, 'positionName': 'RIGHT', 'positionCoords': [798.72, 227], 'bid': 2}]",22631,1669830810051,turkeysandwich,pear,7.57,2.0,-5.57,turkeysandwich,1256,1278,1278,True,u,24411,1780,1669830811831,1780,HRV,HRV_0134,2022-11-30 17:59:36
12,"[{'imgObject': {}, 'id': 'roastedpotatoes', 'src': '/static/foodstim60/roastedpotatoes.jpg', 'key': 'u', 'origWidth': 409, 'origHeight': 410, 'width': 409, 'height': 410, 'widthPercent': 0.45, 'rescaleHeight': False, 'trialN': 12, 'loaded': True, 'loadedTime': 4251, 'positionName': 'LEFT', 'positionCoords': [328.28, 227], 'bid': 9.1}, {'imgObject': {}, 'id': 'orange slices', 'src': '/static/foodstim60/orange slices.jpg', 'key': 'i', 'origWidth': 409, 'origHeight': 410, 'width': 409, 'height': 410, 'widthPercent': 0.45, 'rescaleHeight': False, 'trialN': 12, 'loaded': True, 'loadedTime': 4263, 'positionName': 'RIGHT', 'positionCoords': [798.72, 227], 'bid': 4.08}]",24411,1669830811831,roastedpotatoes,orange slices,9.1,4.08,-5.02,roastedpotatoes,1007,1028,1028,True,u,25950,1539,1669830813371,1540,HRV,HRV_0134,2022-11-30 17:59:36
13,"[{'imgObject': {}, 'id': 'tacos', 'src': '/static/foodstim60/tacos.jpg', 'key': 'u', 'origWidth': 411, 'origHeight': 411, 'width': 411, 'height': 411, 'widthPercent': 0.45, 'rescaleHeight': False, 'trialN': 13, 'loaded': True, 'loadedTime': 4267, 'positionName': 'LEFT', 'positionCoords': [326.28, 226.5], 'bid': 9.28}, {'imgObject': {}, 'id': 'turkey sandwich', 'src': '/static/foodstim60/turkey sandwich.jpg', 'key': 'i', 'origWidth': 409, 'origHeight': 409, 'width': 409, 'height': 409, 'widthPercent': 0.45, 'rescaleHeight': False, 'trialN': 13, 'loaded': True, 'loadedTime': 4275, 'positionName': 'RIGHT', 'positionCoords': [798.72, 227.5], 'bid': 9.25}]",25950,1669830813371,tacos,turkey sandwich,9.28,9.25,-0.02999999999999936,turkey sandwich,1359,1372,1372,True,i,27830,1880,1669830815250,1879,HRV,HRV_0134,2022-11-30 17:59:36
14,"[{'imgObject': {}, 'id': 'corn cob', 'src': '/static/foodstim60/corn cob.jpg', 'key': 'u', 'origWidth': 411, 'origHeight': 411, 'width': 411, 'height': 411, 'widthPercent': 0.45, 'rescaleHeight': False, 'trialN': 14, 'loaded': True, 'loadedTime': 4284, 'positionName': 'LEFT', 'positionCoords': [326.28, 226.5], 'bid': 0.15}, {'imgObject': {}, 'id': 'chicken nuggets2', 'src': '/static/foodstim60/chicken nuggets2.jpg', 'key': 'i', 'origWidth': 410, 'origHeight': 409, 'width': 410, 'height': 409, 'widthPercent': 0.45, 'rescaleHeight': False, 'trialN': 14, 'loaded': True, 'loadedTime': 4289, 'positionName': 'RIGHT', 'positionCoords': [798.72, 227.5], 'bid': 0.23}]",27830,1669830815251,corn cob,chicken nuggets2,0.15,0.23,0.08000000000000002,corn cob,916,936,937,True,u,29270,1440,1669830816691,1440,HRV,HRV_0134,2022-11-30 17:59:36
15,"[{'imgObject': {}, 'id': 'blackbeanswithrice', 'src': '/static/foodstim60/blackbeanswithrice.jpg', 'key': 'u', 'origWidth': 410, 'origHeight': 410, 'width': 410, 'height': 410, 'widthPercent': 0.45, 'rescaleHeight': False, 'trialN': 15, 'loaded': True, 'loadedTime': 4026, 'positionName': 'LEFT', 'positionCoords': [327.28, 227], 'bid': 2.72}, {'imgObject': {}, 'id': 'mac & cheese', 'src': '/static/foodstim60/mac & cheese.jpg', 'key': 'i', 'origWidth': 410, 'origHeight': 410, 'width': 410, 'height': 410, 'widthPercent': 0.45, 'rescaleHeight': False, 'trialN': 15, 'loaded': True, 'loadedTime': 4298, 'positionName': 'RIGHT', 'positionCoords': [798.72, 227], 'bid': 8.35}]",29271,1669830816691,blackbeanswithrice,mac & cheese,2.72,8.35,5.629999999999999,mac & cheese,1788,1805,1805,True,i,31588,2317,1669830819008,2317,HRV,HRV_0134,2022-11-30 17:59:36
16,"[{'imgObject': {}, 'id': 'Tribe humus pita', 'src': '/static/foodstim60/Tribe humus pita.jpg', 'key': 'u', 'origWidth': 411, 'origHeight': 411, 'width': 411, 'height': 411, 'widthPercent': 0.45, 'rescaleHeight': False, 'trialN': 16, 'loaded': True, 'loadedTime': 4073, 'positionName': 'LEFT', 'positionCoords': [326.28, 226.5], 'bid': 8.99}, {'imgObject': {}, 'id': 'sweetpotato', 'src': '/static/foodstim60/sweetpotato.jpg', 'key': 'i', 'origWidth': 410, 'origHeight': 410, 'width': 410, 'height': 410, 'widthPercent': 0.45, 'rescaleHeight': False, 'trialN': 16, 'loaded': True, 'loadedTime': 4304, 'positionName': 'RIGHT', 'positionCoords': [798.72, 227], 'bid': 8.55}]",31588,1669830819008,Tribe humus pita,sweetpotato,8.99,8.55,-0.4399999999999995,Tribe humus pita,1190,1197,1197,True,u,33290,1702,1669830820711,1703,HRV,HRV_0134,2022-11-30 17:59:36
17,"[{'imgObject': {}, 'id': 'cherry tomato', 'src': '/static/foodstim60/cherry tomato.jpg', 'key': 'u', 'origWidth': 410, 'origHeight': 410, 'width': 410, 'height': 410, 'widthPercent': 0.45, 'rescaleHeight': False, 'trialN': 17, 'loaded': True, 'loadedTime': 4315, 'positionName': 'LEFT', 'positionCoords': [327.28, 227], 'bid': 1.83}, {'imgObject': {}, 'id': 'mango', 'src': '/static/foodstim60/mango.jpg', 'key': 'i', 'origWidth': 411, 'origHeight': 411, 'width': 411, 'height': 411, 'widthPercent': 0.45, 'rescaleHeight': False, 'trialN': 17, 'loaded': True, 'loadedTime': 4326, 'positionName': 'RIGHT', 'positionCoords': [798.72, 226.5], 'bid': 0.16}]",33290,1669830820711,cherry tomato,mango,1.83,0.16,-1.6700000000000002,cherry tomato,1238,1243,1243,True,u,35050,1760,1669830822470,1759,HRV,HRV_0134,2022-11-30 17:59:36
18,"[{'imgObject': {}, 'id': 'sushi w_condiments', 'src': '/static/foodstim60/sushi w_condiments.jpg', 'key': 'u', 'origWidth': 410, 'origHeight': 410, 'width': 410, 'height': 410, 'widthPercent': 0.45, 'rescaleHeight': False, 'trialN': 18, 'loaded': True, 'loadedTime': 4146, 'positionName': 'LEFT', 'positionCoords': [327.28, 227], 'bid': 9.76}, {'imgObject': {}, 'id': 'mac & cheese', 'src': '/static/foodstim60/mac & cheese.jpg', 'key': 'i', 'origWidth': 410, 'origHeight': 410, 'width': 410, 'height': 410, 'widthPercent': 0.45, 'rescaleHeight': False, 'trialN': 18, 'loaded': True, 'loadedTime': 4303, 'positionName': 'RIGHT', 'positionCoords': [798.72, 227], 'bid': 8.35}]",35050,1669830822470,sushi w_condiments,mac & cheese,9.76,8.35,-1.4100000000000001,sushi w_condiments,1368,1378,1377,True,u,36930,1880,1669830824351,1881,HRV,HRV_0134,2022-11-30 17:59:36
19,"[{'imgObject': {}, 'id': 'rigatoni and sauce', 'src': '/static/foodstim60/rigatoni and sauce.jpg', 'key': 'u', 'origWidth': 410, 'origHeight': 411, 'width': 410, 'height': 411, 'widthPercent': 0.45, 'rescaleHeight': False, 'trialN': 19, 'loaded': True, 'loadedTime': 4336, 'positionName': 'LEFT', 'positionCoords': [327.28, 226.5], 'bid': 9.51}, {'imgObject': {}, 'id': 'salmon', 'src': '/static/foodstim60/salmon.jpg', 'key': 'i', 'origWidth': 410, 'origHeight': 409, 'width': 410, 'height': 409, 'widthPercent': 0.45, 'rescaleHeight': False, 'trialN': 19, 'loaded': True, 'loadedTime': 4216, 'positionName': 'RIGHT', 'positionCoords': [798.72, 227.5], 'bid': 9.59}]",36930,1669830824351,rigatoni and sauce,salmon,9.51,9.59,0.08000000000000007,salmon,957,975,976,True,i,38411,1481,1669830825831,1480,HRV,HRV_0134,2022-11-30 17:59:36
20,"[{'imgObject': {}, 'id': 'apple slices', 'src': '/static/foodstim60/apple slices.jpg', 'key': 'u', 'origWidth': 409, 'origHeight': 410, 'width': 409, 'height': 410, 'widthPercent': 0.45, 'rescaleHeight': False, 'trialN': 20, 'loaded': True, 'loadedTime': 4124, 'positionName': 'LEFT', 'positionCoords': [328.28, 227], 'bid': 9.6}, {'imgObject': {}, 'id': 'sweetpotato', 'src': '/static/foodstim60/sweetpotato.jpg', 'key': 'i', 'origWidth': 410, 'origHeight': 410, 'width': 410, 'height': 410, 'widthPercent': 0.45, 'rescaleHeight': False, 'trialN': 20, 'loaded': True, 'loadedTime': 4314, 'positionName': 'RIGHT', 'positionCoords': [798.72, 227], 'bid': 8.55}]",38411,1669830825831,apple slices,sweetpotato,9.6,8.55,-1.049999999999999,sweetpotato,1116,1123,1123,True,i,40050,1639,1669830827470,1639,HRV,HRV_0134,2022-11-30 17:59:36
21,"[{'imgObject': {}, 'id': 'cantaloupe', 'src': '/static/foodstim60/cantaloupe.jpg', 'key': 'u', 'origWidth': 409, 'origHeight': 409, 'width': 409, 'height': 409, 'widthPercent': 0.45, 'rescaleHeight': False, 'trialN': 21, 'loaded': True, 'loadedTime': 4344, 'positionName': 'LEFT', 'positionCoords': [328.28, 227.5], 'bid': 7.1000000000000005}, {'imgObject': {}, 'id': 'turkey sandwich', 'src': '/static/foodstim60/turkey sandwich.jpg', 'key': 'i', 'origWidth': 409, 'origHeight': 409, 'width': 409, 'height': 409, 'widthPercent': 0.45, 'rescaleHeight': False, 'trialN': 21, 'loaded': True, 'loadedTime': 4284, 'positionName': 'RIGHT', 'positionCoords': [798.72, 227.5], 'bid': 9.25}]",40051,1669830827471,cantaloupe,turkey sandwich,7.1000000000000005,9.25,2.1499999999999995,turkey sandwich,1399,1409,1409,True,i,41960,1909,1669830829380,1909,HRV,HRV_0134,2022-11-30 17:59:36
22,"[{'imgObject': {}, 'id': 'olives', 'src': '/static/foodstim60/olives.jpg', 'key': 'u', 'origWidth': 410, 'origHeight': 410, 'width': 410, 'height': 410, 'widthPercent': 0.45, 'rescaleHeight': False, 'trialN': 22, 'loaded': True, 'loadedTime': 4160, 'positionName': 'LEFT', 'positionCoords': [327.28, 227], 'bid': 9.01}, {'imgObject': {}, 'id': 'bagel plain', 'src': '/static/foodstim60/bagel plain.jpg', 'key': 'i', 'origWidth': 410, 'origHeight': 410, 'width': 410, 'height': 410, 'widthPercent': 0.45, 'rescaleHeight': False, 'trialN': 22, 'loaded': True, 'loadedTime': 4352, 'positionName': 'RIGHT', 'positionCoords': [798.72, 227], 'bid': 6.45}]",41960,1669830829380,olives,bagel plain,9.01,6.45,-2.5599999999999996,bagel plain,1224,1240,1239,True,i,43700,1740,1669830831121,1741,HRV,HRV_0134,2022-11-30 17:59:36
23,"[{'imgObject': {}, 'id': 'seaweed', 'src': '/static/foodstim60/seaweed.jpg', 'key': 'u', 'origWidth': 410, 'origHeight': 410, 'width': 410, 'height': 410, 'widthPercent': 0.45, 'rescaleHeight': False, 'trialN': 23, 'loaded': True, 'loadedTime': 4361, 'positionName': 'LEFT', 'positionCoords': [327.28, 227], 'bid': 2.95}, {'imgObject': {}, 'id': 'blackbeanswithrice', 'src': '/static/foodstim60/blackbeanswithrice.jpg', 'key': 'i', 'origWidth': 410, 'origHeight': 410, 'width': 410, 'height': 410, 'widthPercent': 0.45, 'rescaleHeight': False, 'trialN': 23, 'loaded': True, 'loadedTime': 4026, 'positionName': 'RIGHT', 'positionCoords': [798.72, 227], 'bid': 2.72}]",43700,1669830831121,seaweed,blackbeanswithrice,2.95,2.72,-0.22999999999999998,blackbeanswithrice,1453,1467,1468,True,i,45680,1980,1669830833101,1980,HRV,HRV_0134,2022-11-30 17:59:36
24,"[{'imgObject': {}, 'id': 'hotdog w must', 'src': '/static/foodstim60/hotdog w must.jpg', 'key': 'u', 'origWidth': 409, 'origHeight': 409, 'width': 409, 'height': 409, 'widthPercent': 0.45, 'rescaleHeight': False, 'trialN': 24, 'loaded': True, 'loadedTime': 4376, 'positionName': 'LEFT', 'positionCoords': [328.28, 227.5], 'bid': 7.52}, {'imgObject': {}, 'id': 'rigatoni', 'src': '/static/foodstim60/rigatoni.jpg', 'key': 'i', 'origWidth': 411, 'origHeight': 411, 'width': 411, 'height': 411, 'widthPercent': 0.45, 'rescaleHeight': False, 'trialN': 24, 'loaded': True, 'loadedTime': 4389, 'positionName': 'RIGHT', 'positionCoords': [798.72, 226.5], 'bid': 7.35}]",45680,1669830833101,hotdog w must,rigatoni,7.52,7.35,-0.16999999999999993,hotdog w must,1473,1481,1482,True,u,47680,2000,1669830835101,2000,HRV,HRV_0134,2022-11-30 17:59:36
25,"[{'imgObject': {}, 'id': 'veggieswithdip', 'src': '/static/foodstim60/veggieswithdip.jpg', 'key': 'u', 'origWidth': 409, 'origHeight': 409, 'width': 409, 'height': 409, 'widthPercent': 0.45, 'rescaleHeight': False, 'trialN': 25, 'loaded': True, 'loadedTime': 4397, 'positionName': 'LEFT', 'positionCoords': [328.28, 227.5], 'bid': 6.1000000000000005}, {'imgObject': {}, 'id': 'raspberries', 'src': '/static/foodstim60/raspberries.jpg', 'key': 'i', 'origWidth': 411, 'origHeight': 411, 'width': 411, 'height': 411, 'widthPercent': 0.45, 'rescaleHeight': False, 'trialN': 25, 'loaded': True, 'loadedTime': 4406, 'positionName': 'RIGHT', 'positionCoords': [798.72, 226.5], 'bid': 6.0600000000000005}]",47681,1669830835102,veggieswithdip,raspberries,6.1000000000000005,6.0600000000000005,-0.040000000000000036,veggieswithdip,2064,2082,2083,True,u,50280,2599,1669830837701,2599,HRV,HRV_0134,2022-11-30 17:59:36
26,"[{'imgObject': {}, 'id': 'luckycharms', 'src': '/static/foodstim60/luckycharms.jpg', 'key': 'u', 'origWidth': 410, 'origHeight': 409, 'width': 410, 'height': 409, 'widthPercent': 0.45, 'rescaleHeight': False, 'trialN': 26, 'loaded': True, 'loadedTime': 4411, 'positionName': 'LEFT', 'positionCoords': [327.28, 227.5], 'bid': 8.09}, {'imgObject': {}, 'id': 'Grapes', 'src': '/static/foodstim60/Grapes.jpg', 'key': 'i', 'origWidth': 411, 'origHeight': 411, 'width': 411, 'height': 411, 'widthPercent': 0.45, 'rescaleHeight': False, 'trialN': 26, 'loaded': True, 'loadedTime': 4425, 'positionName': 'RIGHT', 'positionCoords': [798.72, 226.5], 'bid': 2.21}]",50280,1669830837701,luckycharms,Grapes,8.09,2.21,-5.88,luckycharms,1373,1382,1383,True,u,52180,1900,1669830839601,1900,HRV,HRV_0134,2022-11-30 17:59:36
27,"[{'imgObject': {}, 'id': 'edamame', 'src': '/static/foodstim60/edamame.jpg', 'key': 'u', 'origWidth': 409, 'origHeight': 410, 'width': 409, 'height': 410, 'widthPercent': 0.45, 'rescaleHeight': False, 'trialN': 27, 'loaded': True, 'loadedTime': 4481, 'positionName': 'LEFT', 'positionCoords': [328.28, 227], 'bid': 1.45}, {'imgObject': {}, 'id': 'cocktailshrimp', 'src': '/static/foodstim60/cocktailshrimp.jpg', 'key': 'i', 'origWidth': 410, 'origHeight': 410, 'width': 410, 'height': 410, 'widthPercent': 0.45, 'rescaleHeight': False, 'trialN': 27, 'loaded': True, 'loadedTime': 4088, 'positionName': 'RIGHT', 'positionCoords': [798.72, 227], 'bid': 3.47}]",52181,1669830839601,edamame,cocktailshrimp,1.45,3.47,2.0200000000000005,cocktailshrimp,1065,1087,1088,True,i,53781,1600,1669830841201,1600,HRV,HRV_0134,2022-11-30 17:59:36
28,"[{'imgObject': {}, 'id': 'yogurt no spoon', 'src': '/static/foodstim60/yogurt no spoon.jpg', 'key': 'u', 'origWidth': 411, 'origHeight': 410, 'width': 411, 'height': 410, 'widthPercent': 0.45, 'rescaleHeight': False, 'trialN': 28, 'loaded': True, 'loadedTime': 4488, 'positionName': 'LEFT', 'positionCoords': [326.28, 227], 'bid': 0.59}, {'imgObject': {}, 'id': 'blackbeanswithrice', 'src': '/static/foodstim60/blackbeanswithrice.jpg', 'key': 'i', 'origWidth': 410, 'origHeight': 410, 'width': 410, 'height': 410, 'widthPercent': 0.45, 'rescaleHeight': False, 'trialN': 28, 'loaded': True, 'loadedTime': 4026, 'positionName': 'RIGHT', 'positionCoords': [798.72, 227], 'bid': 2.72}]",53781,1669830841201,yogurt no spoon,blackbeanswithrice,0.59,2.72,2.1300000000000003,yogurt no spoon,1278,1290,1290,True,u,55580,1799,1669830843001,1800,HRV,HRV_0134,2022-11-30 17:59:36
29,"[{'imgObject': {}, 'id': 'froot loops w milk', 'src': '/static/foodstim60/froot loops w milk.jpg', 'key': 'u', 'origWidth': 410, 'origHeight': 410, 'width': 410, 'height': 410, 'widthPercent': 0.45, 'rescaleHeight': False, 'trialN': 29, 'loaded': True, 'loadedTime': 4497, 'positionName': 'LEFT', 'positionCoords': [327.28, 227], 'bid': 3.86}, {'imgObject': {}, 'id': 'cocktailshrimp', 'src': '/static/foodstim60/cocktailshrimp.jpg', 'key': 'i', 'origWidth': 410, 'origHeight': 410, 'width': 410, 'height': 410, 'widthPercent': 0.45, 'rescaleHeight': False, 'trialN': 29, 'loaded': True, 'loadedTime': 4088, 'positionName': 'RIGHT', 'positionCoords': [798.72, 227], 'bid': 3.47}]",55580,1669830843001,froot loops w milk,cocktailshrimp,3.86,3.47,-0.3899999999999997,cocktailshrimp,1510,1522,1522,True,i,57610,2030,1669830845031,2030,HRV,HRV_0134,2022-11-30 17:59:36
30,"[{'imgObject': {}, 'id': 'yogurt no spoon', 'src': '/static/foodstim60/yogurt no spoon.jpg', 'key': 'u', 'origWidth': 411, 'origHeight': 410, 'width': 411, 'height': 410, 'widthPercent': 0.45, 'rescaleHeight': False, 'trialN': 30, 'loaded': True, 'loadedTime': 4496, 'positionName': 'LEFT', 'positionCoords': [326.28, 227], 'bid': 0.59}, {'imgObject': {}, 'id': 'chicken nuggets2', 'src': '/static/foodstim60/chicken nuggets2.jpg', 'key': 'i', 'origWidth': 410, 'origHeight': 409, 'width': 410, 'height': 409, 'widthPercent': 0.45, 'rescaleHeight': False, 'trialN': 30, 'loaded': True, 'loadedTime': 4296, 'positionName': 'RIGHT', 'positionCoords': [798.72, 227.5], 'bid': 0.23}]",57610,1669830845031,yogurt no spoon,chicken nuggets2,0.59,0.23,-0.36,yogurt no spoon,949,965,966,True,u,59090,1480,1669830846511,1480,HRV,HRV_0134,2022-11-30 17:59:36
31,"[{'imgObject': {}, 'id': 'edamame', 'src': '/static/foodstim60/edamame.jpg', 'key': 'u', 'origWidth': 409, 'origHeight': 410, 'width': 409, 'height': 410, 'widthPercent': 0.45, 'rescaleHeight': False, 'trialN': 31, 'loaded': True, 'loadedTime': 4487, 'positionName': 'LEFT', 'positionCoords': [328.28, 227], 'bid': 1.45}, {'imgObject': {}, 'id': 'cherry tomato', 'src': '/static/foodstim60/cherry tomato.jpg', 'key': 'i', 'origWidth': 410, 'origHeight': 410, 'width': 410, 'height': 410, 'widthPercent': 0.45, 'rescaleHeight': False, 'trialN': 31, 'loaded': True, 'loadedTime': 4324, 'positionName': 'RIGHT', 'positionCoords': [798.72, 227], 'bid': 1.83}]",59090,1669830846511,edamame,cherry tomato,1.45,1.83,0.3800000000000001,cherry tomato,1266,1274,1274,True,i,60871,1781,1669830848291,1780,HRV,HRV_0134,2022-11-30 17:59:36
32,"[{'imgObject': {}, 'id': 'hotdog w must', 'src': '/static/foodstim60/hotdog w must.jpg', 'key': 'u', 'origWidth': 409, 'origHeight': 409, 'width': 409, 'height': 409, 'widthPercent': 0.45, 'rescaleHeight': False, 'trialN': 32, 'loaded': True, 'loadedTime': 4389, 'positionName': 'LEFT', 'positionCoords': [328.28, 227.5], 'bid': 7.52}, {'imgObject': {}, 'id': 'steak', 'src': '/static/foodstim60/steak.jpg', 'key': 'i', 'origWidth': 410, 'origHeight': 410, 'width': 410, 'height': 410, 'widthPercent': 0.45, 'rescaleHeight': False, 'trialN': 32, 'loaded': True, 'loadedTime': 4503, 'positionName': 'RIGHT', 'positionCoords': [798.72, 227], 'bid': 1.9}]",60871,1669830848291,hotdog w must,steak,7.52,1.9,-5.619999999999999,hotdog w must,985,995,995,True,u,62380,1509,1669830849801,1510,HRV,HRV_0134,2022-11-30 17:59:36
33,"[{'imgObject': {}, 'id': 'chickenfingers', 'src': '/static/foodstim60/chickenfingers.jpg', 'key': 'u', 'origWidth': 410, 'origHeight': 410, 'width': 410, 'height': 410, 'widthPercent': 0.45, 'rescaleHeight': False, 'trialN': 33, 'loaded': True, 'loadedTime': 4508, 'positionName': 'LEFT', 'positionCoords': [327.28, 227], 'bid': 9.84}, {'imgObject': {}, 'id': 'blueberries', 'src': '/static/foodstim60/blueberries.jpg', 'key': 'i', 'origWidth': 411, 'origHeight': 411, 'width': 411, 'height': 411, 'widthPercent': 0.45, 'rescaleHeight': False, 'trialN': 33, 'loaded': True, 'loadedTime': 4512, 'positionName': 'RIGHT', 'positionCoords': [798.72, 226.5], 'bid': 8.48}]",62381,1669830849801,chickenfingers,blueberries,9.84,8.48,-1.3599999999999994,chickenfingers,1099,1118,1118,True,u,64000,1619,1669830851421,1620,HRV,HRV_0134,2022-11-30 17:59:36
34,"[{'imgObject': {}, 'id': 'kiwi', 'src': '/static/foodstim60/kiwi.jpg', 'key': 'u', 'origWidth': 410, 'origHeight': 410, 'width': 410, 'height': 410, 'widthPercent': 0.45, 'rescaleHeight': False, 'trialN': 34, 'loaded': True, 'loadedTime': 4518, 'positionName': 'LEFT', 'positionCoords': [327.28, 227], 'bid': 6.0600000000000005}, {'imgObject': {}, 'id': 'fruitsalad', 'src': '/static/foodstim60/fruitsalad.jpg', 'key': 'i', 'origWidth': 410, 'origHeight': 410, 'width': 410, 'height': 410, 'widthPercent': 0.45, 'rescaleHeight': False, 'trialN': 34, 'loaded': True, 'loadedTime': 4243, 'positionName': 'RIGHT', 'positionCoords': [798.72, 227], 'bid': 2.89}]",64000,1669830851421,kiwi,fruitsalad,6.0600000000000005,2.89,-3.1700000000000004,kiwi,1527,1537,1538,True,u,66041,2041,1669830853461,2040,HRV,HRV_0134,2022-11-30 17:59:36
35,"[{'imgObject': {}, 'id': 'rigatoni and sauce', 'src': '/static/foodstim60/rigatoni and sauce.jpg', 'key': 'u', 'origWidth': 410, 'origHeight': 411, 'width': 410, 'height': 411, 'widthPercent': 0.45, 'rescaleHeight': False, 'trialN': 35, 'loaded': True, 'loadedTime': 4344, 'positionName': 'LEFT', 'positionCoords': [327.28, 226.5], 'bid': 9.51}, {'imgObject': {}, 'id': 'avocado', 'src': '/static/foodstim60/avocado.jpg', 'key': 'i', 'origWidth': 409, 'origHeight': 409, 'width': 409, 'height': 409, 'widthPercent': 0.45, 'rescaleHeight': False, 'trialN': 35, 'loaded': True, 'loadedTime': 4524, 'positionName': 'RIGHT', 'positionCoords': [798.72, 227.5], 'bid': 8.32}]",66041,1669830853461,rigatoni and sauce,avocado,9.51,8.32,-1.1899999999999995,rigatoni and sauce,1330,1342,1341,True,u,67900,1859,1669830855321,1860,HRV,HRV_0134,2022-11-30 17:59:36
36,"[{'imgObject': {}, 'id': 'omelette', 'src': '/static/foodstim60/omelette.jpg', 'key': 'u', 'origWidth': 410, 'origHeight': 409, 'width': 410, 'height': 409, 'widthPercent': 0.45, 'rescaleHeight': False, 'trialN': 36, 'loaded': True, 'loadedTime': 4104, 'positionName': 'LEFT', 'positionCoords': [327.28, 227.5], 'bid': 7.47}, {'imgObject': {}, 'id': 'ice cream sundae 002', 'src': '/static/foodstim60/ice cream sundae 002.jpg', 'key': 'i', 'origWidth': 409, 'origHeight': 409, 'width': 409, 'height': 409, 'widthPercent': 0.45, 'rescaleHeight': False, 'trialN': 36, 'loaded': True, 'loadedTime': 4528, 'positionName': 'RIGHT', 'positionCoords': [798.72, 227.5], 'bid': 5.8}]",67900,1669830855321,omelette,ice cream sundae 002,7.47,5.8,-1.67,omelette,878,882,882,True,u,69300,1400,1669830856721,1400,HRV,HRV_0134,2022-11-30 17:59:36
37,"[{'imgObject': {}, 'id': 'apple slices', 'src': '/static/foodstim60/apple slices.jpg', 'key': 'u', 'origWidth': 409, 'origHeight': 410, 'width': 409, 'height': 410, 'widthPercent': 0.45, 'rescaleHeight': False, 'trialN': 37, 'loaded': True, 'loadedTime': 4124, 'positionName': 'LEFT', 'positionCoords': [328.28, 227], 'bid': 9.6}, {'imgObject': {}, 'id': 'roastedpotatoes', 'src': '/static/foodstim60/roastedpotatoes.jpg', 'key': 'i', 'origWidth': 409, 'origHeight': 410, 'width': 409, 'height': 410, 'widthPercent': 0.45, 'rescaleHeight': False, 'trialN': 37, 'loaded': True, 'loadedTime': 4260, 'positionName': 'RIGHT', 'positionCoords': [798.72, 227], 'bid': 9.1}]",69301,1669830856721,apple slices,roastedpotatoes,9.6,9.1,-0.5,roastedpotatoes,1195,1219,1218,True,i,71020,1719,1669830858440,1719,HRV,HRV_0134,2022-11-30 17:59:36
38,"[{'imgObject': {}, 'id': 'veggieswithdip', 'src': '/static/foodstim60/veggieswithdip.jpg', 'key': 'u', 'origWidth': 409, 'origHeight': 409, 'width': 409, 'height': 409, 'widthPercent': 0.45, 'rescaleHeight': False, 'trialN': 38, 'loaded': True, 'loadedTime': 4405, 'positionName': 'LEFT', 'positionCoords': [328.28, 227.5], 'bid': 6.1000000000000005}, {'imgObject': {}, 'id': 'fried eggs', 'src': '/static/foodstim60/fried eggs.jpg', 'key': 'i', 'origWidth': 410, 'origHeight': 410, 'width': 410, 'height': 410, 'widthPercent': 0.45, 'rescaleHeight': False, 'trialN': 38, 'loaded': True, 'loadedTime': 4534, 'positionName': 'RIGHT', 'positionCoords': [798.72, 227], 'bid': 8.98}]",71020,1669830858440,veggieswithdip,fried eggs,6.1000000000000005,8.98,2.88,fried eggs,1164,1180,1179,True,i,72701,1681,1669830860120,1680,HRV,HRV_0134,2022-11-30 17:59:36
39,"[{'imgObject': {}, 'id': 'shreddedwheatwithmilk', 'src': '/static/foodstim60/shreddedwheatwithmilk.jpg', 'key': 'u', 'origWidth': 410, 'origHeight': 410, 'width': 410, 'height': 410, 'widthPercent': 0.45, 'rescaleHeight': False, 'trialN': 39, 'loaded': True, 'loadedTime': 4537, 'positionName': 'LEFT', 'positionCoords': [327.28, 227], 'bid': 5.0200000000000005}, {'imgObject': {}, 'id': 'rigatoni and sauce', 'src': '/static/foodstim60/rigatoni and sauce.jpg', 'key': 'i', 'origWidth': 410, 'origHeight': 411, 'width': 410, 'height': 411, 'widthPercent': 0.45, 'rescaleHeight': False, 'trialN': 39, 'loaded': True, 'loadedTime': 4344, 'positionName': 'RIGHT', 'positionCoords': [798.72, 226.5], 'bid': 9.51}]",72701,1669830860120,shreddedwheatwithmilk,rigatoni and sauce,5.0200000000000005,9.51,4.489999999999999,rigatoni and sauce,1108,1113,1112,True,i,74330,1629,1669830861751,1631,HRV,HRV_0134,2022-11-30 17:59:36
40,"[{'imgObject': {}, 'id': 'hotdog w must', 'src': '/static/foodstim60/hotdog w must.jpg', 'key': 'u', 'origWidth': 409, 'origHeight': 409, 'width': 409, 'height': 409, 'widthPercent': 0.45, 'rescaleHeight': False, 'trialN': 40, 'loaded': True, 'loadedTime': 4389, 'positionName': 'LEFT', 'positionCoords': [328.28, 227.5], 'bid': 7.52}, {'imgObject': {}, 'id': 'omelette', 'src': '/static/foodstim60/omelette.jpg', 'key': 'i', 'origWidth': 410, 'origHeight': 409, 'width': 410, 'height': 409, 'widthPercent': 0.45, 'rescaleHeight': False, 'trialN': 40, 'loaded': True, 'loadedTime': 4104, 'positionName': 'RIGHT', 'positionCoords': [798.72, 227.5], 'bid': 7.47}]",74330,1669830861751,hotdog w must,omelette,7.52,7.47,-0.04999999999999982,omelette,1337,1344,1345,True,i,76180,1850,1669830863601,1850,HRV,HRV_0134,2022-11-30 17:59:36
41,"[{'imgObject': {}, 'id': 'raspberries', 'src': '/static/foodstim60/raspberries.jpg', 'key': 'u', 'origWidth': 411, 'origHeight': 411, 'width': 411, 'height': 411, 'widthPercent': 0.45, 'rescaleHeight': False, 'trialN': 41, 'loaded': True, 'loadedTime': 4411, 'positionName': 'LEFT', 'positionCoords': [326.28, 226.5], 'bid': 6.0600000000000005}, {'imgObject': {}, 'id': 'eggsalad', 'src': '/static/foodstim60/eggsalad.jpg', 'key': 'i', 'origWidth': 410, 'origHeight': 409, 'width': 410, 'height': 409, 'widthPercent': 0.45, 'rescaleHeight': False, 'trialN': 41, 'loaded': True, 'loadedTime': 4541, 'positionName': 'RIGHT', 'positionCoords': [798.72, 227.5], 'bid': 5.0200000000000005}]",76180,1669830863601,raspberries,eggsalad,6.0600000000000005,5.0200000000000005,-1.04,raspberries,1207,1219,1219,True,u,77900,1720,1669830865321,1720,HRV,HRV_0134,2022-11-30 17:59:36
42,"[{'imgObject': {}, 'id': 'raspberries', 'src': '/static/foodstim60/raspberries.jpg', 'key': 'u', 'origWidth': 411, 'origHeight': 411, 'width': 411, 'height': 411, 'widthPercent': 0.45, 'rescaleHeight': False, 'trialN': 42, 'loaded': True, 'loadedTime': 4411, 'positionName': 'LEFT', 'positionCoords': [326.28, 226.5], 'bid': 6.0600000000000005}, {'imgObject': {}, 'id': 'sweetpotato', 'src': '/static/foodstim60/sweetpotato.jpg', 'key': 'i', 'origWidth': 410, 'origHeight': 410, 'width': 410, 'height': 410, 'widthPercent': 0.45, 'rescaleHeight': False, 'trialN': 42, 'loaded': True, 'loadedTime': 4314, 'positionName': 'RIGHT', 'positionCoords': [798.72, 227], 'bid': 8.55}]",77900,1669830865321,raspberries,sweetpotato,6.0600000000000005,8.55,2.49,raspberries,1550,1567,1567,True,u,79980,2080,1669830867400,2079,HRV,HRV_0134,2022-11-30 17:59:36
43,"[{'imgObject': {}, 'id': 'mac & cheese', 'src': '/static/foodstim60/mac & cheese.jpg', 'key': 'u', 'origWidth': 410, 'origHeight': 410, 'width': 410, 'height': 410, 'widthPercent': 0.45, 'rescaleHeight': False, 'trialN': 43, 'loaded': True, 'loadedTime': 4304, 'positionName': 'LEFT', 'positionCoords': [327.28, 227], 'bid': 8.35}, {'imgObject': {}, 'id': 'rigatoni', 'src': '/static/foodstim60/rigatoni.jpg', 'key': 'i', 'origWidth': 411, 'origHeight': 411, 'width': 411, 'height': 411, 'widthPercent': 0.45, 'rescaleHeight': False, 'trialN': 43, 'loaded': True, 'loadedTime': 4397, 'positionName': 'RIGHT', 'positionCoords': [798.72, 226.5], 'bid': 7.35}]",79980,1669830867400,mac & cheese,rigatoni,8.35,7.35,-1.0,mac & cheese,1391,1404,1405,True,u,81900,1920,1669830869321,1921,HRV,HRV_0134,2022-11-30 17:59:36
44,"[{'imgObject': {}, 'id': 'salmon', 'src': '/static/foodstim60/salmon.jpg', 'key': 'u', 'origWidth': 410, 'origHeight': 409, 'width': 410, 'height': 409, 'widthPercent': 0.45, 'rescaleHeight': False, 'trialN': 44, 'loaded': True, 'loadedTime': 4216, 'positionName': 'LEFT', 'positionCoords': [327.28, 227.5], 'bid': 9.59}, {'imgObject': {}, 'id': 'hotdog w must', 'src': '/static/foodstim60/hotdog w must.jpg', 'key': 'i', 'origWidth': 409, 'origHeight': 409, 'width': 409, 'height': 409, 'widthPercent': 0.45, 'rescaleHeight': False, 'trialN': 44, 'loaded': True, 'loadedTime': 4389, 'positionName': 'RIGHT', 'positionCoords': [798.72, 227.5], 'bid': 7.52}]",81900,1669830869321,salmon,hotdog w must,9.59,7.52,-2.0700000000000003,salmon,1331,1345,1346,True,u,83749,1849,1669830871169,1848,HRV,HRV_0134,2022-11-30 17:59:36
45,"[{'imgObject': {}, 'id': 'sweetpotato', 'src': '/static/foodstim60/sweetpotato.jpg', 'key': 'u', 'origWidth': 410, 'origHeight': 410, 'width': 410, 'height': 410, 'widthPercent': 0.45, 'rescaleHeight': False, 'trialN': 45, 'loaded': True, 'loadedTime': 4315, 'positionName': 'LEFT', 'positionCoords': [327.28, 227], 'bid': 8.55}, {'imgObject': {}, 'id': 'seaweed', 'src': '/static/foodstim60/seaweed.jpg', 'key': 'i', 'origWidth': 410, 'origHeight': 410, 'width': 410, 'height': 410, 'widthPercent': 0.45, 'rescaleHeight': False, 'trialN': 45, 'loaded': True, 'loadedTime': 4375, 'positionName': 'RIGHT', 'positionCoords': [798.72, 227], 'bid': 2.95}]",83749,1669830871170,sweetpotato,seaweed,8.55,2.95,-5.6000000000000005,sweetpotato,1247,1270,1270,True,u,85521,1772,1669830872941,1771,HRV,HRV_0134,2022-11-30 17:59:36
46,"[{'imgObject': {}, 'id': 'bagel and cc', 'src': '/static/foodstim60/bagel and cc.jpg', 'key': 'u', 'origWidth': 410, 'origHeight': 410, 'width': 410, 'height': 410, 'widthPercent': 0.45, 'rescaleHeight': False, 'trialN': 46, 'loaded': True, 'loadedTime': 4008, 'positionName': 'LEFT', 'positionCoords': [327.28, 227], 'bid': 7.05}, {'imgObject': {}, 'id': 'ice cream sundae 002', 'src': '/static/foodstim60/ice cream sundae 002.jpg', 'key': 'i', 'origWidth': 409, 'origHeight': 409, 'width': 409, 'height': 409, 'widthPercent': 0.45, 'rescaleHeight': False, 'trialN': 46, 'loaded': True, 'loadedTime': 4533, 'positionName': 'RIGHT', 'positionCoords': [798.72, 227.5], 'bid': 5.8}]",85521,1669830872941,bagel and cc,ice cream sundae 002,7.05,5.8,-1.25,bagel and cc,1538,1552,1552,True,u,87581,2060,1669830875001,2060,HRV,HRV_0134,2022-11-30 17:59:36
47,"[{'imgObject': {}, 'id': 'Tribe humus pita', 'src': '/static/foodstim60/Tribe humus pita.jpg', 'key': 'u', 'origWidth': 411, 'origHeight': 411, 'width': 411, 'height': 411, 'widthPercent': 0.45, 'rescaleHeight': False, 'trialN': 47, 'loaded': True, 'loadedTime': 4073, 'positionName': 'LEFT', 'positionCoords': [326.28, 226.5], 'bid': 8.99}, {'imgObject': {}, 'id': 'eggs', 'src': '/static/foodstim60/eggs.jpg', 'key': 'i', 'origWidth': 409, 'origHeight': 409, 'width': 409, 'height': 409, 'widthPercent': 0.45, 'rescaleHeight': False, 'trialN': 47, 'loaded': True, 'loadedTime': 4003, 'positionName': 'RIGHT', 'positionCoords': [798.72, 227.5], 'bid': 6.3100000000000005}]",87581,1669830875001,Tribe humus pita,eggs,8.99,6.3100000000000005,-2.6799999999999997,Tribe humus pita,962,975,976,True,u,89060,1479,1669830876480,1479,HRV,HRV_0134,2022-11-30 17:59:36
48,"[{'imgObject': {}, 'id': 'cherry tomato', 'src': '/static/foodstim60/cherry tomato.jpg', 'key': 'u', 'origWidth': 410, 'origHeight': 410, 'width': 410, 'height': 410, 'widthPercent': 0.45, 'rescaleHeight': False, 'trialN': 48, 'loaded': True, 'loadedTime': 4325, 'positionName': 'LEFT', 'positionCoords': [327.28, 227], 'bid': 1.83}, {'imgObject': {}, 'id': 'shreddedwheatwithmilk', 'src': '/static/foodstim60/shreddedwheatwithmilk.jpg', 'key': 'i', 'origWidth': 410, 'origHeight': 410, 'width': 410, 'height': 410, 'widthPercent': 0.45, 'rescaleHeight': False, 'trialN': 48, 'loaded': True, 'loadedTime': 4541, 'positionName': 'RIGHT', 'positionCoords': [798.72, 227], 'bid': 5.0200000000000005}]",89061,1669830876482,cherry tomato,shreddedwheatwithmilk,1.83,5.0200000000000005,3.1900000000000004,cherry tomato,1373,1390,1390,True,u,90971,1910,1669830878390,1908,HRV,HRV_0134,2022-11-30 17:59:36
49,"[{'imgObject': {}, 'id': 'cocktailshrimp', 'src': '/static/foodstim60/cocktailshrimp.jpg', 'key': 'u', 'origWidth': 410, 'origHeight': 410, 'width': 410, 'height': 410, 'widthPercent': 0.45, 'rescaleHeight': False, 'trialN': 49, 'loaded': True, 'loadedTime': 4088, 'positionName': 'LEFT', 'positionCoords': [327.28, 227], 'bid': 3.47}, {'imgObject': {}, 'id': 'fried eggs', 'src': '/static/foodstim60/fried eggs.jpg', 'key': 'i', 'origWidth': 410, 'origHeight': 410, 'width': 410, 'height': 410, 'widthPercent': 0.45, 'rescaleHeight': False, 'trialN': 49, 'loaded': True, 'loadedTime': 4537, 'positionName': 'RIGHT', 'positionCoords': [798.72, 227], 'bid': 8.98}]",90971,1669830878390,cocktailshrimp,fried eggs,3.47,8.98,5.51,cocktailshrimp,1322,1336,1334,True,u,92811,1840,1669830880231,1841,HRV,HRV_0134,2022-11-30 17:59:36
50,"[{'imgObject': {}, 'id': 'orange slices', 'src': '/static/foodstim60/orange slices.jpg', 'key': 'u', 'origWidth': 409, 'origHeight': 410, 'width': 409, 'height': 410, 'widthPercent': 0.45, 'rescaleHeight': False, 'trialN': 50, 'loaded': True, 'loadedTime': 4267, 'positionName': 'LEFT', 'positionCoords': [328.28, 227], 'bid': 4.08}, {'imgObject': {}, 'id': 'froot loops w milk', 'src': '/static/foodstim60/froot loops w milk.jpg', 'key': 'i', 'origWidth': 410, 'origHeight': 410, 'width': 410, 'height': 410, 'widthPercent': 0.45, 'rescaleHeight': False, 'trialN': 50, 'loaded': True, 'loadedTime': 4501, 'positionName': 'RIGHT', 'positionCoords': [798.72, 227], 'bid': 3.86}]",92811,1669830880231,orange slices,froot loops w milk,4.08,3.86,-0.2200000000000002,froot loops w milk,1889,1907,1907,True,i,95231,2420,1669830882651,2420,HRV,HRV_0134,2022-11-30 17:59:36
51,"[{'imgObject': {}, 'id': 'chicken nuggets2', 'src': '/static/foodstim60/chicken nuggets2.jpg', 'key': 'u', 'origWidth': 410, 'origHeight': 409, 'width': 410, 'height': 409, 'widthPercent': 0.45, 'rescaleHeight': False, 'trialN': 51, 'loaded': True, 'loadedTime': 4297, 'positionName': 'LEFT', 'positionCoords': [327.28, 227.5], 'bid': 0.23}, {'imgObject': {}, 'id': 'eggs', 'src': '/static/foodstim60/eggs.jpg', 'key': 'i', 'origWidth': 409, 'origHeight': 409, 'width': 409, 'height': 409, 'widthPercent': 0.45, 'rescaleHeight': False, 'trialN': 51, 'loaded': True, 'loadedTime': 4003, 'positionName': 'RIGHT', 'positionCoords': [798.72, 227.5], 'bid': 6.3100000000000005}]",95231,1669830882651,chicken nuggets2,eggs,0.23,6.3100000000000005,6.08,eggs,1047,1064,1064,True,i,96800,1569,1669830884221,1570,HRV,HRV_0134,2022-11-30 17:59:36
52,"[{'imgObject': {}, 'id': 'raisin bran w milk', 'src': '/static/foodstim60/raisin bran w milk.jpg', 'key': 'u', 'origWidth': 411, 'origHeight': 411, 'width': 411, 'height': 411, 'widthPercent': 0.45, 'rescaleHeight': False, 'trialN': 52, 'loaded': True, 'loadedTime': 4135, 'positionName': 'LEFT', 'positionCoords': [326.28, 226.5], 'bid': 5.03}, {'imgObject': {}, 'id': 'pear', 'src': '/static/foodstim60/pear.jpg', 'key': 'i', 'origWidth': 411, 'origHeight': 410, 'width': 411, 'height': 410, 'widthPercent': 0.45, 'rescaleHeight': False, 'trialN': 52, 'loaded': True, 'loadedTime': 4057, 'positionName': 'RIGHT', 'positionCoords': [798.72, 227], 'bid': 2}]",96800,1669830884221,raisin bran w milk,pear,5.03,2.0,-3.0300000000000002,raisin bran w milk,1789,1808,1809,True,u,99120,2320,1669830886540,2319,HRV,HRV_0134,2022-11-30 17:59:36
53,"[{'imgObject': {}, 'id': 'burger', 'src': '/static/foodstim60/burger.jpg', 'key': 'u', 'origWidth': 409, 'origHeight': 409, 'width': 409, 'height': 409, 'widthPercent': 0.45, 'rescaleHeight': False, 'trialN': 53, 'loaded': True, 'loadedTime': 4545, 'positionName': 'LEFT', 'positionCoords': [328.28, 227.5], 'bid': 4.94}, {'imgObject': {}, 'id': 'seaweed', 'src': '/static/foodstim60/seaweed.jpg', 'key': 'i', 'origWidth': 410, 'origHeight': 410, 'width': 410, 'height': 410, 'widthPercent': 0.45, 'rescaleHeight': False, 'trialN': 53, 'loaded': True, 'loadedTime': 4375, 'positionName': 'RIGHT', 'positionCoords': [798.72, 227], 'bid': 2.95}]",99120,1669830886540,burger,seaweed,4.94,2.95,-1.9900000000000002,burger,1767,1775,1774,True,u,101410,2290,1669830888830,2290,HRV,HRV_0134,2022-11-30 17:59:36
54,"[{'imgObject': {}, 'id': 'fruitsalad', 'src': '/static/foodstim60/fruitsalad.jpg', 'key': 'u', 'origWidth': 410, 'origHeight': 410, 'width': 410, 'height': 410, 'widthPercent': 0.45, 'rescaleHeight': False, 'trialN': 54, 'loaded': True, 'loadedTime': 4243, 'positionName': 'LEFT', 'positionCoords': [327.28, 227], 'bid': 2.89}, {'imgObject': {}, 'id': 'mashed potato', 'src': '/static/foodstim60/mashed potato.jpg', 'key': 'i', 'origWidth': 409, 'origHeight': 409, 'width': 409, 'height': 409, 'widthPercent': 0.45, 'rescaleHeight': False, 'trialN': 54, 'loaded': True, 'loadedTime': 4551, 'positionName': 'RIGHT', 'positionCoords': [798.72, 227.5], 'bid': 4.17}]",101410,1669830888831,fruitsalad,mashed potato,2.89,4.17,1.2799999999999998,fruitsalad,1398,1405,1404,True,u,103320,1910,1669830890741,1910,HRV,HRV_0134,2022-11-30 17:59:36
55,"[{'imgObject': {}, 'id': 'edamame', 'src': '/static/foodstim60/edamame.jpg', 'key': 'u', 'origWidth': 409, 'origHeight': 410, 'width': 409, 'height': 410, 'widthPercent': 0.45, 'rescaleHeight': False, 'trialN': 55, 'loaded': True, 'loadedTime': 4487, 'positionName': 'LEFT', 'positionCoords': [328.28, 227], 'bid': 1.45}, {'imgObject': {}, 'id': 'corn cob', 'src': '/static/foodstim60/corn cob.jpg', 'key': 'i', 'origWidth': 411, 'origHeight': 411, 'width': 411, 'height': 411, 'widthPercent': 0.45, 'rescaleHeight': False, 'trialN': 55, 'loaded': True, 'loadedTime': 4289, 'positionName': 'RIGHT', 'positionCoords': [798.72, 226.5], 'bid': 0.15}]",103320,1669830890741,edamame,corn cob,1.45,0.15,-1.3,edamame,1661,1672,1673,True,u,105511,2191,1669830892931,2190,HRV,HRV_0134,2022-11-30 17:59:36
56,"[{'imgObject': {}, 'id': 'raisin bran w milk', 'src': '/static/foodstim60/raisin bran w milk.jpg', 'key': 'u', 'origWidth': 411, 'origHeight': 411, 'width': 411, 'height': 411, 'widthPercent': 0.45, 'rescaleHeight': False, 'trialN': 56, 'loaded': True, 'loadedTime': 4135, 'positionName': 'LEFT', 'positionCoords': [326.28, 226.5], 'bid': 5.03}, {'imgObject': {}, 'id': 'cantaloupe', 'src': '/static/foodstim60/cantaloupe.jpg', 'key': 'i', 'origWidth': 409, 'origHeight': 409, 'width': 409, 'height': 409, 'widthPercent': 0.45, 'rescaleHeight': False, 'trialN': 56, 'loaded': True, 'loadedTime': 4350, 'positionName': 'RIGHT', 'positionCoords': [798.72, 227.5], 'bid': 7.1000000000000005}]",105511,1669830892931,raisin bran w milk,cantaloupe,5.03,7.1000000000000005,2.0700000000000003,raisin bran w milk,1470,1482,1482,True,u,107510,1999,1669830894931,2000,HRV,HRV_0134,2022-11-30 17:59:36
57,"[{'imgObject': {}, 'id': 'seaweed', 'src': '/static/foodstim60/seaweed.jpg', 'key': 'u', 'origWidth': 410, 'origHeight': 410, 'width': 410, 'height': 410, 'widthPercent': 0.45, 'rescaleHeight': False, 'trialN': 57, 'loaded': True, 'loadedTime': 4376, 'positionName': 'LEFT', 'positionCoords': [327.28, 227], 'bid': 2.95}, {'imgObject': {}, 'id': 'popsicles', 'src': '/static/foodstim60/popsicles.jpg', 'key': 'i', 'origWidth': 410, 'origHeight': 410, 'width': 410, 'height': 410, 'widthPercent': 0.45, 'rescaleHeight': False, 'trialN': 57, 'loaded': True, 'loadedTime': 4555, 'positionName': 'RIGHT', 'positionCoords': [798.72, 227], 'bid': 1.32}]",107511,1669830894931,seaweed,popsicles,2.95,1.32,-1.6300000000000001,seaweed,1392,1401,1401,True,u,109420,1909,1669830896840,1909,HRV,HRV_0134,2022-11-30 17:59:36
58,"[{'imgObject': {}, 'id': 'cheerios', 'src': '/static/foodstim60/cheerios.jpg', 'key': 'u', 'origWidth': 409, 'origHeight': 410, 'width': 409, 'height': 410, 'widthPercent': 0.45, 'rescaleHeight': False, 'trialN': 58, 'loaded': True, 'loadedTime': 4559, 'positionName': 'LEFT', 'positionCoords': [328.28, 227], 'bid': 5.54}, {'imgObject': {}, 'id': 'granola w milk', 'src': '/static/foodstim60/granola w milk.jpg', 'key': 'i', 'origWidth': 410, 'origHeight': 410, 'width': 410, 'height': 410, 'widthPercent': 0.45, 'rescaleHeight': False, 'trialN': 58, 'loaded': True, 'loadedTime': 4568, 'positionName': 'RIGHT', 'positionCoords': [798.72, 227], 'bid': 5.0600000000000005}]",109420,1669830896840,cheerios,granola w milk,5.54,5.0600000000000005,-0.47999999999999954,granola w milk,1717,1727,1727,True,i,111660,2240,1669830899081,2241,HRV,HRV_0134,2022-11-30 17:59:36
59,"[{'imgObject': {}, 'id': 'luckycharms', 'src': '/static/foodstim60/luckycharms.jpg', 'key': 'u', 'origWidth': 410, 'origHeight': 409, 'width': 410, 'height': 409, 'widthPercent': 0.45, 'rescaleHeight': False, 'trialN': 59, 'loaded': True, 'loadedTime': 4425, 'positionName': 'LEFT', 'positionCoords': [327.28, 227.5], 'bid': 8.09}, {'imgObject': {}, 'id': 'grilled chicken strips', 'src': '/static/foodstim60/grilled chicken strips.jpg', 'key': 'i', 'origWidth': 410, 'origHeight': 411, 'width': 410, 'height': 411, 'widthPercent': 0.45, 'rescaleHeight': False, 'trialN': 59, 'loaded': True, 'loadedTime': 4576, 'positionName': 'RIGHT', 'positionCoords': [798.72, 226.5], 'bid': 9.62}]",111660,1669830899081,luckycharms,grilled chicken strips,8.09,9.62,1.5299999999999994,luckycharms,1055,1071,1072,True,u,113240,1580,1669830900660,1579,HRV,HRV_0134,2022-11-30 17:59:36
60,"[{'imgObject': {}, 'id': 'turkeysandwich', 'src': '/static/foodstim60/turkeysandwich.jpg', 'key': 'u', 'origWidth': 409, 'origHeight': 409, 'width': 409, 'height': 409, 'widthPercent': 0.45, 'rescaleHeight': False, 'trialN': 60, 'loaded': True, 'loadedTime': 4251, 'positionName': 'LEFT', 'positionCoords': [328.28, 227.5], 'bid': 7.57}, {'imgObject': {}, 'id': 'apple slices', 'src': '/static/foodstim60/apple slices.jpg', 'key': 'i', 'origWidth': 409, 'origHeight': 410, 'width': 409, 'height': 410, 'widthPercent': 0.45, 'rescaleHeight': False, 'trialN': 60, 'loaded': True, 'loadedTime': 4124, 'positionName': 'RIGHT', 'positionCoords': [798.72, 227], 'bid': 9.6}]",113240,1669830900660,turkeysandwich,apple slices,7.57,9.6,2.0299999999999994,apple slices,2272,2283,2283,True,i,116041,2801,1669830903460,2800,HRV,HRV_0134,2022-11-30 17:59:36
61,"[{'imgObject': {}, 'id': 'cocktailshrimp', 'src': '/static/foodstim60/cocktailshrimp.jpg', 'key': 'u', 'origWidth': 410, 'origHeight': 410, 'width': 410, 'height': 410, 'widthPercent': 0.45, 'rescaleHeight': False, 'trialN': 61, 'loaded': True, 'loadedTime': 4089, 'positionName': 'LEFT', 'positionCoords': [327.28, 227], 'bid': 3.47}, {'imgObject': {}, 'id': 'mango', 'src': '/static/foodstim60/mango.jpg', 'key': 'i', 'origWidth': 411, 'origHeight': 411, 'width': 411, 'height': 411, 'widthPercent': 0.45, 'rescaleHeight': False, 'trialN': 61, 'loaded': True, 'loadedTime': 4336, 'positionName': 'RIGHT', 'positionCoords': [798.72, 226.5], 'bid': 0.16}]",116041,1669830903461,cocktailshrimp,mango,3.47,0.16,-3.31,mango,2612,2626,2626,True,i,119181,3140,1669830906601,3140,HRV,HRV_0134,2022-11-30 17:59:36
62,"[{'imgObject': {}, 'id': 'avocado', 'src': '/static/foodstim60/avocado.jpg', 'key': 'u', 'origWidth': 409, 'origHeight': 409, 'width': 409, 'height': 409, 'widthPercent': 0.45, 'rescaleHeight': False, 'trialN': 62, 'loaded': True, 'loadedTime': 4528, 'positionName': 'LEFT', 'positionCoords': [328.28, 227.5], 'bid': 8.32}, {'imgObject': {}, 'id': 'mac & cheese', 'src': '/static/foodstim60/mac & cheese.jpg', 'key': 'i', 'origWidth': 410, 'origHeight': 410, 'width': 410, 'height': 410, 'widthPercent': 0.45, 'rescaleHeight': False, 'trialN': 62, 'loaded': True, 'loadedTime': 4304, 'positionName': 'RIGHT', 'positionCoords': [798.72, 227], 'bid': 8.35}]",119181,1669830906601,avocado,mac & cheese,8.32,8.35,0.02999999999999936,mac & cheese,1564,1571,1571,True,i,121271,2090,1669830908691,2090,HRV,HRV_0134,2022-11-30 17:59:36
63,"[{'imgObject': {}, 'id': 'tacos', 'src': '/static/foodstim60/tacos.jpg', 'key': 'u', 'origWidth': 411, 'origHeight': 411, 'width': 411, 'height': 411, 'widthPercent': 0.45, 'rescaleHeight': False, 'trialN': 63, 'loaded': True, 'loadedTime': 4274, 'positionName': 'LEFT', 'positionCoords': [326.28, 226.5], 'bid': 9.28}, {'imgObject': {}, 'id': 'luckycharms', 'src': '/static/foodstim60/luckycharms.jpg', 'key': 'i', 'origWidth': 410, 'origHeight': 409, 'width': 410, 'height': 409, 'widthPercent': 0.45, 'rescaleHeight': False, 'trialN': 63, 'loaded': True, 'loadedTime': 4425, 'positionName': 'RIGHT', 'positionCoords': [798.72, 227.5], 'bid': 8.09}]",121271,1669830908692,tacos,luckycharms,9.28,8.09,-1.1899999999999995,tacos,1319,1333,1333,True,u,123110,1839,1669830910531,1839,HRV,HRV_0134,2022-11-30 17:59:36
64,"[{'imgObject': {}, 'id': 'froot loops w milk', 'src': '/static/foodstim60/froot loops w milk.jpg', 'key': 'u', 'origWidth': 410, 'origHeight': 410, 'width': 410, 'height': 410, 'widthPercent': 0.45, 'rescaleHeight': False, 'trialN': 64, 'loaded': True, 'loadedTime': 4502, 'positionName': 'LEFT', 'positionCoords': [327.28, 227], 'bid': 3.86}, {'imgObject': {}, 'id': 'hashbrowns', 'src': '/static/foodstim60/hashbrowns.jpg', 'key': 'i', 'origWidth': 411, 'origHeight': 410, 'width': 411, 'height': 410, 'widthPercent': 0.45, 'rescaleHeight': False, 'trialN': 64, 'loaded': True, 'loadedTime': 4018, 'positionName': 'RIGHT', 'positionCoords': [798.72, 227], 'bid': 2.36}]",123110,1669830910531,froot loops w milk,hashbrowns,3.86,2.36,-1.5,froot loops w milk,1730,1735,1735,True,u,125350,2240,1669830912771,2240,HRV,HRV_0134,2022-11-30 17:59:36
65,"[{'imgObject': {}, 'id': 'banana', 'src': '/static/foodstim60/banana.jpg', 'key': 'u', 'origWidth': 410, 'origHeight': 410, 'width': 410, 'height': 410, 'widthPercent': 0.45, 'rescaleHeight': False, 'trialN': 65, 'loaded': True, 'loadedTime': 4063, 'positionName': 'LEFT', 'positionCoords': [327.28, 227], 'bid': 0.66}, {'imgObject': {}, 'id': 'edamame', 'src': '/static/foodstim60/edamame.jpg', 'key': 'i', 'origWidth': 409, 'origHeight': 410, 'width': 409, 'height': 410, 'widthPercent': 0.45, 'rescaleHeight': False, 'trialN': 65, 'loaded': True, 'loadedTime': 4487, 'positionName': 'RIGHT', 'positionCoords': [798.72, 227], 'bid': 1.45}]",125350,1669830912771,banana,edamame,0.66,1.45,0.7899999999999999,edamame,1817,1833,1833,True,i,127690,2340,1669830915111,2340,HRV,HRV_0134,2022-11-30 17:59:36
66,"[{'imgObject': {}, 'id': 'cantaloupe', 'src': '/static/foodstim60/cantaloupe.jpg', 'key': 'u', 'origWidth': 409, 'origHeight': 409, 'width': 409, 'height': 409, 'widthPercent': 0.45, 'rescaleHeight': False, 'trialN': 66, 'loaded': True, 'loadedTime': 4351, 'positionName': 'LEFT', 'positionCoords': [328.28, 227.5], 'bid': 7.1000000000000005}, {'imgObject': {}, 'id': 'bagel and cc', 'src': '/static/foodstim60/bagel and cc.jpg', 'key': 'i', 'origWidth': 410, 'origHeight': 410, 'width': 410, 'height': 410, 'widthPercent': 0.45, 'rescaleHeight': False, 'trialN': 66, 'loaded': True, 'loadedTime': 4009, 'positionName': 'RIGHT', 'positionCoords': [798.72, 227], 'bid': 7.05}]",127690,1669830915111,cantaloupe,bagel and cc,7.1000000000000005,7.05,-0.05000000000000071,bagel and cc,1619,1622,1622,True,i,129830,2140,1669830917251,2140,HRV,HRV_0134,2022-11-30 17:59:36
67,"[{'imgObject': {}, 'id': 'blueberries', 'src': '/static/foodstim60/blueberries.jpg', 'key': 'u', 'origWidth': 411, 'origHeight': 411, 'width': 411, 'height': 411, 'widthPercent': 0.45, 'rescaleHeight': False, 'trialN': 67, 'loaded': True, 'loadedTime': 4517, 'positionName': 'LEFT', 'positionCoords': [326.28, 226.5], 'bid': 8.48}, {'imgObject': {}, 'id': 'sweetpotato', 'src': '/static/foodstim60/sweetpotato.jpg', 'key': 'i', 'origWidth': 410, 'origHeight': 410, 'width': 410, 'height': 410, 'widthPercent': 0.45, 'rescaleHeight': False, 'trialN': 67, 'loaded': True, 'loadedTime': 4315, 'positionName': 'RIGHT', 'positionCoords': [798.72, 227], 'bid': 8.55}]",129830,1669830917251,blueberries,sweetpotato,8.48,8.55,0.07000000000000028,blueberries,1478,1499,1499,True,u,131830,2000,1669830919251,2000,HRV,HRV_0134,2022-11-30 17:59:36
68,"[{'imgObject': {}, 'id': 'fried eggs', 'src': '/static/foodstim60/fried eggs.jpg', 'key': 'u', 'origWidth': 410, 'origHeight': 410, 'width': 410, 'height': 410, 'widthPercent': 0.45, 'rescaleHeight': False, 'trialN': 68, 'loaded': True, 'loadedTime': 4537, 'positionName': 'LEFT', 'positionCoords': [327.28, 227], 'bid': 8.98}, {'imgObject': {}, 'id': 'blueberries', 'src': '/static/foodstim60/blueberries.jpg', 'key': 'i', 'origWidth': 411, 'origHeight': 411, 'width': 411, 'height': 411, 'widthPercent': 0.45, 'rescaleHeight': False, 'trialN': 68, 'loaded': True, 'loadedTime': 4517, 'positionName': 'RIGHT', 'positionCoords': [798.72, 226.5], 'bid': 8.48}]",131831,1669830919251,fried eggs,blueberries,8.98,8.48,-0.5,blueberries,1227,1247,1246,True,i,133590,1759,1669830921010,1759,HRV,HRV_0134,2022-11-30 17:59:36
69,"[{'imgObject': {}, 'id': 'salad w chicken', 'src': '/static/foodstim60/salad w chicken.jpg', 'key': 'u', 'origWidth': 411, 'origHeight': 411, 'width': 411, 'height': 411, 'widthPercent': 0.45, 'rescaleHeight': False, 'trialN': 69, 'loaded': True, 'loadedTime': 4080, 'positionName': 'LEFT', 'positionCoords': [326.28, 226.5], 'bid': 9.76}, {'imgObject': {}, 'id': 'tacos', 'src': '/static/foodstim60/tacos.jpg', 'key': 'i', 'origWidth': 411, 'origHeight': 411, 'width': 411, 'height': 411, 'widthPercent': 0.45, 'rescaleHeight': False, 'trialN': 69, 'loaded': True, 'loadedTime': 4274, 'positionName': 'RIGHT', 'positionCoords': [798.72, 226.5], 'bid': 9.28}]",133590,1669830921011,salad w chicken,tacos,9.76,9.28,-0.4800000000000004,salad w chicken,1656,1665,1665,True,u,135771,2181,1669830923191,2180,HRV,HRV_0134,2022-11-30 17:59:36
70,"[{'imgObject': {}, 'id': 'baked potato', 'src': '/static/foodstim60/baked potato.jpg', 'key': 'u', 'origWidth': 409, 'origHeight': 410, 'width': 409, 'height': 410, 'widthPercent': 0.45, 'rescaleHeight': False, 'trialN': 70, 'loaded': True, 'loadedTime': 4035, 'positionName': 'LEFT', 'positionCoords': [328.28, 227], 'bid': 3.5500000000000003}, {'imgObject': {}, 'id': 'orange slices', 'src': '/static/foodstim60/orange slices.jpg', 'key': 'i', 'origWidth': 409, 'origHeight': 410, 'width': 409, 'height': 410, 'widthPercent': 0.45, 'rescaleHeight': False, 'trialN': 70, 'loaded': True, 'loadedTime': 4267, 'positionName': 'RIGHT', 'positionCoords': [798.72, 227], 'bid': 4.08}]",135771,1669830923192,baked potato,orange slices,3.5500000000000003,4.08,0.5299999999999998,orange slices,1257,1262,1263,True,i,137551,1780,1669830924971,1779,HRV,HRV_0134,2022-11-30 17:59:36
71,"[{'imgObject': {}, 'id': 'eggsalad', 'src': '/static/foodstim60/eggsalad.jpg', 'key': 'u', 'origWidth': 410, 'origHeight': 409, 'width': 410, 'height': 409, 'widthPercent': 0.45, 'rescaleHeight': False, 'trialN': 71, 'loaded': True, 'loadedTime': 4545, 'positionName': 'LEFT', 'positionCoords': [327.28, 227.5], 'bid': 5.0200000000000005}, {'imgObject': {}, 'id': 'granola w milk', 'src': '/static/foodstim60/granola w milk.jpg', 'key': 'i', 'origWidth': 410, 'origHeight': 410, 'width': 410, 'height': 410, 'widthPercent': 0.45, 'rescaleHeight': False, 'trialN': 71, 'loaded': True, 'loadedTime': 4575, 'positionName': 'RIGHT', 'positionCoords': [798.72, 227], 'bid': 5.0600000000000005}]",137551,1669830924972,eggsalad,granola w milk,5.0200000000000005,5.0600000000000005,0.040000000000000036,granola w milk,1149,1161,1161,True,i,139230,1679,1669830926651,1679,HRV,HRV_0134,2022-11-30 17:59:36
72,"[{'imgObject': {}, 'id': 'avocado', 'src': '/static/foodstim60/avocado.jpg', 'key': 'u', 'origWidth': 409, 'origHeight': 409, 'width': 409, 'height': 409, 'widthPercent': 0.45, 'rescaleHeight': False, 'trialN': 72, 'loaded': True, 'loadedTime': 4528, 'positionName': 'LEFT', 'positionCoords': [328.28, 227.5], 'bid': 8.32}, {'imgObject': {}, 'id': 'hashbrowns', 'src': '/static/foodstim60/hashbrowns.jpg', 'key': 'i', 'origWidth': 411, 'origHeight': 410, 'width': 411, 'height': 410, 'widthPercent': 0.45, 'rescaleHeight': False, 'trialN': 72, 'loaded': True, 'loadedTime': 4019, 'positionName': 'RIGHT', 'positionCoords': [798.72, 227], 'bid': 2.36}]",139230,1669830926651,avocado,hashbrowns,8.32,2.36,-5.960000000000001,avocado,1203,1215,1215,True,u,140951,1721,1669830928371,1720,HRV,HRV_0134,2022-11-30 17:59:36
73,"[{'imgObject': {}, 'id': 'strawberries', 'src': '/static/foodstim60/strawberries.jpg', 'key': 'u', 'origWidth': 410, 'origHeight': 410, 'width': 410, 'height': 410, 'widthPercent': 0.45, 'rescaleHeight': False, 'trialN': 73, 'loaded': True, 'loadedTime': 4044, 'positionName': 'LEFT', 'positionCoords': [327.28, 227], 'bid': 5.0200000000000005}, {'imgObject': {}, 'id': 'burrito', 'src': '/static/foodstim60/burrito.jpg', 'key': 'i', 'origWidth': 410, 'origHeight': 410, 'width': 410, 'height': 410, 'widthPercent': 0.45, 'rescaleHeight': False, 'trialN': 73, 'loaded': True, 'loadedTime': 4588, 'positionName': 'RIGHT', 'positionCoords': [798.72, 227], 'bid': 9.51}]",140951,1669830928371,strawberries,burrito,5.0200000000000005,9.51,4.489999999999999,burrito,967,981,981,True,i,142450,1499,1669830929871,1500,HRV,HRV_0134,2022-11-30 17:59:36
74,"[{'imgObject': {}, 'id': 'mango', 'src': '/static/foodstim60/mango.jpg', 'key': 'u', 'origWidth': 411, 'origHeight': 411, 'width': 411, 'height': 411, 'widthPercent': 0.45, 'rescaleHeight': False, 'trialN': 74, 'loaded': True, 'loadedTime': 4336, 'positionName': 'LEFT', 'positionCoords': [326.28, 226.5], 'bid': 0.16}, {'imgObject': {}, 'id': 'corn cob', 'src': '/static/foodstim60/corn cob.jpg', 'key': 'i', 'origWidth': 411, 'origHeight': 411, 'width': 411, 'height': 411, 'widthPercent': 0.45, 'rescaleHeight': False, 'trialN': 74, 'loaded': True, 'loadedTime': 4289, 'positionName': 'RIGHT', 'positionCoords': [798.72, 226.5], 'bid': 0.15}]",142451,1669830929872,mango,corn cob,0.16,0.15,-0.010000000000000009,mango,2389,2403,2404,True,u,145371,2920,1669830932791,2919,HRV,HRV_0134,2022-11-30 17:59:36
75,"[{'imgObject': {}, 'id': 'salmon', 'src': '/static/foodstim60/salmon.jpg', 'key': 'u', 'origWidth': 410, 'origHeight': 409, 'width': 410, 'height': 409, 'widthPercent': 0.45, 'rescaleHeight': False, 'trialN': 75, 'loaded': True, 'loadedTime': 4216, 'positionName': 'LEFT', 'positionCoords': [327.28, 227.5], 'bid': 9.59}, {'imgObject': {}, 'id': 'blueberries', 'src': '/static/foodstim60/blueberries.jpg', 'key': 'i', 'origWidth': 411, 'origHeight': 411, 'width': 411, 'height': 411, 'widthPercent': 0.45, 'rescaleHeight': False, 'trialN': 75, 'loaded': True, 'loadedTime': 4517, 'positionName': 'RIGHT', 'positionCoords': [798.72, 226.5], 'bid': 8.48}]",145371,1669830932791,salmon,blueberries,9.59,8.48,-1.1099999999999994,salmon,1765,1776,1775,True,u,147661,2290,1669830935081,2290,HRV,HRV_0134,2022-11-30 17:59:36
76,"[{'imgObject': {}, 'id': 'turkey sandwich', 'src': '/static/foodstim60/turkey sandwich.jpg', 'key': 'u', 'origWidth': 409, 'origHeight': 409, 'width': 409, 'height': 409, 'widthPercent': 0.45, 'rescaleHeight': False, 'trialN': 76, 'loaded': True, 'loadedTime': 4284, 'positionName': 'LEFT', 'positionCoords': [328.28, 227.5], 'bid': 9.25}, {'imgObject': {}, 'id': 'olives', 'src': '/static/foodstim60/olives.jpg', 'key': 'i', 'origWidth': 410, 'origHeight': 410, 'width': 410, 'height': 410, 'widthPercent': 0.45, 'rescaleHeight': False, 'trialN': 76, 'loaded': True, 'loadedTime': 4162, 'positionName': 'RIGHT', 'positionCoords': [798.72, 227], 'bid': 9.01}]",147661,1669830935081,turkey sandwich,olives,9.25,9.01,-0.2400000000000002,turkey sandwich,1257,1272,1272,True,u,149440,1779,1669830936861,1780,HRV,HRV_0134,2022-11-30 17:59:36
77,"[{'imgObject': {}, 'id': 'popsicles', 'src': '/static/foodstim60/popsicles.jpg', 'key': 'u', 'origWidth': 410, 'origHeight': 410, 'width': 410, 'height': 410, 'widthPercent': 0.45, 'rescaleHeight': False, 'trialN': 77, 'loaded': True, 'loadedTime': 4559, 'positionName': 'LEFT', 'positionCoords': [327.28, 227], 'bid': 1.32}, {'imgObject': {}, 'id': 'Grapes', 'src': '/static/foodstim60/Grapes.jpg', 'key': 'i', 'origWidth': 411, 'origHeight': 411, 'width': 411, 'height': 411, 'widthPercent': 0.45, 'rescaleHeight': False, 'trialN': 77, 'loaded': True, 'loadedTime': 4481, 'positionName': 'RIGHT', 'positionCoords': [798.72, 226.5], 'bid': 2.21}]",149440,1669830936861,popsicles,Grapes,1.32,2.21,0.8899999999999999,Grapes,1244,1255,1255,True,i,151200,1760,1669830938620,1759,HRV,HRV_0134,2022-11-30 17:59:36
78,"[{'imgObject': {}, 'id': 'shreddedwheatwithmilk', 'src': '/static/foodstim60/shreddedwheatwithmilk.jpg', 'key': 'u', 'origWidth': 410, 'origHeight': 410, 'width': 410, 'height': 410, 'widthPercent': 0.45, 'rescaleHeight': False, 'trialN': 78, 'loaded': True, 'loadedTime': 4541, 'positionName': 'LEFT', 'positionCoords': [327.28, 227], 'bid': 5.0200000000000005}, {'imgObject': {}, 'id': 'cocktailshrimp', 'src': '/static/foodstim60/cocktailshrimp.jpg', 'key': 'i', 'origWidth': 410, 'origHeight': 410, 'width': 410, 'height': 410, 'widthPercent': 0.45, 'rescaleHeight': False, 'trialN': 78, 'loaded': True, 'loadedTime': 4089, 'positionName': 'RIGHT', 'positionCoords': [798.72, 227], 'bid': 3.47}]",151200,1669830938620,shreddedwheatwithmilk,cocktailshrimp,5.0200000000000005,3.47,-1.5500000000000003,cocktailshrimp,2296,2306,2306,True,i,154020,2820,1669830941441,2821,HRV,HRV_0134,2022-11-30 17:59:36
79,"[{'imgObject': {}, 'id': 'fruitsalad', 'src': '/static/foodstim60/fruitsalad.jpg', 'key': 'u', 'origWidth': 410, 'origHeight': 410, 'width': 410, 'height': 410, 'widthPercent': 0.45, 'rescaleHeight': False, 'trialN': 79, 'loaded': True, 'loadedTime': 4243, 'positionName': 'LEFT', 'positionCoords': [327.28, 227], 'bid': 2.89}, {'imgObject': {}, 'id': 'blueberries', 'src': '/static/foodstim60/blueberries.jpg', 'key': 'i', 'origWidth': 411, 'origHeight': 411, 'width': 411, 'height': 411, 'widthPercent': 0.45, 'rescaleHeight': False, 'trialN': 79, 'loaded': True, 'loadedTime': 4517, 'positionName': 'RIGHT', 'positionCoords': [798.72, 226.5], 'bid': 8.48}]",154020,1669830941441,fruitsalad,blueberries,2.89,8.48,5.59,blueberries,1523,1538,1539,True,i,156071,2051,1669830943491,2050,HRV,HRV_0134,2022-11-30 17:59:36
80,"[{'imgObject': {}, 'id': 'orange slices', 'src': '/static/foodstim60/orange slices.jpg', 'key': 'u', 'origWidth': 409, 'origHeight': 410, 'width': 409, 'height': 410, 'widthPercent': 0.45, 'rescaleHeight': False, 'trialN': 80, 'loaded': True, 'loadedTime': 4267, 'positionName': 'LEFT', 'positionCoords': [328.28, 227], 'bid': 4.08}, {'imgObject': {}, 'id': 'blackbeanswithrice', 'src': '/static/foodstim60/blackbeanswithrice.jpg', 'key': 'i', 'origWidth': 410, 'origHeight': 410, 'width': 410, 'height': 410, 'widthPercent': 0.45, 'rescaleHeight': False, 'trialN': 80, 'loaded': True, 'loadedTime': 4027, 'positionName': 'RIGHT', 'positionCoords': [798.72, 227], 'bid': 2.72}]",156071,1669830943491,orange slices,blackbeanswithrice,4.08,2.72,-1.3599999999999999,blackbeanswithrice,1457,1467,1466,True,i,158050,1979,1669830945471,1980,HRV,HRV_0134,2022-11-30 17:59:36
81,"[{'imgObject': {}, 'id': 'froot loops w milk', 'src': '/static/foodstim60/froot loops w milk.jpg', 'key': 'u', 'origWidth': 410, 'origHeight': 410, 'width': 410, 'height': 410, 'widthPercent': 0.45, 'rescaleHeight': False, 'trialN': 81, 'loaded': True, 'loadedTime': 4502, 'positionName': 'LEFT', 'positionCoords': [327.28, 227], 'bid': 3.86}, {'imgObject': {}, 'id': 'olives', 'src': '/static/foodstim60/olives.jpg', 'key': 'i', 'origWidth': 410, 'origHeight': 410, 'width': 410, 'height': 410, 'widthPercent': 0.45, 'rescaleHeight': False, 'trialN': 81, 'loaded': True, 'loadedTime': 4163, 'positionName': 'RIGHT', 'positionCoords': [798.72, 227], 'bid': 9.01}]",158050,1669830945471,froot loops w milk,olives,3.86,9.01,5.15,olives,1962,1972,1972,True,i,160540,2490,1669830947961,2490,HRV,HRV_0134,2022-11-30 17:59:36
82,"[{'imgObject': {}, 'id': 'pear', 'src': '/static/foodstim60/pear.jpg', 'key': 'u', 'origWidth': 411, 'origHeight': 410, 'width': 411, 'height': 410, 'widthPercent': 0.45, 'rescaleHeight': False, 'trialN': 82, 'loaded': True, 'loadedTime': 4057, 'positionName': 'LEFT', 'positionCoords': [326.28, 227], 'bid': 2}, {'imgObject': {}, 'id': 'corn cob', 'src': '/static/foodstim60/corn cob.jpg', 'key': 'i', 'origWidth': 411, 'origHeight': 411, 'width': 411, 'height': 411, 'widthPercent': 0.45, 'rescaleHeight': False, 'trialN': 82, 'loaded': True, 'loadedTime': 4289, 'positionName': 'RIGHT', 'positionCoords': [798.72, 226.5], 'bid': 0.15}]",160541,1669830947961,pear,corn cob,2.0,0.15,-1.85,pear,1502,1506,1505,True,u,162560,2019,1669830949981,2020,HRV,HRV_0134,2022-11-30 17:59:36
83,"[{'imgObject': {}, 'id': 'tacos', 'src': '/static/foodstim60/tacos.jpg', 'key': 'u', 'origWidth': 411, 'origHeight': 411, 'width': 411, 'height': 411, 'widthPercent': 0.45, 'rescaleHeight': False, 'trialN': 83, 'loaded': True, 'loadedTime': 4274, 'positionName': 'LEFT', 'positionCoords': [326.28, 226.5], 'bid': 9.28}, {'imgObject': {}, 'id': 'burger', 'src': '/static/foodstim60/burger.jpg', 'key': 'i', 'origWidth': 409, 'origHeight': 409, 'width': 409, 'height': 409, 'widthPercent': 0.45, 'rescaleHeight': False, 'trialN': 83, 'loaded': True, 'loadedTime': 4549, 'positionName': 'RIGHT', 'positionCoords': [798.72, 227.5], 'bid': 4.94}]",162560,1669830949981,tacos,burger,9.28,4.94,-4.339999999999999,tacos,1186,1198,1199,True,u,164260,1700,1669830951681,1700,HRV,HRV_0134,2022-11-30 17:59:36
84,"[{'imgObject': {}, 'id': 'lox', 'src': '/static/foodstim60/lox.jpg', 'key': 'u', 'origWidth': 410, 'origHeight': 411, 'width': 410, 'height': 411, 'widthPercent': 0.45, 'rescaleHeight': False, 'trialN': 84, 'loaded': True, 'loadedTime': 4097, 'positionName': 'LEFT', 'positionCoords': [327.28, 226.5], 'bid': 1.87}, {'imgObject': {}, 'id': 'pear', 'src': '/static/foodstim60/pear.jpg', 'key': 'i', 'origWidth': 411, 'origHeight': 410, 'width': 411, 'height': 410, 'widthPercent': 0.45, 'rescaleHeight': False, 'trialN': 84, 'loaded': True, 'loadedTime': 4057, 'positionName': 'RIGHT', 'positionCoords': [798.72, 227], 'bid': 2}]",164261,1669830951681,lox,pear,1.87,2.0,0.1299999999999999,pear,1064,1078,1078,True,i,165840,1579,1669830953261,1580,HRV,HRV_0134,2022-11-30 17:59:36
85,"[{'imgObject': {}, 'id': 'burrito', 'src': '/static/foodstim60/burrito.jpg', 'key': 'u', 'origWidth': 410, 'origHeight': 410, 'width': 410, 'height': 410, 'widthPercent': 0.45, 'rescaleHeight': False, 'trialN': 85, 'loaded': True, 'loadedTime': 4597, 'positionName': 'LEFT', 'positionCoords': [327.28, 227], 'bid': 9.51}, {'imgObject': {}, 'id': 'rigatoni and sauce', 'src': '/static/foodstim60/rigatoni and sauce.jpg', 'key': 'i', 'origWidth': 410, 'origHeight': 411, 'width': 410, 'height': 411, 'widthPercent': 0.45, 'rescaleHeight': False, 'trialN': 85, 'loaded': True, 'loadedTime': 4344, 'positionName': 'RIGHT', 'positionCoords': [798.72, 226.5], 'bid': 9.51}]",165841,1669830953261,burrito,rigatoni and sauce,9.51,9.51,0.0,burrito,1124,1139,1139,True,u,167481,1640,1669830954901,1640,HRV,HRV_0134,2022-11-30 17:59:36
86,"[{'imgObject': {}, 'id': 'salad w chicken', 'src': '/static/foodstim60/salad w chicken.jpg', 'key': 'u', 'origWidth': 411, 'origHeight': 411, 'width': 411, 'height': 411, 'widthPercent': 0.45, 'rescaleHeight': False, 'trialN': 86, 'loaded': True, 'loadedTime': 4080, 'positionName': 'LEFT', 'positionCoords': [326.28, 226.5], 'bid': 9.76}, {'imgObject': {}, 'id': 'avocado', 'src': '/static/foodstim60/avocado.jpg', 'key': 'i', 'origWidth': 409, 'origHeight': 409, 'width': 409, 'height': 409, 'widthPercent': 0.45, 'rescaleHeight': False, 'trialN': 86, 'loaded': True, 'loadedTime': 4528, 'positionName': 'RIGHT', 'positionCoords': [798.72, 227.5], 'bid': 8.32}]",167481,1669830954901,salad w chicken,avocado,9.76,8.32,-1.4399999999999995,salad w chicken,906,926,924,True,u,168921,1440,1669830956341,1440,HRV,HRV_0134,2022-11-30 17:59:36
87,"[{'imgObject': {}, 'id': 'rigatoni', 'src': '/static/foodstim60/rigatoni.jpg', 'key': 'u', 'origWidth': 411, 'origHeight': 411, 'width': 411, 'height': 411, 'widthPercent': 0.45, 'rescaleHeight': False, 'trialN': 87, 'loaded': True, 'loadedTime': 4397, 'positionName': 'LEFT', 'positionCoords': [326.28, 226.5], 'bid': 7.35}, {'imgObject': {}, 'id': 'cherry tomato', 'src': '/static/foodstim60/cherry tomato.jpg', 'key': 'i', 'origWidth': 410, 'origHeight': 410, 'width': 410, 'height': 410, 'widthPercent': 0.45, 'rescaleHeight': False, 'trialN': 87, 'loaded': True, 'loadedTime': 4325, 'positionName': 'RIGHT', 'positionCoords': [798.72, 227], 'bid': 1.83}]",168921,1669830956341,rigatoni,cherry tomato,7.35,1.83,-5.52,rigatoni,1685,1700,1701,True,u,171141,2220,1669830958561,2220,HRV,HRV_0134,2022-11-30 17:59:36
88,"[{'imgObject': {}, 'id': 'chickenfingers', 'src': '/static/foodstim60/chickenfingers.jpg', 'key': 'u', 'origWidth': 410, 'origHeight': 410, 'width': 410, 'height': 410, 'widthPercent': 0.45, 'rescaleHeight': False, 'trialN': 88, 'loaded': True, 'loadedTime': 4512, 'positionName': 'LEFT', 'positionCoords': [327.28, 227], 'bid': 9.84}, {'imgObject': {}, 'id': 'salad w chicken', 'src': '/static/foodstim60/salad w chicken.jpg', 'key': 'i', 'origWidth': 411, 'origHeight': 411, 'width': 411, 'height': 411, 'widthPercent': 0.45, 'rescaleHeight': False, 'trialN': 88, 'loaded': True, 'loadedTime': 4080, 'positionName': 'RIGHT', 'positionCoords': [798.72, 226.5], 'bid': 9.76}]",171141,1669830958561,chickenfingers,salad w chicken,9.84,9.76,-0.08000000000000007,chickenfingers,2323,2335,2334,True,u,173980,2839,1669830961400,2839,HRV,HRV_0134,2022-11-30 17:59:36
89,"[{'imgObject': {}, 'id': 'baked potato', 'src': '/static/foodstim60/baked potato.jpg', 'key': 'u', 'origWidth': 409, 'origHeight': 410, 'width': 409, 'height': 410, 'widthPercent': 0.45, 'rescaleHeight': False, 'trialN': 89, 'loaded': True, 'loadedTime': 4036, 'positionName': 'LEFT', 'positionCoords': [328.28, 227], 'bid': 3.5500000000000003}, {'imgObject': {}, 'id': 'cherry tomato', 'src': '/static/foodstim60/cherry tomato.jpg', 'key': 'i', 'origWidth': 410, 'origHeight': 410, 'width': 410, 'height': 410, 'widthPercent': 0.45, 'rescaleHeight': False, 'trialN': 89, 'loaded': True, 'loadedTime': 4326, 'positionName': 'RIGHT', 'positionCoords': [798.72, 227], 'bid': 1.83}]",173980,1669830961402,baked potato,cherry tomato,3.5500000000000003,1.83,-1.7200000000000002,cherry tomato,2720,2722,2724,True,i,177221,3241,1669830964641,3239,HRV,HRV_0134,2022-11-30 17:59:36
90,"[{'imgObject': {}, 'id': 'eggsalad', 'src': '/static/foodstim60/eggsalad.jpg', 'key': 'u', 'origWidth': 410, 'origHeight': 409, 'width': 410, 'height': 409, 'widthPercent': 0.45, 'rescaleHeight': False, 'trialN': 90, 'loaded': True, 'loadedTime': 4545, 'positionName': 'LEFT', 'positionCoords': [327.28, 227.5], 'bid': 5.0200000000000005}, {'imgObject': {}, 'id': 'raisin bran w milk', 'src': '/static/foodstim60/raisin bran w milk.jpg', 'key': 'i', 'origWidth': 411, 'origHeight': 411, 'width': 411, 'height': 411, 'widthPercent': 0.45, 'rescaleHeight': False, 'trialN': 90, 'loaded': True, 'loadedTime': 4135, 'positionName': 'RIGHT', 'positionCoords': [798.72, 226.5], 'bid': 5.03}]",198289,1669830985709,eggsalad,raisin bran w milk,5.0200000000000005,5.03,0.009999999999999787,eggsalad,1817,1836,1836,True,u,200641,2352,1669830988061,2352,HRV,HRV_0134,2022-11-30 17:59:36
91,"[{'imgObject': {}, 'id': 'cherries', 'src': '/static/foodstim60/cherries.jpg', 'key': 'u', 'origWidth': 410, 'origHeight': 411, 'width': 410, 'height': 411, 'widthPercent': 0.45, 'rescaleHeight': False, 'trialN': 91, 'loaded': True, 'loadedTime': 4597, 'positionName': 'LEFT', 'positionCoords': [327.28, 226.5], 'bid': 7.26}, {'imgObject': {}, 'id': 'granola w milk', 'src': '/static/foodstim60/granola w milk.jpg', 'key': 'i', 'origWidth': 410, 'origHeight': 410, 'width': 410, 'height': 410, 'widthPercent': 0.45, 'rescaleHeight': False, 'trialN': 91, 'loaded': True, 'loadedTime': 4575, 'positionName': 'RIGHT', 'positionCoords': [798.72, 227], 'bid': 5.0600000000000005}]",200641,1669830988062,cherries,granola w milk,7.26,5.0600000000000005,-2.1999999999999993,cherries,1417,1424,1424,True,u,202581,1940,1669830990001,1939,HRV,HRV_0134,2022-11-30 17:59:36
92,"[{'imgObject': {}, 'id': 'turkeysandwich', 'src': '/static/foodstim60/turkeysandwich.jpg', 'key': 'u', 'origWidth': 409, 'origHeight': 409, 'width': 409, 'height': 409, 'widthPercent': 0.45, 'rescaleHeight': False, 'trialN': 92, 'loaded': True, 'loadedTime': 4251, 'positionName': 'LEFT', 'positionCoords': [328.28, 227.5], 'bid': 7.57}, {'imgObject': {}, 'id': 'luckycharms', 'src': '/static/foodstim60/luckycharms.jpg', 'key': 'i', 'origWidth': 410, 'origHeight': 409, 'width': 410, 'height': 409, 'widthPercent': 0.45, 'rescaleHeight': False, 'trialN': 92, 'loaded': True, 'loadedTime': 4425, 'positionName': 'RIGHT', 'positionCoords': [798.72, 227.5], 'bid': 8.09}]",202581,1669830990001,turkeysandwich,luckycharms,7.57,8.09,0.5199999999999996,turkeysandwich,1353,1363,1362,True,u,204461,1880,1669830991881,1880,HRV,HRV_0134,2022-11-30 17:59:36
93,"[{'imgObject': {}, 'id': 'cherries', 'src': '/static/foodstim60/cherries.jpg', 'key': 'u', 'origWidth': 410, 'origHeight': 411, 'width': 410, 'height': 411, 'widthPercent': 0.45, 'rescaleHeight': False, 'trialN': 93, 'loaded': True, 'loadedTime': 4600, 'positionName': 'LEFT', 'positionCoords': [327.28, 226.5], 'bid': 7.26}, {'imgObject': {}, 'id': 'edamame', 'src': '/static/foodstim60/edamame.jpg', 'key': 'i', 'origWidth': 409, 'origHeight': 410, 'width': 409, 'height': 410, 'widthPercent': 0.45, 'rescaleHeight': False, 'trialN': 93, 'loaded': True, 'loadedTime': 4487, 'positionName': 'RIGHT', 'positionCoords': [798.72, 227], 'bid': 1.45}]",204461,1669830991881,cherries,edamame,7.26,1.45,-5.81,cherries,1784,1794,1793,True,u,206771,2310,1669830994191,2310,HRV,HRV_0134,2022-11-30 17:59:36
94,"[{'imgObject': {}, 'id': 'froot loops w milk', 'src': '/static/foodstim60/froot loops w milk.jpg', 'key': 'u', 'origWidth': 410, 'origHeight': 410, 'width': 410, 'height': 410, 'widthPercent': 0.45, 'rescaleHeight': False, 'trialN': 94, 'loaded': True, 'loadedTime': 4502, 'positionName': 'LEFT', 'positionCoords': [327.28, 227], 'bid': 3.86}, {'imgObject': {}, 'id': 'yogurt no spoon', 'src': '/static/foodstim60/yogurt no spoon.jpg', 'key': 'i', 'origWidth': 411, 'origHeight': 410, 'width': 411, 'height': 410, 'widthPercent': 0.45, 'rescaleHeight': False, 'trialN': 94, 'loaded': True, 'loadedTime': 4497, 'positionName': 'RIGHT', 'positionCoords': [798.72, 227], 'bid': 0.59}]",206771,1669830994191,froot loops w milk,yogurt no spoon,3.86,0.59,-3.27,froot loops w milk,1788,1799,1798,True,u,209070,2299,1669830996491,2300,HRV,HRV_0134,2022-11-30 17:59:36
95,"[{'imgObject': {}, 'id': 'eggsalad', 'src': '/static/foodstim60/eggsalad.jpg', 'key': 'u', 'origWidth': 410, 'origHeight': 409, 'width': 410, 'height': 409, 'widthPercent': 0.45, 'rescaleHeight': False, 'trialN': 95, 'loaded': True, 'loadedTime': 4545, 'positionName': 'LEFT', 'positionCoords': [327.28, 227.5], 'bid': 5.0200000000000005}, {'imgObject': {}, 'id': 'bagel and cc', 'src': '/static/foodstim60/bagel and cc.jpg', 'key': 'i', 'origWidth': 410, 'origHeight': 410, 'width': 410, 'height': 410, 'widthPercent': 0.45, 'rescaleHeight': False, 'trialN': 95, 'loaded': True, 'loadedTime': 4009, 'positionName': 'RIGHT', 'positionCoords': [798.72, 227], 'bid': 7.05}]",209070,1669830996491,eggsalad,bagel and cc,5.0200000000000005,7.05,2.0299999999999994,bagel and cc,1270,1275,1276,True,i,210850,1780,1669830998271,1780,HRV,HRV_0134,2022-11-30 17:59:36
96,"[{'imgObject': {}, 'id': 'turkey sandwich', 'src': '/static/foodstim60/turkey sandwich.jpg', 'key': 'u', 'origWidth': 409, 'origHeight': 409, 'width': 409, 'height': 409, 'widthPercent': 0.45, 'rescaleHeight': False, 'trialN': 96, 'loaded': True, 'loadedTime': 4284, 'positionName': 'LEFT', 'positionCoords': [328.28, 227.5], 'bid': 9.25}, {'imgObject': {}, 'id': 'turkeysandwich', 'src': '/static/foodstim60/turkeysandwich.jpg', 'key': 'i', 'origWidth': 409, 'origHeight': 409, 'width': 409, 'height': 409, 'widthPercent': 0.45, 'rescaleHeight': False, 'trialN': 96, 'loaded': True, 'loadedTime': 4251, 'positionName': 'RIGHT', 'positionCoords': [798.72, 227.5], 'bid': 7.57}]",210851,1669830998271,turkey sandwich,turkeysandwich,9.25,7.57,-1.6799999999999997,turkey sandwich,1395,1418,1417,True,u,212771,1920,1669831000191,1920,HRV,HRV_0134,2022-11-30 17:59:36
97,"[{'imgObject': {}, 'id': 'popsicles', 'src': '/static/foodstim60/popsicles.jpg', 'key': 'u', 'origWidth': 410, 'origHeight': 410, 'width': 410, 'height': 410, 'widthPercent': 0.45, 'rescaleHeight': False, 'trialN': 97, 'loaded': True, 'loadedTime': 4559, 'positionName': 'LEFT', 'positionCoords': [327.28, 227], 'bid': 1.32}, {'imgObject': {}, 'id': 'cherry tomato', 'src': '/static/foodstim60/cherry tomato.jpg', 'key': 'i', 'origWidth': 410, 'origHeight': 410, 'width': 410, 'height': 410, 'widthPercent': 0.45, 'rescaleHeight': False, 'trialN': 97, 'loaded': True, 'loadedTime': 4326, 'positionName': 'RIGHT', 'positionCoords': [798.72, 227], 'bid': 1.83}]",212771,1669831000191,popsicles,cherry tomato,1.32,1.83,0.51,cherry tomato,1335,1346,1345,True,i,214630,1859,1669831002052,1861,HRV,HRV_0134,2022-11-30 17:59:36
98,"[{'imgObject': {}, 'id': 'eggsalad', 'src': '/static/foodstim60/eggsalad.jpg', 'key': 'u', 'origWidth': 410, 'origHeight': 409, 'width': 410, 'height': 409, 'widthPercent': 0.45, 'rescaleHeight': False, 'trialN': 98, 'loaded': True, 'loadedTime': 4545, 'positionName': 'LEFT', 'positionCoords': [327.28, 227.5], 'bid': 5.0200000000000005}, {'imgObject': {}, 'id': 'salmon', 'src': '/static/foodstim60/salmon.jpg', 'key': 'i', 'origWidth': 410, 'origHeight': 409, 'width': 410, 'height': 409, 'widthPercent': 0.45, 'rescaleHeight': False, 'trialN': 98, 'loaded': True, 'loadedTime': 4216, 'positionName': 'RIGHT', 'positionCoords': [798.72, 227.5], 'bid': 9.59}]",214631,1669831002052,eggsalad,salmon,5.0200000000000005,9.59,4.569999999999999,salmon,1022,1035,1035,True,i,216170,1539,1669831003591,1539,HRV,HRV_0134,2022-11-30 17:59:36
99,"[{'imgObject': {}, 'id': 'corn cob', 'src': '/static/foodstim60/corn cob.jpg', 'key': 'u', 'origWidth': 411, 'origHeight': 411, 'width': 411, 'height': 411, 'widthPercent': 0.45, 'rescaleHeight': False, 'trialN': 99, 'loaded': True, 'loadedTime': 4289, 'positionName': 'LEFT', 'positionCoords': [326.28, 226.5], 'bid': 0.15}, {'imgObject': {}, 'id': 'seaweed', 'src': '/static/foodstim60/seaweed.jpg', 'key': 'i', 'origWidth': 410, 'origHeight': 410, 'width': 410, 'height': 410, 'widthPercent': 0.45, 'rescaleHeight': False, 'trialN': 99, 'loaded': True, 'loadedTime': 4376, 'positionName': 'RIGHT', 'positionCoords': [798.72, 227], 'bid': 2.95}]",216170,1669831003591,corn cob,seaweed,0.15,2.95,2.8000000000000003,seaweed,1405,1417,1418,True,i,218091,1921,1669831005511,1920,HRV,HRV_0134,2022-11-30 17:59:36
100,"[{'imgObject': {}, 'id': 'bagel plain', 'src': '/static/foodstim60/bagel plain.jpg', 'key': 'u', 'origWidth': 410, 'origHeight': 410, 'width': 410, 'height': 410, 'widthPercent': 0.45, 'rescaleHeight': False, 'trialN': 100, 'loaded': True, 'loadedTime': 4360, 'positionName': 'LEFT', 'positionCoords': [327.28, 227], 'bid': 6.45}, {'imgObject': {}, 'id': 'eggs', 'src': '/static/foodstim60/eggs.jpg', 'key': 'i', 'origWidth': 409, 'origHeight': 409, 'width': 409, 'height': 409, 'widthPercent': 0.45, 'rescaleHeight': False, 'trialN': 100, 'loaded': True, 'loadedTime': 4003, 'positionName': 'RIGHT', 'positionCoords': [798.72, 227.5], 'bid': 6.3100000000000005}]",218091,1669831005512,bagel plain,eggs,6.45,6.3100000000000005,-0.13999999999999968,eggs,1358,1367,1368,True,i,219970,1879,1669831007391,1879,HRV,HRV_0134,2022-11-30 17:59:36
101,"[{'imgObject': {}, 'id': 'burger', 'src': '/static/foodstim60/burger.jpg', 'key': 'u', 'origWidth': 409, 'origHeight': 409, 'width': 409, 'height': 409, 'widthPercent': 0.45, 'rescaleHeight': False, 'trialN': 101, 'loaded': True, 'loadedTime': 4549, 'positionName': 'LEFT', 'positionCoords': [328.28, 227.5], 'bid': 4.94}, {'imgObject': {}, 'id': 'veggieswithdip', 'src': '/static/foodstim60/veggieswithdip.jpg', 'key': 'i', 'origWidth': 409, 'origHeight': 409, 'width': 409, 'height': 409, 'widthPercent': 0.45, 'rescaleHeight': False, 'trialN': 101, 'loaded': True, 'loadedTime': 4405, 'positionName': 'RIGHT', 'positionCoords': [798.72, 227.5], 'bid': 6.1000000000000005}]",219970,1669831007391,burger,veggieswithdip,4.94,6.1000000000000005,1.1600000000000001,veggieswithdip,1666,1690,1690,True,i,222170,2200,1669831009591,2200,HRV,HRV_0134,2022-11-30 17:59:36
102,"[{'imgObject': {}, 'id': 'blueberries', 'src': '/static/foodstim60/blueberries.jpg', 'key': 'u', 'origWidth': 411, 'origHeight': 411, 'width': 411, 'height': 411, 'widthPercent': 0.45, 'rescaleHeight': False, 'trialN': 102, 'loaded': True, 'loadedTime': 4518, 'positionName': 'LEFT', 'positionCoords': [326.28, 226.5], 'bid': 8.48}, {'imgObject': {}, 'id': 'omelette', 'src': '/static/foodstim60/omelette.jpg', 'key': 'i', 'origWidth': 410, 'origHeight': 409, 'width': 410, 'height': 409, 'widthPercent': 0.45, 'rescaleHeight': False, 'trialN': 102, 'loaded': True, 'loadedTime': 4104, 'positionName': 'RIGHT', 'positionCoords': [798.72, 227.5], 'bid': 7.47}]",222171,1669831009591,blueberries,omelette,8.48,7.47,-1.0100000000000007,blueberries,997,1012,1012,True,u,223691,1520,1669831011111,1520,HRV,HRV_0134,2022-11-30 17:59:36
103,"[{'imgObject': {}, 'id': 'cherries', 'src': '/static/foodstim60/cherries.jpg', 'key': 'u', 'origWidth': 410, 'origHeight': 411, 'width': 410, 'height': 411, 'widthPercent': 0.45, 'rescaleHeight': False, 'trialN': 103, 'loaded': True, 'loadedTime': 4600, 'positionName': 'LEFT', 'positionCoords': [327.28, 226.5], 'bid': 7.26}, {'imgObject': {}, 'id': 'avocado', 'src': '/static/foodstim60/avocado.jpg', 'key': 'i', 'origWidth': 409, 'origHeight': 409, 'width': 409, 'height': 409, 'widthPercent': 0.45, 'rescaleHeight': False, 'trialN': 103, 'loaded': True, 'loadedTime': 4528, 'positionName': 'RIGHT', 'positionCoords': [798.72, 227.5], 'bid': 8.32}]",223691,1669831011111,cherries,avocado,7.26,8.32,1.0600000000000005,cherries,2165,2180,2180,True,u,226391,2700,1669831013811,2700,HRV,HRV_0134,2022-11-30 17:59:36
104,"[{'imgObject': {}, 'id': 'cheerios', 'src': '/static/foodstim60/cheerios.jpg', 'key': 'u', 'origWidth': 409, 'origHeight': 410, 'width': 409, 'height': 410, 'widthPercent': 0.45, 'rescaleHeight': False, 'trialN': 104, 'loaded': True, 'loadedTime': 4568, 'positionName': 'LEFT', 'positionCoords': [328.28, 227], 'bid': 5.54}, {'imgObject': {}, 'id': 'hashbrowns', 'src': '/static/foodstim60/hashbrowns.jpg', 'key': 'i', 'origWidth': 411, 'origHeight': 410, 'width': 411, 'height': 410, 'widthPercent': 0.45, 'rescaleHeight': False, 'trialN': 104, 'loaded': True, 'loadedTime': 4019, 'positionName': 'RIGHT', 'positionCoords': [798.72, 227], 'bid': 2.36}]",226391,1669831013811,cheerios,hashbrowns,5.54,2.36,-3.18,cheerios,1137,1160,1160,True,u,228070,1679,1669831015491,1680,HRV,HRV_0134,2022-11-30 17:59:36
105,"[{'imgObject': {}, 'id': 'cheerios', 'src': '/static/foodstim60/cheerios.jpg', 'key': 'u', 'origWidth': 409, 'origHeight': 410, 'width': 409, 'height': 410, 'widthPercent': 0.45, 'rescaleHeight': False, 'trialN': 105, 'loaded': True, 'loadedTime': 4568, 'positionName': 'LEFT', 'positionCoords': [328.28, 227], 'bid': 5.54}, {'imgObject': {}, 'id': 'raisin bran w milk', 'src': '/static/foodstim60/raisin bran w milk.jpg', 'key': 'i', 'origWidth': 411, 'origHeight': 411, 'width': 411, 'height': 411, 'widthPercent': 0.45, 'rescaleHeight': False, 'trialN': 105, 'loaded': True, 'loadedTime': 4135, 'positionName': 'RIGHT', 'positionCoords': [798.72, 226.5], 'bid': 5.03}]",228070,1669831015491,cheerios,raisin bran w milk,5.54,5.03,-0.5099999999999998,raisin bran w milk,1708,1717,1717,True,i,230300,2230,1669831017721,2230,HRV,HRV_0134,2022-11-30 17:59:36
106,"[{'imgObject': {}, 'id': 'hashbrowns', 'src': '/static/foodstim60/hashbrowns.jpg', 'key': 'u', 'origWidth': 411, 'origHeight': 410, 'width': 411, 'height': 410, 'widthPercent': 0.45, 'rescaleHeight': False, 'trialN': 106, 'loaded': True, 'loadedTime': 4019, 'positionName': 'LEFT', 'positionCoords': [326.28, 227], 'bid': 2.36}, {'imgObject': {}, 'id': 'fruitsalad', 'src': '/static/foodstim60/fruitsalad.jpg', 'key': 'i', 'origWidth': 410, 'origHeight': 410, 'width': 410, 'height': 410, 'widthPercent': 0.45, 'rescaleHeight': False, 'trialN': 106, 'loaded': True, 'loadedTime': 4243, 'positionName': 'RIGHT', 'positionCoords': [798.72, 227], 'bid': 2.89}]",230300,1669831017721,hashbrowns,fruitsalad,2.36,2.89,0.5300000000000002,fruitsalad,2337,2348,2349,True,i,233161,2861,1669831020581,2860,HRV,HRV_0134,2022-11-30 17:59:36
107,"[{'imgObject': {}, 'id': 'mac & cheese', 'src': '/static/foodstim60/mac & cheese.jpg', 'key': 'u', 'origWidth': 410, 'origHeight': 410, 'width': 410, 'height': 410, 'widthPercent': 0.45, 'rescaleHeight': False, 'trialN': 107, 'loaded': True, 'loadedTime': 4304, 'positionName': 'LEFT', 'positionCoords': [327.28, 227], 'bid': 8.35}, {'imgObject': {}, 'id': 'luckycharms', 'src': '/static/foodstim60/luckycharms.jpg', 'key': 'i', 'origWidth': 410, 'origHeight': 409, 'width': 410, 'height': 409, 'widthPercent': 0.45, 'rescaleHeight': False, 'trialN': 107, 'loaded': True, 'loadedTime': 4425, 'positionName': 'RIGHT', 'positionCoords': [798.72, 227.5], 'bid': 8.09}]",233161,1669831020581,mac & cheese,luckycharms,8.35,8.09,-0.2599999999999998,luckycharms,1601,1611,1610,True,i,235291,2130,1669831022711,2130,HRV,HRV_0134,2022-11-30 17:59:36
108,"[{'imgObject': {}, 'id': 'lox', 'src': '/static/foodstim60/lox.jpg', 'key': 'u', 'origWidth': 410, 'origHeight': 411, 'width': 410, 'height': 411, 'widthPercent': 0.45, 'rescaleHeight': False, 'trialN': 108, 'loaded': True, 'loadedTime': 4097, 'positionName': 'LEFT', 'positionCoords': [327.28, 226.5], 'bid': 1.87}, {'imgObject': {}, 'id': 'steak', 'src': '/static/foodstim60/steak.jpg', 'key': 'i', 'origWidth': 410, 'origHeight': 410, 'width': 410, 'height': 410, 'widthPercent': 0.45, 'rescaleHeight': False, 'trialN': 108, 'loaded': True, 'loadedTime': 4508, 'positionName': 'RIGHT', 'positionCoords': [798.72, 227], 'bid': 1.9}]",235291,1669831022711,lox,steak,1.87,1.9,0.029999999999999805,steak,1189,1208,1207,True,i,237011,1720,1669831024431,1720,HRV,HRV_0134,2022-11-30 17:59:36
109,"[{'imgObject': {}, 'id': 'avocado', 'src': '/static/foodstim60/avocado.jpg', 'key': 'u', 'origWidth': 409, 'origHeight': 409, 'width': 409, 'height': 409, 'widthPercent': 0.45, 'rescaleHeight': False, 'trialN': 109, 'loaded': True, 'loadedTime': 4528, 'positionName': 'LEFT', 'positionCoords': [328.28, 227.5], 'bid': 8.32}, {'imgObject': {}, 'id': 'turkeysandwich', 'src': '/static/foodstim60/turkeysandwich.jpg', 'key': 'i', 'origWidth': 409, 'origHeight': 409, 'width': 409, 'height': 409, 'widthPercent': 0.45, 'rescaleHeight': False, 'trialN': 109, 'loaded': True, 'loadedTime': 4251, 'positionName': 'RIGHT', 'positionCoords': [798.72, 227.5], 'bid': 7.57}]",237011,1669831024431,avocado,turkeysandwich,8.32,7.57,-0.75,avocado,1923,1936,1935,True,u,239451,2440,1669831026871,2440,HRV,HRV_0134,2022-11-30 17:59:36
110,"[{'imgObject': {}, 'id': 'strawberries', 'src': '/static/foodstim60/strawberries.jpg', 'key': 'u', 'origWidth': 410, 'origHeight': 410, 'width': 410, 'height': 410, 'widthPercent': 0.45, 'rescaleHeight': False, 'trialN': 110, 'loaded': True, 'loadedTime': 4044, 'positionName': 'LEFT', 'positionCoords': [327.28, 227], 'bid': 5.0200000000000005}, {'imgObject': {}, 'id': 'bagel plain', 'src': '/static/foodstim60/bagel plain.jpg', 'key': 'i', 'origWidth': 410, 'origHeight': 410, 'width': 410, 'height': 410, 'widthPercent': 0.45, 'rescaleHeight': False, 'trialN': 110, 'loaded': True, 'loadedTime': 4360, 'positionName': 'RIGHT', 'positionCoords': [798.72, 227], 'bid': 6.45}]",239451,1669831026871,strawberries,bagel plain,5.0200000000000005,6.45,1.4299999999999997,bagel plain,1436,1455,1455,True,i,241410,1959,1669831028831,1960,HRV,HRV_0134,2022-11-30 17:59:36
111,"[{'imgObject': {}, 'id': 'cantaloupe', 'src': '/static/foodstim60/cantaloupe.jpg', 'key': 'u', 'origWidth': 409, 'origHeight': 409, 'width': 409, 'height': 409, 'widthPercent': 0.45, 'rescaleHeight': False, 'trialN': 111, 'loaded': True, 'loadedTime': 4351, 'positionName': 'LEFT', 'positionCoords': [328.28, 227.5], 'bid': 7.1000000000000005}, {'imgObject': {}, 'id': 'popsicles', 'src': '/static/foodstim60/popsicles.jpg', 'key': 'i', 'origWidth': 410, 'origHeight': 410, 'width': 410, 'height': 410, 'widthPercent': 0.45, 'rescaleHeight': False, 'trialN': 111, 'loaded': True, 'loadedTime': 4559, 'positionName': 'RIGHT', 'positionCoords': [798.72, 227], 'bid': 1.32}]",241410,1669831028831,cantaloupe,popsicles,7.1000000000000005,1.32,-5.78,cantaloupe,1461,1477,1478,True,u,243401,1991,1669831030821,1990,HRV,HRV_0134,2022-11-30 17:59:36
112,"[{'imgObject': {}, 'id': 'roastedpotatoes', 'src': '/static/foodstim60/roastedpotatoes.jpg', 'key': 'u', 'origWidth': 409, 'origHeight': 410, 'width': 409, 'height': 410, 'widthPercent': 0.45, 'rescaleHeight': False, 'trialN': 112, 'loaded': True, 'loadedTime': 4260, 'positionName': 'LEFT', 'positionCoords': [328.28, 227], 'bid': 9.1}, {'imgObject': {}, 'id': 'bagel and cc', 'src': '/static/foodstim60/bagel and cc.jpg', 'key': 'i', 'origWidth': 410, 'origHeight': 410, 'width': 410, 'height': 410, 'widthPercent': 0.45, 'rescaleHeight': False, 'trialN': 112, 'loaded': True, 'loadedTime': 4009, 'positionName': 'RIGHT', 'positionCoords': [798.72, 227], 'bid': 7.05}]",243401,1669831030821,roastedpotatoes,bagel and cc,9.1,7.05,-2.05,roastedpotatoes,1376,1397,1396,True,u,245301,1900,1669831032721,1900,HRV,HRV_0134,2022-11-30 17:59:36
113,"[{'imgObject': {}, 'id': 'yogurt no spoon', 'src': '/static/foodstim60/yogurt no spoon.jpg', 'key': 'u', 'origWidth': 411, 'origHeight': 410, 'width': 411, 'height': 410, 'widthPercent': 0.45, 'rescaleHeight': False, 'trialN': 113, 'loaded': True, 'loadedTime': 4497, 'positionName': 'LEFT', 'positionCoords': [326.28, 227], 'bid': 0.59}, {'imgObject': {}, 'id': 'steak', 'src': '/static/foodstim60/steak.jpg', 'key': 'i', 'origWidth': 410, 'origHeight': 410, 'width': 410, 'height': 410, 'widthPercent': 0.45, 'rescaleHeight': False, 'trialN': 113, 'loaded': True, 'loadedTime': 4508, 'positionName': 'RIGHT', 'positionCoords': [798.72, 227], 'bid': 1.9}]",245301,1669831032721,yogurt no spoon,steak,0.59,1.9,1.31,yogurt no spoon,1399,1420,1419,True,u,247220,1919,1669831034641,1920,HRV,HRV_0134,2022-11-30 17:59:36
114,"[{'imgObject': {}, 'id': 'grilled chicken strips', 'src': '/static/foodstim60/grilled chicken strips.jpg', 'key': 'u', 'origWidth': 410, 'origHeight': 411, 'width': 410, 'height': 411, 'widthPercent': 0.45, 'rescaleHeight': False, 'trialN': 114, 'loaded': True, 'loadedTime': 4588, 'positionName': 'LEFT', 'positionCoords': [327.28, 226.5], 'bid': 9.62}, {'imgObject': {}, 'id': 'granola w milk', 'src': '/static/foodstim60/granola w milk.jpg', 'key': 'i', 'origWidth': 410, 'origHeight': 410, 'width': 410, 'height': 410, 'widthPercent': 0.45, 'rescaleHeight': False, 'trialN': 114, 'loaded': True, 'loadedTime': 4575, 'positionName': 'RIGHT', 'positionCoords': [798.72, 227], 'bid': 5.0600000000000005}]",247221,1669831034641,grilled chicken strips,granola w milk,9.62,5.0600000000000005,-4.559999999999999,grilled chicken strips,1369,1378,1377,True,u,249110,1889,1669831036531,1890,HRV,HRV_0134,2022-11-30 17:59:36
115,"[{'imgObject': {}, 'id': 'blackbeanswithrice', 'src': '/static/foodstim60/blackbeanswithrice.jpg', 'key': 'u', 'origWidth': 410, 'origHeight': 410, 'width': 410, 'height': 410, 'widthPercent': 0.45, 'rescaleHeight': False, 'trialN': 115, 'loaded': True, 'loadedTime': 4027, 'positionName': 'LEFT', 'positionCoords': [327.28, 227], 'bid': 2.72}, {'imgObject': {}, 'id': 'ice cream sundae 002', 'src': '/static/foodstim60/ice cream sundae 002.jpg', 'key': 'i', 'origWidth': 409, 'origHeight': 409, 'width': 409, 'height': 409, 'widthPercent': 0.45, 'rescaleHeight': False, 'trialN': 115, 'loaded': True, 'loadedTime': 4533, 'positionName': 'RIGHT', 'positionCoords': [798.72, 227.5], 'bid': 5.8}]",249110,1669831036531,blackbeanswithrice,ice cream sundae 002,2.72,5.8,3.0799999999999996,ice cream sundae 002,2324,2338,2339,True,i,251951,2841,1669831039371,2840,HRV,HRV_0134,2022-11-30 17:59:36
116,"[{'imgObject': {}, 'id': 'hotdog w must', 'src': '/static/foodstim60/hotdog w must.jpg', 'key': 'u', 'origWidth': 409, 'origHeight': 409, 'width': 409, 'height': 409, 'widthPercent': 0.45, 'rescaleHeight': False, 'trialN': 116, 'loaded': True, 'loadedTime': 4389, 'positionName': 'LEFT', 'positionCoords': [328.28, 227.5], 'bid': 7.52}, {'imgObject': {}, 'id': 'sweetpotato', 'src': '/static/foodstim60/sweetpotato.jpg', 'key': 'i', 'origWidth': 410, 'origHeight': 410, 'width': 410, 'height': 410, 'widthPercent': 0.45, 'rescaleHeight': False, 'trialN': 116, 'loaded': True, 'loadedTime': 4315, 'positionName': 'RIGHT', 'positionCoords': [798.72, 227], 'bid': 8.55}]",251951,1669831039371,hotdog w must,sweetpotato,7.52,8.55,1.0300000000000011,hotdog w must,2123,2141,2140,True,u,254611,2660,1669831042031,2660,HRV,HRV_0134,2022-11-30 17:59:36
117,"[{'imgObject': {}, 'id': 'corn cob', 'src': '/static/foodstim60/corn cob.jpg', 'key': 'u', 'origWidth': 411, 'origHeight': 411, 'width': 411, 'height': 411, 'widthPercent': 0.45, 'rescaleHeight': False, 'trialN': 117, 'loaded': True, 'loadedTime': 4289, 'positionName': 'LEFT', 'positionCoords': [326.28, 226.5], 'bid': 0.15}, {'imgObject': {}, 'id': 'raspberries', 'src': '/static/foodstim60/raspberries.jpg', 'key': 'i', 'origWidth': 411, 'origHeight': 411, 'width': 411, 'height': 411, 'widthPercent': 0.45, 'rescaleHeight': False, 'trialN': 117, 'loaded': True, 'loadedTime': 4411, 'positionName': 'RIGHT', 'positionCoords': [798.72, 226.5], 'bid': 6.0600000000000005}]",254611,1669831042031,corn cob,raspberries,0.15,6.0600000000000005,5.91,raspberries,1245,1259,1259,True,i,256371,1760,1669831043792,1761,HRV,HRV_0134,2022-11-30 17:59:36
