success,trial_type,trial_index,time_elapsed,internal_node_id,Block,TrialNumber,TrialTime,trialTimeDiff,FPS_avg,FPS_med,FPS_mode,TrialDur,winResizeTime,rt,block,button_pressed,MotCoh,MotDir,ColCoh,Color,ChoiceKey,Choice,Accuracy,RT,nFrames,FPS,PPD,missTrial,missTrialMsg,onsetDelay,fullScreenExitTime,canvCenter,TrialType,Score,BlockTrial,stimulus,button_labels,exp,subjectId,date
True,fullscreen,0,2628,0.0-0.0,0.0,1.0,,,,,,,,,,,,,,,,,,,,,,,,,,,,,,,,HRV,HRV_0093,2022-12-01 06:21:48
,wl-check-fps,1,7628,0.0-1.0,0.0,2.0,"[2968.6, 2977.4, 2994.3, 3012.9, 3028.3, 3045.2, 3062.1, 3078.7, 3095.1, 3112.4, 3128.6, 3144.1, 3162.4, 3178.9, 3194.7, 3212.4, 3228.4, 3245.9, 3262.4, 3278.8, 3295.3, 3311.5, 3328.5, 3345.1, 3360.6, 3378.3, 3395.6, 3412.3, 3429.1, 3444.8, 3462, 3477.9, 3495.7, 3511.7, 3528.8, 3545.4, 3562, 3578.4, 3595.5, 3612.9, 3628.6, 3645.6, 3662.1, 3679.4, 3695.9, 3711.5, 3729, 3745.2, 3762.4, 3778.9, 3796, 3812.1, 3828.1, 3845.3, 3862.4, 3879, 3896.1, 3912.1, 3929.1, 3944.9, 3962.5, 3978.7, 3995.5, 4012.4, 4029, 4046.5, 4062.9, 4078.9, 4094.8, 4112.2, 4129, 4145.5, 4162.1, 4178.9, 4195.8, 4212.5, 4228.6, 4245.7, 4262.8, 4278.4, 4296.1, 4312.5, 4328, 4344.6, 4361.8, 4379.2, 4396.1, 4412.3, 4429.5, 4445.8, 4462.3, 4478.2, 4495.2, 4512.7, 4529.9, 4546, 4562.8, 4579.1, 4595.8, 4611.6, 4629, 4645.9, 4662.8, 4679.8, 4695.8, 4712.6, 4729.4, 4746.2, 4762.2, 4779.5, 4796.6, 4812.8, 4828.8, 4845.6, 4861.9, 4879.6, 4895.9, 4913.3, 4929.8, 4945.4, 4962.9, 4979.6, 4996.5, 5013.1, 5029.9, 5046.3, 5062.9, 5079.2, 5095.3, 5112.9, 5129.8, 5145.7, 5162.9, 5180.4, 5196.3, 5211.9, 5229.6, 5245, 5263.5, 5278.7, 5296.1, 5312.8, 5328.6, 5345.7, 5362.5, 5379.2, 5395.1, 5412.3, 5429.7, 5446.9, 5462.6, 5479.4, 5496.2, 5513.3, 5529.5, 5546, 5563.4, 5579.7, 5595.7, 5613.4, 5629.9, 5645.7, 5663.5, 5679.6, 5696.1, 5712.8, 5729.1, 5746.5, 5763.2, 5780, 5796, 5813.4, 5830.7, 5847.8, 5862.7, 5879.7, 5897.2, 5913.7, 5930.8, 5947, 5963.1, 5980.6, 5996, 6013.3, 6029.6, 6045.7, 6062.9, 6079.8, 6096.9, 6112.7, 6130.6, 6146.2, 6163, 6179.2, 6196.1, 6213, 6229.5, 6246.2, 6263.1, 6280, 6297.2, 6312.4, 6329.7, 6346.9, 6363.3, 6380.6, 6397, 6413.8, 6430.3, 6447.5, 6463.1, 6480.5, 6496.7, 6512.7, 6529.8, 6547.4, 6564, 6579.6, 6596.6, 6613.3, 6630, 6646.6, 6663.6, 6680, 6697, 6712.7, 6730.1, 6747, 6764.1, 6780.5, 6797, 6812.9, 6829.8, 6847, 6863.6, 6880.7, 6896.9, 6913.8, 6930.3, 6946.7, 6963.2, 6979.7, 6997.3, 7013.5, 7030.7, 7046.8, 7063.4, 7080.7, 7097.6, 7113.5, 7130.3, 7147.1, 7163.8, 7180, 7196.9, 7213.9, 7231, 7246.7, 7264.3, 7280.6, 7297.7, 7314.4, 7330.9, 7347.2, 7363.8, 7380.4, 7397.2, 7414.2, 7430.4, 7447.2, 7464.3, 7480.1, 7496.6, 7514.1, 7530.4, 7547.6, 7563.3, 7580.2, 7596.9, 7612.8, 7630, 7647.4, 7664.5, 7679.8, 7696.8, 7714.1, 7730.1, 7747.6, 7763.1, 7780.8, 7797.6, 7813.3, 7830.3, 7847.7, 7863.5, 7879.8, 7896.8, 7914.3, 7930.5, 7947.7]","[1.5, 8.8, 16.9, 18.6, 15.4, 16.9, 16.9, 16.6, 16.4, 17.3, 16.2, 15.5, 18.3, 16.5, 15.8, 17.7, 16, 17.5, 16.5, 16.4, 16.5, 16.2, 17, 16.6, 15.5, 17.7, 17.3, 16.7, 16.8, 15.7, 17.2, 15.9, 17.8, 16, 17.1, 16.6, 16.6, 16.4, 17.1, 17.4, 15.7, 17, 16.5, 17.3, 16.5, 15.6, 17.5, 16.2, 17.2, 16.5, 17.1, 16.1, 16, 17.2, 17.1, 16.6, 17.1, 16, 17, 15.8, 17.6, 16.2, 16.8, 16.9, 16.6, 17.5, 16.4, 16, 15.9, 17.4, 16.8, 16.5, 16.6, 16.8, 16.9, 16.7, 16.1, 17.1, 17.1, 15.6, 17.7, 16.4, 15.5, 16.6, 17.2, 17.4, 16.9, 16.2, 17.2, 16.3, 16.5, 15.9, 17, 17.5, 17.2, 16.1, 16.8, 16.3, 16.7, 15.8, 17.4, 16.9, 16.9, 17, 16, 16.8, 16.8, 16.8, 16, 17.3, 17.1, 16.2, 16, 16.8, 16.3, 17.7, 16.3, 17.4, 16.5, 15.6, 17.5, 16.7, 16.9, 16.6, 16.8, 16.4, 16.6, 16.3, 16.1, 17.6, 16.9, 15.9, 17.2, 17.5, 15.9, 15.6, 17.7, 15.4, 18.5, 15.2, 17.4, 16.7, 15.8, 17.1, 16.8, 16.7, 15.9, 17.2, 17.4, 17.2, 15.7, 16.8, 16.8, 17.1, 16.2, 16.5, 17.4, 16.3, 16, 17.7, 16.5, 15.8, 17.8, 16.1, 16.5, 16.7, 16.3, 17.4, 16.7, 16.8, 16, 17.4, 17.3, 17.1, 14.9, 17, 17.5, 16.5, 17.1, 16.2, 16.1, 17.5, 15.4, 17.3, 16.3, 16.1, 17.2, 16.9, 17.1, 15.8, 17.9, 15.6, 16.8, 16.2, 16.9, 16.9, 16.5, 16.7, 16.9, 16.9, 17.2, 15.2, 17.3, 17.2, 16.4, 17.3, 16.4, 16.8, 16.5, 17.2, 15.6, 17.4, 16.2, 16, 17.1, 17.6, 16.6, 15.6, 17, 16.7, 16.7, 16.6, 17, 16.4, 17, 15.7, 17.4, 16.9, 17.1, 16.4, 16.5, 15.9, 16.9, 17.2, 16.6, 17.1, 16.2, 16.9, 16.5, 16.4, 16.5, 16.5, 17.6, 16.2, 17.2, 16.1, 16.6, 17.3, 16.9, 15.9, 16.8, 16.8, 16.7, 16.2, 16.9, 17, 17.1, 15.7, 17.6, 16.3, 17.1, 16.7, 16.5, 16.3, 16.6, 16.6, 16.8, 17, 16.2, 16.8, 17.1, 15.8, 16.5, 17.5, 16.3, 17.2, 15.7, 16.9, 16.7, 15.9, 17.2, 17.4, 17.1, 15.3, 17, 17.3, 16, 17.5, 15.5, 17.7, 16.8, 15.7, 17, 17.4, 15.8, 16.3, 17, 17.5, 16.2, 17.2]",60.0,61.0,60.0,4996.1,[],,,,,,,,,,,,,,,,,,,,,,,,,HRV,HRV_0093,2022-12-01 06:21:48
,wl-html-keyboard-response,2,16808,0.0-2.0-0.0,0.0,3.0,,,,,,,,7167.300000071526,0.0,0,,,,,,,,,,,,,,,,,,,,,,HRV,HRV_0093,2022-12-01 06:21:48
,wl-rdm,3,22939,0.0-3.0-0.0,0.0,4.0,,,,,,,[],,,,0.0,0.0,87.9,0.0,u,0.0,True,575.3999999761581,35.0,60.0,40.0,False,,3000.0,[],"[640, 400]",ColorTask_Demo,,,,,HRV,HRV_0093,2022-12-01 06:21:48
,wl-rdm,4,27823,0.0-3.0-1.0,0.0,5.0,,,,,,,[],,,,0.0,0.0,87.9,1.0,i,1.0,True,807.6000000238419,49.0,60.0,40.0,False,,2000.0,[],"[640, 400]",ColorTask_Demo,,,,,HRV,HRV_0093,2022-12-01 06:21:48
,wl-html-keyboard-response,5,33285,0.0-3.0-2.0,0.0,6.0,,,,,,,,3453.899999976158,0.0,1,,,,,,,,,,,,,,,,,,,,,,HRV,HRV_0093,2022-12-01 06:21:48
,wl-html-keyboard-response,6,43565,0.0-4.0-0.0,0.0,7.0,,,,,,,,8274.300000071526,0.0,0,,,,,,,,,,,,,,,,,,,,,,HRV,HRV_0093,2022-12-01 06:21:48
,wl-html-keyboard-response,7,55173,0.0-5.0-0.0,0.0,8.0,,,,,,,,9598.0,0.0,0,,,,,,,,,,,,,,,,,,,,,,HRV,HRV_0093,2022-12-01 06:21:48
,wl-rdm,8,57512,0.0-6.0-0.0,0.0,9.0,,,,,,,[],,,,,,62.5,1.0,i,1.0,True,963.8000000715256,58.0,60.0,40.0,False,,331.863287918114,[],"[640, 400]",ColorTask,1.0,1.0,,,HRV,HRV_0093,2022-12-01 06:21:48
,wl-rdm,9,59763,0.0-6.1-0.1,0.0,10.0,,,,,,,[],,,,,,53.2,1.0,i,1.0,True,980.8000000715256,59.0,60.0,40.0,False,,215.21949869829984,[],"[640, 400]",ColorTask,2.0,2.0,,,HRV,HRV_0093,2022-12-01 06:21:48
,wl-rdm,10,61982,0.0-6.2-0.2,0.0,11.0,,,,,,,[],,,,,,56.4,0.0,u,0.0,True,933.6999999284744,57.0,60.0,40.0,False,,207.41293136973545,[],"[640, 400]",ColorTask,3.0,3.0,,,HRV,HRV_0093,2022-12-01 06:21:48
,wl-rdm,11,64098,0.0-6.3-0.3,0.0,12.0,,,,,,,[],,,,,,56.4,0.0,i,1.0,False,781.6000000238419,47.0,60.0,40.0,False,,251.5178418179829,[],"[640, 400]",ColorTask,2.0,4.0,,,HRV,HRV_0093,2022-12-01 06:21:48
,wl-rdm,12,66216,0.0-6.4-0.4,0.0,13.0,,,,,,,[],,,,,,62.5,1.0,u,0.0,False,658.0000001192093,40.0,60.0,40.0,False,,392.12503018961877,[],"[640, 400]",ColorTask,1.0,5.0,,,HRV,HRV_0093,2022-12-01 06:21:48
,wl-rdm,13,68083,0.0-6.5-0.5,0.0,14.0,,,,,,,[],,,,,,53.2,1.0,i,1.0,True,578.5,35.0,60.0,40.0,False,,218.4911293241234,[],"[640, 400]",ColorTask,2.0,6.0,,,HRV,HRV_0093,2022-12-01 06:21:48
,wl-rdm,14,70268,0.0-6.6-0.6,0.0,15.0,,,,,,,[],,,,,,53.2,1.0,i,1.0,True,878.3000000715256,53.0,60.0,40.0,False,,234.86417431942482,[],"[640, 400]",ColorTask,3.0,7.0,,,HRV,HRV_0093,2022-12-01 06:21:48
,wl-rdm,15,72362,0.0-6.7-0.7,0.0,16.0,,,,,,,[],,,,,,53.2,0.0,i,1.0,False,770.7000000476837,47.0,60.0,40.0,False,,244.8988192175128,[],"[640, 400]",ColorTask,2.0,8.0,,,HRV,HRV_0093,2022-12-01 06:21:48
,wl-rdm,16,74546,0.0-6.8-0.8,0.0,17.0,,,,,,,[],,,,,,87.9,0.0,u,0.0,True,856.8000000715256,52.0,60.0,40.0,False,,256.0650098327704,[],"[640, 400]",ColorTask,3.0,9.0,,,HRV,HRV_0093,2022-12-01 06:21:48
,wl-rdm,17,76797,0.0-6.9-0.9,0.0,18.0,,,,,,,[],,,,,,56.4,1.0,i,1.0,True,844.1999999284744,51.0,60.0,40.0,False,,333.68425199126796,[],"[640, 400]",ColorTask,4.0,10.0,,,HRV,HRV_0093,2022-12-01 06:21:48
,wl-rdm,18,79115,0.0-6.10-0.10,0.0,19.0,,,,,,,[],,,,,,56.4,0.0,u,0.0,True,1023.4999998807907,62.0,60.0,40.0,False,,209.56806833202205,[],"[640, 400]",ColorTask,5.0,11.0,,,HRV,HRV_0093,2022-12-01 06:21:48
,wl-rdm,19,81132,0.0-6.11-0.11,0.0,20.0,,,,,,,[],,,,,,50.0,1.0,u,0.0,False,731.7000000476837,44.0,60.0,40.0,False,,225.20100673462957,[],"[640, 400]",ColorTask,4.0,12.0,,,HRV,HRV_0093,2022-12-01 06:21:48
,wl-rdm,20,83116,0.0-6.12-0.12,0.0,21.0,,,,,,,[],,,,,,73.6,0.0,i,1.0,False,589.5,36.0,60.0,40.0,False,,321.4885535771617,[],"[640, 400]",ColorTask,3.0,13.0,,,HRV,HRV_0093,2022-12-01 06:21:48
,wl-rdm,21,85401,0.0-6.13-0.13,0.0,22.0,,,,,,,[],,,,,,50.0,1.0,i,1.0,True,902.1000000238419,54.0,60.0,40.0,False,,305.3963109706371,[],"[640, 400]",ColorTask,4.0,14.0,,,HRV,HRV_0093,2022-12-01 06:21:48
,wl-rdm,22,87435,0.0-6.14-0.14,0.0,23.0,,,,,,,[],,,,,,62.5,0.0,u,0.0,True,758.3000000715256,46.0,60.0,40.0,False,,217.16415262583448,[],"[640, 400]",ColorTask,5.0,15.0,,,HRV,HRV_0093,2022-12-01 06:21:48
,wl-rdm,23,89636,0.0-6.15-0.15,0.0,24.0,,,,,,,[],,,,,,50.0,0.0,i,1.0,False,780.3999999761581,47.0,60.0,40.0,False,,342.0718817289805,[],"[640, 400]",ColorTask,4.0,16.0,,,HRV,HRV_0093,2022-12-01 06:21:48
,wl-rdm,24,91572,0.0-6.16-0.16,0.0,25.0,,,,,,,[],,,,,,53.2,0.0,u,0.0,True,606.2999999523163,37.0,60.0,40.0,False,,250.5175488144633,[],"[640, 400]",ColorTask,5.0,17.0,,,HRV,HRV_0093,2022-12-01 06:21:48
,wl-rdm,25,93938,0.0-6.17-0.17,0.0,26.0,,,,,,,[],,,,,,56.4,1.0,i,1.0,True,957.1000000238419,58.0,60.0,40.0,False,,326.2016537862358,[],"[640, 400]",ColorTask,6.0,18.0,,,HRV,HRV_0093,2022-12-01 06:21:48
,wl-rdm,26,96024,0.0-6.18-0.18,0.0,27.0,,,,,,,[],,,,,,87.9,0.0,u,0.0,True,706.3999999761581,43.0,60.0,40.0,False,,285.58098559605196,[],"[640, 400]",ColorTask,7.0,19.0,,,HRV,HRV_0093,2022-12-01 06:21:48
,wl-rdm,27,97940,0.0-6.19-0.19,0.0,28.0,,,,,,,[],,,,,,73.6,0.0,u,0.0,True,598.7000000476837,36.0,60.0,40.0,False,,251.04102326575872,[],"[640, 400]",ColorTask,8.0,20.0,,,HRV,HRV_0093,2022-12-01 06:21:48
,wl-rdm,28,99925,0.0-6.20-0.20,0.0,29.0,,,,,,,[],,,,,,87.9,0.0,u,0.0,True,545.9999998807907,32.0,60.0,40.0,False,,369.6040044642441,[],"[640, 400]",ColorTask,9.0,21.0,,,HRV,HRV_0093,2022-12-01 06:21:48
,wl-rdm,29,102426,0.0-6.21-0.21,0.0,30.0,,,,,,,[],,,,,,50.0,1.0,i,1.0,True,1072.8999999761581,65.0,60.0,40.0,False,,365.1464546596993,[],"[640, 400]",ColorTask,10.0,22.0,,,HRV,HRV_0093,2022-12-01 06:21:48
,wl-rdm,30,104727,0.0-6.22-0.22,0.0,31.0,,,,,,,[],,,,,,87.9,1.0,u,0.0,False,857.2000000476837,52.0,60.0,40.0,False,,364.6293204601878,[],"[640, 400]",ColorTask,9.0,23.0,,,HRV,HRV_0093,2022-12-01 06:21:48
,wl-rdm,31,106727,0.0-6.23-0.23,0.0,32.0,,,,,,,[],,,,,,73.6,1.0,i,1.0,True,707.0999999046326,43.0,60.0,40.0,False,,225.0694183128289,[],"[640, 400]",ColorTask,10.0,24.0,,,HRV,HRV_0093,2022-12-01 06:21:48
,wl-rdm,32,109046,0.0-6.24-0.24,0.0,33.0,,,,,,,[],,,,,,53.2,0.0,u,0.0,True,905.0,55.0,60.0,40.0,False,,323.14282870413524,[],"[640, 400]",ColorTask,11.0,25.0,,,HRV,HRV_0093,2022-12-01 06:21:48
,wl-rdm,33,111380,0.0-6.25-0.25,0.0,34.0,,,,,,,[],,,,,,53.2,1.0,u,0.0,False,961.6000000238419,58.0,60.0,40.0,False,,301.41838921390723,[],"[640, 400]",ColorTask,10.0,26.0,,,HRV,HRV_0093,2022-12-01 06:21:48
,wl-rdm,34,113565,0.0-6.26-0.26,0.0,35.0,,,,,,,[],,,,,,87.9,1.0,u,0.0,False,820.5,50.0,60.0,40.0,False,,292.27224873699356,[],"[640, 400]",ColorTask,9.0,27.0,,,HRV,HRV_0093,2022-12-01 06:21:48
,wl-rdm,35,115866,0.0-6.27-0.27,0.0,36.0,,,,,,,[],,,,,,56.4,0.0,i,1.0,False,955.4000000953674,58.0,60.0,40.0,False,,252.5328090771081,[],"[640, 400]",ColorTask,8.0,28.0,,,HRV,HRV_0093,2022-12-01 06:21:48
,wl-rdm,36,118234,0.0-6.28-0.28,0.0,37.0,,,,,,,[],,,,,,53.2,0.0,u,0.0,True,924.7999999523163,56.0,60.0,40.0,False,,377.3663500994754,[],"[640, 400]",ColorTask,9.0,29.0,,,HRV,HRV_0093,2022-12-01 06:21:48
,wl-rdm,37,120602,0.0-6.29-0.29,0.0,38.0,,,,,,,[],,,,,,53.2,1.0,i,1.0,True,892.1000000238419,54.0,60.0,40.0,False,,383.4289789733299,[],"[640, 400]",ColorTask,10.0,30.0,,,HRV,HRV_0093,2022-12-01 06:21:48
,wl-rdm,38,122853,0.0-6.30-0.30,0.0,39.0,,,,,,,[],,,,,,73.6,1.0,i,1.0,True,811.3000000715256,49.0,60.0,40.0,False,,353.8823352420825,[],"[640, 400]",ColorTask,11.0,31.0,,,HRV,HRV_0093,2022-12-01 06:21:48
,wl-rdm,39,125304,0.0-6.31-0.31,0.0,40.0,,,,,,,[],,,,,,56.4,1.0,u,0.0,False,1042.2999999523163,63.0,60.0,40.0,False,,334.85022630874676,[],"[640, 400]",ColorTask,10.0,32.0,,,HRV,HRV_0093,2022-12-01 06:21:48
,wl-rdm,40,127438,0.0-6.32-0.32,0.0,41.0,,,,,,,[],,,,,,53.2,1.0,i,1.0,True,857.8999999761581,52.0,60.0,40.0,False,,200.90271935039317,[],"[640, 400]",ColorTask,11.0,33.0,,,HRV,HRV_0093,2022-12-01 06:21:48
,wl-rdm,41,129640,0.0-6.33-0.33,0.0,42.0,,,,,,,[],,,,,,73.6,0.0,u,0.0,True,873.3999999761581,53.0,60.0,40.0,False,,240.78949251229238,[],"[640, 400]",ColorTask,12.0,34.0,,,HRV,HRV_0093,2022-12-01 06:21:48
,wl-rdm,42,131890,0.0-6.34-0.34,0.0,43.0,,,,,,,[],,,,,,73.6,1.0,i,1.0,True,803.1000000238419,49.0,60.0,40.0,False,,380.96374016436727,[],"[640, 400]",ColorTask,13.0,35.0,,,HRV,HRV_0093,2022-12-01 06:21:48
,wl-rdm,43,133758,0.0-6.35-0.35,0.0,44.0,,,,,,,[],,,,,,73.6,1.0,i,1.0,True,589.0,36.0,60.0,40.0,False,,210.80142966794472,[],"[640, 400]",ColorTask,14.0,36.0,,,HRV,HRV_0093,2022-12-01 06:21:48
,wl-rdm,44,135910,0.0-6.36-0.36,0.0,45.0,,,,,,,[],,,,,,56.4,1.0,i,1.0,True,727.2000000476837,44.0,60.0,40.0,False,,352.7836055836011,[],"[640, 400]",ColorTask,15.0,37.0,,,HRV,HRV_0093,2022-12-01 06:21:48
,wl-rdm,45,138277,0.0-6.37-0.37,0.0,46.0,,,,,,,[],,,,,,53.2,0.0,i,1.0,False,940.3000000715256,57.0,60.0,40.0,False,,354.37098034899486,[],"[640, 400]",ColorTask,14.0,38.0,,,HRV,HRV_0093,2022-12-01 06:21:48
,wl-rdm,46,140861,0.0-6.38-0.38,0.0,47.0,,,,,,,[],,,,,,73.6,0.0,u,0.0,True,1127.5999999046326,68.0,60.0,40.0,False,,391.7340511762659,[],"[640, 400]",ColorTask,15.0,39.0,,,HRV,HRV_0093,2022-12-01 06:21:48
,wl-rdm,47,143229,0.0-6.39-0.39,0.0,48.0,,,,,,,[],,,,,,56.4,1.0,i,1.0,True,1032.0,60.0,60.0,40.0,False,,266.7604843317822,[],"[640, 400]",ColorTask,16.0,40.0,,,HRV,HRV_0093,2022-12-01 06:21:48
,wl-rdm,48,145581,0.0-6.40-0.40,0.0,49.0,,,,,,,[],,,,,,62.5,0.0,u,0.0,True,973.1000000238419,59.0,60.0,40.0,False,,300.30381281125085,[],"[640, 400]",ColorTask,17.0,41.0,,,HRV,HRV_0093,2022-12-01 06:21:48
,wl-rdm,49,147915,0.0-6.41-0.41,0.0,50.0,,,,,,,[],,,,,,53.2,1.0,i,1.0,True,871.2999999523163,53.0,60.0,40.0,False,,373.7396019318695,[],"[640, 400]",ColorTask,18.0,42.0,,,HRV,HRV_0093,2022-12-01 06:21:48
,wl-rdm,50,150249,0.0-6.42-0.42,0.0,51.0,,,,,,,[],,,,,,53.2,0.0,u,0.0,True,1057.6999999284744,64.0,60.0,40.0,False,,200.46108225070813,[],"[640, 400]",ColorTask,19.0,43.0,,,HRV,HRV_0093,2022-12-01 06:21:48
,wl-rdm,51,152501,0.0-6.43-0.43,0.0,52.0,,,,,,,[],,,,,,50.0,1.0,i,1.0,True,912.0,55.0,60.0,40.0,False,,263.7206618717727,[],"[640, 400]",ColorTask,20.0,44.0,,,HRV,HRV_0093,2022-12-01 06:21:48
,wl-rdm,52,154518,0.0-6.44-0.44,0.0,53.0,,,,,,,[],,,,,,50.0,0.0,i,1.0,False,744.3000000715256,45.0,60.0,40.0,False,,209.16482205624092,[],"[640, 400]",ColorTask,19.0,45.0,,,HRV,HRV_0093,2022-12-01 06:21:48
,wl-rdm,53,156787,0.0-6.45-0.45,0.0,54.0,,,,,,,[],,,,,,62.5,1.0,i,1.0,True,853.5,52.0,60.0,40.0,False,,318.20753277453684,[],"[640, 400]",ColorTask,20.0,46.0,,,HRV,HRV_0093,2022-12-01 06:21:48
,wl-rdm,54,158905,0.0-6.46-0.46,0.0,55.0,,,,,,,[],,,,,,56.4,0.0,u,0.0,True,812.6000000238419,49.0,60.0,40.0,False,,247.47516846152826,[],"[640, 400]",ColorTask,21.0,47.0,,,HRV,HRV_0093,2022-12-01 06:21:48
,wl-rdm,55,161305,0.0-6.47-0.47,0.0,56.0,,,,,,,[],,,,,,53.2,1.0,i,1.0,True,1106.0999999046326,67.0,60.0,40.0,False,,229.54899564828938,[],"[640, 400]",ColorTask,22.0,48.0,,,HRV,HRV_0093,2022-12-01 06:21:48
,wl-rdm,56,163306,0.0-6.48-0.48,0.0,57.0,,,,,,,[],,,,,,50.0,1.0,i,1.0,True,691.6000000238419,42.0,60.0,40.0,False,,227.79999168801078,[],"[640, 400]",ColorTask,23.0,49.0,,,HRV,HRV_0093,2022-12-01 06:21:48
,wl-rdm,57,165224,0.0-6.49-0.49,0.0,58.0,,,,,,,[],,,,,,87.9,1.0,i,1.0,True,577.1999999284744,35.0,60.0,40.0,False,,275.34116132046614,[],"[640, 400]",ColorTask,24.0,50.0,,,HRV,HRV_0093,2022-12-01 06:21:48
,wl-rdm,58,167141,0.0-6.50-0.50,0.0,59.0,,,,,,,[],,,,,,53.2,0.0,i,1.0,False,643.1000000238419,39.0,60.0,40.0,False,,205.25567867713966,[],"[640, 400]",ColorTask,23.0,51.0,,,HRV,HRV_0093,2022-12-01 06:21:48
,wl-rdm,59,169243,0.0-6.51-0.51,0.0,60.0,,,,,,,[],,,,,,50.0,0.0,u,0.0,True,689.8999999761581,42.0,60.0,40.0,False,,333.5680487449356,[],"[640, 400]",ColorTask,24.0,52.0,,,HRV,HRV_0093,2022-12-01 06:21:48
,wl-rdm,60,171543,0.0-6.52-0.52,0.0,61.0,,,,,,,[],,,,,,53.2,0.0,u,0.0,True,1002.6000000238419,60.0,60.0,40.0,False,,227.85026376621596,[],"[640, 400]",ColorTask,25.0,53.0,,,HRV,HRV_0093,2022-12-01 06:21:48
,wl-rdm,61,173944,0.0-6.53-0.53,0.0,62.0,,,,,,,[],,,,,,62.5,0.0,u,0.0,True,1097.2999999523163,66.0,60.0,40.0,False,,248.40392131500118,[],"[640, 400]",ColorTask,26.0,54.0,,,HRV,HRV_0093,2022-12-01 06:21:48
,wl-rdm,62,176162,0.0-6.54-0.54,0.0,63.0,,,,,,,[],,,,,,62.5,0.0,u,0.0,True,871.2999999523163,53.0,60.0,40.0,False,,270.3567914768536,[],"[640, 400]",ColorTask,27.0,55.0,,,HRV,HRV_0093,2022-12-01 06:21:48
,wl-rdm,63,178681,0.0-6.55-0.55,0.0,64.0,,,,,,,[],,,,,,50.0,0.0,u,0.0,True,1053.3999998569489,64.0,60.0,40.0,False,,390.7130984023298,[],"[640, 400]",ColorTask,28.0,56.0,,,HRV,HRV_0093,2022-12-01 06:21:48
,wl-rdm,64,180998,0.0-6.56-0.56,0.0,65.0,,,,,,,[],,,,,,50.0,0.0,i,1.0,False,925.1000000238419,56.0,60.0,40.0,False,,309.0662715635804,[],"[640, 400]",ColorTask,27.0,57.0,,,HRV,HRV_0093,2022-12-01 06:21:48
,wl-rdm,65,182982,0.0-6.57-0.57,0.0,66.0,,,,,,,[],,,,,,87.9,1.0,i,1.0,True,677.799999833107,41.0,60.0,40.0,False,,238.31445827852,[],"[640, 400]",ColorTask,28.0,58.0,,,HRV,HRV_0093,2022-12-01 06:21:48
,wl-rdm,66,185017,0.0-6.58-0.58,0.0,67.0,,,,,,,[],,,,,,62.5,0.0,i,1.0,False,740.1000000238419,45.0,60.0,40.0,False,,207.41094400348942,[],"[640, 400]",ColorTask,27.0,59.0,,,HRV,HRV_0093,2022-12-01 06:21:48
,wl-rdm,67,187501,0.0-6.59-0.59,0.0,68.0,,,,,,,[],,,,,,50.0,1.0,u,0.0,False,1106.1999999284744,67.0,60.0,40.0,False,,316.36960411372644,[],"[640, 400]",ColorTask,26.0,60.0,,,HRV,HRV_0093,2022-12-01 06:21:48
,wl-rdm,68,189686,0.0-6.60-0.60,0.0,69.0,,,,,,,[],,,,,,73.6,1.0,i,1.0,True,773.8999999761581,47.0,60.0,40.0,False,,344.7586765743082,[],"[640, 400]",ColorTask,27.0,61.0,,,HRV,HRV_0093,2022-12-01 06:21:48
,wl-rdm,69,191970,0.0-6.61-0.61,0.0,70.0,,,,,,,[],,,,,,62.5,1.0,i,1.0,True,823.8999999761581,50.0,60.0,40.0,False,,392.57233660547695,[],"[640, 400]",ColorTask,28.0,62.0,,,HRV,HRV_0093,2022-12-01 06:21:48
,wl-rdm,70,194038,0.0-6.62-0.62,0.0,71.0,,,,,,,[],,,,,,53.2,0.0,i,1.0,False,707.0,43.0,60.0,40.0,False,,284.78690186775725,[],"[640, 400]",ColorTask,27.0,63.0,,,HRV,HRV_0093,2022-12-01 06:21:48
,wl-rdm,71,196406,0.0-6.63-0.63,0.0,72.0,,,,,,,[],,,,,,56.4,1.0,u,0.0,False,1031.0999999046326,62.0,60.0,40.0,False,,276.85306214130657,[],"[640, 400]",ColorTask,26.0,64.0,,,HRV,HRV_0093,2022-12-01 06:21:48
,wl-rdm,72,198690,0.0-6.64-0.64,0.0,73.0,,,,,,,[],,,,,,73.6,0.0,u,0.0,True,947.6000000238419,57.0,60.0,40.0,False,,267.4591773548848,[],"[640, 400]",ColorTask,27.0,65.0,,,HRV,HRV_0093,2022-12-01 06:21:48
,wl-rdm,73,200591,0.0-6.65-0.65,0.0,74.0,,,,,,,[],,,,,,87.9,0.0,u,0.0,True,625.3999998569489,38.0,60.0,40.0,False,,207.546605375063,[],"[640, 400]",ColorTask,28.0,66.0,,,HRV,HRV_0093,2022-12-01 06:21:48
,wl-rdm,74,202792,0.0-6.66-0.66,0.0,75.0,,,,,,,[],,,,,,56.4,0.0,i,1.0,False,900.1000000238419,54.0,60.0,40.0,False,,229.84654136018116,[],"[640, 400]",ColorTask,27.0,67.0,,,HRV,HRV_0093,2022-12-01 06:21:48
,wl-rdm,75,204710,0.0-6.67-0.67,0.0,76.0,,,,,,,[],,,,,,87.9,1.0,i,1.0,True,637.3999999761581,39.0,60.0,40.0,False,,206.57941111784115,[],"[640, 400]",ColorTask,28.0,68.0,,,HRV,HRV_0093,2022-12-01 06:21:48
,wl-rdm,76,206894,0.0-6.68-0.68,0.0,77.0,,,,,,,[],,,,,,62.5,1.0,i,1.0,True,789.8000000715256,48.0,60.0,40.0,False,,317.19331694343424,[],"[640, 400]",ColorTask,29.0,69.0,,,HRV,HRV_0093,2022-12-01 06:21:48
,wl-rdm,77,208861,0.0-6.69-0.69,0.0,78.0,,,,,,,[],,,,,,73.6,1.0,i,1.0,True,586.6999999284744,36.0,60.0,40.0,False,,310.73686115723126,[],"[640, 400]",ColorTask,30.0,70.0,,,HRV,HRV_0093,2022-12-01 06:21:48
,wl-rdm,78,210863,0.0-6.70-0.70,0.0,79.0,,,,,,,[],,,,,,73.6,0.0,u,0.0,True,692.9000000953674,42.0,60.0,40.0,False,,244.89728458421092,[],"[640, 400]",ColorTask,31.0,71.0,,,HRV,HRV_0093,2022-12-01 06:21:48
,wl-rdm,79,212714,0.0-6.71-0.71,0.0,80.0,,,,,,,[],,,,,,87.9,0.0,u,0.0,True,572.2999999523163,35.0,60.0,40.0,False,,204.437422514476,[],"[640, 400]",ColorTask,32.0,72.0,,,HRV,HRV_0093,2022-12-01 06:21:48
,wl-rdm,80,214800,0.0-6.72-0.72,0.0,81.0,,,,,,,[],,,,,,73.6,0.0,u,0.0,True,686.7999999523163,42.0,60.0,40.0,False,,324.64416956772476,[],"[640, 400]",ColorTask,33.0,73.0,,,HRV,HRV_0093,2022-12-01 06:21:48
,wl-rdm,81,216799,0.0-6.73-0.73,0.0,82.0,,,,,,,[],,,,,,50.0,0.0,i,1.0,False,664.5,40.0,60.0,40.0,False,,278.65788000560826,[],"[640, 400]",ColorTask,32.0,74.0,,,HRV,HRV_0093,2022-12-01 06:21:48
,wl-rdm,82,218850,0.0-6.74-0.74,0.0,83.0,,,,,,,[],,,,,,87.9,1.0,i,1.0,True,658.1000000238419,40.0,60.0,40.0,False,,317.9554461627879,[],"[640, 400]",ColorTask,33.0,75.0,,,HRV,HRV_0093,2022-12-01 06:21:48
,wl-rdm,83,220935,0.0-6.75-0.75,0.0,84.0,,,,,,,[],,,,,,73.6,1.0,i,1.0,True,660.2999999523163,40.0,60.0,40.0,False,,355.7673739853552,[],"[640, 400]",ColorTask,34.0,76.0,,,HRV,HRV_0093,2022-12-01 06:21:48
,wl-rdm,84,222885,0.0-6.76-0.76,0.0,85.0,,,,,,,[],,,,,,87.9,1.0,i,1.0,True,625.7000000476837,38.0,60.0,40.0,False,,254.56610408238066,[],"[640, 400]",ColorTask,35.0,77.0,,,HRV,HRV_0093,2022-12-01 06:21:48
,wl-rdm,85,224953,0.0-6.77-0.77,0.0,86.0,,,,,,,[],,,,,,87.9,0.0,u,0.0,True,778.9000000953674,47.0,60.0,40.0,False,,219.42091073252757,[],"[640, 400]",ColorTask,36.0,78.0,,,HRV,HRV_0093,2022-12-01 06:21:48
,wl-rdm,86,226904,0.0-6.78-0.78,0.0,87.0,,,,,,,[],,,,,,56.4,0.0,i,1.0,False,682.6000000238419,41.0,60.0,40.0,False,,214.23821318922097,[],"[640, 400]",ColorTask,35.0,79.0,,,HRV,HRV_0093,2022-12-01 06:21:48
,wl-rdm,87,229238,0.0-6.79-0.79,0.0,88.0,,,,,,,[],,,,,,62.5,1.0,i,1.0,True,1018.4000000953674,61.0,60.0,40.0,False,,242.63839891530156,[],"[640, 400]",ColorTask,36.0,80.0,,,HRV,HRV_0093,2022-12-01 06:21:48
,wl-rdm,88,231658,0.0-6.80-0.80,0.0,89.0,,,,,,,[],,,,,,62.5,0.0,u,0.0,True,1116.5,67.0,60.0,40.0,False,,235.46093873533178,[],"[640, 400]",ColorTask,37.0,81.0,,,HRV,HRV_0093,2022-12-01 06:21:48
,wl-rdm,89,234158,0.0-6.81-0.81,0.0,90.0,,,,,,,[],,,,,,56.4,1.0,i,1.0,True,1173.9000000953674,71.0,60.0,40.0,False,,241.11924860106978,[],"[640, 400]",ColorTask,38.0,82.0,,,HRV,HRV_0093,2022-12-01 06:21:48
,wl-rdm,90,236192,0.0-6.82-0.82,0.0,91.0,,,,,,,[],,,,,,62.5,1.0,i,1.0,True,590.8999999761581,36.0,60.0,40.0,False,,358.05784531684526,[],"[640, 400]",ColorTask,39.0,83.0,,,HRV,HRV_0093,2022-12-01 06:21:48
,wl-rdm,91,238343,0.0-6.83-0.83,0.0,92.0,,,,,,,[],,,,,,87.9,0.0,u,0.0,True,822.3999999761581,50.0,60.0,40.0,False,,261.8366804895592,[],"[640, 400]",ColorTask,40.0,84.0,,,HRV,HRV_0093,2022-12-01 06:21:48
,wl-rdm,92,240577,0.0-6.84-0.84,0.0,93.0,,,,,,,[],,,,,,56.4,1.0,i,1.0,True,874.0999999046326,53.0,60.0,40.0,False,,296.53453715818364,[],"[640, 400]",ColorTask,41.0,85.0,,,HRV,HRV_0093,2022-12-01 06:21:48
,wl-rdm,93,242680,0.0-6.85-0.85,0.0,94.0,,,,,,,[],,,,,,62.5,1.0,i,1.0,True,735.0,45.0,60.0,40.0,False,,285.9205270734609,[],"[640, 400]",ColorTask,42.0,86.0,,,HRV,HRV_0093,2022-12-01 06:21:48
,wl-rdm,94,245046,0.0-6.86-0.86,0.0,95.0,,,,,,,[],,,,,,56.4,0.0,u,0.0,True,995.4999998807907,60.0,60.0,40.0,False,,307.71963321152015,[],"[640, 400]",ColorTask,43.0,87.0,,,HRV,HRV_0093,2022-12-01 06:21:48
,wl-rdm,95,247080,0.0-6.87-0.87,0.0,96.0,,,,,,,[],,,,,,87.9,1.0,i,1.0,True,707.0999999046326,43.0,60.0,40.0,False,,259.20644653347114,[],"[640, 400]",ColorTask,44.0,88.0,,,HRV,HRV_0093,2022-12-01 06:21:48
,wl-rdm,96,249582,0.0-6.88-0.88,0.0,97.0,,,,,,,[],,,,,,62.5,0.0,u,0.0,True,1203.7999999523163,73.0,60.0,40.0,False,,208.35782300155438,[],"[640, 400]",ColorTask,45.0,89.0,,,HRV,HRV_0093,2022-12-01 06:21:48
,wl-rdm,97,252283,0.0-6.89-0.89,0.0,98.0,,,,,,,[],,,,,,50.0,0.0,u,0.0,True,1408.6000000238419,85.0,60.0,40.0,False,,210.32132065897434,[],"[640, 400]",ColorTask,46.0,90.0,,,HRV,HRV_0093,2022-12-01 06:21:48
,wl-rdm,98,255602,0.0-6.90-0.90,0.0,99.0,,,,,,,[],,,,,,73.6,0.0,u,0.0,True,1885.1000000238419,113.0,60.0,40.0,False,,355.65992906996166,[],"[640, 400]",ColorTask,47.0,91.0,,,HRV,HRV_0093,2022-12-01 06:21:48
,wl-rdm,99,258586,0.0-6.91-0.91,0.0,100.0,,,,,,,[],,,,,,62.5,0.0,u,0.0,True,1529.6999999284744,92.0,60.0,40.0,False,,392.4731615462617,[],"[640, 400]",ColorTask,48.0,92.0,,,HRV,HRV_0093,2022-12-01 06:21:48
,wl-rdm,100,260722,0.0-6.92-0.92,0.0,101.0,,,,,,,[],,,,,,87.9,0.0,u,0.0,True,739.6000000238419,45.0,60.0,40.0,False,,325.1948696518501,[],"[640, 400]",ColorTask,49.0,93.0,,,HRV,HRV_0093,2022-12-01 06:21:48
,wl-rdm,101,262972,0.0-6.93-0.93,0.0,102.0,,,,,,,[],,,,,,50.0,1.0,i,1.0,True,877.7000000476837,53.0,60.0,40.0,False,,312.0428794716988,[],"[640, 400]",ColorTask,50.0,94.0,,,HRV,HRV_0093,2022-12-01 06:21:48
,wl-rdm,102,265492,0.0-6.94-0.94,0.0,103.0,,,,,,,[],,,,,,50.0,0.0,u,0.0,True,1161.1999999284744,70.0,60.0,40.0,False,,293.90925973263705,[],"[640, 400]",ColorTask,51.0,95.0,,,HRV,HRV_0093,2022-12-01 06:21:48
,wl-rdm,103,267858,0.0-6.95-0.95,0.0,104.0,,,,,,,[],,,,,,53.2,1.0,i,1.0,True,927.7999999523163,56.0,60.0,40.0,False,,377.69895335597437,[],"[640, 400]",ColorTask,52.0,96.0,,,HRV,HRV_0093,2022-12-01 06:21:48
,wl-rdm,104,270209,0.0-6.96-0.96,0.0,105.0,,,,,,,[],,,,,,73.6,1.0,i,1.0,True,969.5,59.0,60.0,40.0,False,,300.0651623881803,[],"[640, 400]",ColorTask,53.0,97.0,,,HRV,HRV_0093,2022-12-01 06:21:48
,wl-rdm,105,272699,0.0-6.97-0.97,0.0,106.0,,,,,,,[],,,,,,56.4,0.0,u,0.0,True,1093.9999998807907,66.0,60.0,40.0,False,,305.7006282354602,[],"[640, 400]",ColorTask,54.0,98.0,,,HRV,HRV_0093,2022-12-01 06:21:48
,wl-rdm,106,275029,0.0-6.98-0.98,0.0,107.0,,,,,,,[],,,,,,73.6,1.0,i,1.0,True,1055.7000000476837,64.0,60.0,40.0,False,,213.87554330091817,[],"[640, 400]",ColorTask,55.0,99.0,,,HRV,HRV_0093,2022-12-01 06:21:48
,wl-rdm,107,277163,0.0-6.99-0.99,0.0,108.0,,,,,,,[],,,,,,87.9,0.0,u,0.0,True,823.1999999284744,50.0,60.0,40.0,False,,233.6342936783451,[],"[640, 400]",ColorTask,56.0,100.0,,,HRV,HRV_0093,2022-12-01 06:21:48
,wl-rdm,108,279647,0.0-6.100-0.100,0.0,109.0,,,,,,,[],,,,,,62.5,0.0,i,1.0,False,1164.6999999284744,70.0,60.0,40.0,False,,262.930878740601,[],"[640, 400]",ColorTask,55.0,101.0,,,HRV,HRV_0093,2022-12-01 06:21:48
,wl-rdm,109,282081,0.0-6.101-0.101,0.0,110.0,,,,,,,[],,,,,,56.4,1.0,i,1.0,True,1025.8999999761581,62.0,60.0,40.0,False,,335.0427030387874,[],"[640, 400]",ColorTask,56.0,102.0,,,HRV,HRV_0093,2022-12-01 06:21:48
,wl-rdm,110,284216,0.0-6.102-0.102,0.0,111.0,,,,,,,[],,,,,,87.9,1.0,i,1.0,True,692.8999999761581,42.0,60.0,40.0,False,,379.4936227612622,[],"[640, 400]",ColorTask,57.0,103.0,,,HRV,HRV_0093,2022-12-01 06:21:48
,wl-rdm,111,286400,0.0-6.103-0.103,0.0,112.0,,,,,,,[],,,,,,73.6,0.0,u,0.0,True,741.3999999761581,45.0,60.0,40.0,False,,377.30815946122357,[],"[640, 400]",ColorTask,58.0,104.0,,,HRV,HRV_0093,2022-12-01 06:21:48
,wl-rdm,112,289552,0.0-6.104-0.104,0.0,113.0,,,,,,,[],,,,,,50.0,1.0,u,0.0,False,1708.3999999761581,103.0,60.0,40.0,False,,370.6517805905859,[],"[640, 400]",ColorTask,57.0,105.0,,,HRV,HRV_0093,2022-12-01 06:21:48
,wl-rdm,113,291853,0.0-6.105-0.105,0.0,114.0,,,,,,,[],,,,,,50.0,0.0,i,1.0,False,907.2999999523163,55.0,60.0,40.0,False,,314.92866154330886,[],"[640, 400]",ColorTask,56.0,106.0,,,HRV,HRV_0093,2022-12-01 06:21:48
,wl-rdm,114,294723,0.0-6.106-0.106,0.0,115.0,,,,,,,[],,,,,,62.5,1.0,i,1.0,True,1421.0,86.0,60.0,40.0,False,,382.1085747848123,[],"[640, 400]",ColorTask,57.0,107.0,,,HRV,HRV_0093,2022-12-01 06:21:48
,wl-rdm,115,297822,0.0-6.107-0.107,0.0,116.0,,,,,,,[],,,,,,50.0,1.0,i,1.0,True,1624.2999999523163,98.0,60.0,40.0,False,,385.9417595216248,[],"[640, 400]",ColorTask,58.0,108.0,,,HRV,HRV_0093,2022-12-01 06:21:48
,wl-html-keyboard-response,116,322226,0.0-7.0-0.0,1.0,117.0,,,,,,,,22396.399999976158,1.0,0,,,,,,,,,,,,,,,,,,,,,,HRV,HRV_0093,2022-12-01 06:21:48
,wl-rdm,117,324375,0.0-8.0-0.0,1.0,118.0,,,,,,,[],,,,,,87.9,1.0,i,1.0,True,849.3999999761581,51.0,60.0,40.0,False,,243.82353796323792,[],"[640, 400]",ColorTask,59.0,1.0,,,HRV,HRV_0093,2022-12-01 06:21:48
,wl-rdm,118,326727,0.0-8.1-0.1,1.0,119.0,,,,,,,[],,,,,,87.9,1.0,i,1.0,True,971.6000000238419,59.0,60.0,40.0,False,,305.8307743956461,[],"[640, 400]",ColorTask,60.0,2.0,,,HRV,HRV_0093,2022-12-01 06:21:48
,wl-rdm,119,328844,0.0-8.2-0.2,1.0,120.0,,,,,,,[],,,,,,53.2,0.0,i,1.0,False,761.5999999046326,46.0,60.0,40.0,False,,280.69774741715037,[],"[640, 400]",ColorTask,59.0,3.0,,,HRV,HRV_0093,2022-12-01 06:21:48
,wl-rdm,120,330762,0.0-8.3-0.3,1.0,121.0,,,,,,,[],,,,,,50.0,0.0,i,1.0,False,629.5,38.0,60.0,40.0,False,,218.37653465065182,[],"[640, 400]",ColorTask,58.0,4.0,,,HRV,HRV_0093,2022-12-01 06:21:48
,wl-rdm,121,332969,0.0-8.4-0.4,1.0,122.0,,,,,,,[],,,,,,56.4,1.0,i,1.0,True,869.2000000476837,52.0,60.0,40.0,False,,252.91310360331738,[],"[640, 400]",ColorTask,59.0,5.0,,,HRV,HRV_0093,2022-12-01 06:21:48
,wl-rdm,122,335437,0.0-8.5-0.5,1.0,123.0,,,,,,,[],,,,,,50.0,0.0,u,0.0,True,1080.5,65.0,60.0,40.0,False,,322.7899877291593,[],"[640, 400]",ColorTask,60.0,6.0,,,HRV,HRV_0093,2022-12-01 06:21:48
,wl-rdm,123,337388,0.0-8.6-0.6,1.0,124.0,,,,,,,[],,,,,,87.9,1.0,i,1.0,True,672.7999999523163,41.0,60.0,40.0,False,,213.65355693958276,[],"[640, 400]",ColorTask,61.0,7.0,,,HRV,HRV_0093,2022-12-01 06:21:48
,wl-rdm,124,340089,0.0-8.7-0.7,1.0,125.0,,,,,,,[],,,,,,50.0,1.0,i,1.0,True,1381.2999999523163,83.0,60.0,40.0,False,,263.63168629274185,[],"[640, 400]",ColorTask,62.0,8.0,,,HRV,HRV_0093,2022-12-01 06:21:48
,wl-rdm,125,342508,0.0-8.8-0.8,1.0,126.0,,,,,,,[],,,,,,73.6,0.0,u,0.0,True,991.3000000715256,60.0,60.0,40.0,False,,361.71025445917564,[],"[640, 400]",ColorTask,63.0,9.0,,,HRV,HRV_0093,2022-12-01 06:21:48
,wl-rdm,126,344693,0.0-8.9-0.9,1.0,127.0,,,,,,,[],,,,,,53.2,1.0,i,1.0,True,865.7999999523163,52.0,60.0,40.0,False,,258.5943162491375,[],"[640, 400]",ColorTask,64.0,10.0,,,HRV,HRV_0093,2022-12-01 06:21:48
,wl-rdm,127,347110,0.0-8.10-0.10,1.0,128.0,,,,,,,[],,,,,,56.4,0.0,u,0.0,True,1115.799999833107,67.0,60.0,40.0,False,,218.3318652539809,[],"[640, 400]",ColorTask,65.0,11.0,,,HRV,HRV_0093,2022-12-01 06:21:48
,wl-rdm,128,349811,0.0-8.11-0.11,1.0,129.0,,,,,,,[],,,,,,73.6,0.0,u,0.0,True,1309.3999998569489,79.0,60.0,40.0,False,,324.59914255333155,[],"[640, 400]",ColorTask,66.0,12.0,,,HRV,HRV_0093,2022-12-01 06:21:48
,wl-rdm,129,352162,0.0-8.12-0.12,1.0,130.0,,,,,,,[],,,,,,56.4,1.0,i,1.0,True,1040.5,63.0,60.0,40.0,False,,243.42761199553573,[],"[640, 400]",ColorTask,67.0,13.0,,,HRV,HRV_0093,2022-12-01 06:21:48
,wl-rdm,130,354932,0.0-8.13-0.13,1.0,131.0,,,,,,,[],,,,,,56.4,0.0,u,0.0,True,1373.5,83.0,60.0,40.0,False,,331.9161359563765,[],"[640, 400]",ColorTask,68.0,14.0,,,HRV,HRV_0093,2022-12-01 06:21:48
,wl-rdm,131,357421,0.0-8.14-0.14,1.0,132.0,,,,,,,[],,,,,,50.0,1.0,i,1.0,True,1020.9000000953674,62.0,60.0,40.0,False,,375.4322564010736,[],"[640, 400]",ColorTask,69.0,15.0,,,HRV,HRV_0093,2022-12-01 06:21:48
,wl-rdm,132,360590,0.0-8.15-0.15,1.0,133.0,,,,,,,[],,,,,,50.0,1.0,u,0.0,False,1855.1000000238419,112.0,60.0,40.0,False,,241.70674682152395,[],"[640, 400]",ColorTask,68.0,16.0,,,HRV,HRV_0093,2022-12-01 06:21:48
,wl-rdm,133,362743,0.0-8.16-0.16,1.0,134.0,,,,,,,[],,,,,,56.4,1.0,i,1.0,True,840.1000000238419,51.0,60.0,40.0,False,,235.07226791831164,[],"[640, 400]",ColorTask,69.0,17.0,,,HRV,HRV_0093,2022-12-01 06:21:48
,wl-rdm,134,365880,0.0-8.17-0.17,1.0,135.0,,,,,,,[],,,,,,56.4,1.0,u,0.0,False,1812.4000000953674,109.0,60.0,40.0,False,,261.41139953229685,[],"[640, 400]",ColorTask,68.0,18.0,,,HRV,HRV_0093,2022-12-01 06:21:48
,wl-rdm,135,368585,0.0-8.18-0.18,1.0,136.0,,,,,,,[],,,,,,73.6,0.0,u,0.0,True,1378.3999999761581,83.0,60.0,40.0,False,,260.01894431747525,[],"[640, 400]",ColorTask,69.0,19.0,,,HRV,HRV_0093,2022-12-01 06:21:48
,wl-rdm,136,370585,0.0-8.19-0.19,1.0,137.0,,,,,,,[],,,,,,87.9,1.0,i,1.0,True,706.6999999284744,43.0,60.0,40.0,False,,222.25339331375707,[],"[640, 400]",ColorTask,70.0,20.0,,,HRV,HRV_0093,2022-12-01 06:21:48
,wl-rdm,137,372487,0.0-8.20-0.20,1.0,138.0,,,,,,,[],,,,,,50.0,0.0,i,1.0,False,641.8000000715256,39.0,60.0,40.0,False,,200.6479778212968,[],"[640, 400]",ColorTask,69.0,21.0,,,HRV,HRV_0093,2022-12-01 06:21:48
,wl-rdm,138,374856,0.0-8.21-0.21,1.0,139.0,,,,,,,[],,,,,,62.5,1.0,u,0.0,False,1057.0999999046326,64.0,60.0,40.0,False,,241.2493605344275,[],"[640, 400]",ColorTask,68.0,22.0,,,HRV,HRV_0093,2022-12-01 06:21:48
,wl-rdm,139,377291,0.0-8.22-0.22,1.0,140.0,,,,,,,[],,,,,,87.9,0.0,i,1.0,False,1162.7999999523163,70.0,60.0,40.0,False,,212.56096696379421,[],"[640, 400]",ColorTask,67.0,23.0,,,HRV,HRV_0093,2022-12-01 06:21:48
,wl-rdm,140,380210,0.0-8.23-0.23,1.0,141.0,,,,,,,[],,,,,,56.4,1.0,i,1.0,True,1552.5,93.0,60.0,40.0,False,,289.2857655338013,[],"[640, 400]",ColorTask,68.0,24.0,,,HRV,HRV_0093,2022-12-01 06:21:48
,wl-rdm,141,382679,0.0-8.24-0.24,1.0,142.0,,,,,,,[],,,,,,50.0,0.0,i,1.0,False,1089.0,66.0,60.0,40.0,False,,299.7583846674537,[],"[640, 400]",ColorTask,67.0,25.0,,,HRV,HRV_0093,2022-12-01 06:21:48
,wl-rdm,142,384831,0.0-8.25-0.25,1.0,143.0,,,,,,,[],,,,,,87.9,0.0,u,0.0,True,741.5000001192093,45.0,60.0,40.0,False,,325.4676657794028,[],"[640, 400]",ColorTask,68.0,26.0,,,HRV,HRV_0093,2022-12-01 06:21:48
,wl-rdm,143,386948,0.0-8.26-0.26,1.0,144.0,,,,,,,[],,,,,,87.9,1.0,i,1.0,True,705.9000000953674,43.0,60.0,40.0,False,,334.9480875836426,[],"[640, 400]",ColorTask,69.0,27.0,,,HRV,HRV_0093,2022-12-01 06:21:48
,wl-rdm,144,389083,0.0-8.27-0.27,1.0,145.0,,,,,,,[],,,,,,50.0,1.0,i,1.0,True,856.3000000715256,52.0,60.0,40.0,False,,200.23647420356698,[],"[640, 400]",ColorTask,70.0,28.0,,,HRV,HRV_0093,2022-12-01 06:21:48
,wl-rdm,145,391251,0.0-8.28-0.28,1.0,146.0,,,,,,,[],,,,,,87.9,0.0,u,0.0,True,815.2000000476837,49.0,60.0,40.0,False,,276.3569345323198,[],"[640, 400]",ColorTask,71.0,29.0,,,HRV,HRV_0093,2022-12-01 06:21:48
,wl-rdm,146,393636,0.0-8.29-0.29,1.0,147.0,,,,,,,[],,,,,,53.2,0.0,u,0.0,True,973.4000000953674,59.0,60.0,40.0,False,,337.6299806619631,[],"[640, 400]",ColorTask,72.0,30.0,,,HRV,HRV_0093,2022-12-01 06:21:48
,wl-rdm,147,395854,0.0-8.30-0.30,1.0,148.0,,,,,,,[],,,,,,73.6,0.0,u,0.0,True,889.2000000476837,54.0,60.0,40.0,False,,253.33052177427714,[],"[640, 400]",ColorTask,73.0,31.0,,,HRV,HRV_0093,2022-12-01 06:21:48
,wl-rdm,148,397922,0.0-8.31-0.31,1.0,149.0,,,,,,,[],,,,,,62.5,0.0,i,1.0,False,723.4999998807907,44.0,60.0,40.0,False,,258.87168684865844,[],"[640, 400]",ColorTask,72.0,32.0,,,HRV,HRV_0093,2022-12-01 06:21:48
,wl-rdm,149,400289,0.0-8.32-0.32,1.0,150.0,,,,,,,[],,,,,,53.2,1.0,i,1.0,True,1097.0,66.0,60.0,40.0,False,,207.2487353561035,[],"[640, 400]",ColorTask,73.0,33.0,,,HRV,HRV_0093,2022-12-01 06:21:48
,wl-rdm,150,403058,0.0-8.33-0.33,1.0,151.0,,,,,,,[],,,,,,56.4,0.0,u,0.0,True,1381.5,83.0,60.0,40.0,False,,302.67985855829914,[],"[640, 400]",ColorTask,74.0,34.0,,,HRV,HRV_0093,2022-12-01 06:21:48
,wl-rdm,151,405193,0.0-8.34-0.34,1.0,152.0,,,,,,,[],,,,,,53.2,1.0,i,1.0,True,836.0999999046326,50.0,60.0,40.0,False,,232.19231614514547,[],"[640, 400]",ColorTask,75.0,35.0,,,HRV,HRV_0093,2022-12-01 06:21:48
,wl-rdm,152,407545,0.0-8.35-0.35,1.0,153.0,,,,,,,[],,,,,,87.9,0.0,u,0.0,True,1056.2999999523163,64.0,60.0,40.0,False,,227.9977026280434,[],"[640, 400]",ColorTask,76.0,36.0,,,HRV,HRV_0093,2022-12-01 06:21:48
,wl-rdm,153,409662,0.0-8.36-0.36,1.0,154.0,,,,,,,[],,,,,,62.5,0.0,u,0.0,True,824.2000000476837,50.0,60.0,40.0,False,,219.22168770794138,[],"[640, 400]",ColorTask,77.0,37.0,,,HRV,HRV_0093,2022-12-01 06:21:48
,wl-rdm,154,411680,0.0-8.37-0.37,1.0,155.0,,,,,,,[],,,,,,87.9,1.0,i,1.0,True,613.7000000476837,37.0,60.0,40.0,False,,343.9462853838262,[],"[640, 400]",ColorTask,78.0,38.0,,,HRV,HRV_0093,2022-12-01 06:21:48
,wl-rdm,155,414348,0.0-8.38-0.38,1.0,156.0,,,,,,,[],,,,,,62.5,0.0,u,0.0,True,1342.5,81.0,60.0,40.0,False,,247.62371042992154,[],"[640, 400]",ColorTask,79.0,39.0,,,HRV,HRV_0093,2022-12-01 06:21:48
,wl-rdm,156,416498,0.0-8.39-0.39,1.0,157.0,,,,,,,[],,,,,,73.6,0.0,u,0.0,True,776.1999998092651,47.0,60.0,40.0,False,,308.49680501462865,[],"[640, 400]",ColorTask,80.0,40.0,,,HRV,HRV_0093,2022-12-01 06:21:48
,wl-rdm,157,418749,0.0-8.40-0.40,1.0,158.0,,,,,,,[],,,,,,73.6,0.0,u,0.0,True,932.5,56.0,60.0,40.0,False,,255.3795849801083,[],"[640, 400]",ColorTask,81.0,41.0,,,HRV,HRV_0093,2022-12-01 06:21:48
,wl-rdm,158,421234,0.0-8.41-0.41,1.0,159.0,,,,,,,[],,,,,,56.4,0.0,i,1.0,False,1106.8999999761581,67.0,60.0,40.0,False,,303.9675307988441,[],"[640, 400]",ColorTask,80.0,42.0,,,HRV,HRV_0093,2022-12-01 06:21:48
,wl-rdm,159,423704,0.0-8.42-0.42,1.0,160.0,,,,,,,[],,,,,,50.0,0.0,i,1.0,False,1071.4999998807907,65.0,60.0,40.0,False,,328.6565508263475,[],"[640, 400]",ColorTask,79.0,43.0,,,HRV,HRV_0093,2022-12-01 06:21:48
,wl-rdm,160,426120,0.0-8.43-0.43,1.0,161.0,,,,,,,[],,,,,,73.6,1.0,i,1.0,True,973.6999999284744,59.0,60.0,40.0,False,,351.19669805025694,[],"[640, 400]",ColorTask,80.0,44.0,,,HRV,HRV_0093,2022-12-01 06:21:48
,wl-rdm,161,428905,0.0-8.44-0.44,1.0,162.0,,,,,,,[],,,,,,62.5,0.0,u,0.0,True,1356.8000000715256,82.0,60.0,40.0,False,,361.2885637719927,[],"[640, 400]",ColorTask,81.0,45.0,,,HRV,HRV_0093,2022-12-01 06:21:48
,wl-rdm,162,431223,0.0-8.45-0.45,1.0,163.0,,,,,,,[],,,,,,87.9,0.0,u,0.0,True,913.6999999284744,55.0,60.0,40.0,False,,344.57620446461874,[],"[640, 400]",ColorTask,82.0,46.0,,,HRV,HRV_0093,2022-12-01 06:21:48
,wl-rdm,163,433157,0.0-8.46-0.46,1.0,164.0,,,,,,,[],,,,,,62.5,0.0,u,0.0,True,598.9000000953674,36.0,60.0,40.0,False,,254.30641862124767,[],"[640, 400]",ColorTask,83.0,47.0,,,HRV,HRV_0093,2022-12-01 06:21:48
,wl-rdm,164,435564,0.0-8.47-0.47,1.0,165.0,,,,,,,[],,,,,,50.0,1.0,i,1.0,True,1064.2999999523163,64.0,60.0,40.0,False,,287.6080408266263,[],"[640, 400]",ColorTask,84.0,48.0,,,HRV,HRV_0093,2022-12-01 06:21:48
,wl-rdm,165,439228,0.0-8.48-0.48,1.0,166.0,,,,,,,[],,,,,,56.4,0.0,u,0.0,True,2331.100000023842,140.0,60.0,40.0,False,,283.77373229476063,[],"[640, 400]",ColorTask,85.0,49.0,,,HRV,HRV_0093,2022-12-01 06:21:48
,wl-rdm,166,441694,0.0-8.49-0.49,1.0,167.0,,,,,,,[],,,,,,73.6,0.0,u,0.0,True,1112.2999999523163,67.0,60.0,40.0,False,,296.709188048639,[],"[640, 400]",ColorTask,86.0,50.0,,,HRV,HRV_0093,2022-12-01 06:21:48
,wl-rdm,167,444697,0.0-8.50-0.50,1.0,168.0,,,,,,,[],,,,,,53.2,1.0,i,1.0,True,1703.2000000476837,103.0,60.0,40.0,False,,224.43472275280934,[],"[640, 400]",ColorTask,87.0,51.0,,,HRV,HRV_0093,2022-12-01 06:21:48
,wl-rdm,168,446916,0.0-8.51-0.51,1.0,169.0,,,,,,,[],,,,,,56.4,1.0,i,1.0,True,754.1000000238419,46.0,60.0,40.0,False,,389.6384836485598,[],"[640, 400]",ColorTask,88.0,52.0,,,HRV,HRV_0093,2022-12-01 06:21:48
,wl-rdm,169,448932,0.0-8.52-0.52,1.0,170.0,,,,,,,[],,,,,,87.9,1.0,i,1.0,True,707.3999999761581,43.0,60.0,40.0,False,,219.9710934081466,[],"[640, 400]",ColorTask,89.0,53.0,,,HRV,HRV_0093,2022-12-01 06:21:48
,wl-rdm,170,451151,0.0-8.53-0.53,1.0,171.0,,,,,,,[],,,,,,62.5,0.0,u,0.0,True,826.3999999761581,50.0,60.0,40.0,False,,332.9924853489613,[],"[640, 400]",ColorTask,90.0,54.0,,,HRV,HRV_0093,2022-12-01 06:21:48
,wl-rdm,171,453351,0.0-8.54-0.54,1.0,172.0,,,,,,,[],,,,,,62.5,0.0,u,0.0,True,840.6000000238419,51.0,60.0,40.0,False,,287.26746125654154,[],"[640, 400]",ColorTask,91.0,55.0,,,HRV,HRV_0093,2022-12-01 06:21:48
,wl-rdm,172,455269,0.0-8.55-0.55,1.0,173.0,,,,,,,[],,,,,,62.5,1.0,i,1.0,True,597.1999999284744,36.0,60.0,40.0,False,,259.00761617665256,[],"[640, 400]",ColorTask,92.0,56.0,,,HRV,HRV_0093,2022-12-01 06:21:48
,wl-rdm,173,457320,0.0-8.56-0.56,1.0,174.0,,,,,,,[],,,,,,50.0,0.0,u,0.0,True,774.8999999761581,47.0,60.0,40.0,False,,211.06952649450983,[],"[640, 400]",ColorTask,93.0,57.0,,,HRV,HRV_0093,2022-12-01 06:21:48
,wl-rdm,174,459738,0.0-8.57-0.57,1.0,175.0,,,,,,,[],,,,,,62.5,1.0,i,1.0,True,1048.1000000238419,63.0,60.0,40.0,False,,306.40242430121793,[],"[640, 400]",ColorTask,94.0,58.0,,,HRV,HRV_0093,2022-12-01 06:21:48
,wl-rdm,175,462356,0.0-8.58-0.58,1.0,176.0,,,,,,,[],,,,,,56.4,1.0,u,0.0,False,1323.2999999523163,80.0,60.0,40.0,False,,227.29840842808196,[],"[640, 400]",ColorTask,93.0,59.0,,,HRV,HRV_0093,2022-12-01 06:21:48
,wl-rdm,176,464807,0.0-8.59-0.59,1.0,177.0,,,,,,,[],,,,,,73.6,1.0,i,1.0,True,1106.9000000953674,67.0,60.0,40.0,False,,266.7279757884536,[],"[640, 400]",ColorTask,94.0,60.0,,,HRV,HRV_0093,2022-12-01 06:21:48
,wl-rdm,177,466892,0.0-8.60-0.60,1.0,178.0,,,,,,,[],,,,,,50.0,1.0,i,1.0,True,687.8999999761581,42.0,60.0,40.0,False,,319.32541641862423,[],"[640, 400]",ColorTask,95.0,61.0,,,HRV,HRV_0093,2022-12-01 06:21:48
,wl-rdm,178,468842,0.0-8.61-0.61,1.0,179.0,,,,,,,[],,,,,,87.9,1.0,i,1.0,True,562.3000000715256,34.0,60.0,40.0,False,,319.7312374811028,[],"[640, 400]",ColorTask,96.0,62.0,,,HRV,HRV_0093,2022-12-01 06:21:48
,wl-rdm,179,471029,0.0-8.62-0.62,1.0,180.0,,,,,,,[],,,,,,87.9,0.0,u,0.0,True,722.5,44.0,60.0,40.0,False,,386.81977077930446,[],"[640, 400]",ColorTask,97.0,63.0,,,HRV,HRV_0093,2022-12-01 06:21:48
,wl-rdm,180,472928,0.0-8.63-0.63,1.0,181.0,,,,,,,[],,,,,,87.9,0.0,u,0.0,True,628.3999999761581,38.0,60.0,40.0,False,,204.09546817129157,[],"[640, 400]",ColorTask,98.0,64.0,,,HRV,HRV_0093,2022-12-01 06:21:48
,wl-rdm,181,475229,0.0-8.64-0.64,1.0,182.0,,,,,,,[],,,,,,50.0,1.0,u,0.0,False,906.6000000238419,55.0,60.0,40.0,False,,332.26195896832405,[],"[640, 400]",ColorTask,97.0,65.0,,,HRV,HRV_0093,2022-12-01 06:21:48
,wl-rdm,182,477580,0.0-8.65-0.65,1.0,183.0,,,,,,,[],,,,,,56.4,0.0,i,1.0,False,925.2000000476837,56.0,60.0,40.0,False,,355.7110017669063,[],"[640, 400]",ColorTask,96.0,66.0,,,HRV,HRV_0093,2022-12-01 06:21:48
,wl-rdm,183,480115,0.0-8.66-0.66,1.0,184.0,,,,,,,[],,,,,,73.6,1.0,i,1.0,True,1096.6999999284744,66.0,60.0,40.0,False,,371.06367545653836,[],"[640, 400]",ColorTask,97.0,67.0,,,HRV,HRV_0093,2022-12-01 06:21:48
,wl-rdm,184,482532,0.0-8.67-0.67,1.0,185.0,,,,,,,[],,,,,,53.2,0.0,u,0.0,True,1081.6000000238419,65.0,60.0,40.0,False,,272.4116777267073,[],"[640, 400]",ColorTask,98.0,68.0,,,HRV,HRV_0093,2022-12-01 06:21:48
,wl-rdm,185,484734,0.0-8.68-0.68,1.0,186.0,,,,,,,[],,,,,,73.6,1.0,i,1.0,True,832.0,50.0,60.0,40.0,False,,309.1767239004104,[],"[640, 400]",ColorTask,99.0,69.0,,,HRV,HRV_0093,2022-12-01 06:21:48
,wl-rdm,186,486786,0.0-8.69-0.69,1.0,187.0,,,,,,,[],,,,,,73.6,1.0,i,1.0,True,713.9999998807907,43.0,60.0,40.0,False,,258.8007882291537,[],"[640, 400]",ColorTask,100.0,70.0,,,HRV,HRV_0093,2022-12-01 06:21:48
,wl-rdm,187,488919,0.0-8.70-0.70,1.0,188.0,,,,,,,[],,,,,,56.4,0.0,i,1.0,False,740.2000000476837,45.0,60.0,40.0,False,,316.4040478919568,[],"[640, 400]",ColorTask,99.0,71.0,,,HRV,HRV_0093,2022-12-01 06:21:48
,wl-rdm,188,491103,0.0-8.71-0.71,1.0,189.0,,,,,,,[],,,,,,73.6,0.0,u,0.0,True,824.4000000953674,50.0,60.0,40.0,False,,289.97094796891815,[],"[640, 400]",ColorTask,100.0,72.0,,,HRV,HRV_0093,2022-12-01 06:21:48
,wl-rdm,189,493288,0.0-8.72-0.72,1.0,190.0,,,,,,,[],,,,,,56.4,1.0,i,1.0,True,798.3999999761581,48.0,60.0,40.0,False,,317.2246698714554,[],"[640, 400]",ColorTask,101.0,73.0,,,HRV,HRV_0093,2022-12-01 06:21:48
,wl-rdm,190,495355,0.0-8.73-0.73,1.0,191.0,,,,,,,[],,,,,,62.5,1.0,i,1.0,True,757.0,46.0,60.0,40.0,False,,226.2013249688477,[],"[640, 400]",ColorTask,102.0,74.0,,,HRV,HRV_0093,2022-12-01 06:21:48
,wl-rdm,191,497673,0.0-8.74-0.74,1.0,192.0,,,,,,,[],,,,,,62.5,0.0,u,0.0,True,1020.7000000476837,61.0,60.0,40.0,False,,219.994049072356,[],"[640, 400]",ColorTask,103.0,75.0,,,HRV,HRV_0093,2022-12-01 06:21:48
,wl-rdm,192,499841,0.0-8.75-0.75,1.0,193.0,,,,,,,[],,,,,,56.4,0.0,i,1.0,False,798.6999999284744,48.0,60.0,40.0,False,,282.6877335089396,[],"[640, 400]",ColorTask,102.0,76.0,,,HRV,HRV_0093,2022-12-01 06:21:48
,wl-rdm,193,502512,0.0-8.76-0.76,1.0,194.0,,,,,,,[],,,,,,50.0,0.0,u,0.0,True,1270.1999999284744,77.0,60.0,40.0,False,,324.23649197063264,[],"[640, 400]",ColorTask,103.0,77.0,,,HRV,HRV_0093,2022-12-01 06:21:48
,wl-rdm,194,504794,0.0-8.77-0.77,1.0,195.0,,,,,,,[],,,,,,53.2,1.0,i,1.0,True,859.0999999046326,52.0,60.0,40.0,False,,339.78664147951326,[],"[640, 400]",ColorTask,104.0,78.0,,,HRV,HRV_0093,2022-12-01 06:21:48
,wl-rdm,195,507080,0.0-8.78-0.78,1.0,196.0,,,,,,,[],,,,,,53.2,0.0,u,0.0,True,875.0,53.0,60.0,40.0,False,,347.47250897741196,[],"[640, 400]",ColorTask,105.0,79.0,,,HRV,HRV_0093,2022-12-01 06:21:48
,wl-rdm,196,509379,0.0-8.79-0.79,1.0,197.0,,,,,,,[],,,,,,62.5,0.0,u,0.0,True,855.7000000476837,52.0,60.0,40.0,False,,350.0396048266621,[],"[640, 400]",ColorTask,106.0,80.0,,,HRV,HRV_0093,2022-12-01 06:21:48
,wl-rdm,197,511631,0.0-8.80-0.80,1.0,198.0,,,,,,,[],,,,,,53.2,0.0,i,1.0,False,929.3999999761581,56.0,60.0,40.0,False,,260.8856668397243,[],"[640, 400]",ColorTask,105.0,81.0,,,HRV,HRV_0093,2022-12-01 06:21:48
,wl-rdm,198,513898,0.0-8.81-0.81,1.0,199.0,,,,,,,[],,,,,,56.4,0.0,u,0.0,True,921.9999998807907,56.0,60.0,40.0,False,,272.17524411235144,[],"[640, 400]",ColorTask,106.0,82.0,,,HRV,HRV_0093,2022-12-01 06:21:48
,wl-rdm,199,516100,0.0-8.82-0.82,1.0,200.0,,,,,,,[],,,,,,62.5,1.0,i,1.0,True,785.5,47.0,60.0,40.0,False,,339.91769352062295,[],"[640, 400]",ColorTask,107.0,83.0,,,HRV,HRV_0093,2022-12-01 06:21:48
,wl-rdm,200,518101,0.0-8.83-0.83,1.0,201.0,,,,,,,[],,,,,,62.5,1.0,i,1.0,True,636.3000000715256,38.0,60.0,40.0,False,,291.5383678325287,[],"[640, 400]",ColorTask,108.0,84.0,,,HRV,HRV_0093,2022-12-01 06:21:48
,wl-rdm,201,520502,0.0-8.84-0.84,1.0,202.0,,,,,,,[],,,,,,53.2,0.0,i,1.0,False,971.3000000715256,59.0,60.0,40.0,False,,364.5727077317171,[],"[640, 400]",ColorTask,107.0,85.0,,,HRV,HRV_0093,2022-12-01 06:21:48
,wl-rdm,202,522836,0.0-8.85-0.85,1.0,203.0,,,,,,,[],,,,,,73.6,0.0,u,0.0,True,924.6000000238419,56.0,60.0,40.0,False,,329.23390082121546,[],"[640, 400]",ColorTask,108.0,86.0,,,HRV,HRV_0093,2022-12-01 06:21:48
,wl-rdm,203,525153,0.0-8.86-0.86,1.0,204.0,,,,,,,[],,,,,,53.2,1.0,i,1.0,True,957.799999833107,58.0,60.0,40.0,False,,299.55942517326355,[],"[640, 400]",ColorTask,109.0,87.0,,,HRV,HRV_0093,2022-12-01 06:21:48
,wl-rdm,204,527439,0.0-8.87-0.87,1.0,205.0,,,,,,,[],,,,,,50.0,1.0,i,1.0,True,887.0,54.0,60.0,40.0,False,,333.4734438809244,[],"[640, 400]",ColorTask,110.0,88.0,,,HRV,HRV_0093,2022-12-01 06:21:48
,wl-rdm,205,529706,0.0-8.88-0.88,1.0,206.0,,,,,,,[],,,,,,53.2,0.0,i,1.0,False,887.8999999761581,54.0,60.0,40.0,False,,304.9118208245145,[],"[640, 400]",ColorTask,109.0,89.0,,,HRV,HRV_0093,2022-12-01 06:21:48
,wl-rdm,206,531974,0.0-8.89-0.89,1.0,207.0,,,,,,,[],,,,,,62.5,1.0,u,0.0,False,896.9000000953674,54.0,60.0,40.0,False,,290.8613791298758,[],"[640, 400]",ColorTask,108.0,90.0,,,HRV,HRV_0093,2022-12-01 06:21:48
,wl-rdm,207,533775,0.0-8.90-0.90,1.0,208.0,,,,,,,[],,,,,,73.6,1.0,i,1.0,True,407.0,25.0,60.0,40.0,False,,322.1878486659342,[],"[640, 400]",ColorTask,109.0,91.0,,,HRV,HRV_0093,2022-12-01 06:21:48
,wl-rdm,208,535809,0.0-8.91-0.91,1.0,209.0,,,,,,,[],,,,,,53.2,1.0,i,1.0,True,706.8999998569489,43.0,60.0,40.0,False,,264.46926471299014,[],"[640, 400]",ColorTask,110.0,92.0,,,HRV,HRV_0093,2022-12-01 06:21:48
,wl-rdm,209,537860,0.0-8.92-0.92,1.0,210.0,,,,,,,[],,,,,,56.4,1.0,i,1.0,True,640.0,39.0,60.0,40.0,False,,344.97572799420936,[],"[640, 400]",ColorTask,111.0,93.0,,,HRV,HRV_0093,2022-12-01 06:21:48
,wl-rdm,210,539911,0.0-8.93-0.93,1.0,211.0,,,,,,,[],,,,,,73.6,1.0,i,1.0,True,622.6999998092651,38.0,60.0,40.0,False,,366.599502584269,[],"[640, 400]",ColorTask,112.0,94.0,,,HRV,HRV_0093,2022-12-01 06:21:48
,wl-rdm,211,541963,0.0-8.94-0.94,1.0,212.0,,,,,,,[],,,,,,62.5,1.0,i,1.0,True,722.7999999523163,44.0,60.0,40.0,False,,257.42200743841715,[],"[640, 400]",ColorTask,113.0,95.0,,,HRV,HRV_0093,2022-12-01 06:21:48
,wl-rdm,212,544247,0.0-8.95-0.95,1.0,213.0,,,,,,,[],,,,,,62.5,1.0,i,1.0,True,946.8000000715256,57.0,60.0,40.0,False,,258.07129206737807,[],"[640, 400]",ColorTask,114.0,96.0,,,HRV,HRV_0093,2022-12-01 06:21:48
,wl-rdm,213,546350,0.0-8.96-0.96,1.0,214.0,,,,,,,[],,,,,,87.9,0.0,u,0.0,True,718.6000000238419,44.0,60.0,40.0,False,,314.97550389851756,[],"[640, 400]",ColorTask,115.0,97.0,,,HRV,HRV_0093,2022-12-01 06:21:48
,wl-rdm,214,548449,0.0-8.97-0.97,1.0,215.0,,,,,,,[],,,,,,73.6,1.0,i,1.0,True,680.5,41.0,60.0,40.0,False,,337.92188301693386,[],"[640, 400]",ColorTask,116.0,98.0,,,HRV,HRV_0093,2022-12-01 06:21:48
,wl-rdm,215,551034,0.0-8.98-0.98,1.0,216.0,,,,,,,[],,,,,,50.0,1.0,u,0.0,False,1132.8000000715256,68.0,60.0,40.0,False,,389.1268145765341,[],"[640, 400]",ColorTask,115.0,99.0,,,HRV,HRV_0093,2022-12-01 06:21:48
,wl-rdm,216,553185,0.0-8.99-0.99,1.0,217.0,,,,,,,[],,,,,,53.2,0.0,i,1.0,False,848.2000000476837,51.0,60.0,40.0,False,,241.73932309574732,[],"[640, 400]",ColorTask,114.0,100.0,,,HRV,HRV_0093,2022-12-01 06:21:48
,wl-rdm,217,555419,0.0-8.100-0.100,1.0,218.0,,,,,,,[],,,,,,53.2,1.0,i,1.0,True,956.6000000238419,58.0,60.0,40.0,False,,205.18992311464544,[],"[640, 400]",ColorTask,115.0,101.0,,,HRV,HRV_0093,2022-12-01 06:21:48
,wl-rdm,218,557804,0.0-8.101-0.101,1.0,219.0,,,,,,,[],,,,,,87.9,0.0,u,0.0,True,930.4000000953674,56.0,60.0,40.0,False,,369.4892611303519,[],"[640, 400]",ColorTask,116.0,102.0,,,HRV,HRV_0093,2022-12-01 06:21:48
,wl-rdm,219,559891,0.0-8.102-0.102,1.0,220.0,,,,,,,[],,,,,,87.9,1.0,i,1.0,True,774.2999999523163,47.0,60.0,40.0,False,,247.03944108831058,[],"[640, 400]",ColorTask,117.0,103.0,,,HRV,HRV_0093,2022-12-01 06:21:48
,wl-rdm,220,562323,0.0-8.103-0.103,1.0,221.0,,,,,,,[],,,,,,53.2,0.0,u,0.0,True,1087.8999999761581,66.0,60.0,40.0,False,,261.13022927666873,[],"[640, 400]",ColorTask,118.0,104.0,,,HRV,HRV_0093,2022-12-01 06:21:48
,wl-rdm,221,565224,0.0-8.104-0.104,1.0,222.0,,,,,,,[],,,,,,53.2,1.0,i,1.0,True,1625.2999999523163,98.0,60.0,40.0,False,,206.75835915763616,[],"[640, 400]",ColorTask,119.0,105.0,,,HRV,HRV_0093,2022-12-01 06:21:48
,wl-rdm,222,567559,0.0-8.105-0.105,1.0,223.0,,,,,,,[],,,,,,50.0,0.0,i,1.0,False,943.4999998807907,57.0,60.0,40.0,False,,302.7353539735036,[],"[640, 400]",ColorTask,118.0,106.0,,,HRV,HRV_0093,2022-12-01 06:21:48
,wl-rdm,223,569810,0.0-8.106-0.106,1.0,224.0,,,,,,,[],,,,,,73.6,1.0,i,1.0,True,973.0999999046326,59.0,60.0,40.0,False,,205.98171736923723,[],"[640, 400]",ColorTask,119.0,107.0,,,HRV,HRV_0093,2022-12-01 06:21:48
,wl-rdm,224,572344,0.0-8.107-0.107,1.0,225.0,,,,,,,[],,,,,,50.0,0.0,i,1.0,False,1106.3999999761581,67.0,60.0,40.0,False,,338.07835172115824,[],"[640, 400]",ColorTask,118.0,108.0,,,HRV,HRV_0093,2022-12-01 06:21:48
,wl-html-button-response,225,575690,0.0-9.0-0.0,,,,,,,,,,3341.4000000953674,,0,,,,,,,,,,,,,,,,,,,,<h3>End of this session. Thank you!</h3><br>,['Close window'],HRV,HRV_0093,2022-12-01 06:21:48
