trialN,stimuli,trialStartTime,trialStartTime_UNIX,stimulus1,stimulus2,stimulus1Bid,stimulus2Bid,delta,selected,rt,rt_UNIX,rt_perfnow,receivedResponse,rsp,trialEndTime,trialDuration,trialEndTime_UNIX,trialDuration_UNIX,exp,subjectId,date
0,"[{'imgObject': {}, 'id': 'blackbeanswithrice', 'src': '/static/foodstim60/blackbeanswithrice.jpg', 'key': 'u', 'origWidth': 410, 'origHeight': 410, 'width': 410, 'height': 410, 'widthPercent': 0.45, 'rescaleHeight': False, 'trialN': 0, 'loaded': True, 'loadedTime': 3245.5, 'positionName': 'LEFT', 'positionCoords': [204.4, 195], 'bid': 9.14}, {'imgObject': {}, 'id': 'orange slices', 'src': '/static/foodstim60/orange slices.jpg', 'key': 'i', 'origWidth': 409, 'origHeight': 410, 'width': 409, 'height': 410, 'widthPercent': 0.45, 'rescaleHeight': False, 'trialN': 0, 'loaded': True, 'loadedTime': 3276.0999999046326, 'positionName': 'RIGHT', 'positionCoords': [665.6, 195], 'bid': 2.84}]",4040.7999999523163,1669874717469,blackbeanswithrice,orange slices,9.14,2.84,-6.300000000000001,blackbeanswithrice,1066.8999999761581,1071,1071.2999999523163,True,u,5618.199999928474,1577.3999999761581,1669874719047,1578,HRV,HRV_0093,2022-12-01 06:11:48
1,"[{'imgObject': {}, 'id': 'fruitsalad', 'src': '/static/foodstim60/fruitsalad.jpg', 'key': 'u', 'origWidth': 410, 'origHeight': 410, 'width': 410, 'height': 410, 'widthPercent': 0.45, 'rescaleHeight': False, 'trialN': 1, 'loaded': True, 'loadedTime': 3414.399999976158, 'positionName': 'LEFT', 'positionCoords': [204.4, 195], 'bid': 3.79}, {'imgObject': {}, 'id': 'burrito', 'src': '/static/foodstim60/burrito.jpg', 'key': 'i', 'origWidth': 410, 'origHeight': 410, 'width': 410, 'height': 410, 'widthPercent': 0.45, 'rescaleHeight': False, 'trialN': 1, 'loaded': True, 'loadedTime': 3466.5999999046326, 'positionName': 'RIGHT', 'positionCoords': [665.6, 195], 'bid': 9.84}]",5618.5,1669874719047,fruitsalad,burrito,3.79,9.84,6.05,burrito,972.2999999523163,976,975.8999999761581,True,i,7101.199999928474,1482.6999999284744,1669874720530,1483,HRV,HRV_0093,2022-12-01 06:11:48
2,"[{'imgObject': {}, 'id': 'burger', 'src': '/static/foodstim60/burger.jpg', 'key': 'u', 'origWidth': 409, 'origHeight': 409, 'width': 409, 'height': 409, 'widthPercent': 0.45, 'rescaleHeight': False, 'trialN': 2, 'loaded': True, 'loadedTime': 3498.7999999523163, 'positionName': 'LEFT', 'positionCoords': [205.4, 195.5], 'bid': 6.23}, {'imgObject': {}, 'id': 'avocado', 'src': '/static/foodstim60/avocado.jpg', 'key': 'i', 'origWidth': 409, 'origHeight': 409, 'width': 409, 'height': 409, 'widthPercent': 0.45, 'rescaleHeight': False, 'trialN': 2, 'loaded': True, 'loadedTime': 3524.6999999284744, 'positionName': 'RIGHT', 'positionCoords': [665.6, 195.5], 'bid': 1.21}]",7101.299999952316,1669874720530,burger,avocado,6.23,1.21,-5.0200000000000005,burger,907.3999999761581,911,911.0,True,u,8517.599999904633,1416.2999999523163,1669874721946,1416,HRV,HRV_0093,2022-12-01 06:11:48
3,"[{'imgObject': {}, 'id': 'seaweed', 'src': '/static/foodstim60/seaweed.jpg', 'key': 'u', 'origWidth': 410, 'origHeight': 410, 'width': 410, 'height': 410, 'widthPercent': 0.45, 'rescaleHeight': False, 'trialN': 3, 'loaded': True, 'loadedTime': 3524.899999976158, 'positionName': 'LEFT', 'positionCoords': [204.4, 195], 'bid': 0.12}, {'imgObject': {}, 'id': 'corn cob', 'src': '/static/foodstim60/corn cob.jpg', 'key': 'i', 'origWidth': 411, 'origHeight': 411, 'width': 411, 'height': 411, 'widthPercent': 0.45, 'rescaleHeight': False, 'trialN': 3, 'loaded': True, 'loadedTime': 3555.1999999284744, 'positionName': 'RIGHT', 'positionCoords': [665.6, 194.5], 'bid': 0.15}]",8517.799999952316,1669874721946,seaweed,corn cob,0.12,0.15,0.03,corn cob,721.7999999523163,727,726.2999999523163,True,i,9745.299999952316,1227.5,1669874723174,1228,HRV,HRV_0093,2022-12-01 06:11:48
4,"[{'imgObject': {}, 'id': 'eggs', 'src': '/static/foodstim60/eggs.jpg', 'key': 'u', 'origWidth': 409, 'origHeight': 409, 'width': 409, 'height': 409, 'widthPercent': 0.45, 'rescaleHeight': False, 'trialN': 4, 'loaded': True, 'loadedTime': 3582, 'positionName': 'LEFT', 'positionCoords': [205.4, 195.5], 'bid': 7.79}, {'imgObject': {}, 'id': 'chickenfingers', 'src': '/static/foodstim60/chickenfingers.jpg', 'key': 'i', 'origWidth': 410, 'origHeight': 410, 'width': 410, 'height': 410, 'widthPercent': 0.45, 'rescaleHeight': False, 'trialN': 4, 'loaded': True, 'loadedTime': 3298.5, 'positionName': 'RIGHT', 'positionCoords': [665.6, 195], 'bid': 9.93}]",9745.5,1669874723174,eggs,chickenfingers,7.79,9.93,2.1399999999999997,chickenfingers,1016.0999999046326,1021,1021.0999999046326,True,i,11273.5,1528.0,1669874724702,1528,HRV,HRV_0093,2022-12-01 06:11:48
5,"[{'imgObject': {}, 'id': 'grilled chicken strips', 'src': '/static/foodstim60/grilled chicken strips.jpg', 'key': 'u', 'origWidth': 410, 'origHeight': 411, 'width': 410, 'height': 411, 'widthPercent': 0.45, 'rescaleHeight': False, 'trialN': 5, 'loaded': True, 'loadedTime': 3326.1999999284744, 'positionName': 'LEFT', 'positionCoords': [204.4, 194.5], 'bid': 6.0600000000000005}, {'imgObject': {}, 'id': 'cherries', 'src': '/static/foodstim60/cherries.jpg', 'key': 'i', 'origWidth': 410, 'origHeight': 411, 'width': 410, 'height': 411, 'widthPercent': 0.45, 'rescaleHeight': False, 'trialN': 5, 'loaded': True, 'loadedTime': 3363.899999976158, 'positionName': 'RIGHT', 'positionCoords': [665.6, 194.5], 'bid': 4.28}]",11273.799999952316,1669874724702,grilled chicken strips,cherries,6.0600000000000005,4.28,-1.7800000000000002,grilled chicken strips,783.6000000238419,789,789.0,True,u,12573.599999904633,1299.7999999523163,1669874726002,1300,HRV,HRV_0093,2022-12-01 06:11:48
6,"[{'imgObject': {}, 'id': 'bagel plain', 'src': '/static/foodstim60/bagel plain.jpg', 'key': 'u', 'origWidth': 410, 'origHeight': 410, 'width': 410, 'height': 410, 'widthPercent': 0.45, 'rescaleHeight': False, 'trialN': 6, 'loaded': True, 'loadedTime': 3389.0999999046326, 'positionName': 'LEFT', 'positionCoords': [204.4, 195], 'bid': 5.0600000000000005}, {'imgObject': {}, 'id': 'shreddedwheatwithmilk', 'src': '/static/foodstim60/shreddedwheatwithmilk.jpg', 'key': 'i', 'origWidth': 410, 'origHeight': 410, 'width': 410, 'height': 410, 'widthPercent': 0.45, 'rescaleHeight': False, 'trialN': 6, 'loaded': True, 'loadedTime': 3438.899999976158, 'positionName': 'RIGHT', 'positionCoords': [665.6, 195], 'bid': 5.1000000000000005}]",12573.799999952316,1669874726002,bagel plain,shreddedwheatwithmilk,5.0600000000000005,5.1000000000000005,0.040000000000000036,bagel plain,920.6000000238419,926,925.5,True,u,14005.599999904633,1431.7999999523163,1669874727434,1432,HRV,HRV_0093,2022-12-01 06:11:48
7,"[{'imgObject': {}, 'id': 'yogurt no spoon', 'src': '/static/foodstim60/yogurt no spoon.jpg', 'key': 'u', 'origWidth': 411, 'origHeight': 410, 'width': 411, 'height': 410, 'widthPercent': 0.45, 'rescaleHeight': False, 'trialN': 7, 'loaded': True, 'loadedTime': 3465.2999999523163, 'positionName': 'LEFT', 'positionCoords': [203.4, 195], 'bid': 4.26}, {'imgObject': {}, 'id': 'salmon', 'src': '/static/foodstim60/salmon.jpg', 'key': 'i', 'origWidth': 410, 'origHeight': 409, 'width': 410, 'height': 409, 'widthPercent': 0.45, 'rescaleHeight': False, 'trialN': 7, 'loaded': True, 'loadedTime': 3648.5999999046326, 'positionName': 'RIGHT', 'positionCoords': [665.6, 195.5], 'bid': 4.12}]",14005.899999976158,1669874727434,yogurt no spoon,salmon,4.26,4.12,-0.13999999999999968,salmon,870.3999999761581,876,875.6999999284744,True,i,15389.599999904633,1383.6999999284744,1669874728818,1384,HRV,HRV_0093,2022-12-01 06:11:48
8,"[{'imgObject': {}, 'id': 'corn cob', 'src': '/static/foodstim60/corn cob.jpg', 'key': 'u', 'origWidth': 411, 'origHeight': 411, 'width': 411, 'height': 411, 'widthPercent': 0.45, 'rescaleHeight': False, 'trialN': 8, 'loaded': True, 'loadedTime': 3580.1999999284744, 'positionName': 'LEFT', 'positionCoords': [203.4, 194.5], 'bid': 0.15}, {'imgObject': {}, 'id': 'sweetpotato', 'src': '/static/foodstim60/sweetpotato.jpg', 'key': 'i', 'origWidth': 410, 'origHeight': 410, 'width': 410, 'height': 410, 'widthPercent': 0.45, 'rescaleHeight': False, 'trialN': 8, 'loaded': True, 'loadedTime': 3701.1999999284744, 'positionName': 'RIGHT', 'positionCoords': [665.6, 195], 'bid': 5.65}]",15389.799999952316,1669874728818,corn cob,sweetpotato,0.15,5.65,5.5,sweetpotato,1010.3999999761581,1015,1015.0,True,i,16917.599999904633,1527.7999999523163,1669874730346,1528,HRV,HRV_0093,2022-12-01 06:11:48
9,"[{'imgObject': {}, 'id': 'omelette', 'src': '/static/foodstim60/omelette.jpg', 'key': 'u', 'origWidth': 410, 'origHeight': 409, 'width': 410, 'height': 409, 'widthPercent': 0.45, 'rescaleHeight': False, 'trialN': 9, 'loaded': True, 'loadedTime': 3702, 'positionName': 'LEFT', 'positionCoords': [204.4, 195.5], 'bid': 5.9}, {'imgObject': {}, 'id': 'yogurt no spoon', 'src': '/static/foodstim60/yogurt no spoon.jpg', 'key': 'i', 'origWidth': 411, 'origHeight': 410, 'width': 411, 'height': 410, 'widthPercent': 0.45, 'rescaleHeight': False, 'trialN': 9, 'loaded': True, 'loadedTime': 3439.6999999284744, 'positionName': 'RIGHT', 'positionCoords': [665.6, 195], 'bid': 4.26}]",16917.899999976158,1669874730346,omelette,yogurt no spoon,5.9,4.26,-1.6400000000000006,omelette,995.1999999284744,1000,999.8999999761581,True,u,18424.599999904633,1506.6999999284744,1669874731853,1507,HRV,HRV_0093,2022-12-01 06:11:48
10,"[{'imgObject': {}, 'id': 'raspberries', 'src': '/static/foodstim60/raspberries.jpg', 'key': 'u', 'origWidth': 411, 'origHeight': 411, 'width': 411, 'height': 411, 'widthPercent': 0.45, 'rescaleHeight': False, 'trialN': 10, 'loaded': True, 'loadedTime': 3728.1999999284744, 'positionName': 'LEFT', 'positionCoords': [203.4, 194.5], 'bid': 3.73}, {'imgObject': {}, 'id': 'cantaloupe', 'src': '/static/foodstim60/cantaloupe.jpg', 'key': 'i', 'origWidth': 409, 'origHeight': 409, 'width': 409, 'height': 409, 'widthPercent': 0.45, 'rescaleHeight': False, 'trialN': 10, 'loaded': True, 'loadedTime': 3745.5999999046326, 'positionName': 'RIGHT', 'positionCoords': [665.6, 195.5], 'bid': 0.26}]",18424.799999952316,1669874731853,raspberries,cantaloupe,3.73,0.26,-3.4699999999999998,raspberries,1269.2999999523163,1274,1274.0,True,u,20200.599999904633,1775.7999999523163,1669874733629,1776,HRV,HRV_0093,2022-12-01 06:11:48
11,"[{'imgObject': {}, 'id': 'eggs', 'src': '/static/foodstim60/eggs.jpg', 'key': 'u', 'origWidth': 409, 'origHeight': 409, 'width': 409, 'height': 409, 'widthPercent': 0.45, 'rescaleHeight': False, 'trialN': 11, 'loaded': True, 'loadedTime': 3581.5, 'positionName': 'LEFT', 'positionCoords': [205.4, 195.5], 'bid': 7.79}, {'imgObject': {}, 'id': 'rigatoni and sauce', 'src': '/static/foodstim60/rigatoni and sauce.jpg', 'key': 'i', 'origWidth': 410, 'origHeight': 411, 'width': 410, 'height': 411, 'widthPercent': 0.45, 'rescaleHeight': False, 'trialN': 11, 'loaded': True, 'loadedTime': 3747.1999999284744, 'positionName': 'RIGHT', 'positionCoords': [665.6, 194.5], 'bid': 7.68}]",20200.799999952316,1669874733630,eggs,rigatoni and sauce,7.79,7.68,-0.11000000000000032,rigatoni and sauce,1300.8999999761581,1304,1304.1000000238419,True,i,22013.599999904633,1812.7999999523163,1669874735442,1812,HRV,HRV_0093,2022-12-01 06:11:48
12,"[{'imgObject': {}, 'id': 'turkeysandwich', 'src': '/static/foodstim60/turkeysandwich.jpg', 'key': 'u', 'origWidth': 409, 'origHeight': 409, 'width': 409, 'height': 409, 'widthPercent': 0.45, 'rescaleHeight': False, 'trialN': 12, 'loaded': True, 'loadedTime': 3747.7999999523163, 'positionName': 'LEFT', 'positionCoords': [205.4, 195.5], 'bid': 3.23}, {'imgObject': {}, 'id': 'olives', 'src': '/static/foodstim60/olives.jpg', 'key': 'i', 'origWidth': 410, 'origHeight': 410, 'width': 410, 'height': 410, 'widthPercent': 0.45, 'rescaleHeight': False, 'trialN': 12, 'loaded': True, 'loadedTime': 3785, 'positionName': 'RIGHT', 'positionCoords': [665.6, 195], 'bid': 1.73}]",22013.799999952316,1669874735443,turkeysandwich,olives,3.23,1.73,-1.5,turkeysandwich,1215.1000000238419,1221,1221.7999999523163,True,u,23737.399999976158,1723.6000000238419,1669874737166,1723,HRV,HRV_0093,2022-12-01 06:11:48
13,"[{'imgObject': {}, 'id': 'veggieswithdip', 'src': '/static/foodstim60/veggieswithdip.jpg', 'key': 'u', 'origWidth': 409, 'origHeight': 409, 'width': 409, 'height': 409, 'widthPercent': 0.45, 'rescaleHeight': False, 'trialN': 13, 'loaded': True, 'loadedTime': 3805.7999999523163, 'positionName': 'LEFT', 'positionCoords': [205.4, 195.5], 'bid': 0.06}, {'imgObject': {}, 'id': 'kiwi', 'src': '/static/foodstim60/kiwi.jpg', 'key': 'i', 'origWidth': 410, 'origHeight': 410, 'width': 410, 'height': 410, 'widthPercent': 0.45, 'rescaleHeight': False, 'trialN': 13, 'loaded': True, 'loadedTime': 3807.399999976158, 'positionName': 'RIGHT', 'positionCoords': [665.6, 195], 'bid': 1.45}]",23737.599999904633,1669874737166,veggieswithdip,kiwi,0.06,1.45,1.39,kiwi,1290.2000000476837,1296,1295.5,True,i,25540.099999904633,1802.5,1669874738969,1803,HRV,HRV_0093,2022-12-01 06:11:48
14,"[{'imgObject': {}, 'id': 'shreddedwheatwithmilk', 'src': '/static/foodstim60/shreddedwheatwithmilk.jpg', 'key': 'u', 'origWidth': 410, 'origHeight': 410, 'width': 410, 'height': 410, 'widthPercent': 0.45, 'rescaleHeight': False, 'trialN': 14, 'loaded': True, 'loadedTime': 3439.5999999046326, 'positionName': 'LEFT', 'positionCoords': [204.4, 195], 'bid': 5.1000000000000005}, {'imgObject': {}, 'id': 'eggsalad', 'src': '/static/foodstim60/eggsalad.jpg', 'key': 'i', 'origWidth': 410, 'origHeight': 409, 'width': 410, 'height': 409, 'widthPercent': 0.45, 'rescaleHeight': False, 'trialN': 14, 'loaded': True, 'loadedTime': 3824.5999999046326, 'positionName': 'RIGHT', 'positionCoords': [665.6, 195.5], 'bid': 5.39}]",25540.299999952316,1669874738969,shreddedwheatwithmilk,eggsalad,5.1000000000000005,5.39,0.28999999999999915,eggsalad,1697.3999999761581,1702,1702.1000000238419,True,i,27746.5,2206.2000000476837,1669874741175,2206,HRV,HRV_0093,2022-12-01 06:11:48
15,"[{'imgObject': {}, 'id': 'chicken nuggets2', 'src': '/static/foodstim60/chicken nuggets2.jpg', 'key': 'u', 'origWidth': 410, 'origHeight': 409, 'width': 410, 'height': 409, 'widthPercent': 0.45, 'rescaleHeight': False, 'trialN': 15, 'loaded': True, 'loadedTime': 3827.6999999284744, 'positionName': 'LEFT', 'positionCoords': [204.4, 195.5], 'bid': 9.96}, {'imgObject': {}, 'id': 'rigatoni', 'src': '/static/foodstim60/rigatoni.jpg', 'key': 'i', 'origWidth': 411, 'origHeight': 411, 'width': 411, 'height': 411, 'widthPercent': 0.45, 'rescaleHeight': False, 'trialN': 15, 'loaded': True, 'loadedTime': 3845.1999999284744, 'positionName': 'RIGHT', 'positionCoords': [665.6, 194.5], 'bid': 4.79}]",27746.799999952316,1669874741176,chicken nuggets2,rigatoni,9.96,4.79,-5.170000000000001,chicken nuggets2,828.7999999523163,833,833.3999999761581,True,u,29083.099999904633,1336.2999999523163,1669874742512,1336,HRV,HRV_0093,2022-12-01 06:11:48
16,"[{'imgObject': {}, 'id': 'bagel plain', 'src': '/static/foodstim60/bagel plain.jpg', 'key': 'u', 'origWidth': 410, 'origHeight': 410, 'width': 410, 'height': 410, 'widthPercent': 0.45, 'rescaleHeight': False, 'trialN': 16, 'loaded': True, 'loadedTime': 3389.899999976158, 'positionName': 'LEFT', 'positionCoords': [204.4, 195], 'bid': 5.0600000000000005}, {'imgObject': {}, 'id': 'raisin bran w milk', 'src': '/static/foodstim60/raisin bran w milk.jpg', 'key': 'i', 'origWidth': 411, 'origHeight': 411, 'width': 411, 'height': 411, 'widthPercent': 0.45, 'rescaleHeight': False, 'trialN': 16, 'loaded': True, 'loadedTime': 3846.899999976158, 'positionName': 'RIGHT', 'positionCoords': [665.6, 194.5], 'bid': 5.14}]",29083.299999952316,1669874742512,bagel plain,raisin bran w milk,5.0600000000000005,5.14,0.07999999999999918,bagel plain,1663.1000000238419,1667,1667.0,True,u,31261.599999904633,2178.2999999523163,1669874744691,2179,HRV,HRV_0093,2022-12-01 06:11:48
17,"[{'imgObject': {}, 'id': 'salad w chicken', 'src': '/static/foodstim60/salad w chicken.jpg', 'key': 'u', 'origWidth': 411, 'origHeight': 411, 'width': 411, 'height': 411, 'widthPercent': 0.45, 'rescaleHeight': False, 'trialN': 17, 'loaded': True, 'loadedTime': 3847, 'positionName': 'LEFT', 'positionCoords': [203.4, 194.5], 'bid': 1.35}, {'imgObject': {}, 'id': 'cherry tomato', 'src': '/static/foodstim60/cherry tomato.jpg', 'key': 'i', 'origWidth': 410, 'origHeight': 410, 'width': 410, 'height': 410, 'widthPercent': 0.45, 'rescaleHeight': False, 'trialN': 17, 'loaded': True, 'loadedTime': 3869.2999999523163, 'positionName': 'RIGHT', 'positionCoords': [665.6, 195], 'bid': 0.03}]",31261.799999952316,1669874744691,salad w chicken,cherry tomato,1.35,0.03,-1.32,salad w chicken,1787.5,1792,1792.2000000476837,True,u,33563.199999928474,2301.399999976158,1669874746992,2301,HRV,HRV_0093,2022-12-01 06:11:48
18,"[{'imgObject': {}, 'id': 'chicken nuggets2', 'src': '/static/foodstim60/chicken nuggets2.jpg', 'key': 'u', 'origWidth': 410, 'origHeight': 409, 'width': 410, 'height': 409, 'widthPercent': 0.45, 'rescaleHeight': False, 'trialN': 18, 'loaded': True, 'loadedTime': 3828, 'positionName': 'LEFT', 'positionCoords': [204.4, 195.5], 'bid': 9.96}, {'imgObject': {}, 'id': 'Tribe humus pita', 'src': '/static/foodstim60/Tribe humus pita.jpg', 'key': 'i', 'origWidth': 411, 'origHeight': 411, 'width': 411, 'height': 411, 'widthPercent': 0.45, 'rescaleHeight': False, 'trialN': 18, 'loaded': True, 'loadedTime': 4011.7999999523163, 'positionName': 'RIGHT', 'positionCoords': [665.6, 194.5], 'bid': 9.93}]",33563.39999997616,1669874746992,chicken nuggets2,Tribe humus pita,9.96,9.93,-0.030000000000001137,chicken nuggets2,1340.6999999284744,1346,1345.1999999284744,True,u,35416.89999997616,1853.5,1669874748846,1854,HRV,HRV_0093,2022-12-01 06:11:48
19,"[{'imgObject': {}, 'id': 'chicken nuggets2', 'src': '/static/foodstim60/chicken nuggets2.jpg', 'key': 'u', 'origWidth': 410, 'origHeight': 409, 'width': 410, 'height': 409, 'widthPercent': 0.45, 'rescaleHeight': False, 'trialN': 19, 'loaded': True, 'loadedTime': 3826.0999999046326, 'positionName': 'LEFT', 'positionCoords': [204.4, 195.5], 'bid': 9.96}, {'imgObject': {}, 'id': 'blackbeanswithrice', 'src': '/static/foodstim60/blackbeanswithrice.jpg', 'key': 'i', 'origWidth': 410, 'origHeight': 410, 'width': 410, 'height': 410, 'widthPercent': 0.45, 'rescaleHeight': False, 'trialN': 19, 'loaded': True, 'loadedTime': 3245.6999999284744, 'positionName': 'RIGHT', 'positionCoords': [665.6, 195], 'bid': 9.14}]",35417.09999990463,1669874748846,chicken nuggets2,blackbeanswithrice,9.96,9.14,-0.8200000000000003,blackbeanswithrice,717.2000000476837,723,722.9000000953674,True,i,36641.699999928474,1224.6000000238419,1669874750071,1225,HRV,HRV_0093,2022-12-01 06:11:48
20,"[{'imgObject': {}, 'id': 'mac & cheese', 'src': '/static/foodstim60/mac & cheese.jpg', 'key': 'u', 'origWidth': 410, 'origHeight': 410, 'width': 410, 'height': 410, 'widthPercent': 0.45, 'rescaleHeight': False, 'trialN': 20, 'loaded': True, 'loadedTime': 4013.5, 'positionName': 'LEFT', 'positionCoords': [204.4, 195], 'bid': 9.9}, {'imgObject': {}, 'id': 'tacos', 'src': '/static/foodstim60/tacos.jpg', 'key': 'i', 'origWidth': 411, 'origHeight': 411, 'width': 411, 'height': 411, 'widthPercent': 0.45, 'rescaleHeight': False, 'trialN': 20, 'loaded': True, 'loadedTime': 4015.2999999523163, 'positionName': 'RIGHT', 'positionCoords': [665.6, 194.5], 'bid': 6.79}]",36641.799999952316,1669874750071,mac & cheese,tacos,9.9,6.79,-3.1100000000000003,mac & cheese,1382.2000000476837,1387,1387.0,True,u,38541.59999990463,1899.7999999523163,1669874751971,1900,HRV,HRV_0093,2022-12-01 06:11:48
21,"[{'imgObject': {}, 'id': 'steak', 'src': '/static/foodstim60/steak.jpg', 'key': 'u', 'origWidth': 410, 'origHeight': 410, 'width': 410, 'height': 410, 'widthPercent': 0.45, 'rescaleHeight': False, 'trialN': 21, 'loaded': True, 'loadedTime': 4016.7999999523163, 'positionName': 'LEFT', 'positionCoords': [204.4, 195], 'bid': 8.14}, {'imgObject': {}, 'id': 'shreddedwheatwithmilk', 'src': '/static/foodstim60/shreddedwheatwithmilk.jpg', 'key': 'i', 'origWidth': 410, 'origHeight': 410, 'width': 410, 'height': 410, 'widthPercent': 0.45, 'rescaleHeight': False, 'trialN': 21, 'loaded': True, 'loadedTime': 3415.1999999284744, 'positionName': 'RIGHT', 'positionCoords': [665.6, 195], 'bid': 5.1000000000000005}]",38541.799999952316,1669874751971,steak,shreddedwheatwithmilk,8.14,5.1000000000000005,-3.04,steak,1168.1000000238419,1173,1173.0,True,u,40221.0,1679.2000000476837,1669874753650,1679,HRV,HRV_0093,2022-12-01 06:11:48
22,"[{'imgObject': {}, 'id': 'fried eggs', 'src': '/static/foodstim60/fried eggs.jpg', 'key': 'u', 'origWidth': 410, 'origHeight': 410, 'width': 410, 'height': 410, 'widthPercent': 0.45, 'rescaleHeight': False, 'trialN': 22, 'loaded': True, 'loadedTime': 4033.2999999523163, 'positionName': 'LEFT', 'positionCoords': [204.4, 195], 'bid': 9.87}, {'imgObject': {}, 'id': 'bagel and cc', 'src': '/static/foodstim60/bagel and cc.jpg', 'key': 'i', 'origWidth': 410, 'origHeight': 410, 'width': 410, 'height': 410, 'widthPercent': 0.45, 'rescaleHeight': False, 'trialN': 22, 'loaded': True, 'loadedTime': 4036.7999999523163, 'positionName': 'RIGHT', 'positionCoords': [665.6, 195], 'bid': 9.87}]",40221.199999928474,1669874753650,fried eggs,bagel and cc,9.87,9.87,0.0,fried eggs,1738.6000000238419,1744,1743.8999999761581,True,u,42477.59999990463,2256.399999976158,1669874755907,2257,HRV,HRV_0093,2022-12-01 06:11:48
23,"[{'imgObject': {}, 'id': 'Tribe humus pita', 'src': '/static/foodstim60/Tribe humus pita.jpg', 'key': 'u', 'origWidth': 411, 'origHeight': 411, 'width': 411, 'height': 411, 'widthPercent': 0.45, 'rescaleHeight': False, 'trialN': 23, 'loaded': True, 'loadedTime': 4011.899999976158, 'positionName': 'LEFT', 'positionCoords': [203.4, 194.5], 'bid': 9.93}, {'imgObject': {}, 'id': 'mashed potato', 'src': '/static/foodstim60/mashed potato.jpg', 'key': 'i', 'origWidth': 409, 'origHeight': 409, 'width': 409, 'height': 409, 'widthPercent': 0.45, 'rescaleHeight': False, 'trialN': 23, 'loaded': True, 'loadedTime': 3670.399999976158, 'positionName': 'RIGHT', 'positionCoords': [665.6, 195.5], 'bid': 9.84}]",42477.799999952316,1669874755907,Tribe humus pita,mashed potato,9.93,9.84,-0.08999999999999986,mashed potato,2730.899999976158,2736,2736.5,True,i,45720.59999990463,3242.7999999523163,1669874759150,3243,HRV,HRV_0093,2022-12-01 06:11:48
24,"[{'imgObject': {}, 'id': 'fruitsalad', 'src': '/static/foodstim60/fruitsalad.jpg', 'key': 'u', 'origWidth': 410, 'origHeight': 410, 'width': 410, 'height': 410, 'widthPercent': 0.45, 'rescaleHeight': False, 'trialN': 24, 'loaded': True, 'loadedTime': 3414.5999999046326, 'positionName': 'LEFT', 'positionCoords': [204.4, 195], 'bid': 3.79}, {'imgObject': {}, 'id': 'lox', 'src': '/static/foodstim60/lox.jpg', 'key': 'i', 'origWidth': 410, 'origHeight': 411, 'width': 410, 'height': 411, 'widthPercent': 0.45, 'rescaleHeight': False, 'trialN': 24, 'loaded': True, 'loadedTime': 3696.399999976158, 'positionName': 'RIGHT', 'positionCoords': [665.6, 194.5], 'bid': 0.84}]",45720.699999928474,1669874759150,fruitsalad,lox,3.79,0.84,-2.95,fruitsalad,1574.8999999761581,1578,1578.3000000715256,True,u,47800.799999952316,2080.100000023842,1669874761230,2080,HRV,HRV_0093,2022-12-01 06:11:48
25,"[{'imgObject': {}, 'id': 'mac & cheese', 'src': '/static/foodstim60/mac & cheese.jpg', 'key': 'u', 'origWidth': 410, 'origHeight': 410, 'width': 410, 'height': 410, 'widthPercent': 0.45, 'rescaleHeight': False, 'trialN': 25, 'loaded': True, 'loadedTime': 4013.399999976158, 'positionName': 'LEFT', 'positionCoords': [204.4, 195], 'bid': 9.9}, {'imgObject': {}, 'id': 'Tribe humus pita', 'src': '/static/foodstim60/Tribe humus pita.jpg', 'key': 'i', 'origWidth': 411, 'origHeight': 411, 'width': 411, 'height': 411, 'widthPercent': 0.45, 'rescaleHeight': False, 'trialN': 25, 'loaded': True, 'loadedTime': 4012, 'positionName': 'RIGHT', 'positionCoords': [665.6, 194.5], 'bid': 9.93}]",47801.0,1669874761230,mac & cheese,Tribe humus pita,9.9,9.93,0.02999999999999936,mac & cheese,1228.5999999046326,1234,1233.2999999523163,True,u,49537.299999952316,1736.2999999523163,1669874762967,1737,HRV,HRV_0093,2022-12-01 06:11:48
26,"[{'imgObject': {}, 'id': 'turkeysandwich', 'src': '/static/foodstim60/turkeysandwich.jpg', 'key': 'u', 'origWidth': 409, 'origHeight': 409, 'width': 409, 'height': 409, 'widthPercent': 0.45, 'rescaleHeight': False, 'trialN': 26, 'loaded': True, 'loadedTime': 3764.0999999046326, 'positionName': 'LEFT', 'positionCoords': [205.4, 195.5], 'bid': 3.23}, {'imgObject': {}, 'id': 'edamame', 'src': '/static/foodstim60/edamame.jpg', 'key': 'i', 'origWidth': 409, 'origHeight': 410, 'width': 409, 'height': 410, 'widthPercent': 0.45, 'rescaleHeight': False, 'trialN': 26, 'loaded': True, 'loadedTime': 3872, 'positionName': 'RIGHT', 'positionCoords': [665.6, 195], 'bid': 9.81}]",49537.39999997616,1669874762967,turkeysandwich,edamame,3.23,9.81,6.58,edamame,1314,1318,1318.5,True,i,51363.299999952316,1825.8999999761581,1669874764793,1826,HRV,HRV_0093,2022-12-01 06:11:48
27,"[{'imgObject': {}, 'id': 'burger', 'src': '/static/foodstim60/burger.jpg', 'key': 'u', 'origWidth': 409, 'origHeight': 409, 'width': 409, 'height': 409, 'widthPercent': 0.45, 'rescaleHeight': False, 'trialN': 27, 'loaded': True, 'loadedTime': 3496.399999976158, 'positionName': 'LEFT', 'positionCoords': [205.4, 195.5], 'bid': 6.23}, {'imgObject': {}, 'id': 'baked potato', 'src': '/static/foodstim60/baked potato.jpg', 'key': 'i', 'origWidth': 409, 'origHeight': 410, 'width': 409, 'height': 410, 'widthPercent': 0.45, 'rescaleHeight': False, 'trialN': 27, 'loaded': True, 'loadedTime': 3766.1999999284744, 'positionName': 'RIGHT', 'positionCoords': [665.6, 195], 'bid': 7.18}]",51363.5,1669874764793,burger,baked potato,6.23,7.18,0.9499999999999993,baked potato,2235.7999999523163,2240,2240.5,True,i,54107.299999952316,2743.7999999523163,1669874767537,2744,HRV,HRV_0093,2022-12-01 06:11:48
28,"[{'imgObject': {}, 'id': 'baked potato', 'src': '/static/foodstim60/baked potato.jpg', 'key': 'u', 'origWidth': 409, 'origHeight': 410, 'width': 409, 'height': 410, 'widthPercent': 0.45, 'rescaleHeight': False, 'trialN': 28, 'loaded': True, 'loadedTime': 3766.5, 'positionName': 'LEFT', 'positionCoords': [205.4, 195], 'bid': 7.18}, {'imgObject': {}, 'id': 'mashed potato', 'src': '/static/foodstim60/mashed potato.jpg', 'key': 'i', 'origWidth': 409, 'origHeight': 409, 'width': 409, 'height': 409, 'widthPercent': 0.45, 'rescaleHeight': False, 'trialN': 28, 'loaded': True, 'loadedTime': 3669.7999999523163, 'positionName': 'RIGHT', 'positionCoords': [665.6, 195.5], 'bid': 9.84}]",54107.5,1669874767537,baked potato,mashed potato,7.18,9.84,2.66,mashed potato,1035.5999999046326,1041,1040.7999999523163,True,i,55653.59999990463,1546.0999999046326,1669874769083,1546,HRV,HRV_0093,2022-12-01 06:11:48
29,"[{'imgObject': {}, 'id': 'raisin bran w milk', 'src': '/static/foodstim60/raisin bran w milk.jpg', 'key': 'u', 'origWidth': 411, 'origHeight': 411, 'width': 411, 'height': 411, 'widthPercent': 0.45, 'rescaleHeight': False, 'trialN': 29, 'loaded': True, 'loadedTime': 3845.2999999523163, 'positionName': 'LEFT', 'positionCoords': [203.4, 194.5], 'bid': 5.14}, {'imgObject': {}, 'id': 'blackbeanswithrice', 'src': '/static/foodstim60/blackbeanswithrice.jpg', 'key': 'i', 'origWidth': 410, 'origHeight': 410, 'width': 410, 'height': 410, 'widthPercent': 0.45, 'rescaleHeight': False, 'trialN': 29, 'loaded': True, 'loadedTime': 3184.0999999046326, 'positionName': 'RIGHT', 'positionCoords': [665.6, 195], 'bid': 9.14}]",55653.799999952316,1669874769083,raisin bran w milk,blackbeanswithrice,5.14,9.14,4.000000000000001,blackbeanswithrice,1135.1000000238419,1138,1138.2000000476837,True,i,57301.699999928474,1647.8999999761581,1669874770731,1648,HRV,HRV_0093,2022-12-01 06:11:48
30,"[{'imgObject': {}, 'id': 'chickenfingers', 'src': '/static/foodstim60/chickenfingers.jpg', 'key': 'u', 'origWidth': 410, 'origHeight': 410, 'width': 410, 'height': 410, 'widthPercent': 0.45, 'rescaleHeight': False, 'trialN': 30, 'loaded': True, 'loadedTime': 3297.7999999523163, 'positionName': 'LEFT', 'positionCoords': [204.4, 195], 'bid': 9.93}, {'imgObject': {}, 'id': 'yogurt no spoon', 'src': '/static/foodstim60/yogurt no spoon.jpg', 'key': 'i', 'origWidth': 411, 'origHeight': 410, 'width': 411, 'height': 410, 'widthPercent': 0.45, 'rescaleHeight': False, 'trialN': 30, 'loaded': True, 'loadedTime': 3441.5999999046326, 'positionName': 'RIGHT', 'positionCoords': [665.6, 195], 'bid': 4.26}]",57301.799999952316,1669874770731,chickenfingers,yogurt no spoon,9.93,4.26,-5.67,chickenfingers,1216.2000000476837,1221,1220.7999999523163,True,u,59029.59999990463,1727.7999999523163,1669874772459,1728,HRV,HRV_0093,2022-12-01 06:11:48
31,"[{'imgObject': {}, 'id': 'avocado', 'src': '/static/foodstim60/avocado.jpg', 'key': 'u', 'origWidth': 409, 'origHeight': 409, 'width': 409, 'height': 409, 'widthPercent': 0.45, 'rescaleHeight': False, 'trialN': 31, 'loaded': True, 'loadedTime': 3524.7999999523163, 'positionName': 'LEFT', 'positionCoords': [205.4, 195.5], 'bid': 1.21}, {'imgObject': {}, 'id': 'seaweed', 'src': '/static/foodstim60/seaweed.jpg', 'key': 'i', 'origWidth': 410, 'origHeight': 410, 'width': 410, 'height': 410, 'widthPercent': 0.45, 'rescaleHeight': False, 'trialN': 31, 'loaded': True, 'loadedTime': 3554.399999976158, 'positionName': 'RIGHT', 'positionCoords': [665.6, 195], 'bid': 0.12}]",59029.799999952316,1669874772459,avocado,seaweed,1.21,0.12,-1.0899999999999999,avocado,1438.1000000238419,1445,1444.8999999761581,True,u,60977.5,1947.7000000476837,1669874774407,1948,HRV,HRV_0093,2022-12-01 06:11:48
32,"[{'imgObject': {}, 'id': 'lox', 'src': '/static/foodstim60/lox.jpg', 'key': 'u', 'origWidth': 410, 'origHeight': 411, 'width': 410, 'height': 411, 'widthPercent': 0.45, 'rescaleHeight': False, 'trialN': 32, 'loaded': True, 'loadedTime': 3672.6999999284744, 'positionName': 'LEFT', 'positionCoords': [204.4, 194.5], 'bid': 0.84}, {'imgObject': {}, 'id': 'cherry tomato', 'src': '/static/foodstim60/cherry tomato.jpg', 'key': 'i', 'origWidth': 410, 'origHeight': 410, 'width': 410, 'height': 410, 'widthPercent': 0.45, 'rescaleHeight': False, 'trialN': 32, 'loaded': True, 'loadedTime': 3867.6999999284744, 'positionName': 'RIGHT', 'positionCoords': [665.6, 195], 'bid': 0.03}]",60977.699999928474,1669874774407,lox,cherry tomato,0.84,0.03,-0.8099999999999999,lox,1690.6000000238419,1695,1694.3000000715256,True,u,63177.59999990463,2199.899999976158,1669874776607,2200,HRV,HRV_0093,2022-12-01 06:11:48
33,"[{'imgObject': {}, 'id': 'cherries', 'src': '/static/foodstim60/cherries.jpg', 'key': 'u', 'origWidth': 410, 'origHeight': 411, 'width': 410, 'height': 411, 'widthPercent': 0.45, 'rescaleHeight': False, 'trialN': 33, 'loaded': True, 'loadedTime': 3362.399999976158, 'positionName': 'LEFT', 'positionCoords': [204.4, 194.5], 'bid': 4.28}, {'imgObject': {}, 'id': 'strawberries', 'src': '/static/foodstim60/strawberries.jpg', 'key': 'i', 'origWidth': 410, 'origHeight': 410, 'width': 410, 'height': 410, 'widthPercent': 0.45, 'rescaleHeight': False, 'trialN': 33, 'loaded': True, 'loadedTime': 3886.5, 'positionName': 'RIGHT', 'positionCoords': [665.6, 195], 'bid': 4.9}]",63177.799999952316,1669874776607,cherries,strawberries,4.28,4.9,0.6200000000000001,strawberries,1961.8999999761581,1967,1966.7999999523163,True,i,65648.69999992847,2470.899999976158,1669874779078,2471,HRV,HRV_0093,2022-12-01 06:11:48
34,"[{'imgObject': {}, 'id': 'chickenfingers', 'src': '/static/foodstim60/chickenfingers.jpg', 'key': 'u', 'origWidth': 410, 'origHeight': 410, 'width': 410, 'height': 410, 'widthPercent': 0.45, 'rescaleHeight': False, 'trialN': 34, 'loaded': True, 'loadedTime': 3295.5, 'positionName': 'LEFT', 'positionCoords': [204.4, 195], 'bid': 9.93}, {'imgObject': {}, 'id': 'baked potato', 'src': '/static/foodstim60/baked potato.jpg', 'key': 'i', 'origWidth': 409, 'origHeight': 410, 'width': 409, 'height': 410, 'widthPercent': 0.45, 'rescaleHeight': False, 'trialN': 34, 'loaded': True, 'loadedTime': 3764.5, 'positionName': 'RIGHT', 'positionCoords': [665.6, 195], 'bid': 7.18}]",65648.89999997616,1669874779079,chickenfingers,baked potato,9.93,7.18,-2.75,chickenfingers,1436.6999999284744,1442,1442.1000000238419,True,u,67593.69999992847,1944.7999999523163,1669874781023,1944,HRV,HRV_0093,2022-12-01 06:11:48
35,"[{'imgObject': {}, 'id': 'sweetpotato', 'src': '/static/foodstim60/sweetpotato.jpg', 'key': 'u', 'origWidth': 410, 'origHeight': 410, 'width': 410, 'height': 410, 'widthPercent': 0.45, 'rescaleHeight': False, 'trialN': 35, 'loaded': True, 'loadedTime': 3697.5, 'positionName': 'LEFT', 'positionCoords': [204.4, 195], 'bid': 5.65}, {'imgObject': {}, 'id': 'omelette', 'src': '/static/foodstim60/omelette.jpg', 'key': 'i', 'origWidth': 410, 'origHeight': 409, 'width': 410, 'height': 409, 'widthPercent': 0.45, 'rescaleHeight': False, 'trialN': 35, 'loaded': True, 'loadedTime': 3701.2999999523163, 'positionName': 'RIGHT', 'positionCoords': [665.6, 195.5], 'bid': 5.9}]",67593.79999995232,1669874781024,sweetpotato,omelette,5.65,5.9,0.25,omelette,1705.7000000476837,1710,1710.8999999761581,True,i,69809.59999990463,2215.7999999523163,1669874783239,2215,HRV,HRV_0093,2022-12-01 06:11:48
36,"[{'imgObject': {}, 'id': 'roastedpotatoes', 'src': '/static/foodstim60/roastedpotatoes.jpg', 'key': 'u', 'origWidth': 409, 'origHeight': 410, 'width': 409, 'height': 410, 'widthPercent': 0.45, 'rescaleHeight': False, 'trialN': 36, 'loaded': True, 'loadedTime': 3887.2999999523163, 'positionName': 'LEFT', 'positionCoords': [205.4, 195], 'bid': 7.28}, {'imgObject': {}, 'id': 'chicken nuggets2', 'src': '/static/foodstim60/chicken nuggets2.jpg', 'key': 'i', 'origWidth': 410, 'origHeight': 409, 'width': 410, 'height': 409, 'widthPercent': 0.45, 'rescaleHeight': False, 'trialN': 36, 'loaded': True, 'loadedTime': 3842.899999976158, 'positionName': 'RIGHT', 'positionCoords': [665.6, 195.5], 'bid': 9.96}]",69809.79999995232,1669874783240,roastedpotatoes,chicken nuggets2,7.28,9.96,2.6800000000000006,chicken nuggets2,1290.5,1298,1298.6000000238419,True,i,71613.59999990463,1803.7999999523163,1669874785043,1803,HRV,HRV_0093,2022-12-01 06:11:48
37,"[{'imgObject': {}, 'id': 'bagel plain', 'src': '/static/foodstim60/bagel plain.jpg', 'key': 'u', 'origWidth': 410, 'origHeight': 410, 'width': 410, 'height': 410, 'widthPercent': 0.45, 'rescaleHeight': False, 'trialN': 37, 'loaded': True, 'loadedTime': 3389.6999999284744, 'positionName': 'LEFT', 'positionCoords': [204.4, 195], 'bid': 5.0600000000000005}, {'imgObject': {}, 'id': 'cherry tomato', 'src': '/static/foodstim60/cherry tomato.jpg', 'key': 'i', 'origWidth': 410, 'origHeight': 410, 'width': 410, 'height': 410, 'widthPercent': 0.45, 'rescaleHeight': False, 'trialN': 37, 'loaded': True, 'loadedTime': 3869.399999976158, 'positionName': 'RIGHT', 'positionCoords': [665.6, 195], 'bid': 0.03}]",71613.69999992847,1669874785044,bagel plain,cherry tomato,5.0600000000000005,0.03,-5.03,bagel plain,1542.7000000476837,1548,1548.0,True,u,73668.19999992847,2054.5,1669874787098,2054,HRV,HRV_0093,2022-12-01 06:11:48
38,"[{'imgObject': {}, 'id': 'strawberries', 'src': '/static/foodstim60/strawberries.jpg', 'key': 'u', 'origWidth': 410, 'origHeight': 410, 'width': 410, 'height': 410, 'widthPercent': 0.45, 'rescaleHeight': False, 'trialN': 38, 'loaded': True, 'loadedTime': 3886.6999999284744, 'positionName': 'LEFT', 'positionCoords': [204.4, 195], 'bid': 4.9}, {'imgObject': {}, 'id': 'ice cream sundae 002', 'src': '/static/foodstim60/ice cream sundae 002.jpg', 'key': 'i', 'origWidth': 409, 'origHeight': 409, 'width': 409, 'height': 409, 'widthPercent': 0.45, 'rescaleHeight': False, 'trialN': 38, 'loaded': True, 'loadedTime': 3891.2999999523163, 'positionName': 'RIGHT', 'positionCoords': [665.6, 195.5], 'bid': 5}]",73668.29999995232,1669874787098,strawberries,ice cream sundae 002,4.9,5.0,0.09999999999999964,strawberries,1932.8999999761581,1937,1936.8999999761581,True,u,76113.59999990463,2445.2999999523163,1669874789543,2445,HRV,HRV_0093,2022-12-01 06:11:48
39,"[{'imgObject': {}, 'id': 'steak', 'src': '/static/foodstim60/steak.jpg', 'key': 'u', 'origWidth': 410, 'origHeight': 410, 'width': 410, 'height': 410, 'widthPercent': 0.45, 'rescaleHeight': False, 'trialN': 39, 'loaded': True, 'loadedTime': 4016.899999976158, 'positionName': 'LEFT', 'positionCoords': [204.4, 195], 'bid': 8.14}, {'imgObject': {}, 'id': 'fried eggs', 'src': '/static/foodstim60/fried eggs.jpg', 'key': 'i', 'origWidth': 410, 'origHeight': 410, 'width': 410, 'height': 410, 'widthPercent': 0.45, 'rescaleHeight': False, 'trialN': 39, 'loaded': True, 'loadedTime': 4034.5, 'positionName': 'RIGHT', 'positionCoords': [665.6, 195], 'bid': 9.87}]",76113.69999992847,1669874789544,steak,fried eggs,8.14,9.87,1.7299999999999986,steak,1618.3000000715256,1623,1623.0,True,u,78245.69999992847,2132.0,1669874791676,2132,HRV,HRV_0093,2022-12-01 06:11:48
40,"[{'imgObject': {}, 'id': 'omelette', 'src': '/static/foodstim60/omelette.jpg', 'key': 'u', 'origWidth': 410, 'origHeight': 409, 'width': 410, 'height': 409, 'widthPercent': 0.45, 'rescaleHeight': False, 'trialN': 40, 'loaded': True, 'loadedTime': 3703.1999999284744, 'positionName': 'LEFT', 'positionCoords': [204.4, 195.5], 'bid': 5.9}, {'imgObject': {}, 'id': 'froot loops w milk', 'src': '/static/foodstim60/froot loops w milk.jpg', 'key': 'i', 'origWidth': 410, 'origHeight': 410, 'width': 410, 'height': 410, 'widthPercent': 0.45, 'rescaleHeight': False, 'trialN': 40, 'loaded': True, 'loadedTime': 3908.5999999046326, 'positionName': 'RIGHT', 'positionCoords': [665.6, 195], 'bid': 7.2}]",78245.79999995232,1669874791676,omelette,froot loops w milk,5.9,7.2,1.2999999999999998,omelette,1564.1000000238419,1569,1569.3999999761581,True,u,80323.39999997616,2077.600000023842,1669874793753,2077,HRV,HRV_0093,2022-12-01 06:11:48
41,"[{'imgObject': {}, 'id': 'olives', 'src': '/static/foodstim60/olives.jpg', 'key': 'u', 'origWidth': 410, 'origHeight': 410, 'width': 410, 'height': 410, 'widthPercent': 0.45, 'rescaleHeight': False, 'trialN': 41, 'loaded': True, 'loadedTime': 3785.2999999523163, 'positionName': 'LEFT', 'positionCoords': [204.4, 195], 'bid': 1.73}, {'imgObject': {}, 'id': 'rigatoni', 'src': '/static/foodstim60/rigatoni.jpg', 'key': 'i', 'origWidth': 411, 'origHeight': 411, 'width': 411, 'height': 411, 'widthPercent': 0.45, 'rescaleHeight': False, 'trialN': 41, 'loaded': True, 'loadedTime': 3843.6999999284744, 'positionName': 'RIGHT', 'positionCoords': [665.6, 194.5], 'bid': 4.79}]",80323.5,1669874793753,olives,rigatoni,1.73,4.79,3.06,rigatoni,1951.2999999523163,1956,1955.7999999523163,True,i,82785.19999992847,2461.6999999284744,1669874796215,2462,HRV,HRV_0093,2022-12-01 06:11:48
42,"[{'imgObject': {}, 'id': 'banana', 'src': '/static/foodstim60/banana.jpg', 'key': 'u', 'origWidth': 410, 'origHeight': 410, 'width': 410, 'height': 410, 'widthPercent': 0.45, 'rescaleHeight': False, 'trialN': 42, 'loaded': True, 'loadedTime': 3912.2999999523163, 'positionName': 'LEFT', 'positionCoords': [204.4, 195], 'bid': 0.15}, {'imgObject': {}, 'id': 'cantaloupe', 'src': '/static/foodstim60/cantaloupe.jpg', 'key': 'i', 'origWidth': 409, 'origHeight': 409, 'width': 409, 'height': 409, 'widthPercent': 0.45, 'rescaleHeight': False, 'trialN': 42, 'loaded': True, 'loadedTime': 3730.0999999046326, 'positionName': 'RIGHT', 'positionCoords': [665.6, 195.5], 'bid': 0.26}]",82785.39999997616,1669874796215,banana,cantaloupe,0.15,0.26,0.11000000000000001,cantaloupe,1628.2999999523163,1634,1633.2999999523163,True,i,84922.09999990463,2136.6999999284744,1669874798352,2137,HRV,HRV_0093,2022-12-01 06:11:48
43,"[{'imgObject': {}, 'id': 'burrito', 'src': '/static/foodstim60/burrito.jpg', 'key': 'u', 'origWidth': 410, 'origHeight': 410, 'width': 410, 'height': 410, 'widthPercent': 0.45, 'rescaleHeight': False, 'trialN': 43, 'loaded': True, 'loadedTime': 3466.6999999284744, 'positionName': 'LEFT', 'positionCoords': [204.4, 195], 'bid': 9.84}, {'imgObject': {}, 'id': 'grilled chicken strips', 'src': '/static/foodstim60/grilled chicken strips.jpg', 'key': 'i', 'origWidth': 410, 'origHeight': 411, 'width': 410, 'height': 411, 'widthPercent': 0.45, 'rescaleHeight': False, 'trialN': 43, 'loaded': True, 'loadedTime': 3326.5, 'positionName': 'RIGHT', 'positionCoords': [665.6, 194.5], 'bid': 6.0600000000000005}]",84922.29999995232,1669874798352,burrito,grilled chicken strips,9.84,6.0600000000000005,-3.7799999999999994,burrito,1140.2999999523163,1146,1145.7999999523163,True,u,86573.59999990463,1651.2999999523163,1669874800004,1652,HRV,HRV_0093,2022-12-01 06:11:48
44,"[{'imgObject': {}, 'id': 'avocado', 'src': '/static/foodstim60/avocado.jpg', 'key': 'u', 'origWidth': 409, 'origHeight': 409, 'width': 409, 'height': 409, 'widthPercent': 0.45, 'rescaleHeight': False, 'trialN': 44, 'loaded': True, 'loadedTime': 3499.1999999284744, 'positionName': 'LEFT', 'positionCoords': [205.4, 195.5], 'bid': 1.21}, {'imgObject': {}, 'id': 'sushi w_condiments', 'src': '/static/foodstim60/sushi w_condiments.jpg', 'key': 'i', 'origWidth': 410, 'origHeight': 410, 'width': 410, 'height': 410, 'widthPercent': 0.45, 'rescaleHeight': False, 'trialN': 44, 'loaded': True, 'loadedTime': 3929.0999999046326, 'positionName': 'RIGHT', 'positionCoords': [665.6, 195], 'bid': 0}]",86573.69999992847,1669874800004,avocado,sushi w_condiments,1.21,0.0,-1.21,avocado,1536.8000000715256,1542,1542.7000000476837,True,u,88621.39999997616,2047.7000000476837,1669874802051,2047,HRV,HRV_0093,2022-12-01 06:11:48
45,"[{'imgObject': {}, 'id': 'fruitsalad', 'src': '/static/foodstim60/fruitsalad.jpg', 'key': 'u', 'origWidth': 410, 'origHeight': 410, 'width': 410, 'height': 410, 'widthPercent': 0.45, 'rescaleHeight': False, 'trialN': 45, 'loaded': True, 'loadedTime': 3389.899999976158, 'positionName': 'LEFT', 'positionCoords': [204.4, 195], 'bid': 3.79}, {'imgObject': {}, 'id': 'shreddedwheatwithmilk', 'src': '/static/foodstim60/shreddedwheatwithmilk.jpg', 'key': 'i', 'origWidth': 410, 'origHeight': 410, 'width': 410, 'height': 410, 'widthPercent': 0.45, 'rescaleHeight': False, 'trialN': 45, 'loaded': True, 'loadedTime': 3439.399999976158, 'positionName': 'RIGHT', 'positionCoords': [665.6, 195], 'bid': 5.1000000000000005}]",88621.5,1669874802052,fruitsalad,shreddedwheatwithmilk,3.79,5.1000000000000005,1.3100000000000005,fruitsalad,1479.8999999761581,1484,1484.6999999284744,True,u,90609.69999992847,1988.1999999284744,1669874804040,1988,HRV,HRV_0093,2022-12-01 06:11:48
46,"[{'imgObject': {}, 'id': 'banana', 'src': '/static/foodstim60/banana.jpg', 'key': 'u', 'origWidth': 410, 'origHeight': 410, 'width': 410, 'height': 410, 'widthPercent': 0.45, 'rescaleHeight': False, 'trialN': 46, 'loaded': True, 'loadedTime': 3909.0999999046326, 'positionName': 'LEFT', 'positionCoords': [204.4, 195], 'bid': 0.15}, {'imgObject': {}, 'id': 'mango', 'src': '/static/foodstim60/mango.jpg', 'key': 'i', 'origWidth': 411, 'origHeight': 411, 'width': 411, 'height': 411, 'widthPercent': 0.45, 'rescaleHeight': False, 'trialN': 46, 'loaded': True, 'loadedTime': 3930.899999976158, 'positionName': 'RIGHT', 'positionCoords': [665.6, 194.5], 'bid': 1.35}]",90609.79999995232,1669874804040,banana,mango,0.15,1.35,1.2000000000000002,mango,2118.5,2123,2123.399999976158,True,i,93245.59999990463,2635.7999999523163,1669874806676,2636,HRV,HRV_0093,2022-12-01 06:11:48
47,"[{'imgObject': {}, 'id': 'burger', 'src': '/static/foodstim60/burger.jpg', 'key': 'u', 'origWidth': 409, 'origHeight': 409, 'width': 409, 'height': 409, 'widthPercent': 0.45, 'rescaleHeight': False, 'trialN': 47, 'loaded': True, 'loadedTime': 3498.899999976158, 'positionName': 'LEFT', 'positionCoords': [205.4, 195.5], 'bid': 6.23}, {'imgObject': {}, 'id': 'tacos', 'src': '/static/foodstim60/tacos.jpg', 'key': 'i', 'origWidth': 411, 'origHeight': 411, 'width': 411, 'height': 411, 'widthPercent': 0.45, 'rescaleHeight': False, 'trialN': 47, 'loaded': True, 'loadedTime': 4013.7999999523163, 'positionName': 'RIGHT', 'positionCoords': [665.6, 194.5], 'bid': 6.79}]",93245.79999995232,1669874806676,burger,tacos,6.23,6.79,0.5599999999999996,burger,1843.3999999761581,1848,1848.3999999761581,True,u,95604.19999992847,2358.399999976158,1669874809034,2358,HRV,HRV_0093,2022-12-01 06:11:48
48,"[{'imgObject': {}, 'id': 'lox', 'src': '/static/foodstim60/lox.jpg', 'key': 'u', 'origWidth': 410, 'origHeight': 411, 'width': 410, 'height': 411, 'widthPercent': 0.45, 'rescaleHeight': False, 'trialN': 48, 'loaded': True, 'loadedTime': 3673.0999999046326, 'positionName': 'LEFT', 'positionCoords': [204.4, 194.5], 'bid': 0.84}, {'imgObject': {}, 'id': 'turkey sandwich', 'src': '/static/foodstim60/turkey sandwich.jpg', 'key': 'i', 'origWidth': 409, 'origHeight': 409, 'width': 409, 'height': 409, 'widthPercent': 0.45, 'rescaleHeight': False, 'trialN': 48, 'loaded': True, 'loadedTime': 3946.2999999523163, 'positionName': 'RIGHT', 'positionCoords': [665.6, 195.5], 'bid': 2.75}]",95604.29999995232,1669874809035,lox,turkey sandwich,0.84,2.75,1.9100000000000001,turkey sandwich,1513.7999999523163,1517,1517.2999999523163,True,i,97625.59999990463,2021.2999999523163,1669874811056,2021,HRV,HRV_0093,2022-12-01 06:11:48
49,"[{'imgObject': {}, 'id': 'cheerios', 'src': '/static/foodstim60/cheerios.jpg', 'key': 'u', 'origWidth': 409, 'origHeight': 410, 'width': 409, 'height': 410, 'widthPercent': 0.45, 'rescaleHeight': False, 'trialN': 49, 'loaded': True, 'loadedTime': 3947.899999976158, 'positionName': 'LEFT', 'positionCoords': [205.4, 195], 'bid': 4.18}, {'imgObject': {}, 'id': 'sweetpotato', 'src': '/static/foodstim60/sweetpotato.jpg', 'key': 'i', 'origWidth': 410, 'origHeight': 410, 'width': 410, 'height': 410, 'widthPercent': 0.45, 'rescaleHeight': False, 'trialN': 49, 'loaded': True, 'loadedTime': 3701.0999999046326, 'positionName': 'RIGHT', 'positionCoords': [665.6, 195], 'bid': 5.65}]",97625.69999992847,1669874811056,cheerios,sweetpotato,4.18,5.65,1.4700000000000006,sweetpotato,1624.2000000476837,1629,1629.2000000476837,True,i,99765.59999990463,2139.899999976158,1669874813196,2140,HRV,HRV_0093,2022-12-01 06:11:48
50,"[{'imgObject': {}, 'id': 'strawberries', 'src': '/static/foodstim60/strawberries.jpg', 'key': 'u', 'origWidth': 410, 'origHeight': 410, 'width': 410, 'height': 410, 'widthPercent': 0.45, 'rescaleHeight': False, 'trialN': 50, 'loaded': True, 'loadedTime': 3872.5999999046326, 'positionName': 'LEFT', 'positionCoords': [204.4, 195], 'bid': 4.9}, {'imgObject': {}, 'id': 'Grapes', 'src': '/static/foodstim60/Grapes.jpg', 'key': 'i', 'origWidth': 411, 'origHeight': 411, 'width': 411, 'height': 411, 'widthPercent': 0.45, 'rescaleHeight': False, 'trialN': 50, 'loaded': True, 'loadedTime': 3953.2999999523163, 'positionName': 'RIGHT', 'positionCoords': [665.6, 194.5], 'bid': 4.03}]",99765.79999995232,1669874813196,strawberries,Grapes,4.9,4.03,-0.8700000000000001,strawberries,2258,2263,2263.0,True,u,102541.59999990463,2775.7999999523163,1669874815972,2776,HRV,HRV_0093,2022-12-01 06:11:48
51,"[{'imgObject': {}, 'id': 'blueberries', 'src': '/static/foodstim60/blueberries.jpg', 'key': 'u', 'origWidth': 411, 'origHeight': 411, 'width': 411, 'height': 411, 'widthPercent': 0.45, 'rescaleHeight': False, 'trialN': 51, 'loaded': True, 'loadedTime': 3973.7999999523163, 'positionName': 'LEFT', 'positionCoords': [203.4, 194.5], 'bid': 3.42}, {'imgObject': {}, 'id': 'pear', 'src': '/static/foodstim60/pear.jpg', 'key': 'i', 'origWidth': 411, 'origHeight': 410, 'width': 411, 'height': 410, 'widthPercent': 0.45, 'rescaleHeight': False, 'trialN': 51, 'loaded': True, 'loadedTime': 3974.6999999284744, 'positionName': 'RIGHT', 'positionCoords': [665.6, 195], 'bid': 1.85}]",102541.79999995232,1669874815972,blueberries,pear,3.42,1.85,-1.5699999999999998,blueberries,2475.899999976158,2480,2479.5,True,u,105532.5,2990.7000000476837,1669874818963,2991,HRV,HRV_0093,2022-12-01 06:11:48
52,"[{'imgObject': {}, 'id': 'fruitsalad', 'src': '/static/foodstim60/fruitsalad.jpg', 'key': 'u', 'origWidth': 410, 'origHeight': 410, 'width': 410, 'height': 410, 'widthPercent': 0.45, 'rescaleHeight': False, 'trialN': 52, 'loaded': True, 'loadedTime': 3413.5, 'positionName': 'LEFT', 'positionCoords': [204.4, 195], 'bid': 3.79}, {'imgObject': {}, 'id': 'raspberries', 'src': '/static/foodstim60/raspberries.jpg', 'key': 'i', 'origWidth': 411, 'origHeight': 411, 'width': 411, 'height': 411, 'widthPercent': 0.45, 'rescaleHeight': False, 'trialN': 52, 'loaded': True, 'loadedTime': 3727.7999999523163, 'positionName': 'RIGHT', 'positionCoords': [665.6, 194.5], 'bid': 3.73}]",105532.59999990463,1669874818963,fruitsalad,raspberries,3.79,3.73,-0.06000000000000005,raspberries,2326.8000000715256,2332,2331.8000000715256,True,i,108370.89999997616,2838.3000000715256,1669874821801,2838,HRV,HRV_0093,2022-12-01 06:11:48
53,"[{'imgObject': {}, 'id': 'lox', 'src': '/static/foodstim60/lox.jpg', 'key': 'u', 'origWidth': 410, 'origHeight': 411, 'width': 410, 'height': 411, 'widthPercent': 0.45, 'rescaleHeight': False, 'trialN': 53, 'loaded': True, 'loadedTime': 3672, 'positionName': 'LEFT', 'positionCoords': [204.4, 194.5], 'bid': 0.84}, {'imgObject': {}, 'id': 'hashbrowns', 'src': '/static/foodstim60/hashbrowns.jpg', 'key': 'i', 'origWidth': 411, 'origHeight': 410, 'width': 411, 'height': 410, 'widthPercent': 0.45, 'rescaleHeight': False, 'trialN': 53, 'loaded': True, 'loadedTime': 3975.0999999046326, 'positionName': 'RIGHT', 'positionCoords': [665.6, 195], 'bid': 1.01}]",108371.0,1669874821801,lox,hashbrowns,0.84,1.01,0.17000000000000004,lox,2640.399999976158,2647,2646.899999976158,True,u,111521.39999997616,3150.399999976158,1669874824952,3151,HRV,HRV_0093,2022-12-01 06:11:48
54,"[{'imgObject': {}, 'id': 'grilled chicken strips', 'src': '/static/foodstim60/grilled chicken strips.jpg', 'key': 'u', 'origWidth': 410, 'origHeight': 411, 'width': 410, 'height': 411, 'widthPercent': 0.45, 'rescaleHeight': False, 'trialN': 54, 'loaded': True, 'loadedTime': 3326.5999999046326, 'positionName': 'LEFT', 'positionCoords': [204.4, 194.5], 'bid': 6.0600000000000005}, {'imgObject': {}, 'id': 'luckycharms', 'src': '/static/foodstim60/luckycharms.jpg', 'key': 'i', 'origWidth': 410, 'origHeight': 409, 'width': 410, 'height': 409, 'widthPercent': 0.45, 'rescaleHeight': False, 'trialN': 54, 'loaded': True, 'loadedTime': 3978.0999999046326, 'positionName': 'RIGHT', 'positionCoords': [665.6, 195.5], 'bid': 6.1000000000000005}]",111521.59999990463,1669874824952,grilled chicken strips,luckycharms,6.0600000000000005,6.1000000000000005,0.040000000000000036,luckycharms,3335.600000023842,3341,3340.7000000476837,True,i,115373.39999997616,3851.8000000715256,1669874828804,3852,HRV,HRV_0093,2022-12-01 06:11:48
55,"[{'imgObject': {}, 'id': 'sushi w_condiments', 'src': '/static/foodstim60/sushi w_condiments.jpg', 'key': 'u', 'origWidth': 410, 'origHeight': 410, 'width': 410, 'height': 410, 'widthPercent': 0.45, 'rescaleHeight': False, 'trialN': 55, 'loaded': True, 'loadedTime': 3928.399999976158, 'positionName': 'LEFT', 'positionCoords': [204.4, 195], 'bid': 0}, {'imgObject': {}, 'id': 'corn cob', 'src': '/static/foodstim60/corn cob.jpg', 'key': 'i', 'origWidth': 411, 'origHeight': 411, 'width': 411, 'height': 411, 'widthPercent': 0.45, 'rescaleHeight': False, 'trialN': 55, 'loaded': True, 'loadedTime': 3556.2999999523163, 'positionName': 'RIGHT', 'positionCoords': [665.6, 194.5], 'bid': 0.15}]",115373.59999990463,1669874828804,sushi w_condiments,corn cob,0.0,0.15,0.15,sushi w_condiments,2904.4000000953674,2910,2909.8000000715256,True,u,118789.59999990463,3416.0,1669874832220,3416,HRV,HRV_0093,2022-12-01 06:11:48
56,"[{'imgObject': {}, 'id': 'pear', 'src': '/static/foodstim60/pear.jpg', 'key': 'u', 'origWidth': 411, 'origHeight': 410, 'width': 411, 'height': 410, 'widthPercent': 0.45, 'rescaleHeight': False, 'trialN': 56, 'loaded': True, 'loadedTime': 3975, 'positionName': 'LEFT', 'positionCoords': [203.4, 195], 'bid': 1.85}, {'imgObject': {}, 'id': 'kiwi', 'src': '/static/foodstim60/kiwi.jpg', 'key': 'i', 'origWidth': 410, 'origHeight': 410, 'width': 410, 'height': 410, 'widthPercent': 0.45, 'rescaleHeight': False, 'trialN': 56, 'loaded': True, 'loadedTime': 3807.0999999046326, 'positionName': 'RIGHT', 'positionCoords': [665.6, 195], 'bid': 1.45}]",118789.69999992847,1669874832220,pear,kiwi,1.85,1.45,-0.40000000000000013,pear,2206.100000023842,2211,2210.899999976158,True,u,121508.59999990463,2718.899999976158,1669874834939,2719,HRV,HRV_0093,2022-12-01 06:11:48
57,"[{'imgObject': {}, 'id': 'orange slices', 'src': '/static/foodstim60/orange slices.jpg', 'key': 'u', 'origWidth': 409, 'origHeight': 410, 'width': 409, 'height': 410, 'widthPercent': 0.45, 'rescaleHeight': False, 'trialN': 57, 'loaded': True, 'loadedTime': 3279, 'positionName': 'LEFT', 'positionCoords': [205.4, 195], 'bid': 2.84}, {'imgObject': {}, 'id': 'hashbrowns', 'src': '/static/foodstim60/hashbrowns.jpg', 'key': 'i', 'origWidth': 411, 'origHeight': 410, 'width': 411, 'height': 410, 'widthPercent': 0.45, 'rescaleHeight': False, 'trialN': 57, 'loaded': True, 'loadedTime': 3976.5999999046326, 'positionName': 'RIGHT', 'positionCoords': [665.6, 195], 'bid': 1.01}]",121508.69999992847,1669874834939,orange slices,hashbrowns,2.84,1.01,-1.8299999999999998,orange slices,1046,1051,1050.8000000715256,True,u,123069.59999990463,1560.8999999761581,1669874836500,1561,HRV,HRV_0093,2022-12-01 06:11:48
58,"[{'imgObject': {}, 'id': 'apple slices', 'src': '/static/foodstim60/apple slices.jpg', 'key': 'u', 'origWidth': 409, 'origHeight': 410, 'width': 409, 'height': 410, 'widthPercent': 0.45, 'rescaleHeight': False, 'trialN': 58, 'loaded': True, 'loadedTime': 4004.1999999284744, 'positionName': 'LEFT', 'positionCoords': [205.4, 195], 'bid': 2.67}, {'imgObject': {}, 'id': 'fruitsalad', 'src': '/static/foodstim60/fruitsalad.jpg', 'key': 'i', 'origWidth': 410, 'origHeight': 410, 'width': 410, 'height': 410, 'widthPercent': 0.45, 'rescaleHeight': False, 'trialN': 58, 'loaded': True, 'loadedTime': 3414.5999999046326, 'positionName': 'RIGHT', 'positionCoords': [665.6, 195], 'bid': 3.79}]",123069.69999992847,1669874836501,apple slices,fruitsalad,2.67,3.79,1.12,fruitsalad,2077.8000000715256,2081,2081.7000000476837,True,i,125658.39999997616,2588.7000000476837,1669874839089,2588,HRV,HRV_0093,2022-12-01 06:11:48
59,"[{'imgObject': {}, 'id': 'corn cob', 'src': '/static/foodstim60/corn cob.jpg', 'key': 'u', 'origWidth': 411, 'origHeight': 411, 'width': 411, 'height': 411, 'widthPercent': 0.45, 'rescaleHeight': False, 'trialN': 59, 'loaded': True, 'loadedTime': 3556.899999976158, 'positionName': 'LEFT', 'positionCoords': [203.4, 194.5], 'bid': 0.15}, {'imgObject': {}, 'id': 'granola w milk', 'src': '/static/foodstim60/granola w milk.jpg', 'key': 'i', 'origWidth': 410, 'origHeight': 410, 'width': 410, 'height': 410, 'widthPercent': 0.45, 'rescaleHeight': False, 'trialN': 59, 'loaded': True, 'loadedTime': 4004.5, 'positionName': 'RIGHT', 'positionCoords': [665.6, 195], 'bid': 2.59}]",125658.5,1669874839089,corn cob,granola w milk,0.15,2.59,2.44,granola w milk,2053,2058,2057.7999999523163,True,i,128216.5,2558.0,1669874841647,2558,HRV,HRV_0093,2022-12-01 06:11:48
60,"[{'imgObject': {}, 'id': 'fried eggs', 'src': '/static/foodstim60/fried eggs.jpg', 'key': 'u', 'origWidth': 410, 'origHeight': 410, 'width': 410, 'height': 410, 'widthPercent': 0.45, 'rescaleHeight': False, 'trialN': 60, 'loaded': True, 'loadedTime': 4034.7999999523163, 'positionName': 'LEFT', 'positionCoords': [204.4, 195], 'bid': 9.87}, {'imgObject': {}, 'id': 'luckycharms', 'src': '/static/foodstim60/luckycharms.jpg', 'key': 'i', 'origWidth': 410, 'origHeight': 409, 'width': 410, 'height': 409, 'widthPercent': 0.45, 'rescaleHeight': False, 'trialN': 60, 'loaded': True, 'loadedTime': 3977.899999976158, 'positionName': 'RIGHT', 'positionCoords': [665.6, 195.5], 'bid': 6.1000000000000005}]",128216.69999992847,1669874841648,fried eggs,luckycharms,9.87,6.1000000000000005,-3.7699999999999987,fried eggs,1234.6000000238419,1239,1239.3999999761581,True,u,129965.59999990463,1748.8999999761581,1669874843397,1749,HRV,HRV_0093,2022-12-01 06:11:48
61,"[{'imgObject': {}, 'id': 'froot loops w milk', 'src': '/static/foodstim60/froot loops w milk.jpg', 'key': 'u', 'origWidth': 410, 'origHeight': 410, 'width': 410, 'height': 410, 'widthPercent': 0.45, 'rescaleHeight': False, 'trialN': 61, 'loaded': True, 'loadedTime': 3908.399999976158, 'positionName': 'LEFT', 'positionCoords': [204.4, 195], 'bid': 7.2}, {'imgObject': {}, 'id': 'Tribe humus pita', 'src': '/static/foodstim60/Tribe humus pita.jpg', 'key': 'i', 'origWidth': 411, 'origHeight': 411, 'width': 411, 'height': 411, 'widthPercent': 0.45, 'rescaleHeight': False, 'trialN': 61, 'loaded': True, 'loadedTime': 4011.5999999046326, 'positionName': 'RIGHT', 'positionCoords': [665.6, 194.5], 'bid': 9.93}]",129965.79999995232,1669874843397,froot loops w milk,Tribe humus pita,7.2,9.93,2.7299999999999995,Tribe humus pita,1452.5,1459,1459.0,True,i,131933.59999990463,1967.7999999523163,1669874845365,1968,HRV,HRV_0093,2022-12-01 06:11:48
62,"[{'imgObject': {}, 'id': 'edamame', 'src': '/static/foodstim60/edamame.jpg', 'key': 'u', 'origWidth': 409, 'origHeight': 410, 'width': 409, 'height': 410, 'widthPercent': 0.45, 'rescaleHeight': False, 'trialN': 62, 'loaded': True, 'loadedTime': 3871.5, 'positionName': 'LEFT', 'positionCoords': [205.4, 195], 'bid': 9.81}, {'imgObject': {}, 'id': 'steak', 'src': '/static/foodstim60/steak.jpg', 'key': 'i', 'origWidth': 410, 'origHeight': 410, 'width': 410, 'height': 410, 'widthPercent': 0.45, 'rescaleHeight': False, 'trialN': 62, 'loaded': True, 'loadedTime': 4016.5999999046326, 'positionName': 'RIGHT', 'positionCoords': [665.6, 195], 'bid': 8.14}]",131933.69999992847,1669874845365,edamame,steak,9.81,8.14,-1.67,steak,1456.5,1461,1461.8000000715256,True,i,133901.69999992847,1968.0,1669874847333,1968,HRV,HRV_0093,2022-12-01 06:11:48
63,"[{'imgObject': {}, 'id': 'Grapes', 'src': '/static/foodstim60/Grapes.jpg', 'key': 'u', 'origWidth': 411, 'origHeight': 411, 'width': 411, 'height': 411, 'widthPercent': 0.45, 'rescaleHeight': False, 'trialN': 63, 'loaded': True, 'loadedTime': 3951.2999999523163, 'positionName': 'LEFT', 'positionCoords': [203.4, 194.5], 'bid': 4.03}, {'imgObject': {}, 'id': 'salmon', 'src': '/static/foodstim60/salmon.jpg', 'key': 'i', 'origWidth': 410, 'origHeight': 409, 'width': 410, 'height': 409, 'widthPercent': 0.45, 'rescaleHeight': False, 'trialN': 63, 'loaded': True, 'loadedTime': 3648.399999976158, 'positionName': 'RIGHT', 'positionCoords': [665.6, 195.5], 'bid': 4.12}]",133901.79999995232,1669874847333,Grapes,salmon,4.03,4.12,0.08999999999999986,Grapes,1189.3999999761581,1194,1194.5,True,u,135605.69999992847,1703.8999999761581,1669874849037,1704,HRV,HRV_0093,2022-12-01 06:11:48
64,"[{'imgObject': {}, 'id': 'veggieswithdip', 'src': '/static/foodstim60/veggieswithdip.jpg', 'key': 'u', 'origWidth': 409, 'origHeight': 409, 'width': 409, 'height': 409, 'widthPercent': 0.45, 'rescaleHeight': False, 'trialN': 64, 'loaded': True, 'loadedTime': 3787.1999999284744, 'positionName': 'LEFT', 'positionCoords': [205.4, 195.5], 'bid': 0.06}, {'imgObject': {}, 'id': 'cherry tomato', 'src': '/static/foodstim60/cherry tomato.jpg', 'key': 'i', 'origWidth': 410, 'origHeight': 410, 'width': 410, 'height': 410, 'widthPercent': 0.45, 'rescaleHeight': False, 'trialN': 64, 'loaded': True, 'loadedTime': 3869.0999999046326, 'positionName': 'RIGHT', 'positionCoords': [665.6, 195], 'bid': 0.03}]",135605.79999995232,1669874849037,veggieswithdip,cherry tomato,0.06,0.03,-0.03,NaN,NaN,NaN,,False,NaN,139621.59999990463,4015.7999999523163,1669874853053,4016,HRV,HRV_0093,2022-12-01 06:11:48
65,"[{'imgObject': {}, 'id': 'corn cob', 'src': '/static/foodstim60/corn cob.jpg', 'key': 'u', 'origWidth': 411, 'origHeight': 411, 'width': 411, 'height': 411, 'widthPercent': 0.45, 'rescaleHeight': False, 'trialN': 65, 'loaded': True, 'loadedTime': 3556, 'positionName': 'LEFT', 'positionCoords': [203.4, 194.5], 'bid': 0.15}, {'imgObject': {}, 'id': 'cantaloupe', 'src': '/static/foodstim60/cantaloupe.jpg', 'key': 'i', 'origWidth': 409, 'origHeight': 409, 'width': 409, 'height': 409, 'widthPercent': 0.45, 'rescaleHeight': False, 'trialN': 65, 'loaded': True, 'loadedTime': 3745.2999999523163, 'positionName': 'RIGHT', 'positionCoords': [665.6, 195.5], 'bid': 0.26}]",139621.79999995232,1669874853053,corn cob,cantaloupe,0.15,0.26,0.11000000000000001,cantaloupe,1319.6000000238419,1324,1323.8999999761581,True,i,141449.09999990463,1827.2999999523163,1669874854880,1827,HRV,HRV_0093,2022-12-01 06:11:48
66,"[{'imgObject': {}, 'id': 'bagel plain', 'src': '/static/foodstim60/bagel plain.jpg', 'key': 'u', 'origWidth': 410, 'origHeight': 410, 'width': 410, 'height': 410, 'widthPercent': 0.45, 'rescaleHeight': False, 'trialN': 66, 'loaded': True, 'loadedTime': 3386, 'positionName': 'LEFT', 'positionCoords': [204.4, 195], 'bid': 5.0600000000000005}, {'imgObject': {}, 'id': 'eggs', 'src': '/static/foodstim60/eggs.jpg', 'key': 'i', 'origWidth': 409, 'origHeight': 409, 'width': 409, 'height': 409, 'widthPercent': 0.45, 'rescaleHeight': False, 'trialN': 66, 'loaded': True, 'loadedTime': 3580.5999999046326, 'positionName': 'RIGHT', 'positionCoords': [665.6, 195.5], 'bid': 7.79}]",141449.29999995232,1669874854880,bagel plain,eggs,5.0600000000000005,7.79,2.7299999999999995,eggs,1102.8999999761581,1108,1107.5,True,i,143065.39999997616,1616.1000000238419,1669874856497,1617,HRV,HRV_0093,2022-12-01 06:11:48
67,"[{'imgObject': {}, 'id': 'mashed potato', 'src': '/static/foodstim60/mashed potato.jpg', 'key': 'u', 'origWidth': 409, 'origHeight': 409, 'width': 409, 'height': 409, 'widthPercent': 0.45, 'rescaleHeight': False, 'trialN': 67, 'loaded': True, 'loadedTime': 3648.7999999523163, 'positionName': 'LEFT', 'positionCoords': [205.4, 195.5], 'bid': 9.84}, {'imgObject': {}, 'id': 'omelette', 'src': '/static/foodstim60/omelette.jpg', 'key': 'i', 'origWidth': 410, 'origHeight': 409, 'width': 410, 'height': 409, 'widthPercent': 0.45, 'rescaleHeight': False, 'trialN': 67, 'loaded': True, 'loadedTime': 3726.5999999046326, 'positionName': 'RIGHT', 'positionCoords': [665.6, 195.5], 'bid': 5.9}]",143065.5,1669874856497,mashed potato,omelette,9.84,5.9,-3.9399999999999995,mashed potato,1118.5999999046326,1123,1123.0,True,u,144697.69999992847,1632.1999999284744,1669874858129,1632,HRV,HRV_0093,2022-12-01 06:11:48
68,"[{'imgObject': {}, 'id': 'roastedpotatoes', 'src': '/static/foodstim60/roastedpotatoes.jpg', 'key': 'u', 'origWidth': 409, 'origHeight': 410, 'width': 409, 'height': 410, 'widthPercent': 0.45, 'rescaleHeight': False, 'trialN': 68, 'loaded': True, 'loadedTime': 3888.2999999523163, 'positionName': 'LEFT', 'positionCoords': [205.4, 195], 'bid': 7.28}, {'imgObject': {}, 'id': 'popsicles', 'src': '/static/foodstim60/popsicles.jpg', 'key': 'i', 'origWidth': 410, 'origHeight': 410, 'width': 410, 'height': 410, 'widthPercent': 0.45, 'rescaleHeight': False, 'trialN': 68, 'loaded': True, 'loadedTime': 4039.7999999523163, 'positionName': 'RIGHT', 'positionCoords': [665.6, 195], 'bid': 7.51}]",144697.79999995232,1669874858129,roastedpotatoes,popsicles,7.28,7.51,0.22999999999999954,roastedpotatoes,1323.2000000476837,1329,1328.8999999761581,True,u,146530.09999990463,1832.2999999523163,1669874859961,1832,HRV,HRV_0093,2022-12-01 06:11:48
69,"[{'imgObject': {}, 'id': 'apple slices', 'src': '/static/foodstim60/apple slices.jpg', 'key': 'u', 'origWidth': 409, 'origHeight': 410, 'width': 409, 'height': 410, 'widthPercent': 0.45, 'rescaleHeight': False, 'trialN': 69, 'loaded': True, 'loadedTime': 3980.0999999046326, 'positionName': 'LEFT', 'positionCoords': [205.4, 195], 'bid': 2.67}, {'imgObject': {}, 'id': 'granola w milk', 'src': '/static/foodstim60/granola w milk.jpg', 'key': 'i', 'origWidth': 410, 'origHeight': 410, 'width': 410, 'height': 410, 'widthPercent': 0.45, 'rescaleHeight': False, 'trialN': 69, 'loaded': True, 'loadedTime': 4005.5999999046326, 'positionName': 'RIGHT', 'positionCoords': [665.6, 195], 'bid': 2.59}]",146530.29999995232,1669874859962,apple slices,granola w milk,2.67,2.59,-0.08000000000000007,apple slices,1865.5,1870,1870.6000000238419,True,u,148909.59999990463,2379.2999999523163,1669874862341,2379,HRV,HRV_0093,2022-12-01 06:11:48
70,"[{'imgObject': {}, 'id': 'apple slices', 'src': '/static/foodstim60/apple slices.jpg', 'key': 'u', 'origWidth': 409, 'origHeight': 410, 'width': 409, 'height': 410, 'widthPercent': 0.45, 'rescaleHeight': False, 'trialN': 70, 'loaded': True, 'loadedTime': 3979.899999976158, 'positionName': 'LEFT', 'positionCoords': [205.4, 195], 'bid': 2.67}, {'imgObject': {}, 'id': 'cantaloupe', 'src': '/static/foodstim60/cantaloupe.jpg', 'key': 'i', 'origWidth': 409, 'origHeight': 409, 'width': 409, 'height': 409, 'widthPercent': 0.45, 'rescaleHeight': False, 'trialN': 70, 'loaded': True, 'loadedTime': 3728.5, 'positionName': 'RIGHT', 'positionCoords': [665.6, 195.5], 'bid': 0.26}]",148909.79999995232,1669874862341,apple slices,cantaloupe,2.67,0.26,-2.41,apple slices,1355,1360,1359.6000000238419,True,u,150781.59999990463,1871.7999999523163,1669874864213,1872,HRV,HRV_0093,2022-12-01 06:11:48
71,"[{'imgObject': {}, 'id': 'pear', 'src': '/static/foodstim60/pear.jpg', 'key': 'u', 'origWidth': 411, 'origHeight': 410, 'width': 411, 'height': 410, 'widthPercent': 0.45, 'rescaleHeight': False, 'trialN': 71, 'loaded': True, 'loadedTime': 3973.899999976158, 'positionName': 'LEFT', 'positionCoords': [203.4, 195], 'bid': 1.85}, {'imgObject': {}, 'id': 'banana', 'src': '/static/foodstim60/banana.jpg', 'key': 'i', 'origWidth': 410, 'origHeight': 410, 'width': 410, 'height': 410, 'widthPercent': 0.45, 'rescaleHeight': False, 'trialN': 71, 'loaded': True, 'loadedTime': 3911.6999999284744, 'positionName': 'RIGHT', 'positionCoords': [665.6, 195], 'bid': 0.15}]",150781.79999995232,1669874864213,pear,banana,1.85,0.15,-1.7000000000000002,pear,756.8999999761581,762,762.2000000476837,True,u,152049.79999995232,1268.0,1669874865481,1268,HRV,HRV_0093,2022-12-01 06:11:48
72,"[{'imgObject': {}, 'id': 'lox', 'src': '/static/foodstim60/lox.jpg', 'key': 'u', 'origWidth': 410, 'origHeight': 411, 'width': 410, 'height': 411, 'widthPercent': 0.45, 'rescaleHeight': False, 'trialN': 72, 'loaded': True, 'loadedTime': 3673, 'positionName': 'LEFT', 'positionCoords': [204.4, 194.5], 'bid': 0.84}, {'imgObject': {}, 'id': 'grilled chicken strips', 'src': '/static/foodstim60/grilled chicken strips.jpg', 'key': 'i', 'origWidth': 410, 'origHeight': 411, 'width': 410, 'height': 411, 'widthPercent': 0.45, 'rescaleHeight': False, 'trialN': 72, 'loaded': True, 'loadedTime': 3324.7999999523163, 'positionName': 'RIGHT', 'positionCoords': [665.6, 194.5], 'bid': 6.0600000000000005}]",152049.89999997616,1669874865481,lox,grilled chicken strips,0.84,6.0600000000000005,5.220000000000001,grilled chicken strips,1154.7999999523163,1160,1159.5,True,i,153713.19999992847,1663.2999999523163,1669874867145,1664,HRV,HRV_0093,2022-12-01 06:11:48
73,"[{'imgObject': {}, 'id': 'fruitsalad', 'src': '/static/foodstim60/fruitsalad.jpg', 'key': 'u', 'origWidth': 410, 'origHeight': 410, 'width': 410, 'height': 410, 'widthPercent': 0.45, 'rescaleHeight': False, 'trialN': 73, 'loaded': True, 'loadedTime': 3414.7999999523163, 'positionName': 'LEFT', 'positionCoords': [204.4, 195], 'bid': 3.79}, {'imgObject': {}, 'id': 'blueberries', 'src': '/static/foodstim60/blueberries.jpg', 'key': 'i', 'origWidth': 411, 'origHeight': 411, 'width': 411, 'height': 411, 'widthPercent': 0.45, 'rescaleHeight': False, 'trialN': 73, 'loaded': True, 'loadedTime': 3973.899999976158, 'positionName': 'RIGHT', 'positionCoords': [665.6, 194.5], 'bid': 3.42}]",153713.29999995232,1669874867145,fruitsalad,blueberries,3.79,3.42,-0.3700000000000001,blueberries,1260.2999999523163,1265,1265.2000000476837,True,i,155482.0,1768.7000000476837,1669874868913,1768,HRV,HRV_0093,2022-12-01 06:11:48
74,"[{'imgObject': {}, 'id': 'sushi w_condiments', 'src': '/static/foodstim60/sushi w_condiments.jpg', 'key': 'u', 'origWidth': 410, 'origHeight': 410, 'width': 410, 'height': 410, 'widthPercent': 0.45, 'rescaleHeight': False, 'trialN': 74, 'loaded': True, 'loadedTime': 3928.6999999284744, 'positionName': 'LEFT', 'positionCoords': [204.4, 195], 'bid': 0}, {'imgObject': {}, 'id': 'cherry tomato', 'src': '/static/foodstim60/cherry tomato.jpg', 'key': 'i', 'origWidth': 410, 'origHeight': 410, 'width': 410, 'height': 410, 'widthPercent': 0.45, 'rescaleHeight': False, 'trialN': 74, 'loaded': True, 'loadedTime': 3869.1999999284744, 'positionName': 'RIGHT', 'positionCoords': [665.6, 195], 'bid': 0.03}]",155482.19999992847,1669874868914,sushi w_condiments,cherry tomato,0.0,0.03,0.03,sushi w_condiments,1296.2000000476837,1301,1301.5,True,u,157292.39999997616,1810.2000000476837,1669874870724,1810,HRV,HRV_0093,2022-12-01 06:11:48
75,"[{'imgObject': {}, 'id': 'blueberries', 'src': '/static/foodstim60/blueberries.jpg', 'key': 'u', 'origWidth': 411, 'origHeight': 411, 'width': 411, 'height': 411, 'widthPercent': 0.45, 'rescaleHeight': False, 'trialN': 75, 'loaded': True, 'loadedTime': 3973.399999976158, 'positionName': 'LEFT', 'positionCoords': [203.4, 194.5], 'bid': 3.42}, {'imgObject': {}, 'id': 'ice cream sundae 002', 'src': '/static/foodstim60/ice cream sundae 002.jpg', 'key': 'i', 'origWidth': 409, 'origHeight': 409, 'width': 409, 'height': 409, 'widthPercent': 0.45, 'rescaleHeight': False, 'trialN': 75, 'loaded': True, 'loadedTime': 3906.7999999523163, 'positionName': 'RIGHT', 'positionCoords': [665.6, 195.5], 'bid': 5}]",157292.5,1669874870724,blueberries,ice cream sundae 002,3.42,5.0,1.58,ice cream sundae 002,1561.8999999761581,1566,1566.3999999761581,True,i,159362.89999997616,2070.399999976158,1669874872794,2070,HRV,HRV_0093,2022-12-01 06:11:48
76,"[{'imgObject': {}, 'id': 'luckycharms', 'src': '/static/foodstim60/luckycharms.jpg', 'key': 'u', 'origWidth': 410, 'origHeight': 409, 'width': 410, 'height': 409, 'widthPercent': 0.45, 'rescaleHeight': False, 'trialN': 76, 'loaded': True, 'loadedTime': 3977.7999999523163, 'positionName': 'LEFT', 'positionCoords': [204.4, 195.5], 'bid': 6.1000000000000005}, {'imgObject': {}, 'id': 'hashbrowns', 'src': '/static/foodstim60/hashbrowns.jpg', 'key': 'i', 'origWidth': 411, 'origHeight': 410, 'width': 411, 'height': 410, 'widthPercent': 0.45, 'rescaleHeight': False, 'trialN': 76, 'loaded': True, 'loadedTime': 3976.5999999046326, 'positionName': 'RIGHT', 'positionCoords': [665.6, 195], 'bid': 1.01}]",159363.19999992847,1669874872795,luckycharms,hashbrowns,6.1000000000000005,1.01,-5.090000000000001,luckycharms,1033.8999999761581,1037,1037.3999999761581,True,u,160909.69999992847,1546.5,1669874874341,1546,HRV,HRV_0093,2022-12-01 06:11:48
77,"[{'imgObject': {}, 'id': 'cherry tomato', 'src': '/static/foodstim60/cherry tomato.jpg', 'key': 'u', 'origWidth': 410, 'origHeight': 410, 'width': 410, 'height': 410, 'widthPercent': 0.45, 'rescaleHeight': False, 'trialN': 77, 'loaded': True, 'loadedTime': 3868.899999976158, 'positionName': 'LEFT', 'positionCoords': [204.4, 195], 'bid': 0.03}, {'imgObject': {}, 'id': 'apple slices', 'src': '/static/foodstim60/apple slices.jpg', 'key': 'i', 'origWidth': 409, 'origHeight': 410, 'width': 409, 'height': 410, 'widthPercent': 0.45, 'rescaleHeight': False, 'trialN': 77, 'loaded': True, 'loadedTime': 4004, 'positionName': 'RIGHT', 'positionCoords': [665.6, 195], 'bid': 2.67}]",160909.79999995232,1669874874341,cherry tomato,apple slices,0.03,2.67,2.64,apple slices,976.2999999523163,982,981.2999999523163,True,i,162397.59999990463,1487.7999999523163,1669874875829,1488,HRV,HRV_0093,2022-12-01 06:11:48
78,"[{'imgObject': {}, 'id': 'roastedpotatoes', 'src': '/static/foodstim60/roastedpotatoes.jpg', 'key': 'u', 'origWidth': 409, 'origHeight': 410, 'width': 409, 'height': 410, 'widthPercent': 0.45, 'rescaleHeight': False, 'trialN': 78, 'loaded': True, 'loadedTime': 3888.0999999046326, 'positionName': 'LEFT', 'positionCoords': [205.4, 195], 'bid': 7.28}, {'imgObject': {}, 'id': 'grilled chicken strips', 'src': '/static/foodstim60/grilled chicken strips.jpg', 'key': 'i', 'origWidth': 410, 'origHeight': 411, 'width': 410, 'height': 411, 'widthPercent': 0.45, 'rescaleHeight': False, 'trialN': 78, 'loaded': True, 'loadedTime': 3326, 'positionName': 'RIGHT', 'positionCoords': [665.6, 194.5], 'bid': 6.0600000000000005}]",162397.79999995232,1669874875829,roastedpotatoes,grilled chicken strips,7.28,6.0600000000000005,-1.2199999999999998,grilled chicken strips,1508.3999999761581,1514,1513.6000000238419,True,i,164417.59999990463,2019.7999999523163,1669874877849,2020,HRV,HRV_0093,2022-12-01 06:11:48
79,"[{'imgObject': {}, 'id': 'fried eggs', 'src': '/static/foodstim60/fried eggs.jpg', 'key': 'u', 'origWidth': 410, 'origHeight': 410, 'width': 410, 'height': 410, 'widthPercent': 0.45, 'rescaleHeight': False, 'trialN': 79, 'loaded': True, 'loadedTime': 4034.899999976158, 'positionName': 'LEFT', 'positionCoords': [204.4, 195], 'bid': 9.87}, {'imgObject': {}, 'id': 'Grapes', 'src': '/static/foodstim60/Grapes.jpg', 'key': 'i', 'origWidth': 411, 'origHeight': 411, 'width': 411, 'height': 411, 'widthPercent': 0.45, 'rescaleHeight': False, 'trialN': 79, 'loaded': True, 'loadedTime': 3952.1999999284744, 'positionName': 'RIGHT', 'positionCoords': [665.6, 194.5], 'bid': 4.03}]",164417.79999995232,1669874877849,fried eggs,Grapes,9.87,4.03,-5.839999999999999,fried eggs,1063.2000000476837,1069,1068.5,True,u,165993.79999995232,1576.0,1669874879425,1576,HRV,HRV_0093,2022-12-01 06:11:48
80,"[{'imgObject': {}, 'id': 'raspberries', 'src': '/static/foodstim60/raspberries.jpg', 'key': 'u', 'origWidth': 411, 'origHeight': 411, 'width': 411, 'height': 411, 'widthPercent': 0.45, 'rescaleHeight': False, 'trialN': 80, 'loaded': True, 'loadedTime': 3727, 'positionName': 'LEFT', 'positionCoords': [203.4, 194.5], 'bid': 3.73}, {'imgObject': {}, 'id': 'granola w milk', 'src': '/static/foodstim60/granola w milk.jpg', 'key': 'i', 'origWidth': 410, 'origHeight': 410, 'width': 410, 'height': 410, 'widthPercent': 0.45, 'rescaleHeight': False, 'trialN': 80, 'loaded': True, 'loadedTime': 4005.6999999284744, 'positionName': 'RIGHT', 'positionCoords': [665.6, 195], 'bid': 2.59}]",165994.0,1669874879426,raspberries,granola w milk,3.73,2.59,-1.1400000000000001,raspberries,1285.8999999761581,1291,1291.2999999523163,True,u,167795.89999997616,1801.8999999761581,1669874881228,1802,HRV,HRV_0093,2022-12-01 06:11:48
81,"[{'imgObject': {}, 'id': 'salad w chicken', 'src': '/static/foodstim60/salad w chicken.jpg', 'key': 'u', 'origWidth': 411, 'origHeight': 411, 'width': 411, 'height': 411, 'widthPercent': 0.45, 'rescaleHeight': False, 'trialN': 81, 'loaded': True, 'loadedTime': 3848.399999976158, 'positionName': 'LEFT', 'positionCoords': [203.4, 194.5], 'bid': 1.35}, {'imgObject': {}, 'id': 'yogurt no spoon', 'src': '/static/foodstim60/yogurt no spoon.jpg', 'key': 'i', 'origWidth': 411, 'origHeight': 410, 'width': 411, 'height': 410, 'widthPercent': 0.45, 'rescaleHeight': False, 'trialN': 81, 'loaded': True, 'loadedTime': 3442.399999976158, 'positionName': 'RIGHT', 'positionCoords': [665.6, 195], 'bid': 4.26}]",167796.0,1669874881228,salad w chicken,yogurt no spoon,1.35,4.26,2.9099999999999997,yogurt no spoon,1360.8999999761581,1365,1365.5999999046326,True,i,169667.39999997616,1871.3999999761581,1669874883099,1871,HRV,HRV_0093,2022-12-01 06:11:48
82,"[{'imgObject': {}, 'id': 'mac & cheese', 'src': '/static/foodstim60/mac & cheese.jpg', 'key': 'u', 'origWidth': 410, 'origHeight': 410, 'width': 410, 'height': 410, 'widthPercent': 0.45, 'rescaleHeight': False, 'trialN': 82, 'loaded': True, 'loadedTime': 4012.1999999284744, 'positionName': 'LEFT', 'positionCoords': [204.4, 195], 'bid': 9.9}, {'imgObject': {}, 'id': 'rigatoni and sauce', 'src': '/static/foodstim60/rigatoni and sauce.jpg', 'key': 'i', 'origWidth': 410, 'origHeight': 411, 'width': 410, 'height': 411, 'widthPercent': 0.45, 'rescaleHeight': False, 'trialN': 82, 'loaded': True, 'loadedTime': 3747.2999999523163, 'positionName': 'RIGHT', 'positionCoords': [665.6, 194.5], 'bid': 7.68}]",169667.59999990463,1669874883099,mac & cheese,rigatoni and sauce,9.9,7.68,-2.2200000000000006,mac & cheese,1102,1106,1105.9000000953674,True,u,171281.69999992847,1614.1000000238419,1669874884713,1614,HRV,HRV_0093,2022-12-01 06:11:48
83,"[{'imgObject': {}, 'id': 'hashbrowns', 'src': '/static/foodstim60/hashbrowns.jpg', 'key': 'u', 'origWidth': 411, 'origHeight': 410, 'width': 411, 'height': 410, 'widthPercent': 0.45, 'rescaleHeight': False, 'trialN': 83, 'loaded': True, 'loadedTime': 3976.399999976158, 'positionName': 'LEFT', 'positionCoords': [203.4, 195], 'bid': 1.01}, {'imgObject': {}, 'id': 'Grapes', 'src': '/static/foodstim60/Grapes.jpg', 'key': 'i', 'origWidth': 411, 'origHeight': 411, 'width': 411, 'height': 411, 'widthPercent': 0.45, 'rescaleHeight': False, 'trialN': 83, 'loaded': True, 'loadedTime': 3952.6999999284744, 'positionName': 'RIGHT', 'positionCoords': [665.6, 194.5], 'bid': 4.03}]",171281.89999997616,1669874884714,hashbrowns,Grapes,1.01,4.03,3.0200000000000005,Grapes,803.6000000238419,807,807.2999999523163,True,i,172593.0,1311.1000000238419,1669874886025,1311,HRV,HRV_0093,2022-12-01 06:11:48
84,"[{'imgObject': {}, 'id': 'fried eggs', 'src': '/static/foodstim60/fried eggs.jpg', 'key': 'u', 'origWidth': 410, 'origHeight': 410, 'width': 410, 'height': 410, 'widthPercent': 0.45, 'rescaleHeight': False, 'trialN': 84, 'loaded': True, 'loadedTime': 4034.899999976158, 'positionName': 'LEFT', 'positionCoords': [204.4, 195], 'bid': 9.87}, {'imgObject': {}, 'id': 'roastedpotatoes', 'src': '/static/foodstim60/roastedpotatoes.jpg', 'key': 'i', 'origWidth': 409, 'origHeight': 410, 'width': 409, 'height': 410, 'widthPercent': 0.45, 'rescaleHeight': False, 'trialN': 84, 'loaded': True, 'loadedTime': 3888.2999999523163, 'positionName': 'RIGHT', 'positionCoords': [665.6, 195], 'bid': 7.28}]",172593.29999995232,1669874886025,fried eggs,roastedpotatoes,9.87,7.28,-2.589999999999999,fried eggs,811.3999999761581,816,816.0,True,u,173912.59999990463,1319.2999999523163,1669874887344,1319,HRV,HRV_0093,2022-12-01 06:11:48
85,"[{'imgObject': {}, 'id': 'apple slices', 'src': '/static/foodstim60/apple slices.jpg', 'key': 'u', 'origWidth': 409, 'origHeight': 410, 'width': 409, 'height': 410, 'widthPercent': 0.45, 'rescaleHeight': False, 'trialN': 85, 'loaded': True, 'loadedTime': 3978.2999999523163, 'positionName': 'LEFT', 'positionCoords': [205.4, 195], 'bid': 2.67}, {'imgObject': {}, 'id': 'eggs', 'src': '/static/foodstim60/eggs.jpg', 'key': 'i', 'origWidth': 409, 'origHeight': 409, 'width': 409, 'height': 409, 'widthPercent': 0.45, 'rescaleHeight': False, 'trialN': 85, 'loaded': True, 'loadedTime': 3581.399999976158, 'positionName': 'RIGHT', 'positionCoords': [665.6, 195.5], 'bid': 7.79}]",173912.69999992847,1669874887345,apple slices,eggs,2.67,7.79,5.12,eggs,1319.8000000715256,1324,1324.6000000238419,True,i,175745.19999992847,1832.5,1669874889177,1832,HRV,HRV_0093,2022-12-01 06:11:48
86,"[{'imgObject': {}, 'id': 'chickenfingers', 'src': '/static/foodstim60/chickenfingers.jpg', 'key': 'u', 'origWidth': 410, 'origHeight': 410, 'width': 410, 'height': 410, 'widthPercent': 0.45, 'rescaleHeight': False, 'trialN': 86, 'loaded': True, 'loadedTime': 3298.7999999523163, 'positionName': 'LEFT', 'positionCoords': [204.4, 195], 'bid': 9.93}, {'imgObject': {}, 'id': 'chicken nuggets2', 'src': '/static/foodstim60/chicken nuggets2.jpg', 'key': 'i', 'origWidth': 410, 'origHeight': 409, 'width': 410, 'height': 409, 'widthPercent': 0.45, 'rescaleHeight': False, 'trialN': 86, 'loaded': True, 'loadedTime': 3827.5, 'positionName': 'RIGHT', 'positionCoords': [665.6, 195.5], 'bid': 9.96}]",175745.29999995232,1669874889177,chickenfingers,chicken nuggets2,9.93,9.96,0.030000000000001137,chicken nuggets2,1865.2000000476837,1870,1870.2999999523163,True,i,178124.0,2378.7000000476837,1669874891556,2379,HRV,HRV_0093,2022-12-01 06:11:48
87,"[{'imgObject': {}, 'id': 'blackbeanswithrice', 'src': '/static/foodstim60/blackbeanswithrice.jpg', 'key': 'u', 'origWidth': 410, 'origHeight': 410, 'width': 410, 'height': 410, 'widthPercent': 0.45, 'rescaleHeight': False, 'trialN': 87, 'loaded': True, 'loadedTime': 3246, 'positionName': 'LEFT', 'positionCoords': [204.4, 195], 'bid': 9.14}, {'imgObject': {}, 'id': 'hotdog w must', 'src': '/static/foodstim60/hotdog w must.jpg', 'key': 'i', 'origWidth': 409, 'origHeight': 409, 'width': 409, 'height': 409, 'widthPercent': 0.45, 'rescaleHeight': False, 'trialN': 87, 'loaded': True, 'loadedTime': 4006.1999999284744, 'positionName': 'RIGHT', 'positionCoords': [665.6, 195.5], 'bid': 9.84}]",178124.09999990463,1669874891556,blackbeanswithrice,hotdog w must,9.14,9.84,0.6999999999999993,blackbeanswithrice,1939.2000000476837,1944,1943.7000000476837,True,u,180572.89999997616,2448.8000000715256,1669874894005,2449,HRV,HRV_0093,2022-12-01 06:11:48
88,"[{'imgObject': {}, 'id': 'baked potato', 'src': '/static/foodstim60/baked potato.jpg', 'key': 'u', 'origWidth': 409, 'origHeight': 410, 'width': 409, 'height': 410, 'widthPercent': 0.45, 'rescaleHeight': False, 'trialN': 88, 'loaded': True, 'loadedTime': 3766.6999999284744, 'positionName': 'LEFT', 'positionCoords': [205.4, 195], 'bid': 7.18}, {'imgObject': {}, 'id': 'salad w chicken', 'src': '/static/foodstim60/salad w chicken.jpg', 'key': 'i', 'origWidth': 411, 'origHeight': 411, 'width': 411, 'height': 411, 'widthPercent': 0.45, 'rescaleHeight': False, 'trialN': 88, 'loaded': True, 'loadedTime': 3848.5999999046326, 'positionName': 'RIGHT', 'positionCoords': [665.6, 194.5], 'bid': 1.35}]",180573.19999992847,1669874894005,baked potato,salad w chicken,7.18,1.35,-5.83,baked potato,1334,1337,1337.1000000238419,True,u,182417.5,1844.3000000715256,1669874895849,1844,HRV,HRV_0093,2022-12-01 06:11:48
89,"[{'imgObject': {}, 'id': 'strawberries', 'src': '/static/foodstim60/strawberries.jpg', 'key': 'u', 'origWidth': 410, 'origHeight': 410, 'width': 410, 'height': 410, 'widthPercent': 0.45, 'rescaleHeight': False, 'trialN': 89, 'loaded': True, 'loadedTime': 3886.2999999523163, 'positionName': 'LEFT', 'positionCoords': [204.4, 195], 'bid': 4.9}, {'imgObject': {}, 'id': 'turkeysandwich', 'src': '/static/foodstim60/turkeysandwich.jpg', 'key': 'i', 'origWidth': 409, 'origHeight': 409, 'width': 409, 'height': 409, 'widthPercent': 0.45, 'rescaleHeight': False, 'trialN': 89, 'loaded': True, 'loadedTime': 3764.1999999284744, 'positionName': 'RIGHT', 'positionCoords': [665.6, 195.5], 'bid': 3.23}]",182417.69999992847,1669874895850,strawberries,turkeysandwich,4.9,3.23,-1.6700000000000004,turkeysandwich,1936.3000000715256,1941,1941.2000000476837,True,i,184869.59999990463,2451.899999976158,1669874898302,2452,HRV,HRV_0093,2022-12-01 06:11:48
90,"[{'imgObject': {}, 'id': 'mashed potato', 'src': '/static/foodstim60/mashed potato.jpg', 'key': 'u', 'origWidth': 409, 'origHeight': 409, 'width': 409, 'height': 409, 'widthPercent': 0.45, 'rescaleHeight': False, 'trialN': 90, 'loaded': True, 'loadedTime': 3669.2999999523163, 'positionName': 'LEFT', 'positionCoords': [205.4, 195.5], 'bid': 9.84}, {'imgObject': {}, 'id': 'fried eggs', 'src': '/static/foodstim60/fried eggs.jpg', 'key': 'i', 'origWidth': 410, 'origHeight': 410, 'width': 410, 'height': 410, 'widthPercent': 0.45, 'rescaleHeight': False, 'trialN': 90, 'loaded': True, 'loadedTime': 4034.1999999284744, 'positionName': 'RIGHT', 'positionCoords': [665.6, 195], 'bid': 9.87}]",223995.19999992847,1669874937428,mashed potato,fried eggs,9.84,9.87,0.02999999999999936,mashed potato,3081.2000000476837,3086,3085.7000000476837,True,u,227588.09999990463,3592.899999976158,1669874941021,3593,HRV,HRV_0093,2022-12-01 06:11:48
91,"[{'imgObject': {}, 'id': 'rigatoni and sauce', 'src': '/static/foodstim60/rigatoni and sauce.jpg', 'key': 'u', 'origWidth': 410, 'origHeight': 411, 'width': 410, 'height': 411, 'widthPercent': 0.45, 'rescaleHeight': False, 'trialN': 91, 'loaded': True, 'loadedTime': 3747.5, 'positionName': 'LEFT', 'positionCoords': [204.4, 194.5], 'bid': 7.68}, {'imgObject': {}, 'id': 'granola w milk', 'src': '/static/foodstim60/granola w milk.jpg', 'key': 'i', 'origWidth': 410, 'origHeight': 410, 'width': 410, 'height': 410, 'widthPercent': 0.45, 'rescaleHeight': False, 'trialN': 91, 'loaded': True, 'loadedTime': 4005.7999999523163, 'positionName': 'RIGHT', 'positionCoords': [665.6, 195], 'bid': 2.59}]",227588.29999995232,1669874941021,rigatoni and sauce,granola w milk,7.68,2.59,-5.09,rigatoni and sauce,896,901,900.7000000476837,True,u,228997.59999990463,1409.2999999523163,1669874942430,1409,HRV,HRV_0093,2022-12-01 06:11:48
92,"[{'imgObject': {}, 'id': 'salmon', 'src': '/static/foodstim60/salmon.jpg', 'key': 'u', 'origWidth': 410, 'origHeight': 409, 'width': 410, 'height': 409, 'widthPercent': 0.45, 'rescaleHeight': False, 'trialN': 92, 'loaded': True, 'loadedTime': 3647.5, 'positionName': 'LEFT', 'positionCoords': [204.4, 195.5], 'bid': 4.12}, {'imgObject': {}, 'id': 'ice cream sundae 002', 'src': '/static/foodstim60/ice cream sundae 002.jpg', 'key': 'i', 'origWidth': 409, 'origHeight': 409, 'width': 409, 'height': 409, 'widthPercent': 0.45, 'rescaleHeight': False, 'trialN': 92, 'loaded': True, 'loadedTime': 3907, 'positionName': 'RIGHT', 'positionCoords': [665.6, 195.5], 'bid': 5}]",228997.79999995232,1669874942431,salmon,ice cream sundae 002,4.12,5.0,0.8799999999999999,salmon,1621.2000000476837,1625,1625.2000000476837,True,u,231129.39999997616,2131.600000023842,1669874944562,2131,HRV,HRV_0093,2022-12-01 06:11:48
93,"[{'imgObject': {}, 'id': 'cheerios', 'src': '/static/foodstim60/cheerios.jpg', 'key': 'u', 'origWidth': 409, 'origHeight': 410, 'width': 409, 'height': 410, 'widthPercent': 0.45, 'rescaleHeight': False, 'trialN': 93, 'loaded': True, 'loadedTime': 3950.1999999284744, 'positionName': 'LEFT', 'positionCoords': [205.4, 195], 'bid': 4.18}, {'imgObject': {}, 'id': 'bagel plain', 'src': '/static/foodstim60/bagel plain.jpg', 'key': 'i', 'origWidth': 410, 'origHeight': 410, 'width': 410, 'height': 410, 'widthPercent': 0.45, 'rescaleHeight': False, 'trialN': 93, 'loaded': True, 'loadedTime': 3389.5, 'positionName': 'RIGHT', 'positionCoords': [665.6, 195], 'bid': 5.0600000000000005}]",231129.59999990463,1669874944562,cheerios,bagel plain,4.18,5.0600000000000005,0.8800000000000008,cheerios,1481.6000000238419,1487,1486.3000000715256,True,u,233122.89999997616,1993.3000000715256,1669874946556,1994,HRV,HRV_0093,2022-12-01 06:11:48
94,"[{'imgObject': {}, 'id': 'cocktailshrimp', 'src': '/static/foodstim60/cocktailshrimp.jpg', 'key': 'u', 'origWidth': 410, 'origHeight': 410, 'width': 410, 'height': 410, 'widthPercent': 0.45, 'rescaleHeight': False, 'trialN': 94, 'loaded': True, 'loadedTime': 4009.5, 'positionName': 'LEFT', 'positionCoords': [204.4, 195], 'bid': 0}, {'imgObject': {}, 'id': 'mango', 'src': '/static/foodstim60/mango.jpg', 'key': 'i', 'origWidth': 411, 'origHeight': 411, 'width': 411, 'height': 411, 'widthPercent': 0.45, 'rescaleHeight': False, 'trialN': 94, 'loaded': True, 'loadedTime': 3929.0999999046326, 'positionName': 'RIGHT', 'positionCoords': [665.6, 194.5], 'bid': 1.35}]",233123.09999990463,1669874946556,cocktailshrimp,mango,0.0,1.35,1.35,mango,1347,1352,1351.8000000715256,True,i,234977.69999992847,1854.6000000238419,1669874948411,1855,HRV,HRV_0093,2022-12-01 06:11:48
95,"[{'imgObject': {}, 'id': 'cheerios', 'src': '/static/foodstim60/cheerios.jpg', 'key': 'u', 'origWidth': 409, 'origHeight': 410, 'width': 409, 'height': 410, 'widthPercent': 0.45, 'rescaleHeight': False, 'trialN': 95, 'loaded': True, 'loadedTime': 3950.899999976158, 'positionName': 'LEFT', 'positionCoords': [205.4, 195], 'bid': 4.18}, {'imgObject': {}, 'id': 'yogurt no spoon', 'src': '/static/foodstim60/yogurt no spoon.jpg', 'key': 'i', 'origWidth': 411, 'origHeight': 410, 'width': 411, 'height': 410, 'widthPercent': 0.45, 'rescaleHeight': False, 'trialN': 95, 'loaded': True, 'loadedTime': 3442.1999999284744, 'positionName': 'RIGHT', 'positionCoords': [665.6, 195], 'bid': 4.26}]",234977.89999997616,1669874948411,cheerios,yogurt no spoon,4.18,4.26,0.08000000000000007,yogurt no spoon,1603.1000000238419,1606,1606.6000000238419,True,i,237088.89999997616,2111.0,1669874950522,2111,HRV,HRV_0093,2022-12-01 06:11:48
96,"[{'imgObject': {}, 'id': 'chickenfingers', 'src': '/static/foodstim60/chickenfingers.jpg', 'key': 'u', 'origWidth': 410, 'origHeight': 410, 'width': 410, 'height': 410, 'widthPercent': 0.45, 'rescaleHeight': False, 'trialN': 96, 'loaded': True, 'loadedTime': 3299.1999999284744, 'positionName': 'LEFT', 'positionCoords': [204.4, 195], 'bid': 9.93}, {'imgObject': {}, 'id': 'mac & cheese', 'src': '/static/foodstim60/mac & cheese.jpg', 'key': 'i', 'origWidth': 410, 'origHeight': 410, 'width': 410, 'height': 410, 'widthPercent': 0.45, 'rescaleHeight': False, 'trialN': 96, 'loaded': True, 'loadedTime': 4013.7999999523163, 'positionName': 'RIGHT', 'positionCoords': [665.6, 195], 'bid': 9.9}]",237089.19999992847,1669874950522,chickenfingers,mac & cheese,9.93,9.9,-0.02999999999999936,chickenfingers,1106.7000000476837,1113,1112.5,True,u,238705.79999995232,1616.6000000238419,1669874952139,1617,HRV,HRV_0093,2022-12-01 06:11:48
97,"[{'imgObject': {}, 'id': 'orange slices', 'src': '/static/foodstim60/orange slices.jpg', 'key': 'u', 'origWidth': 409, 'origHeight': 410, 'width': 409, 'height': 410, 'widthPercent': 0.45, 'rescaleHeight': False, 'trialN': 97, 'loaded': True, 'loadedTime': 3276.2999999523163, 'positionName': 'LEFT', 'positionCoords': [205.4, 195], 'bid': 2.84}, {'imgObject': {}, 'id': 'turkey sandwich', 'src': '/static/foodstim60/turkey sandwich.jpg', 'key': 'i', 'origWidth': 409, 'origHeight': 409, 'width': 409, 'height': 409, 'widthPercent': 0.45, 'rescaleHeight': False, 'trialN': 97, 'loaded': True, 'loadedTime': 3946.6999999284744, 'positionName': 'RIGHT', 'positionCoords': [665.6, 195.5], 'bid': 2.75}]",238705.89999997616,1669874952139,orange slices,turkey sandwich,2.84,2.75,-0.08999999999999986,turkey sandwich,1070.7999999523163,1075,1074.6000000238419,True,i,240281.29999995232,1575.3999999761581,1669874953714,1575,HRV,HRV_0093,2022-12-01 06:11:48
98,"[{'imgObject': {}, 'id': 'hotdog w must', 'src': '/static/foodstim60/hotdog w must.jpg', 'key': 'u', 'origWidth': 409, 'origHeight': 409, 'width': 409, 'height': 409, 'widthPercent': 0.45, 'rescaleHeight': False, 'trialN': 98, 'loaded': True, 'loadedTime': 4007.2999999523163, 'positionName': 'LEFT', 'positionCoords': [205.4, 195.5], 'bid': 9.84}, {'imgObject': {}, 'id': 'sweetpotato', 'src': '/static/foodstim60/sweetpotato.jpg', 'key': 'i', 'origWidth': 410, 'origHeight': 410, 'width': 410, 'height': 410, 'widthPercent': 0.45, 'rescaleHeight': False, 'trialN': 98, 'loaded': True, 'loadedTime': 3700.899999976158, 'positionName': 'RIGHT', 'positionCoords': [665.6, 195], 'bid': 5.65}]",240281.39999997616,1669874953715,hotdog w must,sweetpotato,9.84,5.65,-4.1899999999999995,hotdog w must,1095.3999999761581,1099,1099.8999999761581,True,u,241890.09999990463,1608.6999999284744,1669874955323,1608,HRV,HRV_0093,2022-12-01 06:11:48
99,"[{'imgObject': {}, 'id': 'mashed potato', 'src': '/static/foodstim60/mashed potato.jpg', 'key': 'u', 'origWidth': 409, 'origHeight': 409, 'width': 409, 'height': 409, 'widthPercent': 0.45, 'rescaleHeight': False, 'trialN': 99, 'loaded': True, 'loadedTime': 3650.0999999046326, 'positionName': 'LEFT', 'positionCoords': [205.4, 195.5], 'bid': 9.84}, {'imgObject': {}, 'id': 'raspberries', 'src': '/static/foodstim60/raspberries.jpg', 'key': 'i', 'origWidth': 411, 'origHeight': 411, 'width': 411, 'height': 411, 'widthPercent': 0.45, 'rescaleHeight': False, 'trialN': 99, 'loaded': True, 'loadedTime': 3727.899999976158, 'positionName': 'RIGHT', 'positionCoords': [665.6, 194.5], 'bid': 3.73}]",241890.29999995232,1669874955323,mashed potato,raspberries,9.84,3.73,-6.109999999999999,mashed potato,1836.2999999523163,1841,1840.8999999761581,True,u,244233.39999997616,2343.100000023842,1669874957667,2344,HRV,HRV_0093,2022-12-01 06:11:48
100,"[{'imgObject': {}, 'id': 'raisin bran w milk', 'src': '/static/foodstim60/raisin bran w milk.jpg', 'key': 'u', 'origWidth': 411, 'origHeight': 411, 'width': 411, 'height': 411, 'widthPercent': 0.45, 'rescaleHeight': False, 'trialN': 100, 'loaded': True, 'loadedTime': 3846.5, 'positionName': 'LEFT', 'positionCoords': [203.4, 194.5], 'bid': 5.14}, {'imgObject': {}, 'id': 'Grapes', 'src': '/static/foodstim60/Grapes.jpg', 'key': 'i', 'origWidth': 411, 'origHeight': 411, 'width': 411, 'height': 411, 'widthPercent': 0.45, 'rescaleHeight': False, 'trialN': 100, 'loaded': True, 'loadedTime': 3953.0999999046326, 'positionName': 'RIGHT', 'positionCoords': [665.6, 194.5], 'bid': 4.03}]",244233.69999992847,1669874957667,raisin bran w milk,Grapes,5.14,4.03,-1.1099999999999994,raisin bran w milk,1502.8000000715256,1507,1507.3999999761581,True,u,246252.69999992847,2019.0,1669874959686,2019,HRV,HRV_0093,2022-12-01 06:11:48
101,"[{'imgObject': {}, 'id': 'sweetpotato', 'src': '/static/foodstim60/sweetpotato.jpg', 'key': 'u', 'origWidth': 410, 'origHeight': 410, 'width': 410, 'height': 410, 'widthPercent': 0.45, 'rescaleHeight': False, 'trialN': 101, 'loaded': True, 'loadedTime': 3699.5999999046326, 'positionName': 'LEFT', 'positionCoords': [204.4, 195], 'bid': 5.65}, {'imgObject': {}, 'id': 'baked potato', 'src': '/static/foodstim60/baked potato.jpg', 'key': 'i', 'origWidth': 409, 'origHeight': 410, 'width': 409, 'height': 410, 'widthPercent': 0.45, 'rescaleHeight': False, 'trialN': 101, 'loaded': True, 'loadedTime': 3766, 'positionName': 'RIGHT', 'positionCoords': [665.6, 195], 'bid': 7.18}]",246252.79999995232,1669874959686,sweetpotato,baked potato,5.65,7.18,1.5299999999999994,sweetpotato,1323.5,1328,1327.8999999761581,True,u,248093.69999992847,1840.8999999761581,1669874961527,1841,HRV,HRV_0093,2022-12-01 06:11:48
102,"[{'imgObject': {}, 'id': 'froot loops w milk', 'src': '/static/foodstim60/froot loops w milk.jpg', 'key': 'u', 'origWidth': 410, 'origHeight': 410, 'width': 410, 'height': 410, 'widthPercent': 0.45, 'rescaleHeight': False, 'trialN': 102, 'loaded': True, 'loadedTime': 3908.7999999523163, 'positionName': 'LEFT', 'positionCoords': [204.4, 195], 'bid': 7.2}, {'imgObject': {}, 'id': 'burrito', 'src': '/static/foodstim60/burrito.jpg', 'key': 'i', 'origWidth': 410, 'origHeight': 410, 'width': 410, 'height': 410, 'widthPercent': 0.45, 'rescaleHeight': False, 'trialN': 102, 'loaded': True, 'loadedTime': 3465.7999999523163, 'positionName': 'RIGHT', 'positionCoords': [665.6, 195], 'bid': 9.84}]",248093.79999995232,1669874961527,froot loops w milk,burrito,7.2,9.84,2.6399999999999997,burrito,874.5,880,879.7000000476837,True,i,249485.59999990463,1391.7999999523163,1669874962919,1392,HRV,HRV_0093,2022-12-01 06:11:48
103,"[{'imgObject': {}, 'id': 'popsicles', 'src': '/static/foodstim60/popsicles.jpg', 'key': 'u', 'origWidth': 410, 'origHeight': 410, 'width': 410, 'height': 410, 'widthPercent': 0.45, 'rescaleHeight': False, 'trialN': 103, 'loaded': True, 'loadedTime': 4039.5999999046326, 'positionName': 'LEFT', 'positionCoords': [204.4, 195], 'bid': 7.51}, {'imgObject': {}, 'id': 'luckycharms', 'src': '/static/foodstim60/luckycharms.jpg', 'key': 'i', 'origWidth': 410, 'origHeight': 409, 'width': 410, 'height': 409, 'widthPercent': 0.45, 'rescaleHeight': False, 'trialN': 103, 'loaded': True, 'loadedTime': 3977, 'positionName': 'RIGHT', 'positionCoords': [665.6, 195.5], 'bid': 6.1000000000000005}]",249485.79999995232,1669874962919,popsicles,luckycharms,7.51,6.1000000000000005,-1.4099999999999993,luckycharms,1205.3999999761581,1210,1210.0,True,i,251205.69999992847,1719.8999999761581,1669874964639,1720,HRV,HRV_0093,2022-12-01 06:11:48
104,"[{'imgObject': {}, 'id': 'orange slices', 'src': '/static/foodstim60/orange slices.jpg', 'key': 'u', 'origWidth': 409, 'origHeight': 410, 'width': 409, 'height': 410, 'widthPercent': 0.45, 'rescaleHeight': False, 'trialN': 104, 'loaded': True, 'loadedTime': 3260.7999999523163, 'positionName': 'LEFT', 'positionCoords': [205.4, 195], 'bid': 2.84}, {'imgObject': {}, 'id': 'apple slices', 'src': '/static/foodstim60/apple slices.jpg', 'key': 'i', 'origWidth': 409, 'origHeight': 410, 'width': 409, 'height': 410, 'widthPercent': 0.45, 'rescaleHeight': False, 'trialN': 104, 'loaded': True, 'loadedTime': 4004.2999999523163, 'positionName': 'RIGHT', 'positionCoords': [665.6, 195], 'bid': 2.67}]",251205.89999997616,1669874964639,orange slices,apple slices,2.84,2.67,-0.16999999999999993,orange slices,1159.2999999523163,1164,1163.7999999523163,True,u,252873.0,1667.1000000238419,1669874966306,1667,HRV,HRV_0093,2022-12-01 06:11:48
105,"[{'imgObject': {}, 'id': 'cheerios', 'src': '/static/foodstim60/cheerios.jpg', 'key': 'u', 'origWidth': 409, 'origHeight': 410, 'width': 409, 'height': 410, 'widthPercent': 0.45, 'rescaleHeight': False, 'trialN': 105, 'loaded': True, 'loadedTime': 3948, 'positionName': 'LEFT', 'positionCoords': [205.4, 195], 'bid': 4.18}, {'imgObject': {}, 'id': 'mango', 'src': '/static/foodstim60/mango.jpg', 'key': 'i', 'origWidth': 411, 'origHeight': 411, 'width': 411, 'height': 411, 'widthPercent': 0.45, 'rescaleHeight': False, 'trialN': 105, 'loaded': True, 'loadedTime': 3930.6999999284744, 'positionName': 'RIGHT', 'positionCoords': [665.6, 194.5], 'bid': 1.35}]",252873.29999995232,1669874966307,cheerios,mango,4.18,1.35,-2.8299999999999996,cheerios,1406.6000000238419,1409,1409.7999999523163,True,u,254786.19999992847,1912.8999999761581,1669874968220,1913,HRV,HRV_0093,2022-12-01 06:11:48
106,"[{'imgObject': {}, 'id': 'orange slices', 'src': '/static/foodstim60/orange slices.jpg', 'key': 'u', 'origWidth': 409, 'origHeight': 410, 'width': 409, 'height': 410, 'widthPercent': 0.45, 'rescaleHeight': False, 'trialN': 106, 'loaded': True, 'loadedTime': 3254.2999999523163, 'positionName': 'LEFT', 'positionCoords': [205.4, 195], 'bid': 2.84}, {'imgObject': {}, 'id': 'seaweed', 'src': '/static/foodstim60/seaweed.jpg', 'key': 'i', 'origWidth': 410, 'origHeight': 410, 'width': 410, 'height': 410, 'widthPercent': 0.45, 'rescaleHeight': False, 'trialN': 106, 'loaded': True, 'loadedTime': 3552.2999999523163, 'positionName': 'RIGHT', 'positionCoords': [665.6, 195], 'bid': 0.12}]",254786.39999997616,1669874968220,orange slices,seaweed,2.84,0.12,-2.7199999999999998,orange slices,800.6000000238419,805,805.1000000238419,True,u,256097.19999992847,1310.7999999523163,1669874969531,1311,HRV,HRV_0093,2022-12-01 06:11:48
107,"[{'imgObject': {}, 'id': 'cherries', 'src': '/static/foodstim60/cherries.jpg', 'key': 'u', 'origWidth': 410, 'origHeight': 411, 'width': 410, 'height': 411, 'widthPercent': 0.45, 'rescaleHeight': False, 'trialN': 107, 'loaded': True, 'loadedTime': 3360.399999976158, 'positionName': 'LEFT', 'positionCoords': [204.4, 194.5], 'bid': 4.28}, {'imgObject': {}, 'id': 'raisin bran w milk', 'src': '/static/foodstim60/raisin bran w milk.jpg', 'key': 'i', 'origWidth': 411, 'origHeight': 411, 'width': 411, 'height': 411, 'widthPercent': 0.45, 'rescaleHeight': False, 'trialN': 107, 'loaded': True, 'loadedTime': 3846.899999976158, 'positionName': 'RIGHT', 'positionCoords': [665.6, 194.5], 'bid': 5.14}]",256097.29999995232,1669874969531,cherries,raisin bran w milk,4.28,5.14,0.8599999999999994,raisin bran w milk,1007.6000000238419,1012,1012.0,True,i,257621.09999990463,1523.7999999523163,1669874971054,1523,HRV,HRV_0093,2022-12-01 06:11:48
