trialN,stimuli,question,trialStartTime,trialStartTime_UNIX,stimulus1,rt,receivedResponse,rating,trialEndTime,trialDuration,stimulus1Loaded,exp,subjectId,date
0,"[{'imgObject': {}, 'id': 'omelette', 'src': '/static/foodstim60/omelette.jpg', 'key': 'NaN', 'origWidth': 410, 'origHeight': 409, 'width': 410, 'height': 409, 'widthPercent': 0.8, 'rescaleHeight': True, 'trialN': 0, 'loaded': True, 'loadedTime': 3180.2999999523163, 'positionName': 'CENTER', 'positionCoords': [435, 195.5]}]",Rate how much you want to eat this food from 0 (least) to 10 (most).,3643.0,1669874546760,omelette,2220.0,True,5.9,5863.0,2220.0,True,HRV,HRV_0093,2022-12-01 06:04:34
1,"[{'imgObject': {}, 'id': 'grilled chicken strips', 'src': '/static/foodstim60/grilled chicken strips.jpg', 'key': 'NaN', 'origWidth': 410, 'origHeight': 411, 'width': 410, 'height': 411, 'widthPercent': 0.8, 'rescaleHeight': True, 'trialN': 1, 'loaded': True, 'loadedTime': 3198.899999976158, 'positionName': 'CENTER', 'positionCoords': [435, 194.5]}]",Rate how much you want to eat this food from 0 (least) to 10 (most).,5865.899999976158,1669874548982,grilled chicken strips,1364.8999999761581,True,6.0600000000000005,7230.799999952316,1364.8999999761581,True,HRV,HRV_0093,2022-12-01 06:04:34
2,"[{'imgObject': {}, 'id': 'cherries', 'src': '/static/foodstim60/cherries.jpg', 'key': 'NaN', 'origWidth': 410, 'origHeight': 411, 'width': 410, 'height': 411, 'widthPercent': 0.8, 'rescaleHeight': True, 'trialN': 2, 'loaded': True, 'loadedTime': 3200.5, 'positionName': 'CENTER', 'positionCoords': [435, 194.5]}]",Rate how much you want to eat this food from 0 (least) to 10 (most).,7233.399999976158,1669874550350,cherries,1488.6000000238419,True,4.28,8722.0,1488.6000000238419,True,HRV,HRV_0093,2022-12-01 06:04:34
3,"[{'imgObject': {}, 'id': 'ice cream sundae 002', 'src': '/static/foodstim60/ice cream sundae 002.jpg', 'key': 'NaN', 'origWidth': 409, 'origHeight': 409, 'width': 409, 'height': 409, 'widthPercent': 0.8, 'rescaleHeight': True, 'trialN': 3, 'loaded': True, 'loadedTime': 3190.399999976158, 'positionName': 'CENTER', 'positionCoords': [435.5, 195.5]}]",Rate how much you want to eat this food from 0 (least) to 10 (most).,8724.799999952316,1669874551841,ice cream sundae 002,4380.600000023842,True,5.0,13105.399999976158,4380.600000023842,True,HRV,HRV_0093,2022-12-01 06:04:34
4,"[{'imgObject': {}, 'id': 'hashbrowns', 'src': '/static/foodstim60/hashbrowns.jpg', 'key': 'NaN', 'origWidth': 411, 'origHeight': 410, 'width': 411, 'height': 410, 'widthPercent': 0.8, 'rescaleHeight': True, 'trialN': 4, 'loaded': True, 'loadedTime': 3202.600000023842, 'positionName': 'CENTER', 'positionCoords': [434.5, 195]}]",Rate how much you want to eat this food from 0 (least) to 10 (most).,13108.0,1669874556225,hashbrowns,2650.899999976158,True,1.01,15758.899999976158,2650.899999976158,True,HRV,HRV_0093,2022-12-01 06:04:34
5,"[{'imgObject': {}, 'id': 'baked potato', 'src': '/static/foodstim60/baked potato.jpg', 'key': 'NaN', 'origWidth': 409, 'origHeight': 410, 'width': 409, 'height': 410, 'widthPercent': 0.8, 'rescaleHeight': True, 'trialN': 5, 'loaded': True, 'loadedTime': 3204.100000023842, 'positionName': 'CENTER', 'positionCoords': [435.5, 195]}]",Rate how much you want to eat this food from 0 (least) to 10 (most).,15761.699999928474,1669874558878,baked potato,1134.7000000476837,True,7.18,16896.399999976158,1134.7000000476837,True,HRV,HRV_0093,2022-12-01 06:04:34
6,"[{'imgObject': {}, 'id': 'eggsalad', 'src': '/static/foodstim60/eggsalad.jpg', 'key': 'NaN', 'origWidth': 410, 'origHeight': 409, 'width': 410, 'height': 409, 'widthPercent': 0.8, 'rescaleHeight': True, 'trialN': 6, 'loaded': True, 'loadedTime': 3222.100000023842, 'positionName': 'CENTER', 'positionCoords': [435, 195.5]}]",Rate how much you want to eat this food from 0 (least) to 10 (most).,16898.600000023842,1669874560015,eggsalad,2090.1999999284744,True,5.39,18988.799999952316,2090.1999999284744,True,HRV,HRV_0093,2022-12-01 06:04:34
7,"[{'imgObject': {}, 'id': 'cocktailshrimp', 'src': '/static/foodstim60/cocktailshrimp.jpg', 'key': 'NaN', 'origWidth': 410, 'origHeight': 410, 'width': 410, 'height': 410, 'widthPercent': 0.8, 'rescaleHeight': True, 'trialN': 7, 'loaded': True, 'loadedTime': 3287, 'positionName': 'CENTER', 'positionCoords': [435, 195]}]",Rate how much you want to eat this food from 0 (least) to 10 (most).,18991.100000023842,1669874562108,cocktailshrimp,1753.0,True,0.0,20744.100000023842,1753.0,True,HRV,HRV_0093,2022-12-01 06:04:34
8,"[{'imgObject': {}, 'id': 'apple slices', 'src': '/static/foodstim60/apple slices.jpg', 'key': 'NaN', 'origWidth': 409, 'origHeight': 410, 'width': 409, 'height': 410, 'widthPercent': 0.8, 'rescaleHeight': True, 'trialN': 8, 'loaded': True, 'loadedTime': 3292.600000023842, 'positionName': 'CENTER', 'positionCoords': [435.5, 195]}]",Rate how much you want to eat this food from 0 (least) to 10 (most).,20746.899999976158,1669874563863,apple slices,1488.2000000476837,True,2.67,22235.100000023842,1488.2000000476837,True,HRV,HRV_0093,2022-12-01 06:04:34
9,"[{'imgObject': {}, 'id': 'seaweed', 'src': '/static/foodstim60/seaweed.jpg', 'key': 'NaN', 'origWidth': 410, 'origHeight': 410, 'width': 410, 'height': 410, 'widthPercent': 0.8, 'rescaleHeight': True, 'trialN': 9, 'loaded': True, 'loadedTime': 3293.7999999523163, 'positionName': 'CENTER', 'positionCoords': [435, 195]}]",Rate how much you want to eat this food from 0 (least) to 10 (most).,22237.0,1669874565353,seaweed,1646.0,True,0.12,23883.0,1646.0,True,HRV,HRV_0093,2022-12-01 06:04:34
10,"[{'imgObject': {}, 'id': 'burger', 'src': '/static/foodstim60/burger.jpg', 'key': 'NaN', 'origWidth': 409, 'origHeight': 409, 'width': 409, 'height': 409, 'widthPercent': 0.8, 'rescaleHeight': True, 'trialN': 10, 'loaded': True, 'loadedTime': 3301.6999999284744, 'positionName': 'CENTER', 'positionCoords': [435.5, 195.5]}]",Rate how much you want to eat this food from 0 (least) to 10 (most).,23885.699999928474,1669874567002,burger,2687.8000000715256,True,6.23,26573.5,2687.8000000715256,True,HRV,HRV_0093,2022-12-01 06:04:34
11,"[{'imgObject': {}, 'id': 'mac & cheese', 'src': '/static/foodstim60/mac & cheese.jpg', 'key': 'NaN', 'origWidth': 410, 'origHeight': 410, 'width': 410, 'height': 410, 'widthPercent': 0.8, 'rescaleHeight': True, 'trialN': 11, 'loaded': True, 'loadedTime': 3302.899999976158, 'positionName': 'CENTER', 'positionCoords': [435, 195]}]",Rate how much you want to eat this food from 0 (least) to 10 (most).,26576.399999976158,1669874569693,mac & cheese,2147.5,True,9.9,28723.899999976158,2147.5,True,HRV,HRV_0093,2022-12-01 06:04:34
12,"[{'imgObject': {}, 'id': 'strawberries', 'src': '/static/foodstim60/strawberries.jpg', 'key': 'NaN', 'origWidth': 410, 'origHeight': 410, 'width': 410, 'height': 410, 'widthPercent': 0.8, 'rescaleHeight': True, 'trialN': 12, 'loaded': True, 'loadedTime': 3304.600000023842, 'positionName': 'CENTER', 'positionCoords': [435, 195]}]",Rate how much you want to eat this food from 0 (least) to 10 (most).,28726.299999952316,1669874571843,strawberries,2762.100000023842,True,4.9,31488.399999976158,2762.100000023842,True,HRV,HRV_0093,2022-12-01 06:04:34
13,"[{'imgObject': {}, 'id': 'rigatoni and sauce', 'src': '/static/foodstim60/rigatoni and sauce.jpg', 'key': 'NaN', 'origWidth': 410, 'origHeight': 411, 'width': 410, 'height': 411, 'widthPercent': 0.8, 'rescaleHeight': True, 'trialN': 13, 'loaded': True, 'loadedTime': 3306.899999976158, 'positionName': 'CENTER', 'positionCoords': [435, 194.5]}]",Rate how much you want to eat this food from 0 (least) to 10 (most).,31490.799999952316,1669874574607,rigatoni and sauce,1521.8000000715256,True,7.68,33012.60000002384,1521.8000000715256,True,HRV,HRV_0093,2022-12-01 06:04:34
14,"[{'imgObject': {}, 'id': 'cherry tomato', 'src': '/static/foodstim60/cherry tomato.jpg', 'key': 'NaN', 'origWidth': 410, 'origHeight': 410, 'width': 410, 'height': 410, 'widthPercent': 0.8, 'rescaleHeight': True, 'trialN': 14, 'loaded': True, 'loadedTime': 3308.2999999523163, 'positionName': 'CENTER', 'positionCoords': [435, 195]}]",Rate how much you want to eat this food from 0 (least) to 10 (most).,33015.5,1669874576132,cherry tomato,2155.899999976158,True,0.03,35171.39999997616,2155.899999976158,True,HRV,HRV_0093,2022-12-01 06:04:34
15,"[{'imgObject': {}, 'id': 'bagel and cc', 'src': '/static/foodstim60/bagel and cc.jpg', 'key': 'NaN', 'origWidth': 410, 'origHeight': 410, 'width': 410, 'height': 410, 'widthPercent': 0.8, 'rescaleHeight': True, 'trialN': 15, 'loaded': True, 'loadedTime': 3272.399999976158, 'positionName': 'CENTER', 'positionCoords': [435, 195]}]",Rate how much you want to eat this food from 0 (least) to 10 (most).,35174.699999928474,1669874578291,bagel and cc,2155.9000000953674,True,9.870000000000001,37330.60000002384,2155.9000000953674,True,HRV,HRV_0093,2022-12-01 06:04:34
16,"[{'imgObject': {}, 'id': 'olives', 'src': '/static/foodstim60/olives.jpg', 'key': 'NaN', 'origWidth': 410, 'origHeight': 410, 'width': 410, 'height': 410, 'widthPercent': 0.8, 'rescaleHeight': True, 'trialN': 16, 'loaded': True, 'loadedTime': 3273.2999999523163, 'positionName': 'CENTER', 'positionCoords': [435, 195]}]",Rate how much you want to eat this food from 0 (least) to 10 (most).,37333.699999928474,1669874580450,olives,1941.3000000715256,True,1.73,39275.0,1941.3000000715256,True,HRV,HRV_0093,2022-12-01 06:04:34
17,"[{'imgObject': {}, 'id': 'chickenfingers', 'src': '/static/foodstim60/chickenfingers.jpg', 'key': 'NaN', 'origWidth': 410, 'origHeight': 410, 'width': 410, 'height': 410, 'widthPercent': 0.8, 'rescaleHeight': True, 'trialN': 17, 'loaded': True, 'loadedTime': 3285.7999999523163, 'positionName': 'CENTER', 'positionCoords': [435, 195]}]",Rate how much you want to eat this food from 0 (least) to 10 (most).,39278.299999952316,1669874582395,chickenfingers,2250.2000000476837,True,9.93,41528.5,2250.2000000476837,True,HRV,HRV_0093,2022-12-01 06:04:34
18,"[{'imgObject': {}, 'id': 'popsicles', 'src': '/static/foodstim60/popsicles.jpg', 'key': 'NaN', 'origWidth': 410, 'origHeight': 410, 'width': 410, 'height': 410, 'widthPercent': 0.8, 'rescaleHeight': True, 'trialN': 18, 'loaded': True, 'loadedTime': 3642, 'positionName': 'CENTER', 'positionCoords': [435, 195]}]",Rate how much you want to eat this food from 0 (least) to 10 (most).,41531.699999928474,1669874584648,popsicles,1842.7000000476837,True,7.51,43374.39999997616,1842.7000000476837,True,HRV,HRV_0093,2022-12-01 06:04:34
19,"[{'imgObject': {}, 'id': 'froot loops w milk', 'src': '/static/foodstim60/froot loops w milk.jpg', 'key': 'NaN', 'origWidth': 410, 'origHeight': 410, 'width': 410, 'height': 410, 'widthPercent': 0.8, 'rescaleHeight': True, 'trialN': 19, 'loaded': True, 'loadedTime': 3288.1999999284744, 'positionName': 'CENTER', 'positionCoords': [435, 195]}]",Rate how much you want to eat this food from 0 (least) to 10 (most).,43377.199999928474,1669874586494,froot loops w milk,1760.3000000715256,True,7.2,45137.5,1760.3000000715256,True,HRV,HRV_0093,2022-12-01 06:04:34
20,"[{'imgObject': {}, 'id': 'burrito', 'src': '/static/foodstim60/burrito.jpg', 'key': 'NaN', 'origWidth': 410, 'origHeight': 410, 'width': 410, 'height': 410, 'widthPercent': 0.8, 'rescaleHeight': True, 'trialN': 20, 'loaded': True, 'loadedTime': 3289.399999976158, 'positionName': 'CENTER', 'positionCoords': [435, 195]}]",Rate how much you want to eat this food from 0 (least) to 10 (most).,45140.699999928474,1669874588262,burrito,2328.4000000953674,True,9.84,47469.10000002384,2328.4000000953674,True,HRV,HRV_0093,2022-12-01 06:04:34
21,"[{'imgObject': {}, 'id': 'shreddedwheatwithmilk', 'src': '/static/foodstim60/shreddedwheatwithmilk.jpg', 'key': 'NaN', 'origWidth': 410, 'origHeight': 410, 'width': 410, 'height': 410, 'widthPercent': 0.8, 'rescaleHeight': True, 'trialN': 21, 'loaded': True, 'loadedTime': 3290.6999999284744, 'positionName': 'CENTER', 'positionCoords': [435, 195]}]",Rate how much you want to eat this food from 0 (least) to 10 (most).,47472.10000002384,1669874590600,shreddedwheatwithmilk,3127.899999976158,True,5.1000000000000005,50600.0,3127.899999976158,True,HRV,HRV_0093,2022-12-01 06:04:34
22,"[{'imgObject': {}, 'id': 'turkeysandwich', 'src': '/static/foodstim60/turkeysandwich.jpg', 'key': 'NaN', 'origWidth': 409, 'origHeight': 409, 'width': 409, 'height': 409, 'widthPercent': 0.8, 'rescaleHeight': True, 'trialN': 22, 'loaded': True, 'loadedTime': 3295.5, 'positionName': 'CENTER', 'positionCoords': [435.5, 195.5]}]",Rate how much you want to eat this food from 0 (least) to 10 (most).,50602.60000002384,1669874593737,turkeysandwich,2160.2999999523163,True,3.23,52762.89999997616,2160.2999999523163,True,HRV,HRV_0093,2022-12-01 06:04:34
23,"[{'imgObject': {}, 'id': 'raisin bran w milk', 'src': '/static/foodstim60/raisin bran w milk.jpg', 'key': 'NaN', 'origWidth': 411, 'origHeight': 411, 'width': 411, 'height': 411, 'widthPercent': 0.8, 'rescaleHeight': True, 'trialN': 23, 'loaded': True, 'loadedTime': 3297.100000023842, 'positionName': 'CENTER', 'positionCoords': [434.5, 194.5]}]",Rate how much you want to eat this food from 0 (least) to 10 (most).,52765.60000002384,1669874595904,raisin bran w milk,2609.7999999523163,True,5.14,55375.39999997616,2609.7999999523163,True,HRV,HRV_0093,2022-12-01 06:04:34
24,"[{'imgObject': {}, 'id': 'sweetpotato', 'src': '/static/foodstim60/sweetpotato.jpg', 'key': 'NaN', 'origWidth': 410, 'origHeight': 410, 'width': 410, 'height': 410, 'widthPercent': 0.8, 'rescaleHeight': True, 'trialN': 24, 'loaded': True, 'loadedTime': 3298.899999976158, 'positionName': 'CENTER', 'positionCoords': [435, 195]}]",Rate how much you want to eat this food from 0 (least) to 10 (most).,55378.0,1669874598520,sweetpotato,1669.5,True,5.65,57047.5,1669.5,True,HRV,HRV_0093,2022-12-01 06:04:34
25,"[{'imgObject': {}, 'id': 'steak', 'src': '/static/foodstim60/steak.jpg', 'key': 'NaN', 'origWidth': 410, 'origHeight': 410, 'width': 410, 'height': 410, 'widthPercent': 0.8, 'rescaleHeight': True, 'trialN': 25, 'loaded': True, 'loadedTime': 3299.7999999523163, 'positionName': 'CENTER', 'positionCoords': [435, 195]}]",Rate how much you want to eat this food from 0 (least) to 10 (most).,57050.39999997616,1669874600195,steak,2057.0,True,8.14,59107.39999997616,2057.0,True,HRV,HRV_0093,2022-12-01 06:04:34
26,"[{'imgObject': {}, 'id': 'pear', 'src': '/static/foodstim60/pear.jpg', 'key': 'NaN', 'origWidth': 411, 'origHeight': 410, 'width': 411, 'height': 410, 'widthPercent': 0.8, 'rescaleHeight': True, 'trialN': 26, 'loaded': True, 'loadedTime': 3305.6999999284744, 'positionName': 'CENTER', 'positionCoords': [434.5, 195]}]",Rate how much you want to eat this food from 0 (least) to 10 (most).,59109.699999928474,1669874602257,pear,1752.9000000953674,True,1.85,60862.60000002384,1752.9000000953674,True,HRV,HRV_0093,2022-12-01 06:04:34
27,"[{'imgObject': {}, 'id': 'chicken nuggets2', 'src': '/static/foodstim60/chicken nuggets2.jpg', 'key': 'NaN', 'origWidth': 410, 'origHeight': 409, 'width': 410, 'height': 409, 'widthPercent': 0.8, 'rescaleHeight': True, 'trialN': 27, 'loaded': True, 'loadedTime': 3309.399999976158, 'positionName': 'CENTER', 'positionCoords': [435, 195.5]}]",Rate how much you want to eat this food from 0 (least) to 10 (most).,60865.299999952316,1669874604014,chicken nuggets2,1768.7000000476837,True,9.96,62634.0,1768.7000000476837,True,HRV,HRV_0093,2022-12-01 06:04:34
28,"[{'imgObject': {}, 'id': 'fruitsalad', 'src': '/static/foodstim60/fruitsalad.jpg', 'key': 'NaN', 'origWidth': 410, 'origHeight': 410, 'width': 410, 'height': 410, 'widthPercent': 0.8, 'rescaleHeight': True, 'trialN': 28, 'loaded': True, 'loadedTime': 3311.899999976158, 'positionName': 'CENTER', 'positionCoords': [435, 195]}]",Rate how much you want to eat this food from 0 (least) to 10 (most).,62636.89999997616,1669874605788,fruitsalad,3132.2000000476837,True,3.79,65769.10000002384,3132.2000000476837,True,HRV,HRV_0093,2022-12-01 06:04:34
29,"[{'imgObject': {}, 'id': 'Grapes', 'src': '/static/foodstim60/Grapes.jpg', 'key': 'NaN', 'origWidth': 411, 'origHeight': 411, 'width': 411, 'height': 411, 'widthPercent': 0.8, 'rescaleHeight': True, 'trialN': 29, 'loaded': True, 'loadedTime': 3310.899999976158, 'positionName': 'CENTER', 'positionCoords': [434.5, 194.5]}]",Rate how much you want to eat this food from 0 (least) to 10 (most).,65771.60000002384,1669874608925,Grapes,1456.1999999284744,True,4.03,67227.79999995232,1456.1999999284744,True,HRV,HRV_0093,2022-12-01 06:04:34
30,"[{'imgObject': {}, 'id': 'lox', 'src': '/static/foodstim60/lox.jpg', 'key': 'NaN', 'origWidth': 410, 'origHeight': 411, 'width': 410, 'height': 411, 'widthPercent': 0.8, 'rescaleHeight': True, 'trialN': 30, 'loaded': True, 'loadedTime': 3313.5, 'positionName': 'CENTER', 'positionCoords': [435, 194.5]}]",Rate how much you want to eat this food from 0 (least) to 10 (most).,67230.69999992847,1669874610385,lox,2682.9000000953674,True,0.84,69913.60000002384,2682.9000000953674,True,HRV,HRV_0093,2022-12-01 06:04:34
31,"[{'imgObject': {}, 'id': 'luckycharms', 'src': '/static/foodstim60/luckycharms.jpg', 'key': 'NaN', 'origWidth': 410, 'origHeight': 409, 'width': 410, 'height': 409, 'widthPercent': 0.8, 'rescaleHeight': True, 'trialN': 31, 'loaded': True, 'loadedTime': 3314.600000023842, 'positionName': 'CENTER', 'positionCoords': [435, 195.5]}]",Rate how much you want to eat this food from 0 (least) to 10 (most).,69916.60000002384,1669874613073,luckycharms,2106.0999999046326,True,6.1000000000000005,72022.69999992847,2106.0999999046326,True,HRV,HRV_0093,2022-12-01 06:04:34
32,"[{'imgObject': {}, 'id': 'hotdog w must', 'src': '/static/foodstim60/hotdog w must.jpg', 'key': 'NaN', 'origWidth': 409, 'origHeight': 409, 'width': 409, 'height': 409, 'widthPercent': 0.8, 'rescaleHeight': True, 'trialN': 32, 'loaded': True, 'loadedTime': 3315.899999976158, 'positionName': 'CENTER', 'positionCoords': [435.5, 195.5]}]",Rate how much you want to eat this food from 0 (least) to 10 (most).,72025.69999992847,1669874615183,hotdog w must,2344.9000000953674,True,9.84,74370.60000002384,2344.9000000953674,True,HRV,HRV_0093,2022-12-01 06:04:34
33,"[{'imgObject': {}, 'id': 'blueberries', 'src': '/static/foodstim60/blueberries.jpg', 'key': 'NaN', 'origWidth': 411, 'origHeight': 411, 'width': 411, 'height': 411, 'widthPercent': 0.8, 'rescaleHeight': True, 'trialN': 33, 'loaded': True, 'loadedTime': 3317.100000023842, 'positionName': 'CENTER', 'positionCoords': [434.5, 194.5]}]",Rate how much you want to eat this food from 0 (least) to 10 (most).,74373.19999992847,1669874617532,blueberries,1723.4000000953674,True,3.42,76096.60000002384,1723.4000000953674,True,HRV,HRV_0093,2022-12-01 06:04:34
34,"[{'imgObject': {}, 'id': 'mango', 'src': '/static/foodstim60/mango.jpg', 'key': 'NaN', 'origWidth': 411, 'origHeight': 411, 'width': 411, 'height': 411, 'widthPercent': 0.8, 'rescaleHeight': True, 'trialN': 34, 'loaded': True, 'loadedTime': 3318, 'positionName': 'CENTER', 'positionCoords': [434.5, 194.5]}]",Rate how much you want to eat this food from 0 (least) to 10 (most).,76099.60000002384,1669874619259,mango,1875.7999999523163,True,1.35,77975.39999997616,1875.7999999523163,True,HRV,HRV_0093,2022-12-01 06:04:34
35,"[{'imgObject': {}, 'id': 'orange slices', 'src': '/static/foodstim60/orange slices.jpg', 'key': 'NaN', 'origWidth': 409, 'origHeight': 410, 'width': 409, 'height': 410, 'widthPercent': 0.8, 'rescaleHeight': True, 'trialN': 35, 'loaded': True, 'loadedTime': 3319.399999976158, 'positionName': 'CENTER', 'positionCoords': [435.5, 195]}]",Rate how much you want to eat this food from 0 (least) to 10 (most).,77978.69999992847,1669874621138,orange slices,1306.5,True,2.84,79285.19999992847,1306.5,True,HRV,HRV_0093,2022-12-01 06:04:34
36,"[{'imgObject': {}, 'id': 'veggieswithdip', 'src': '/static/foodstim60/veggieswithdip.jpg', 'key': 'NaN', 'origWidth': 409, 'origHeight': 409, 'width': 409, 'height': 409, 'widthPercent': 0.8, 'rescaleHeight': True, 'trialN': 36, 'loaded': True, 'loadedTime': 3320.5, 'positionName': 'CENTER', 'positionCoords': [435.5, 195.5]}]",Rate how much you want to eat this food from 0 (least) to 10 (most).,79288.5,1669874622449,veggieswithdip,2072.899999976158,True,0.06,81361.39999997616,2072.899999976158,True,HRV,HRV_0093,2022-12-01 06:04:34
37,"[{'imgObject': {}, 'id': 'salad w chicken', 'src': '/static/foodstim60/salad w chicken.jpg', 'key': 'NaN', 'origWidth': 411, 'origHeight': 411, 'width': 411, 'height': 411, 'widthPercent': 0.8, 'rescaleHeight': True, 'trialN': 37, 'loaded': True, 'loadedTime': 3321.899999976158, 'positionName': 'CENTER', 'positionCoords': [434.5, 194.5]}]",Rate how much you want to eat this food from 0 (least) to 10 (most).,81364.5,1669874624525,salad w chicken,2468.899999976158,True,1.35,83833.39999997616,2468.899999976158,True,HRV,HRV_0093,2022-12-01 06:04:34
38,"[{'imgObject': {}, 'id': 'yogurt no spoon', 'src': '/static/foodstim60/yogurt no spoon.jpg', 'key': 'NaN', 'origWidth': 411, 'origHeight': 410, 'width': 411, 'height': 410, 'widthPercent': 0.8, 'rescaleHeight': True, 'trialN': 38, 'loaded': True, 'loadedTime': 3323.5, 'positionName': 'CENTER', 'positionCoords': [434.5, 195]}]",Rate how much you want to eat this food from 0 (least) to 10 (most).,83836.60000002384,1669874626998,yogurt no spoon,2114.5,True,4.26,85951.10000002384,2114.5,True,HRV,HRV_0093,2022-12-01 06:04:34
39,"[{'imgObject': {}, 'id': 'raspberries', 'src': '/static/foodstim60/raspberries.jpg', 'key': 'NaN', 'origWidth': 411, 'origHeight': 411, 'width': 411, 'height': 411, 'widthPercent': 0.8, 'rescaleHeight': True, 'trialN': 39, 'loaded': True, 'loadedTime': 3325.600000023842, 'positionName': 'CENTER', 'positionCoords': [434.5, 194.5]}]",Rate how much you want to eat this food from 0 (least) to 10 (most).,85953.79999995232,1669874629116,raspberries,2015.7000000476837,True,3.73,87969.5,2015.7000000476837,True,HRV,HRV_0093,2022-12-01 06:04:34
40,"[{'imgObject': {}, 'id': 'blackbeanswithrice', 'src': '/static/foodstim60/blackbeanswithrice.jpg', 'key': 'NaN', 'origWidth': 410, 'origHeight': 410, 'width': 410, 'height': 410, 'widthPercent': 0.8, 'rescaleHeight': True, 'trialN': 40, 'loaded': True, 'loadedTime': 3326.6999999284744, 'positionName': 'CENTER', 'positionCoords': [435, 195]}]",Rate how much you want to eat this food from 0 (least) to 10 (most).,87972.19999992847,1669874631135,blackbeanswithrice,2328.9000000953674,True,9.14,90301.10000002384,2328.9000000953674,True,HRV,HRV_0093,2022-12-01 06:04:34
41,"[{'imgObject': {}, 'id': 'avocado', 'src': '/static/foodstim60/avocado.jpg', 'key': 'NaN', 'origWidth': 409, 'origHeight': 409, 'width': 409, 'height': 409, 'widthPercent': 0.8, 'rescaleHeight': True, 'trialN': 41, 'loaded': True, 'loadedTime': 3328.399999976158, 'positionName': 'CENTER', 'positionCoords': [435.5, 195.5]}]",Rate how much you want to eat this food from 0 (least) to 10 (most).,90304.19999992847,1669874633467,avocado,1929.3000000715256,True,1.21,92233.5,1929.3000000715256,True,HRV,HRV_0093,2022-12-01 06:04:34
42,"[{'imgObject': {}, 'id': 'bagel plain', 'src': '/static/foodstim60/bagel plain.jpg', 'key': 'NaN', 'origWidth': 410, 'origHeight': 410, 'width': 410, 'height': 410, 'widthPercent': 0.8, 'rescaleHeight': True, 'trialN': 42, 'loaded': True, 'loadedTime': 3329.600000023842, 'positionName': 'CENTER', 'positionCoords': [435, 195]}]",Rate how much you want to eat this food from 0 (least) to 10 (most).,92235.89999997616,1669874635399,bagel plain,1892.6000000238419,True,5.0600000000000005,94128.5,1892.6000000238419,True,HRV,HRV_0093,2022-12-01 06:04:34
43,"[{'imgObject': {}, 'id': 'mashed potato', 'src': '/static/foodstim60/mashed potato.jpg', 'key': 'NaN', 'origWidth': 409, 'origHeight': 409, 'width': 409, 'height': 409, 'widthPercent': 0.8, 'rescaleHeight': True, 'trialN': 43, 'loaded': True, 'loadedTime': 3331.2999999523163, 'positionName': 'CENTER', 'positionCoords': [435.5, 195.5]}]",Rate how much you want to eat this food from 0 (least) to 10 (most).,94131.10000002384,1669874637295,mashed potato,2440.1999999284744,True,9.84,96571.29999995232,2440.1999999284744,True,HRV,HRV_0093,2022-12-01 06:04:34
44,"[{'imgObject': {}, 'id': 'rigatoni', 'src': '/static/foodstim60/rigatoni.jpg', 'key': 'NaN', 'origWidth': 411, 'origHeight': 411, 'width': 411, 'height': 411, 'widthPercent': 0.8, 'rescaleHeight': True, 'trialN': 44, 'loaded': True, 'loadedTime': 3334.1999999284744, 'positionName': 'CENTER', 'positionCoords': [434.5, 194.5]}]",Rate how much you want to eat this food from 0 (least) to 10 (most).,96574.10000002384,1669874639738,rigatoni,2526.899999976158,True,4.79,99101.0,2526.899999976158,True,HRV,HRV_0093,2022-12-01 06:04:34
45,"[{'imgObject': {}, 'id': 'eggs', 'src': '/static/foodstim60/eggs.jpg', 'key': 'NaN', 'origWidth': 409, 'origHeight': 409, 'width': 409, 'height': 409, 'widthPercent': 0.8, 'rescaleHeight': True, 'trialN': 45, 'loaded': True, 'loadedTime': 3332.600000023842, 'positionName': 'CENTER', 'positionCoords': [435.5, 195.5]}]",Rate how much you want to eat this food from 0 (least) to 10 (most).,99103.29999995232,1669874642267,eggs,1447.7000000476837,True,7.79,100551.0,1447.7000000476837,True,HRV,HRV_0093,2022-12-01 06:04:34
46,"[{'imgObject': {}, 'id': 'turkey sandwich', 'src': '/static/foodstim60/turkey sandwich.jpg', 'key': 'NaN', 'origWidth': 409, 'origHeight': 409, 'width': 409, 'height': 409, 'widthPercent': 0.8, 'rescaleHeight': True, 'trialN': 46, 'loaded': True, 'loadedTime': 3335.600000023842, 'positionName': 'CENTER', 'positionCoords': [435.5, 195.5]}]",Rate how much you want to eat this food from 0 (least) to 10 (most).,100553.89999997616,1669874643718,turkey sandwich,2135.2000000476837,True,2.75,102689.10000002384,2135.2000000476837,True,HRV,HRV_0093,2022-12-01 06:04:34
47,"[{'imgObject': {}, 'id': 'Tribe humus pita', 'src': '/static/foodstim60/Tribe humus pita.jpg', 'key': 'NaN', 'origWidth': 411, 'origHeight': 411, 'width': 411, 'height': 411, 'widthPercent': 0.8, 'rescaleHeight': True, 'trialN': 47, 'loaded': True, 'loadedTime': 3337.100000023842, 'positionName': 'CENTER', 'positionCoords': [434.5, 194.5]}]",Rate how much you want to eat this food from 0 (least) to 10 (most).,102691.39999997616,1669874645856,Tribe humus pita,2172.899999976158,True,9.93,104864.29999995232,2172.899999976158,True,HRV,HRV_0093,2022-12-01 06:04:34
48,"[{'imgObject': {}, 'id': 'salmon', 'src': '/static/foodstim60/salmon.jpg', 'key': 'NaN', 'origWidth': 410, 'origHeight': 409, 'width': 410, 'height': 409, 'widthPercent': 0.8, 'rescaleHeight': True, 'trialN': 48, 'loaded': True, 'loadedTime': 3338.399999976158, 'positionName': 'CENTER', 'positionCoords': [435, 195.5]}]",Rate how much you want to eat this food from 0 (least) to 10 (most).,104866.60000002384,1669874648031,salmon,3359.2999999523163,True,4.12,108225.89999997616,3359.2999999523163,True,HRV,HRV_0093,2022-12-01 06:04:34
49,"[{'imgObject': {}, 'id': 'roastedpotatoes', 'src': '/static/foodstim60/roastedpotatoes.jpg', 'key': 'NaN', 'origWidth': 409, 'origHeight': 410, 'width': 409, 'height': 410, 'widthPercent': 0.8, 'rescaleHeight': True, 'trialN': 49, 'loaded': True, 'loadedTime': 3339.899999976158, 'positionName': 'CENTER', 'positionCoords': [435.5, 195]}]",Rate how much you want to eat this food from 0 (least) to 10 (most).,108228.69999992847,1669874651393,roastedpotatoes,1760.3000000715256,True,7.28,109989.0,1760.3000000715256,True,HRV,HRV_0093,2022-12-01 06:04:34
50,"[{'imgObject': {}, 'id': 'corn cob', 'src': '/static/foodstim60/corn cob.jpg', 'key': 'NaN', 'origWidth': 411, 'origHeight': 411, 'width': 411, 'height': 411, 'widthPercent': 0.8, 'rescaleHeight': True, 'trialN': 50, 'loaded': True, 'loadedTime': 3341.6999999284744, 'positionName': 'CENTER', 'positionCoords': [434.5, 194.5]}]",Rate how much you want to eat this food from 0 (least) to 10 (most).,109992.0,1669874653157,corn cob,2349.2999999523163,True,0.15,112341.29999995232,2349.2999999523163,True,HRV,HRV_0093,2022-12-01 06:04:34
51,"[{'imgObject': {}, 'id': 'fried eggs', 'src': '/static/foodstim60/fried eggs.jpg', 'key': 'NaN', 'origWidth': 410, 'origHeight': 410, 'width': 410, 'height': 410, 'widthPercent': 0.8, 'rescaleHeight': True, 'trialN': 51, 'loaded': True, 'loadedTime': 3344.5, 'positionName': 'CENTER', 'positionCoords': [435, 195]}]",Rate how much you want to eat this food from 0 (least) to 10 (most).,112344.10000002384,1669874655509,fried eggs,2081.7999999523163,True,9.870000000000001,114425.89999997616,2081.7999999523163,True,HRV,HRV_0093,2022-12-01 06:04:34
52,"[{'imgObject': {}, 'id': 'tacos', 'src': '/static/foodstim60/tacos.jpg', 'key': 'NaN', 'origWidth': 411, 'origHeight': 411, 'width': 411, 'height': 411, 'widthPercent': 0.8, 'rescaleHeight': True, 'trialN': 52, 'loaded': True, 'loadedTime': 3345.899999976158, 'positionName': 'CENTER', 'positionCoords': [434.5, 194.5]}]",Rate how much you want to eat this food from 0 (least) to 10 (most).,114429.0,1669874657594,tacos,1673.5,True,6.79,116102.5,1673.5,True,HRV,HRV_0093,2022-12-01 06:04:34
53,"[{'imgObject': {}, 'id': 'sushi w_condiments', 'src': '/static/foodstim60/sushi w_condiments.jpg', 'key': 'NaN', 'origWidth': 410, 'origHeight': 410, 'width': 410, 'height': 410, 'widthPercent': 0.8, 'rescaleHeight': True, 'trialN': 53, 'loaded': True, 'loadedTime': 3343.1999999284744, 'positionName': 'CENTER', 'positionCoords': [435, 195]}]",Rate how much you want to eat this food from 0 (least) to 10 (most).,116105.5,1669874659271,sushi w_condiments,2155.6999999284744,True,0.0,118261.19999992847,2155.6999999284744,True,HRV,HRV_0093,2022-12-01 06:04:34
54,"[{'imgObject': {}, 'id': 'banana', 'src': '/static/foodstim60/banana.jpg', 'key': 'NaN', 'origWidth': 410, 'origHeight': 410, 'width': 410, 'height': 410, 'widthPercent': 0.8, 'rescaleHeight': True, 'trialN': 54, 'loaded': True, 'loadedTime': 3347.2999999523163, 'positionName': 'CENTER', 'positionCoords': [435, 195]}]",Rate how much you want to eat this food from 0 (least) to 10 (most).,118264.19999992847,1669874661430,banana,1381.4000000953674,True,0.15,119645.60000002384,1381.4000000953674,True,HRV,HRV_0093,2022-12-01 06:04:34
55,"[{'imgObject': {}, 'id': 'cantaloupe', 'src': '/static/foodstim60/cantaloupe.jpg', 'key': 'NaN', 'origWidth': 409, 'origHeight': 409, 'width': 409, 'height': 409, 'widthPercent': 0.8, 'rescaleHeight': True, 'trialN': 55, 'loaded': True, 'loadedTime': 3348.6999999284744, 'positionName': 'CENTER', 'positionCoords': [435.5, 195.5]}]",Rate how much you want to eat this food from 0 (least) to 10 (most).,119648.89999997616,1669874662814,cantaloupe,1537.2999999523163,True,0.26,121186.19999992847,1537.2999999523163,True,HRV,HRV_0093,2022-12-01 06:04:34
56,"[{'imgObject': {}, 'id': 'cheerios', 'src': '/static/foodstim60/cheerios.jpg', 'key': 'NaN', 'origWidth': 409, 'origHeight': 410, 'width': 409, 'height': 410, 'widthPercent': 0.8, 'rescaleHeight': True, 'trialN': 56, 'loaded': True, 'loadedTime': 3349.899999976158, 'positionName': 'CENTER', 'positionCoords': [435.5, 195]}]",Rate how much you want to eat this food from 0 (least) to 10 (most).,121189.5,1669874664355,cheerios,2369.7999999523163,True,4.18,123559.29999995232,2369.7999999523163,True,HRV,HRV_0093,2022-12-01 06:04:34
57,"[{'imgObject': {}, 'id': 'edamame', 'src': '/static/foodstim60/edamame.jpg', 'key': 'NaN', 'origWidth': 409, 'origHeight': 410, 'width': 409, 'height': 410, 'widthPercent': 0.8, 'rescaleHeight': True, 'trialN': 57, 'loaded': True, 'loadedTime': 3351.2999999523163, 'positionName': 'CENTER', 'positionCoords': [435.5, 195]}]",Rate how much you want to eat this food from 0 (least) to 10 (most).,123561.79999995232,1669874666727,edamame,2213.8000000715256,True,9.81,125775.60000002384,2213.8000000715256,True,HRV,HRV_0093,2022-12-01 06:04:34
58,"[{'imgObject': {}, 'id': 'granola w milk', 'src': '/static/foodstim60/granola w milk.jpg', 'key': 'NaN', 'origWidth': 410, 'origHeight': 410, 'width': 410, 'height': 410, 'widthPercent': 0.8, 'rescaleHeight': True, 'trialN': 58, 'loaded': True, 'loadedTime': 3352.6999999284744, 'positionName': 'CENTER', 'positionCoords': [435, 195]}]",Rate how much you want to eat this food from 0 (least) to 10 (most).,125778.89999997616,1669874668945,granola w milk,2686.899999976158,True,2.59,128465.79999995232,2686.899999976158,True,HRV,HRV_0093,2022-12-01 06:04:34
59,"[{'imgObject': {}, 'id': 'kiwi', 'src': '/static/foodstim60/kiwi.jpg', 'key': 'NaN', 'origWidth': 410, 'origHeight': 410, 'width': 410, 'height': 410, 'widthPercent': 0.8, 'rescaleHeight': True, 'trialN': 59, 'loaded': True, 'loadedTime': 3353.7999999523163, 'positionName': 'CENTER', 'positionCoords': [435, 195]}]",Rate how much you want to eat this food from 0 (least) to 10 (most).,128469.10000002384,1669874671635,kiwi,1537.2999999523163,True,1.45,130006.39999997616,1537.2999999523163,True,HRV,HRV_0093,2022-12-01 06:04:34
