success,trial_type,trial_index,time_elapsed,internal_node_id,Block,TrialNumber,TrialTime,trialTimeDiff,FPS_avg,FPS_med,FPS_mode,TrialDur,winResizeTime,rt,block,button_pressed,MotCoh,MotDir,ColCoh,Color,ChoiceKey,Choice,Accuracy,RT,nFrames,FPS,PPD,missTrial,missTrialMsg,onsetDelay,fullScreenExitTime,canvCenter,TrialType,Score,BlockTrial,stimulus,button_labels,exp,subjectId,date
True,fullscreen,0,1300,0.0-0.0,0.0,1.0,,,,,,,,,,,,,,,,,,,,,,,,,,,,,,,,HRV,HRV_0013,2022-07-13 15:14:27
,wl-check-fps,1,6315,0.0-1.0,0.0,2.0,"[1595.7, 1624.3, 1627.9, 1644.8, 1661.6, 1678.4, 1695.2, 1712, 1728.5, 1745.1, 1761.5, 1778.2, 1794.7, 1811.6, 1828.1, 1845.1, 1861.9, 1878.5, 1895.2, 1911.8, 1928.1, 1944.8, 1961.7, 1978.3, 1995, 2011.5, 2028.4, 2045.3, 2062.4, 2078.6, 2095.2, 2111.8, 2128.3, 2145.2, 2161.8, 2178.5, 2195.1, 2211.7, 2228.6, 2245.1, 2261.6, 2278.5, 2295.1, 2311.8, 2328.6, 2345.1, 2361.7, 2378.4, 2395.2, 2411.8, 2428.4, 2445, 2461.7, 2478.2, 2495.2, 2511.8, 2528.5, 2545.1, 2561.8, 2578.4, 2595.3, 2611.9, 2628.5, 2645.1, 2661.3, 2678.2, 2694.7, 2711.7, 2728.3, 2745.1, 2761.6, 2778.4, 2795.2, 2811.9, 2828.4, 2845.4, 2861.7, 2878.6, 2895.1, 2911.8, 2928.5, 2944.8, 2961.7, 2978.4, 2995, 3011.5, 3028.6, 3045.1, 3061.7, 3078.5, 3095.1, 3111.8, 3128.3, 3145.2, 3161.6, 3178.6, 3195, 3211.8, 3228.2, 3245, 3261.6, 3278.6, 3295.2, 3311.8, 3328.5, 3345.1, 3361.9, 3378.4, 3395, 3411.7, 3428.3, 3445.1, 3461.7, 3478.2, 3495.1, 3511.6, 3528.4, 3545.2, 3561.7, 3578.6, 3595.1, 3611.8, 3628.5, 3645.2, 3661.7, 3678.5, 3695.1, 3711.5, 3728.1, 3744.9, 3761.4, 3778.1, 3795.1, 3811.7, 3828.6, 3845, 3861.7, 3878.6, 3895.2, 3911.6, 3928.5, 3945.1, 3961.7, 3978.3, 3995.2, 4011.9, 4028.2, 4045.1, 4061.7, 4078.3, 4095.1, 4111.9, 4128.5, 4145.1, 4161.7, 4178.5, 4195.2, 4211.7, 4228.5, 4244.9, 4261.6, 4278.3, 4295, 4311.8, 4328.4, 4345.2, 4361.7, 4378.4, 4395.1, 4411.8, 4428.5, 4445.2, 4461.6, 4478.5, 4495.1, 4511.7, 4528.3, 4545, 4561.8, 4578.4, 4595.2, 4611.7, 4628.4, 4645.1, 4661.9, 4678.3, 4695.1, 4711.8, 4728.5, 4745.3, 4761.6, 4777.9, 4794.7, 4811.5, 4828.2, 4845.2, 4861.8, 4878.6, 4895.3, 4912, 4928.4, 4945, 4961.7, 4978.5, 4995.1, 5011.8, 5028.2, 5045.3, 5062, 5078.3, 5095.1, 5111.3, 5128.4, 5145.3, 5161.8, 5178.4, 5195.2, 5211.7, 5228.4, 5245.2, 5261.7, 5278.5, 5295.1, 5311.7, 5328.5, 5345.1, 5361.7, 5378.4, 5395.3, 5411.6, 5428.7, 5445.2, 5461.9, 5478.6, 5494.9, 5511.7, 5528.3, 5545.2, 5561.8, 5578.6, 5595, 5611.7, 5628.5, 5645, 5661.9, 5678.4, 5695.1, 5711.8, 5728.5, 5745, 5761.9, 5778.5, 5794.9, 5811.5, 5828, 5845.1, 5861.7, 5878.3, 5895, 5911.9, 5928.5, 5945.3, 5961.8, 5978.4, 5995.1, 6011.6, 6028.4, 6045.2, 6061.8, 6078.4, 6095, 6111.8, 6128.3, 6145.2, 6161.8, 6178.4, 6195, 6211.8, 6228.4, 6245.1, 6261.6, 6278.2, 6295.2, 6311.8, 6328.5, 6345.1, 6361.7, 6378.5, 6394.9, 6411.7, 6428.4, 6444.9, 6461.7, 6478.2, 6494.9, 6511.5, 6528.3, 6544.8, 6561.7, 6578.3]","[12.9, 28.6, 3.6, 16.9, 16.8, 16.8, 16.8, 16.8, 16.5, 16.6, 16.4, 16.7, 16.5, 16.9, 16.5, 17, 16.8, 16.6, 16.7, 16.6, 16.3, 16.7, 16.9, 16.6, 16.7, 16.5, 16.9, 16.9, 17.1, 16.2, 16.6, 16.6, 16.5, 16.9, 16.6, 16.7, 16.6, 16.6, 16.9, 16.5, 16.5, 16.9, 16.6, 16.7, 16.8, 16.5, 16.6, 16.7, 16.8, 16.6, 16.6, 16.6, 16.7, 16.5, 17, 16.6, 16.7, 16.6, 16.7, 16.6, 16.9, 16.6, 16.6, 16.6, 16.2, 16.9, 16.5, 17, 16.6, 16.8, 16.5, 16.8, 16.8, 16.7, 16.5, 17, 16.3, 16.9, 16.5, 16.7, 16.7, 16.3, 16.9, 16.7, 16.6, 16.5, 17.1, 16.5, 16.6, 16.8, 16.6, 16.7, 16.5, 16.9, 16.4, 17, 16.4, 16.8, 16.4, 16.8, 16.6, 17, 16.6, 16.6, 16.7, 16.6, 16.8, 16.5, 16.6, 16.7, 16.6, 16.8, 16.6, 16.5, 16.9, 16.5, 16.8, 16.8, 16.5, 16.9, 16.5, 16.7, 16.7, 16.7, 16.5, 16.8, 16.6, 16.4, 16.6, 16.8, 16.5, 16.7, 17, 16.6, 16.9, 16.4, 16.7, 16.9, 16.6, 16.4, 16.9, 16.6, 16.6, 16.6, 16.9, 16.7, 16.3, 16.9, 16.6, 16.6, 16.8, 16.8, 16.6, 16.6, 16.6, 16.8, 16.7, 16.5, 16.8, 16.4, 16.7, 16.7, 16.7, 16.8, 16.6, 16.8, 16.5, 16.7, 16.7, 16.7, 16.7, 16.7, 16.4, 16.9, 16.6, 16.6, 16.6, 16.7, 16.8, 16.6, 16.8, 16.5, 16.7, 16.7, 16.8, 16.4, 16.8, 16.7, 16.7, 16.8, 16.3, 16.3, 16.8, 16.8, 16.7, 17, 16.6, 16.8, 16.7, 16.7, 16.4, 16.6, 16.7, 16.8, 16.6, 16.7, 16.4, 17.1, 16.7, 16.3, 16.8, 16.2, 17.1, 16.9, 16.5, 16.6, 16.8, 16.5, 16.7, 16.8, 16.5, 16.8, 16.6, 16.6, 16.8, 16.6, 16.6, 16.7, 16.9, 16.3, 17.1, 16.5, 16.7, 16.7, 16.3, 16.8, 16.6, 16.9, 16.6, 16.8, 16.4, 16.7, 16.8, 16.5, 16.9, 16.5, 16.7, 16.7, 16.7, 16.5, 16.9, 16.6, 16.4, 16.6, 16.5, 17.1, 16.6, 16.6, 16.7, 16.9, 16.6, 16.8, 16.5, 16.6, 16.7, 16.5, 16.8, 16.8, 16.6, 16.6, 16.6, 16.8, 16.5, 16.9, 16.6, 16.6, 16.6, 16.8, 16.6, 16.7, 16.5, 16.6, 17, 16.6, 16.7, 16.6, 16.6, 16.8, 16.4, 16.8, 16.7, 16.5, 16.8, 16.5, 16.7, 16.6, 16.8, 16.5, 16.9, 16.6]",60.0,60.0,60.0,5012.3,[],,,,,,,,,,,,,,,,,,,,,,,,,HRV,HRV_0013,2022-07-13 15:14:27
,wl-html-keyboard-response,2,17954,0.0-2.0-0.0,0.0,3.0,,,,,,,,9620.0,0.0,0,,,,,,,,,,,,,,,,,,,,,,HRV,HRV_0013,2022-07-13 15:14:27
,wl-rdm,3,24642,0.0-3.0-0.0,0.0,4.0,,,,,,,[],,,,0.0,0.0,87.9,0.0,u,0.0,True,1122.0999999977648,68.0,60.0,40.0,False,,3000.0,[],"[960, 540]",ColorTask_Demo,,,,,HRV,HRV_0013,2022-07-13 15:14:27
,wl-rdm,4,29542,0.0-3.0-1.0,0.0,5.0,,,,,,,[],,,,0.0,0.0,87.9,1.0,i,1.0,True,816.6999999992549,49.0,60.0,40.0,False,,2000.0,[],"[960, 540]",ColorTask_Demo,,,,,HRV,HRV_0013,2022-07-13 15:14:27
,wl-html-keyboard-response,5,34006,0.0-3.0-2.0,0.0,6.0,,,,,,,,2457.300000000745,0.0,1,,,,,,,,,,,,,,,,,,,,,,HRV,HRV_0013,2022-07-13 15:14:27
,wl-html-keyboard-response,6,44106,0.0-4.0-0.0,0.0,7.0,,,,,,,,8095.599999997765,0.0,0,,,,,,,,,,,,,,,,,,,,,,HRV,HRV_0013,2022-07-13 15:14:27
,wl-html-keyboard-response,7,59355,0.0-5.0-0.0,0.0,8.0,,,,,,,,13246.39999999851,0.0,0,,,,,,,,,,,,,,,,,,,,,,HRV,HRV_0013,2022-07-13 15:14:27
,wl-rdm,8,61843,0.0-6.0-0.0,0.0,9.0,,,,,,,[],,,,,,56.4,1.0,u,0.0,False,1137.1999999955297,69.0,60.0,40.0,False,,284.24156021401177,[],"[960, 540]",ColorTask,-1.0,1.0,,,HRV,HRV_0013,2022-07-13 15:14:27
,wl-rdm,9,64126,0.0-6.1-0.1,0.0,10.0,,,,,,,[],,,,,,50.0,1.0,u,0.0,False,976.0,59.0,60.0,40.0,False,,220.05541610735793,[],"[960, 540]",ColorTask,-2.0,2.0,,,HRV,HRV_0013,2022-07-13 15:14:27
,wl-rdm,10,66509,0.0-6.2-0.2,0.0,11.0,,,,,,,[],,,,,,56.4,0.0,u,0.0,True,1058.7999999970198,64.0,60.0,40.0,False,,241.79194066407098,[],"[960, 540]",ColorTask,-1.0,3.0,,,HRV,HRV_0013,2022-07-13 15:14:27
,wl-rdm,11,68493,0.0-6.3-0.3,0.0,12.0,,,,,,,[],,,,,,50.0,1.0,i,1.0,True,581.8000000007451,35.0,60.0,40.0,False,,336.07965234423966,[],"[960, 540]",ColorTask,0.0,4.0,,,HRV,HRV_0013,2022-07-13 15:14:27
,wl-rdm,12,70693,0.0-6.4-0.4,0.0,13.0,,,,,,,[],,,,,,56.4,1.0,i,1.0,True,897.8999999985099,54.0,60.0,40.0,False,,228.90690959403685,[],"[960, 540]",ColorTask,1.0,5.0,,,HRV,HRV_0013,2022-07-13 15:14:27
,wl-rdm,13,73459,0.0-6.5-0.5,0.0,14.0,,,,,,,[],,,,,,87.9,1.0,i,1.0,True,1406.199999999255,85.0,60.0,40.0,False,,298.6992644076589,[],"[960, 540]",ColorTask,2.0,6.0,,,HRV,HRV_0013,2022-07-13 15:14:27
,wl-rdm,14,75193,0.0-6.6-0.6,0.0,15.0,,,,,,,[],,,,,,62.5,0.0,u,0.0,True,435.8999999985099,27.0,60.0,40.0,False,,209.292123357385,[],"[960, 540]",ColorTask,3.0,7.0,,,HRV,HRV_0013,2022-07-13 15:14:27
,wl-rdm,15,77060,0.0-6.7-0.7,0.0,16.0,,,,,,,[],,,,,,87.9,0.0,u,0.0,True,502.70000000298023,31.0,60.0,40.0,False,,269.61159328107385,[],"[960, 540]",ColorTask,4.0,8.0,,,HRV,HRV_0013,2022-07-13 15:14:27
,wl-rdm,16,79160,0.0-6.8-0.8,0.0,17.0,,,,,,,[],,,,,,73.6,0.0,u,0.0,True,669.5999999977648,41.0,60.0,40.0,False,,339.36290477092354,[],"[960, 540]",ColorTask,5.0,9.0,,,HRV,HRV_0013,2022-07-13 15:14:27
,wl-rdm,17,81026,0.0-6.9-0.9,0.0,18.0,,,,,,,[],,,,,,62.5,0.0,u,0.0,True,574.6999999992549,35.0,60.0,40.0,False,,204.25250604144293,[],"[960, 540]",ColorTask,6.0,10.0,,,HRV,HRV_0013,2022-07-13 15:14:27
,wl-rdm,18,83043,0.0-6.10-0.10,0.0,19.0,,,,,,,[],,,,,,62.5,1.0,u,0.0,False,629.1000000014901,38.0,60.0,40.0,False,,302.66019246502356,[],"[960, 540]",ColorTask,5.0,11.0,,,HRV,HRV_0013,2022-07-13 15:14:27
,wl-rdm,19,85009,0.0-6.11-0.11,0.0,20.0,,,,,,,[],,,,,,87.9,1.0,i,1.0,True,574.6000000014901,35.0,60.0,40.0,False,,311.27656320253607,[],"[960, 540]",ColorTask,6.0,12.0,,,HRV,HRV_0013,2022-07-13 15:14:27
,wl-rdm,20,86909,0.0-6.12-0.12,0.0,21.0,,,,,,,[],,,,,,87.9,1.0,i,1.0,True,488.0,30.0,60.0,40.0,False,,329.80163396419636,[],"[960, 540]",ColorTask,7.0,13.0,,,HRV,HRV_0013,2022-07-13 15:14:27
,wl-rdm,21,89076,0.0-6.13-0.13,0.0,22.0,,,,,,,[],,,,,,56.4,1.0,u,0.0,False,760.8999999985099,46.0,60.0,40.0,False,,334.1007596824891,[],"[960, 540]",ColorTask,6.0,14.0,,,HRV,HRV_0013,2022-07-13 15:14:27
,wl-rdm,22,90943,0.0-6.14-0.14,0.0,23.0,,,,,,,[],,,,,,73.6,0.0,i,1.0,False,527.2000000029802,32.0,60.0,40.0,False,,259.07784245780584,[],"[960, 540]",ColorTask,5.0,15.0,,,HRV,HRV_0013,2022-07-13 15:14:27
,wl-rdm,23,92792,0.0-6.15-0.15,0.0,24.0,,,,,,,[],,,,,,53.2,0.0,u,0.0,True,560.5000000037253,34.0,60.0,40.0,False,,212.57599804298403,[],"[960, 540]",ColorTask,6.0,16.0,,,HRV,HRV_0013,2022-07-13 15:14:27
,wl-rdm,24,94626,0.0-6.16-0.16,0.0,25.0,,,,,,,[],,,,,,87.9,0.0,u,0.0,True,504.8999999985099,31.0,60.0,40.0,False,,246.66528367551723,[],"[960, 540]",ColorTask,7.0,17.0,,,HRV,HRV_0013,2022-07-13 15:14:27
,wl-rdm,25,96443,0.0-6.17-0.17,0.0,26.0,,,,,,,[],,,,,,87.9,0.0,u,0.0,True,492.0,30.0,60.0,40.0,False,,248.40203923779524,[],"[960, 540]",ColorTask,8.0,18.0,,,HRV,HRV_0013,2022-07-13 15:14:27
,wl-rdm,26,98792,0.0-6.18-0.18,0.0,27.0,,,,,,,[],,,,,,73.6,1.0,i,1.0,True,952.3000000007451,58.0,60.0,40.0,False,,309.91674568791086,[],"[960, 540]",ColorTask,9.0,19.0,,,HRV,HRV_0013,2022-07-13 15:14:27
,wl-rdm,27,101026,0.0-6.19-0.19,0.0,28.0,,,,,,,[],,,,,,73.6,1.0,i,1.0,True,909.1999999992549,55.0,60.0,40.0,False,,244.60270310702882,[],"[960, 540]",ColorTask,10.0,20.0,,,HRV,HRV_0013,2022-07-13 15:14:27
,wl-rdm,28,103443,0.0-6.20-0.20,0.0,29.0,,,,,,,[],,,,,,73.6,1.0,i,1.0,True,1121.1000000014901,68.0,60.0,40.0,False,,211.7478069451953,[],"[960, 540]",ColorTask,11.0,21.0,,,HRV,HRV_0013,2022-07-13 15:14:27
,wl-rdm,29,105509,0.0-6.21-0.21,0.0,30.0,,,,,,,[],,,,,,53.2,0.0,u,0.0,True,775.8000000007451,47.0,60.0,40.0,False,,211.82989068652807,[],"[960, 540]",ColorTask,12.0,22.0,,,HRV,HRV_0013,2022-07-13 15:14:27
,wl-rdm,30,107459,0.0-6.22-0.22,0.0,31.0,,,,,,,[],,,,,,50.0,0.0,u,0.0,True,640.5,39.0,60.0,40.0,False,,248.64437693570326,[],"[960, 540]",ColorTask,13.0,23.0,,,HRV,HRV_0013,2022-07-13 15:14:27
,wl-rdm,31,109776,0.0-6.23-0.23,0.0,32.0,,,,,,,[],,,,,,53.2,0.0,i,1.0,False,865.1999999955297,52.0,60.0,40.0,False,,378.9108827571223,[],"[960, 540]",ColorTask,12.0,24.0,,,HRV,HRV_0013,2022-07-13 15:14:27
,wl-rdm,32,111759,0.0-6.24-0.24,0.0,33.0,,,,,,,[],,,,,,56.4,1.0,u,0.0,False,676.5,41.0,60.0,40.0,False,,230.9771258808392,[],"[960, 540]",ColorTask,11.0,25.0,,,HRV,HRV_0013,2022-07-13 15:14:27
,wl-rdm,33,113709,0.0-6.25-0.25,0.0,34.0,,,,,,,[],,,,,,87.9,0.0,u,0.0,True,566.5,34.0,60.0,40.0,False,,304.6791754274413,[],"[960, 540]",ColorTask,12.0,26.0,,,HRV,HRV_0013,2022-07-13 15:14:27
,wl-rdm,34,115659,0.0-6.26-0.26,0.0,35.0,,,,,,,[],,,,,,50.0,0.0,u,0.0,True,581.8999999985099,35.0,60.0,40.0,False,,306.4062024920497,[],"[960, 540]",ColorTask,13.0,27.0,,,HRV,HRV_0013,2022-07-13 15:14:27
,wl-rdm,35,117392,0.0-6.27-0.27,0.0,36.0,,,,,,,[],,,,,,73.6,1.0,i,1.0,True,407.1000000014901,25.0,60.0,40.0,False,,251.12069484703738,[],"[960, 540]",ColorTask,14.0,28.0,,,HRV,HRV_0013,2022-07-13 15:14:27
,wl-rdm,36,119492,0.0-6.28-0.28,0.0,37.0,,,,,,,[],,,,,,62.5,1.0,i,1.0,True,829.2999999970198,50.0,60.0,40.0,False,,204.29593207349586,[],"[960, 540]",ColorTask,15.0,29.0,,,HRV,HRV_0013,2022-07-13 15:14:27
,wl-rdm,37,122209,0.0-6.29-0.29,0.0,38.0,,,,,,,[],,,,,,62.5,1.0,i,1.0,True,1257.300000000745,76.0,60.0,40.0,False,,372.5417533140153,[],"[960, 540]",ColorTask,16.0,30.0,,,HRV,HRV_0013,2022-07-13 15:14:27
,wl-rdm,38,124092,0.0-6.30-0.30,0.0,39.0,,,,,,,[],,,,,,56.4,1.0,u,0.0,False,599.3000000044703,36.0,60.0,40.0,False,,221.45588138370402,[],"[960, 540]",ColorTask,15.0,31.0,,,HRV,HRV_0013,2022-07-13 15:14:27
,wl-rdm,39,125926,0.0-6.31-0.31,0.0,40.0,,,,,,,[],,,,,,56.4,0.0,u,0.0,True,544.8999999985099,33.0,60.0,40.0,False,,228.57631305570763,[],"[960, 540]",ColorTask,16.0,32.0,,,HRV,HRV_0013,2022-07-13 15:14:27
,wl-rdm,40,127742,0.0-6.32-0.32,0.0,41.0,,,,,,,[],,,,,,50.0,1.0,u,0.0,False,422.4000000022352,26.0,60.0,40.0,False,,325.7274295934923,[],"[960, 540]",ColorTask,15.0,33.0,,,HRV,HRV_0013,2022-07-13 15:14:27
,wl-rdm,41,129976,0.0-6.33-0.33,0.0,42.0,,,,,,,[],,,,,,62.5,1.0,i,1.0,True,844.0000000037253,51.0,60.0,40.0,False,,307.8117366879558,[],"[960, 540]",ColorTask,16.0,34.0,,,HRV,HRV_0013,2022-07-13 15:14:27
,wl-rdm,42,132076,0.0-6.34-0.34,0.0,43.0,,,,,,,[],,,,,,50.0,0.0,u,0.0,True,669.8000000044703,41.0,60.0,40.0,False,,344.1032013668221,[],"[960, 540]",ColorTask,17.0,35.0,,,HRV,HRV_0013,2022-07-13 15:14:27
,wl-rdm,43,134026,0.0-6.35-0.35,0.0,44.0,,,,,,,[],,,,,,73.6,0.0,u,0.0,True,535.0000000037253,33.0,60.0,40.0,False,,335.40868006919015,[],"[960, 540]",ColorTask,18.0,36.0,,,HRV,HRV_0013,2022-07-13 15:14:27
,wl-rdm,44,136142,0.0-6.36-0.36,0.0,45.0,,,,,,,[],,,,,,50.0,0.0,u,0.0,True,793.0,48.0,60.0,40.0,False,,249.21473298604096,[],"[960, 540]",ColorTask,19.0,37.0,,,HRV,HRV_0013,2022-07-13 15:14:27
,wl-rdm,45,138059,0.0-6.37-0.37,0.0,46.0,,,,,,,[],,,,,,73.6,0.0,u,0.0,True,569.8999999985099,35.0,60.0,40.0,False,,251.36048652157115,[],"[960, 540]",ColorTask,20.0,38.0,,,HRV,HRV_0013,2022-07-13 15:14:27
,wl-rdm,46,140526,0.0-6.38-0.38,0.0,47.0,,,,,,,[],,,,,,53.2,1.0,u,0.0,False,1005.4000000022352,61.0,60.0,40.0,False,,368.1874047030069,[],"[960, 540]",ColorTask,19.0,39.0,,,HRV,HRV_0013,2022-07-13 15:14:27
,wl-rdm,47,142459,0.0-6.39-0.39,0.0,48.0,,,,,,,[],,,,,,87.9,0.0,i,1.0,False,487.1000000014901,30.0,60.0,40.0,False,,362.64731967693336,[],"[960, 540]",ColorTask,18.0,40.0,,,HRV,HRV_0013,2022-07-13 15:14:27
,wl-rdm,48,144259,0.0-6.40-0.40,0.0,49.0,,,,,,,[],,,,,,53.2,1.0,u,0.0,False,477.8999999985099,29.0,60.0,40.0,False,,259.2841796554152,[],"[960, 540]",ColorTask,17.0,41.0,,,HRV,HRV_0013,2022-07-13 15:14:27
,wl-rdm,49,146792,0.0-6.41-0.41,0.0,50.0,,,,,,,[],,,,,,50.0,1.0,i,1.0,True,1164.7000000029802,70.0,60.0,40.0,False,,308.20329733056485,[],"[960, 540]",ColorTask,18.0,42.0,,,HRV,HRV_0013,2022-07-13 15:14:27
,wl-rdm,50,149458,0.0-6.42-0.42,0.0,51.0,,,,,,,[],,,,,,53.2,0.0,u,0.0,True,1214.5,73.0,60.0,40.0,False,,370.6407421994292,[],"[960, 540]",ColorTask,19.0,43.0,,,HRV,HRV_0013,2022-07-13 15:14:27
,wl-rdm,51,151709,0.0-6.43-0.43,0.0,52.0,,,,,,,[],,,,,,53.2,1.0,u,0.0,False,791.1999999992549,48.0,60.0,40.0,False,,376.2311035744667,[],"[960, 540]",ColorTask,18.0,44.0,,,HRV,HRV_0013,2022-07-13 15:14:27
,wl-rdm,52,154909,0.0-6.44-0.44,0.0,53.0,,,,,,,[],,,,,,50.0,1.0,u,0.0,False,1904.1000000014901,115.0,60.0,40.0,False,,231.3758982838989,[],"[960, 540]",ColorTask,17.0,45.0,,,HRV,HRV_0013,2022-07-13 15:14:27
,wl-rdm,53,156875,0.0-6.45-0.45,0.0,54.0,,,,,,,[],,,,,,53.2,1.0,u,0.0,False,637.5,39.0,60.0,40.0,False,,240.66544650146636,[],"[960, 540]",ColorTask,16.0,46.0,,,HRV,HRV_0013,2022-07-13 15:14:27
,wl-rdm,54,159209,0.0-6.46-0.46,0.0,55.0,,,,,,,[],,,,,,62.5,1.0,i,1.0,True,1066.199999999255,64.0,60.0,40.0,False,,200.54582084227334,[],"[960, 540]",ColorTask,17.0,47.0,,,HRV,HRV_0013,2022-07-13 15:14:27
,wl-rdm,55,161292,0.0-6.47-0.47,0.0,56.0,,,,,,,[],,,,,,73.6,1.0,i,1.0,True,691.7999999970198,42.0,60.0,40.0,False,,314.0376836107134,[],"[960, 540]",ColorTask,18.0,48.0,,,HRV,HRV_0013,2022-07-13 15:14:27
,wl-rdm,56,163409,0.0-6.48-0.48,0.0,57.0,,,,,,,[],,,,,,62.5,0.0,u,0.0,True,751.5000000037253,46.0,60.0,40.0,False,,288.77372096242846,[],"[960, 540]",ColorTask,19.0,49.0,,,HRV,HRV_0013,2022-07-13 15:14:27
,wl-rdm,57,165625,0.0-6.49-0.49,0.0,58.0,,,,,,,[],,,,,,56.4,0.0,u,0.0,True,898.8999999985099,54.0,60.0,40.0,False,,258.37080529871946,[],"[960, 540]",ColorTask,20.0,50.0,,,HRV,HRV_0013,2022-07-13 15:14:27
,wl-rdm,58,167892,0.0-6.50-0.50,0.0,59.0,,,,,,,[],,,,,,56.4,1.0,u,0.0,False,987.6999999992549,60.0,60.0,40.0,False,,200.33666358190544,[],"[960, 540]",ColorTask,19.0,51.0,,,HRV,HRV_0013,2022-07-13 15:14:27
,wl-rdm,59,169959,0.0-6.51-0.51,0.0,60.0,,,,,,,[],,,,,,62.5,0.0,u,0.0,True,783.1999999992549,47.0,60.0,40.0,False,,232.0459013905766,[],"[960, 540]",ColorTask,20.0,52.0,,,HRV,HRV_0013,2022-07-13 15:14:27
,wl-rdm,60,172325,0.0-6.52-0.52,0.0,61.0,,,,,,,[],,,,,,50.0,1.0,u,0.0,False,1056.1000000014901,64.0,60.0,40.0,False,,235.35510875140068,[],"[960, 540]",ColorTask,19.0,53.0,,,HRV,HRV_0013,2022-07-13 15:14:27
,wl-rdm,61,174192,0.0-6.53-0.53,0.0,62.0,,,,,,,[],,,,,,73.6,1.0,i,1.0,True,544.1000000014901,33.0,60.0,40.0,False,,240.2427375686974,[],"[960, 540]",ColorTask,20.0,54.0,,,HRV,HRV_0013,2022-07-13 15:14:27
,wl-rdm,62,176642,0.0-6.54-0.54,0.0,63.0,,,,,,,[],,,,,,50.0,0.0,u,0.0,True,1018.3000000007451,62.0,60.0,40.0,False,,344.293137369695,[],"[960, 540]",ColorTask,21.0,55.0,,,HRV,HRV_0013,2022-07-13 15:14:27
,wl-rdm,63,178592,0.0-6.55-0.55,0.0,64.0,,,,,,,[],,,,,,53.2,0.0,u,0.0,True,660.4000000022352,40.0,60.0,40.0,False,,205.42421120747372,[],"[960, 540]",ColorTask,22.0,56.0,,,HRV,HRV_0013,2022-07-13 15:14:27
,wl-rdm,64,180509,0.0-6.56-0.56,0.0,65.0,,,,,,,[],,,,,,73.6,0.0,u,0.0,True,612.6999999992549,37.0,60.0,40.0,False,,241.6792579888833,[],"[960, 540]",ColorTask,23.0,57.0,,,HRV,HRV_0013,2022-07-13 15:14:27
,wl-rdm,65,182392,0.0-6.57-0.57,0.0,66.0,,,,,,,[],,,,,,56.4,0.0,u,0.0,True,568.5999999977648,35.0,60.0,40.0,False,,222.9315100614587,[],"[960, 540]",ColorTask,24.0,58.0,,,HRV,HRV_0013,2022-07-13 15:14:27
,wl-rdm,66,184759,0.0-6.58-0.58,0.0,67.0,,,,,,,[],,,,,,56.4,0.0,i,1.0,False,986.4000000022352,60.0,60.0,40.0,False,,315.9795699547373,[],"[960, 540]",ColorTask,23.0,59.0,,,HRV,HRV_0013,2022-07-13 15:14:27
,wl-rdm,67,186842,0.0-6.59-0.59,0.0,68.0,,,,,,,[],,,,,,87.9,1.0,i,1.0,True,699.5999999977648,42.0,60.0,40.0,False,,300.8985815676348,[],"[960, 540]",ColorTask,24.0,60.0,,,HRV,HRV_0013,2022-07-13 15:14:27
,wl-rdm,68,189192,0.0-6.60-0.60,0.0,69.0,,,,,,,[],,,,,,53.2,0.0,u,0.0,True,1048.699999999255,63.0,60.0,40.0,False,,242.73579658400695,[],"[960, 540]",ColorTask,25.0,61.0,,,HRV,HRV_0013,2022-07-13 15:14:27
,wl-rdm,69,191759,0.0-6.61-0.61,0.0,70.0,,,,,,,[],,,,,,50.0,1.0,u,0.0,False,1162.699999999255,70.0,60.0,40.0,False,,332.6786485309872,[],"[960, 540]",ColorTask,24.0,62.0,,,HRV,HRV_0013,2022-07-13 15:14:27
,wl-rdm,70,193908,0.0-6.62-0.62,0.0,71.0,,,,,,,[],,,,,,62.5,0.0,i,1.0,False,797.2000000029802,48.0,60.0,40.0,False,,281.4154595661455,[],"[960, 540]",ColorTask,23.0,63.0,,,HRV,HRV_0013,2022-07-13 15:14:27
,wl-rdm,71,196392,0.0-6.63-0.63,0.0,72.0,,,,,,,[],,,,,,53.2,0.0,u,0.0,True,1058.2000000029802,64.0,60.0,40.0,False,,335.137373415661,[],"[960, 540]",ColorTask,24.0,64.0,,,HRV,HRV_0013,2022-07-13 15:14:27
,wl-rdm,72,198592,0.0-6.64-0.64,0.0,73.0,,,,,,,[],,,,,,87.9,0.0,u,0.0,True,801.0,49.0,60.0,40.0,False,,309.7454919180552,[],"[960, 540]",ColorTask,25.0,65.0,,,HRV,HRV_0013,2022-07-13 15:14:27
,wl-rdm,73,201609,0.0-6.65-0.65,0.0,74.0,,,,,,,[],,,,,,53.2,1.0,i,1.0,True,1737.3999999985099,105.0,60.0,40.0,False,,208.26139156603443,[],"[960, 540]",ColorTask,26.0,66.0,,,HRV,HRV_0013,2022-07-13 15:14:27
,wl-rdm,74,203859,0.0-6.66-0.66,0.0,75.0,,,,,,,[],,,,,,87.9,0.0,u,0.0,True,784.8999999985099,48.0,60.0,40.0,False,,378.6864344412358,[],"[960, 540]",ColorTask,27.0,67.0,,,HRV,HRV_0013,2022-07-13 15:14:27
,wl-rdm,75,205826,0.0-6.67-0.67,0.0,76.0,,,,,,,[],,,,,,73.6,0.0,u,0.0,True,562.1999999992549,34.0,60.0,40.0,False,,325.22764032961476,[],"[960, 540]",ColorTask,28.0,68.0,,,HRV,HRV_0013,2022-07-13 15:14:27
,wl-rdm,76,208592,0.0-6.68-0.68,0.0,77.0,,,,,,,[],,,,,,56.4,1.0,u,0.0,False,1363.699999999255,82.0,60.0,40.0,False,,325.9499445236851,[],"[960, 540]",ColorTask,27.0,69.0,,,HRV,HRV_0013,2022-07-13 15:14:27
,wl-rdm,77,211059,0.0-6.69-0.69,0.0,78.0,,,,,,,[],,,,,,56.4,0.0,u,0.0,True,1187.4000000022352,72.0,60.0,40.0,False,,211.99577883388022,[],"[960, 540]",ColorTask,28.0,70.0,,,HRV,HRV_0013,2022-07-13 15:14:27
,wl-rdm,78,213275,0.0-6.70-0.70,0.0,79.0,,,,,,,[],,,,,,53.2,1.0,u,0.0,False,871.0,53.0,60.0,40.0,False,,260.71065434851334,[],"[960, 540]",ColorTask,27.0,71.0,,,HRV,HRV_0013,2022-07-13 15:14:27
,wl-rdm,79,215375,0.0-6.71-0.71,0.0,80.0,,,,,,,[],,,,,,87.9,1.0,i,1.0,True,652.6000000014901,40.0,60.0,40.0,False,,370.19930061900516,[],"[960, 540]",ColorTask,28.0,72.0,,,HRV,HRV_0013,2022-07-13 15:14:27
,wl-rdm,80,217592,0.0-6.72-0.72,0.0,81.0,,,,,,,[],,,,,,50.0,1.0,u,0.0,False,882.8000000007451,53.0,60.0,40.0,False,,254.65151020612478,[],"[960, 540]",ColorTask,27.0,73.0,,,HRV,HRV_0013,2022-07-13 15:14:27
,wl-rdm,81,220692,0.0-6.73-0.73,0.0,82.0,,,,,,,[],,,,,,62.5,0.0,u,0.0,True,1681.699999999255,101.0,60.0,40.0,False,,360.49809247713563,[],"[960, 540]",ColorTask,28.0,74.0,,,HRV,HRV_0013,2022-07-13 15:14:27
,wl-rdm,82,222892,0.0-6.74-0.74,0.0,83.0,,,,,,,[],,,,,,56.4,0.0,u,0.0,True,758.5999999977648,46.0,60.0,40.0,False,,374.6816594355075,[],"[960, 540]",ColorTask,29.0,75.0,,,HRV,HRV_0013,2022-07-13 15:14:27
,wl-rdm,83,225992,0.0-6.75-0.75,0.0,84.0,,,,,,,[],,,,,,56.4,1.0,u,0.0,False,1690.6000000014901,102.0,60.0,40.0,False,,345.43045303668106,[],"[960, 540]",ColorTask,28.0,76.0,,,HRV,HRV_0013,2022-07-13 15:14:27
,wl-rdm,84,228125,0.0-6.76-0.76,0.0,85.0,,,,,,,[],,,,,,50.0,0.0,i,1.0,False,836.2000000029802,51.0,60.0,40.0,False,,216.81541992773555,[],"[960, 540]",ColorTask,27.0,77.0,,,HRV,HRV_0013,2022-07-13 15:14:27
,wl-rdm,85,230375,0.0-6.77-0.77,0.0,86.0,,,,,,,[],,,,,,50.0,0.0,i,1.0,False,932.1999999992549,56.0,60.0,40.0,False,,264.29137968492756,[],"[960, 540]",ColorTask,26.0,78.0,,,HRV,HRV_0013,2022-07-13 15:14:27
,wl-rdm,86,232275,0.0-6.78-0.78,0.0,87.0,,,,,,,[],,,,,,87.9,0.0,u,0.0,True,562.6999999955297,34.0,60.0,40.0,False,,278.52101951363414,[],"[960, 540]",ColorTask,27.0,79.0,,,HRV,HRV_0013,2022-07-13 15:14:27
,wl-rdm,87,234259,0.0-6.79-0.79,0.0,88.0,,,,,,,[],,,,,,53.2,1.0,u,0.0,False,556.6999999992549,34.0,60.0,40.0,False,,333.6987602186276,[],"[960, 540]",ColorTask,26.0,80.0,,,HRV,HRV_0013,2022-07-13 15:14:27
,wl-rdm,88,236242,0.0-6.80-0.80,0.0,89.0,,,,,,,[],,,,,,73.6,0.0,i,1.0,False,597.6999999992549,36.0,60.0,40.0,False,,327.0298292338723,[],"[960, 540]",ColorTask,25.0,81.0,,,HRV,HRV_0013,2022-07-13 15:14:27
,wl-rdm,89,238109,0.0-6.81-0.81,0.0,90.0,,,,,,,[],,,,,,87.9,1.0,i,1.0,True,472.5,29.0,60.0,40.0,False,,315.44744391509255,[],"[960, 540]",ColorTask,26.0,82.0,,,HRV,HRV_0013,2022-07-13 15:14:27
,wl-rdm,90,241242,0.0-6.82-0.82,0.0,91.0,,,,,,,[],,,,,,53.2,0.0,u,0.0,True,1811.9000000022352,109.0,60.0,40.0,False,,252.462643968416,[],"[960, 540]",ColorTask,27.0,83.0,,,HRV,HRV_0013,2022-07-13 15:14:27
,wl-rdm,91,243392,0.0-6.83-0.83,0.0,92.0,,,,,,,[],,,,,,62.5,0.0,u,0.0,True,827.0000000037253,50.0,60.0,40.0,False,,241.52848756815547,[],"[960, 540]",ColorTask,28.0,84.0,,,HRV,HRV_0013,2022-07-13 15:14:27
,wl-rdm,92,245492,0.0-6.84-0.84,0.0,93.0,,,,,,,[],,,,,,87.9,0.0,i,1.0,False,778.8999999985099,47.0,60.0,40.0,False,,247.0842271481376,[],"[960, 540]",ColorTask,27.0,85.0,,,HRV,HRV_0013,2022-07-13 15:14:27
,wl-rdm,93,247642,0.0-6.85-0.85,0.0,94.0,,,,,,,[],,,,,,73.6,1.0,i,1.0,True,856.3000000007451,52.0,60.0,40.0,False,,211.93618103978147,[],"[960, 540]",ColorTask,28.0,86.0,,,HRV,HRV_0013,2022-07-13 15:14:27
,wl-rdm,94,249609,0.0-6.86-0.86,0.0,95.0,,,,,,,[],,,,,,87.9,1.0,i,1.0,True,586.0,36.0,60.0,40.0,False,,297.1406535762945,[],"[960, 540]",ColorTask,29.0,87.0,,,HRV,HRV_0013,2022-07-13 15:14:27
,wl-rdm,95,251676,0.0-6.87-0.87,0.0,96.0,,,,,,,[],,,,,,62.5,0.0,u,0.0,True,603.3999999985099,37.0,60.0,40.0,False,,398.73789531690375,[],"[960, 540]",ColorTask,30.0,88.0,,,HRV,HRV_0013,2022-07-13 15:14:27
,wl-rdm,96,253725,0.0-6.88-0.88,0.0,97.0,,,,,,,[],,,,,,50.0,0.0,u,0.0,True,586.5999999977648,36.0,60.0,40.0,False,,382.0340923325073,[],"[960, 540]",ColorTask,31.0,89.0,,,HRV,HRV_0013,2022-07-13 15:14:27
,wl-rdm,97,256175,0.0-6.89-0.89,0.0,98.0,,,,,,,[],,,,,,53.2,1.0,i,1.0,True,1018.3000000007451,62.0,60.0,40.0,False,,348.97652510549796,[],"[960, 540]",ColorTask,32.0,90.0,,,HRV,HRV_0013,2022-07-13 15:14:27
,wl-rdm,98,258092,0.0-6.90-0.90,0.0,99.0,,,,,,,[],,,,,,73.6,1.0,i,1.0,True,636.8999999985099,39.0,60.0,40.0,False,,205.36781080302563,[],"[960, 540]",ColorTask,33.0,91.0,,,HRV,HRV_0013,2022-07-13 15:14:27
,wl-rdm,99,260409,0.0-6.91-0.91,0.0,100.0,,,,,,,[],,,,,,62.5,1.0,i,1.0,True,1030.1999999955297,62.0,60.0,40.0,False,,204.066729360824,[],"[960, 540]",ColorTask,34.0,92.0,,,HRV,HRV_0013,2022-07-13 15:14:27
,wl-rdm,100,262475,0.0-6.92-0.92,0.0,101.0,,,,,,,[],,,,,,73.6,0.0,u,0.0,True,625.5999999977648,38.0,60.0,40.0,False,,354.92062626011614,[],"[960, 540]",ColorTask,35.0,93.0,,,HRV,HRV_0013,2022-07-13 15:14:27
,wl-rdm,101,264409,0.0-6.93-0.93,0.0,102.0,,,,,,,[],,,,,,87.9,1.0,i,1.0,True,485.6000000014901,30.0,60.0,40.0,False,,355.116725484698,[],"[960, 540]",ColorTask,36.0,94.0,,,HRV,HRV_0013,2022-07-13 15:14:27
,wl-rdm,102,266225,0.0-6.94-0.94,0.0,103.0,,,,,,,[],,,,,,62.5,0.0,i,1.0,False,452.1000000014901,28.0,60.0,40.0,False,,287.4480448273192,[],"[960, 540]",ColorTask,35.0,95.0,,,HRV,HRV_0013,2022-07-13 15:14:27
,wl-rdm,103,268459,0.0-6.95-0.95,0.0,104.0,,,,,,,[],,,,,,53.2,0.0,u,0.0,True,898.2000000029802,54.0,60.0,40.0,False,,262.0889413833288,[],"[960, 540]",ColorTask,36.0,96.0,,,HRV,HRV_0013,2022-07-13 15:14:27
,wl-rdm,104,270559,0.0-6.96-0.96,0.0,105.0,,,,,,,[],,,,,,56.4,0.0,u,0.0,True,795.1000000014901,48.0,60.0,40.0,False,,233.50924578143045,[],"[960, 540]",ColorTask,37.0,97.0,,,HRV,HRV_0013,2022-07-13 15:14:27
,wl-rdm,105,273109,0.0-6.97-0.97,0.0,106.0,,,,,,,[],,,,,,62.5,1.0,i,1.0,True,1204.800000000745,73.0,60.0,40.0,False,,280.8224596804317,[],"[960, 540]",ColorTask,38.0,98.0,,,HRV,HRV_0013,2022-07-13 15:14:27
,wl-rdm,106,275159,0.0-6.98-0.98,0.0,107.0,,,,,,,[],,,,,,62.5,1.0,i,1.0,True,752.6999999992549,46.0,60.0,40.0,False,,211.9670400620053,[],"[960, 540]",ColorTask,39.0,99.0,,,HRV,HRV_0013,2022-07-13 15:14:27
,wl-rdm,107,277092,0.0-6.99-0.99,0.0,108.0,,,,,,,[],,,,,,73.6,1.0,i,1.0,True,602.2999999970198,37.0,60.0,40.0,False,,261.6453396689642,[],"[960, 540]",ColorTask,40.0,100.0,,,HRV,HRV_0013,2022-07-13 15:14:27
,wl-rdm,108,279109,0.0-6.100-0.100,0.0,109.0,,,,,,,[],,,,,,56.4,0.0,u,0.0,True,726.6000000014901,44.0,60.0,40.0,False,,209.17443978469973,[],"[960, 540]",ColorTask,41.0,101.0,,,HRV,HRV_0013,2022-07-13 15:14:27
,wl-rdm,109,281025,0.0-6.101-0.101,0.0,110.0,,,,,,,[],,,,,,62.5,1.0,i,1.0,True,472.5,29.0,60.0,40.0,False,,365.39338507314756,[],"[960, 540]",ColorTask,42.0,102.0,,,HRV,HRV_0013,2022-07-13 15:14:27
,wl-rdm,110,283109,0.0-6.102-0.102,0.0,111.0,,,,,,,[],,,,,,87.9,1.0,i,1.0,True,652.8999999985099,40.0,60.0,40.0,False,,352.4333126134776,[],"[960, 540]",ColorTask,43.0,103.0,,,HRV,HRV_0013,2022-07-13 15:14:27
,wl-rdm,111,285526,0.0-6.103-0.103,0.0,112.0,,,,,,,[],,,,,,53.2,1.0,u,0.0,False,1107.4000000022352,67.0,60.0,40.0,False,,242.40398155289552,[],"[960, 540]",ColorTask,42.0,104.0,,,HRV,HRV_0013,2022-07-13 15:14:27
,wl-rdm,112,287375,0.0-6.104-0.104,0.0,113.0,,,,,,,[],,,,,,50.0,1.0,i,1.0,True,542.0,33.0,60.0,40.0,False,,239.63784732891335,[],"[960, 540]",ColorTask,43.0,105.0,,,HRV,HRV_0013,2022-07-13 15:14:27
,wl-rdm,113,289475,0.0-6.105-0.105,0.0,114.0,,,,,,,[],,,,,,73.6,0.0,u,0.0,True,798.6999999955297,48.0,60.0,40.0,False,,247.0785954827865,[],"[960, 540]",ColorTask,44.0,106.0,,,HRV,HRV_0013,2022-07-13 15:14:27
,wl-rdm,114,291559,0.0-6.106-0.106,0.0,115.0,,,,,,,[],,,,,,50.0,0.0,u,0.0,True,806.5999999977648,49.0,60.0,40.0,False,,211.892498805793,[],"[960, 540]",ColorTask,45.0,107.0,,,HRV,HRV_0013,2022-07-13 15:14:27
,wl-rdm,115,293725,0.0-6.107-0.107,0.0,116.0,,,,,,,[],,,,,,56.4,1.0,i,1.0,True,772.6999999992549,47.0,60.0,40.0,False,,308.4341374284746,[],"[960, 540]",ColorTask,46.0,108.0,,,HRV,HRV_0013,2022-07-13 15:14:27
,wl-html-keyboard-response,116,361778,0.0-7.0-0.0,1.0,117.0,,,,,,,,66047.30000000075,1.0,0,,,,,,,,,,,,,,,,,,,,,,HRV,HRV_0013,2022-07-13 15:14:27
,wl-rdm,117,364115,0.0-8.0-0.0,1.0,118.0,,,,,,,[],,,,,,62.5,1.0,i,1.0,True,901.8000000007451,55.0,60.0,40.0,False,,350.1180895604206,[],"[960, 540]",ColorTask,47.0,1.0,,,HRV,HRV_0013,2022-07-13 15:14:27
,wl-rdm,118,366249,0.0-8.1-0.1,1.0,119.0,,,,,,,[],,,,,,56.4,1.0,u,0.0,False,830.3999999985099,50.0,60.0,40.0,False,,222.75662677185366,[],"[960, 540]",ColorTask,46.0,2.0,,,HRV,HRV_0013,2022-07-13 15:14:27
,wl-rdm,119,368182,0.0-8.2-0.2,1.0,120.0,,,,,,,[],,,,,,62.5,1.0,i,1.0,True,577.1000000014901,35.0,60.0,40.0,False,,282.91805397885656,[],"[960, 540]",ColorTask,47.0,3.0,,,HRV,HRV_0013,2022-07-13 15:14:27
,wl-rdm,120,370149,0.0-8.3-0.3,1.0,121.0,,,,,,,[],,,,,,62.5,1.0,u,0.0,False,515.0,31.0,60.0,40.0,False,,398.3228591348975,[],"[960, 540]",ColorTask,46.0,4.0,,,HRV,HRV_0013,2022-07-13 15:14:27
,wl-rdm,121,372182,0.0-8.4-0.4,1.0,122.0,,,,,,,[],,,,,,62.5,0.0,u,0.0,True,718.3999999985099,44.0,60.0,40.0,False,,243.93622591526855,[],"[960, 540]",ColorTask,47.0,5.0,,,HRV,HRV_0013,2022-07-13 15:14:27
,wl-rdm,122,374249,0.0-8.5-0.5,1.0,123.0,,,,,,,[],,,,,,73.6,0.0,u,0.0,True,769.1000000014901,47.0,60.0,40.0,False,,224.87255311027596,[],"[960, 540]",ColorTask,48.0,6.0,,,HRV,HRV_0013,2022-07-13 15:14:27
,wl-rdm,123,376582,0.0-8.6-0.6,1.0,124.0,,,,,,,[],,,,,,73.6,1.0,u,0.0,False,1003.4000000022352,61.0,60.0,40.0,False,,243.83531788279902,[],"[960, 540]",ColorTask,47.0,7.0,,,HRV,HRV_0013,2022-07-13 15:14:27
,wl-rdm,124,378849,0.0-8.7-0.7,1.0,125.0,,,,,,,[],,,,,,50.0,0.0,u,0.0,True,853.9000000022352,52.0,60.0,40.0,False,,328.0818789554744,[],"[960, 540]",ColorTask,48.0,8.0,,,HRV,HRV_0013,2022-07-13 15:14:27
,wl-rdm,125,381015,0.0-8.8-0.8,1.0,126.0,,,,,,,[],,,,,,73.6,1.0,i,1.0,True,723.3000000007451,44.0,60.0,40.0,False,,362.8968763835197,[],"[960, 540]",ColorTask,49.0,9.0,,,HRV,HRV_0013,2022-07-13 15:14:27
,wl-rdm,126,383082,0.0-8.9-0.9,1.0,127.0,,,,,,,[],,,,,,87.9,0.0,u,0.0,True,651.5000000037253,40.0,60.0,40.0,False,,331.30608009081516,[],"[960, 540]",ColorTask,50.0,10.0,,,HRV,HRV_0013,2022-07-13 15:14:27
,wl-rdm,127,385082,0.0-8.10-0.10,1.0,128.0,,,,,,,[],,,,,,73.6,1.0,i,1.0,True,547.0,33.0,60.0,40.0,False,,393.57593650865874,[],"[960, 540]",ColorTask,51.0,11.0,,,HRV,HRV_0013,2022-07-13 15:14:27
,wl-rdm,128,387049,0.0-8.11-0.11,1.0,129.0,,,,,,,[],,,,,,87.9,1.0,u,0.0,False,686.9000000022352,42.0,60.0,40.0,False,,202.7453314178049,[],"[960, 540]",ColorTask,50.0,12.0,,,HRV,HRV_0013,2022-07-13 15:14:27
,wl-rdm,129,389132,0.0-8.12-0.12,1.0,130.0,,,,,,,[],,,,,,53.2,1.0,u,0.0,False,718.9000000022352,44.0,60.0,40.0,False,,269.11045838643395,[],"[960, 540]",ColorTask,49.0,13.0,,,HRV,HRV_0013,2022-07-13 15:14:27
,wl-rdm,130,391199,0.0-8.13-0.13,1.0,131.0,,,,,,,[],,,,,,53.2,0.0,u,0.0,True,652.3000000007451,40.0,60.0,40.0,False,,333.2702735800124,[],"[960, 540]",ColorTask,50.0,14.0,,,HRV,HRV_0013,2022-07-13 15:14:27
,wl-rdm,131,393382,0.0-8.14-0.14,1.0,132.0,,,,,,,[],,,,,,62.5,0.0,u,0.0,True,734.3000000007451,45.0,60.0,40.0,False,,354.9335866875815,[],"[960, 540]",ColorTask,51.0,15.0,,,HRV,HRV_0013,2022-07-13 15:14:27
,wl-rdm,132,395265,0.0-8.15-0.15,1.0,133.0,,,,,,,[],,,,,,87.9,0.0,u,0.0,True,586.6999999992549,36.0,60.0,40.0,False,,223.2588677618526,[],"[960, 540]",ColorTask,52.0,16.0,,,HRV,HRV_0013,2022-07-13 15:14:27
,wl-rdm,133,397749,0.0-8.16-0.16,1.0,134.0,,,,,,,[],,,,,,56.4,1.0,u,0.0,False,1204.3999999985099,73.0,60.0,40.0,False,,210.41162065258996,[],"[960, 540]",ColorTask,51.0,17.0,,,HRV,HRV_0013,2022-07-13 15:14:27
,wl-rdm,134,399782,0.0-8.17-0.17,1.0,135.0,,,,,,,[],,,,,,87.9,0.0,u,0.0,True,756.7000000029802,46.0,60.0,40.0,False,,208.8417488326848,[],"[960, 540]",ColorTask,52.0,18.0,,,HRV,HRV_0013,2022-07-13 15:14:27
,wl-rdm,135,401732,0.0-8.18-0.18,1.0,136.0,,,,,,,[],,,,,,62.5,1.0,i,1.0,True,600.1000000014901,36.0,60.0,40.0,False,,273.4087110373792,[],"[960, 540]",ColorTask,53.0,19.0,,,HRV,HRV_0013,2022-07-13 15:14:27
,wl-rdm,136,404099,0.0-8.19-0.19,1.0,137.0,,,,,,,[],,,,,,53.2,1.0,u,0.0,False,1062.5,64.0,60.0,40.0,False,,232.07395122591254,[],"[960, 540]",ColorTask,52.0,20.0,,,HRV,HRV_0013,2022-07-13 15:14:27
,wl-rdm,137,406465,0.0-8.20-0.20,1.0,138.0,,,,,,,[],,,,,,53.2,1.0,i,1.0,True,894.5999999977648,54.0,60.0,40.0,False,,399.4243815063264,[],"[960, 540]",ColorTask,53.0,21.0,,,HRV,HRV_0013,2022-07-13 15:14:27
,wl-rdm,138,408649,0.0-8.21-0.21,1.0,139.0,,,,,,,[],,,,,,53.2,1.0,i,1.0,True,911.2999999970198,55.0,60.0,40.0,False,,211.80262169240225,[],"[960, 540]",ColorTask,54.0,22.0,,,HRV,HRV_0013,2022-07-13 15:14:27
,wl-rdm,139,410630,0.0-8.22-0.22,1.0,140.0,,,,,,,[],,,,,,62.5,1.0,i,1.0,True,494.3999999985099,30.0,60.0,40.0,False,,394.0207243637072,[],"[960, 540]",ColorTask,55.0,23.0,,,HRV,HRV_0013,2022-07-13 15:14:27
,wl-rdm,140,413465,0.0-8.23-0.23,1.0,141.0,,,,,,,[],,,,,,50.0,1.0,i,1.0,True,1379.7000000029802,83.0,60.0,40.0,False,,371.7049151098395,[],"[960, 540]",ColorTask,56.0,24.0,,,HRV,HRV_0013,2022-07-13 15:14:27
,wl-rdm,141,415765,0.0-8.24-0.24,1.0,142.0,,,,,,,[],,,,,,56.4,1.0,i,1.0,True,1016.2000000029802,61.0,60.0,40.0,False,,232.43725230378814,[],"[960, 540]",ColorTask,57.0,25.0,,,HRV,HRV_0013,2022-07-13 15:14:27
,wl-rdm,142,418282,0.0-8.25-0.25,1.0,143.0,,,,,,,[],,,,,,53.2,0.0,u,0.0,True,1222.5,74.0,60.0,40.0,False,,214.370653278731,[],"[960, 540]",ColorTask,58.0,26.0,,,HRV,HRV_0013,2022-07-13 15:14:27
,wl-rdm,143,420532,0.0-8.26-0.26,1.0,144.0,,,,,,,[],,,,,,56.4,0.0,i,1.0,False,910.9000000022352,55.0,60.0,40.0,False,,280.6563581393746,[],"[960, 540]",ColorTask,57.0,27.0,,,HRV,HRV_0013,2022-07-13 15:14:27
,wl-rdm,144,422766,0.0-8.27-0.27,1.0,145.0,,,,,,,[],,,,,,87.9,1.0,i,1.0,True,782.8999999985099,47.0,60.0,40.0,False,,394.2957414332667,[],"[960, 540]",ColorTask,58.0,28.0,,,HRV,HRV_0013,2022-07-13 15:14:27
,wl-rdm,145,424982,0.0-8.28-0.28,1.0,146.0,,,,,,,[],,,,,,87.9,1.0,i,1.0,True,773.1999999992549,47.0,60.0,40.0,False,,375.4246053780948,[],"[960, 540]",ColorTask,59.0,29.0,,,HRV,HRV_0013,2022-07-13 15:14:27
,wl-rdm,146,427682,0.0-8.29-0.29,1.0,147.0,,,,,,,[],,,,,,53.2,0.0,u,0.0,True,1401.6000000014901,85.0,60.0,40.0,False,,208.6742434793113,[],"[960, 540]",ColorTask,60.0,30.0,,,HRV,HRV_0013,2022-07-13 15:14:27
,wl-rdm,147,429665,0.0-8.30-0.30,1.0,148.0,,,,,,,[],,,,,,73.6,0.0,u,0.0,True,694.6999999992549,42.0,60.0,40.0,False,,228.53840389720062,[],"[960, 540]",ColorTask,61.0,31.0,,,HRV,HRV_0013,2022-07-13 15:14:27
,wl-rdm,148,432432,0.0-8.31-0.31,1.0,149.0,,,,,,,[],,,,,,62.5,1.0,i,1.0,True,1387.9999999962747,84.0,60.0,40.0,False,,300.8519656116831,[],"[960, 540]",ColorTask,62.0,32.0,,,HRV,HRV_0013,2022-07-13 15:14:27
,wl-rdm,149,434799,0.0-8.32-0.32,1.0,150.0,,,,,,,[],,,,,,87.9,1.0,i,1.0,True,1024.2999999970198,62.0,60.0,40.0,False,,259.46701241472704,[],"[960, 540]",ColorTask,63.0,33.0,,,HRV,HRV_0013,2022-07-13 15:14:27
,wl-rdm,150,436982,0.0-8.33-0.33,1.0,151.0,,,,,,,[],,,,,,50.0,0.0,u,0.0,True,717.8000000007451,44.0,60.0,40.0,False,,369.96587427462134,[],"[960, 540]",ColorTask,64.0,34.0,,,HRV,HRV_0013,2022-07-13 15:14:27
,wl-rdm,151,439582,0.0-8.34-0.34,1.0,152.0,,,,,,,[],,,,,,53.2,0.0,u,0.0,True,1172.0,71.0,60.0,40.0,False,,355.98308841952996,[],"[960, 540]",ColorTask,65.0,35.0,,,HRV,HRV_0013,2022-07-13 15:14:27
,wl-rdm,152,442165,0.0-8.35-0.35,1.0,153.0,,,,,,,[],,,,,,56.4,0.0,u,0.0,True,1226.8999999985099,74.0,60.0,40.0,False,,275.30577659751714,[],"[960, 540]",ColorTask,66.0,36.0,,,HRV,HRV_0013,2022-07-13 15:14:27
,wl-rdm,153,444782,0.0-8.36-0.36,1.0,154.0,,,,,,,[],,,,,,53.2,0.0,u,0.0,True,1284.800000000745,78.0,60.0,40.0,False,,262.2503870650751,[],"[960, 540]",ColorTask,67.0,37.0,,,HRV,HRV_0013,2022-07-13 15:14:27
,wl-rdm,154,446915,0.0-8.37-0.37,1.0,155.0,,,,,,,[],,,,,,73.6,1.0,i,1.0,True,787.1999999992549,48.0,60.0,40.0,False,,258.16301426641644,[],"[960, 540]",ColorTask,68.0,38.0,,,HRV,HRV_0013,2022-07-13 15:14:27
,wl-rdm,155,448932,0.0-8.38-0.38,1.0,156.0,,,,,,,[],,,,,,73.6,1.0,i,1.0,True,653.0,40.0,60.0,40.0,False,,281.663097445075,[],"[960, 540]",ColorTask,69.0,39.0,,,HRV,HRV_0013,2022-07-13 15:14:27
,wl-rdm,156,450966,0.0-8.39-0.39,1.0,157.0,,,,,,,[],,,,,,87.9,0.0,i,1.0,False,582.4000000022352,35.0,60.0,40.0,False,,393.35851607829636,[],"[960, 540]",ColorTask,68.0,40.0,,,HRV,HRV_0013,2022-07-13 15:14:27
,wl-rdm,157,453216,0.0-8.40-0.40,1.0,158.0,,,,,,,[],,,,,,53.2,1.0,u,0.0,False,871.3999999985099,53.0,60.0,40.0,False,,288.6316748743101,[],"[960, 540]",ColorTask,67.0,41.0,,,HRV,HRV_0013,2022-07-13 15:14:27
,wl-rdm,158,455366,0.0-8.41-0.41,1.0,159.0,,,,,,,[],,,,,,73.6,0.0,u,0.0,True,827.0,50.0,60.0,40.0,False,,236.64108569656122,[],"[960, 540]",ColorTask,68.0,42.0,,,HRV,HRV_0013,2022-07-13 15:14:27
,wl-rdm,159,457566,0.0-8.42-0.42,1.0,160.0,,,,,,,[],,,,,,73.6,1.0,i,1.0,True,899.3000000044703,54.0,60.0,40.0,False,,239.1364797516339,[],"[960, 540]",ColorTask,69.0,43.0,,,HRV,HRV_0013,2022-07-13 15:14:27
,wl-rdm,160,459699,0.0-8.43-0.43,1.0,161.0,,,,,,,[],,,,,,50.0,1.0,u,0.0,False,804.4999999962747,49.0,60.0,40.0,False,,247.51188993090503,[],"[960, 540]",ColorTask,68.0,44.0,,,HRV,HRV_0013,2022-07-13 15:14:27
,wl-rdm,161,461716,0.0-8.44-0.44,1.0,162.0,,,,,,,[],,,,,,56.4,0.0,u,0.0,True,731.6999999992549,44.0,60.0,40.0,False,,226.58460558975642,[],"[960, 540]",ColorTask,69.0,45.0,,,HRV,HRV_0013,2022-07-13 15:14:27
,wl-rdm,162,463599,0.0-8.45-0.45,1.0,163.0,,,,,,,[],,,,,,53.2,1.0,u,0.0,False,544.8000000007451,33.0,60.0,40.0,False,,255.48176742046314,[],"[960, 540]",ColorTask,68.0,46.0,,,HRV,HRV_0013,2022-07-13 15:14:27
,wl-rdm,163,465516,0.0-8.46-0.46,1.0,164.0,,,,,,,[],,,,,,87.9,0.0,u,0.0,True,639.8999999985099,39.0,60.0,40.0,False,,200.06752000876187,[],"[960, 540]",ColorTask,69.0,47.0,,,HRV,HRV_0013,2022-07-13 15:14:27
,wl-rdm,164,467649,0.0-8.47-0.47,1.0,165.0,,,,,,,[],,,,,,56.4,1.0,i,1.0,True,660.6999999992549,40.0,60.0,40.0,False,,394.72646488938847,[],"[960, 540]",ColorTask,70.0,48.0,,,HRV,HRV_0013,2022-07-13 15:14:27
,wl-rdm,165,469649,0.0-8.48-0.48,1.0,166.0,,,,,,,[],,,,,,87.9,0.0,u,0.0,True,674.6000000014901,41.0,60.0,40.0,False,,238.15871104528006,[],"[960, 540]",ColorTask,71.0,49.0,,,HRV,HRV_0013,2022-07-13 15:14:27
,wl-rdm,166,471749,0.0-8.49-0.49,1.0,167.0,,,,,,,[],,,,,,53.2,1.0,u,0.0,False,794.7000000029802,48.0,60.0,40.0,False,,235.4404726250698,[],"[960, 540]",ColorTask,70.0,50.0,,,HRV,HRV_0013,2022-07-13 15:14:27
,wl-rdm,167,473716,0.0-8.50-0.50,1.0,168.0,,,,,,,[],,,,,,73.6,1.0,i,1.0,True,543.4000000022352,33.0,60.0,40.0,False,,337.1058393572593,[],"[960, 540]",ColorTask,71.0,51.0,,,HRV,HRV_0013,2022-07-13 15:14:27
,wl-rdm,168,476015,0.0-8.51-0.51,1.0,169.0,,,,,,,[],,,,,,56.4,1.0,i,1.0,True,866.3000000007451,52.0,60.0,40.0,False,,380.4842856473747,[],"[960, 540]",ColorTask,72.0,52.0,,,HRV,HRV_0013,2022-07-13 15:14:27
,wl-rdm,169,478065,0.0-8.52-0.52,1.0,170.0,,,,,,,[],,,,,,87.9,1.0,i,1.0,True,663.5000000037253,40.0,60.0,40.0,False,,310.09578518798685,[],"[960, 540]",ColorTask,73.0,53.0,,,HRV,HRV_0013,2022-07-13 15:14:27
,wl-rdm,170,481416,0.0-8.53-0.53,1.0,171.0,,,,,,,[],,,,,,62.5,0.0,u,0.0,True,1916.0,115.0,60.0,40.0,False,,380.18192851772324,[],"[960, 540]",ColorTask,74.0,54.0,,,HRV,HRV_0013,2022-07-13 15:14:27
,wl-rdm,171,483482,0.0-8.54-0.54,1.0,172.0,,,,,,,[],,,,,,62.5,0.0,u,0.0,True,776.2999999970198,47.0,60.0,40.0,False,,217.8059631144887,[],"[960, 540]",ColorTask,75.0,55.0,,,HRV,HRV_0013,2022-07-13 15:14:27
,wl-rdm,172,485699,0.0-8.55-0.55,1.0,173.0,,,,,,,[],,,,,,50.0,1.0,i,1.0,True,897.6000000014901,54.0,60.0,40.0,False,,233.14031622334014,[],"[960, 540]",ColorTask,76.0,56.0,,,HRV,HRV_0013,2022-07-13 15:14:27
,wl-rdm,173,487932,0.0-8.56-0.56,1.0,174.0,,,,,,,[],,,,,,73.6,0.0,u,0.0,True,773.0000000037253,47.0,60.0,40.0,False,,395.7366266050337,[],"[960, 540]",ColorTask,77.0,57.0,,,HRV,HRV_0013,2022-07-13 15:14:27
,wl-rdm,174,489982,0.0-8.57-0.57,1.0,175.0,,,,,,,[],,,,,,73.6,0.0,u,0.0,True,735.8999999985099,45.0,60.0,40.0,False,,229.79109305841152,[],"[960, 540]",ColorTask,78.0,58.0,,,HRV,HRV_0013,2022-07-13 15:14:27
,wl-rdm,175,493049,0.0-8.58-0.58,1.0,176.0,,,,,,,[],,,,,,56.4,0.0,u,0.0,True,1639.699999999255,99.0,60.0,40.0,False,,338.0137653337868,[],"[960, 540]",ColorTask,79.0,59.0,,,HRV,HRV_0013,2022-07-13 15:14:27
,wl-rdm,176,495132,0.0-8.59-0.59,1.0,177.0,,,,,,,[],,,,,,50.0,1.0,u,0.0,False,760.3999999947846,46.0,60.0,40.0,False,,239.59875826934422,[],"[960, 540]",ColorTask,78.0,60.0,,,HRV,HRV_0013,2022-07-13 15:14:27
,wl-rdm,177,497565,0.0-8.60-0.60,1.0,178.0,,,,,,,[],,,,,,56.4,1.0,i,1.0,True,1019.8000000007451,62.0,60.0,40.0,False,,333.46661456482445,[],"[960, 540]",ColorTask,79.0,61.0,,,HRV,HRV_0013,2022-07-13 15:14:27
,wl-rdm,178,500099,0.0-8.61-0.61,1.0,179.0,,,,,,,[],,,,,,56.4,1.0,i,1.0,True,1099.199999999255,66.0,60.0,40.0,False,,379.25762014785295,[],"[960, 540]",ColorTask,80.0,62.0,,,HRV,HRV_0013,2022-07-13 15:14:27
,wl-rdm,179,502565,0.0-8.62-0.62,1.0,180.0,,,,,,,[],,,,,,62.5,1.0,i,1.0,True,1032.3999999985099,62.0,60.0,40.0,False,,375.9632490144295,[],"[960, 540]",ColorTask,81.0,63.0,,,HRV,HRV_0013,2022-07-13 15:14:27
,wl-rdm,180,504848,0.0-8.63-0.63,1.0,181.0,,,,,,,[],,,,,,50.0,0.0,i,1.0,False,964.1000000014901,58.0,60.0,40.0,False,,233.5001719787452,[],"[960, 540]",ColorTask,80.0,64.0,,,HRV,HRV_0013,2022-07-13 15:14:27
,wl-rdm,181,507198,0.0-8.64-0.64,1.0,182.0,,,,,,,[],,,,,,50.0,0.0,u,0.0,True,935.0999999977648,57.0,60.0,40.0,False,,325.17933676843404,[],"[960, 540]",ColorTask,81.0,65.0,,,HRV,HRV_0013,2022-07-13 15:14:27
,wl-rdm,182,509199,0.0-8.65-0.65,1.0,183.0,,,,,,,[],,,,,,50.0,1.0,u,0.0,False,559.7999999970198,34.0,60.0,40.0,False,,378.1597264681253,[],"[960, 540]",ColorTask,80.0,66.0,,,HRV,HRV_0013,2022-07-13 15:14:27
,wl-rdm,183,511215,0.0-8.66-0.66,1.0,184.0,,,,,,,[],,,,,,53.2,0.0,u,0.0,True,673.6999999992549,41.0,60.0,40.0,False,,271.9749752629159,[],"[960, 540]",ColorTask,81.0,67.0,,,HRV,HRV_0013,2022-07-13 15:14:27
,wl-rdm,184,513399,0.0-8.67-0.67,1.0,185.0,,,,,,,[],,,,,,50.0,0.0,u,0.0,True,755.6000000014901,46.0,60.0,40.0,False,,354.50922490666704,[],"[960, 540]",ColorTask,82.0,68.0,,,HRV,HRV_0013,2022-07-13 15:14:27
,wl-rdm,185,515549,0.0-8.68-0.68,1.0,186.0,,,,,,,[],,,,,,50.0,0.0,u,0.0,True,699.1000000014901,42.0,60.0,40.0,False,,372.190557097809,[],"[960, 540]",ColorTask,83.0,69.0,,,HRV,HRV_0013,2022-07-13 15:14:27
,wl-rdm,186,517565,0.0-8.69-0.69,1.0,187.0,,,,,,,[],,,,,,87.9,1.0,i,1.0,True,587.1999999992549,36.0,60.0,40.0,False,,355.29532230185976,[],"[960, 540]",ColorTask,84.0,70.0,,,HRV,HRV_0013,2022-07-13 15:14:27
,wl-rdm,187,519598,0.0-8.70-0.70,1.0,188.0,,,,,,,[],,,,,,62.5,0.0,u,0.0,True,697.5999999977648,42.0,60.0,40.0,False,,264.87715208752473,[],"[960, 540]",ColorTask,85.0,71.0,,,HRV,HRV_0013,2022-07-13 15:14:27
,wl-rdm,188,521815,0.0-8.71-0.71,1.0,189.0,,,,,,,[],,,,,,50.0,0.0,i,1.0,False,778.0,47.0,60.0,40.0,False,,380.7312352143512,[],"[960, 540]",ColorTask,84.0,72.0,,,HRV,HRV_0013,2022-07-13 15:14:27
,wl-rdm,189,523765,0.0-8.72-0.72,1.0,190.0,,,,,,,[],,,,,,62.5,0.0,i,1.0,False,591.6999999992549,36.0,60.0,40.0,False,,298.2740177447482,[],"[960, 540]",ColorTask,83.0,73.0,,,HRV,HRV_0013,2022-07-13 15:14:27
,wl-rdm,190,525865,0.0-8.73-0.73,1.0,191.0,,,,,,,[],,,,,,56.4,0.0,u,0.0,True,801.0999999977648,49.0,60.0,40.0,False,,206.56760789828286,[],"[960, 540]",ColorTask,84.0,74.0,,,HRV,HRV_0013,2022-07-13 15:14:27
,wl-rdm,191,527999,0.0-8.74-0.74,1.0,192.0,,,,,,,[],,,,,,50.0,0.0,u,0.0,True,837.8000000044703,51.0,60.0,40.0,False,,212.2728526611772,[],"[960, 540]",ColorTask,85.0,75.0,,,HRV,HRV_0013,2022-07-13 15:14:27
,wl-rdm,192,530082,0.0-8.75-0.75,1.0,193.0,,,,,,,[],,,,,,56.4,0.0,u,0.0,True,719.9000000022352,44.0,60.0,40.0,False,,271.09849863609077,[],"[960, 540]",ColorTask,86.0,76.0,,,HRV,HRV_0013,2022-07-13 15:14:27
,wl-rdm,193,532265,0.0-8.76-0.76,1.0,194.0,,,,,,,[],,,,,,53.2,0.0,u,0.0,True,760.8999999985099,46.0,60.0,40.0,False,,342.96548769021587,[],"[960, 540]",ColorTask,87.0,77.0,,,HRV,HRV_0013,2022-07-13 15:14:27
,wl-rdm,194,534315,0.0-8.77-0.77,1.0,195.0,,,,,,,[],,,,,,87.9,0.0,u,0.0,True,723.4999999962747,44.0,60.0,40.0,False,,240.66588718892243,[],"[960, 540]",ColorTask,88.0,78.0,,,HRV,HRV_0013,2022-07-13 15:14:27
,wl-rdm,195,536749,0.0-8.78-0.78,1.0,196.0,,,,,,,[],,,,,,87.9,1.0,i,1.0,True,1071.2999999970198,65.0,60.0,40.0,False,,293.2846559603578,[],"[960, 540]",ColorTask,89.0,79.0,,,HRV,HRV_0013,2022-07-13 15:14:27
,wl-rdm,196,539765,0.0-8.79-0.79,1.0,197.0,,,,,,,[],,,,,,73.6,0.0,u,0.0,True,1681.1000000014901,101.0,60.0,40.0,False,,262.35732006577655,[],"[960, 540]",ColorTask,90.0,80.0,,,HRV,HRV_0013,2022-07-13 15:14:27
,wl-rdm,197,541932,0.0-8.80-0.80,1.0,198.0,,,,,,,[],,,,,,50.0,1.0,i,1.0,True,767.9999999962747,47.0,60.0,40.0,False,,328.0683809763123,[],"[960, 540]",ColorTask,91.0,81.0,,,HRV,HRV_0013,2022-07-13 15:14:27
,wl-rdm,198,543948,0.0-8.81-0.81,1.0,199.0,,,,,,,[],,,,,,87.9,0.0,u,0.0,True,727.6999999992549,44.0,60.0,40.0,False,,230.89820314544647,[],"[960, 540]",ColorTask,92.0,82.0,,,HRV,HRV_0013,2022-07-13 15:14:27
,wl-rdm,199,546098,0.0-8.82-0.82,1.0,200.0,,,,,,,[],,,,,,50.0,1.0,u,0.0,False,770.6000000014901,47.0,60.0,40.0,False,,315.43977968161016,[],"[960, 540]",ColorTask,91.0,83.0,,,HRV,HRV_0013,2022-07-13 15:14:27
,wl-rdm,200,548098,0.0-8.83-0.83,1.0,201.0,,,,,,,[],,,,,,87.9,1.0,i,1.0,True,613.3000000007451,37.0,60.0,40.0,False,,329.9755723566625,[],"[960, 540]",ColorTask,92.0,84.0,,,HRV,HRV_0013,2022-07-13 15:14:27
,wl-rdm,201,550148,0.0-8.84-0.84,1.0,202.0,,,,,,,[],,,,,,87.9,1.0,i,1.0,True,644.6999999992549,39.0,60.0,40.0,False,,316.8427291678277,[],"[960, 540]",ColorTask,93.0,85.0,,,HRV,HRV_0013,2022-07-13 15:14:27
,wl-rdm,202,552149,0.0-8.85-0.85,1.0,203.0,,,,,,,[],,,,,,62.5,0.0,u,0.0,True,551.3999999985099,34.0,60.0,40.0,False,,368.5769167146672,[],"[960, 540]",ColorTask,94.0,86.0,,,HRV,HRV_0013,2022-07-13 15:14:27
,wl-rdm,203,554098,0.0-8.86-0.86,1.0,204.0,,,,,,,[],,,,,,73.6,1.0,u,0.0,False,641.1000000014901,39.0,60.0,40.0,False,,244.57074217714327,[],"[960, 540]",ColorTask,93.0,87.0,,,HRV,HRV_0013,2022-07-13 15:14:27
,wl-rdm,204,555865,0.0-8.87-0.87,1.0,205.0,,,,,,,[],,,,,,62.5,1.0,i,1.0,True,474.29999999701977,29.0,60.0,40.0,False,,209.88416580867968,[],"[960, 540]",ColorTask,94.0,88.0,,,HRV,HRV_0013,2022-07-13 15:14:27
,wl-rdm,205,557998,0.0-8.88-0.88,1.0,206.0,,,,,,,[],,,,,,53.2,1.0,u,0.0,False,776.6000000014901,47.0,60.0,40.0,False,,266.9505702270407,[],"[960, 540]",ColorTask,93.0,89.0,,,HRV,HRV_0013,2022-07-13 15:14:27
,wl-rdm,206,560598,0.0-8.89-0.89,1.0,207.0,,,,,,,[],,,,,,53.2,0.0,i,1.0,False,1314.0,79.0,60.0,40.0,False,,225.31837505524305,[],"[960, 540]",ColorTask,92.0,90.0,,,HRV,HRV_0013,2022-07-13 15:14:27
,wl-rdm,207,562632,0.0-8.90-0.90,1.0,208.0,,,,,,,[],,,,,,87.9,0.0,u,0.0,True,658.7999999970198,40.0,60.0,40.0,False,,288.78622554720073,[],"[960, 540]",ColorTask,93.0,91.0,,,HRV,HRV_0013,2022-07-13 15:14:27
,wl-rdm,208,564648,0.0-8.91-0.91,1.0,209.0,,,,,,,[],,,,,,62.5,0.0,u,0.0,True,725.8999999985099,44.0,60.0,40.0,False,,205.33775073471764,[],"[960, 540]",ColorTask,94.0,92.0,,,HRV,HRV_0013,2022-07-13 15:14:27
,wl-rdm,209,566665,0.0-8.92-0.92,1.0,210.0,,,,,,,[],,,,,,73.6,0.0,u,0.0,True,566.3999999985099,34.0,60.0,40.0,False,,385.22447107546395,[],"[960, 540]",ColorTask,95.0,93.0,,,HRV,HRV_0013,2022-07-13 15:14:27
,wl-rdm,210,568615,0.0-8.93-0.93,1.0,211.0,,,,,,,[],,,,,,56.4,1.0,u,0.0,False,501.6000000014901,31.0,60.0,40.0,False,,355.7626648524474,[],"[960, 540]",ColorTask,94.0,94.0,,,HRV,HRV_0013,2022-07-13 15:14:27
,wl-rdm,211,571232,0.0-8.94-0.94,1.0,212.0,,,,,,,[],,,,,,73.6,0.0,u,0.0,True,1196.0,72.0,60.0,40.0,False,,365.25678610468725,[],"[960, 540]",ColorTask,95.0,95.0,,,HRV,HRV_0013,2022-07-13 15:14:27
,wl-rdm,212,573132,0.0-8.95-0.95,1.0,213.0,,,,,,,[],,,,,,53.2,0.0,u,0.0,True,579.0,35.0,60.0,40.0,False,,253.49096788380436,[],"[960, 540]",ColorTask,96.0,96.0,,,HRV,HRV_0013,2022-07-13 15:14:27
,wl-rdm,213,575482,0.0-8.96-0.96,1.0,214.0,,,,,,,[],,,,,,56.4,0.0,u,0.0,True,996.2999999970198,60.0,60.0,40.0,False,,280.87395697806,[],"[960, 540]",ColorTask,97.0,97.0,,,HRV,HRV_0013,2022-07-13 15:14:27
,wl-rdm,214,577715,0.0-8.97-0.97,1.0,215.0,,,,,,,[],,,,,,50.0,1.0,i,1.0,True,852.9000000022352,52.0,60.0,40.0,False,,291.017719795645,[],"[960, 540]",ColorTask,98.0,98.0,,,HRV,HRV_0013,2022-07-13 15:14:27
,wl-rdm,215,579782,0.0-8.98-0.98,1.0,216.0,,,,,,,[],,,,,,53.2,1.0,u,0.0,False,721.4999999962747,44.0,60.0,40.0,False,,272.9466933661947,[],"[960, 540]",ColorTask,97.0,99.0,,,HRV,HRV_0013,2022-07-13 15:14:27
,wl-rdm,216,581815,0.0-8.99-0.99,1.0,217.0,,,,,,,[],,,,,,73.6,0.0,u,0.0,True,704.0,43.0,60.0,40.0,False,,244.2895715290805,[],"[960, 540]",ColorTask,98.0,100.0,,,HRV,HRV_0013,2022-07-13 15:14:27
,wl-rdm,217,584132,0.0-8.100-0.100,1.0,218.0,,,,,,,[],,,,,,56.4,1.0,i,1.0,True,843.4000000022352,51.0,60.0,40.0,False,,397.98913075134294,[],"[960, 540]",ColorTask,99.0,101.0,,,HRV,HRV_0013,2022-07-13 15:14:27
,wl-rdm,218,586132,0.0-8.101-0.101,1.0,219.0,,,,,,,[],,,,,,56.4,0.0,i,1.0,False,565.8999999985099,34.0,60.0,40.0,False,,371.3294450166452,[],"[960, 540]",ColorTask,98.0,102.0,,,HRV,HRV_0013,2022-07-13 15:14:27
,wl-rdm,219,588265,0.0-8.102-0.102,1.0,220.0,,,,,,,[],,,,,,56.4,0.0,i,1.0,False,776.0999999977648,47.0,60.0,40.0,False,,292.0909273939501,[],"[960, 540]",ColorTask,97.0,103.0,,,HRV,HRV_0013,2022-07-13 15:14:27
,wl-rdm,220,590432,0.0-8.103-0.103,1.0,221.0,,,,,,,[],,,,,,73.6,1.0,i,1.0,True,809.5999999977648,49.0,60.0,40.0,False,,285.19582890455507,[],"[960, 540]",ColorTask,98.0,104.0,,,HRV,HRV_0013,2022-07-13 15:14:27
,wl-rdm,221,592832,0.0-8.104-0.104,1.0,222.0,,,,,,,[],,,,,,62.5,0.0,u,0.0,True,1103.8999999985099,67.0,60.0,40.0,False,,210.73961234623877,[],"[960, 540]",ColorTask,99.0,105.0,,,HRV,HRV_0013,2022-07-13 15:14:27
,wl-rdm,222,594815,0.0-8.105-0.105,1.0,223.0,,,,,,,[],,,,,,50.0,0.0,i,1.0,False,580.5,35.0,60.0,40.0,False,,343.4952985096973,[],"[960, 540]",ColorTask,98.0,106.0,,,HRV,HRV_0013,2022-07-13 15:14:27
,wl-rdm,223,597532,0.0-8.106-0.106,1.0,224.0,,,,,,,[],,,,,,50.0,1.0,i,1.0,True,1319.8999999947846,80.0,60.0,40.0,False,,306.3225106137853,[],"[960, 540]",ColorTask,99.0,107.0,,,HRV,HRV_0013,2022-07-13 15:14:27
,wl-rdm,224,599782,0.0-8.107-0.107,1.0,225.0,,,,,,,[],,,,,,62.5,1.0,i,1.0,True,914.0999999977648,55.0,60.0,40.0,False,,258.6582171437181,[],"[960, 540]",ColorTask,100.0,108.0,,,HRV,HRV_0013,2022-07-13 15:14:27
,wl-html-button-response,225,602477,0.0-9.0-0.0,,,,,,,,,,2690.10000000149,,0,,,,,,,,,,,,,,,,,,,,<h3>End of this session. Thank you!</h3><br>,['Close window'],HRV,HRV_0013,2022-07-13 15:14:27
