trialN,stimuli,trialStartTime,trialStartTime_UNIX,stimulus1,stimulus2,stimulus1Bid,stimulus2Bid,delta,selected,rt,rt_UNIX,rt_perfnow,receivedResponse,rsp,trialEndTime,trialDuration,trialEndTime_UNIX,trialDuration_UNIX,exp,subjectId,date
0,"[{'imgObject': {}, 'id': 'chicken nuggets2', 'src': '/static/foodstim60/chicken nuggets2.jpg', 'key': 'u', 'origWidth': 410, 'origHeight': 409, 'width': 410, 'height': 409, 'widthPercent': 0.45, 'rescaleHeight': False, 'trialN': 0, 'loaded': True, 'loadedTime': 3763.600000023842, 'positionName': 'LEFT', 'positionCoords': [511.6, 335.5], 'bid': 5.1000000000000005}, {'imgObject': {}, 'id': 'shreddedwheatwithmilk', 'src': '/static/foodstim60/shreddedwheatwithmilk.jpg', 'key': 'i', 'origWidth': 410, 'origHeight': 410, 'width': 410, 'height': 410, 'widthPercent': 0.45, 'rescaleHeight': False, 'trialN': 0, 'loaded': True, 'loadedTime': 3781, 'positionName': 'RIGHT', 'positionCoords': [998.4, 335], 'bid': 5.09}]",4978.199999928474,1669831650462,chicken nuggets2,shreddedwheatwithmilk,5.1000000000000005,5.09,-0.010000000000000675,shreddedwheatwithmilk,1596.8000000715256,1598,1597.3000000715256,True,i,7090.399999976158,2112.2000000476837,1669831652575,2113,HRV,HRV_0013,2022-11-30 18:11:45
1,"[{'imgObject': {}, 'id': 'sushi w_condiments', 'src': '/static/foodstim60/sushi w_condiments.jpg', 'key': 'u', 'origWidth': 410, 'origHeight': 410, 'width': 410, 'height': 410, 'widthPercent': 0.45, 'rescaleHeight': False, 'trialN': 1, 'loaded': True, 'loadedTime': 3792.1999999284744, 'positionName': 'LEFT', 'positionCoords': [511.6, 335], 'bid': 5.0200000000000005}, {'imgObject': {}, 'id': 'eggsalad', 'src': '/static/foodstim60/eggsalad.jpg', 'key': 'i', 'origWidth': 410, 'origHeight': 409, 'width': 410, 'height': 409, 'widthPercent': 0.45, 'rescaleHeight': False, 'trialN': 1, 'loaded': True, 'loadedTime': 3797.399999976158, 'positionName': 'RIGHT', 'positionCoords': [998.4, 335.5], 'bid': 4.91}]",7090.799999952316,1669831652575,sushi w_condiments,eggsalad,5.0200000000000005,4.91,-0.11000000000000032,sushi w_condiments,768.1000000238419,768,768.5,True,u,8380.5,1289.7000000476837,1669831653865,1290,HRV,HRV_0013,2022-11-30 18:11:45
2,"[{'imgObject': {}, 'id': 'grilled chicken strips', 'src': '/static/foodstim60/grilled chicken strips.jpg', 'key': 'u', 'origWidth': 410, 'origHeight': 411, 'width': 410, 'height': 411, 'widthPercent': 0.45, 'rescaleHeight': False, 'trialN': 2, 'loaded': True, 'loadedTime': 3802.5, 'positionName': 'LEFT', 'positionCoords': [511.6, 334.5], 'bid': 6.4}, {'imgObject': {}, 'id': 'mac & cheese', 'src': '/static/foodstim60/mac & cheese.jpg', 'key': 'i', 'origWidth': 410, 'origHeight': 410, 'width': 410, 'height': 410, 'widthPercent': 0.45, 'rescaleHeight': False, 'trialN': 2, 'loaded': True, 'loadedTime': 3805.600000023842, 'positionName': 'RIGHT', 'positionCoords': [998.4, 335], 'bid': 0.1}]",8380.699999928474,1669831653865,grilled chicken strips,mac & cheese,6.4,0.1,-6.300000000000001,grilled chicken strips,831.3000000715256,832,831.7000000476837,True,u,9732.899999976158,1352.2000000476837,1669831655217,1352,HRV,HRV_0013,2022-11-30 18:11:45
3,"[{'imgObject': {}, 'id': 'hashbrowns', 'src': '/static/foodstim60/hashbrowns.jpg', 'key': 'u', 'origWidth': 411, 'origHeight': 410, 'width': 411, 'height': 410, 'widthPercent': 0.45, 'rescaleHeight': False, 'trialN': 3, 'loaded': True, 'loadedTime': 3807.6999999284744, 'positionName': 'LEFT', 'positionCoords': [510.6, 335], 'bid': 0.15}, {'imgObject': {}, 'id': 'omelette', 'src': '/static/foodstim60/omelette.jpg', 'key': 'i', 'origWidth': 410, 'origHeight': 409, 'width': 410, 'height': 409, 'widthPercent': 0.45, 'rescaleHeight': False, 'trialN': 3, 'loaded': True, 'loadedTime': 3808.6999999284744, 'positionName': 'RIGHT', 'positionCoords': [998.4, 335.5], 'bid': 0.11}]",9733.199999928474,1669831655217,hashbrowns,omelette,0.15,0.11,-0.039999999999999994,omelette,1102.1000000238419,1103,1102.8000000715256,True,i,11356.100000023842,1622.9000000953674,1669831656840,1623,HRV,HRV_0013,2022-11-30 18:11:45
4,"[{'imgObject': {}, 'id': 'corn cob', 'src': '/static/foodstim60/corn cob.jpg', 'key': 'u', 'origWidth': 411, 'origHeight': 411, 'width': 411, 'height': 411, 'widthPercent': 0.45, 'rescaleHeight': False, 'trialN': 4, 'loaded': True, 'loadedTime': 3810.899999976158, 'positionName': 'LEFT', 'positionCoords': [510.6, 334.5], 'bid': 8.18}, {'imgObject': {}, 'id': 'roastedpotatoes', 'src': '/static/foodstim60/roastedpotatoes.jpg', 'key': 'i', 'origWidth': 409, 'origHeight': 410, 'width': 409, 'height': 410, 'widthPercent': 0.45, 'rescaleHeight': False, 'trialN': 4, 'loaded': True, 'loadedTime': 3842.399999976158, 'positionName': 'RIGHT', 'positionCoords': [998.4, 335], 'bid': 9.18}]",11356.199999928474,1669831656840,corn cob,roastedpotatoes,8.18,9.18,1.0,roastedpotatoes,1352.7000000476837,1353,1353.0,True,i,13225.5,1869.3000000715256,1669831658710,1870,HRV,HRV_0013,2022-11-30 18:11:45
5,"[{'imgObject': {}, 'id': 'kiwi', 'src': '/static/foodstim60/kiwi.jpg', 'key': 'u', 'origWidth': 410, 'origHeight': 410, 'width': 410, 'height': 410, 'widthPercent': 0.45, 'rescaleHeight': False, 'trialN': 5, 'loaded': True, 'loadedTime': 3944.1999999284744, 'positionName': 'LEFT', 'positionCoords': [511.6, 335], 'bid': 8.53}, {'imgObject': {}, 'id': 'luckycharms', 'src': '/static/foodstim60/luckycharms.jpg', 'key': 'i', 'origWidth': 410, 'origHeight': 409, 'width': 410, 'height': 409, 'widthPercent': 0.45, 'rescaleHeight': False, 'trialN': 5, 'loaded': True, 'loadedTime': 3984.899999976158, 'positionName': 'RIGHT', 'positionCoords': [998.4, 335.5], 'bid': 7.58}]",13225.899999976158,1669831658710,kiwi,luckycharms,8.53,7.58,-0.9499999999999993,kiwi,623.0,623,623.2999999523163,True,u,14360.199999928474,1134.2999999523163,1669831659844,1134,HRV,HRV_0013,2022-11-30 18:11:45
6,"[{'imgObject': {}, 'id': 'turkey sandwich', 'src': '/static/foodstim60/turkey sandwich.jpg', 'key': 'u', 'origWidth': 409, 'origHeight': 409, 'width': 409, 'height': 409, 'widthPercent': 0.45, 'rescaleHeight': False, 'trialN': 6, 'loaded': True, 'loadedTime': 4028, 'positionName': 'LEFT', 'positionCoords': [512.6, 335.5], 'bid': 7.62}, {'imgObject': {}, 'id': 'roastedpotatoes', 'src': '/static/foodstim60/roastedpotatoes.jpg', 'key': 'i', 'origWidth': 409, 'origHeight': 410, 'width': 409, 'height': 410, 'widthPercent': 0.45, 'rescaleHeight': False, 'trialN': 6, 'loaded': True, 'loadedTime': 3840.100000023842, 'positionName': 'RIGHT', 'positionCoords': [998.4, 335], 'bid': 9.18}]",14360.5,1669831659845,turkey sandwich,roastedpotatoes,7.62,9.18,1.5599999999999996,roastedpotatoes,750.3999999761581,750,750.7999999523163,True,i,15625.399999976158,1264.8999999761581,1669831661110,1265,HRV,HRV_0013,2022-11-30 18:11:45
7,"[{'imgObject': {}, 'id': 'fried eggs', 'src': '/static/foodstim60/fried eggs.jpg', 'key': 'u', 'origWidth': 410, 'origHeight': 410, 'width': 410, 'height': 410, 'widthPercent': 0.45, 'rescaleHeight': False, 'trialN': 7, 'loaded': True, 'loadedTime': 4120.199999928474, 'positionName': 'LEFT', 'positionCoords': [511.6, 335], 'bid': 1.22}, {'imgObject': {}, 'id': 'yogurt no spoon', 'src': '/static/foodstim60/yogurt no spoon.jpg', 'key': 'i', 'origWidth': 411, 'origHeight': 410, 'width': 411, 'height': 410, 'widthPercent': 0.45, 'rescaleHeight': False, 'trialN': 7, 'loaded': True, 'loadedTime': 4204.100000023842, 'positionName': 'RIGHT', 'positionCoords': [998.4, 335], 'bid': 0.78}]",15625.699999928474,1669831661110,fried eggs,yogurt no spoon,1.22,0.78,-0.43999999999999995,fried eggs,811.1000000238419,811,811.4000000953674,True,u,16945.399999976158,1319.7000000476837,1669831662430,1320,HRV,HRV_0013,2022-11-30 18:11:45
8,"[{'imgObject': {}, 'id': 'cocktailshrimp', 'src': '/static/foodstim60/cocktailshrimp.jpg', 'key': 'u', 'origWidth': 410, 'origHeight': 410, 'width': 410, 'height': 410, 'widthPercent': 0.45, 'rescaleHeight': False, 'trialN': 8, 'loaded': True, 'loadedTime': 4273.199999928474, 'positionName': 'LEFT', 'positionCoords': [511.6, 335], 'bid': 3.6}, {'imgObject': {}, 'id': 'rigatoni', 'src': '/static/foodstim60/rigatoni.jpg', 'key': 'i', 'origWidth': 411, 'origHeight': 411, 'width': 411, 'height': 411, 'widthPercent': 0.45, 'rescaleHeight': False, 'trialN': 8, 'loaded': True, 'loadedTime': 4275.299999952316, 'positionName': 'RIGHT', 'positionCoords': [998.4, 334.5], 'bid': 0.16}]",16945.799999952316,1669831662430,cocktailshrimp,rigatoni,3.6,0.16,-3.44,cocktailshrimp,1005.1000000238419,1005,1005.3999999761581,True,u,18454.5,1508.7000000476837,1669831663939,1509,HRV,HRV_0013,2022-11-30 18:11:45
9,"[{'imgObject': {}, 'id': 'apple slices', 'src': '/static/foodstim60/apple slices.jpg', 'key': 'u', 'origWidth': 409, 'origHeight': 410, 'width': 409, 'height': 410, 'widthPercent': 0.45, 'rescaleHeight': False, 'trialN': 9, 'loaded': True, 'loadedTime': 4310.100000023842, 'positionName': 'LEFT', 'positionCoords': [512.6, 335], 'bid': 7.15}, {'imgObject': {}, 'id': 'lox', 'src': '/static/foodstim60/lox.jpg', 'key': 'i', 'origWidth': 410, 'origHeight': 411, 'width': 410, 'height': 411, 'widthPercent': 0.45, 'rescaleHeight': False, 'trialN': 9, 'loaded': True, 'loadedTime': 4313.899999976158, 'positionName': 'RIGHT', 'positionCoords': [998.4, 334.5], 'bid': 7.45}]",18454.699999928474,1669831663939,apple slices,lox,7.15,7.45,0.2999999999999998,lox,796.1000000238419,796,796.3000000715256,True,i,19768.0,1313.3000000715256,1669831665252,1313,HRV,HRV_0013,2022-11-30 18:11:45
10,"[{'imgObject': {}, 'id': 'mashed potato', 'src': '/static/foodstim60/mashed potato.jpg', 'key': 'u', 'origWidth': 409, 'origHeight': 409, 'width': 409, 'height': 409, 'widthPercent': 0.45, 'rescaleHeight': False, 'trialN': 10, 'loaded': True, 'loadedTime': 4322.299999952316, 'positionName': 'LEFT', 'positionCoords': [512.6, 335.5], 'bid': 0.07}, {'imgObject': {}, 'id': 'mac & cheese', 'src': '/static/foodstim60/mac & cheese.jpg', 'key': 'i', 'origWidth': 410, 'origHeight': 410, 'width': 410, 'height': 410, 'widthPercent': 0.45, 'rescaleHeight': False, 'trialN': 10, 'loaded': True, 'loadedTime': 3805.7999999523163, 'positionName': 'RIGHT', 'positionCoords': [998.4, 335], 'bid': 0.1}]",19768.199999928474,1669831665252,mashed potato,mac & cheese,0.07,0.1,0.03,mashed potato,956.6000000238419,957,956.9000000953674,True,u,21242.399999976158,1474.2000000476837,1669831666727,1475,HRV,HRV_0013,2022-11-30 18:11:45
11,"[{'imgObject': {}, 'id': 'lox', 'src': '/static/foodstim60/lox.jpg', 'key': 'u', 'origWidth': 410, 'origHeight': 411, 'width': 410, 'height': 411, 'widthPercent': 0.45, 'rescaleHeight': False, 'trialN': 11, 'loaded': True, 'loadedTime': 4317.899999976158, 'positionName': 'LEFT', 'positionCoords': [511.6, 334.5], 'bid': 7.45}, {'imgObject': {}, 'id': 'hotdog w must', 'src': '/static/foodstim60/hotdog w must.jpg', 'key': 'i', 'origWidth': 409, 'origHeight': 409, 'width': 409, 'height': 409, 'widthPercent': 0.45, 'rescaleHeight': False, 'trialN': 11, 'loaded': True, 'loadedTime': 4330.399999976158, 'positionName': 'RIGHT', 'positionCoords': [998.4, 335.5], 'bid': 1.32}]",21242.600000023842,1669831666727,lox,hotdog w must,7.45,1.32,-6.13,lox,872.2999999523163,872,872.6999999284744,True,u,22627.299999952316,1384.6999999284744,1669831668112,1385,HRV,HRV_0013,2022-11-30 18:11:45
12,"[{'imgObject': {}, 'id': 'edamame', 'src': '/static/foodstim60/edamame.jpg', 'key': 'u', 'origWidth': 409, 'origHeight': 410, 'width': 409, 'height': 410, 'widthPercent': 0.45, 'rescaleHeight': False, 'trialN': 12, 'loaded': True, 'loadedTime': 4333.100000023842, 'positionName': 'LEFT', 'positionCoords': [512.6, 335], 'bid': 2.22}, {'imgObject': {}, 'id': 'omelette', 'src': '/static/foodstim60/omelette.jpg', 'key': 'i', 'origWidth': 410, 'origHeight': 409, 'width': 410, 'height': 409, 'widthPercent': 0.45, 'rescaleHeight': False, 'trialN': 12, 'loaded': True, 'loadedTime': 3807.899999976158, 'positionName': 'RIGHT', 'positionCoords': [998.4, 335.5], 'bid': 0.11}]",22627.600000023842,1669831668112,edamame,omelette,2.22,0.11,-2.1100000000000003,omelette,1014.2999999523163,1014,1014.6999999284744,True,i,24157.100000023842,1529.5,1669831669641,1529,HRV,HRV_0013,2022-11-30 18:11:45
13,"[{'imgObject': {}, 'id': 'burrito', 'src': '/static/foodstim60/burrito.jpg', 'key': 'u', 'origWidth': 410, 'origHeight': 410, 'width': 410, 'height': 410, 'widthPercent': 0.45, 'rescaleHeight': False, 'trialN': 13, 'loaded': True, 'loadedTime': 4358.5, 'positionName': 'LEFT', 'positionCoords': [511.6, 335], 'bid': 5.07}, {'imgObject': {}, 'id': 'hotdog w must', 'src': '/static/foodstim60/hotdog w must.jpg', 'key': 'i', 'origWidth': 409, 'origHeight': 409, 'width': 409, 'height': 409, 'widthPercent': 0.45, 'rescaleHeight': False, 'trialN': 13, 'loaded': True, 'loadedTime': 4327.699999928474, 'positionName': 'RIGHT', 'positionCoords': [998.4, 335.5], 'bid': 1.32}]",24157.299999952316,1669831669641,burrito,hotdog w must,5.07,1.32,-3.75,burrito,890.5,891,890.8999999761581,True,u,25563.199999928474,1405.8999999761581,1669831671047,1406,HRV,HRV_0013,2022-11-30 18:11:45
14,"[{'imgObject': {}, 'id': 'rigatoni and sauce', 'src': '/static/foodstim60/rigatoni and sauce.jpg', 'key': 'u', 'origWidth': 410, 'origHeight': 411, 'width': 410, 'height': 411, 'widthPercent': 0.45, 'rescaleHeight': False, 'trialN': 14, 'loaded': True, 'loadedTime': 4362.899999976158, 'positionName': 'LEFT', 'positionCoords': [511.6, 334.5], 'bid': 1.58}, {'imgObject': {}, 'id': 'olives', 'src': '/static/foodstim60/olives.jpg', 'key': 'i', 'origWidth': 410, 'origHeight': 410, 'width': 410, 'height': 410, 'widthPercent': 0.45, 'rescaleHeight': False, 'trialN': 14, 'loaded': True, 'loadedTime': 4372.399999976158, 'positionName': 'RIGHT', 'positionCoords': [998.4, 335], 'bid': 2.01}]",25563.399999976158,1669831671048,rigatoni and sauce,olives,1.58,2.01,0.4299999999999997,olives,1159.3999999761581,1159,1159.8999999761581,True,i,27243.600000023842,1680.2000000476837,1669831672728,1680,HRV,HRV_0013,2022-11-30 18:11:45
15,"[{'imgObject': {}, 'id': 'cheerios', 'src': '/static/foodstim60/cheerios.jpg', 'key': 'u', 'origWidth': 409, 'origHeight': 410, 'width': 409, 'height': 410, 'widthPercent': 0.45, 'rescaleHeight': False, 'trialN': 15, 'loaded': True, 'loadedTime': 4417.799999952316, 'positionName': 'LEFT', 'positionCoords': [512.6, 335], 'bid': 7.35}, {'imgObject': {}, 'id': 'fried eggs', 'src': '/static/foodstim60/fried eggs.jpg', 'key': 'i', 'origWidth': 410, 'origHeight': 410, 'width': 410, 'height': 410, 'widthPercent': 0.45, 'rescaleHeight': False, 'trialN': 15, 'loaded': True, 'loadedTime': 4073.2999999523163, 'positionName': 'RIGHT', 'positionCoords': [998.4, 335], 'bid': 1.22}]",27243.899999976158,1669831672728,cheerios,fried eggs,7.35,1.22,-6.13,cheerios,735.7999999523163,736,736.1000000238419,True,u,28488.100000023842,1244.2000000476837,1669831673972,1244,HRV,HRV_0013,2022-11-30 18:11:45
16,"[{'imgObject': {}, 'id': 'kiwi', 'src': '/static/foodstim60/kiwi.jpg', 'key': 'u', 'origWidth': 410, 'origHeight': 410, 'width': 410, 'height': 410, 'widthPercent': 0.45, 'rescaleHeight': False, 'trialN': 16, 'loaded': True, 'loadedTime': 3945.100000023842, 'positionName': 'LEFT', 'positionCoords': [511.6, 335], 'bid': 8.53}, {'imgObject': {}, 'id': 'granola w milk', 'src': '/static/foodstim60/granola w milk.jpg', 'key': 'i', 'origWidth': 410, 'origHeight': 410, 'width': 410, 'height': 410, 'widthPercent': 0.45, 'rescaleHeight': False, 'trialN': 16, 'loaded': True, 'loadedTime': 4493, 'positionName': 'RIGHT', 'positionCoords': [998.4, 335], 'bid': 5.03}]",28488.299999952316,1669831673972,kiwi,granola w milk,8.53,5.03,-3.499999999999999,kiwi,790.3999999761581,791,790.7000000476837,True,u,29785.600000023842,1297.3000000715256,1669831675270,1298,HRV,HRV_0013,2022-11-30 18:11:45
17,"[{'imgObject': {}, 'id': 'cherry tomato', 'src': '/static/foodstim60/cherry tomato.jpg', 'key': 'u', 'origWidth': 410, 'origHeight': 410, 'width': 410, 'height': 410, 'widthPercent': 0.45, 'rescaleHeight': False, 'trialN': 17, 'loaded': True, 'loadedTime': 4528.600000023842, 'positionName': 'LEFT', 'positionCoords': [511.6, 335], 'bid': 7.140000000000001}, {'imgObject': {}, 'id': 'cherries', 'src': '/static/foodstim60/cherries.jpg', 'key': 'i', 'origWidth': 410, 'origHeight': 411, 'width': 410, 'height': 411, 'widthPercent': 0.45, 'rescaleHeight': False, 'trialN': 17, 'loaded': True, 'loadedTime': 4530.899999976158, 'positionName': 'RIGHT', 'positionCoords': [998.4, 334.5], 'bid': 6.13}]",29785.799999952316,1669831675270,cherry tomato,cherries,7.140000000000001,6.13,-1.0100000000000007,cherries,1013.1000000238419,1014,1013.7000000476837,True,i,31303.899999976158,1518.1000000238419,1669831676788,1518,HRV,HRV_0013,2022-11-30 18:11:45
18,"[{'imgObject': {}, 'id': 'cherry tomato', 'src': '/static/foodstim60/cherry tomato.jpg', 'key': 'u', 'origWidth': 410, 'origHeight': 410, 'width': 410, 'height': 410, 'widthPercent': 0.45, 'rescaleHeight': False, 'trialN': 18, 'loaded': True, 'loadedTime': 4529.199999928474, 'positionName': 'LEFT', 'positionCoords': [511.6, 335], 'bid': 7.140000000000001}, {'imgObject': {}, 'id': 'baked potato', 'src': '/static/foodstim60/baked potato.jpg', 'key': 'i', 'origWidth': 409, 'origHeight': 410, 'width': 409, 'height': 410, 'widthPercent': 0.45, 'rescaleHeight': False, 'trialN': 18, 'loaded': True, 'loadedTime': 4620.899999976158, 'positionName': 'RIGHT', 'positionCoords': [998.4, 335], 'bid': 6.83}]",31304.100000023842,1669831676788,cherry tomato,baked potato,7.140000000000001,6.83,-0.3100000000000005,cherry tomato,936.5999999046326,937,937.0,True,u,32754.799999952316,1450.6999999284744,1669831678240,1452,HRV,HRV_0013,2022-11-30 18:11:45
19,"[{'imgObject': {}, 'id': 'strawberries', 'src': '/static/foodstim60/strawberries.jpg', 'key': 'u', 'origWidth': 410, 'origHeight': 410, 'width': 410, 'height': 410, 'widthPercent': 0.45, 'rescaleHeight': False, 'trialN': 19, 'loaded': True, 'loadedTime': 4655.699999928474, 'positionName': 'LEFT', 'positionCoords': [511.6, 335], 'bid': 8.61}, {'imgObject': {}, 'id': 'eggs', 'src': '/static/foodstim60/eggs.jpg', 'key': 'i', 'origWidth': 409, 'origHeight': 409, 'width': 409, 'height': 409, 'widthPercent': 0.45, 'rescaleHeight': False, 'trialN': 19, 'loaded': True, 'loadedTime': 4692.600000023842, 'positionName': 'RIGHT', 'positionCoords': [998.4, 335.5], 'bid': 8.83}]",32755.0,1669831678240,strawberries,eggs,8.61,8.83,0.22000000000000064,eggs,885.6000000238419,886,886.0,True,i,34145.39999997616,1390.3999999761581,1669831679630,1390,HRV,HRV_0013,2022-11-30 18:11:45
20,"[{'imgObject': {}, 'id': 'mashed potato', 'src': '/static/foodstim60/mashed potato.jpg', 'key': 'u', 'origWidth': 409, 'origHeight': 409, 'width': 409, 'height': 409, 'widthPercent': 0.45, 'rescaleHeight': False, 'trialN': 20, 'loaded': True, 'loadedTime': 4322.100000023842, 'positionName': 'LEFT', 'positionCoords': [512.6, 335.5], 'bid': 0.07}, {'imgObject': {}, 'id': 'omelette', 'src': '/static/foodstim60/omelette.jpg', 'key': 'i', 'origWidth': 410, 'origHeight': 409, 'width': 410, 'height': 409, 'widthPercent': 0.45, 'rescaleHeight': False, 'trialN': 20, 'loaded': True, 'loadedTime': 3808.7999999523163, 'positionName': 'RIGHT', 'positionCoords': [998.4, 335.5], 'bid': 0.11}]",34145.60000002384,1669831679631,mashed potato,omelette,0.07,0.11,0.039999999999999994,omelette,1092.0999999046326,1092,1092.3999999761581,True,i,35756.5,1610.8999999761581,1669831681241,1610,HRV,HRV_0013,2022-11-30 18:11:45
21,"[{'imgObject': {}, 'id': 'corn cob', 'src': '/static/foodstim60/corn cob.jpg', 'key': 'u', 'origWidth': 411, 'origHeight': 411, 'width': 411, 'height': 411, 'widthPercent': 0.45, 'rescaleHeight': False, 'trialN': 21, 'loaded': True, 'loadedTime': 3810.6999999284744, 'positionName': 'LEFT', 'positionCoords': [510.6, 334.5], 'bid': 8.18}, {'imgObject': {}, 'id': 'luckycharms', 'src': '/static/foodstim60/luckycharms.jpg', 'key': 'i', 'origWidth': 410, 'origHeight': 409, 'width': 410, 'height': 409, 'widthPercent': 0.45, 'rescaleHeight': False, 'trialN': 21, 'loaded': True, 'loadedTime': 4026.2999999523163, 'positionName': 'RIGHT', 'positionCoords': [998.4, 335.5], 'bid': 7.58}]",35756.699999928474,1669831681242,corn cob,luckycharms,8.18,7.58,-0.5999999999999996,corn cob,522.9000000953674,523,523.3000000715256,True,u,36783.60000002384,1026.9000000953674,1669831682269,1027,HRV,HRV_0013,2022-11-30 18:11:45
22,"[{'imgObject': {}, 'id': 'eggsalad', 'src': '/static/foodstim60/eggsalad.jpg', 'key': 'u', 'origWidth': 410, 'origHeight': 409, 'width': 410, 'height': 409, 'widthPercent': 0.45, 'rescaleHeight': False, 'trialN': 22, 'loaded': True, 'loadedTime': 3798.100000023842, 'positionName': 'LEFT', 'positionCoords': [511.6, 335.5], 'bid': 4.91}, {'imgObject': {}, 'id': 'Tribe humus pita', 'src': '/static/foodstim60/Tribe humus pita.jpg', 'key': 'i', 'origWidth': 411, 'origHeight': 411, 'width': 411, 'height': 411, 'widthPercent': 0.45, 'rescaleHeight': False, 'trialN': 22, 'loaded': True, 'loadedTime': 4698.899999976158, 'positionName': 'RIGHT', 'positionCoords': [998.4, 334.5], 'bid': 5.01}]",36783.799999952316,1669831682269,eggsalad,Tribe humus pita,4.91,5.01,0.09999999999999964,Tribe humus pita,1092.8000000715256,1093,1093.1000000238419,True,i,38383.10000002384,1599.3000000715256,1669831683868,1599,HRV,HRV_0013,2022-11-30 18:11:45
23,"[{'imgObject': {}, 'id': 'eggs', 'src': '/static/foodstim60/eggs.jpg', 'key': 'u', 'origWidth': 409, 'origHeight': 409, 'width': 409, 'height': 409, 'widthPercent': 0.45, 'rescaleHeight': False, 'trialN': 23, 'loaded': True, 'loadedTime': 4695.899999976158, 'positionName': 'LEFT', 'positionCoords': [512.6, 335.5], 'bid': 8.83}, {'imgObject': {}, 'id': 'Grapes', 'src': '/static/foodstim60/Grapes.jpg', 'key': 'i', 'origWidth': 411, 'origHeight': 411, 'width': 411, 'height': 411, 'widthPercent': 0.45, 'rescaleHeight': False, 'trialN': 23, 'loaded': True, 'loadedTime': 4703.5, 'positionName': 'RIGHT', 'positionCoords': [998.4, 334.5], 'bid': 9.05}]",38383.39999997616,1669831683868,eggs,Grapes,8.83,9.05,0.22000000000000064,eggs,702.2000000476837,703,702.5,True,u,39593.5,1210.1000000238419,1669831685078,1210,HRV,HRV_0013,2022-11-30 18:11:45
24,"[{'imgObject': {}, 'id': 'rigatoni', 'src': '/static/foodstim60/rigatoni.jpg', 'key': 'u', 'origWidth': 411, 'origHeight': 411, 'width': 411, 'height': 411, 'widthPercent': 0.45, 'rescaleHeight': False, 'trialN': 24, 'loaded': True, 'loadedTime': 4275.399999976158, 'positionName': 'LEFT', 'positionCoords': [510.6, 334.5], 'bid': 0.16}, {'imgObject': {}, 'id': 'blackbeanswithrice', 'src': '/static/foodstim60/blackbeanswithrice.jpg', 'key': 'i', 'origWidth': 410, 'origHeight': 410, 'width': 410, 'height': 410, 'widthPercent': 0.45, 'rescaleHeight': False, 'trialN': 24, 'loaded': True, 'loadedTime': 4707.699999928474, 'positionName': 'RIGHT', 'positionCoords': [998.4, 335], 'bid': 5.0200000000000005}]",39593.699999928474,1669831685079,rigatoni,blackbeanswithrice,0.16,5.0200000000000005,4.86,rigatoni,799.9000000953674,800,800.3000000715256,True,u,40903.10000002384,1309.4000000953674,1669831686388,1309,HRV,HRV_0013,2022-11-30 18:11:45
25,"[{'imgObject': {}, 'id': 'bagel plain', 'src': '/static/foodstim60/bagel plain.jpg', 'key': 'u', 'origWidth': 410, 'origHeight': 410, 'width': 410, 'height': 410, 'widthPercent': 0.45, 'rescaleHeight': False, 'trialN': 25, 'loaded': True, 'loadedTime': 4711.699999928474, 'positionName': 'LEFT', 'positionCoords': [511.6, 335], 'bid': 6.08}, {'imgObject': {}, 'id': 'cantaloupe', 'src': '/static/foodstim60/cantaloupe.jpg', 'key': 'i', 'origWidth': 409, 'origHeight': 409, 'width': 409, 'height': 409, 'widthPercent': 0.45, 'rescaleHeight': False, 'trialN': 25, 'loaded': True, 'loadedTime': 4732.399999976158, 'positionName': 'RIGHT', 'positionCoords': [998.4, 335.5], 'bid': 9.38}]",40903.299999952316,1669831686388,bagel plain,cantaloupe,6.08,9.38,3.3000000000000007,cantaloupe,876.3000000715256,877,876.8000000715256,True,i,42303.60000002384,1400.3000000715256,1669831687789,1401,HRV,HRV_0013,2022-11-30 18:11:45
26,"[{'imgObject': {}, 'id': 'orange slices', 'src': '/static/foodstim60/orange slices.jpg', 'key': 'u', 'origWidth': 409, 'origHeight': 410, 'width': 409, 'height': 410, 'widthPercent': 0.45, 'rescaleHeight': False, 'trialN': 26, 'loaded': True, 'loadedTime': 4734.699999928474, 'positionName': 'LEFT', 'positionCoords': [512.6, 335], 'bid': 7.85}, {'imgObject': {}, 'id': 'mango', 'src': '/static/foodstim60/mango.jpg', 'key': 'i', 'origWidth': 411, 'origHeight': 411, 'width': 411, 'height': 411, 'widthPercent': 0.45, 'rescaleHeight': False, 'trialN': 26, 'loaded': True, 'loadedTime': 4797.5, 'positionName': 'RIGHT', 'positionCoords': [998.4, 334.5], 'bid': 8.040000000000001}]",42303.799999952316,1669831687789,orange slices,mango,7.85,8.040000000000001,0.19000000000000128,orange slices,901.1000000238419,901,901.7000000476837,True,u,43713.5,1409.7000000476837,1669831689198,1409,HRV,HRV_0013,2022-11-30 18:11:45
27,"[{'imgObject': {}, 'id': 'chickenfingers', 'src': '/static/foodstim60/chickenfingers.jpg', 'key': 'u', 'origWidth': 410, 'origHeight': 410, 'width': 410, 'height': 410, 'widthPercent': 0.45, 'rescaleHeight': False, 'trialN': 27, 'loaded': True, 'loadedTime': 4800.299999952316, 'positionName': 'LEFT', 'positionCoords': [511.6, 335], 'bid': 6.33}, {'imgObject': {}, 'id': 'mashed potato', 'src': '/static/foodstim60/mashed potato.jpg', 'key': 'i', 'origWidth': 409, 'origHeight': 409, 'width': 409, 'height': 409, 'widthPercent': 0.45, 'rescaleHeight': False, 'trialN': 27, 'loaded': True, 'loadedTime': 4323.399999976158, 'positionName': 'RIGHT', 'positionCoords': [998.4, 335.5], 'bid': 0.07}]",43713.799999952316,1669831689199,chickenfingers,mashed potato,6.33,0.07,-6.26,chickenfingers,730.8000000715256,731,731.0,True,u,44961.89999997616,1248.1000000238419,1669831690447,1248,HRV,HRV_0013,2022-11-30 18:11:45
28,"[{'imgObject': {}, 'id': 'cantaloupe', 'src': '/static/foodstim60/cantaloupe.jpg', 'key': 'u', 'origWidth': 409, 'origHeight': 409, 'width': 409, 'height': 409, 'widthPercent': 0.45, 'rescaleHeight': False, 'trialN': 28, 'loaded': True, 'loadedTime': 4730.899999976158, 'positionName': 'LEFT', 'positionCoords': [512.6, 335.5], 'bid': 9.38}, {'imgObject': {}, 'id': 'strawberries', 'src': '/static/foodstim60/strawberries.jpg', 'key': 'i', 'origWidth': 410, 'origHeight': 410, 'width': 410, 'height': 410, 'widthPercent': 0.45, 'rescaleHeight': False, 'trialN': 28, 'loaded': True, 'loadedTime': 4621.699999928474, 'positionName': 'RIGHT', 'positionCoords': [998.4, 335], 'bid': 8.61}]",44962.10000002384,1669831690447,cantaloupe,strawberries,9.38,8.61,-0.7700000000000014,cantaloupe,755.3999999761581,756,755.6999999284744,True,u,46227.199999928474,1265.0999999046326,1669831691712,1265,HRV,HRV_0013,2022-11-30 18:11:45
29,"[{'imgObject': {}, 'id': 'ice cream sundae 002', 'src': '/static/foodstim60/ice cream sundae 002.jpg', 'key': 'u', 'origWidth': 409, 'origHeight': 409, 'width': 409, 'height': 409, 'widthPercent': 0.45, 'rescaleHeight': False, 'trialN': 29, 'loaded': True, 'loadedTime': 4802.600000023842, 'positionName': 'LEFT', 'positionCoords': [512.6, 335.5], 'bid': 1.51}, {'imgObject': {}, 'id': 'olives', 'src': '/static/foodstim60/olives.jpg', 'key': 'i', 'origWidth': 410, 'origHeight': 410, 'width': 410, 'height': 410, 'widthPercent': 0.45, 'rescaleHeight': False, 'trialN': 29, 'loaded': True, 'loadedTime': 4367.399999976158, 'positionName': 'RIGHT', 'positionCoords': [998.4, 335], 'bid': 2.01}]",46227.39999997616,1669831691712,ice cream sundae 002,olives,1.51,2.01,0.4999999999999998,ice cream sundae 002,996.1000000238419,997,996.3999999761581,True,u,47732.699999928474,1505.2999999523163,1669831693218,1506,HRV,HRV_0013,2022-11-30 18:11:45
30,"[{'imgObject': {}, 'id': 'bagel and cc', 'src': '/static/foodstim60/bagel and cc.jpg', 'key': 'u', 'origWidth': 410, 'origHeight': 410, 'width': 410, 'height': 410, 'widthPercent': 0.45, 'rescaleHeight': False, 'trialN': 30, 'loaded': True, 'loadedTime': 4804.299999952316, 'positionName': 'LEFT', 'positionCoords': [511.6, 335], 'bid': 3.17}, {'imgObject': {}, 'id': 'burger', 'src': '/static/foodstim60/burger.jpg', 'key': 'i', 'origWidth': 409, 'origHeight': 409, 'width': 409, 'height': 409, 'widthPercent': 0.45, 'rescaleHeight': False, 'trialN': 30, 'loaded': True, 'loadedTime': 4848.799999952316, 'positionName': 'RIGHT', 'positionCoords': [998.4, 335.5], 'bid': 3.78}]",47732.89999997616,1669831693218,bagel and cc,burger,3.17,3.78,0.6099999999999999,bagel and cc,1027.6000000238419,1028,1027.8999999761581,True,u,49262.89999997616,1530.0,1669831694748,1530,HRV,HRV_0013,2022-11-30 18:11:45
31,"[{'imgObject': {}, 'id': 'hotdog w must', 'src': '/static/foodstim60/hotdog w must.jpg', 'key': 'u', 'origWidth': 409, 'origHeight': 409, 'width': 409, 'height': 409, 'widthPercent': 0.45, 'rescaleHeight': False, 'trialN': 31, 'loaded': True, 'loadedTime': 4330.199999928474, 'positionName': 'LEFT', 'positionCoords': [512.6, 335.5], 'bid': 1.32}, {'imgObject': {}, 'id': 'sushi w_condiments', 'src': '/static/foodstim60/sushi w_condiments.jpg', 'key': 'i', 'origWidth': 410, 'origHeight': 410, 'width': 410, 'height': 410, 'widthPercent': 0.45, 'rescaleHeight': False, 'trialN': 31, 'loaded': True, 'loadedTime': 3786.1999999284744, 'positionName': 'RIGHT', 'positionCoords': [998.4, 335], 'bid': 5.0200000000000005}]",49263.199999928474,1669831694748,hotdog w must,sushi w_condiments,1.32,5.0200000000000005,3.7,sushi w_condiments,785.3000000715256,786,785.6000000238419,True,i,50558.10000002384,1294.9000000953674,1669831696043,1295,HRV,HRV_0013,2022-11-30 18:11:45
32,"[{'imgObject': {}, 'id': 'avocado', 'src': '/static/foodstim60/avocado.jpg', 'key': 'u', 'origWidth': 409, 'origHeight': 409, 'width': 409, 'height': 409, 'widthPercent': 0.45, 'rescaleHeight': False, 'trialN': 32, 'loaded': True, 'loadedTime': 4860.799999952316, 'positionName': 'LEFT', 'positionCoords': [512.6, 335.5], 'bid': 5.59}, {'imgObject': {}, 'id': 'edamame', 'src': '/static/foodstim60/edamame.jpg', 'key': 'i', 'origWidth': 409, 'origHeight': 410, 'width': 409, 'height': 410, 'widthPercent': 0.45, 'rescaleHeight': False, 'trialN': 32, 'loaded': True, 'loadedTime': 4335.399999976158, 'positionName': 'RIGHT', 'positionCoords': [998.4, 335], 'bid': 2.22}]",50558.299999952316,1669831696043,avocado,edamame,5.59,2.22,-3.3699999999999997,edamame,891.2000000476837,892,891.5,True,i,51967.89999997616,1409.6000000238419,1669831697453,1410,HRV,HRV_0013,2022-11-30 18:11:45
33,"[{'imgObject': {}, 'id': 'hashbrowns', 'src': '/static/foodstim60/hashbrowns.jpg', 'key': 'u', 'origWidth': 411, 'origHeight': 410, 'width': 411, 'height': 410, 'widthPercent': 0.45, 'rescaleHeight': False, 'trialN': 33, 'loaded': True, 'loadedTime': 3807.2999999523163, 'positionName': 'LEFT', 'positionCoords': [510.6, 335], 'bid': 0.15}, {'imgObject': {}, 'id': 'mac & cheese', 'src': '/static/foodstim60/mac & cheese.jpg', 'key': 'i', 'origWidth': 410, 'origHeight': 410, 'width': 410, 'height': 410, 'widthPercent': 0.45, 'rescaleHeight': False, 'trialN': 33, 'loaded': True, 'loadedTime': 3805.100000023842, 'positionName': 'RIGHT', 'positionCoords': [998.4, 335], 'bid': 0.1}]",51968.199999928474,1669831697453,hashbrowns,mac & cheese,0.15,0.1,-0.04999999999999999,hashbrowns,734.3000000715256,735,734.6000000238419,True,u,53216.60000002384,1248.4000000953674,1669831698702,1249,HRV,HRV_0013,2022-11-30 18:11:45
34,"[{'imgObject': {}, 'id': 'luckycharms', 'src': '/static/foodstim60/luckycharms.jpg', 'key': 'u', 'origWidth': 410, 'origHeight': 409, 'width': 410, 'height': 409, 'widthPercent': 0.45, 'rescaleHeight': False, 'trialN': 34, 'loaded': True, 'loadedTime': 3945.5, 'positionName': 'LEFT', 'positionCoords': [511.6, 335.5], 'bid': 7.58}, {'imgObject': {}, 'id': 'rigatoni and sauce', 'src': '/static/foodstim60/rigatoni and sauce.jpg', 'key': 'i', 'origWidth': 410, 'origHeight': 411, 'width': 410, 'height': 411, 'widthPercent': 0.45, 'rescaleHeight': False, 'trialN': 34, 'loaded': True, 'loadedTime': 4366.100000023842, 'positionName': 'RIGHT', 'positionCoords': [998.4, 334.5], 'bid': 1.58}]",53216.89999997616,1669831698702,luckycharms,rigatoni and sauce,7.58,1.58,-6.0,luckycharms,726.1000000238419,726,726.6000000238419,True,u,54454.39999997616,1237.5,1669831699939,1237,HRV,HRV_0013,2022-11-30 18:11:45
35,"[{'imgObject': {}, 'id': 'lox', 'src': '/static/foodstim60/lox.jpg', 'key': 'u', 'origWidth': 410, 'origHeight': 411, 'width': 410, 'height': 411, 'widthPercent': 0.45, 'rescaleHeight': False, 'trialN': 35, 'loaded': True, 'loadedTime': 4317.299999952316, 'positionName': 'LEFT', 'positionCoords': [511.6, 334.5], 'bid': 7.45}, {'imgObject': {}, 'id': 'salad w chicken', 'src': '/static/foodstim60/salad w chicken.jpg', 'key': 'i', 'origWidth': 411, 'origHeight': 411, 'width': 411, 'height': 411, 'widthPercent': 0.45, 'rescaleHeight': False, 'trialN': 35, 'loaded': True, 'loadedTime': 4862.899999976158, 'positionName': 'RIGHT', 'positionCoords': [998.4, 334.5], 'bid': 8.61}]",54454.5,1669831699939,lox,salad w chicken,7.45,8.61,1.1599999999999993,salad w chicken,793.8999999761581,795,794.2999999523163,True,i,55754.799999952316,1300.2999999523163,1669831701240,1301,HRV,HRV_0013,2022-11-30 18:11:45
36,"[{'imgObject': {}, 'id': 'raspberries', 'src': '/static/foodstim60/raspberries.jpg', 'key': 'u', 'origWidth': 411, 'origHeight': 411, 'width': 411, 'height': 411, 'widthPercent': 0.45, 'rescaleHeight': False, 'trialN': 36, 'loaded': True, 'loadedTime': 4867.199999928474, 'positionName': 'LEFT', 'positionCoords': [510.6, 334.5], 'bid': 8.17}, {'imgObject': {}, 'id': 'burger', 'src': '/static/foodstim60/burger.jpg', 'key': 'i', 'origWidth': 409, 'origHeight': 409, 'width': 409, 'height': 409, 'widthPercent': 0.45, 'rescaleHeight': False, 'trialN': 36, 'loaded': True, 'loadedTime': 4849.299999952316, 'positionName': 'RIGHT', 'positionCoords': [998.4, 335.5], 'bid': 3.78}]",55755.0,1669831701240,raspberries,burger,8.17,3.78,-4.390000000000001,raspberries,781.3999999761581,782,781.6999999284744,True,u,57044.0,1289.0,1669831702529,1289,HRV,HRV_0013,2022-11-30 18:11:45
37,"[{'imgObject': {}, 'id': 'raisin bran w milk', 'src': '/static/foodstim60/raisin bran w milk.jpg', 'key': 'u', 'origWidth': 411, 'origHeight': 411, 'width': 411, 'height': 411, 'widthPercent': 0.45, 'rescaleHeight': False, 'trialN': 37, 'loaded': True, 'loadedTime': 4868.100000023842, 'positionName': 'LEFT', 'positionCoords': [510.6, 334.5], 'bid': 5.04}, {'imgObject': {}, 'id': 'burrito', 'src': '/static/foodstim60/burrito.jpg', 'key': 'i', 'origWidth': 410, 'origHeight': 410, 'width': 410, 'height': 410, 'widthPercent': 0.45, 'rescaleHeight': False, 'trialN': 37, 'loaded': True, 'loadedTime': 4362.399999976158, 'positionName': 'RIGHT', 'positionCoords': [998.4, 335], 'bid': 5.07}]",57044.10000002384,1669831702529,raisin bran w milk,burrito,5.04,5.07,0.03000000000000025,raisin bran w milk,1055.2999999523163,1056,1055.5999999046326,True,u,58614.799999952316,1570.6999999284744,1669831704100,1571,HRV,HRV_0013,2022-11-30 18:11:45
38,"[{'imgObject': {}, 'id': 'ice cream sundae 002', 'src': '/static/foodstim60/ice cream sundae 002.jpg', 'key': 'u', 'origWidth': 409, 'origHeight': 409, 'width': 409, 'height': 409, 'widthPercent': 0.45, 'rescaleHeight': False, 'trialN': 38, 'loaded': True, 'loadedTime': 4802.600000023842, 'positionName': 'LEFT', 'positionCoords': [512.6, 335.5], 'bid': 1.51}, {'imgObject': {}, 'id': 'blueberries', 'src': '/static/foodstim60/blueberries.jpg', 'key': 'i', 'origWidth': 411, 'origHeight': 411, 'width': 411, 'height': 411, 'widthPercent': 0.45, 'rescaleHeight': False, 'trialN': 38, 'loaded': True, 'loadedTime': 4873.699999928474, 'positionName': 'RIGHT', 'positionCoords': [998.4, 334.5], 'bid': 7.5}]",58614.89999997616,1669831704100,ice cream sundae 002,blueberries,1.51,7.5,5.99,blueberries,699.3999999761581,700,699.7999999523163,True,i,59830.10000002384,1215.2000000476837,1669831705315,1215,HRV,HRV_0013,2022-11-30 18:11:45
39,"[{'imgObject': {}, 'id': 'seaweed', 'src': '/static/foodstim60/seaweed.jpg', 'key': 'u', 'origWidth': 410, 'origHeight': 410, 'width': 410, 'height': 410, 'widthPercent': 0.45, 'rescaleHeight': False, 'trialN': 39, 'loaded': True, 'loadedTime': 4874.199999928474, 'positionName': 'LEFT', 'positionCoords': [511.6, 335], 'bid': 0.21}, {'imgObject': {}, 'id': 'rigatoni', 'src': '/static/foodstim60/rigatoni.jpg', 'key': 'i', 'origWidth': 411, 'origHeight': 411, 'width': 411, 'height': 411, 'widthPercent': 0.45, 'rescaleHeight': False, 'trialN': 39, 'loaded': True, 'loadedTime': 4304.100000023842, 'positionName': 'RIGHT', 'positionCoords': [998.4, 334.5], 'bid': 0.16}]",59830.199999928474,1669831705315,seaweed,rigatoni,0.21,0.16,-0.04999999999999999,rigatoni,853.2000000476837,854,853.6000000238419,True,i,61194.39999997616,1364.2000000476837,1669831706679,1364,HRV,HRV_0013,2022-11-30 18:11:45
40,"[{'imgObject': {}, 'id': 'granola w milk', 'src': '/static/foodstim60/granola w milk.jpg', 'key': 'u', 'origWidth': 410, 'origHeight': 410, 'width': 410, 'height': 410, 'widthPercent': 0.45, 'rescaleHeight': False, 'trialN': 40, 'loaded': True, 'loadedTime': 4460.699999928474, 'positionName': 'LEFT', 'positionCoords': [511.6, 335], 'bid': 5.03}, {'imgObject': {}, 'id': 'seaweed', 'src': '/static/foodstim60/seaweed.jpg', 'key': 'i', 'origWidth': 410, 'origHeight': 410, 'width': 410, 'height': 410, 'widthPercent': 0.45, 'rescaleHeight': False, 'trialN': 40, 'loaded': True, 'loadedTime': 4877.199999928474, 'positionName': 'RIGHT', 'positionCoords': [998.4, 335], 'bid': 0.21}]",61194.60000002384,1669831706680,granola w milk,seaweed,5.03,0.21,-4.82,seaweed,998.7999999523163,999,999.0999999046326,True,i,62704.699999928474,1510.0999999046326,1669831708190,1510,HRV,HRV_0013,2022-11-30 18:11:45
41,"[{'imgObject': {}, 'id': 'banana', 'src': '/static/foodstim60/banana.jpg', 'key': 'u', 'origWidth': 410, 'origHeight': 410, 'width': 410, 'height': 410, 'widthPercent': 0.45, 'rescaleHeight': False, 'trialN': 41, 'loaded': True, 'loadedTime': 4881.699999928474, 'positionName': 'LEFT', 'positionCoords': [511.6, 335], 'bid': 9.32}, {'imgObject': {}, 'id': 'orange slices', 'src': '/static/foodstim60/orange slices.jpg', 'key': 'i', 'origWidth': 409, 'origHeight': 410, 'width': 409, 'height': 410, 'widthPercent': 0.45, 'rescaleHeight': False, 'trialN': 41, 'loaded': True, 'loadedTime': 4738.299999952316, 'positionName': 'RIGHT', 'positionCoords': [998.4, 335], 'bid': 7.85}]",62704.89999997616,1669831708190,banana,orange slices,9.32,7.85,-1.4700000000000006,banana,644.2999999523163,645,644.7000000476837,True,u,63862.5,1157.6000000238419,1669831709347,1157,HRV,HRV_0013,2022-11-30 18:11:45
42,"[{'imgObject': {}, 'id': 'cherries', 'src': '/static/foodstim60/cherries.jpg', 'key': 'u', 'origWidth': 410, 'origHeight': 411, 'width': 410, 'height': 411, 'widthPercent': 0.45, 'rescaleHeight': False, 'trialN': 42, 'loaded': True, 'loadedTime': 4533.299999952316, 'positionName': 'LEFT', 'positionCoords': [511.6, 334.5], 'bid': 6.13}, {'imgObject': {}, 'id': 'bagel plain', 'src': '/static/foodstim60/bagel plain.jpg', 'key': 'i', 'origWidth': 410, 'origHeight': 410, 'width': 410, 'height': 410, 'widthPercent': 0.45, 'rescaleHeight': False, 'trialN': 42, 'loaded': True, 'loadedTime': 4711.399999976158, 'positionName': 'RIGHT', 'positionCoords': [998.4, 335], 'bid': 6.08}]",63862.699999928474,1669831709348,cherries,bagel plain,6.13,6.08,-0.04999999999999982,cherries,584.0,584,584.4000000953674,True,u,64964.5,1101.8000000715256,1669831710449,1101,HRV,HRV_0013,2022-11-30 18:11:45
43,"[{'imgObject': {}, 'id': 'burger', 'src': '/static/foodstim60/burger.jpg', 'key': 'u', 'origWidth': 409, 'origHeight': 409, 'width': 409, 'height': 409, 'widthPercent': 0.45, 'rescaleHeight': False, 'trialN': 43, 'loaded': True, 'loadedTime': 4847.399999976158, 'positionName': 'LEFT', 'positionCoords': [512.6, 335.5], 'bid': 3.78}, {'imgObject': {}, 'id': 'cocktailshrimp', 'src': '/static/foodstim60/cocktailshrimp.jpg', 'key': 'i', 'origWidth': 410, 'origHeight': 410, 'width': 410, 'height': 410, 'widthPercent': 0.45, 'rescaleHeight': False, 'trialN': 43, 'loaded': True, 'loadedTime': 4204.299999952316, 'positionName': 'RIGHT', 'positionCoords': [998.4, 335], 'bid': 3.6}]",64964.699999928474,1669831710450,burger,cocktailshrimp,3.78,3.6,-0.17999999999999972,cocktailshrimp,841.5,841,841.8000000715256,True,i,66324.69999992847,1360.0,1669831711810,1360,HRV,HRV_0013,2022-11-30 18:11:45
44,"[{'imgObject': {}, 'id': 'bagel plain', 'src': '/static/foodstim60/bagel plain.jpg', 'key': 'u', 'origWidth': 410, 'origHeight': 410, 'width': 410, 'height': 410, 'widthPercent': 0.45, 'rescaleHeight': False, 'trialN': 44, 'loaded': True, 'loadedTime': 4714.399999976158, 'positionName': 'LEFT', 'positionCoords': [511.6, 335], 'bid': 6.08}, {'imgObject': {}, 'id': 'bagel and cc', 'src': '/static/foodstim60/bagel and cc.jpg', 'key': 'i', 'origWidth': 410, 'origHeight': 410, 'width': 410, 'height': 410, 'widthPercent': 0.45, 'rescaleHeight': False, 'trialN': 44, 'loaded': True, 'loadedTime': 4804, 'positionName': 'RIGHT', 'positionCoords': [998.4, 335], 'bid': 3.17}]",66324.79999995232,1669831711810,bagel plain,bagel and cc,6.08,3.17,-2.91,bagel and cc,1226.5,1227,1226.8999999761581,True,i,68055.69999992847,1730.8999999761581,1669831713541,1731,HRV,HRV_0013,2022-11-30 18:11:45
45,"[{'imgObject': {}, 'id': 'Tribe humus pita', 'src': '/static/foodstim60/Tribe humus pita.jpg', 'key': 'u', 'origWidth': 411, 'origHeight': 411, 'width': 411, 'height': 411, 'widthPercent': 0.45, 'rescaleHeight': False, 'trialN': 45, 'loaded': True, 'loadedTime': 4697.899999976158, 'positionName': 'LEFT', 'positionCoords': [510.6, 334.5], 'bid': 5.01}, {'imgObject': {}, 'id': 'omelette', 'src': '/static/foodstim60/omelette.jpg', 'key': 'i', 'origWidth': 410, 'origHeight': 409, 'width': 410, 'height': 409, 'widthPercent': 0.45, 'rescaleHeight': False, 'trialN': 45, 'loaded': True, 'loadedTime': 3809.399999976158, 'positionName': 'RIGHT', 'positionCoords': [998.4, 335.5], 'bid': 0.11}]",68055.79999995232,1669831713541,Tribe humus pita,omelette,5.01,0.11,-4.8999999999999995,omelette,944.5,944,944.7000000476837,True,i,69511.79999995232,1456.0,1669831714997,1456,HRV,HRV_0013,2022-11-30 18:11:45
46,"[{'imgObject': {}, 'id': 'mango', 'src': '/static/foodstim60/mango.jpg', 'key': 'u', 'origWidth': 411, 'origHeight': 411, 'width': 411, 'height': 411, 'widthPercent': 0.45, 'rescaleHeight': False, 'trialN': 46, 'loaded': True, 'loadedTime': 4797.799999952316, 'positionName': 'LEFT', 'positionCoords': [510.6, 334.5], 'bid': 8.040000000000001}, {'imgObject': {}, 'id': 'turkey sandwich', 'src': '/static/foodstim60/turkey sandwich.jpg', 'key': 'i', 'origWidth': 409, 'origHeight': 409, 'width': 409, 'height': 409, 'widthPercent': 0.45, 'rescaleHeight': False, 'trialN': 46, 'loaded': True, 'loadedTime': 4028.1999999284744, 'positionName': 'RIGHT', 'positionCoords': [998.4, 335.5], 'bid': 7.62}]",69511.89999997616,1669831714997,mango,turkey sandwich,8.040000000000001,7.62,-0.4200000000000008,turkey sandwich,1082.3999999761581,1082,1082.6000000238419,True,i,71115.39999997616,1603.5,1669831716600,1603,HRV,HRV_0013,2022-11-30 18:11:45
47,"[{'imgObject': {}, 'id': 'pear', 'src': '/static/foodstim60/pear.jpg', 'key': 'u', 'origWidth': 411, 'origHeight': 410, 'width': 411, 'height': 410, 'widthPercent': 0.45, 'rescaleHeight': False, 'trialN': 47, 'loaded': True, 'loadedTime': 4882.600000023842, 'positionName': 'LEFT', 'positionCoords': [510.6, 335], 'bid': 8.16}, {'imgObject': {}, 'id': 'raspberries', 'src': '/static/foodstim60/raspberries.jpg', 'key': 'i', 'origWidth': 411, 'origHeight': 411, 'width': 411, 'height': 411, 'widthPercent': 0.45, 'rescaleHeight': False, 'trialN': 47, 'loaded': True, 'loadedTime': 4866.199999928474, 'positionName': 'RIGHT', 'positionCoords': [998.4, 334.5], 'bid': 8.17}]",71115.60000002384,1669831716601,pear,raspberries,8.16,8.17,0.009999999999999787,pear,780.5999999046326,781,781.0999999046326,True,u,72403.29999995232,1287.6999999284744,1669831717888,1287,HRV,HRV_0013,2022-11-30 18:11:45
48,"[{'imgObject': {}, 'id': 'chickenfingers', 'src': '/static/foodstim60/chickenfingers.jpg', 'key': 'u', 'origWidth': 410, 'origHeight': 410, 'width': 410, 'height': 410, 'widthPercent': 0.45, 'rescaleHeight': False, 'trialN': 48, 'loaded': True, 'loadedTime': 4800.5, 'positionName': 'LEFT', 'positionCoords': [511.6, 335], 'bid': 6.33}, {'imgObject': {}, 'id': 'granola w milk', 'src': '/static/foodstim60/granola w milk.jpg', 'key': 'i', 'origWidth': 410, 'origHeight': 410, 'width': 410, 'height': 410, 'widthPercent': 0.45, 'rescaleHeight': False, 'trialN': 48, 'loaded': True, 'loadedTime': 4463.299999952316, 'positionName': 'RIGHT', 'positionCoords': [998.4, 335], 'bid': 5.03}]",72403.5,1669831717888,chickenfingers,granola w milk,6.33,5.03,-1.2999999999999998,chickenfingers,846.7999999523163,848,847.1000000238419,True,u,73767.60000002384,1364.1000000238419,1669831719253,1365,HRV,HRV_0013,2022-11-30 18:11:45
49,"[{'imgObject': {}, 'id': 'sweetpotato', 'src': '/static/foodstim60/sweetpotato.jpg', 'key': 'u', 'origWidth': 410, 'origHeight': 410, 'width': 410, 'height': 410, 'widthPercent': 0.45, 'rescaleHeight': False, 'trialN': 49, 'loaded': True, 'loadedTime': 4888.199999928474, 'positionName': 'LEFT', 'positionCoords': [511.6, 335], 'bid': 5.04}, {'imgObject': {}, 'id': 'eggsalad', 'src': '/static/foodstim60/eggsalad.jpg', 'key': 'i', 'origWidth': 410, 'origHeight': 409, 'width': 410, 'height': 409, 'widthPercent': 0.45, 'rescaleHeight': False, 'trialN': 49, 'loaded': True, 'loadedTime': 3794.100000023842, 'positionName': 'RIGHT', 'positionCoords': [998.4, 335.5], 'bid': 4.91}]",73767.89999997616,1669831719253,sweetpotato,eggsalad,5.04,4.91,-0.1299999999999999,sweetpotato,985.2000000476837,985,985.7000000476837,True,u,75264.10000002384,1496.2000000476837,1669831720749,1496,HRV,HRV_0013,2022-11-30 18:11:45
50,"[{'imgObject': {}, 'id': 'popsicles', 'src': '/static/foodstim60/popsicles.jpg', 'key': 'u', 'origWidth': 410, 'origHeight': 410, 'width': 410, 'height': 410, 'widthPercent': 0.45, 'rescaleHeight': False, 'trialN': 50, 'loaded': True, 'loadedTime': 4892.699999928474, 'positionName': 'LEFT', 'positionCoords': [511.6, 335], 'bid': 8.41}, {'imgObject': {}, 'id': 'eggs', 'src': '/static/foodstim60/eggs.jpg', 'key': 'i', 'origWidth': 409, 'origHeight': 409, 'width': 409, 'height': 409, 'widthPercent': 0.45, 'rescaleHeight': False, 'trialN': 50, 'loaded': True, 'loadedTime': 4695.100000023842, 'positionName': 'RIGHT', 'positionCoords': [998.4, 335.5], 'bid': 8.83}]",75264.19999992847,1669831720749,popsicles,eggs,8.41,8.83,0.41999999999999993,popsicles,790.9000000953674,791,791.3000000715256,True,u,76568.0,1303.8000000715256,1669831722053,1304,HRV,HRV_0013,2022-11-30 18:11:45
51,"[{'imgObject': {}, 'id': 'steak', 'src': '/static/foodstim60/steak.jpg', 'key': 'u', 'origWidth': 410, 'origHeight': 410, 'width': 410, 'height': 410, 'widthPercent': 0.45, 'rescaleHeight': False, 'trialN': 51, 'loaded': True, 'loadedTime': 4894.299999952316, 'positionName': 'LEFT', 'positionCoords': [511.6, 335], 'bid': 9.39}, {'imgObject': {}, 'id': 'banana', 'src': '/static/foodstim60/banana.jpg', 'key': 'i', 'origWidth': 410, 'origHeight': 410, 'width': 410, 'height': 410, 'widthPercent': 0.45, 'rescaleHeight': False, 'trialN': 51, 'loaded': True, 'loadedTime': 4878.899999976158, 'positionName': 'RIGHT', 'positionCoords': [998.4, 335], 'bid': 9.32}]",76568.29999995232,1669831722053,steak,banana,9.39,9.32,-0.07000000000000028,steak,826.8999999761581,827,827.2000000476837,True,u,77910.19999992847,1341.8999999761581,1669831723395,1342,HRV,HRV_0013,2022-11-30 18:11:45
52,"[{'imgObject': {}, 'id': 'bagel plain', 'src': '/static/foodstim60/bagel plain.jpg', 'key': 'u', 'origWidth': 410, 'origHeight': 410, 'width': 410, 'height': 410, 'widthPercent': 0.45, 'rescaleHeight': False, 'trialN': 52, 'loaded': True, 'loadedTime': 4713.399999976158, 'positionName': 'LEFT', 'positionCoords': [511.6, 335], 'bid': 6.08}, {'imgObject': {}, 'id': 'lox', 'src': '/static/foodstim60/lox.jpg', 'key': 'i', 'origWidth': 410, 'origHeight': 411, 'width': 410, 'height': 411, 'widthPercent': 0.45, 'rescaleHeight': False, 'trialN': 52, 'loaded': True, 'loadedTime': 4316.699999928474, 'positionName': 'RIGHT', 'positionCoords': [998.4, 334.5], 'bid': 7.45}]",77910.39999997616,1669831723395,bagel plain,lox,6.08,7.45,1.37,lox,913.7999999523163,914,914.1000000238419,True,i,79330.29999995232,1419.8999999761581,1669831724815,1420,HRV,HRV_0013,2022-11-30 18:11:45
53,"[{'imgObject': {}, 'id': 'lox', 'src': '/static/foodstim60/lox.jpg', 'key': 'u', 'origWidth': 410, 'origHeight': 411, 'width': 410, 'height': 411, 'widthPercent': 0.45, 'rescaleHeight': False, 'trialN': 53, 'loaded': True, 'loadedTime': 4315.299999952316, 'positionName': 'LEFT', 'positionCoords': [511.6, 334.5], 'bid': 7.45}, {'imgObject': {}, 'id': 'blueberries', 'src': '/static/foodstim60/blueberries.jpg', 'key': 'i', 'origWidth': 411, 'origHeight': 411, 'width': 411, 'height': 411, 'widthPercent': 0.45, 'rescaleHeight': False, 'trialN': 53, 'loaded': True, 'loadedTime': 4873.399999976158, 'positionName': 'RIGHT', 'positionCoords': [998.4, 334.5], 'bid': 7.5}]",79330.5,1669831724815,lox,blueberries,7.45,7.5,0.04999999999999982,lox,845.6000000238419,846,846.0,True,u,80689.60000002384,1359.1000000238419,1669831726175,1360,HRV,HRV_0013,2022-11-30 18:11:45
54,"[{'imgObject': {}, 'id': 'popsicles', 'src': '/static/foodstim60/popsicles.jpg', 'key': 'u', 'origWidth': 410, 'origHeight': 410, 'width': 410, 'height': 410, 'widthPercent': 0.45, 'rescaleHeight': False, 'trialN': 54, 'loaded': True, 'loadedTime': 4892.399999976158, 'positionName': 'LEFT', 'positionCoords': [511.6, 335], 'bid': 8.41}, {'imgObject': {}, 'id': 'cantaloupe', 'src': '/static/foodstim60/cantaloupe.jpg', 'key': 'i', 'origWidth': 409, 'origHeight': 409, 'width': 409, 'height': 409, 'widthPercent': 0.45, 'rescaleHeight': False, 'trialN': 54, 'loaded': True, 'loadedTime': 4731.5, 'positionName': 'RIGHT', 'positionCoords': [998.4, 335.5], 'bid': 9.38}]",80689.69999992847,1669831726175,popsicles,cantaloupe,8.41,9.38,0.9700000000000006,cantaloupe,876.4000000953674,876,876.7000000476837,True,i,82084.89999997616,1395.2000000476837,1669831727570,1395,HRV,HRV_0013,2022-11-30 18:11:45
55,"[{'imgObject': {}, 'id': 'apple slices', 'src': '/static/foodstim60/apple slices.jpg', 'key': 'u', 'origWidth': 409, 'origHeight': 410, 'width': 409, 'height': 410, 'widthPercent': 0.45, 'rescaleHeight': False, 'trialN': 55, 'loaded': True, 'loadedTime': 4304.699999928474, 'positionName': 'LEFT', 'positionCoords': [512.6, 335], 'bid': 7.15}, {'imgObject': {}, 'id': 'froot loops w milk', 'src': '/static/foodstim60/froot loops w milk.jpg', 'key': 'i', 'origWidth': 410, 'origHeight': 410, 'width': 410, 'height': 410, 'widthPercent': 0.45, 'rescaleHeight': False, 'trialN': 55, 'loaded': True, 'loadedTime': 4897.5, 'positionName': 'RIGHT', 'positionCoords': [998.4, 335], 'bid': 8.540000000000001}]",82085.0,1669831727570,apple slices,froot loops w milk,7.15,8.540000000000001,1.3900000000000006,froot loops w milk,1381.0,1381,1381.2999999523163,True,i,83981.19999992847,1896.1999999284744,1669831729466,1896,HRV,HRV_0013,2022-11-30 18:11:45
56,"[{'imgObject': {}, 'id': 'steak', 'src': '/static/foodstim60/steak.jpg', 'key': 'u', 'origWidth': 410, 'origHeight': 410, 'width': 410, 'height': 410, 'widthPercent': 0.45, 'rescaleHeight': False, 'trialN': 56, 'loaded': True, 'loadedTime': 4894.5, 'positionName': 'LEFT', 'positionCoords': [511.6, 335], 'bid': 9.39}, {'imgObject': {}, 'id': 'fruitsalad', 'src': '/static/foodstim60/fruitsalad.jpg', 'key': 'i', 'origWidth': 410, 'origHeight': 410, 'width': 410, 'height': 410, 'widthPercent': 0.45, 'rescaleHeight': False, 'trialN': 56, 'loaded': True, 'loadedTime': 4899, 'positionName': 'RIGHT', 'positionCoords': [998.4, 335], 'bid': 8.42}]",83981.29999995232,1669831729466,steak,fruitsalad,9.39,8.42,-0.9700000000000006,steak,848.8000000715256,849,849.2000000476837,True,u,85337.39999997616,1356.1000000238419,1669831730822,1356,HRV,HRV_0013,2022-11-30 18:11:45
57,"[{'imgObject': {}, 'id': 'pear', 'src': '/static/foodstim60/pear.jpg', 'key': 'u', 'origWidth': 411, 'origHeight': 410, 'width': 411, 'height': 410, 'widthPercent': 0.45, 'rescaleHeight': False, 'trialN': 57, 'loaded': True, 'loadedTime': 4884.600000023842, 'positionName': 'LEFT', 'positionCoords': [510.6, 335], 'bid': 8.16}, {'imgObject': {}, 'id': 'corn cob', 'src': '/static/foodstim60/corn cob.jpg', 'key': 'i', 'origWidth': 411, 'origHeight': 411, 'width': 411, 'height': 411, 'widthPercent': 0.45, 'rescaleHeight': False, 'trialN': 57, 'loaded': True, 'loadedTime': 3809.600000023842, 'positionName': 'RIGHT', 'positionCoords': [998.4, 334.5], 'bid': 8.18}]",85337.60000002384,1669831730823,pear,corn cob,8.16,8.18,0.019999999999999574,pear,758.3999999761581,758,758.6999999284744,True,u,86601.39999997616,1263.7999999523163,1669831732086,1263,HRV,HRV_0013,2022-11-30 18:11:45
58,"[{'imgObject': {}, 'id': 'shreddedwheatwithmilk', 'src': '/static/foodstim60/shreddedwheatwithmilk.jpg', 'key': 'u', 'origWidth': 410, 'origHeight': 410, 'width': 410, 'height': 410, 'widthPercent': 0.45, 'rescaleHeight': False, 'trialN': 58, 'loaded': True, 'loadedTime': 3784, 'positionName': 'LEFT', 'positionCoords': [511.6, 335], 'bid': 5.09}, {'imgObject': {}, 'id': 'eggs', 'src': '/static/foodstim60/eggs.jpg', 'key': 'i', 'origWidth': 409, 'origHeight': 409, 'width': 409, 'height': 409, 'widthPercent': 0.45, 'rescaleHeight': False, 'trialN': 58, 'loaded': True, 'loadedTime': 4694.199999928474, 'positionName': 'RIGHT', 'positionCoords': [998.4, 335.5], 'bid': 8.83}]",86601.60000002384,1669831732087,shreddedwheatwithmilk,eggs,5.09,8.83,3.74,eggs,678.6999999284744,679,679.0,True,i,87782.60000002384,1181.0,1669831733268,1181,HRV,HRV_0013,2022-11-30 18:11:45
59,"[{'imgObject': {}, 'id': 'strawberries', 'src': '/static/foodstim60/strawberries.jpg', 'key': 'u', 'origWidth': 410, 'origHeight': 410, 'width': 410, 'height': 410, 'widthPercent': 0.45, 'rescaleHeight': False, 'trialN': 59, 'loaded': True, 'loadedTime': 4657, 'positionName': 'LEFT', 'positionCoords': [511.6, 335], 'bid': 8.61}, {'imgObject': {}, 'id': 'orange slices', 'src': '/static/foodstim60/orange slices.jpg', 'key': 'i', 'origWidth': 409, 'origHeight': 410, 'width': 409, 'height': 410, 'widthPercent': 0.45, 'rescaleHeight': False, 'trialN': 59, 'loaded': True, 'loadedTime': 4732.699999928474, 'positionName': 'RIGHT', 'positionCoords': [998.4, 335], 'bid': 7.85}]",87782.79999995232,1669831733268,strawberries,orange slices,8.61,7.85,-0.7599999999999998,orange slices,759.2000000476837,759,759.6000000238419,True,i,89053.10000002384,1270.3000000715256,1669831734538,1270,HRV,HRV_0013,2022-11-30 18:11:45
60,"[{'imgObject': {}, 'id': 'shreddedwheatwithmilk', 'src': '/static/foodstim60/shreddedwheatwithmilk.jpg', 'key': 'u', 'origWidth': 410, 'origHeight': 410, 'width': 410, 'height': 410, 'widthPercent': 0.45, 'rescaleHeight': False, 'trialN': 60, 'loaded': True, 'loadedTime': 3767.100000023842, 'positionName': 'LEFT', 'positionCoords': [511.6, 335], 'bid': 5.09}, {'imgObject': {}, 'id': 'ice cream sundae 002', 'src': '/static/foodstim60/ice cream sundae 002.jpg', 'key': 'i', 'origWidth': 409, 'origHeight': 409, 'width': 409, 'height': 409, 'widthPercent': 0.45, 'rescaleHeight': False, 'trialN': 60, 'loaded': True, 'loadedTime': 4802.299999952316, 'positionName': 'RIGHT', 'positionCoords': [998.4, 335.5], 'bid': 1.51}]",89053.19999992847,1669831734538,shreddedwheatwithmilk,ice cream sundae 002,5.09,1.51,-3.58,ice cream sundae 002,953.7000000476837,954,954.1000000238419,True,i,90521.19999992847,1468.0,1669831736006,1468,HRV,HRV_0013,2022-11-30 18:11:45
61,"[{'imgObject': {}, 'id': 'veggieswithdip', 'src': '/static/foodstim60/veggieswithdip.jpg', 'key': 'u', 'origWidth': 409, 'origHeight': 409, 'width': 409, 'height': 409, 'widthPercent': 0.45, 'rescaleHeight': False, 'trialN': 61, 'loaded': True, 'loadedTime': 4906.299999952316, 'positionName': 'LEFT', 'positionCoords': [512.6, 335.5], 'bid': 5.11}, {'imgObject': {}, 'id': 'olives', 'src': '/static/foodstim60/olives.jpg', 'key': 'i', 'origWidth': 410, 'origHeight': 410, 'width': 410, 'height': 410, 'widthPercent': 0.45, 'rescaleHeight': False, 'trialN': 61, 'loaded': True, 'loadedTime': 4372.5, 'positionName': 'RIGHT', 'positionCoords': [998.4, 335], 'bid': 2.01}]",90521.29999995232,1669831736006,veggieswithdip,olives,5.11,2.01,-3.1000000000000005,veggieswithdip,630.7000000476837,631,631.0,True,u,91656.19999992847,1134.8999999761581,1669831737141,1135,HRV,HRV_0013,2022-11-30 18:11:45
62,"[{'imgObject': {}, 'id': 'blueberries', 'src': '/static/foodstim60/blueberries.jpg', 'key': 'u', 'origWidth': 411, 'origHeight': 411, 'width': 411, 'height': 411, 'widthPercent': 0.45, 'rescaleHeight': False, 'trialN': 62, 'loaded': True, 'loadedTime': 4874, 'positionName': 'LEFT', 'positionCoords': [510.6, 334.5], 'bid': 7.5}, {'imgObject': {}, 'id': 'raspberries', 'src': '/static/foodstim60/raspberries.jpg', 'key': 'i', 'origWidth': 411, 'origHeight': 411, 'width': 411, 'height': 411, 'widthPercent': 0.45, 'rescaleHeight': False, 'trialN': 62, 'loaded': True, 'loadedTime': 4867.299999952316, 'positionName': 'RIGHT', 'positionCoords': [998.4, 334.5], 'bid': 8.17}]",91656.29999995232,1669831737141,blueberries,raspberries,7.5,8.17,0.6699999999999999,blueberries,841.6000000238419,842,842.0,True,u,93008.5,1352.2000000476837,1669831738493,1352,HRV,HRV_0013,2022-11-30 18:11:45
63,"[{'imgObject': {}, 'id': 'chickenfingers', 'src': '/static/foodstim60/chickenfingers.jpg', 'key': 'u', 'origWidth': 410, 'origHeight': 410, 'width': 410, 'height': 410, 'widthPercent': 0.45, 'rescaleHeight': False, 'trialN': 63, 'loaded': True, 'loadedTime': 4799.600000023842, 'positionName': 'LEFT', 'positionCoords': [511.6, 335], 'bid': 6.33}, {'imgObject': {}, 'id': 'bagel plain', 'src': '/static/foodstim60/bagel plain.jpg', 'key': 'i', 'origWidth': 410, 'origHeight': 410, 'width': 410, 'height': 410, 'widthPercent': 0.45, 'rescaleHeight': False, 'trialN': 63, 'loaded': True, 'loadedTime': 4707.799999952316, 'positionName': 'RIGHT', 'positionCoords': [998.4, 335], 'bid': 6.08}]",93008.69999992847,1669831738494,chickenfingers,bagel plain,6.33,6.08,-0.25,chickenfingers,955.1000000238419,955,955.5,True,u,94472.10000002384,1463.4000000953674,1669831739957,1463,HRV,HRV_0013,2022-11-30 18:11:45
64,"[{'imgObject': {}, 'id': 'bagel plain', 'src': '/static/foodstim60/bagel plain.jpg', 'key': 'u', 'origWidth': 410, 'origHeight': 410, 'width': 410, 'height': 410, 'widthPercent': 0.45, 'rescaleHeight': False, 'trialN': 64, 'loaded': True, 'loadedTime': 4710.600000023842, 'positionName': 'LEFT', 'positionCoords': [511.6, 335], 'bid': 6.08}, {'imgObject': {}, 'id': 'tacos', 'src': '/static/foodstim60/tacos.jpg', 'key': 'i', 'origWidth': 411, 'origHeight': 411, 'width': 411, 'height': 411, 'widthPercent': 0.45, 'rescaleHeight': False, 'trialN': 64, 'loaded': True, 'loadedTime': 4909.799999952316, 'positionName': 'RIGHT', 'positionCoords': [998.4, 334.5], 'bid': 7.03}]",94472.19999992847,1669831739957,bagel plain,tacos,6.08,7.03,0.9500000000000002,bagel plain,875.9000000953674,876,876.2000000476837,True,u,95860.29999995232,1388.1000000238419,1669831741345,1388,HRV,HRV_0013,2022-11-30 18:11:45
65,"[{'imgObject': {}, 'id': 'seaweed', 'src': '/static/foodstim60/seaweed.jpg', 'key': 'u', 'origWidth': 410, 'origHeight': 410, 'width': 410, 'height': 410, 'widthPercent': 0.45, 'rescaleHeight': False, 'trialN': 65, 'loaded': True, 'loadedTime': 4877.100000023842, 'positionName': 'LEFT', 'positionCoords': [511.6, 335], 'bid': 0.21}, {'imgObject': {}, 'id': 'olives', 'src': '/static/foodstim60/olives.jpg', 'key': 'i', 'origWidth': 410, 'origHeight': 410, 'width': 410, 'height': 410, 'widthPercent': 0.45, 'rescaleHeight': False, 'trialN': 65, 'loaded': True, 'loadedTime': 4372.100000023842, 'positionName': 'RIGHT', 'positionCoords': [998.4, 335], 'bid': 2.01}]",95860.39999997616,1669831741345,seaweed,olives,0.21,2.01,1.7999999999999998,seaweed,1101.5,1102,1101.7999999523163,True,u,97475.60000002384,1615.2000000476837,1669831742961,1616,HRV,HRV_0013,2022-11-30 18:11:45
66,"[{'imgObject': {}, 'id': 'cherries', 'src': '/static/foodstim60/cherries.jpg', 'key': 'u', 'origWidth': 410, 'origHeight': 411, 'width': 410, 'height': 411, 'widthPercent': 0.45, 'rescaleHeight': False, 'trialN': 66, 'loaded': True, 'loadedTime': 4579.299999952316, 'positionName': 'LEFT', 'positionCoords': [511.6, 334.5], 'bid': 6.13}, {'imgObject': {}, 'id': 'cocktailshrimp', 'src': '/static/foodstim60/cocktailshrimp.jpg', 'key': 'i', 'origWidth': 410, 'origHeight': 410, 'width': 410, 'height': 410, 'widthPercent': 0.45, 'rescaleHeight': False, 'trialN': 66, 'loaded': True, 'loadedTime': 4242.799999952316, 'positionName': 'RIGHT', 'positionCoords': [998.4, 335], 'bid': 3.6}]",97475.69999992847,1669831742961,cherries,cocktailshrimp,6.13,3.6,-2.53,cherries,787.2000000476837,787,787.5,True,u,98769.39999997616,1293.7000000476837,1669831744254,1293,HRV,HRV_0013,2022-11-30 18:11:45
67,"[{'imgObject': {}, 'id': 'popsicles', 'src': '/static/foodstim60/popsicles.jpg', 'key': 'u', 'origWidth': 410, 'origHeight': 410, 'width': 410, 'height': 410, 'widthPercent': 0.45, 'rescaleHeight': False, 'trialN': 67, 'loaded': True, 'loadedTime': 4892.100000023842, 'positionName': 'LEFT', 'positionCoords': [511.6, 335], 'bid': 8.41}, {'imgObject': {}, 'id': 'kiwi', 'src': '/static/foodstim60/kiwi.jpg', 'key': 'i', 'origWidth': 410, 'origHeight': 410, 'width': 410, 'height': 410, 'widthPercent': 0.45, 'rescaleHeight': False, 'trialN': 67, 'loaded': True, 'loadedTime': 3893.6999999284744, 'positionName': 'RIGHT', 'positionCoords': [998.4, 335], 'bid': 8.53}]",98769.5,1669831744255,popsicles,kiwi,8.41,8.53,0.11999999999999922,popsicles,624.3999999761581,624,624.7999999523163,True,u,99909.79999995232,1140.2999999523163,1669831745395,1140,HRV,HRV_0013,2022-11-30 18:11:45
68,"[{'imgObject': {}, 'id': 'cocktailshrimp', 'src': '/static/foodstim60/cocktailshrimp.jpg', 'key': 'u', 'origWidth': 410, 'origHeight': 410, 'width': 410, 'height': 410, 'widthPercent': 0.45, 'rescaleHeight': False, 'trialN': 68, 'loaded': True, 'loadedTime': 4241.199999928474, 'positionName': 'LEFT', 'positionCoords': [511.6, 335], 'bid': 3.6}, {'imgObject': {}, 'id': 'granola w milk', 'src': '/static/foodstim60/granola w milk.jpg', 'key': 'i', 'origWidth': 410, 'origHeight': 410, 'width': 410, 'height': 410, 'widthPercent': 0.45, 'rescaleHeight': False, 'trialN': 68, 'loaded': True, 'loadedTime': 4463.100000023842, 'positionName': 'RIGHT', 'positionCoords': [998.4, 335], 'bid': 5.03}]",99910.0,1669831745395,cocktailshrimp,granola w milk,3.6,5.03,1.4300000000000002,cocktailshrimp,908.7999999523163,909,909.1000000238419,True,u,101329.89999997616,1419.8999999761581,1669831746815,1420,HRV,HRV_0013,2022-11-30 18:11:45
69,"[{'imgObject': {}, 'id': 'corn cob', 'src': '/static/foodstim60/corn cob.jpg', 'key': 'u', 'origWidth': 411, 'origHeight': 411, 'width': 411, 'height': 411, 'widthPercent': 0.45, 'rescaleHeight': False, 'trialN': 69, 'loaded': True, 'loadedTime': 3810.600000023842, 'positionName': 'LEFT', 'positionCoords': [510.6, 334.5], 'bid': 8.18}, {'imgObject': {}, 'id': 'eggsalad', 'src': '/static/foodstim60/eggsalad.jpg', 'key': 'i', 'origWidth': 410, 'origHeight': 409, 'width': 410, 'height': 409, 'widthPercent': 0.45, 'rescaleHeight': False, 'trialN': 69, 'loaded': True, 'loadedTime': 3796.6999999284744, 'positionName': 'RIGHT', 'positionCoords': [998.4, 335.5], 'bid': 4.91}]",101330.0,1669831746815,corn cob,eggsalad,8.18,4.91,-3.2699999999999996,corn cob,674.7999999523163,675,675.2999999523163,True,u,102513.29999995232,1183.2999999523163,1669831747998,1183,HRV,HRV_0013,2022-11-30 18:11:45
70,"[{'imgObject': {}, 'id': 'yogurt no spoon', 'src': '/static/foodstim60/yogurt no spoon.jpg', 'key': 'u', 'origWidth': 411, 'origHeight': 410, 'width': 411, 'height': 410, 'widthPercent': 0.45, 'rescaleHeight': False, 'trialN': 70, 'loaded': True, 'loadedTime': 4164.799999952316, 'positionName': 'LEFT', 'positionCoords': [510.6, 335], 'bid': 0.78}, {'imgObject': {}, 'id': 'rigatoni', 'src': '/static/foodstim60/rigatoni.jpg', 'key': 'i', 'origWidth': 411, 'origHeight': 411, 'width': 411, 'height': 411, 'widthPercent': 0.45, 'rescaleHeight': False, 'trialN': 70, 'loaded': True, 'loadedTime': 4303.799999952316, 'positionName': 'RIGHT', 'positionCoords': [998.4, 334.5], 'bid': 0.16}]",102513.5,1669831747998,yogurt no spoon,rigatoni,0.78,0.16,-0.62,rigatoni,975.3999999761581,976,975.6999999284744,True,i,104004.29999995232,1490.7999999523163,1669831749489,1491,HRV,HRV_0013,2022-11-30 18:11:45
71,"[{'imgObject': {}, 'id': 'turkeysandwich', 'src': '/static/foodstim60/turkeysandwich.jpg', 'key': 'u', 'origWidth': 409, 'origHeight': 409, 'width': 409, 'height': 409, 'widthPercent': 0.45, 'rescaleHeight': False, 'trialN': 71, 'loaded': True, 'loadedTime': 4910.299999952316, 'positionName': 'LEFT', 'positionCoords': [512.6, 335.5], 'bid': 8.2}, {'imgObject': {}, 'id': 'turkey sandwich', 'src': '/static/foodstim60/turkey sandwich.jpg', 'key': 'i', 'origWidth': 409, 'origHeight': 409, 'width': 409, 'height': 409, 'widthPercent': 0.45, 'rescaleHeight': False, 'trialN': 71, 'loaded': True, 'loadedTime': 4028.399999976158, 'positionName': 'RIGHT', 'positionCoords': [998.4, 335.5], 'bid': 7.62}]",104004.60000002384,1669831749490,turkeysandwich,turkey sandwich,8.2,7.62,-0.5799999999999992,turkeysandwich,665.0999999046326,665,665.3999999761581,True,u,105177.5,1172.8999999761581,1669831750663,1173,HRV,HRV_0013,2022-11-30 18:11:45
72,"[{'imgObject': {}, 'id': 'turkey sandwich', 'src': '/static/foodstim60/turkey sandwich.jpg', 'key': 'u', 'origWidth': 409, 'origHeight': 409, 'width': 409, 'height': 409, 'widthPercent': 0.45, 'rescaleHeight': False, 'trialN': 72, 'loaded': True, 'loadedTime': 4069.899999976158, 'positionName': 'LEFT', 'positionCoords': [512.6, 335.5], 'bid': 7.62}, {'imgObject': {}, 'id': 'olives', 'src': '/static/foodstim60/olives.jpg', 'key': 'i', 'origWidth': 410, 'origHeight': 410, 'width': 410, 'height': 410, 'widthPercent': 0.45, 'rescaleHeight': False, 'trialN': 72, 'loaded': True, 'loadedTime': 4371.799999952316, 'positionName': 'RIGHT', 'positionCoords': [998.4, 335], 'bid': 2.01}]",105177.69999992847,1669831750663,turkey sandwich,olives,7.62,2.01,-5.61,turkey sandwich,1003.7000000476837,1004,1004.2000000476837,True,u,106690.39999997616,1512.7000000476837,1669831752175,1512,HRV,HRV_0013,2022-11-30 18:11:45
73,"[{'imgObject': {}, 'id': 'mango', 'src': '/static/foodstim60/mango.jpg', 'key': 'u', 'origWidth': 411, 'origHeight': 411, 'width': 411, 'height': 411, 'widthPercent': 0.45, 'rescaleHeight': False, 'trialN': 73, 'loaded': True, 'loadedTime': 4740.5, 'positionName': 'LEFT', 'positionCoords': [510.6, 334.5], 'bid': 8.040000000000001}, {'imgObject': {}, 'id': 'cheerios', 'src': '/static/foodstim60/cheerios.jpg', 'key': 'i', 'origWidth': 409, 'origHeight': 410, 'width': 409, 'height': 410, 'widthPercent': 0.45, 'rescaleHeight': False, 'trialN': 73, 'loaded': True, 'loadedTime': 4417, 'positionName': 'RIGHT', 'positionCoords': [998.4, 335], 'bid': 7.35}]",106690.5,1669831752176,mango,cheerios,8.040000000000001,7.35,-0.6900000000000013,cheerios,878.2999999523163,878,878.6000000238419,True,i,108081.5,1391.0,1669831753567,1391,HRV,HRV_0013,2022-11-30 18:11:45
74,"[{'imgObject': {}, 'id': 'fried eggs', 'src': '/static/foodstim60/fried eggs.jpg', 'key': 'u', 'origWidth': 410, 'origHeight': 410, 'width': 410, 'height': 410, 'widthPercent': 0.45, 'rescaleHeight': False, 'trialN': 74, 'loaded': True, 'loadedTime': 4119.399999976158, 'positionName': 'LEFT', 'positionCoords': [511.6, 335], 'bid': 1.22}, {'imgObject': {}, 'id': 'mac & cheese', 'src': '/static/foodstim60/mac & cheese.jpg', 'key': 'i', 'origWidth': 410, 'origHeight': 410, 'width': 410, 'height': 410, 'widthPercent': 0.45, 'rescaleHeight': False, 'trialN': 74, 'loaded': True, 'loadedTime': 3803.7999999523163, 'positionName': 'RIGHT', 'positionCoords': [998.4, 335], 'bid': 0.1}]",108081.79999995232,1669831753567,fried eggs,mac & cheese,1.22,0.1,-1.1199999999999999,fried eggs,799.8999999761581,800,800.3000000715256,True,u,109405.0,1323.2000000476837,1669831754890,1323,HRV,HRV_0013,2022-11-30 18:11:45
75,"[{'imgObject': {}, 'id': 'Tribe humus pita', 'src': '/static/foodstim60/Tribe humus pita.jpg', 'key': 'u', 'origWidth': 411, 'origHeight': 411, 'width': 411, 'height': 411, 'widthPercent': 0.45, 'rescaleHeight': False, 'trialN': 75, 'loaded': True, 'loadedTime': 4696.699999928474, 'positionName': 'LEFT', 'positionCoords': [510.6, 334.5], 'bid': 5.01}, {'imgObject': {}, 'id': 'fried eggs', 'src': '/static/foodstim60/fried eggs.jpg', 'key': 'i', 'origWidth': 410, 'origHeight': 410, 'width': 410, 'height': 410, 'widthPercent': 0.45, 'rescaleHeight': False, 'trialN': 75, 'loaded': True, 'loadedTime': 4120.5, 'positionName': 'RIGHT', 'positionCoords': [998.4, 335], 'bid': 1.22}]",109405.10000002384,1669831754890,Tribe humus pita,fried eggs,5.01,1.22,-3.79,fried eggs,906.6999999284744,907,906.8999999761581,True,i,110817.79999995232,1412.6999999284744,1669831756303,1413,HRV,HRV_0013,2022-11-30 18:11:45
76,"[{'imgObject': {}, 'id': 'rigatoni', 'src': '/static/foodstim60/rigatoni.jpg', 'key': 'u', 'origWidth': 411, 'origHeight': 411, 'width': 411, 'height': 411, 'widthPercent': 0.45, 'rescaleHeight': False, 'trialN': 76, 'loaded': True, 'loadedTime': 4304.5, 'positionName': 'LEFT', 'positionCoords': [510.6, 334.5], 'bid': 0.16}, {'imgObject': {}, 'id': 'tacos', 'src': '/static/foodstim60/tacos.jpg', 'key': 'i', 'origWidth': 411, 'origHeight': 411, 'width': 411, 'height': 411, 'widthPercent': 0.45, 'rescaleHeight': False, 'trialN': 76, 'loaded': True, 'loadedTime': 4909.899999976158, 'positionName': 'RIGHT', 'positionCoords': [998.4, 334.5], 'bid': 7.03}]",110818.10000002384,1669831756303,rigatoni,tacos,0.16,7.03,6.87,tacos,931.6999999284744,932,931.8999999761581,True,i,112268.60000002384,1450.5,1669831757754,1451,HRV,HRV_0013,2022-11-30 18:11:45
77,"[{'imgObject': {}, 'id': 'cherries', 'src': '/static/foodstim60/cherries.jpg', 'key': 'u', 'origWidth': 410, 'origHeight': 411, 'width': 410, 'height': 411, 'widthPercent': 0.45, 'rescaleHeight': False, 'trialN': 77, 'loaded': True, 'loadedTime': 4579.600000023842, 'positionName': 'LEFT', 'positionCoords': [511.6, 334.5], 'bid': 6.13}, {'imgObject': {}, 'id': 'blueberries', 'src': '/static/foodstim60/blueberries.jpg', 'key': 'i', 'origWidth': 411, 'origHeight': 411, 'width': 411, 'height': 411, 'widthPercent': 0.45, 'rescaleHeight': False, 'trialN': 77, 'loaded': True, 'loadedTime': 4873.899999976158, 'positionName': 'RIGHT', 'positionCoords': [998.4, 334.5], 'bid': 7.5}]",112268.79999995232,1669831757754,cherries,blueberries,6.13,7.5,1.37,cherries,806.8999999761581,807,807.3000000715256,True,u,113594.60000002384,1325.8000000715256,1669831759080,1326,HRV,HRV_0013,2022-11-30 18:11:45
78,"[{'imgObject': {}, 'id': 'yogurt no spoon', 'src': '/static/foodstim60/yogurt no spoon.jpg', 'key': 'u', 'origWidth': 411, 'origHeight': 410, 'width': 411, 'height': 410, 'widthPercent': 0.45, 'rescaleHeight': False, 'trialN': 78, 'loaded': True, 'loadedTime': 4203.399999976158, 'positionName': 'LEFT', 'positionCoords': [510.6, 335], 'bid': 0.78}, {'imgObject': {}, 'id': 'raisin bran w milk', 'src': '/static/foodstim60/raisin bran w milk.jpg', 'key': 'i', 'origWidth': 411, 'origHeight': 411, 'width': 411, 'height': 411, 'widthPercent': 0.45, 'rescaleHeight': False, 'trialN': 78, 'loaded': True, 'loadedTime': 4870.5, 'positionName': 'RIGHT', 'positionCoords': [998.4, 334.5], 'bid': 5.04}]",113594.79999995232,1669831759080,yogurt no spoon,raisin bran w milk,0.78,5.04,4.26,raisin bran w milk,773.8000000715256,774,774.2000000476837,True,i,114882.29999995232,1287.5,1669831760367,1287,HRV,HRV_0013,2022-11-30 18:11:45
79,"[{'imgObject': {}, 'id': 'tacos', 'src': '/static/foodstim60/tacos.jpg', 'key': 'u', 'origWidth': 411, 'origHeight': 411, 'width': 411, 'height': 411, 'widthPercent': 0.45, 'rescaleHeight': False, 'trialN': 79, 'loaded': True, 'loadedTime': 4909.600000023842, 'positionName': 'LEFT', 'positionCoords': [510.6, 334.5], 'bid': 7.03}, {'imgObject': {}, 'id': 'cherry tomato', 'src': '/static/foodstim60/cherry tomato.jpg', 'key': 'i', 'origWidth': 410, 'origHeight': 410, 'width': 410, 'height': 410, 'widthPercent': 0.45, 'rescaleHeight': False, 'trialN': 79, 'loaded': True, 'loadedTime': 4494.199999928474, 'positionName': 'RIGHT', 'positionCoords': [998.4, 335], 'bid': 7.140000000000001}]",114882.5,1669831760368,tacos,cherry tomato,7.03,7.140000000000001,0.11000000000000032,tacos,1005.1000000238419,1005,1005.5,True,u,116395.29999995232,1512.7999999523163,1669831761880,1512,HRV,HRV_0013,2022-11-30 18:11:45
80,"[{'imgObject': {}, 'id': 'yogurt no spoon', 'src': '/static/foodstim60/yogurt no spoon.jpg', 'key': 'u', 'origWidth': 411, 'origHeight': 410, 'width': 411, 'height': 410, 'widthPercent': 0.45, 'rescaleHeight': False, 'trialN': 80, 'loaded': True, 'loadedTime': 4204, 'positionName': 'LEFT', 'positionCoords': [510.6, 335], 'bid': 0.78}, {'imgObject': {}, 'id': 'eggsalad', 'src': '/static/foodstim60/eggsalad.jpg', 'key': 'i', 'origWidth': 410, 'origHeight': 409, 'width': 410, 'height': 409, 'widthPercent': 0.45, 'rescaleHeight': False, 'trialN': 80, 'loaded': True, 'loadedTime': 3797.600000023842, 'positionName': 'RIGHT', 'positionCoords': [998.4, 335.5], 'bid': 4.91}]",116395.39999997616,1669831761880,yogurt no spoon,eggsalad,0.78,4.91,4.13,eggsalad,1303.2999999523163,1304,1303.7999999523163,True,i,118214.29999995232,1818.8999999761581,1669831763699,1819,HRV,HRV_0013,2022-11-30 18:11:45
81,"[{'imgObject': {}, 'id': 'blackbeanswithrice', 'src': '/static/foodstim60/blackbeanswithrice.jpg', 'key': 'u', 'origWidth': 410, 'origHeight': 410, 'width': 410, 'height': 410, 'widthPercent': 0.45, 'rescaleHeight': False, 'trialN': 81, 'loaded': True, 'loadedTime': 4703.899999976158, 'positionName': 'LEFT', 'positionCoords': [511.6, 335], 'bid': 5.0200000000000005}, {'imgObject': {}, 'id': 'ice cream sundae 002', 'src': '/static/foodstim60/ice cream sundae 002.jpg', 'key': 'i', 'origWidth': 409, 'origHeight': 409, 'width': 409, 'height': 409, 'widthPercent': 0.45, 'rescaleHeight': False, 'trialN': 81, 'loaded': True, 'loadedTime': 4802, 'positionName': 'RIGHT', 'positionCoords': [998.4, 335.5], 'bid': 1.51}]",118214.39999997616,1669831763699,blackbeanswithrice,ice cream sundae 002,5.0200000000000005,1.51,-3.5100000000000007,blackbeanswithrice,972.2000000476837,973,972.6000000238419,True,u,119695.69999992847,1481.2999999523163,1669831765181,1482,HRV,HRV_0013,2022-11-30 18:11:45
82,"[{'imgObject': {}, 'id': 'olives', 'src': '/static/foodstim60/olives.jpg', 'key': 'u', 'origWidth': 410, 'origHeight': 410, 'width': 410, 'height': 410, 'widthPercent': 0.45, 'rescaleHeight': False, 'trialN': 82, 'loaded': True, 'loadedTime': 4372.299999952316, 'positionName': 'LEFT', 'positionCoords': [511.6, 335], 'bid': 2.01}, {'imgObject': {}, 'id': 'mac & cheese', 'src': '/static/foodstim60/mac & cheese.jpg', 'key': 'i', 'origWidth': 410, 'origHeight': 410, 'width': 410, 'height': 410, 'widthPercent': 0.45, 'rescaleHeight': False, 'trialN': 82, 'loaded': True, 'loadedTime': 3805.2999999523163, 'positionName': 'RIGHT', 'positionCoords': [998.4, 335], 'bid': 0.1}]",119695.89999997616,1669831765181,olives,mac & cheese,2.01,0.1,-1.9099999999999997,olives,881.7999999523163,882,882.2000000476837,True,u,121100.5,1404.6000000238419,1669831766585,1404,HRV,HRV_0013,2022-11-30 18:11:45
83,"[{'imgObject': {}, 'id': 'veggieswithdip', 'src': '/static/foodstim60/veggieswithdip.jpg', 'key': 'u', 'origWidth': 409, 'origHeight': 409, 'width': 409, 'height': 409, 'widthPercent': 0.45, 'rescaleHeight': False, 'trialN': 83, 'loaded': True, 'loadedTime': 4906.699999928474, 'positionName': 'LEFT', 'positionCoords': [512.6, 335.5], 'bid': 5.11}, {'imgObject': {}, 'id': 'shreddedwheatwithmilk', 'src': '/static/foodstim60/shreddedwheatwithmilk.jpg', 'key': 'i', 'origWidth': 410, 'origHeight': 410, 'width': 410, 'height': 410, 'widthPercent': 0.45, 'rescaleHeight': False, 'trialN': 83, 'loaded': True, 'loadedTime': 3768.899999976158, 'positionName': 'RIGHT', 'positionCoords': [998.4, 335], 'bid': 5.09}]",121100.69999992847,1669831766586,veggieswithdip,shreddedwheatwithmilk,5.11,5.09,-0.020000000000000462,veggieswithdip,932.9000000953674,933,933.3000000715256,True,u,122545.39999997616,1444.7000000476837,1669831768030,1444,HRV,HRV_0013,2022-11-30 18:11:45
84,"[{'imgObject': {}, 'id': 'baked potato', 'src': '/static/foodstim60/baked potato.jpg', 'key': 'u', 'origWidth': 409, 'origHeight': 410, 'width': 409, 'height': 410, 'widthPercent': 0.45, 'rescaleHeight': False, 'trialN': 84, 'loaded': True, 'loadedTime': 4620.199999928474, 'positionName': 'LEFT', 'positionCoords': [512.6, 335], 'bid': 6.83}, {'imgObject': {}, 'id': 'avocado', 'src': '/static/foodstim60/avocado.jpg', 'key': 'i', 'origWidth': 409, 'origHeight': 409, 'width': 409, 'height': 409, 'widthPercent': 0.45, 'rescaleHeight': False, 'trialN': 84, 'loaded': True, 'loadedTime': 4860.600000023842, 'positionName': 'RIGHT', 'positionCoords': [998.4, 335.5], 'bid': 5.59}]",122545.5,1669831768031,baked potato,avocado,6.83,5.59,-1.2400000000000002,baked potato,1014.0,1014,1014.2999999523163,True,u,124069.89999997616,1524.3999999761581,1669831769555,1524,HRV,HRV_0013,2022-11-30 18:11:45
85,"[{'imgObject': {}, 'id': 'burrito', 'src': '/static/foodstim60/burrito.jpg', 'key': 'u', 'origWidth': 410, 'origHeight': 410, 'width': 410, 'height': 410, 'widthPercent': 0.45, 'rescaleHeight': False, 'trialN': 85, 'loaded': True, 'loadedTime': 4361.699999928474, 'positionName': 'LEFT', 'positionCoords': [511.6, 335], 'bid': 5.07}, {'imgObject': {}, 'id': 'baked potato', 'src': '/static/foodstim60/baked potato.jpg', 'key': 'i', 'origWidth': 409, 'origHeight': 410, 'width': 409, 'height': 410, 'widthPercent': 0.45, 'rescaleHeight': False, 'trialN': 85, 'loaded': True, 'loadedTime': 4580, 'positionName': 'RIGHT', 'positionCoords': [998.4, 335], 'bid': 6.83}]",124070.19999992847,1669831769555,burrito,baked potato,5.07,6.83,1.7599999999999998,baked potato,728.3000000715256,729,728.7000000476837,True,i,125307.5,1237.3000000715256,1669831770792,1237,HRV,HRV_0013,2022-11-30 18:11:45
86,"[{'imgObject': {}, 'id': 'sweetpotato', 'src': '/static/foodstim60/sweetpotato.jpg', 'key': 'u', 'origWidth': 410, 'origHeight': 410, 'width': 410, 'height': 410, 'widthPercent': 0.45, 'rescaleHeight': False, 'trialN': 86, 'loaded': True, 'loadedTime': 4888.399999976158, 'positionName': 'LEFT', 'positionCoords': [511.6, 335], 'bid': 5.04}, {'imgObject': {}, 'id': 'salmon', 'src': '/static/foodstim60/salmon.jpg', 'key': 'i', 'origWidth': 410, 'origHeight': 409, 'width': 410, 'height': 409, 'widthPercent': 0.45, 'rescaleHeight': False, 'trialN': 86, 'loaded': True, 'loadedTime': 4960.299999952316, 'positionName': 'RIGHT', 'positionCoords': [998.4, 335.5], 'bid': 6.57}]",125307.60000002384,1669831770793,sweetpotato,salmon,5.04,6.57,1.5300000000000002,salmon,783.8999999761581,784,784.1999999284744,True,i,126603.89999997616,1296.2999999523163,1669831772089,1296,HRV,HRV_0013,2022-11-30 18:11:45
87,"[{'imgObject': {}, 'id': 'popsicles', 'src': '/static/foodstim60/popsicles.jpg', 'key': 'u', 'origWidth': 410, 'origHeight': 410, 'width': 410, 'height': 410, 'widthPercent': 0.45, 'rescaleHeight': False, 'trialN': 87, 'loaded': True, 'loadedTime': 4892.600000023842, 'positionName': 'LEFT', 'positionCoords': [511.6, 335], 'bid': 8.41}, {'imgObject': {}, 'id': 'baked potato', 'src': '/static/foodstim60/baked potato.jpg', 'key': 'i', 'origWidth': 409, 'origHeight': 410, 'width': 409, 'height': 410, 'widthPercent': 0.45, 'rescaleHeight': False, 'trialN': 87, 'loaded': True, 'loadedTime': 4581.299999952316, 'positionName': 'RIGHT', 'positionCoords': [998.4, 335], 'bid': 6.83}]",126604.0,1669831772089,popsicles,baked potato,8.41,6.83,-1.58,popsicles,881.6000000238419,882,881.8999999761581,True,u,127996.10000002384,1392.1000000238419,1669831773481,1392,HRV,HRV_0013,2022-11-30 18:11:45
88,"[{'imgObject': {}, 'id': 'tacos', 'src': '/static/foodstim60/tacos.jpg', 'key': 'u', 'origWidth': 411, 'origHeight': 411, 'width': 411, 'height': 411, 'widthPercent': 0.45, 'rescaleHeight': False, 'trialN': 88, 'loaded': True, 'loadedTime': 4910.100000023842, 'positionName': 'LEFT', 'positionCoords': [510.6, 334.5], 'bid': 7.03}, {'imgObject': {}, 'id': 'shreddedwheatwithmilk', 'src': '/static/foodstim60/shreddedwheatwithmilk.jpg', 'key': 'i', 'origWidth': 410, 'origHeight': 410, 'width': 410, 'height': 410, 'widthPercent': 0.45, 'rescaleHeight': False, 'trialN': 88, 'loaded': True, 'loadedTime': 3781.2999999523163, 'positionName': 'RIGHT', 'positionCoords': [998.4, 335], 'bid': 5.09}]",127996.19999992847,1669831773481,tacos,shreddedwheatwithmilk,7.03,5.09,-1.9400000000000004,tacos,950.8000000715256,951,951.2000000476837,True,u,129464.60000002384,1468.4000000953674,1669831774950,1469,HRV,HRV_0013,2022-11-30 18:11:45
89,"[{'imgObject': {}, 'id': 'sweetpotato', 'src': '/static/foodstim60/sweetpotato.jpg', 'key': 'u', 'origWidth': 410, 'origHeight': 410, 'width': 410, 'height': 410, 'widthPercent': 0.45, 'rescaleHeight': False, 'trialN': 89, 'loaded': True, 'loadedTime': 4888.100000023842, 'positionName': 'LEFT', 'positionCoords': [511.6, 335], 'bid': 5.04}, {'imgObject': {}, 'id': 'fried eggs', 'src': '/static/foodstim60/fried eggs.jpg', 'key': 'i', 'origWidth': 410, 'origHeight': 410, 'width': 410, 'height': 410, 'widthPercent': 0.45, 'rescaleHeight': False, 'trialN': 89, 'loaded': True, 'loadedTime': 4071.6999999284744, 'positionName': 'RIGHT', 'positionCoords': [998.4, 335], 'bid': 1.22}]",129464.79999995232,1669831774950,sweetpotato,fried eggs,5.04,1.22,-3.8200000000000003,fried eggs,723.7000000476837,724,724.0,True,i,130696.69999992847,1231.8999999761581,1669831776182,1232,HRV,HRV_0013,2022-11-30 18:11:45
90,"[{'imgObject': {}, 'id': 'grilled chicken strips', 'src': '/static/foodstim60/grilled chicken strips.jpg', 'key': 'u', 'origWidth': 410, 'origHeight': 411, 'width': 410, 'height': 411, 'widthPercent': 0.45, 'rescaleHeight': False, 'trialN': 90, 'loaded': True, 'loadedTime': 3802.7999999523163, 'positionName': 'LEFT', 'positionCoords': [511.6, 334.5], 'bid': 6.4}, {'imgObject': {}, 'id': 'corn cob', 'src': '/static/foodstim60/corn cob.jpg', 'key': 'i', 'origWidth': 411, 'origHeight': 411, 'width': 411, 'height': 411, 'widthPercent': 0.45, 'rescaleHeight': False, 'trialN': 90, 'loaded': True, 'loadedTime': 3830.5, 'positionName': 'RIGHT', 'positionCoords': [998.4, 334.5], 'bid': 8.18}]",135115.29999995232,1669831780600,grilled chicken strips,corn cob,6.4,8.18,1.7799999999999994,grilled chicken strips,3044.2000000476837,3045,3044.7000000476837,True,u,138662.69999992847,3547.399999976158,1669831784148,3548,HRV,HRV_0013,2022-11-30 18:11:45
91,"[{'imgObject': {}, 'id': 'cheerios', 'src': '/static/foodstim60/cheerios.jpg', 'key': 'u', 'origWidth': 409, 'origHeight': 410, 'width': 409, 'height': 410, 'widthPercent': 0.45, 'rescaleHeight': False, 'trialN': 91, 'loaded': True, 'loadedTime': 4374.100000023842, 'positionName': 'LEFT', 'positionCoords': [512.6, 335], 'bid': 7.35}, {'imgObject': {}, 'id': 'avocado', 'src': '/static/foodstim60/avocado.jpg', 'key': 'i', 'origWidth': 409, 'origHeight': 409, 'width': 409, 'height': 409, 'widthPercent': 0.45, 'rescaleHeight': False, 'trialN': 91, 'loaded': True, 'loadedTime': 4860.699999928474, 'positionName': 'RIGHT', 'positionCoords': [998.4, 335.5], 'bid': 5.59}]",138662.79999995232,1669831784148,cheerios,avocado,7.35,5.59,-1.7599999999999998,cheerios,885.0,885,885.6000000238419,True,u,140054.0,1391.2000000476837,1669831785539,1391,HRV,HRV_0013,2022-11-30 18:11:45
92,"[{'imgObject': {}, 'id': 'hashbrowns', 'src': '/static/foodstim60/hashbrowns.jpg', 'key': 'u', 'origWidth': 411, 'origHeight': 410, 'width': 411, 'height': 410, 'widthPercent': 0.45, 'rescaleHeight': False, 'trialN': 92, 'loaded': True, 'loadedTime': 3807.399999976158, 'positionName': 'LEFT', 'positionCoords': [510.6, 335], 'bid': 0.15}, {'imgObject': {}, 'id': 'ice cream sundae 002', 'src': '/static/foodstim60/ice cream sundae 002.jpg', 'key': 'i', 'origWidth': 409, 'origHeight': 409, 'width': 409, 'height': 409, 'widthPercent': 0.45, 'rescaleHeight': False, 'trialN': 92, 'loaded': True, 'loadedTime': 4800.600000023842, 'positionName': 'RIGHT', 'positionCoords': [998.4, 335.5], 'bid': 1.51}]",140054.10000002384,1669831785539,hashbrowns,ice cream sundae 002,0.15,1.51,1.36,ice cream sundae 002,749.1999999284744,750,749.6999999284744,True,i,141319.69999992847,1265.5999999046326,1669831786805,1266,HRV,HRV_0013,2022-11-30 18:11:45
93,"[{'imgObject': {}, 'id': 'cheerios', 'src': '/static/foodstim60/cheerios.jpg', 'key': 'u', 'origWidth': 409, 'origHeight': 410, 'width': 409, 'height': 410, 'widthPercent': 0.45, 'rescaleHeight': False, 'trialN': 93, 'loaded': True, 'loadedTime': 4417.600000023842, 'positionName': 'LEFT', 'positionCoords': [512.6, 335], 'bid': 7.35}, {'imgObject': {}, 'id': 'strawberries', 'src': '/static/foodstim60/strawberries.jpg', 'key': 'i', 'origWidth': 410, 'origHeight': 410, 'width': 410, 'height': 410, 'widthPercent': 0.45, 'rescaleHeight': False, 'trialN': 93, 'loaded': True, 'loadedTime': 4692.299999952316, 'positionName': 'RIGHT', 'positionCoords': [998.4, 335], 'bid': 8.61}]",141319.89999997616,1669831786805,cheerios,strawberries,7.35,8.61,1.2599999999999998,strawberries,971.5,972,971.7999999523163,True,i,142805.29999995232,1485.3999999761581,1669831788290,1485,HRV,HRV_0013,2022-11-30 18:11:45
94,"[{'imgObject': {}, 'id': 'seaweed', 'src': '/static/foodstim60/seaweed.jpg', 'key': 'u', 'origWidth': 410, 'origHeight': 410, 'width': 410, 'height': 410, 'widthPercent': 0.45, 'rescaleHeight': False, 'trialN': 94, 'loaded': True, 'loadedTime': 4876.699999928474, 'positionName': 'LEFT', 'positionCoords': [511.6, 335], 'bid': 0.21}, {'imgObject': {}, 'id': 'fried eggs', 'src': '/static/foodstim60/fried eggs.jpg', 'key': 'i', 'origWidth': 410, 'origHeight': 410, 'width': 410, 'height': 410, 'widthPercent': 0.45, 'rescaleHeight': False, 'trialN': 94, 'loaded': True, 'loadedTime': 4119.699999928474, 'positionName': 'RIGHT', 'positionCoords': [998.4, 335], 'bid': 1.22}]",142805.5,1669831788291,seaweed,fried eggs,0.21,1.22,1.01,fried eggs,799.8999999761581,800,800.1999999284744,True,i,144112.10000002384,1306.6000000238419,1669831789597,1306,HRV,HRV_0013,2022-11-30 18:11:45
95,"[{'imgObject': {}, 'id': 'steak', 'src': '/static/foodstim60/steak.jpg', 'key': 'u', 'origWidth': 410, 'origHeight': 410, 'width': 410, 'height': 410, 'widthPercent': 0.45, 'rescaleHeight': False, 'trialN': 95, 'loaded': True, 'loadedTime': 4894.199999928474, 'positionName': 'LEFT', 'positionCoords': [511.6, 335], 'bid': 9.39}, {'imgObject': {}, 'id': 'pear', 'src': '/static/foodstim60/pear.jpg', 'key': 'i', 'origWidth': 411, 'origHeight': 410, 'width': 411, 'height': 410, 'widthPercent': 0.45, 'rescaleHeight': False, 'trialN': 95, 'loaded': True, 'loadedTime': 4885.199999928474, 'positionName': 'RIGHT', 'positionCoords': [998.4, 335], 'bid': 8.16}]",144112.19999992847,1669831789597,steak,pear,9.39,8.16,-1.2300000000000004,steak,580.1000000238419,581,580.4000000953674,True,u,145208.29999995232,1096.1000000238419,1669831790693,1096,HRV,HRV_0013,2022-11-30 18:11:45
96,"[{'imgObject': {}, 'id': 'blackbeanswithrice', 'src': '/static/foodstim60/blackbeanswithrice.jpg', 'key': 'u', 'origWidth': 410, 'origHeight': 410, 'width': 410, 'height': 410, 'widthPercent': 0.45, 'rescaleHeight': False, 'trialN': 96, 'loaded': True, 'loadedTime': 4705.600000023842, 'positionName': 'LEFT', 'positionCoords': [511.6, 335], 'bid': 5.0200000000000005}, {'imgObject': {}, 'id': 'Tribe humus pita', 'src': '/static/foodstim60/Tribe humus pita.jpg', 'key': 'i', 'origWidth': 411, 'origHeight': 411, 'width': 411, 'height': 411, 'widthPercent': 0.45, 'rescaleHeight': False, 'trialN': 96, 'loaded': True, 'loadedTime': 4699.199999928474, 'positionName': 'RIGHT', 'positionCoords': [998.4, 334.5], 'bid': 5.01}]",145208.39999997616,1669831790693,blackbeanswithrice,Tribe humus pita,5.0200000000000005,5.01,-0.010000000000000675,blackbeanswithrice,835.7000000476837,837,836.1000000238419,True,u,146550.89999997616,1342.5,1669831792036,1343,HRV,HRV_0013,2022-11-30 18:11:45
97,"[{'imgObject': {}, 'id': 'eggs', 'src': '/static/foodstim60/eggs.jpg', 'key': 'u', 'origWidth': 409, 'origHeight': 409, 'width': 409, 'height': 409, 'widthPercent': 0.45, 'rescaleHeight': False, 'trialN': 97, 'loaded': True, 'loadedTime': 4693.899999976158, 'positionName': 'LEFT', 'positionCoords': [512.6, 335.5], 'bid': 8.83}, {'imgObject': {}, 'id': 'blueberries', 'src': '/static/foodstim60/blueberries.jpg', 'key': 'i', 'origWidth': 411, 'origHeight': 411, 'width': 411, 'height': 411, 'widthPercent': 0.45, 'rescaleHeight': False, 'trialN': 97, 'loaded': True, 'loadedTime': 4873.199999928474, 'positionName': 'RIGHT', 'positionCoords': [998.4, 334.5], 'bid': 7.5}]",146551.10000002384,1669831792036,eggs,blueberries,8.83,7.5,-1.33,eggs,671.1999999284744,672,671.6999999284744,True,u,147737.19999992847,1186.0999999046326,1669831793222,1186,HRV,HRV_0013,2022-11-30 18:11:45
98,"[{'imgObject': {}, 'id': 'cantaloupe', 'src': '/static/foodstim60/cantaloupe.jpg', 'key': 'u', 'origWidth': 409, 'origHeight': 409, 'width': 409, 'height': 409, 'widthPercent': 0.45, 'rescaleHeight': False, 'trialN': 98, 'loaded': True, 'loadedTime': 4729.699999928474, 'positionName': 'LEFT', 'positionCoords': [512.6, 335.5], 'bid': 9.38}, {'imgObject': {}, 'id': 'mango', 'src': '/static/foodstim60/mango.jpg', 'key': 'i', 'origWidth': 411, 'origHeight': 411, 'width': 411, 'height': 411, 'widthPercent': 0.45, 'rescaleHeight': False, 'trialN': 98, 'loaded': True, 'loadedTime': 4797.899999976158, 'positionName': 'RIGHT', 'positionCoords': [998.4, 334.5], 'bid': 8.040000000000001}]",147737.29999995232,1669831793222,cantaloupe,mango,9.38,8.040000000000001,-1.3399999999999999,cantaloupe,807.0,808,807.3999999761581,True,u,149052.60000002384,1315.3000000715256,1669831794538,1316,HRV,HRV_0013,2022-11-30 18:11:45
99,"[{'imgObject': {}, 'id': 'orange slices', 'src': '/static/foodstim60/orange slices.jpg', 'key': 'u', 'origWidth': 409, 'origHeight': 410, 'width': 409, 'height': 410, 'widthPercent': 0.45, 'rescaleHeight': False, 'trialN': 99, 'loaded': True, 'loadedTime': 4738.699999928474, 'positionName': 'LEFT', 'positionCoords': [512.6, 335], 'bid': 7.85}, {'imgObject': {}, 'id': 'luckycharms', 'src': '/static/foodstim60/luckycharms.jpg', 'key': 'i', 'origWidth': 410, 'origHeight': 409, 'width': 410, 'height': 409, 'widthPercent': 0.45, 'rescaleHeight': False, 'trialN': 99, 'loaded': True, 'loadedTime': 3985.2999999523163, 'positionName': 'RIGHT', 'positionCoords': [998.4, 335.5], 'bid': 7.58}]",149052.69999992847,1669831794538,orange slices,luckycharms,7.85,7.58,-0.2699999999999996,luckycharms,869.2000000476837,869,869.6000000238419,True,i,150437.0,1384.3000000715256,1669831795922,1384,HRV,HRV_0013,2022-11-30 18:11:45
100,"[{'imgObject': {}, 'id': 'edamame', 'src': '/static/foodstim60/edamame.jpg', 'key': 'u', 'origWidth': 409, 'origHeight': 410, 'width': 409, 'height': 410, 'widthPercent': 0.45, 'rescaleHeight': False, 'trialN': 100, 'loaded': True, 'loadedTime': 4334.5, 'positionName': 'LEFT', 'positionCoords': [512.6, 335], 'bid': 2.22}, {'imgObject': {}, 'id': 'bagel and cc', 'src': '/static/foodstim60/bagel and cc.jpg', 'key': 'i', 'origWidth': 410, 'origHeight': 410, 'width': 410, 'height': 410, 'widthPercent': 0.45, 'rescaleHeight': False, 'trialN': 100, 'loaded': True, 'loadedTime': 4803, 'positionName': 'RIGHT', 'positionCoords': [998.4, 335], 'bid': 3.17}]",150437.19999992847,1669831795922,edamame,bagel and cc,2.22,3.17,0.9499999999999997,edamame,824.0,825,824.4000000953674,True,u,151769.29999995232,1332.1000000238419,1669831797254,1332,HRV,HRV_0013,2022-11-30 18:11:45
101,"[{'imgObject': {}, 'id': 'salad w chicken', 'src': '/static/foodstim60/salad w chicken.jpg', 'key': 'u', 'origWidth': 411, 'origHeight': 411, 'width': 411, 'height': 411, 'widthPercent': 0.45, 'rescaleHeight': False, 'trialN': 101, 'loaded': True, 'loadedTime': 4862.699999928474, 'positionName': 'LEFT', 'positionCoords': [510.6, 334.5], 'bid': 8.61}, {'imgObject': {}, 'id': 'mango', 'src': '/static/foodstim60/mango.jpg', 'key': 'i', 'origWidth': 411, 'origHeight': 411, 'width': 411, 'height': 411, 'widthPercent': 0.45, 'rescaleHeight': False, 'trialN': 101, 'loaded': True, 'loadedTime': 4739, 'positionName': 'RIGHT', 'positionCoords': [998.4, 334.5], 'bid': 8.040000000000001}]",151769.39999997616,1669831797254,salad w chicken,mango,8.61,8.040000000000001,-0.5699999999999985,salad w chicken,626.7999999523163,628,627.1000000238419,True,u,152913.0,1143.6000000238419,1669831798398,1144,HRV,HRV_0013,2022-11-30 18:11:45
102,"[{'imgObject': {}, 'id': 'mashed potato', 'src': '/static/foodstim60/mashed potato.jpg', 'key': 'u', 'origWidth': 409, 'origHeight': 409, 'width': 409, 'height': 409, 'widthPercent': 0.45, 'rescaleHeight': False, 'trialN': 102, 'loaded': True, 'loadedTime': 4323.199999928474, 'positionName': 'LEFT', 'positionCoords': [512.6, 335.5], 'bid': 0.07}, {'imgObject': {}, 'id': 'yogurt no spoon', 'src': '/static/foodstim60/yogurt no spoon.jpg', 'key': 'i', 'origWidth': 411, 'origHeight': 410, 'width': 411, 'height': 410, 'widthPercent': 0.45, 'rescaleHeight': False, 'trialN': 102, 'loaded': True, 'loadedTime': 4167, 'positionName': 'RIGHT', 'positionCoords': [998.4, 335], 'bid': 0.78}]",152913.10000002384,1669831798398,mashed potato,yogurt no spoon,0.07,0.78,0.71,mashed potato,882.0999999046326,878,882.5,True,u,154313.10000002384,1400.0,1669831799793,1395,HRV,HRV_0013,2022-11-30 18:11:45
103,"[{'imgObject': {}, 'id': 'roastedpotatoes', 'src': '/static/foodstim60/roastedpotatoes.jpg', 'key': 'u', 'origWidth': 409, 'origHeight': 410, 'width': 409, 'height': 410, 'widthPercent': 0.45, 'rescaleHeight': False, 'trialN': 103, 'loaded': True, 'loadedTime': 3842.600000023842, 'positionName': 'LEFT', 'positionCoords': [512.6, 335], 'bid': 9.18}, {'imgObject': {}, 'id': 'banana', 'src': '/static/foodstim60/banana.jpg', 'key': 'i', 'origWidth': 410, 'origHeight': 410, 'width': 410, 'height': 410, 'widthPercent': 0.45, 'rescaleHeight': False, 'trialN': 103, 'loaded': True, 'loadedTime': 4877.5, 'positionName': 'RIGHT', 'positionCoords': [998.4, 335], 'bid': 9.32}]",154313.19999992847,1669831799793,roastedpotatoes,banana,9.18,9.32,0.14000000000000057,roastedpotatoes,653.9000000953674,655,654.3000000715256,True,u,155471.10000002384,1157.9000000953674,1669831800951,1158,HRV,HRV_0013,2022-11-30 18:11:45
104,"[{'imgObject': {}, 'id': 'cheerios', 'src': '/static/foodstim60/cheerios.jpg', 'key': 'u', 'origWidth': 409, 'origHeight': 410, 'width': 409, 'height': 410, 'widthPercent': 0.45, 'rescaleHeight': False, 'trialN': 104, 'loaded': True, 'loadedTime': 4417.899999976158, 'positionName': 'LEFT', 'positionCoords': [512.6, 335], 'bid': 7.35}, {'imgObject': {}, 'id': 'blueberries', 'src': '/static/foodstim60/blueberries.jpg', 'key': 'i', 'origWidth': 411, 'origHeight': 411, 'width': 411, 'height': 411, 'widthPercent': 0.45, 'rescaleHeight': False, 'trialN': 104, 'loaded': True, 'loadedTime': 4871.600000023842, 'positionName': 'RIGHT', 'positionCoords': [998.4, 334.5], 'bid': 7.5}]",155471.39999997616,1669831800952,cheerios,blueberries,7.35,7.5,0.15000000000000036,blueberries,797.7999999523163,798,798.1000000238419,True,i,156778.29999995232,1306.8999999761581,1669831802259,1307,HRV,HRV_0013,2022-11-30 18:11:45
105,"[{'imgObject': {}, 'id': 'Grapes', 'src': '/static/foodstim60/Grapes.jpg', 'key': 'u', 'origWidth': 411, 'origHeight': 411, 'width': 411, 'height': 411, 'widthPercent': 0.45, 'rescaleHeight': False, 'trialN': 105, 'loaded': True, 'loadedTime': 4701.699999928474, 'positionName': 'LEFT', 'positionCoords': [510.6, 334.5], 'bid': 9.05}, {'imgObject': {}, 'id': 'fruitsalad', 'src': '/static/foodstim60/fruitsalad.jpg', 'key': 'i', 'origWidth': 410, 'origHeight': 410, 'width': 410, 'height': 410, 'widthPercent': 0.45, 'rescaleHeight': False, 'trialN': 105, 'loaded': True, 'loadedTime': 4903.600000023842, 'positionName': 'RIGHT', 'positionCoords': [998.4, 335], 'bid': 8.42}]",156778.89999997616,1669831802259,Grapes,fruitsalad,9.05,8.42,-0.6300000000000008,fruitsalad,762.2000000476837,763,762.6000000238419,True,i,158059.39999997616,1280.5,1669831803540,1281,HRV,HRV_0013,2022-11-30 18:11:45
106,"[{'imgObject': {}, 'id': 'turkeysandwich', 'src': '/static/foodstim60/turkeysandwich.jpg', 'key': 'u', 'origWidth': 409, 'origHeight': 409, 'width': 409, 'height': 409, 'widthPercent': 0.45, 'rescaleHeight': False, 'trialN': 106, 'loaded': True, 'loadedTime': 4956.199999928474, 'positionName': 'LEFT', 'positionCoords': [512.6, 335.5], 'bid': 8.2}, {'imgObject': {}, 'id': 'corn cob', 'src': '/static/foodstim60/corn cob.jpg', 'key': 'i', 'origWidth': 411, 'origHeight': 411, 'width': 411, 'height': 411, 'widthPercent': 0.45, 'rescaleHeight': False, 'trialN': 106, 'loaded': True, 'loadedTime': 3810.399999976158, 'positionName': 'RIGHT', 'positionCoords': [998.4, 334.5], 'bid': 8.18}]",158059.5,1669831803540,turkeysandwich,corn cob,8.2,8.18,-0.019999999999999574,turkeysandwich,1557.6000000238419,1558,1558.1000000238419,True,u,160127.60000002384,2068.100000023842,1669831805608,2068,HRV,HRV_0013,2022-11-30 18:11:45
107,"[{'imgObject': {}, 'id': 'cherry tomato', 'src': '/static/foodstim60/cherry tomato.jpg', 'key': 'u', 'origWidth': 410, 'origHeight': 410, 'width': 410, 'height': 410, 'widthPercent': 0.45, 'rescaleHeight': False, 'trialN': 107, 'loaded': True, 'loadedTime': 4530.600000023842, 'positionName': 'LEFT', 'positionCoords': [511.6, 335], 'bid': 7.140000000000001}, {'imgObject': {}, 'id': 'kiwi', 'src': '/static/foodstim60/kiwi.jpg', 'key': 'i', 'origWidth': 410, 'origHeight': 410, 'width': 410, 'height': 410, 'widthPercent': 0.45, 'rescaleHeight': False, 'trialN': 107, 'loaded': True, 'loadedTime': 3897.600000023842, 'positionName': 'RIGHT', 'positionCoords': [998.4, 335], 'bid': 8.53}]",160127.79999995232,1669831805608,cherry tomato,kiwi,7.140000000000001,8.53,1.3899999999999988,kiwi,854.3999999761581,855,854.7000000476837,True,i,161487.5,1359.7000000476837,1669831806968,1360,HRV,HRV_0013,2022-11-30 18:11:45
108,"[{'imgObject': {}, 'id': 'eggsalad', 'src': '/static/foodstim60/eggsalad.jpg', 'key': 'u', 'origWidth': 410, 'origHeight': 409, 'width': 410, 'height': 409, 'widthPercent': 0.45, 'rescaleHeight': False, 'trialN': 108, 'loaded': True, 'loadedTime': 3795.899999976158, 'positionName': 'LEFT', 'positionCoords': [511.6, 335.5], 'bid': 4.91}, {'imgObject': {}, 'id': 'mac & cheese', 'src': '/static/foodstim60/mac & cheese.jpg', 'key': 'i', 'origWidth': 410, 'origHeight': 410, 'width': 410, 'height': 410, 'widthPercent': 0.45, 'rescaleHeight': False, 'trialN': 108, 'loaded': True, 'loadedTime': 3805.6999999284744, 'positionName': 'RIGHT', 'positionCoords': [998.4, 335], 'bid': 0.1}]",161487.79999995232,1669831806968,eggsalad,mac & cheese,4.91,0.1,-4.8100000000000005,eggsalad,678.3999999761581,679,678.8000000715256,True,u,162671.19999992847,1183.3999999761581,1669831808151,1183,HRV,HRV_0013,2022-11-30 18:11:45
