success,trial_type,trial_index,time_elapsed,internal_node_id,Block,TrialNumber,TrialTime,trialTimeDiff,FPS_avg,FPS_med,FPS_mode,TrialDur,winResizeTime,rt,block,button_pressed,MotCoh,MotDir,ColCoh,Color,ChoiceKey,Choice,Accuracy,RT,nFrames,FPS,PPD,missTrial,missTrialMsg,onsetDelay,fullScreenExitTime,canvCenter,TrialType,Score,BlockTrial,stimulus,button_labels,exp,subjectId,date
True,fullscreen,0,2584,0.0-0.0,0.0,1.0,,,,,,,,,,,,,,,,,,,,,,,,,,,,,,,,HRV,HRV_0013,2022-11-30 18:29:13
,wl-check-fps,1,7578,0.0-1.0,0.0,2.0,"[3408, 3415.9, 3443.8, 3450.6, 3465.5, 3481.7, 3499.5, 3516.1, 3532.2, 3549.4, 3566.3, 3582.1, 3599.4, 3616.1, 3631.9, 3649.8, 3666, 3681.9, 3699.9, 3715.8, 3732, 3749.8, 3765.6, 3782.9, 3799.1, 3815.2, 3832.9, 3850.3, 3866.2, 3882.8, 3899.9, 3915.8, 3931.9, 3949.8, 3965.8, 3982, 3999.7, 4015.8, 4032.5, 4049.1, 4066, 4081.8, 4098.6, 4115.8, 4131.6, 4148.8, 4165.9, 4182, 4198.6, 4215.7, 4231.7, 4248.8, 4265.8, 4281.8, 4298.7, 4315.7, 4331.7, 4349.7, 4365.8, 4381.7, 4398.7, 4415.3, 4432.5, 4450.4, 4465.5, 4483.1, 4499.7, 4515.1, 4532.4, 4548.9, 4567, 4582.9, 4598.9, 4616, 4631.7, 4648.6, 4666.7, 4682.3, 4698.4, 4715.5, 4732.3, 4748.4, 4765.4, 4782, 4798.7, 4815.6, 4832.6, 4848.6, 4866.4, 4883.4, 4899.2, 4915.5, 4932.1, 4948.3, 4965.3, 4982.5, 4998.5, 5015.4, 5031.6, 5048.5, 5066.2, 5082.8, 5098.7, 5116.7, 5132.1, 5148.5, 5165.3, 5182.3, 5199.2, 5215.3, 5232.2, 5249.1, 5266.2, 5282.5, 5298.7, 5315.1, 5332.8, 5350.2, 5365.4, 5382.4, 5399, 5415.1, 5431.9, 5449.2, 5465.2, 5482.2, 5498.3, 5515.2, 5532.2, 5548.3, 5565.8, 5582.7, 5598.5, 5615.4, 5632.6, 5650.2, 5665.2, 5683.3, 5698.6, 5715.2, 5732.1, 5749.1, 5765.1, 5783.6, 5800.5, 5816.4, 5833.1, 5849.2, 5864.9, 5883.6, 5898.1, 5916.5, 5932, 5948.8, 5965.6, 5982.2, 5999.2, 6015.2, 6032.3, 6048.4, 6065.3, 6082.4, 6099.3, 6115, 6132, 6149.4, 6166.6, 6182.4, 6198.5, 6215.4, 6232.6, 6248.4, 6265.3, 6282.9, 6299.8, 6315.7, 6332.6, 6348.3, 6365.4, 6382.6, 6398.3, 6415.3, 6432.4, 6449.4, 6465.3, 6482.4, 6499.3, 6515.3, 6533.8, 6549.4, 6565.3, 6582.9, 6598.9, 6615.7, 6631.7, 6648.3, 6666.3, 6682.3, 6699.4, 6715.4, 6732.4, 6749.3, 6765.3, 6782.5, 6798.4, 6815.4, 6831.6, 6849.6, 6865.5, 6882.2, 6900.6, 6916.1, 6932.8, 6948.5, 6965.4, 6982.6, 6998.6, 7015.4, 7031.6, 7049.5, 7065.5, 7082.7, 7098.8, 7115.7, 7131.8, 7148.8, 7165.6, 7181.6, 7198.8, 7216.8, 7232, 7248.8, 7265.6, 7282, 7299, 7315.6, 7332.2, 7348.9, 7365.8, 7381.8, 7398.6, 7416.6, 7432.6, 7448.7, 7465.5, 7482.7, 7499, 7516.1, 7532.6, 7548.9, 7565.4, 7583.1, 7599.1, 7616.1, 7632.3, 7650.4, 7666.7, 7682.3, 7699, 7716, 7733.2, 7749.7, 7765.4, 7782.2, 7798.7, 7815.6, 7831.6, 7848.7, 7865.6, 7881.5, 7900.5, 7915.3, 7931.8, 7948.9, 7965.5, 7981.5, 7999.6, 8015.6, 8031.9, 8048.5, 8065.4, 8082.4, 8098.6, 8116.6, 8132.7, 8149.6, 8166.4, 8182.4, 8198.6, 8215.6, 8231.6, 8248.7, 8265.5, 8281.9, 8298.6, 8315.7, 8332.4, 8348.9, 8365.6, 8382.6]","[1.5, 7.9, 27.9, 6.8, 14.9, 16.2, 17.8, 16.6, 16.1, 17.2, 16.9, 15.8, 17.3, 16.7, 15.8, 17.9, 16.2, 15.9, 18, 15.9, 16.2, 17.8, 15.8, 17.3, 16.2, 16.1, 17.7, 17.4, 15.9, 16.6, 17.1, 15.9, 16.1, 17.9, 16, 16.2, 17.7, 16.1, 16.7, 16.6, 16.9, 15.8, 16.8, 17.2, 15.8, 17.2, 17.1, 16.1, 16.6, 17.1, 16, 17.1, 17, 16, 16.9, 17, 16, 18, 16.1, 15.9, 17, 16.6, 17.2, 17.9, 15.1, 17.6, 16.6, 15.4, 17.3, 16.5, 18.1, 15.9, 16, 17.1, 15.7, 16.9, 18.1, 15.6, 16.1, 17.1, 16.8, 16.1, 17, 16.6, 16.7, 16.9, 17, 16, 17.8, 17, 15.8, 16.3, 16.6, 16.2, 17, 17.2, 16, 16.9, 16.2, 16.9, 17.7, 16.6, 15.9, 18, 15.4, 16.4, 16.8, 17, 16.9, 16.1, 16.9, 16.9, 17.1, 16.3, 16.2, 16.4, 17.7, 17.4, 15.2, 17, 16.6, 16.1, 16.8, 17.3, 16, 17, 16.1, 16.9, 17, 16.1, 17.5, 16.9, 15.8, 16.9, 17.2, 17.6, 15, 18.1, 15.3, 16.6, 16.9, 17, 16, 18.5, 16.9, 15.9, 16.7, 16.1, 15.7, 18.7, 14.5, 18.4, 15.5, 16.8, 16.8, 16.6, 17, 16, 17.1, 16.1, 16.9, 17.1, 16.9, 15.7, 17, 17.4, 17.2, 15.8, 16.1, 16.9, 17.2, 15.8, 16.9, 17.6, 16.9, 15.9, 16.9, 15.7, 17.1, 17.2, 15.7, 17, 17.1, 17, 15.9, 17.1, 16.9, 16, 18.5, 15.6, 15.9, 17.6, 16, 16.8, 16, 16.6, 18, 16, 17.1, 16, 17, 16.9, 16, 17.2, 15.9, 17, 16.2, 18, 15.9, 16.7, 18.4, 15.5, 16.7, 15.7, 16.9, 17.2, 16, 16.8, 16.2, 17.9, 16, 17.2, 16.1, 16.9, 16.1, 17, 16.8, 16, 17.2, 18, 15.2, 16.8, 16.8, 16.4, 17, 16.6, 16.6, 16.7, 16.9, 16, 16.8, 18, 16, 16.1, 16.8, 17.2, 16.3, 17.1, 16.5, 16.3, 16.5, 17.7, 16, 17, 16.2, 18.1, 16.3, 15.6, 16.7, 17, 17.2, 16.5, 15.7, 16.8, 16.5, 16.9, 16, 17.1, 16.9, 15.9, 19, 14.8, 16.5, 17.1, 16.6, 16, 18.1, 16, 16.3, 16.6, 16.9, 17, 16.2, 18, 16.1, 16.9, 16.8, 16, 16.2, 17, 16, 17.1, 16.8, 16.4, 16.7, 17.1, 16.7, 16.5, 16.7, 17]",60.0,60.0,59.0,4992.1,[],,,,,,,,,,,,,,,,,,,,,,,,,HRV,HRV_0013,2022-11-30 18:29:13
,wl-html-keyboard-response,2,23466,0.0-2.0-0.0,0.0,3.0,,,,,,,,13865.899999976158,0.0,0,,,,,,,,,,,,,,,,,,,,,,HRV,HRV_0013,2022-11-30 18:29:13
,wl-rdm,3,30128,0.0-3.0-0.0,0.0,4.0,,,,,,,[],,,,0.0,0.0,87.9,0.0,u,0.0,True,1087.8999999761581,66.0,59.0,40.0,False,,3000.0,[],"[960, 540]",ColorTask_Demo,,,,,HRV,HRV_0013,2022-11-30 18:29:13
,wl-rdm,4,34911,0.0-3.0-1.0,0.0,5.0,,,,,,,[],,,,0.0,0.0,87.9,1.0,i,1.0,True,689.5999999046326,42.0,59.0,40.0,False,,2000.0,[],"[960, 540]",ColorTask_Demo,,,,,HRV,HRV_0013,2022-11-30 18:29:13
,wl-html-keyboard-response,5,44207,0.0-3.0-2.0,0.0,6.0,,,,,,,,7288.5,0.0,1,,,,,,,,,,,,,,,,,,,,,,HRV,HRV_0013,2022-11-30 18:29:13
,wl-html-keyboard-response,6,53159,0.0-4.0-0.0,0.0,7.0,,,,,,,,6945.300000071526,0.0,0,,,,,,,,,,,,,,,,,,,,,,HRV,HRV_0013,2022-11-30 18:29:13
,wl-html-keyboard-response,7,388199,0.0-5.0-0.0,0.0,8.0,,,,,,,,333037.0,0.0,0,,,,,,,,,,,,,,,,,,,,,,HRV,HRV_0013,2022-11-30 18:29:13
,wl-rdm,8,390391,0.0-6.0-0.0,0.0,9.0,,,,,,,[],,,,,,87.9,1.0,i,1.0,True,896.5,54.0,59.0,40.0,False,,238.44283910652098,[],"[960, 540]",ColorTask,1.0,1.0,,,HRV,HRV_0013,2022-11-30 18:29:13
,wl-rdm,9,392441,0.0-6.1-0.1,0.0,10.0,,,,,,,[],,,,,,87.9,0.0,u,0.0,True,726.3999999761581,44.0,59.0,40.0,False,,242.4777200624428,[],"[960, 540]",ColorTask,2.0,2.0,,,HRV,HRV_0013,2022-11-30 18:29:13
,wl-rdm,10,394492,0.0-6.2-0.2,0.0,11.0,,,,,,,[],,,,,,50.0,1.0,i,1.0,True,725.7000000476837,44.0,59.0,40.0,False,,238.57979358191784,[],"[960, 540]",ColorTask,3.0,3.0,,,HRV,HRV_0013,2022-11-30 18:29:13
,wl-rdm,11,396441,0.0-6.3-0.3,0.0,12.0,,,,,,,[],,,,,,73.6,1.0,i,1.0,True,663.8999999761581,40.0,59.0,40.0,False,,211.4502732715056,[],"[960, 540]",ColorTask,4.0,4.0,,,HRV,HRV_0013,2022-11-30 18:29:13
,wl-rdm,12,398373,0.0-6.4-0.4,0.0,13.0,,,,,,,[],,,,,,62.5,0.0,u,0.0,True,649.2999999523163,39.0,59.0,40.0,False,,201.41116212394792,[],"[960, 540]",ColorTask,5.0,5.0,,,HRV,HRV_0013,2022-11-30 18:29:13
,wl-rdm,13,400774,0.0-6.5-0.5,0.0,14.0,,,,,,,[],,,,,,62.5,1.0,i,1.0,True,1107.1000000238419,67.0,59.0,40.0,False,,223.99311218104,[],"[960, 540]",ColorTask,6.0,6.0,,,HRV,HRV_0013,2022-11-30 18:29:13
,wl-rdm,14,402974,0.0-6.6-0.6,0.0,15.0,,,,,,,[],,,,,,50.0,0.0,u,0.0,True,893.5999999046326,54.0,59.0,40.0,False,,245.85789825882142,[],"[960, 540]",ColorTask,7.0,7.0,,,HRV,HRV_0013,2022-11-30 18:29:13
,wl-rdm,15,405140,0.0-6.7-0.7,0.0,16.0,,,,,,,[],,,,,,50.0,1.0,i,1.0,True,738.7999999523163,45.0,59.0,40.0,False,,339.1267199164764,[],"[960, 540]",ColorTask,8.0,8.0,,,HRV,HRV_0013,2022-11-30 18:29:13
,wl-rdm,16,407524,0.0-6.8-0.8,0.0,17.0,,,,,,,[],,,,,,50.0,1.0,u,0.0,False,986.7999999523163,60.0,59.0,40.0,False,,308.49927561106267,[],"[960, 540]",ColorTask,7.0,9.0,,,HRV,HRV_0013,2022-11-30 18:29:13
,wl-rdm,17,409590,0.0-6.9-0.9,0.0,18.0,,,,,,,[],,,,,,53.2,1.0,i,1.0,True,691.8000000715256,42.0,59.0,40.0,False,,300.4734271062166,[],"[960, 540]",ColorTask,8.0,10.0,,,HRV,HRV_0013,2022-11-30 18:29:13
,wl-rdm,18,411773,0.0-6.10-0.10,0.0,19.0,,,,,,,[],,,,,,56.4,1.0,i,1.0,True,791.8000000715256,48.0,59.0,40.0,False,,323.4089096746097,[],"[960, 540]",ColorTask,9.0,11.0,,,HRV,HRV_0013,2022-11-30 18:29:13
,wl-rdm,19,413873,0.0-6.11-0.11,0.0,20.0,,,,,,,[],,,,,,87.9,0.0,u,0.0,True,709.8999999761581,43.0,59.0,40.0,False,,325.2445482132931,[],"[960, 540]",ColorTask,10.0,12.0,,,HRV,HRV_0013,2022-11-30 18:29:13
,wl-rdm,20,416090,0.0-6.12-0.12,0.0,21.0,,,,,,,[],,,,,,56.4,1.0,i,1.0,True,909.5,55.0,59.0,40.0,False,,228.24875434256154,[],"[960, 540]",ColorTask,11.0,13.0,,,HRV,HRV_0013,2022-11-30 18:29:13
,wl-rdm,21,418206,0.0-6.13-0.13,0.0,22.0,,,,,,,[],,,,,,53.2,1.0,i,1.0,True,787.0,48.0,59.0,40.0,False,,235.12421678755658,[],"[960, 540]",ColorTask,12.0,14.0,,,HRV,HRV_0013,2022-11-30 18:29:13
,wl-rdm,22,420606,0.0-6.14-0.14,0.0,23.0,,,,,,,[],,,,,,50.0,1.0,i,1.0,True,1023.2999999523163,62.0,59.0,40.0,False,,291.12425137221453,[],"[960, 540]",ColorTask,13.0,15.0,,,HRV,HRV_0013,2022-11-30 18:29:13
,wl-rdm,23,422623,0.0-6.15-0.15,0.0,24.0,,,,,,,[],,,,,,87.9,1.0,i,1.0,True,581.799999833107,35.0,59.0,40.0,False,,371.6235016987121,[],"[960, 540]",ColorTask,14.0,16.0,,,HRV,HRV_0013,2022-11-30 18:29:13
,wl-rdm,24,424574,0.0-6.16-0.16,0.0,25.0,,,,,,,[],,,,,,53.2,0.0,i,1.0,False,657.2000000476837,40.0,59.0,40.0,False,,203.8204246032634,[],"[960, 540]",ColorTask,13.0,17.0,,,HRV,HRV_0013,2022-11-30 18:29:13
,wl-rdm,25,426590,0.0-6.17-0.17,0.0,26.0,,,,,,,[],,,,,,50.0,1.0,i,1.0,True,692.7000000476837,42.0,59.0,40.0,False,,261.06782190932216,[],"[960, 540]",ColorTask,14.0,18.0,,,HRV,HRV_0013,2022-11-30 18:29:13
,wl-rdm,26,428407,0.0-6.18-0.18,0.0,27.0,,,,,,,[],,,,,,87.9,0.0,u,0.0,True,540.6000000238419,33.0,59.0,40.0,False,,204.48432389411516,[],"[960, 540]",ColorTask,15.0,19.0,,,HRV,HRV_0013,2022-11-30 18:29:13
,wl-rdm,27,430440,0.0-6.19-0.19,0.0,28.0,,,,,,,[],,,,,,62.5,1.0,i,1.0,True,579.2999999523163,35.0,59.0,40.0,False,,386.1749065788159,[],"[960, 540]",ColorTask,16.0,20.0,,,HRV,HRV_0013,2022-11-30 18:29:13
,wl-rdm,28,432489,0.0-6.20-0.20,0.0,29.0,,,,,,,[],,,,,,53.2,0.0,i,1.0,False,757.5,46.0,59.0,40.0,False,,222.76991369627248,[],"[960, 540]",ColorTask,15.0,21.0,,,HRV,HRV_0013,2022-11-30 18:29:13
,wl-rdm,29,434689,0.0-6.21-0.21,0.0,30.0,,,,,,,[],,,,,,50.0,0.0,i,1.0,False,787.8000000715256,48.0,59.0,40.0,False,,340.51715468842997,[],"[960, 540]",ColorTask,14.0,22.0,,,HRV,HRV_0013,2022-11-30 18:29:13
,wl-rdm,30,436773,0.0-6.22-0.22,0.0,31.0,,,,,,,[],,,,,,87.9,0.0,u,0.0,True,653.5,40.0,59.0,40.0,False,,348.95658672931336,[],"[960, 540]",ColorTask,15.0,23.0,,,HRV,HRV_0013,2022-11-30 18:29:13
,wl-rdm,31,438956,0.0-6.23-0.23,0.0,32.0,,,,,,,[],,,,,,53.2,1.0,i,1.0,True,887.6000000238419,54.0,59.0,40.0,False,,202.7429454636437,[],"[960, 540]",ColorTask,16.0,24.0,,,HRV,HRV_0013,2022-11-30 18:29:13
,wl-rdm,32,441040,0.0-6.24-0.24,0.0,33.0,,,,,,,[],,,,,,87.9,1.0,i,1.0,True,664.5,40.0,59.0,40.0,False,,354.7642317219261,[],"[960, 540]",ColorTask,17.0,25.0,,,HRV,HRV_0013,2022-11-30 18:29:13
,wl-rdm,33,443122,0.0-6.25-0.25,0.0,34.0,,,,,,,[],,,,,,62.5,0.0,u,0.0,True,780.7000000476837,47.0,59.0,40.0,False,,240.08056747189204,[],"[960, 540]",ColorTask,18.0,26.0,,,HRV,HRV_0013,2022-11-30 18:29:13
,wl-rdm,34,445273,0.0-6.26-0.26,0.0,35.0,,,,,,,[],,,,,,53.2,0.0,i,1.0,False,730.3999999761581,44.0,59.0,40.0,False,,365.30932937842556,[],"[960, 540]",ColorTask,17.0,27.0,,,HRV,HRV_0013,2022-11-30 18:29:13
,wl-rdm,35,447373,0.0-6.27-0.27,0.0,36.0,,,,,,,[],,,,,,50.0,0.0,i,1.0,False,676.3000000715256,41.0,59.0,40.0,False,,347.8114539452455,[],"[960, 540]",ColorTask,16.0,28.0,,,HRV,HRV_0013,2022-11-30 18:29:13
,wl-rdm,36,449822,0.0-6.28-0.28,0.0,37.0,,,,,,,[],,,,,,56.4,1.0,i,1.0,True,1125.4000000953674,68.0,59.0,40.0,False,,257.0221500309433,[],"[960, 540]",ColorTask,17.0,29.0,,,HRV,HRV_0013,2022-11-30 18:29:13
,wl-rdm,37,451940,0.0-6.29-0.29,0.0,38.0,,,,,,,[],,,,,,73.6,1.0,i,1.0,True,741.2000000476837,45.0,59.0,40.0,False,,298.7210497609614,[],"[960, 540]",ColorTask,18.0,30.0,,,HRV,HRV_0013,2022-11-30 18:29:13
,wl-rdm,38,454356,0.0-6.30-0.30,0.0,39.0,,,,,,,[],,,,,,50.0,0.0,i,1.0,False,1098.6999999284744,66.0,59.0,40.0,False,,237.93020807749667,[],"[960, 540]",ColorTask,17.0,31.0,,,HRV,HRV_0013,2022-11-30 18:29:13
,wl-rdm,39,456440,0.0-6.31-0.31,0.0,40.0,,,,,,,[],,,,,,73.6,1.0,i,1.0,True,756.1999999284744,46.0,59.0,40.0,False,,242.73608650317772,[],"[960, 540]",ColorTask,18.0,32.0,,,HRV,HRV_0013,2022-11-30 18:29:13
,wl-rdm,40,458489,0.0-6.32-0.32,0.0,41.0,,,,,,,[],,,,,,73.6,0.0,u,0.0,True,731.4000000953674,44.0,59.0,40.0,False,,238.1885896697964,[],"[960, 540]",ColorTask,19.0,33.0,,,HRV,HRV_0013,2022-11-30 18:29:13
,wl-rdm,41,461089,0.0-6.33-0.33,0.0,42.0,,,,,,,[],,,,,,50.0,0.0,i,1.0,False,1142.1000000238419,69.0,59.0,40.0,False,,372.05338519017175,[],"[960, 540]",ColorTask,18.0,34.0,,,HRV,HRV_0013,2022-11-30 18:29:13
,wl-rdm,42,463190,0.0-6.34-0.34,0.0,43.0,,,,,,,[],,,,,,62.5,0.0,u,0.0,True,812.0,49.0,59.0,40.0,False,,216.15863446666913,[],"[960, 540]",ColorTask,19.0,35.0,,,HRV,HRV_0013,2022-11-30 18:29:13
,wl-rdm,43,465455,0.0-6.35-0.35,0.0,44.0,,,,,,,[],,,,,,73.6,1.0,i,1.0,True,805.3999999761581,49.0,59.0,40.0,False,,399.6649063079093,[],"[960, 540]",ColorTask,20.0,36.0,,,HRV,HRV_0013,2022-11-30 18:29:13
,wl-rdm,44,467856,0.0-6.36-0.36,0.0,45.0,,,,,,,[],,,,,,73.6,0.0,u,0.0,True,965.3999999761581,58.0,59.0,40.0,False,,350.7466542428589,[],"[960, 540]",ColorTask,21.0,37.0,,,HRV,HRV_0013,2022-11-30 18:29:13
,wl-rdm,45,470406,0.0-6.37-0.37,0.0,46.0,,,,,,,[],,,,,,56.4,0.0,u,0.0,True,1105.0,67.0,59.0,40.0,False,,362.32490861960287,[],"[960, 540]",ColorTask,22.0,38.0,,,HRV,HRV_0013,2022-11-30 18:29:13
,wl-rdm,46,472705,0.0-6.38-0.38,0.0,47.0,,,,,,,[],,,,,,56.4,1.0,i,1.0,True,967.8999998569489,59.0,59.0,40.0,False,,235.05694530664542,[],"[960, 540]",ColorTask,23.0,39.0,,,HRV,HRV_0013,2022-11-30 18:29:13
,wl-rdm,47,474889,0.0-6.39-0.39,0.0,48.0,,,,,,,[],,,,,,87.9,1.0,i,1.0,True,819.299999833107,50.0,59.0,40.0,False,,290.99410087667974,[],"[960, 540]",ColorTask,24.0,40.0,,,HRV,HRV_0013,2022-11-30 18:29:13
,wl-rdm,48,477372,0.0-6.40-0.40,0.0,49.0,,,,,,,[],,,,,,56.4,0.0,u,0.0,True,1049.5999999046326,63.0,59.0,40.0,False,,362.1702094595604,[],"[960, 540]",ColorTask,25.0,41.0,,,HRV,HRV_0013,2022-11-30 18:29:13
,wl-rdm,49,479523,0.0-6.41-0.41,0.0,50.0,,,,,,,[],,,,,,56.4,1.0,i,1.0,True,875.6999999284744,53.0,59.0,40.0,False,,206.45516239979085,[],"[960, 540]",ColorTask,26.0,42.0,,,HRV,HRV_0013,2022-11-30 18:29:13
,wl-rdm,50,481905,0.0-6.42-0.42,0.0,51.0,,,,,,,[],,,,,,73.6,0.0,u,0.0,True,983.3999998569489,59.0,59.0,40.0,False,,342.8829370234455,[],"[960, 540]",ColorTask,27.0,43.0,,,HRV,HRV_0013,2022-11-30 18:29:13
,wl-rdm,51,484422,0.0-6.43-0.43,0.0,52.0,,,,,,,[],,,,,,53.2,0.0,i,1.0,False,1136.8000000715256,69.0,59.0,40.0,False,,309.16984038450676,[],"[960, 540]",ColorTask,26.0,44.0,,,HRV,HRV_0013,2022-11-30 18:29:13
,wl-rdm,52,486739,0.0-6.44-0.44,0.0,53.0,,,,,,,[],,,,,,62.5,1.0,i,1.0,True,987.8999999761581,60.0,59.0,40.0,False,,263.28019973964956,[],"[960, 540]",ColorTask,27.0,45.0,,,HRV,HRV_0013,2022-11-30 18:29:13
,wl-rdm,53,489039,0.0-6.45-0.45,0.0,54.0,,,,,,,[],,,,,,62.5,0.0,u,0.0,True,925.8999999761581,56.0,59.0,40.0,False,,283.81500338286213,[],"[960, 540]",ColorTask,28.0,46.0,,,HRV,HRV_0013,2022-11-30 18:29:13
,wl-rdm,54,491472,0.0-6.46-0.46,0.0,55.0,,,,,,,[],,,,,,56.4,0.0,i,1.0,False,1120.4999998807907,68.0,59.0,40.0,False,,219.19048593676735,[],"[960, 540]",ColorTask,27.0,47.0,,,HRV,HRV_0013,2022-11-30 18:29:13
,wl-rdm,55,493739,0.0-6.47-0.47,0.0,56.0,,,,,,,[],,,,,,62.5,0.0,i,1.0,False,866.6999999284744,52.0,59.0,40.0,False,,327.50067836114397,[],"[960, 540]",ColorTask,26.0,48.0,,,HRV,HRV_0013,2022-11-30 18:29:13
,wl-rdm,56,495705,0.0-6.48-0.48,0.0,57.0,,,,,,,[],,,,,,87.9,1.0,i,1.0,True,642.8999999761581,39.0,59.0,40.0,False,,238.11033704121576,[],"[960, 540]",ColorTask,27.0,49.0,,,HRV,HRV_0013,2022-11-30 18:29:13
,wl-rdm,57,497955,0.0-6.49-0.49,0.0,58.0,,,,,,,[],,,,,,62.5,1.0,i,1.0,True,885.3999999761581,54.0,59.0,40.0,False,,298.5345863412475,[],"[960, 540]",ColorTask,28.0,50.0,,,HRV,HRV_0013,2022-11-30 18:29:13
,wl-rdm,58,500106,0.0-6.50-0.50,0.0,59.0,,,,,,,[],,,,,,56.4,0.0,u,0.0,True,844.8000000715256,51.0,59.0,40.0,False,,237.3869243282004,[],"[960, 540]",ColorTask,29.0,51.0,,,HRV,HRV_0013,2022-11-30 18:29:13
,wl-rdm,59,502273,0.0-6.51-0.51,0.0,60.0,,,,,,,[],,,,,,50.0,1.0,u,0.0,False,886.0999999046326,54.0,59.0,40.0,False,,212.6448514983062,[],"[960, 540]",ColorTask,28.0,52.0,,,HRV,HRV_0013,2022-11-30 18:29:13
,wl-rdm,60,504872,0.0-6.52-0.52,0.0,61.0,,,,,,,[],,,,,,53.2,0.0,u,0.0,True,1159.8000000715256,70.0,59.0,40.0,False,,368.0519039570327,[],"[960, 540]",ColorTask,29.0,53.0,,,HRV,HRV_0013,2022-11-30 18:29:13
,wl-rdm,61,507356,0.0-6.53-0.53,0.0,62.0,,,,,,,[],,,,,,50.0,0.0,i,1.0,False,1099.7000000476837,66.0,59.0,40.0,False,,312.29133584320164,[],"[960, 540]",ColorTask,28.0,54.0,,,HRV,HRV_0013,2022-11-30 18:29:13
,wl-rdm,62,509839,0.0-6.54-0.54,0.0,63.0,,,,,,,[],,,,,,53.2,1.0,u,0.0,False,1136.0000001192093,69.0,59.0,40.0,False,,255.64923090594587,[],"[960, 540]",ColorTask,27.0,55.0,,,HRV,HRV_0013,2022-11-30 18:29:13
,wl-rdm,63,511955,0.0-6.55-0.55,0.0,64.0,,,,,,,[],,,,,,53.2,1.0,i,1.0,True,844.6000000238419,51.0,59.0,40.0,False,,214.3269601719141,[],"[960, 540]",ColorTask,28.0,56.0,,,HRV,HRV_0013,2022-11-30 18:29:13
,wl-rdm,64,514288,0.0-6.56-0.56,0.0,65.0,,,,,,,[],,,,,,50.0,1.0,u,0.0,False,1041.2999999523163,63.0,59.0,40.0,False,,204.00427895659115,[],"[960, 540]",ColorTask,27.0,57.0,,,HRV,HRV_0013,2022-11-30 18:29:13
,wl-rdm,65,516539,0.0-6.57-0.57,0.0,66.0,,,,,,,[],,,,,,62.5,1.0,i,1.0,True,782.4000000953674,47.0,59.0,40.0,False,,387.7459177657024,[],"[960, 540]",ColorTask,28.0,58.0,,,HRV,HRV_0013,2022-11-30 18:29:13
,wl-rdm,66,518905,0.0-6.58-0.58,0.0,67.0,,,,,,,[],,,,,,56.4,1.0,u,0.0,False,1080.5,65.0,59.0,40.0,False,,203.44834248465358,[],"[960, 540]",ColorTask,27.0,59.0,,,HRV,HRV_0013,2022-11-30 18:29:13
,wl-rdm,67,520938,0.0-6.59-0.59,0.0,68.0,,,,,,,[],,,,,,87.9,1.0,i,1.0,True,690.2000000476837,42.0,59.0,40.0,False,,253.15969092510346,[],"[960, 540]",ColorTask,28.0,60.0,,,HRV,HRV_0013,2022-11-30 18:29:13
,wl-rdm,68,523138,0.0-6.60-0.60,0.0,69.0,,,,,,,[],,,,,,73.6,1.0,i,1.0,True,909.0999999046326,55.0,59.0,40.0,False,,202.81452142038006,[],"[960, 540]",ColorTask,29.0,61.0,,,HRV,HRV_0013,2022-11-30 18:29:13
,wl-rdm,69,525272,0.0-6.61-0.61,0.0,70.0,,,,,,,[],,,,,,73.6,0.0,u,0.0,True,832.7999999523163,50.0,59.0,40.0,False,,226.9184142128161,[],"[960, 540]",ColorTask,30.0,62.0,,,HRV,HRV_0013,2022-11-30 18:29:13
,wl-rdm,70,527756,0.0-6.62-0.62,0.0,71.0,,,,,,,[],,,,,,56.4,0.0,i,1.0,False,1078.5000001192093,65.0,59.0,40.0,False,,337.5132468219165,[],"[960, 540]",ColorTask,29.0,63.0,,,HRV,HRV_0013,2022-11-30 18:29:13
,wl-rdm,71,530172,0.0-6.63-0.63,0.0,72.0,,,,,,,[],,,,,,73.6,1.0,i,1.0,True,958.5999999046326,58.0,59.0,40.0,False,,369.8699628166981,[],"[960, 540]",ColorTask,30.0,64.0,,,HRV,HRV_0013,2022-11-30 18:29:13
,wl-rdm,72,532222,0.0-6.64-0.64,0.0,73.0,,,,,,,[],,,,,,87.9,0.0,u,0.0,True,581.3999999761581,35.0,59.0,40.0,False,,389.7158658678877,[],"[960, 540]",ColorTask,31.0,65.0,,,HRV,HRV_0013,2022-11-30 18:29:13
,wl-rdm,73,534672,0.0-6.65-0.65,0.0,74.0,,,,,,,[],,,,,,73.6,1.0,i,1.0,True,1162.9000000953674,70.0,59.0,40.0,False,,224.99239575732085,[],"[960, 540]",ColorTask,32.0,66.0,,,HRV,HRV_0013,2022-11-30 18:29:13
,wl-rdm,74,536871,0.0-6.66-0.66,0.0,75.0,,,,,,,[],,,,,,73.6,1.0,i,1.0,True,814.5,49.0,59.0,40.0,False,,311.8823675087882,[],"[960, 540]",ColorTask,33.0,67.0,,,HRV,HRV_0013,2022-11-30 18:29:13
,wl-rdm,75,539139,0.0-6.67-0.67,0.0,76.0,,,,,,,[],,,,,,62.5,1.0,i,1.0,True,825.2000000476837,50.0,59.0,40.0,False,,363.75085907249746,[],"[960, 540]",ColorTask,34.0,68.0,,,HRV,HRV_0013,2022-11-30 18:29:13
,wl-rdm,76,541239,0.0-6.68-0.68,0.0,77.0,,,,,,,[],,,,,,56.4,0.0,u,0.0,True,813.6000000238419,49.0,59.0,40.0,False,,217.93154573381855,[],"[960, 540]",ColorTask,35.0,69.0,,,HRV,HRV_0013,2022-11-30 18:29:13
,wl-rdm,77,544554,0.0-6.69-0.69,0.0,78.0,,,,,,,[],,,,,,53.2,0.0,i,1.0,False,1909.1000000238419,115.0,59.0,40.0,False,,325.13923043569275,[],"[960, 540]",ColorTask,34.0,70.0,,,HRV,HRV_0013,2022-11-30 18:29:13
,wl-rdm,78,546588,0.0-6.70-0.70,0.0,79.0,,,,,,,[],,,,,,62.5,1.0,i,1.0,True,691.0,42.0,59.0,40.0,False,,258.118337309366,[],"[960, 540]",ColorTask,35.0,71.0,,,HRV,HRV_0013,2022-11-30 18:29:13
,wl-rdm,79,549389,0.0-6.71-0.71,0.0,80.0,,,,,,,[],,,,,,56.4,1.0,i,1.0,True,1446.0,87.0,59.0,40.0,False,,276.86097328556804,[],"[960, 540]",ColorTask,36.0,72.0,,,HRV,HRV_0013,2022-11-30 18:29:13
,wl-rdm,80,551905,0.0-6.72-0.72,0.0,81.0,,,,,,,[],,,,,,50.0,0.0,u,0.0,True,1125.2999999523163,68.0,59.0,40.0,False,,328.0815020712997,[],"[960, 540]",ColorTask,37.0,73.0,,,HRV,HRV_0013,2022-11-30 18:29:13
,wl-rdm,81,554504,0.0-6.73-0.73,0.0,82.0,,,,,,,[],,,,,,56.4,0.0,u,0.0,True,1289.6000000238419,78.0,59.0,40.0,False,,224.60078732366298,[],"[960, 540]",ColorTask,38.0,74.0,,,HRV,HRV_0013,2022-11-30 18:29:13
,wl-rdm,82,556872,0.0-6.74-0.74,0.0,83.0,,,,,,,[],,,,,,73.6,0.0,u,0.0,True,986.8000000715256,60.0,59.0,40.0,False,,298.316577001414,[],"[960, 540]",ColorTask,39.0,75.0,,,HRV,HRV_0013,2022-11-30 18:29:13
,wl-rdm,83,559488,0.0-6.75-0.75,0.0,84.0,,,,,,,[],,,,,,53.2,1.0,i,1.0,True,1325.5999999046326,80.0,59.0,40.0,False,,201.05359698946515,[],"[960, 540]",ColorTask,40.0,76.0,,,HRV,HRV_0013,2022-11-30 18:29:13
,wl-rdm,84,562188,0.0-6.76-0.76,0.0,85.0,,,,,,,[],,,,,,62.5,0.0,u,0.0,True,1253.6000000238419,76.0,59.0,40.0,False,,366.2436878886725,[],"[960, 540]",ColorTask,41.0,77.0,,,HRV,HRV_0013,2022-11-30 18:29:13
,wl-rdm,85,564671,0.0-6.77-0.77,0.0,86.0,,,,,,,[],,,,,,73.6,1.0,i,1.0,True,1141.8999999761581,69.0,59.0,40.0,False,,282.8265116175595,[],"[960, 540]",ColorTask,42.0,78.0,,,HRV,HRV_0013,2022-11-30 18:29:13
,wl-rdm,86,566921,0.0-6.78-0.78,0.0,87.0,,,,,,,[],,,,,,87.9,0.0,u,0.0,True,819.0,50.0,59.0,40.0,False,,358.29935501329055,[],"[960, 540]",ColorTask,43.0,79.0,,,HRV,HRV_0013,2022-11-30 18:29:13
,wl-rdm,87,569671,0.0-6.79-0.79,0.0,88.0,,,,,,,[],,,,,,50.0,0.0,i,1.0,False,1411.2999999523163,85.0,59.0,40.0,False,,262.9776837748701,[],"[960, 540]",ColorTask,42.0,80.0,,,HRV,HRV_0013,2022-11-30 18:29:13
,wl-rdm,88,571922,0.0-6.80-0.80,0.0,89.0,,,,,,,[],,,,,,73.6,0.0,u,0.0,True,942.5999999046326,57.0,59.0,40.0,False,,233.811217991991,[],"[960, 540]",ColorTask,43.0,81.0,,,HRV,HRV_0013,2022-11-30 18:29:13
,wl-rdm,89,574538,0.0-6.81-0.81,0.0,90.0,,,,,,,[],,,,,,87.9,0.0,u,0.0,True,1306.8999999761581,79.0,59.0,40.0,False,,221.78953460661756,[],"[960, 540]",ColorTask,44.0,82.0,,,HRV,HRV_0013,2022-11-30 18:29:13
,wl-rdm,90,577838,0.0-6.82-0.82,0.0,91.0,,,,,,,[],,,,,,62.5,1.0,i,1.0,True,1996.6000000238419,120.0,59.0,40.0,False,,219.3904843263843,[],"[960, 540]",ColorTask,45.0,83.0,,,HRV,HRV_0013,2022-11-30 18:29:13
,wl-rdm,91,580937,0.0-6.83-0.83,0.0,92.0,,,,,,,[],,,,,,87.9,1.0,i,1.0,True,1677.8999999761581,101.0,59.0,40.0,False,,348.49271446288714,[],"[960, 540]",ColorTask,46.0,84.0,,,HRV,HRV_0013,2022-11-30 18:29:13
,wl-rdm,92,584671,0.0-6.84-0.84,0.0,93.0,,,,,,,[],,,,,,56.4,1.0,i,1.0,True,2371.2000000476837,143.0,59.0,40.0,False,,288.3672171724835,[],"[960, 540]",ColorTask,47.0,85.0,,,HRV,HRV_0013,2022-11-30 18:29:13
,wl-rdm,93,588888,0.0-6.85-0.85,0.0,94.0,,,,,,,[],,,,,,50.0,1.0,u,0.0,False,2911.399999976158,175.0,59.0,40.0,False,,245.42910841159105,[],"[960, 540]",ColorTask,46.0,86.0,,,HRV,HRV_0013,2022-11-30 18:29:13
,wl-rdm,94,592988,0.0-6.86-0.86,0.0,95.0,,,,,,,[],,,,,,62.5,0.0,u,0.0,True,2724.0,164.0,59.0,40.0,False,,286.6959297736172,[],"[960, 540]",ColorTask,47.0,87.0,,,HRV,HRV_0013,2022-11-30 18:29:13
,wl-rdm,95,596788,0.0-6.87-0.87,0.0,96.0,,,,,,,[],,,,,,53.2,0.0,i,1.0,False,2361.5,142.0,59.0,40.0,False,,351.38967697574026,[],"[960, 540]",ColorTask,46.0,88.0,,,HRV,HRV_0013,2022-11-30 18:29:13
,wl-rdm,96,600171,0.0-6.88-0.88,0.0,97.0,,,,,,,[],,,,,,87.9,1.0,i,1.0,True,2091.600000023842,126.0,59.0,40.0,False,,208.92564257047846,[],"[960, 540]",ColorTask,47.0,89.0,,,HRV,HRV_0013,2022-11-30 18:29:13
,wl-rdm,97,604522,0.0-6.89-0.89,0.0,97.0,,,,,,,[],,,,,,53.2,1.0,,,,,176.0,59.0,40.0,True,RT_timeout ,247.39244184024625,[],"[960, 540]",ColorTask,46.0,90.0,,,HRV,HRV_0013,2022-11-30 18:29:13
,wl-rdm,98,607020,0.0-6.90-0.90,0.0,98.0,,,,,,,[],,,,,,56.4,0.0,u,0.0,True,1207.1000000238419,73.0,59.0,40.0,False,,206.38128576957857,[],"[960, 540]",ColorTask,47.0,91.0,,,HRV,HRV_0013,2022-11-30 18:29:13
,wl-rdm,99,609154,0.0-6.91-0.91,0.0,99.0,,,,,,,[],,,,,,87.9,1.0,i,1.0,True,744.2999999523163,45.0,59.0,40.0,False,,312.2960473095141,[],"[960, 540]",ColorTask,48.0,92.0,,,HRV,HRV_0013,2022-11-30 18:29:13
,wl-rdm,100,612237,0.0-6.92-0.92,0.0,100.0,,,,,,,[],,,,,,53.2,1.0,i,1.0,True,1704.0,103.0,59.0,40.0,False,,312.3531020620916,[],"[960, 540]",ColorTask,49.0,93.0,,,HRV,HRV_0013,2022-11-30 18:29:13
,wl-rdm,101,615820,0.0-6.93-0.93,0.0,101.0,,,,,,,[],,,,,,50.0,0.0,i,1.0,False,2296.5,138.0,59.0,40.0,False,,212.22006870278014,[],"[960, 540]",ColorTask,48.0,94.0,,,HRV,HRV_0013,2022-11-30 18:29:13
,wl-rdm,102,618454,0.0-6.94-0.94,0.0,102.0,,,,,,,[],,,,,,62.5,0.0,u,0.0,True,1245.3999998569489,75.0,59.0,40.0,False,,303.4047273282806,[],"[960, 540]",ColorTask,49.0,95.0,,,HRV,HRV_0013,2022-11-30 18:29:13
,wl-rdm,103,621104,0.0-6.95-0.95,0.0,103.0,,,,,,,[],,,,,,53.2,0.0,i,1.0,False,1298.5,78.0,59.0,40.0,False,,269.9912006956932,[],"[960, 540]",ColorTask,48.0,96.0,,,HRV,HRV_0013,2022-11-30 18:29:13
,wl-rdm,104,623287,0.0-6.96-0.96,0.0,104.0,,,,,,,[],,,,,,73.6,0.0,u,0.0,True,874.3000000715256,53.0,59.0,40.0,False,,220.74074780799538,[],"[960, 540]",ColorTask,49.0,97.0,,,HRV,HRV_0013,2022-11-30 18:29:13
,wl-rdm,105,625504,0.0-6.97-0.97,0.0,105.0,,,,,,,[],,,,,,87.9,0.0,u,0.0,True,902.1999999284744,55.0,59.0,40.0,False,,231.60689184638457,[],"[960, 540]",ColorTask,50.0,98.0,,,HRV,HRV_0013,2022-11-30 18:29:13
,wl-rdm,106,628104,0.0-6.98-0.98,0.0,106.0,,,,,,,[],,,,,,53.2,1.0,i,1.0,True,1180.5,71.0,59.0,40.0,False,,341.34352547406934,[],"[960, 540]",ColorTask,51.0,99.0,,,HRV,HRV_0013,2022-11-30 18:29:13
,wl-rdm,107,631703,0.0-6.99-0.99,0.0,107.0,,,,,,,[],,,,,,50.0,1.0,i,1.0,True,2202.3000000715256,133.0,59.0,40.0,False,,314.7470741544735,[],"[960, 540]",ColorTask,52.0,100.0,,,HRV,HRV_0013,2022-11-30 18:29:13
,wl-rdm,108,633921,0.0-6.100-0.100,0.0,108.0,,,,,,,[],,,,,,62.5,0.0,u,0.0,True,890.2000000476837,54.0,59.0,40.0,False,,240.11521867331874,[],"[960, 540]",ColorTask,53.0,101.0,,,HRV,HRV_0013,2022-11-30 18:29:13
,wl-rdm,109,636671,0.0-6.101-0.101,0.0,109.0,,,,,,,[],,,,,,56.4,0.0,u,0.0,True,1451.8999999761581,88.0,59.0,40.0,False,,212.79134615217728,[],"[960, 540]",ColorTask,54.0,102.0,,,HRV,HRV_0013,2022-11-30 18:29:13
,wl-rdm,110,639287,0.0-6.102-0.102,0.0,110.0,,,,,,,[],,,,,,56.4,1.0,u,0.0,False,1298.0,78.0,59.0,40.0,False,,243.32398908280774,[],"[960, 540]",ColorTask,53.0,103.0,,,HRV,HRV_0013,2022-11-30 18:29:13
,wl-rdm,111,642088,0.0-6.103-0.103,0.0,111.0,,,,,,,[],,,,,,53.2,1.0,i,1.0,True,1445.3999999761581,87.0,59.0,40.0,False,,289.63074884800767,[],"[960, 540]",ColorTask,54.0,104.0,,,HRV,HRV_0013,2022-11-30 18:29:13
,wl-rdm,112,644888,0.0-6.104-0.104,0.0,112.0,,,,,,,[],,,,,,62.5,1.0,i,1.0,True,1459.3000000715256,88.0,59.0,40.0,False,,262.3438303310823,[],"[960, 540]",ColorTask,55.0,105.0,,,HRV,HRV_0013,2022-11-30 18:29:13
,wl-rdm,113,647104,0.0-6.105-0.105,0.0,113.0,,,,,,,[],,,,,,73.6,0.0,u,0.0,True,871.4000000953674,53.0,59.0,40.0,False,,266.1533177074993,[],"[960, 540]",ColorTask,56.0,106.0,,,HRV,HRV_0013,2022-11-30 18:29:13
,wl-rdm,114,649220,0.0-6.106-0.106,0.0,114.0,,,,,,,[],,,,,,87.9,0.0,u,0.0,True,845.1000000238419,51.0,59.0,40.0,False,,212.3954458932593,[],"[960, 540]",ColorTask,57.0,107.0,,,HRV,HRV_0013,2022-11-30 18:29:13
,wl-rdm,115,651703,0.0-6.107-0.107,0.0,115.0,,,,,,,[],,,,,,53.2,0.0,i,1.0,False,1043.6999999284744,63.0,59.0,40.0,False,,361.4455233680277,[],"[960, 540]",ColorTask,56.0,108.0,,,HRV,HRV_0013,2022-11-30 18:29:13
,wl-rdm,116,654437,0.0-6.108-0.108,0.0,116.0,,,,,,,[],,,,,,73.6,0.0,u,0.0,True,1452.6999999284744,88.0,59.0,40.0,False,,203.4698796683106,[],"[960, 540]",ColorTask,57.0,109.0,,,HRV,HRV_0013,2022-11-30 18:29:13
,wl-html-keyboard-response,117,791153,0.0-7.0-0.0,1.0,117.0,,,,,,,,134709.60000002384,1.0,0,,,,,,,,,,,,,,,,,,,,,,HRV,HRV_0013,2022-11-30 18:29:13
,wl-rdm,118,793335,0.0-8.0-0.0,1.0,118.0,,,,,,,[],,,,,,56.4,1.0,i,1.0,True,782.6000000238419,47.0,59.0,40.0,False,,326.34685749532537,[],"[960, 540]",ColorTask,58.0,1.0,,,HRV,HRV_0013,2022-11-30 18:29:13
,wl-rdm,119,795569,0.0-8.1-0.1,1.0,119.0,,,,,,,[],,,,,,87.9,0.0,u,0.0,True,791.8000000715256,48.0,59.0,40.0,False,,368.2566310123873,[],"[960, 540]",ColorTask,59.0,2.0,,,HRV,HRV_0013,2022-11-30 18:29:13
,wl-rdm,120,797618,0.0-8.2-0.2,1.0,120.0,,,,,,,[],,,,,,50.0,0.0,i,1.0,False,787.7000000476837,48.0,59.0,40.0,False,,200.14116324126948,[],"[960, 540]",ColorTask,58.0,3.0,,,HRV,HRV_0013,2022-11-30 18:29:13
,wl-rdm,121,799668,0.0-8.3-0.3,1.0,121.0,,,,,,,[],,,,,,62.5,1.0,i,1.0,True,686.1999999284744,42.0,59.0,40.0,False,,280.9371428793484,[],"[960, 540]",ColorTask,59.0,4.0,,,HRV,HRV_0013,2022-11-30 18:29:13
,wl-rdm,122,801701,0.0-8.4-0.4,1.0,122.0,,,,,,,[],,,,,,73.6,1.0,i,1.0,True,729.2000000476837,44.0,59.0,40.0,False,,225.133629511301,[],"[960, 540]",ColorTask,60.0,5.0,,,HRV,HRV_0013,2022-11-30 18:29:13
,wl-rdm,123,804203,0.0-8.5-0.5,1.0,123.0,,,,,,,[],,,,,,62.5,0.0,u,0.0,True,1149.5,69.0,59.0,40.0,False,,278.9846929222465,[],"[960, 540]",ColorTask,61.0,6.0,,,HRV,HRV_0013,2022-11-30 18:29:13
,wl-rdm,124,807985,0.0-8.6-0.6,1.0,124.0,,,,,,,[],,,,,,53.2,0.0,u,0.0,True,2327.5,140.0,59.0,40.0,False,,368.1359523333675,[],"[960, 540]",ColorTask,62.0,7.0,,,HRV,HRV_0013,2022-11-30 18:29:13
,wl-rdm,125,810501,0.0-8.7-0.7,1.0,125.0,,,,,,,[],,,,,,73.6,1.0,i,1.0,True,1052.3999999761581,64.0,59.0,40.0,False,,371.6205803683764,[],"[960, 540]",ColorTask,63.0,8.0,,,HRV,HRV_0013,2022-11-30 18:29:13
,wl-rdm,126,813651,0.0-8.8-0.8,1.0,126.0,,,,,,,[],,,,,,50.0,1.0,i,1.0,True,1836.6000000238419,111.0,59.0,40.0,False,,233.3174203524022,[],"[960, 540]",ColorTask,64.0,9.0,,,HRV,HRV_0013,2022-11-30 18:29:13
,wl-rdm,127,816118,0.0-8.9-0.9,1.0,127.0,,,,,,,[],,,,,,56.4,1.0,i,1.0,True,1178.2000000476837,71.0,59.0,40.0,False,,224.09490921402312,[],"[960, 540]",ColorTask,65.0,10.0,,,HRV,HRV_0013,2022-11-30 18:29:13
,wl-rdm,128,818585,0.0-8.10-0.10,1.0,128.0,,,,,,,[],,,,,,53.2,1.0,u,0.0,False,1148.1000000238419,69.0,59.0,40.0,False,,248.87377721884837,[],"[960, 540]",ColorTask,64.0,11.0,,,HRV,HRV_0013,2022-11-30 18:29:13
,wl-rdm,129,820685,0.0-8.11-0.11,1.0,129.0,,,,,,,[],,,,,,73.6,0.0,u,0.0,True,701.6000000238419,43.0,59.0,40.0,False,,313.15320208714246,[],"[960, 540]",ColorTask,65.0,12.0,,,HRV,HRV_0013,2022-11-30 18:29:13
,wl-rdm,130,823101,0.0-8.12-0.12,1.0,130.0,,,,,,,[],,,,,,56.4,1.0,i,1.0,True,961.0,58.0,59.0,40.0,False,,375.8779266600213,[],"[960, 540]",ColorTask,66.0,13.0,,,HRV,HRV_0013,2022-11-30 18:29:13
,wl-rdm,131,825268,0.0-8.13-0.13,1.0,131.0,,,,,,,[],,,,,,87.9,1.0,i,1.0,True,710.0,43.0,59.0,40.0,False,,398.348221509498,[],"[960, 540]",ColorTask,67.0,14.0,,,HRV,HRV_0013,2022-11-30 18:29:13
,wl-rdm,132,828001,0.0-8.14-0.14,1.0,132.0,,,,,,,[],,,,,,53.2,0.0,i,1.0,False,1285.1000000238419,78.0,59.0,40.0,False,,359.4635442607339,[],"[960, 540]",ColorTask,66.0,15.0,,,HRV,HRV_0013,2022-11-30 18:29:13
,wl-rdm,133,830284,0.0-8.15-0.15,1.0,133.0,,,,,,,[],,,,,,50.0,1.0,i,1.0,True,1015.8999999761581,61.0,59.0,40.0,False,,202.09257345705146,[],"[960, 540]",ColorTask,67.0,16.0,,,HRV,HRV_0013,2022-11-30 18:29:13
,wl-rdm,134,832219,0.0-8.16-0.16,1.0,134.0,,,,,,,[],,,,,,56.4,0.0,u,0.0,True,648.6000000238419,39.0,59.0,40.0,False,,205.2345800382874,[],"[960, 540]",ColorTask,68.0,17.0,,,HRV,HRV_0013,2022-11-30 18:29:13
,wl-rdm,135,834451,0.0-8.17-0.17,1.0,135.0,,,,,,,[],,,,,,62.5,1.0,i,1.0,True,883.6000000238419,54.0,59.0,40.0,False,,255.83479962848352,[],"[960, 540]",ColorTask,69.0,18.0,,,HRV,HRV_0013,2022-11-30 18:29:13
,wl-rdm,136,836785,0.0-8.18-0.18,1.0,136.0,,,,,,,[],,,,,,53.2,0.0,u,0.0,True,1049.2000000476837,63.0,59.0,40.0,False,,207.98012816510902,[],"[960, 540]",ColorTask,70.0,19.0,,,HRV,HRV_0013,2022-11-30 18:29:13
,wl-rdm,137,839735,0.0-8.19-0.19,1.0,137.0,,,,,,,[],,,,,,73.6,0.0,u,0.0,True,1568.8000000715256,95.0,59.0,40.0,False,,312.8052107135403,[],"[960, 540]",ColorTask,71.0,20.0,,,HRV,HRV_0013,2022-11-30 18:29:13
,wl-rdm,138,842151,0.0-8.20-0.20,1.0,138.0,,,,,,,[],,,,,,53.2,0.0,u,0.0,True,1056.3999999761581,64.0,59.0,40.0,False,,284.03985051687096,[],"[960, 540]",ColorTask,72.0,21.0,,,HRV,HRV_0013,2022-11-30 18:29:13
,wl-rdm,139,844485,0.0-8.21-0.21,1.0,139.0,,,,,,,[],,,,,,62.5,0.0,u,0.0,True,1040.3000000715256,63.0,59.0,40.0,False,,208.36980937315178,[],"[960, 540]",ColorTask,73.0,22.0,,,HRV,HRV_0013,2022-11-30 18:29:13
,wl-rdm,140,846368,0.0-8.22-0.22,1.0,140.0,,,,,,,[],,,,,,56.4,1.0,i,1.0,True,577.5,35.0,59.0,40.0,False,,224.65768823495307,[],"[960, 540]",ColorTask,74.0,23.0,,,HRV,HRV_0013,2022-11-30 18:29:13
,wl-rdm,141,848568,0.0-8.23-0.23,1.0,141.0,,,,,,,[],,,,,,56.4,1.0,i,1.0,True,930.3999999761581,56.0,59.0,40.0,False,,205.93724390132442,[],"[960, 540]",ColorTask,75.0,24.0,,,HRV,HRV_0013,2022-11-30 18:29:13
,wl-rdm,142,850534,0.0-8.24-0.24,1.0,142.0,,,,,,,[],,,,,,87.9,0.0,u,0.0,True,633.9000000953674,38.0,59.0,40.0,False,,260.35392614397813,[],"[960, 540]",ColorTask,76.0,25.0,,,HRV,HRV_0013,2022-11-30 18:29:13
,wl-rdm,143,853151,0.0-8.25-0.25,1.0,143.0,,,,,,,[],,,,,,56.4,0.0,u,0.0,True,1147.799999833107,69.0,59.0,40.0,False,,397.12045736449556,[],"[960, 540]",ColorTask,77.0,26.0,,,HRV,HRV_0013,2022-11-30 18:29:13
,wl-rdm,144,856185,0.0-8.26-0.26,1.0,144.0,,,,,,,[],,,,,,53.2,0.0,i,1.0,False,1624.7999999523163,98.0,59.0,40.0,False,,318.6450605505857,[],"[960, 540]",ColorTask,76.0,27.0,,,HRV,HRV_0013,2022-11-30 18:29:13
,wl-rdm,145,858118,0.0-8.27-0.27,1.0,145.0,,,,,,,[],,,,,,73.6,1.0,i,1.0,True,607.2000000476837,37.0,59.0,40.0,False,,248.9595495377649,[],"[960, 540]",ColorTask,77.0,28.0,,,HRV,HRV_0013,2022-11-30 18:29:13
,wl-rdm,146,860917,0.0-8.28-0.28,1.0,146.0,,,,,,,[],,,,,,53.2,1.0,i,1.0,True,1364.7999999523163,82.0,59.0,40.0,False,,376.2977498698268,[],"[960, 540]",ColorTask,78.0,29.0,,,HRV,HRV_0013,2022-11-30 18:29:13
,wl-rdm,147,863485,0.0-8.29-0.29,1.0,147.0,,,,,,,[],,,,,,56.4,1.0,i,1.0,True,1108.6999999284744,67.0,59.0,40.0,False,,373.0930310816383,[],"[960, 540]",ColorTask,79.0,30.0,,,HRV,HRV_0013,2022-11-30 18:29:13
,wl-rdm,148,865584,0.0-8.30-0.30,1.0,148.0,,,,,,,[],,,,,,73.6,1.0,i,1.0,True,656.6000000238419,40.0,59.0,40.0,False,,368.2898524134277,[],"[960, 540]",ColorTask,80.0,31.0,,,HRV,HRV_0013,2022-11-30 18:29:13
,wl-rdm,149,867685,0.0-8.31-0.31,1.0,149.0,,,,,,,[],,,,,,53.2,1.0,i,1.0,True,756.1000000238419,46.0,59.0,40.0,False,,252.08912804295787,[],"[960, 540]",ColorTask,81.0,32.0,,,HRV,HRV_0013,2022-11-30 18:29:13
,wl-rdm,150,869785,0.0-8.32-0.32,1.0,150.0,,,,,,,[],,,,,,53.2,1.0,i,1.0,True,782.7999999523163,47.0,59.0,40.0,False,,265.0806276061502,[],"[960, 540]",ColorTask,82.0,33.0,,,HRV,HRV_0013,2022-11-30 18:29:13
,wl-rdm,151,871834,0.0-8.33-0.33,1.0,151.0,,,,,,,[],,,,,,50.0,0.0,u,0.0,True,774.6999999284744,47.0,59.0,40.0,False,,204.10115944245933,[],"[960, 540]",ColorTask,83.0,34.0,,,HRV,HRV_0013,2022-11-30 18:29:13
,wl-rdm,152,874017,0.0-8.34-0.34,1.0,152.0,,,,,,,[],,,,,,56.4,1.0,i,1.0,True,808.0,49.0,59.0,40.0,False,,316.4413953226628,[],"[960, 540]",ColorTask,84.0,35.0,,,HRV,HRV_0013,2022-11-30 18:29:13
,wl-rdm,153,876017,0.0-8.35-0.35,1.0,153.0,,,,,,,[],,,,,,73.6,1.0,i,1.0,True,670.2000000476837,41.0,59.0,40.0,False,,245.5923441862729,[],"[960, 540]",ColorTask,85.0,36.0,,,HRV,HRV_0013,2022-11-30 18:29:13
,wl-rdm,154,877918,0.0-8.36-0.36,1.0,154.0,,,,,,,[],,,,,,87.9,0.0,u,0.0,True,547.3999999761581,33.0,59.0,40.0,False,,278.3507963453409,[],"[960, 540]",ColorTask,86.0,37.0,,,HRV,HRV_0013,2022-11-30 18:29:13
,wl-rdm,155,879901,0.0-8.37-0.37,1.0,155.0,,,,,,,[],,,,,,73.6,0.0,u,0.0,True,605.4000000953674,37.0,59.0,40.0,False,,287.7625711586053,[],"[960, 540]",ColorTask,87.0,38.0,,,HRV,HRV_0013,2022-11-30 18:29:13
,wl-rdm,156,882300,0.0-8.38-0.38,1.0,156.0,,,,,,,[],,,,,,53.2,0.0,u,0.0,True,993.1000000238419,60.0,59.0,40.0,False,,333.6337148164664,[],"[960, 540]",ColorTask,88.0,39.0,,,HRV,HRV_0013,2022-11-30 18:29:13
,wl-rdm,157,884417,0.0-8.39-0.39,1.0,157.0,,,,,,,[],,,,,,53.2,1.0,i,1.0,True,813.6000000238419,49.0,59.0,40.0,False,,233.85230495884326,[],"[960, 540]",ColorTask,89.0,40.0,,,HRV,HRV_0013,2022-11-30 18:29:13
,wl-rdm,158,887068,0.0-8.40-0.40,1.0,158.0,,,,,,,[],,,,,,53.2,0.0,u,0.0,True,1202.5,73.0,59.0,40.0,False,,352.05970285709645,[],"[960, 540]",ColorTask,90.0,41.0,,,HRV,HRV_0013,2022-11-30 18:29:13
,wl-rdm,159,889201,0.0-8.41-0.41,1.0,159.0,,,,,,,[],,,,,,73.6,0.0,u,0.0,True,781.2999999523163,47.0,59.0,40.0,False,,286.6476621290172,[],"[960, 540]",ColorTask,91.0,42.0,,,HRV,HRV_0013,2022-11-30 18:29:13
,wl-rdm,160,891635,0.0-8.42-0.42,1.0,160.0,,,,,,,[],,,,,,50.0,0.0,u,0.0,True,1005.6000000238419,61.0,59.0,40.0,False,,353.0521397025628,[],"[960, 540]",ColorTask,92.0,43.0,,,HRV,HRV_0013,2022-11-30 18:29:13
,wl-rdm,161,893550,0.0-8.43-0.43,1.0,161.0,,,,,,,[],,,,,,53.2,1.0,i,1.0,True,644.4000000953674,39.0,59.0,40.0,False,,214.2249569066284,[],"[960, 540]",ColorTask,93.0,44.0,,,HRV,HRV_0013,2022-11-30 18:29:13
,wl-rdm,162,895567,0.0-8.44-0.44,1.0,162.0,,,,,,,[],,,,,,87.9,1.0,i,1.0,True,639.7000000476837,39.0,59.0,40.0,False,,315.0468543906074,[],"[960, 540]",ColorTask,94.0,45.0,,,HRV,HRV_0013,2022-11-30 18:29:13
,wl-rdm,163,897684,0.0-8.45-0.45,1.0,163.0,,,,,,,[],,,,,,62.5,1.0,i,1.0,True,797.1000000238419,48.0,59.0,40.0,False,,235.18682586726038,[],"[960, 540]",ColorTask,95.0,46.0,,,HRV,HRV_0013,2022-11-30 18:29:13
,wl-rdm,164,899684,0.0-8.46-0.46,1.0,164.0,,,,,,,[],,,,,,53.2,1.0,i,1.0,True,592.3000000715256,36.0,59.0,40.0,False,,327.80903716749526,[],"[960, 540]",ColorTask,96.0,47.0,,,HRV,HRV_0013,2022-11-30 18:29:13
,wl-rdm,165,901767,0.0-8.47-0.47,1.0,165.0,,,,,,,[],,,,,,53.2,1.0,u,0.0,False,774.9000000953674,47.0,59.0,40.0,False,,227.72369973597407,[],"[960, 540]",ColorTask,95.0,48.0,,,HRV,HRV_0013,2022-11-30 18:29:13
,wl-rdm,166,904035,0.0-8.48-0.48,1.0,166.0,,,,,,,[],,,,,,50.0,1.0,u,0.0,False,874.3999999761581,53.0,59.0,40.0,False,,313.00580708864874,[],"[960, 540]",ColorTask,94.0,49.0,,,HRV,HRV_0013,2022-11-30 18:29:13
,wl-rdm,167,906017,0.0-8.49-0.49,1.0,167.0,,,,,,,[],,,,,,87.9,1.0,i,1.0,True,606.1000000238419,37.0,59.0,40.0,False,,287.77145903811345,[],"[960, 540]",ColorTask,95.0,50.0,,,HRV,HRV_0013,2022-11-30 18:29:13
,wl-rdm,168,908251,0.0-8.50-0.50,1.0,168.0,,,,,,,[],,,,,,50.0,0.0,u,0.0,True,909.6000000238419,55.0,59.0,40.0,False,,249.4053367282726,[],"[960, 540]",ColorTask,96.0,51.0,,,HRV,HRV_0013,2022-11-30 18:29:13
,wl-rdm,169,910684,0.0-8.51-0.51,1.0,169.0,,,,,,,[],,,,,,50.0,1.0,u,0.0,False,952.7000000476837,58.0,59.0,40.0,False,,395.4472616376056,[],"[960, 540]",ColorTask,95.0,52.0,,,HRV,HRV_0013,2022-11-30 18:29:13
,wl-rdm,170,912634,0.0-8.52-0.52,1.0,170.0,,,,,,,[],,,,,,87.9,1.0,i,1.0,True,657.3999998569489,40.0,59.0,40.0,False,,223.225060171774,[],"[960, 540]",ColorTask,96.0,53.0,,,HRV,HRV_0013,2022-11-30 18:29:13
,wl-rdm,171,914900,0.0-8.53-0.53,1.0,171.0,,,,,,,[],,,,,,73.6,0.0,u,0.0,True,796.8000000715256,48.0,59.0,40.0,False,,393.7437274509149,[],"[960, 540]",ColorTask,97.0,54.0,,,HRV,HRV_0013,2022-11-30 18:29:13
,wl-rdm,172,917234,0.0-8.54-0.54,1.0,172.0,,,,,,,[],,,,,,50.0,0.0,i,1.0,False,952.9999998807907,58.0,59.0,40.0,False,,316.3692697479295,[],"[960, 540]",ColorTask,96.0,55.0,,,HRV,HRV_0013,2022-11-30 18:29:13
,wl-rdm,173,919250,0.0-8.55-0.55,1.0,173.0,,,,,,,[],,,,,,62.5,0.0,i,1.0,False,591.5,36.0,59.0,40.0,False,,340.6463241995649,[],"[960, 540]",ColorTask,95.0,56.0,,,HRV,HRV_0013,2022-11-30 18:29:13
,wl-rdm,174,921151,0.0-8.56-0.56,1.0,174.0,,,,,,,[],,,,,,87.9,1.0,u,0.0,False,573.8999999761581,35.0,59.0,40.0,False,,248.9715132328503,[],"[960, 540]",ColorTask,94.0,57.0,,,HRV,HRV_0013,2022-11-30 18:29:13
,wl-rdm,175,923084,0.0-8.57-0.57,1.0,175.0,,,,,,,[],,,,,,62.5,1.0,i,1.0,True,571.1000000238419,35.0,59.0,40.0,False,,274.1156984227545,[],"[960, 540]",ColorTask,95.0,58.0,,,HRV,HRV_0013,2022-11-30 18:29:13
,wl-rdm,176,925033,0.0-8.58-0.58,1.0,176.0,,,,,,,[],,,,,,87.9,1.0,i,1.0,True,531.3999999761581,32.0,59.0,40.0,False,,352.6592571407929,[],"[960, 540]",ColorTask,96.0,59.0,,,HRV,HRV_0013,2022-11-30 18:29:13
,wl-rdm,177,926883,0.0-8.59-0.59,1.0,177.0,,,,,,,[],,,,,,87.9,0.0,u,0.0,True,557.2000000476837,34.0,59.0,40.0,False,,216.53067122989125,[],"[960, 540]",ColorTask,97.0,60.0,,,HRV,HRV_0013,2022-11-30 18:29:13
,wl-rdm,178,928833,0.0-8.60-0.60,1.0,178.0,,,,,,,[],,,,,,73.6,1.0,i,1.0,True,594.2000000476837,36.0,59.0,40.0,False,,271.61379374081656,[],"[960, 540]",ColorTask,98.0,61.0,,,HRV,HRV_0013,2022-11-30 18:29:13
,wl-rdm,179,930867,0.0-8.61-0.61,1.0,179.0,,,,,,,[],,,,,,56.4,0.0,u,0.0,True,730.7999999523163,44.0,59.0,40.0,False,,234.59607403938344,[],"[960, 540]",ColorTask,99.0,62.0,,,HRV,HRV_0013,2022-11-30 18:29:13
,wl-rdm,180,933166,0.0-8.62-0.62,1.0,180.0,,,,,,,[],,,,,,50.0,1.0,i,1.0,True,885.7000000476837,54.0,59.0,40.0,False,,345.7721700852775,[],"[960, 540]",ColorTask,100.0,63.0,,,HRV,HRV_0013,2022-11-30 18:29:13
,wl-rdm,181,935167,0.0-8.63-0.63,1.0,181.0,,,,,,,[],,,,,,62.5,1.0,i,1.0,True,631.5,38.0,59.0,40.0,False,,293.140889569127,[],"[960, 540]",ColorTask,101.0,64.0,,,HRV,HRV_0013,2022-11-30 18:29:13
,wl-rdm,182,937317,0.0-8.64-0.64,1.0,182.0,,,,,,,[],,,,,,62.5,1.0,i,1.0,True,728.6999999284744,44.0,59.0,40.0,False,,347.3718117892282,[],"[960, 540]",ColorTask,102.0,65.0,,,HRV,HRV_0013,2022-11-30 18:29:13
,wl-rdm,183,939233,0.0-8.65-0.65,1.0,183.0,,,,,,,[],,,,,,56.4,1.0,i,1.0,True,585.5,36.0,59.0,40.0,False,,252.49267789213053,[],"[960, 540]",ColorTask,103.0,66.0,,,HRV,HRV_0013,2022-11-30 18:29:13
,wl-rdm,184,941316,0.0-8.66-0.66,1.0,184.0,,,,,,,[],,,,,,62.5,0.0,u,0.0,True,654.7999999523163,40.0,59.0,40.0,False,,354.0141713293341,[],"[960, 540]",ColorTask,104.0,67.0,,,HRV,HRV_0013,2022-11-30 18:29:13
,wl-rdm,185,943350,0.0-8.67-0.67,1.0,185.0,,,,,,,[],,,,,,87.9,0.0,u,0.0,True,642.7999999523163,39.0,59.0,40.0,False,,303.2133584516591,[],"[960, 540]",ColorTask,105.0,68.0,,,HRV,HRV_0013,2022-11-30 18:29:13
,wl-rdm,186,945217,0.0-8.68-0.68,1.0,186.0,,,,,,,[],,,,,,87.9,0.0,u,0.0,True,527.1000000238419,32.0,59.0,40.0,False,,279.830153917553,[],"[960, 540]",ColorTask,106.0,69.0,,,HRV,HRV_0013,2022-11-30 18:29:13
,wl-rdm,187,947067,0.0-8.69-0.69,1.0,187.0,,,,,,,[],,,,,,87.9,1.0,i,1.0,True,576.6000000238419,35.0,59.0,40.0,False,,205.72445571622814,[],"[960, 540]",ColorTask,107.0,70.0,,,HRV,HRV_0013,2022-11-30 18:29:13
,wl-rdm,188,949700,0.0-8.70-0.70,1.0,188.0,,,,,,,[],,,,,,62.5,0.0,u,0.0,True,1252.8999999761581,76.0,59.0,40.0,False,,294.3091257305683,[],"[960, 540]",ColorTask,108.0,71.0,,,HRV,HRV_0013,2022-11-30 18:29:13
,wl-rdm,189,952150,0.0-8.71-0.71,1.0,189.0,,,,,,,[],,,,,,56.4,1.0,u,0.0,False,1136.3999999761581,69.0,59.0,40.0,False,,219.06971501399838,[],"[960, 540]",ColorTask,107.0,72.0,,,HRV,HRV_0013,2022-11-30 18:29:13
,wl-rdm,190,954150,0.0-8.72-0.72,1.0,190.0,,,,,,,[],,,,,,50.0,0.0,i,1.0,False,559.7000000476837,34.0,59.0,40.0,False,,355.3039877607731,[],"[960, 540]",ColorTask,106.0,73.0,,,HRV,HRV_0013,2022-11-30 18:29:13
,wl-rdm,191,956217,0.0-8.73-0.73,1.0,191.0,,,,,,,[],,,,,,62.5,0.0,u,0.0,True,652.6999999284744,40.0,59.0,40.0,False,,322.92952249108765,[],"[960, 540]",ColorTask,107.0,74.0,,,HRV,HRV_0013,2022-11-30 18:29:13
,wl-rdm,192,958433,0.0-8.74-0.74,1.0,192.0,,,,,,,[],,,,,,56.4,0.0,i,1.0,False,936.8999998569489,57.0,59.0,40.0,False,,213.0363306774032,[],"[960, 540]",ColorTask,106.0,75.0,,,HRV,HRV_0013,2022-11-30 18:29:13
,wl-rdm,193,960617,0.0-8.75-0.75,1.0,193.0,,,,,,,[],,,,,,56.4,0.0,u,0.0,True,706.6000000238419,43.0,59.0,40.0,False,,398.6571091885722,[],"[960, 540]",ColorTask,107.0,76.0,,,HRV,HRV_0013,2022-11-30 18:29:13
,wl-rdm,194,962633,0.0-8.76-0.76,1.0,194.0,,,,,,,[],,,,,,87.9,0.0,u,0.0,True,715.0999999046326,43.0,59.0,40.0,False,,218.20677079765966,[],"[960, 540]",ColorTask,108.0,77.0,,,HRV,HRV_0013,2022-11-30 18:29:13
,wl-rdm,195,964916,0.0-8.77-0.77,1.0,195.0,,,,,,,[],,,,,,53.2,0.0,u,0.0,True,926.0,56.0,59.0,40.0,False,,268.2503841213778,[],"[960, 540]",ColorTask,109.0,78.0,,,HRV,HRV_0013,2022-11-30 18:29:13
,wl-rdm,196,966866,0.0-8.78-0.78,1.0,196.0,,,,,,,[],,,,,,73.6,1.0,i,1.0,True,676.0999999046326,41.0,59.0,40.0,False,,210.63870995230005,[],"[960, 540]",ColorTask,110.0,79.0,,,HRV,HRV_0013,2022-11-30 18:29:13
,wl-rdm,197,969399,0.0-8.79-0.79,1.0,197.0,,,,,,,[],,,,,,50.0,1.0,u,0.0,False,1109.7000000476837,67.0,59.0,40.0,False,,333.94877889338903,[],"[960, 540]",ColorTask,109.0,80.0,,,HRV,HRV_0013,2022-11-30 18:29:13
,wl-rdm,198,971599,0.0-8.80-0.80,1.0,198.0,,,,,,,[],,,,,,62.5,0.0,u,0.0,True,837.0000001192093,51.0,59.0,40.0,False,,275.5100968916407,[],"[960, 540]",ColorTask,110.0,81.0,,,HRV,HRV_0013,2022-11-30 18:29:13
,wl-rdm,199,973965,0.0-8.81-0.81,1.0,199.0,,,,,,,[],,,,,,53.2,0.0,u,0.0,True,960.8000000715256,58.0,59.0,40.0,False,,335.8322144837861,[],"[960, 540]",ColorTask,111.0,82.0,,,HRV,HRV_0013,2022-11-30 18:29:13
,wl-rdm,200,976182,0.0-8.82-0.82,1.0,200.0,,,,,,,[],,,,,,56.4,0.0,u,0.0,True,875.2999999523163,53.0,59.0,40.0,False,,280.49856209295757,[],"[960, 540]",ColorTask,112.0,83.0,,,HRV,HRV_0013,2022-11-30 18:29:13
,wl-rdm,201,978382,0.0-8.83-0.83,1.0,201.0,,,,,,,[],,,,,,50.0,1.0,u,0.0,False,765.799999833107,46.0,59.0,40.0,False,,359.4698100897948,[],"[960, 540]",ColorTask,111.0,84.0,,,HRV,HRV_0013,2022-11-30 18:29:13
,wl-rdm,202,980499,0.0-8.84-0.84,1.0,202.0,,,,,,,[],,,,,,62.5,0.0,u,0.0,True,713.1999999284744,43.0,59.0,40.0,False,,343.35845861228063,[],"[960, 540]",ColorTask,112.0,85.0,,,HRV,HRV_0013,2022-11-30 18:29:13
,wl-rdm,203,982466,0.0-8.85-0.85,1.0,203.0,,,,,,,[],,,,,,73.6,0.0,u,0.0,True,632.2000000476837,38.0,59.0,40.0,False,,261.65526270128487,[],"[960, 540]",ColorTask,113.0,86.0,,,HRV,HRV_0013,2022-11-30 18:29:13
,wl-rdm,204,984499,0.0-8.86-0.86,1.0,204.0,,,,,,,[],,,,,,56.4,0.0,u,0.0,True,721.8999999761581,44.0,59.0,40.0,False,,228.64593278868554,[],"[960, 540]",ColorTask,114.0,87.0,,,HRV,HRV_0013,2022-11-30 18:29:13
,wl-rdm,205,986465,0.0-8.87-0.87,1.0,205.0,,,,,,,[],,,,,,73.6,0.0,u,0.0,True,676.3999999761581,41.0,59.0,40.0,False,,209.32752487653153,[],"[960, 540]",ColorTask,115.0,88.0,,,HRV,HRV_0013,2022-11-30 18:29:13
,wl-rdm,206,988548,0.0-8.88-0.88,1.0,206.0,,,,,,,[],,,,,,73.6,1.0,i,1.0,True,763.8000000715256,46.0,59.0,40.0,False,,238.15405125323298,[],"[960, 540]",ColorTask,116.0,89.0,,,HRV,HRV_0013,2022-11-30 18:29:13
,wl-rdm,207,990648,0.0-8.89-0.89,1.0,207.0,,,,,,,[],,,,,,50.0,1.0,u,0.0,False,780.3000000715256,47.0,59.0,40.0,False,,263.29570369075077,[],"[960, 540]",ColorTask,115.0,90.0,,,HRV,HRV_0013,2022-11-30 18:29:13
,wl-rdm,208,992748,0.0-8.90-0.90,1.0,208.0,,,,,,,[],,,,,,50.0,0.0,u,0.0,True,729.3999999761581,44.0,59.0,40.0,False,,306.88609280268287,[],"[960, 540]",ColorTask,116.0,91.0,,,HRV,HRV_0013,2022-11-30 18:29:13
,wl-rdm,209,994983,0.0-8.91-0.91,1.0,209.0,,,,,,,[],,,,,,50.0,1.0,i,1.0,True,775.5,47.0,59.0,40.0,False,,382.41249535079464,[],"[960, 540]",ColorTask,117.0,92.0,,,HRV,HRV_0013,2022-11-30 18:29:13
,wl-rdm,210,997232,0.0-8.92-0.92,1.0,210.0,,,,,,,[],,,,,,62.5,1.0,i,1.0,True,973.6000000238419,59.0,59.0,40.0,False,,212.56126571823376,[],"[960, 540]",ColorTask,118.0,93.0,,,HRV,HRV_0013,2022-11-30 18:29:13
,wl-rdm,211,999298,0.0-8.93-0.93,1.0,211.0,,,,,,,[],,,,,,87.9,0.0,u,0.0,True,705.7000000476837,43.0,59.0,40.0,False,,284.0583640413131,[],"[960, 540]",ColorTask,119.0,94.0,,,HRV,HRV_0013,2022-11-30 18:29:13
,wl-rdm,212,1001649,0.0-8.94-0.94,1.0,212.0,,,,,,,[],,,,,,62.5,0.0,u,0.0,True,963.6000000238419,58.0,59.0,40.0,False,,325.3096749175555,[],"[960, 540]",ColorTask,120.0,95.0,,,HRV,HRV_0013,2022-11-30 18:29:13
,wl-rdm,213,1004066,0.0-8.95-0.95,1.0,213.0,,,,,,,[],,,,,,50.0,0.0,u,0.0,True,999.7999999523163,60.0,59.0,40.0,False,,343.9263197393439,[],"[960, 540]",ColorTask,121.0,96.0,,,HRV,HRV_0013,2022-11-30 18:29:13
,wl-rdm,214,1006699,0.0-8.96-0.96,1.0,214.0,,,,,,,[],,,,,,62.5,1.0,i,1.0,True,1173.6000000238419,71.0,59.0,40.0,False,,378.46899718293844,[],"[960, 540]",ColorTask,122.0,97.0,,,HRV,HRV_0013,2022-11-30 18:29:13
,wl-rdm,215,1008715,0.0-8.97-0.97,1.0,215.0,,,,,,,[],,,,,,87.9,1.0,i,1.0,True,724.0,44.0,59.0,40.0,False,,206.43454550912344,[],"[960, 540]",ColorTask,123.0,98.0,,,HRV,HRV_0013,2022-11-30 18:29:13
,wl-rdm,216,1010815,0.0-8.98-0.98,1.0,216.0,,,,,,,[],,,,,,87.9,1.0,i,1.0,True,774.299999833107,47.0,59.0,40.0,False,,239.60038377583334,[],"[960, 540]",ColorTask,124.0,99.0,,,HRV,HRV_0013,2022-11-30 18:29:13
,wl-rdm,217,1012898,0.0-8.99-0.99,1.0,217.0,,,,,,,[],,,,,,87.9,0.0,u,0.0,True,664.1999999284744,40.0,59.0,40.0,False,,362.5676130715552,[],"[960, 540]",ColorTask,125.0,100.0,,,HRV,HRV_0013,2022-11-30 18:29:13
,wl-rdm,218,1015149,0.0-8.100-0.100,1.0,218.0,,,,,,,[],,,,,,73.6,0.0,u,0.0,True,864.5000001192093,52.0,59.0,40.0,False,,303.6118010694502,[],"[960, 540]",ColorTask,126.0,101.0,,,HRV,HRV_0013,2022-11-30 18:29:13
,wl-rdm,219,1017415,0.0-8.101-0.101,1.0,219.0,,,,,,,[],,,,,,56.4,0.0,i,1.0,False,919.7999999523163,56.0,59.0,40.0,False,,273.9606756910197,[],"[960, 540]",ColorTask,125.0,102.0,,,HRV,HRV_0013,2022-11-30 18:29:13
,wl-rdm,220,1020266,0.0-8.102-0.102,1.0,220.0,,,,,,,[],,,,,,53.2,1.0,u,0.0,False,1415.8999999761581,86.0,59.0,40.0,False,,351.3499427191649,[],"[960, 540]",ColorTask,124.0,103.0,,,HRV,HRV_0013,2022-11-30 18:29:13
,wl-rdm,221,1022415,0.0-8.103-0.103,1.0,221.0,,,,,,,[],,,,,,56.4,0.0,u,0.0,True,812.4000000953674,49.0,59.0,40.0,False,,258.5728495010483,[],"[960, 540]",ColorTask,125.0,104.0,,,HRV,HRV_0013,2022-11-30 18:29:13
,wl-rdm,222,1024916,0.0-8.104-0.104,1.0,222.0,,,,,,,[],,,,,,62.5,1.0,i,1.0,True,1121.0,68.0,59.0,40.0,False,,307.9959647662538,[],"[960, 540]",ColorTask,126.0,105.0,,,HRV,HRV_0013,2022-11-30 18:29:13
,wl-rdm,223,1027199,0.0-8.105-0.105,1.0,223.0,,,,,,,[],,,,,,73.6,1.0,i,1.0,True,996.4000000953674,60.0,59.0,40.0,False,,214.78638762578515,[],"[960, 540]",ColorTask,127.0,106.0,,,HRV,HRV_0013,2022-11-30 18:29:13
,wl-rdm,224,1029615,0.0-8.106-0.106,1.0,224.0,,,,,,,[],,,,,,50.0,0.0,u,0.0,True,1069.1000000238419,65.0,59.0,40.0,False,,265.6115873017465,[],"[960, 540]",ColorTask,128.0,107.0,,,HRV,HRV_0013,2022-11-30 18:29:13
,wl-rdm,225,1031832,0.0-8.107-0.107,1.0,225.0,,,,,,,[],,,,,,73.6,0.0,u,0.0,True,874.0999999046326,53.0,59.0,40.0,False,,259.7821955016437,[],"[960, 540]",ColorTask,129.0,108.0,,,HRV,HRV_0013,2022-11-30 18:29:13
,wl-html-button-response,226,1036298,0.0-9.0-0.0,,,,,,,,,,4461.5,,0,,,,,,,,,,,,,,,,,,,,<h3>End of this session. Thank you!</h3><br>,['Close window'],HRV,HRV_0013,2022-11-30 18:29:13
