trialN,stimuli,trialStartTime,trialStartTime_UNIX,stimulus1,stimulus2,stimulus1Bid,stimulus2Bid,delta,selected,rt,rt_UNIX,rt_perfnow,receivedResponse,rsp,trialEndTime,trialDuration,trialEndTime_UNIX,trialDuration_UNIX,exp,subjectId,date
0,"[{'imgObject': {}, 'id': 'olives', 'src': '/static/foodstim60/olives.jpg', 'key': 'u', 'origWidth': 410, 'origHeight': 410, 'width': 410, 'height': 410, 'widthPercent': 0.45, 'rescaleHeight': False, 'trialN': 0, 'loaded': True, 'loadedTime': 1931.699999999255, 'positionName': 'LEFT', 'positionCoords': [511.6, 335], 'bid': 0.88}, {'imgObject': {}, 'id': 'turkeysandwich', 'src': '/static/foodstim60/turkeysandwich.jpg', 'key': 'i', 'origWidth': 409, 'origHeight': 409, 'width': 409, 'height': 409, 'widthPercent': 0.45, 'rescaleHeight': False, 'trialN': 0, 'loaded': True, 'loadedTime': 2186.300000000745, 'positionName': 'RIGHT', 'positionCoords': [998.4, 335.5], 'bid': 0.66}]",2893.9000000003725,1657738751561,olives,turkeysandwich,0.88,0.66,-0.21999999999999997,olives,1087.2999999988824,1088,1088.0999999996275,True,u,4494.699999999255,1600.7999999988824,1657738753162,1601,HRV,HRV_0013,2022-07-13 15:04:16
1,"[{'imgObject': {}, 'id': 'granola w milk', 'src': '/static/foodstim60/granola w milk.jpg', 'key': 'u', 'origWidth': 410, 'origHeight': 410, 'width': 410, 'height': 410, 'widthPercent': 0.45, 'rescaleHeight': False, 'trialN': 1, 'loaded': True, 'loadedTime': 2128.4000000003725, 'positionName': 'LEFT', 'positionCoords': [511.6, 335], 'bid': 0.88}, {'imgObject': {}, 'id': 'olives', 'src': '/static/foodstim60/olives.jpg', 'key': 'i', 'origWidth': 410, 'origHeight': 410, 'width': 410, 'height': 410, 'widthPercent': 0.45, 'rescaleHeight': False, 'trialN': 1, 'loaded': True, 'loadedTime': 1954.699999999255, 'positionName': 'RIGHT', 'positionCoords': [998.4, 335], 'bid': 0.88}]",4495.0,1657738753162,granola w milk,olives,0.88,0.88,0.0,granola w milk,1822.199999999255,1823,1822.699999999255,True,u,6831.199999999255,2336.199999999255,1657738755499,2337,HRV,HRV_0013,2022-07-13 15:04:16
2,"[{'imgObject': {}, 'id': 'pear', 'src': '/static/foodstim60/pear.jpg', 'key': 'u', 'origWidth': 411, 'origHeight': 410, 'width': 411, 'height': 410, 'widthPercent': 0.45, 'rescaleHeight': False, 'trialN': 2, 'loaded': True, 'loadedTime': 2189.5, 'positionName': 'LEFT', 'positionCoords': [510.6, 335], 'bid': 6.65}, {'imgObject': {}, 'id': 'banana', 'src': '/static/foodstim60/banana.jpg', 'key': 'i', 'origWidth': 410, 'origHeight': 410, 'width': 410, 'height': 410, 'widthPercent': 0.45, 'rescaleHeight': False, 'trialN': 2, 'loaded': True, 'loadedTime': 1993.800000000745, 'positionName': 'RIGHT', 'positionCoords': [998.4, 335], 'bid': 7.69}]",6831.4000000003725,1657738755499,pear,banana,6.65,7.69,1.04,banana,771.9000000003725,773,772.5,True,i,8112.199999999255,1280.7999999988824,1657738756780,1281,HRV,HRV_0013,2022-07-13 15:04:16
3,"[{'imgObject': {}, 'id': 'salad w chicken', 'src': '/static/foodstim60/salad w chicken.jpg', 'key': 'u', 'origWidth': 411, 'origHeight': 411, 'width': 411, 'height': 411, 'widthPercent': 0.45, 'rescaleHeight': False, 'trialN': 3, 'loaded': True, 'loadedTime': 2042.9000000003725, 'positionName': 'LEFT', 'positionCoords': [510.6, 334.5], 'bid': 0.7000000000000001}, {'imgObject': {}, 'id': 'roastedpotatoes', 'src': '/static/foodstim60/roastedpotatoes.jpg', 'key': 'i', 'origWidth': 409, 'origHeight': 410, 'width': 409, 'height': 410, 'widthPercent': 0.45, 'rescaleHeight': False, 'trialN': 3, 'loaded': True, 'loadedTime': 2092, 'positionName': 'RIGHT', 'positionCoords': [998.4, 335], 'bid': 0.72}]",8112.4000000003725,1657738756780,salad w chicken,roastedpotatoes,0.7000000000000001,0.72,0.019999999999999907,salad w chicken,707,708,707.5,True,u,9327.300000000745,1214.9000000003725,1657738757995,1215,HRV,HRV_0013,2022-07-13 15:04:16
4,"[{'imgObject': {}, 'id': 'chicken nuggets2', 'src': '/static/foodstim60/chicken nuggets2.jpg', 'key': 'u', 'origWidth': 410, 'origHeight': 409, 'width': 410, 'height': 409, 'widthPercent': 0.45, 'rescaleHeight': False, 'trialN': 4, 'loaded': True, 'loadedTime': 2128.4000000003725, 'positionName': 'LEFT', 'positionCoords': [511.6, 335.5], 'bid': 0.77}, {'imgObject': {}, 'id': 'steak', 'src': '/static/foodstim60/steak.jpg', 'key': 'i', 'origWidth': 410, 'origHeight': 410, 'width': 410, 'height': 410, 'widthPercent': 0.45, 'rescaleHeight': False, 'trialN': 4, 'loaded': True, 'loadedTime': 2181.800000000745, 'positionName': 'RIGHT', 'positionCoords': [998.4, 335], 'bid': 0.76}]",9327.599999999627,1657738757995,chicken nuggets2,steak,0.77,0.76,-0.010000000000000009,chicken nuggets2,1024.0999999996275,1025,1024.5,True,u,10863.099999999627,1535.5,1657738759531,1536,HRV,HRV_0013,2022-07-13 15:04:16
5,"[{'imgObject': {}, 'id': 'strawberries', 'src': '/static/foodstim60/strawberries.jpg', 'key': 'u', 'origWidth': 410, 'origHeight': 410, 'width': 410, 'height': 410, 'widthPercent': 0.45, 'rescaleHeight': False, 'trialN': 5, 'loaded': True, 'loadedTime': 2243.800000000745, 'positionName': 'LEFT', 'positionCoords': [511.6, 335], 'bid': 6.8500000000000005}, {'imgObject': {}, 'id': 'rigatoni and sauce', 'src': '/static/foodstim60/rigatoni and sauce.jpg', 'key': 'i', 'origWidth': 410, 'origHeight': 411, 'width': 410, 'height': 411, 'widthPercent': 0.45, 'rescaleHeight': False, 'trialN': 5, 'loaded': True, 'loadedTime': 2192.4000000003725, 'positionName': 'RIGHT', 'positionCoords': [998.4, 334.5], 'bid': 0.8}]",10863.300000000745,1657738759531,strawberries,rigatoni and sauce,6.8500000000000005,0.8,-6.050000000000001,strawberries,698.1999999992549,699,698.5999999996275,True,u,12076.5,1213.199999999255,1657738760744,1213,HRV,HRV_0013,2022-07-13 15:04:16
6,"[{'imgObject': {}, 'id': 'turkey sandwich', 'src': '/static/foodstim60/turkey sandwich.jpg', 'key': 'u', 'origWidth': 409, 'origHeight': 409, 'width': 409, 'height': 409, 'widthPercent': 0.45, 'rescaleHeight': False, 'trialN': 6, 'loaded': True, 'loadedTime': 2261.300000000745, 'positionName': 'LEFT', 'positionCoords': [512.6, 335.5], 'bid': 0.45}, {'imgObject': {}, 'id': 'burger', 'src': '/static/foodstim60/burger.jpg', 'key': 'i', 'origWidth': 409, 'origHeight': 409, 'width': 409, 'height': 409, 'widthPercent': 0.45, 'rescaleHeight': False, 'trialN': 6, 'loaded': True, 'loadedTime': 2295, 'positionName': 'RIGHT', 'positionCoords': [998.4, 335.5], 'bid': 1.04}]",12077.0,1657738760745,turkey sandwich,burger,0.45,1.04,0.5900000000000001,turkey sandwich,2534.5,2534,2534.9000000003725,True,u,15122.900000000373,3045.9000000003725,1657738763791,3046,HRV,HRV_0013,2022-07-13 15:04:16
7,"[{'imgObject': {}, 'id': 'eggsalad', 'src': '/static/foodstim60/eggsalad.jpg', 'key': 'u', 'origWidth': 410, 'origHeight': 409, 'width': 410, 'height': 409, 'widthPercent': 0.45, 'rescaleHeight': False, 'trialN': 7, 'loaded': True, 'loadedTime': 2300.300000000745, 'positionName': 'LEFT', 'positionCoords': [511.6, 335.5], 'bid': 1.29}, {'imgObject': {}, 'id': 'mac & cheese', 'src': '/static/foodstim60/mac & cheese.jpg', 'key': 'i', 'origWidth': 410, 'origHeight': 410, 'width': 410, 'height': 410, 'widthPercent': 0.45, 'rescaleHeight': False, 'trialN': 7, 'loaded': True, 'loadedTime': 2304.5, 'positionName': 'RIGHT', 'positionCoords': [998.4, 335], 'bid': 1.09}]",15123.199999999255,1657738763791,eggsalad,mac & cheese,1.29,1.09,-0.19999999999999996,mac & cheese,2636.10000000149,2636,2636.60000000149,True,i,18265.300000000745,3142.10000000149,1657738766933,3142,HRV,HRV_0013,2022-07-13 15:04:16
8,"[{'imgObject': {}, 'id': 'raisin bran w milk', 'src': '/static/foodstim60/raisin bran w milk.jpg', 'key': 'u', 'origWidth': 411, 'origHeight': 411, 'width': 411, 'height': 411, 'widthPercent': 0.45, 'rescaleHeight': False, 'trialN': 8, 'loaded': True, 'loadedTime': 2306.300000000745, 'positionName': 'LEFT', 'positionCoords': [510.6, 334.5], 'bid': 0.64}, {'imgObject': {}, 'id': 'seaweed', 'src': '/static/foodstim60/seaweed.jpg', 'key': 'i', 'origWidth': 410, 'origHeight': 410, 'width': 410, 'height': 410, 'widthPercent': 0.45, 'rescaleHeight': False, 'trialN': 8, 'loaded': True, 'loadedTime': 2310.0999999996275, 'positionName': 'RIGHT', 'positionCoords': [998.4, 335], 'bid': 1.13}]",18265.599999999627,1657738766933,raisin bran w milk,seaweed,0.64,1.13,0.4899999999999999,raisin bran w milk,1617.7000000011176,1618,1618.300000000745,True,u,20393.800000000745,2128.2000000011176,1657738769061,2128,HRV,HRV_0013,2022-07-13 15:04:16
9,"[{'imgObject': {}, 'id': 'raspberries', 'src': '/static/foodstim60/raspberries.jpg', 'key': 'u', 'origWidth': 411, 'origHeight': 411, 'width': 411, 'height': 411, 'widthPercent': 0.45, 'rescaleHeight': False, 'trialN': 9, 'loaded': True, 'loadedTime': 2344, 'positionName': 'LEFT', 'positionCoords': [510.6, 334.5], 'bid': 5.5600000000000005}, {'imgObject': {}, 'id': 'burger', 'src': '/static/foodstim60/burger.jpg', 'key': 'i', 'origWidth': 409, 'origHeight': 409, 'width': 409, 'height': 409, 'widthPercent': 0.45, 'rescaleHeight': False, 'trialN': 9, 'loaded': True, 'loadedTime': 2279, 'positionName': 'RIGHT', 'positionCoords': [998.4, 335.5], 'bid': 1.04}]",20394.0,1657738769062,raspberries,burger,5.5600000000000005,1.04,-4.5200000000000005,raspberries,1714.699999999255,1715,1715.199999999255,True,u,22616.699999999255,2222.699999999255,1657738771284,2222,HRV,HRV_0013,2022-07-13 15:04:16
10,"[{'imgObject': {}, 'id': 'mango', 'src': '/static/foodstim60/mango.jpg', 'key': 'u', 'origWidth': 411, 'origHeight': 411, 'width': 411, 'height': 411, 'widthPercent': 0.45, 'rescaleHeight': False, 'trialN': 10, 'loaded': True, 'loadedTime': 2344.300000000745, 'positionName': 'LEFT', 'positionCoords': [510.6, 334.5], 'bid': 5.62}, {'imgObject': {}, 'id': 'cherries', 'src': '/static/foodstim60/cherries.jpg', 'key': 'i', 'origWidth': 410, 'origHeight': 411, 'width': 410, 'height': 411, 'widthPercent': 0.45, 'rescaleHeight': False, 'trialN': 10, 'loaded': True, 'loadedTime': 2362.699999999255, 'positionName': 'RIGHT', 'positionCoords': [998.4, 334.5], 'bid': 6.79}]",22617.0,1657738771284,mango,cherries,5.62,6.79,1.17,cherries,2084.4000000003725,2086,2085.0,True,i,25213.699999999255,2596.699999999255,1657738773881,2597,HRV,HRV_0013,2022-07-13 15:04:16
11,"[{'imgObject': {}, 'id': 'turkeysandwich', 'src': '/static/foodstim60/turkeysandwich.jpg', 'key': 'u', 'origWidth': 409, 'origHeight': 409, 'width': 409, 'height': 409, 'widthPercent': 0.45, 'rescaleHeight': False, 'trialN': 11, 'loaded': True, 'loadedTime': 2185.4000000003725, 'positionName': 'LEFT', 'positionCoords': [512.6, 335.5], 'bid': 0.66}, {'imgObject': {}, 'id': 'eggsalad', 'src': '/static/foodstim60/eggsalad.jpg', 'key': 'i', 'origWidth': 410, 'origHeight': 409, 'width': 410, 'height': 409, 'widthPercent': 0.45, 'rescaleHeight': False, 'trialN': 11, 'loaded': True, 'loadedTime': 2300.0999999996275, 'positionName': 'RIGHT', 'positionCoords': [998.4, 335.5], 'bid': 1.29}]",25214.0,1657738773882,turkeysandwich,eggsalad,0.66,1.29,0.63,eggsalad,3382.5,3383,3383.199999999255,True,i,29100.800000000745,3886.800000000745,1657738777768,3886,HRV,HRV_0013,2022-07-13 15:04:16
12,"[{'imgObject': {}, 'id': 'salmon', 'src': '/static/foodstim60/salmon.jpg', 'key': 'u', 'origWidth': 410, 'origHeight': 409, 'width': 410, 'height': 409, 'widthPercent': 0.45, 'rescaleHeight': False, 'trialN': 12, 'loaded': True, 'loadedTime': 2373.800000000745, 'positionName': 'LEFT', 'positionCoords': [511.6, 335.5], 'bid': 1.13}, {'imgObject': {}, 'id': 'seaweed', 'src': '/static/foodstim60/seaweed.jpg', 'key': 'i', 'origWidth': 410, 'origHeight': 410, 'width': 410, 'height': 410, 'widthPercent': 0.45, 'rescaleHeight': False, 'trialN': 12, 'loaded': True, 'loadedTime': 2310.0999999996275, 'positionName': 'RIGHT', 'positionCoords': [998.4, 335], 'bid': 1.13}]",29101.0,1657738777769,salmon,seaweed,1.13,1.13,0.0,salmon,2281.5,2282,2282.0999999996275,True,u,31885.199999999255,2784.199999999255,1657738780553,2784,HRV,HRV_0013,2022-07-13 15:04:16
13,"[{'imgObject': {}, 'id': 'olives', 'src': '/static/foodstim60/olives.jpg', 'key': 'u', 'origWidth': 410, 'origHeight': 410, 'width': 410, 'height': 410, 'widthPercent': 0.45, 'rescaleHeight': False, 'trialN': 13, 'loaded': True, 'loadedTime': 1930.300000000745, 'positionName': 'LEFT', 'positionCoords': [511.6, 335], 'bid': 0.88}, {'imgObject': {}, 'id': 'seaweed', 'src': '/static/foodstim60/seaweed.jpg', 'key': 'i', 'origWidth': 410, 'origHeight': 410, 'width': 410, 'height': 410, 'widthPercent': 0.45, 'rescaleHeight': False, 'trialN': 13, 'loaded': True, 'loadedTime': 2308.5999999996275, 'positionName': 'RIGHT', 'positionCoords': [998.4, 335], 'bid': 1.13}]",31885.400000000373,1657738780553,olives,seaweed,0.88,1.13,0.2499999999999999,olives,771.9000000003725,772,772.2999999988824,True,u,33165.300000000745,1279.9000000003725,1657738781833,1280,HRV,HRV_0013,2022-07-13 15:04:16
14,"[{'imgObject': {}, 'id': 'luckycharms', 'src': '/static/foodstim60/luckycharms.jpg', 'key': 'u', 'origWidth': 410, 'origHeight': 409, 'width': 410, 'height': 409, 'widthPercent': 0.45, 'rescaleHeight': False, 'trialN': 14, 'loaded': True, 'loadedTime': 2393.199999999255, 'positionName': 'LEFT', 'positionCoords': [511.6, 335.5], 'bid': 0.36}, {'imgObject': {}, 'id': 'chickenfingers', 'src': '/static/foodstim60/chickenfingers.jpg', 'key': 'i', 'origWidth': 410, 'origHeight': 410, 'width': 410, 'height': 410, 'widthPercent': 0.45, 'rescaleHeight': False, 'trialN': 14, 'loaded': True, 'loadedTime': 2429.199999999255, 'positionName': 'RIGHT', 'positionCoords': [998.4, 335], 'bid': 0.41}]",33165.59999999963,1657738781833,luckycharms,chickenfingers,0.36,0.41,0.04999999999999999,luckycharms,761.8000000007451,763,762.4000000003725,True,u,34436.800000000745,1271.2000000011176,1657738783104,1271,HRV,HRV_0013,2022-07-13 15:04:16
15,"[{'imgObject': {}, 'id': 'cocktailshrimp', 'src': '/static/foodstim60/cocktailshrimp.jpg', 'key': 'u', 'origWidth': 410, 'origHeight': 410, 'width': 410, 'height': 410, 'widthPercent': 0.45, 'rescaleHeight': False, 'trialN': 15, 'loaded': True, 'loadedTime': 2457.800000000745, 'positionName': 'LEFT', 'positionCoords': [511.6, 335], 'bid': 2.44}, {'imgObject': {}, 'id': 'lox', 'src': '/static/foodstim60/lox.jpg', 'key': 'i', 'origWidth': 410, 'origHeight': 411, 'width': 410, 'height': 411, 'widthPercent': 0.45, 'rescaleHeight': False, 'trialN': 15, 'loaded': True, 'loadedTime': 2462.0999999996275, 'positionName': 'RIGHT', 'positionCoords': [998.4, 334.5], 'bid': 0.68}]",34437.0,1657738783105,cocktailshrimp,lox,2.44,0.68,-1.7599999999999998,NaN,NaN,NaN,,False,NaN,38456.90000000037,4019.9000000003725,1657738787125,4020,HRV,HRV_0013,2022-07-13 15:04:16
16,"[{'imgObject': {}, 'id': 'sushi w_condiments', 'src': '/static/foodstim60/sushi w_condiments.jpg', 'key': 'u', 'origWidth': 410, 'origHeight': 410, 'width': 410, 'height': 410, 'widthPercent': 0.45, 'rescaleHeight': False, 'trialN': 16, 'loaded': True, 'loadedTime': 2463.5, 'positionName': 'LEFT', 'positionCoords': [511.6, 335], 'bid': 1.2}, {'imgObject': {}, 'id': 'tacos', 'src': '/static/foodstim60/tacos.jpg', 'key': 'i', 'origWidth': 411, 'origHeight': 411, 'width': 411, 'height': 411, 'widthPercent': 0.45, 'rescaleHeight': False, 'trialN': 16, 'loaded': True, 'loadedTime': 2484.5, 'positionName': 'RIGHT', 'positionCoords': [998.4, 334.5], 'bid': 1.28}]",38457.300000000745,1657738787125,sushi w_condiments,tacos,1.2,1.28,0.08000000000000007,tacos,2178.89999999851,2179,2179.39999999851,True,i,41148.90000000037,2691.5999999996275,1657738789817,2692,HRV,HRV_0013,2022-07-13 15:04:16
17,"[{'imgObject': {}, 'id': 'veggieswithdip', 'src': '/static/foodstim60/veggieswithdip.jpg', 'key': 'u', 'origWidth': 409, 'origHeight': 409, 'width': 409, 'height': 409, 'widthPercent': 0.45, 'rescaleHeight': False, 'trialN': 17, 'loaded': True, 'loadedTime': 2504.300000000745, 'positionName': 'LEFT', 'positionCoords': [512.6, 335.5], 'bid': 0.62}, {'imgObject': {}, 'id': 'bagel plain', 'src': '/static/foodstim60/bagel plain.jpg', 'key': 'i', 'origWidth': 410, 'origHeight': 410, 'width': 410, 'height': 410, 'widthPercent': 0.45, 'rescaleHeight': False, 'trialN': 17, 'loaded': True, 'loadedTime': 2521.5999999996275, 'positionName': 'RIGHT', 'positionCoords': [998.4, 335], 'bid': 0.7000000000000001}]",41149.199999999255,1657738789817,veggieswithdip,bagel plain,0.62,0.7000000000000001,0.08000000000000007,veggieswithdip,1066.4000000022352,1067,1066.9000000022352,True,u,42719.60000000149,1570.4000000022352,1657738791387,1570,HRV,HRV_0013,2022-07-13 15:04:16
18,"[{'imgObject': {}, 'id': 'kiwi', 'src': '/static/foodstim60/kiwi.jpg', 'key': 'u', 'origWidth': 410, 'origHeight': 410, 'width': 410, 'height': 410, 'widthPercent': 0.45, 'rescaleHeight': False, 'trialN': 18, 'loaded': True, 'loadedTime': 2526.9000000003725, 'positionName': 'LEFT', 'positionCoords': [511.6, 335], 'bid': 7.11}, {'imgObject': {}, 'id': 'omelette', 'src': '/static/foodstim60/omelette.jpg', 'key': 'i', 'origWidth': 410, 'origHeight': 409, 'width': 410, 'height': 409, 'widthPercent': 0.45, 'rescaleHeight': False, 'trialN': 18, 'loaded': True, 'loadedTime': 2530.199999999255, 'positionName': 'RIGHT', 'positionCoords': [998.4, 335.5], 'bid': 0.8300000000000001}]",42719.89999999851,1657738791387,kiwi,omelette,7.11,0.8300000000000001,-6.28,kiwi,809.3000000007451,810,809.8000000007451,True,u,44039.0,1319.1000000014901,1657738792707,1320,HRV,HRV_0013,2022-07-13 15:04:16
19,"[{'imgObject': {}, 'id': 'fried eggs', 'src': '/static/foodstim60/fried eggs.jpg', 'key': 'u', 'origWidth': 410, 'origHeight': 410, 'width': 410, 'height': 410, 'widthPercent': 0.45, 'rescaleHeight': False, 'trialN': 19, 'loaded': True, 'loadedTime': 2531.699999999255, 'positionName': 'LEFT', 'positionCoords': [511.6, 335], 'bid': 1.97}, {'imgObject': {}, 'id': 'cherry tomato', 'src': '/static/foodstim60/cherry tomato.jpg', 'key': 'i', 'origWidth': 410, 'origHeight': 410, 'width': 410, 'height': 410, 'widthPercent': 0.45, 'rescaleHeight': False, 'trialN': 19, 'loaded': True, 'loadedTime': 2552.4000000003725, 'positionName': 'RIGHT', 'positionCoords': [998.4, 335], 'bid': 0.68}]",44039.300000000745,1657738792707,fried eggs,cherry tomato,1.97,0.68,-1.29,fried eggs,3163.699999999255,3164,3164.199999999255,True,u,47714.300000000745,3675.0,1657738796382,3675,HRV,HRV_0013,2022-07-13 15:04:16
20,"[{'imgObject': {}, 'id': 'cocktailshrimp', 'src': '/static/foodstim60/cocktailshrimp.jpg', 'key': 'u', 'origWidth': 410, 'origHeight': 410, 'width': 410, 'height': 410, 'widthPercent': 0.45, 'rescaleHeight': False, 'trialN': 20, 'loaded': True, 'loadedTime': 2457.199999999255, 'positionName': 'LEFT', 'positionCoords': [511.6, 335], 'bid': 2.44}, {'imgObject': {}, 'id': 'salmon', 'src': '/static/foodstim60/salmon.jpg', 'key': 'i', 'origWidth': 410, 'origHeight': 409, 'width': 410, 'height': 409, 'widthPercent': 0.45, 'rescaleHeight': False, 'trialN': 20, 'loaded': True, 'loadedTime': 2375.4000000003725, 'positionName': 'RIGHT', 'positionCoords': [998.4, 335.5], 'bid': 1.13}]",47714.5,1657738796382,cocktailshrimp,salmon,2.44,1.13,-1.31,NaN,NaN,NaN,,False,NaN,51733.800000000745,4019.300000000745,1657738800401,4019,HRV,HRV_0013,2022-07-13 15:04:16
21,"[{'imgObject': {}, 'id': 'apple slices', 'src': '/static/foodstim60/apple slices.jpg', 'key': 'u', 'origWidth': 409, 'origHeight': 410, 'width': 409, 'height': 410, 'widthPercent': 0.45, 'rescaleHeight': False, 'trialN': 21, 'loaded': True, 'loadedTime': 2570, 'positionName': 'LEFT', 'positionCoords': [512.6, 335], 'bid': 6.62}, {'imgObject': {}, 'id': 'pear', 'src': '/static/foodstim60/pear.jpg', 'key': 'i', 'origWidth': 411, 'origHeight': 410, 'width': 411, 'height': 410, 'widthPercent': 0.45, 'rescaleHeight': False, 'trialN': 21, 'loaded': True, 'loadedTime': 2189.5, 'positionName': 'RIGHT', 'positionCoords': [998.4, 335], 'bid': 6.65}]",51734.10000000149,1657738800402,apple slices,pear,6.62,6.65,0.03000000000000025,apple slices,2943.2999999970198,2944,2943.89999999851,True,u,55182.800000000745,3448.699999999255,1657738803850,3448,HRV,HRV_0013,2022-07-13 15:04:16
22,"[{'imgObject': {}, 'id': 'tacos', 'src': '/static/foodstim60/tacos.jpg', 'key': 'u', 'origWidth': 411, 'origHeight': 411, 'width': 411, 'height': 411, 'widthPercent': 0.45, 'rescaleHeight': False, 'trialN': 22, 'loaded': True, 'loadedTime': 2502.5, 'positionName': 'LEFT', 'positionCoords': [510.6, 334.5], 'bid': 1.28}, {'imgObject': {}, 'id': 'cheerios', 'src': '/static/foodstim60/cheerios.jpg', 'key': 'i', 'origWidth': 409, 'origHeight': 410, 'width': 409, 'height': 410, 'widthPercent': 0.45, 'rescaleHeight': False, 'trialN': 22, 'loaded': True, 'loadedTime': 2592.699999999255, 'positionName': 'RIGHT', 'positionCoords': [998.4, 335], 'bid': 1.06}]",55183.10000000149,1657738803851,tacos,cheerios,1.28,1.06,-0.21999999999999997,tacos,1911.8999999985099,1912,1912.5,True,u,57606.10000000149,2423.0,1657738806274,2423,HRV,HRV_0013,2022-07-13 15:04:16
23,"[{'imgObject': {}, 'id': 'lox', 'src': '/static/foodstim60/lox.jpg', 'key': 'u', 'origWidth': 410, 'origHeight': 411, 'width': 410, 'height': 411, 'widthPercent': 0.45, 'rescaleHeight': False, 'trialN': 23, 'loaded': True, 'loadedTime': 2462.199999999255, 'positionName': 'LEFT', 'positionCoords': [511.6, 334.5], 'bid': 0.68}, {'imgObject': {}, 'id': 'cherry tomato', 'src': '/static/foodstim60/cherry tomato.jpg', 'key': 'i', 'origWidth': 410, 'origHeight': 410, 'width': 410, 'height': 410, 'widthPercent': 0.45, 'rescaleHeight': False, 'trialN': 23, 'loaded': True, 'loadedTime': 2552.5999999996275, 'positionName': 'RIGHT', 'positionCoords': [998.4, 335], 'bid': 0.68}]",57606.300000000745,1657738806274,lox,cherry tomato,0.68,0.68,0.0,NaN,NaN,NaN,,False,NaN,61618.800000000745,4012.5,1657738810286,4012,HRV,HRV_0013,2022-07-13 15:04:16
24,"[{'imgObject': {}, 'id': 'cocktailshrimp', 'src': '/static/foodstim60/cocktailshrimp.jpg', 'key': 'u', 'origWidth': 410, 'origHeight': 410, 'width': 410, 'height': 410, 'widthPercent': 0.45, 'rescaleHeight': False, 'trialN': 24, 'loaded': True, 'loadedTime': 2454.800000000745, 'positionName': 'LEFT', 'positionCoords': [511.6, 335], 'bid': 2.44}, {'imgObject': {}, 'id': 'avocado', 'src': '/static/foodstim60/avocado.jpg', 'key': 'i', 'origWidth': 409, 'origHeight': 409, 'width': 409, 'height': 409, 'widthPercent': 0.45, 'rescaleHeight': False, 'trialN': 24, 'loaded': True, 'loadedTime': 2592.9000000003725, 'positionName': 'RIGHT', 'positionCoords': [998.4, 335.5], 'bid': 5.2}]",61618.89999999851,1657738810287,cocktailshrimp,avocado,2.44,5.2,2.7600000000000002,avocado,1478.300000000745,1478,1478.800000000745,True,i,63608.10000000149,1989.2000000029802,1657738812276,1989,HRV,HRV_0013,2022-07-13 15:04:16
25,"[{'imgObject': {}, 'id': 'burger', 'src': '/static/foodstim60/burger.jpg', 'key': 'u', 'origWidth': 409, 'origHeight': 409, 'width': 409, 'height': 409, 'widthPercent': 0.45, 'rescaleHeight': False, 'trialN': 25, 'loaded': True, 'loadedTime': 2279.0999999996275, 'positionName': 'LEFT', 'positionCoords': [512.6, 335.5], 'bid': 1.04}, {'imgObject': {}, 'id': 'hotdog w must', 'src': '/static/foodstim60/hotdog w must.jpg', 'key': 'i', 'origWidth': 409, 'origHeight': 409, 'width': 409, 'height': 409, 'widthPercent': 0.45, 'rescaleHeight': False, 'trialN': 25, 'loaded': True, 'loadedTime': 2627.5, 'positionName': 'RIGHT', 'positionCoords': [998.4, 335.5], 'bid': 0.91}]",63608.300000000745,1657738812276,burger,hotdog w must,1.04,0.91,-0.13,hotdog w must,2645.800000000745,2646,2646.300000000745,True,i,66761.80000000075,3153.5,1657738815429,3153,HRV,HRV_0013,2022-07-13 15:04:16
26,"[{'imgObject': {}, 'id': 'bagel plain', 'src': '/static/foodstim60/bagel plain.jpg', 'key': 'u', 'origWidth': 410, 'origHeight': 410, 'width': 410, 'height': 410, 'widthPercent': 0.45, 'rescaleHeight': False, 'trialN': 26, 'loaded': True, 'loadedTime': 2520.5, 'positionName': 'LEFT', 'positionCoords': [511.6, 335], 'bid': 0.7000000000000001}, {'imgObject': {}, 'id': 'sweetpotato', 'src': '/static/foodstim60/sweetpotato.jpg', 'key': 'i', 'origWidth': 410, 'origHeight': 410, 'width': 410, 'height': 410, 'widthPercent': 0.45, 'rescaleHeight': False, 'trialN': 26, 'loaded': True, 'loadedTime': 2648.4000000003725, 'positionName': 'RIGHT', 'positionCoords': [998.4, 335], 'bid': 0.42}]",66762.10000000149,1657738815430,bagel plain,sweetpotato,0.7000000000000001,0.42,-0.2800000000000001,sweetpotato,1093.0999999977648,1093,1093.5999999977648,True,i,68365.30000000075,1603.199999999255,1657738817033,1603,HRV,HRV_0013,2022-07-13 15:04:16
27,"[{'imgObject': {}, 'id': 'rigatoni and sauce', 'src': '/static/foodstim60/rigatoni and sauce.jpg', 'key': 'u', 'origWidth': 410, 'origHeight': 411, 'width': 410, 'height': 411, 'widthPercent': 0.45, 'rescaleHeight': False, 'trialN': 27, 'loaded': True, 'loadedTime': 2192, 'positionName': 'LEFT', 'positionCoords': [511.6, 334.5], 'bid': 0.8}, {'imgObject': {}, 'id': 'cheerios', 'src': '/static/foodstim60/cheerios.jpg', 'key': 'i', 'origWidth': 409, 'origHeight': 410, 'width': 409, 'height': 410, 'widthPercent': 0.45, 'rescaleHeight': False, 'trialN': 27, 'loaded': True, 'loadedTime': 2592.9000000003725, 'positionName': 'RIGHT', 'positionCoords': [998.4, 335], 'bid': 1.06}]",68365.80000000075,1657738817033,rigatoni and sauce,cheerios,0.8,1.06,0.26,cheerios,930.3000000007451,931,930.8000000007451,True,i,69800.60000000149,1434.800000000745,1657738818468,1435,HRV,HRV_0013,2022-07-13 15:04:16
28,"[{'imgObject': {}, 'id': 'granola w milk', 'src': '/static/foodstim60/granola w milk.jpg', 'key': 'u', 'origWidth': 410, 'origHeight': 410, 'width': 410, 'height': 410, 'widthPercent': 0.45, 'rescaleHeight': False, 'trialN': 28, 'loaded': True, 'loadedTime': 2128.300000000745, 'positionName': 'LEFT', 'positionCoords': [511.6, 335], 'bid': 0.88}, {'imgObject': {}, 'id': 'banana', 'src': '/static/foodstim60/banana.jpg', 'key': 'i', 'origWidth': 410, 'origHeight': 410, 'width': 410, 'height': 410, 'widthPercent': 0.45, 'rescaleHeight': False, 'trialN': 28, 'loaded': True, 'loadedTime': 2024.199999999255, 'positionName': 'RIGHT', 'positionCoords': [998.4, 335], 'bid': 7.69}]",69800.89999999851,1657738818468,granola w milk,banana,0.88,7.69,6.8100000000000005,banana,944.4000000022352,945,944.9000000022352,True,i,71260.19999999925,1459.300000000745,1657738819928,1460,HRV,HRV_0013,2022-07-13 15:04:16
29,"[{'imgObject': {}, 'id': 'salmon', 'src': '/static/foodstim60/salmon.jpg', 'key': 'u', 'origWidth': 410, 'origHeight': 409, 'width': 410, 'height': 409, 'widthPercent': 0.45, 'rescaleHeight': False, 'trialN': 29, 'loaded': True, 'loadedTime': 2375.0999999996275, 'positionName': 'LEFT', 'positionCoords': [511.6, 335.5], 'bid': 1.13}, {'imgObject': {}, 'id': 'orange slices', 'src': '/static/foodstim60/orange slices.jpg', 'key': 'i', 'origWidth': 409, 'origHeight': 410, 'width': 409, 'height': 410, 'widthPercent': 0.45, 'rescaleHeight': False, 'trialN': 29, 'loaded': True, 'loadedTime': 2649.5, 'positionName': 'RIGHT', 'positionCoords': [998.4, 335], 'bid': 6.78}]",71260.39999999851,1657738819928,salmon,orange slices,1.13,6.78,5.65,orange slices,878.8000000007451,879,879.3000000007451,True,i,72650.60000000149,1390.2000000029802,1657738821318,1390,HRV,HRV_0013,2022-07-13 15:04:16
30,"[{'imgObject': {}, 'id': 'granola w milk', 'src': '/static/foodstim60/granola w milk.jpg', 'key': 'u', 'origWidth': 410, 'origHeight': 410, 'width': 410, 'height': 410, 'widthPercent': 0.45, 'rescaleHeight': False, 'trialN': 30, 'loaded': True, 'loadedTime': 2108.9000000003725, 'positionName': 'LEFT', 'positionCoords': [511.6, 335], 'bid': 0.88}, {'imgObject': {}, 'id': 'blackbeanswithrice', 'src': '/static/foodstim60/blackbeanswithrice.jpg', 'key': 'i', 'origWidth': 410, 'origHeight': 410, 'width': 410, 'height': 410, 'widthPercent': 0.45, 'rescaleHeight': False, 'trialN': 30, 'loaded': True, 'loadedTime': 2666.300000000745, 'positionName': 'RIGHT', 'positionCoords': [998.4, 335], 'bid': 0.89}]",72650.80000000075,1657738821318,granola w milk,blackbeanswithrice,0.88,0.89,0.010000000000000009,granola w milk,1135.5,1136,1136.0,True,u,74287.89999999851,1637.0999999977648,1657738822955,1637,HRV,HRV_0013,2022-07-13 15:04:16
31,"[{'imgObject': {}, 'id': 'fried eggs', 'src': '/static/foodstim60/fried eggs.jpg', 'key': 'u', 'origWidth': 410, 'origHeight': 410, 'width': 410, 'height': 410, 'widthPercent': 0.45, 'rescaleHeight': False, 'trialN': 31, 'loaded': True, 'loadedTime': 2532.0999999996275, 'positionName': 'LEFT', 'positionCoords': [511.6, 335], 'bid': 1.97}, {'imgObject': {}, 'id': 'orange slices', 'src': '/static/foodstim60/orange slices.jpg', 'key': 'i', 'origWidth': 409, 'origHeight': 410, 'width': 409, 'height': 410, 'widthPercent': 0.45, 'rescaleHeight': False, 'trialN': 31, 'loaded': True, 'loadedTime': 2648.699999999255, 'positionName': 'RIGHT', 'positionCoords': [998.4, 335], 'bid': 6.78}]",74288.19999999925,1657738822956,fried eggs,orange slices,1.97,6.78,4.8100000000000005,orange slices,640.1000000014901,641,640.9000000022352,True,i,75437.5,1149.300000000745,1657738824105,1149,HRV,HRV_0013,2022-07-13 15:04:16
32,"[{'imgObject': {}, 'id': 'froot loops w milk', 'src': '/static/foodstim60/froot loops w milk.jpg', 'key': 'u', 'origWidth': 410, 'origHeight': 410, 'width': 410, 'height': 410, 'widthPercent': 0.45, 'rescaleHeight': False, 'trialN': 32, 'loaded': True, 'loadedTime': 2684.199999999255, 'positionName': 'LEFT', 'positionCoords': [511.6, 335], 'bid': 0.66}, {'imgObject': {}, 'id': 'burrito', 'src': '/static/foodstim60/burrito.jpg', 'key': 'i', 'origWidth': 410, 'origHeight': 410, 'width': 410, 'height': 410, 'widthPercent': 0.45, 'rescaleHeight': False, 'trialN': 32, 'loaded': True, 'loadedTime': 2700.9000000003725, 'positionName': 'RIGHT', 'positionCoords': [998.4, 335], 'bid': 0.64}]",75437.80000000075,1657738824105,froot loops w milk,burrito,0.66,0.64,-0.020000000000000018,froot loops w milk,1647.5999999977648,1648,1648.199999999255,True,u,77599.5,2161.699999999255,1657738826267,2162,HRV,HRV_0013,2022-07-13 15:04:16
33,"[{'imgObject': {}, 'id': 'seaweed', 'src': '/static/foodstim60/seaweed.jpg', 'key': 'u', 'origWidth': 410, 'origHeight': 410, 'width': 410, 'height': 410, 'widthPercent': 0.45, 'rescaleHeight': False, 'trialN': 33, 'loaded': True, 'loadedTime': 2309.9000000003725, 'positionName': 'LEFT', 'positionCoords': [511.6, 335], 'bid': 1.13}, {'imgObject': {}, 'id': 'cheerios', 'src': '/static/foodstim60/cheerios.jpg', 'key': 'i', 'origWidth': 409, 'origHeight': 410, 'width': 409, 'height': 410, 'widthPercent': 0.45, 'rescaleHeight': False, 'trialN': 33, 'loaded': True, 'loadedTime': 2592, 'positionName': 'RIGHT', 'positionCoords': [998.4, 335], 'bid': 1.06}]",77599.69999999925,1657738826267,seaweed,cheerios,1.13,1.06,-0.06999999999999984,cheerios,941.4000000022352,942,941.9000000022352,True,i,79049.60000000149,1449.9000000022352,1657738827717,1450,HRV,HRV_0013,2022-07-13 15:04:16
34,"[{'imgObject': {}, 'id': 'raspberries', 'src': '/static/foodstim60/raspberries.jpg', 'key': 'u', 'origWidth': 411, 'origHeight': 411, 'width': 411, 'height': 411, 'widthPercent': 0.45, 'rescaleHeight': False, 'trialN': 34, 'loaded': True, 'loadedTime': 2344.0999999996275, 'positionName': 'LEFT', 'positionCoords': [510.6, 334.5], 'bid': 5.5600000000000005}, {'imgObject': {}, 'id': 'mango', 'src': '/static/foodstim60/mango.jpg', 'key': 'i', 'origWidth': 411, 'origHeight': 411, 'width': 411, 'height': 411, 'widthPercent': 0.45, 'rescaleHeight': False, 'trialN': 34, 'loaded': True, 'loadedTime': 2362.5, 'positionName': 'RIGHT', 'positionCoords': [998.4, 334.5], 'bid': 5.62}]",79049.89999999851,1657738827717,raspberries,mango,5.5600000000000005,5.62,0.05999999999999961,raspberries,1066.800000000745,1068,1067.2000000029802,True,u,80619.19999999925,1569.300000000745,1657738829287,1570,HRV,HRV_0013,2022-07-13 15:04:16
35,"[{'imgObject': {}, 'id': 'avocado', 'src': '/static/foodstim60/avocado.jpg', 'key': 'u', 'origWidth': 409, 'origHeight': 409, 'width': 409, 'height': 409, 'widthPercent': 0.45, 'rescaleHeight': False, 'trialN': 35, 'loaded': True, 'loadedTime': 2609.699999999255, 'positionName': 'LEFT', 'positionCoords': [512.6, 335.5], 'bid': 5.2}, {'imgObject': {}, 'id': 'kiwi', 'src': '/static/foodstim60/kiwi.jpg', 'key': 'i', 'origWidth': 410, 'origHeight': 410, 'width': 410, 'height': 410, 'widthPercent': 0.45, 'rescaleHeight': False, 'trialN': 35, 'loaded': True, 'loadedTime': 2526.5, 'positionName': 'RIGHT', 'positionCoords': [998.4, 335], 'bid': 7.11}]",80619.60000000149,1657738829287,avocado,kiwi,5.2,7.11,1.9100000000000001,kiwi,1482.2999999970198,1483,1482.7999999970198,True,i,82611.69999999925,1992.0999999977648,1657738831279,1992,HRV,HRV_0013,2022-07-13 15:04:16
36,"[{'imgObject': {}, 'id': 'mango', 'src': '/static/foodstim60/mango.jpg', 'key': 'u', 'origWidth': 411, 'origHeight': 411, 'width': 411, 'height': 411, 'widthPercent': 0.45, 'rescaleHeight': False, 'trialN': 36, 'loaded': True, 'loadedTime': 2362.300000000745, 'positionName': 'LEFT', 'positionCoords': [510.6, 334.5], 'bid': 5.62}, {'imgObject': {}, 'id': 'roastedpotatoes', 'src': '/static/foodstim60/roastedpotatoes.jpg', 'key': 'i', 'origWidth': 409, 'origHeight': 410, 'width': 409, 'height': 410, 'widthPercent': 0.45, 'rescaleHeight': False, 'trialN': 36, 'loaded': True, 'loadedTime': 2091.5999999996275, 'positionName': 'RIGHT', 'positionCoords': [998.4, 335], 'bid': 0.72}]",82611.89999999851,1657738831279,mango,roastedpotatoes,5.62,0.72,-4.9,mango,784.3000000007451,785,784.9000000022352,True,u,83903.89999999851,1292.0,1657738832571,1292,HRV,HRV_0013,2022-07-13 15:04:16
37,"[{'imgObject': {}, 'id': 'shreddedwheatwithmilk', 'src': '/static/foodstim60/shreddedwheatwithmilk.jpg', 'key': 'u', 'origWidth': 410, 'origHeight': 410, 'width': 410, 'height': 410, 'widthPercent': 0.45, 'rescaleHeight': False, 'trialN': 37, 'loaded': True, 'loadedTime': 2701, 'positionName': 'LEFT', 'positionCoords': [511.6, 335], 'bid': 0.72}, {'imgObject': {}, 'id': 'grilled chicken strips', 'src': '/static/foodstim60/grilled chicken strips.jpg', 'key': 'i', 'origWidth': 410, 'origHeight': 411, 'width': 410, 'height': 411, 'widthPercent': 0.45, 'rescaleHeight': False, 'trialN': 37, 'loaded': True, 'loadedTime': 2735.800000000745, 'positionName': 'RIGHT', 'positionCoords': [998.4, 334.5], 'bid': 0.54}]",83904.10000000149,1657738832572,shreddedwheatwithmilk,grilled chicken strips,0.72,0.54,-0.17999999999999994,shreddedwheatwithmilk,1045.0999999977648,1045,1045.699999999255,True,u,85457.10000000149,1553.0,1657738834125,1553,HRV,HRV_0013,2022-07-13 15:04:16
38,"[{'imgObject': {}, 'id': 'blueberries', 'src': '/static/foodstim60/blueberries.jpg', 'key': 'u', 'origWidth': 411, 'origHeight': 411, 'width': 411, 'height': 411, 'widthPercent': 0.45, 'rescaleHeight': False, 'trialN': 38, 'loaded': True, 'loadedTime': 2736.5, 'positionName': 'LEFT', 'positionCoords': [510.6, 334.5], 'bid': 6.44}, {'imgObject': {}, 'id': 'cheerios', 'src': '/static/foodstim60/cheerios.jpg', 'key': 'i', 'origWidth': 409, 'origHeight': 410, 'width': 409, 'height': 410, 'widthPercent': 0.45, 'rescaleHeight': False, 'trialN': 38, 'loaded': True, 'loadedTime': 2592.800000000745, 'positionName': 'RIGHT', 'positionCoords': [998.4, 335], 'bid': 1.06}]",85457.39999999851,1657738834125,blueberries,cheerios,6.44,1.06,-5.380000000000001,blueberries,572.7000000029802,573,573.3000000007451,True,u,86545.80000000075,1088.4000000022352,1657738835213,1088,HRV,HRV_0013,2022-07-13 15:04:16
39,"[{'imgObject': {}, 'id': 'blueberries', 'src': '/static/foodstim60/blueberries.jpg', 'key': 'u', 'origWidth': 411, 'origHeight': 411, 'width': 411, 'height': 411, 'widthPercent': 0.45, 'rescaleHeight': False, 'trialN': 39, 'loaded': True, 'loadedTime': 2736.699999999255, 'positionName': 'LEFT', 'positionCoords': [510.6, 334.5], 'bid': 6.44}, {'imgObject': {}, 'id': 'corn cob', 'src': '/static/foodstim60/corn cob.jpg', 'key': 'i', 'origWidth': 411, 'origHeight': 411, 'width': 411, 'height': 411, 'widthPercent': 0.45, 'rescaleHeight': False, 'trialN': 39, 'loaded': True, 'loadedTime': 2757, 'positionName': 'RIGHT', 'positionCoords': [998.4, 334.5], 'bid': 1.2}]",86546.0,1657738835213,blueberries,corn cob,6.44,1.2,-5.24,blueberries,674.5,676,675.1000000014901,True,u,87727.0,1181.0,1657738836394,1181,HRV,HRV_0013,2022-07-13 15:04:16
40,"[{'imgObject': {}, 'id': 'burger', 'src': '/static/foodstim60/burger.jpg', 'key': 'u', 'origWidth': 409, 'origHeight': 409, 'width': 409, 'height': 409, 'widthPercent': 0.45, 'rescaleHeight': False, 'trialN': 40, 'loaded': True, 'loadedTime': 2294.800000000745, 'positionName': 'LEFT', 'positionCoords': [512.6, 335.5], 'bid': 1.04}, {'imgObject': {}, 'id': 'edamame', 'src': '/static/foodstim60/edamame.jpg', 'key': 'i', 'origWidth': 409, 'origHeight': 410, 'width': 409, 'height': 410, 'widthPercent': 0.45, 'rescaleHeight': False, 'trialN': 40, 'loaded': True, 'loadedTime': 2758.300000000745, 'positionName': 'RIGHT', 'positionCoords': [998.4, 335], 'bid': 1.06}]",87727.19999999925,1657738836395,burger,edamame,1.04,1.06,0.020000000000000018,edamame,647.4000000022352,648,647.9000000022352,True,i,88889.5,1162.300000000745,1657738837557,1162,HRV,HRV_0013,2022-07-13 15:04:16
41,"[{'imgObject': {}, 'id': 'edamame', 'src': '/static/foodstim60/edamame.jpg', 'key': 'u', 'origWidth': 409, 'origHeight': 410, 'width': 409, 'height': 410, 'widthPercent': 0.45, 'rescaleHeight': False, 'trialN': 41, 'loaded': True, 'loadedTime': 2758, 'positionName': 'LEFT', 'positionCoords': [512.6, 335], 'bid': 1.06}, {'imgObject': {}, 'id': 'grilled chicken strips', 'src': '/static/foodstim60/grilled chicken strips.jpg', 'key': 'i', 'origWidth': 410, 'origHeight': 411, 'width': 410, 'height': 411, 'widthPercent': 0.45, 'rescaleHeight': False, 'trialN': 41, 'loaded': True, 'loadedTime': 2735.5, 'positionName': 'RIGHT', 'positionCoords': [998.4, 334.5], 'bid': 0.54}]",88889.69999999925,1657738837557,edamame,grilled chicken strips,1.06,0.54,-0.52,edamame,740.6000000014901,741,741.1999999992549,True,u,90146.10000000149,1256.4000000022352,1657738838814,1257,HRV,HRV_0013,2022-07-13 15:04:16
42,"[{'imgObject': {}, 'id': 'fruitsalad', 'src': '/static/foodstim60/fruitsalad.jpg', 'key': 'u', 'origWidth': 410, 'origHeight': 410, 'width': 410, 'height': 410, 'widthPercent': 0.45, 'rescaleHeight': False, 'trialN': 42, 'loaded': True, 'loadedTime': 2774.5999999996275, 'positionName': 'LEFT', 'positionCoords': [511.6, 335], 'bid': 0.89}, {'imgObject': {}, 'id': 'blackbeanswithrice', 'src': '/static/foodstim60/blackbeanswithrice.jpg', 'key': 'i', 'origWidth': 410, 'origHeight': 410, 'width': 410, 'height': 410, 'widthPercent': 0.45, 'rescaleHeight': False, 'trialN': 42, 'loaded': True, 'loadedTime': 2666.199999999255, 'positionName': 'RIGHT', 'positionCoords': [998.4, 335], 'bid': 0.89}]",90146.30000000075,1657738838814,fruitsalad,blackbeanswithrice,0.89,0.89,0.0,fruitsalad,544.6999999992549,545,545.3000000007451,True,u,91199.60000000149,1053.300000000745,1657738839867,1053,HRV,HRV_0013,2022-07-13 15:04:16
43,"[{'imgObject': {}, 'id': 'cherries', 'src': '/static/foodstim60/cherries.jpg', 'key': 'u', 'origWidth': 410, 'origHeight': 411, 'width': 410, 'height': 411, 'widthPercent': 0.45, 'rescaleHeight': False, 'trialN': 43, 'loaded': True, 'loadedTime': 2367.0999999996275, 'positionName': 'LEFT', 'positionCoords': [511.6, 334.5], 'bid': 6.79}, {'imgObject': {}, 'id': 'pear', 'src': '/static/foodstim60/pear.jpg', 'key': 'i', 'origWidth': 411, 'origHeight': 410, 'width': 411, 'height': 410, 'widthPercent': 0.45, 'rescaleHeight': False, 'trialN': 43, 'loaded': True, 'loadedTime': 2188.699999999255, 'positionName': 'RIGHT', 'positionCoords': [998.4, 335], 'bid': 6.65}]",91199.80000000075,1657738839867,cherries,pear,6.79,6.65,-0.13999999999999968,cherries,573.3000000007451,574,573.8000000007451,True,u,92274.69999999925,1074.8999999985099,1657738840942,1075,HRV,HRV_0013,2022-07-13 15:04:16
44,"[{'imgObject': {}, 'id': 'apple slices', 'src': '/static/foodstim60/apple slices.jpg', 'key': 'u', 'origWidth': 409, 'origHeight': 410, 'width': 409, 'height': 410, 'widthPercent': 0.45, 'rescaleHeight': False, 'trialN': 44, 'loaded': True, 'loadedTime': 2571, 'positionName': 'LEFT', 'positionCoords': [512.6, 335], 'bid': 6.62}, {'imgObject': {}, 'id': 'orange slices', 'src': '/static/foodstim60/orange slices.jpg', 'key': 'i', 'origWidth': 409, 'origHeight': 410, 'width': 409, 'height': 410, 'widthPercent': 0.45, 'rescaleHeight': False, 'trialN': 44, 'loaded': True, 'loadedTime': 2649.5, 'positionName': 'RIGHT', 'positionCoords': [998.4, 335], 'bid': 6.78}]",92274.89999999851,1657738840942,apple slices,orange slices,6.62,6.78,0.16000000000000014,orange slices,1724.4000000022352,1725,1724.9000000022352,True,i,94503.19999999925,2228.300000000745,1657738843171,2229,HRV,HRV_0013,2022-07-13 15:04:16
45,"[{'imgObject': {}, 'id': 'apple slices', 'src': '/static/foodstim60/apple slices.jpg', 'key': 'u', 'origWidth': 409, 'origHeight': 410, 'width': 409, 'height': 410, 'widthPercent': 0.45, 'rescaleHeight': False, 'trialN': 45, 'loaded': True, 'loadedTime': 2571, 'positionName': 'LEFT', 'positionCoords': [512.6, 335], 'bid': 6.62}, {'imgObject': {}, 'id': 'mac & cheese', 'src': '/static/foodstim60/mac & cheese.jpg', 'key': 'i', 'origWidth': 410, 'origHeight': 410, 'width': 410, 'height': 410, 'widthPercent': 0.45, 'rescaleHeight': False, 'trialN': 45, 'loaded': True, 'loadedTime': 2304.5999999996275, 'positionName': 'RIGHT', 'positionCoords': [998.4, 335], 'bid': 1.09}]",94503.5,1657738843171,apple slices,mac & cheese,6.62,1.09,-5.53,apple slices,826.6999999992549,827,827.1999999992549,True,u,95842.30000000075,1338.800000000745,1657738844510,1339,HRV,HRV_0013,2022-07-13 15:04:16
46,"[{'imgObject': {}, 'id': 'tacos', 'src': '/static/foodstim60/tacos.jpg', 'key': 'u', 'origWidth': 411, 'origHeight': 411, 'width': 411, 'height': 411, 'widthPercent': 0.45, 'rescaleHeight': False, 'trialN': 46, 'loaded': True, 'loadedTime': 2482.800000000745, 'positionName': 'LEFT', 'positionCoords': [510.6, 334.5], 'bid': 1.28}, {'imgObject': {}, 'id': 'apple slices', 'src': '/static/foodstim60/apple slices.jpg', 'key': 'i', 'origWidth': 409, 'origHeight': 410, 'width': 409, 'height': 410, 'widthPercent': 0.45, 'rescaleHeight': False, 'trialN': 46, 'loaded': True, 'loadedTime': 2591.800000000745, 'positionName': 'RIGHT', 'positionCoords': [998.4, 335], 'bid': 6.62}]",95842.5,1657738844510,tacos,apple slices,1.28,6.62,5.34,apple slices,815.6000000014901,816,816.1000000014901,True,i,97161.0,1318.5,1657738845828,1318,HRV,HRV_0013,2022-07-13 15:04:16
47,"[{'imgObject': {}, 'id': 'veggieswithdip', 'src': '/static/foodstim60/veggieswithdip.jpg', 'key': 'u', 'origWidth': 409, 'origHeight': 409, 'width': 409, 'height': 409, 'widthPercent': 0.45, 'rescaleHeight': False, 'trialN': 47, 'loaded': True, 'loadedTime': 2520.199999999255, 'positionName': 'LEFT', 'positionCoords': [512.6, 335.5], 'bid': 0.62}, {'imgObject': {}, 'id': 'baked potato', 'src': '/static/foodstim60/baked potato.jpg', 'key': 'i', 'origWidth': 409, 'origHeight': 410, 'width': 409, 'height': 410, 'widthPercent': 0.45, 'rescaleHeight': False, 'trialN': 47, 'loaded': True, 'loadedTime': 2772.9000000003725, 'positionName': 'RIGHT', 'positionCoords': [998.4, 335], 'bid': 0.77}]",97161.10000000149,1657738845829,veggieswithdip,baked potato,0.62,0.77,0.15000000000000002,veggieswithdip,2234.39999999851,2234,2234.7999999970198,True,u,99896.39999999851,2735.2999999970198,1657738848564,2735,HRV,HRV_0013,2022-07-13 15:04:16
48,"[{'imgObject': {}, 'id': 'bagel and cc', 'src': '/static/foodstim60/bagel and cc.jpg', 'key': 'u', 'origWidth': 410, 'origHeight': 410, 'width': 410, 'height': 410, 'widthPercent': 0.45, 'rescaleHeight': False, 'trialN': 48, 'loaded': True, 'loadedTime': 2802.4000000003725, 'positionName': 'LEFT', 'positionCoords': [511.6, 335], 'bid': 1.05}, {'imgObject': {}, 'id': 'olives', 'src': '/static/foodstim60/olives.jpg', 'key': 'i', 'origWidth': 410, 'origHeight': 410, 'width': 410, 'height': 410, 'widthPercent': 0.45, 'rescaleHeight': False, 'trialN': 48, 'loaded': True, 'loadedTime': 1931.9000000003725, 'positionName': 'RIGHT', 'positionCoords': [998.4, 335], 'bid': 0.88}]",99896.5,1657738848564,bagel and cc,olives,1.05,0.88,-0.17000000000000004,olives,852.1000000014901,853,852.6000000014901,True,i,101262.39999999851,1365.8999999985099,1657738849930,1366,HRV,HRV_0013,2022-07-13 15:04:16
49,"[{'imgObject': {}, 'id': 'sweetpotato', 'src': '/static/foodstim60/sweetpotato.jpg', 'key': 'u', 'origWidth': 410, 'origHeight': 410, 'width': 410, 'height': 410, 'widthPercent': 0.45, 'rescaleHeight': False, 'trialN': 49, 'loaded': True, 'loadedTime': 2648.4000000003725, 'positionName': 'LEFT', 'positionCoords': [511.6, 335], 'bid': 0.42}, {'imgObject': {}, 'id': 'hashbrowns', 'src': '/static/foodstim60/hashbrowns.jpg', 'key': 'i', 'origWidth': 411, 'origHeight': 410, 'width': 411, 'height': 410, 'widthPercent': 0.45, 'rescaleHeight': False, 'trialN': 49, 'loaded': True, 'loadedTime': 2803.9000000003725, 'positionName': 'RIGHT', 'positionCoords': [998.4, 335], 'bid': 0.66}]",101262.60000000149,1657738849930,sweetpotato,hashbrowns,0.42,0.66,0.24000000000000005,sweetpotato,648.2999999970198,649,648.7999999970198,True,u,102413.69999999925,1151.0999999977648,1657738851081,1151,HRV,HRV_0013,2022-07-13 15:04:16
50,"[{'imgObject': {}, 'id': 'salmon', 'src': '/static/foodstim60/salmon.jpg', 'key': 'u', 'origWidth': 410, 'origHeight': 409, 'width': 410, 'height': 409, 'widthPercent': 0.45, 'rescaleHeight': False, 'trialN': 50, 'loaded': True, 'loadedTime': 2374.9000000003725, 'positionName': 'LEFT', 'positionCoords': [511.6, 335.5], 'bid': 1.13}, {'imgObject': {}, 'id': 'granola w milk', 'src': '/static/foodstim60/granola w milk.jpg', 'key': 'i', 'origWidth': 410, 'origHeight': 410, 'width': 410, 'height': 410, 'widthPercent': 0.45, 'rescaleHeight': False, 'trialN': 50, 'loaded': True, 'loadedTime': 2109, 'positionName': 'RIGHT', 'positionCoords': [998.4, 335], 'bid': 0.88}]",102413.89999999851,1657738851081,salmon,granola w milk,1.13,0.88,-0.2499999999999999,granola w milk,953.5,954,954.0,True,i,103874.80000000075,1460.9000000022352,1657738852542,1461,HRV,HRV_0013,2022-07-13 15:04:16
51,"[{'imgObject': {}, 'id': 'fried eggs', 'src': '/static/foodstim60/fried eggs.jpg', 'key': 'u', 'origWidth': 410, 'origHeight': 410, 'width': 410, 'height': 410, 'widthPercent': 0.45, 'rescaleHeight': False, 'trialN': 51, 'loaded': True, 'loadedTime': 2531.800000000745, 'positionName': 'LEFT', 'positionCoords': [511.6, 335], 'bid': 1.97}, {'imgObject': {}, 'id': 'banana', 'src': '/static/foodstim60/banana.jpg', 'key': 'i', 'origWidth': 410, 'origHeight': 410, 'width': 410, 'height': 410, 'widthPercent': 0.45, 'rescaleHeight': False, 'trialN': 51, 'loaded': True, 'loadedTime': 2023.800000000745, 'positionName': 'RIGHT', 'positionCoords': [998.4, 335], 'bid': 7.69}]",103875.0,1657738852542,fried eggs,banana,1.97,7.69,5.720000000000001,banana,655.1000000014901,656,655.6999999992549,True,i,105041.89999999851,1166.8999999985099,1657738853709,1167,HRV,HRV_0013,2022-07-13 15:04:16
52,"[{'imgObject': {}, 'id': 'avocado', 'src': '/static/foodstim60/avocado.jpg', 'key': 'u', 'origWidth': 409, 'origHeight': 409, 'width': 409, 'height': 409, 'widthPercent': 0.45, 'rescaleHeight': False, 'trialN': 52, 'loaded': True, 'loadedTime': 2609.300000000745, 'positionName': 'LEFT', 'positionCoords': [512.6, 335.5], 'bid': 5.2}, {'imgObject': {}, 'id': 'hotdog w must', 'src': '/static/foodstim60/hotdog w must.jpg', 'key': 'i', 'origWidth': 409, 'origHeight': 409, 'width': 409, 'height': 409, 'widthPercent': 0.45, 'rescaleHeight': False, 'trialN': 52, 'loaded': True, 'loadedTime': 2627, 'positionName': 'RIGHT', 'positionCoords': [998.4, 335.5], 'bid': 0.91}]",105042.10000000149,1657738853710,avocado,hotdog w must,5.2,0.91,-4.29,avocado,634.1999999992549,634,634.6999999992549,True,u,106177.69999999925,1135.5999999977648,1657738854845,1135,HRV,HRV_0013,2022-07-13 15:04:16
53,"[{'imgObject': {}, 'id': 'Grapes', 'src': '/static/foodstim60/Grapes.jpg', 'key': 'u', 'origWidth': 411, 'origHeight': 411, 'width': 411, 'height': 411, 'widthPercent': 0.45, 'rescaleHeight': False, 'trialN': 53, 'loaded': True, 'loadedTime': 2805.4000000003725, 'positionName': 'LEFT', 'positionCoords': [510.6, 334.5], 'bid': 7.11}, {'imgObject': {}, 'id': 'strawberries', 'src': '/static/foodstim60/strawberries.jpg', 'key': 'i', 'origWidth': 410, 'origHeight': 410, 'width': 410, 'height': 410, 'widthPercent': 0.45, 'rescaleHeight': False, 'trialN': 53, 'loaded': True, 'loadedTime': 2227.4000000003725, 'positionName': 'RIGHT', 'positionCoords': [998.4, 335], 'bid': 6.8500000000000005}]",106177.89999999851,1657738854845,Grapes,strawberries,7.11,6.8500000000000005,-0.2599999999999998,Grapes,1854.2000000029802,1855,1855.0,True,u,108542.30000000075,2364.400000002235,1657738857210,2365,HRV,HRV_0013,2022-07-13 15:04:16
54,"[{'imgObject': {}, 'id': 'burrito', 'src': '/static/foodstim60/burrito.jpg', 'key': 'u', 'origWidth': 410, 'origHeight': 410, 'width': 410, 'height': 410, 'widthPercent': 0.45, 'rescaleHeight': False, 'trialN': 54, 'loaded': True, 'loadedTime': 2699.9000000003725, 'positionName': 'LEFT', 'positionCoords': [511.6, 335], 'bid': 0.64}, {'imgObject': {}, 'id': 'raisin bran w milk', 'src': '/static/foodstim60/raisin bran w milk.jpg', 'key': 'i', 'origWidth': 411, 'origHeight': 411, 'width': 411, 'height': 411, 'widthPercent': 0.45, 'rescaleHeight': False, 'trialN': 54, 'loaded': True, 'loadedTime': 2308.300000000745, 'positionName': 'RIGHT', 'positionCoords': [998.4, 334.5], 'bid': 0.64}]",108542.5,1657738857210,burrito,raisin bran w milk,0.64,0.64,0.0,raisin bran w milk,1041.8999999985099,1042,1042.5,True,i,110097.69999999925,1555.199999999255,1657738858765,1555,HRV,HRV_0013,2022-07-13 15:04:16
55,"[{'imgObject': {}, 'id': 'sushi w_condiments', 'src': '/static/foodstim60/sushi w_condiments.jpg', 'key': 'u', 'origWidth': 410, 'origHeight': 410, 'width': 410, 'height': 410, 'widthPercent': 0.45, 'rescaleHeight': False, 'trialN': 55, 'loaded': True, 'loadedTime': 2465.5, 'positionName': 'LEFT', 'positionCoords': [511.6, 335], 'bid': 1.2}, {'imgObject': {}, 'id': 'yogurt no spoon', 'src': '/static/foodstim60/yogurt no spoon.jpg', 'key': 'i', 'origWidth': 411, 'origHeight': 410, 'width': 411, 'height': 410, 'widthPercent': 0.45, 'rescaleHeight': False, 'trialN': 55, 'loaded': True, 'loadedTime': 2806.800000000745, 'positionName': 'RIGHT', 'positionCoords': [998.4, 335], 'bid': 6.38}]",110098.19999999925,1657738858766,sushi w_condiments,yogurt no spoon,1.2,6.38,5.18,yogurt no spoon,849.9000000022352,850,850.3000000007451,True,i,111450.89999999851,1352.699999999255,1657738860118,1352,HRV,HRV_0013,2022-07-13 15:04:16
56,"[{'imgObject': {}, 'id': 'froot loops w milk', 'src': '/static/foodstim60/froot loops w milk.jpg', 'key': 'u', 'origWidth': 410, 'origHeight': 410, 'width': 410, 'height': 410, 'widthPercent': 0.45, 'rescaleHeight': False, 'trialN': 56, 'loaded': True, 'loadedTime': 2684, 'positionName': 'LEFT', 'positionCoords': [511.6, 335], 'bid': 0.66}, {'imgObject': {}, 'id': 'grilled chicken strips', 'src': '/static/foodstim60/grilled chicken strips.jpg', 'key': 'i', 'origWidth': 410, 'origHeight': 411, 'width': 410, 'height': 411, 'widthPercent': 0.45, 'rescaleHeight': False, 'trialN': 56, 'loaded': True, 'loadedTime': 2719, 'positionName': 'RIGHT', 'positionCoords': [998.4, 334.5], 'bid': 0.54}]",111451.10000000149,1657738860119,froot loops w milk,grilled chicken strips,0.66,0.54,-0.12,froot loops w milk,662.8999999985099,663,663.3999999985099,True,u,112618.5,1167.3999999985099,1657738861286,1167,HRV,HRV_0013,2022-07-13 15:04:16
57,"[{'imgObject': {}, 'id': 'pear', 'src': '/static/foodstim60/pear.jpg', 'key': 'u', 'origWidth': 411, 'origHeight': 410, 'width': 411, 'height': 410, 'widthPercent': 0.45, 'rescaleHeight': False, 'trialN': 57, 'loaded': True, 'loadedTime': 2189, 'positionName': 'LEFT', 'positionCoords': [510.6, 335], 'bid': 6.65}, {'imgObject': {}, 'id': 'chicken nuggets2', 'src': '/static/foodstim60/chicken nuggets2.jpg', 'key': 'i', 'origWidth': 410, 'origHeight': 409, 'width': 410, 'height': 409, 'widthPercent': 0.45, 'rescaleHeight': False, 'trialN': 57, 'loaded': True, 'loadedTime': 2129.199999999255, 'positionName': 'RIGHT', 'positionCoords': [998.4, 335.5], 'bid': 0.77}]",112618.60000000149,1657738861286,pear,chicken nuggets2,6.65,0.77,-5.880000000000001,pear,678.7999999970198,679,679.2999999970198,True,u,113804.80000000075,1186.199999999255,1657738862472,1186,HRV,HRV_0013,2022-07-13 15:04:16
58,"[{'imgObject': {}, 'id': 'omelette', 'src': '/static/foodstim60/omelette.jpg', 'key': 'u', 'origWidth': 410, 'origHeight': 409, 'width': 410, 'height': 409, 'widthPercent': 0.45, 'rescaleHeight': False, 'trialN': 58, 'loaded': True, 'loadedTime': 2530.4000000003725, 'positionName': 'LEFT', 'positionCoords': [511.6, 335.5], 'bid': 0.8300000000000001}, {'imgObject': {}, 'id': 'rigatoni and sauce', 'src': '/static/foodstim60/rigatoni and sauce.jpg', 'key': 'i', 'origWidth': 410, 'origHeight': 411, 'width': 410, 'height': 411, 'widthPercent': 0.45, 'rescaleHeight': False, 'trialN': 58, 'loaded': True, 'loadedTime': 2189.699999999255, 'positionName': 'RIGHT', 'positionCoords': [998.4, 334.5], 'bid': 0.8}]",113805.10000000149,1657738862473,omelette,rigatoni and sauce,0.8300000000000001,0.8,-0.030000000000000027,rigatoni and sauce,1095,1095,1095.3999999985099,True,i,115406.69999999925,1601.5999999977648,1657738864074,1601,HRV,HRV_0013,2022-07-13 15:04:16
59,"[{'imgObject': {}, 'id': 'cherry tomato', 'src': '/static/foodstim60/cherry tomato.jpg', 'key': 'u', 'origWidth': 410, 'origHeight': 410, 'width': 410, 'height': 410, 'widthPercent': 0.45, 'rescaleHeight': False, 'trialN': 59, 'loaded': True, 'loadedTime': 2552.5999999996275, 'positionName': 'LEFT', 'positionCoords': [511.6, 335], 'bid': 0.68}, {'imgObject': {}, 'id': 'shreddedwheatwithmilk', 'src': '/static/foodstim60/shreddedwheatwithmilk.jpg', 'key': 'i', 'origWidth': 410, 'origHeight': 410, 'width': 410, 'height': 410, 'widthPercent': 0.45, 'rescaleHeight': False, 'trialN': 59, 'loaded': True, 'loadedTime': 2718.4000000003725, 'positionName': 'RIGHT', 'positionCoords': [998.4, 335], 'bid': 0.72}]",115406.80000000075,1657738864074,cherry tomato,shreddedwheatwithmilk,0.68,0.72,0.039999999999999925,shreddedwheatwithmilk,1181.5999999977648,1182,1182.199999999255,True,i,117104.5,1697.699999999255,1657738865772,1698,HRV,HRV_0013,2022-07-13 15:04:16
60,"[{'imgObject': {}, 'id': 'hashbrowns', 'src': '/static/foodstim60/hashbrowns.jpg', 'key': 'u', 'origWidth': 411, 'origHeight': 410, 'width': 411, 'height': 410, 'widthPercent': 0.45, 'rescaleHeight': False, 'trialN': 60, 'loaded': True, 'loadedTime': 2803.800000000745, 'positionName': 'LEFT', 'positionCoords': [510.6, 335], 'bid': 0.66}, {'imgObject': {}, 'id': 'tacos', 'src': '/static/foodstim60/tacos.jpg', 'key': 'i', 'origWidth': 411, 'origHeight': 411, 'width': 411, 'height': 411, 'widthPercent': 0.45, 'rescaleHeight': False, 'trialN': 60, 'loaded': True, 'loadedTime': 2484.5, 'positionName': 'RIGHT', 'positionCoords': [998.4, 334.5], 'bid': 1.28}]",117104.69999999925,1657738865772,hashbrowns,tacos,0.66,1.28,0.62,tacos,1130.9000000022352,1132,1131.4000000022352,True,i,118737.89999999851,1633.199999999255,1657738867405,1633,HRV,HRV_0013,2022-07-13 15:04:16
61,"[{'imgObject': {}, 'id': 'burger', 'src': '/static/foodstim60/burger.jpg', 'key': 'u', 'origWidth': 409, 'origHeight': 409, 'width': 409, 'height': 409, 'widthPercent': 0.45, 'rescaleHeight': False, 'trialN': 61, 'loaded': True, 'loadedTime': 2278.300000000745, 'positionName': 'LEFT', 'positionCoords': [512.6, 335.5], 'bid': 1.04}, {'imgObject': {}, 'id': 'omelette', 'src': '/static/foodstim60/omelette.jpg', 'key': 'i', 'origWidth': 410, 'origHeight': 409, 'width': 410, 'height': 409, 'widthPercent': 0.45, 'rescaleHeight': False, 'trialN': 61, 'loaded': True, 'loadedTime': 2530.5, 'positionName': 'RIGHT', 'positionCoords': [998.4, 335.5], 'bid': 0.8300000000000001}]",118738.10000000149,1657738867406,burger,omelette,1.04,0.8300000000000001,-0.20999999999999996,omelette,961.7999999970198,962,962.2999999970198,True,i,120202.5,1464.3999999985099,1657738868870,1464,HRV,HRV_0013,2022-07-13 15:04:16
62,"[{'imgObject': {}, 'id': 'salad w chicken', 'src': '/static/foodstim60/salad w chicken.jpg', 'key': 'u', 'origWidth': 411, 'origHeight': 411, 'width': 411, 'height': 411, 'widthPercent': 0.45, 'rescaleHeight': False, 'trialN': 62, 'loaded': True, 'loadedTime': 2059.9000000003725, 'positionName': 'LEFT', 'positionCoords': [510.6, 334.5], 'bid': 0.7000000000000001}, {'imgObject': {}, 'id': 'eggs', 'src': '/static/foodstim60/eggs.jpg', 'key': 'i', 'origWidth': 409, 'origHeight': 409, 'width': 409, 'height': 409, 'widthPercent': 0.45, 'rescaleHeight': False, 'trialN': 62, 'loaded': True, 'loadedTime': 2808.0999999996275, 'positionName': 'RIGHT', 'positionCoords': [998.4, 335.5], 'bid': 0.6900000000000001}]",120202.69999999925,1657738868870,salad w chicken,eggs,0.7000000000000001,0.6900000000000001,-0.010000000000000009,eggs,1158.800000000745,1159,1159.300000000745,True,i,121867.39999999851,1664.699999999255,1657738870535,1665,HRV,HRV_0013,2022-07-13 15:04:16
63,"[{'imgObject': {}, 'id': 'omelette', 'src': '/static/foodstim60/omelette.jpg', 'key': 'u', 'origWidth': 410, 'origHeight': 409, 'width': 410, 'height': 409, 'widthPercent': 0.45, 'rescaleHeight': False, 'trialN': 63, 'loaded': True, 'loadedTime': 2527.800000000745, 'positionName': 'LEFT', 'positionCoords': [511.6, 335.5], 'bid': 0.8300000000000001}, {'imgObject': {}, 'id': 'hashbrowns', 'src': '/static/foodstim60/hashbrowns.jpg', 'key': 'i', 'origWidth': 411, 'origHeight': 410, 'width': 411, 'height': 410, 'widthPercent': 0.45, 'rescaleHeight': False, 'trialN': 63, 'loaded': True, 'loadedTime': 2802.5999999996275, 'positionName': 'RIGHT', 'positionCoords': [998.4, 335], 'bid': 0.66}]",121867.69999999925,1657738870535,omelette,hashbrowns,0.8300000000000001,0.66,-0.17000000000000004,hashbrowns,1292.199999999255,1293,1292.699999999255,True,i,123668.80000000075,1801.1000000014901,1657738872336,1801,HRV,HRV_0013,2022-07-13 15:04:16
64,"[{'imgObject': {}, 'id': 'shreddedwheatwithmilk', 'src': '/static/foodstim60/shreddedwheatwithmilk.jpg', 'key': 'u', 'origWidth': 410, 'origHeight': 410, 'width': 410, 'height': 410, 'widthPercent': 0.45, 'rescaleHeight': False, 'trialN': 64, 'loaded': True, 'loadedTime': 2718.5, 'positionName': 'LEFT', 'positionCoords': [511.6, 335], 'bid': 0.72}, {'imgObject': {}, 'id': 'yogurt no spoon', 'src': '/static/foodstim60/yogurt no spoon.jpg', 'key': 'i', 'origWidth': 411, 'origHeight': 410, 'width': 411, 'height': 410, 'widthPercent': 0.45, 'rescaleHeight': False, 'trialN': 64, 'loaded': True, 'loadedTime': 2806.800000000745, 'positionName': 'RIGHT', 'positionCoords': [998.4, 335], 'bid': 6.38}]",123669.0,1657738872336,shreddedwheatwithmilk,yogurt no spoon,0.72,6.38,5.66,yogurt no spoon,600.6000000014901,602,601.1000000014901,True,i,124773.0,1104.0,1657738873440,1104,HRV,HRV_0013,2022-07-13 15:04:16
65,"[{'imgObject': {}, 'id': 'corn cob', 'src': '/static/foodstim60/corn cob.jpg', 'key': 'u', 'origWidth': 411, 'origHeight': 411, 'width': 411, 'height': 411, 'widthPercent': 0.45, 'rescaleHeight': False, 'trialN': 65, 'loaded': True, 'loadedTime': 2756.699999999255, 'positionName': 'LEFT', 'positionCoords': [510.6, 334.5], 'bid': 1.2}, {'imgObject': {}, 'id': 'froot loops w milk', 'src': '/static/foodstim60/froot loops w milk.jpg', 'key': 'i', 'origWidth': 410, 'origHeight': 410, 'width': 410, 'height': 410, 'widthPercent': 0.45, 'rescaleHeight': False, 'trialN': 65, 'loaded': True, 'loadedTime': 2683.5, 'positionName': 'RIGHT', 'positionCoords': [998.4, 335], 'bid': 0.66}]",124773.19999999925,1657738873441,corn cob,froot loops w milk,1.2,0.66,-0.5399999999999999,froot loops w milk,827.6999999992549,828,828.1999999992549,True,i,126112.5,1339.300000000745,1657738874780,1339,HRV,HRV_0013,2022-07-13 15:04:16
66,"[{'imgObject': {}, 'id': 'lox', 'src': '/static/foodstim60/lox.jpg', 'key': 'u', 'origWidth': 410, 'origHeight': 411, 'width': 410, 'height': 411, 'widthPercent': 0.45, 'rescaleHeight': False, 'trialN': 66, 'loaded': True, 'loadedTime': 2459.9000000003725, 'positionName': 'LEFT', 'positionCoords': [511.6, 334.5], 'bid': 0.68}, {'imgObject': {}, 'id': 'grilled chicken strips', 'src': '/static/foodstim60/grilled chicken strips.jpg', 'key': 'i', 'origWidth': 410, 'origHeight': 411, 'width': 410, 'height': 411, 'widthPercent': 0.45, 'rescaleHeight': False, 'trialN': 66, 'loaded': True, 'loadedTime': 2735.800000000745, 'positionName': 'RIGHT', 'positionCoords': [998.4, 334.5], 'bid': 0.54}]",126112.69999999925,1657738874780,lox,grilled chicken strips,0.68,0.54,-0.14,grilled chicken strips,1961.4000000022352,1962,1962.1000000014901,True,i,128588.39999999851,2475.699999999255,1657738877256,2476,HRV,HRV_0013,2022-07-13 15:04:16
67,"[{'imgObject': {}, 'id': 'kiwi', 'src': '/static/foodstim60/kiwi.jpg', 'key': 'u', 'origWidth': 410, 'origHeight': 410, 'width': 410, 'height': 410, 'widthPercent': 0.45, 'rescaleHeight': False, 'trialN': 67, 'loaded': True, 'loadedTime': 2526.9000000003725, 'positionName': 'LEFT', 'positionCoords': [511.6, 335], 'bid': 7.11}, {'imgObject': {}, 'id': 'tacos', 'src': '/static/foodstim60/tacos.jpg', 'key': 'i', 'origWidth': 411, 'origHeight': 411, 'width': 411, 'height': 411, 'widthPercent': 0.45, 'rescaleHeight': False, 'trialN': 67, 'loaded': True, 'loadedTime': 2484.300000000745, 'positionName': 'RIGHT', 'positionCoords': [998.4, 334.5], 'bid': 1.28}]",128588.60000000149,1657738877256,kiwi,tacos,7.11,1.28,-5.83,tacos,650.2999999970198,651,650.7999999970198,True,i,129743.39999999851,1154.7999999970198,1657738878411,1155,HRV,HRV_0013,2022-07-13 15:04:16
68,"[{'imgObject': {}, 'id': 'cheerios', 'src': '/static/foodstim60/cheerios.jpg', 'key': 'u', 'origWidth': 409, 'origHeight': 410, 'width': 409, 'height': 410, 'widthPercent': 0.45, 'rescaleHeight': False, 'trialN': 68, 'loaded': True, 'loadedTime': 2592.5999999996275, 'positionName': 'LEFT', 'positionCoords': [512.6, 335], 'bid': 1.06}, {'imgObject': {}, 'id': 'mac & cheese', 'src': '/static/foodstim60/mac & cheese.jpg', 'key': 'i', 'origWidth': 410, 'origHeight': 410, 'width': 410, 'height': 410, 'widthPercent': 0.45, 'rescaleHeight': False, 'trialN': 68, 'loaded': True, 'loadedTime': 2302.5, 'positionName': 'RIGHT', 'positionCoords': [998.4, 335], 'bid': 1.09}]",129743.60000000149,1657738878411,cheerios,mac & cheese,1.06,1.09,0.030000000000000027,cheerios,1022.3999999985099,1023,1022.8999999985099,True,u,131269.8999999985,1526.2999999970198,1657738879937,1526,HRV,HRV_0013,2022-07-13 15:04:16
69,"[{'imgObject': {}, 'id': 'banana', 'src': '/static/foodstim60/banana.jpg', 'key': 'u', 'origWidth': 410, 'origHeight': 410, 'width': 410, 'height': 410, 'widthPercent': 0.45, 'rescaleHeight': False, 'trialN': 69, 'loaded': True, 'loadedTime': 2042, 'positionName': 'LEFT', 'positionCoords': [511.6, 335], 'bid': 7.69}, {'imgObject': {}, 'id': 'Grapes', 'src': '/static/foodstim60/Grapes.jpg', 'key': 'i', 'origWidth': 411, 'origHeight': 411, 'width': 411, 'height': 411, 'widthPercent': 0.45, 'rescaleHeight': False, 'trialN': 69, 'loaded': True, 'loadedTime': 2805.300000000745, 'positionName': 'RIGHT', 'positionCoords': [998.4, 334.5], 'bid': 7.11}]",131270.0,1657738879937,banana,Grapes,7.69,7.11,-0.5800000000000001,banana,889.8000000007451,891,890.3000000007451,True,u,132668.30000000075,1398.300000000745,1657738881336,1399,HRV,HRV_0013,2022-07-13 15:04:16
70,"[{'imgObject': {}, 'id': 'edamame', 'src': '/static/foodstim60/edamame.jpg', 'key': 'u', 'origWidth': 409, 'origHeight': 410, 'width': 409, 'height': 410, 'widthPercent': 0.45, 'rescaleHeight': False, 'trialN': 70, 'loaded': True, 'loadedTime': 2758.300000000745, 'positionName': 'LEFT', 'positionCoords': [512.6, 335], 'bid': 1.06}, {'imgObject': {}, 'id': 'bagel and cc', 'src': '/static/foodstim60/bagel and cc.jpg', 'key': 'i', 'origWidth': 410, 'origHeight': 410, 'width': 410, 'height': 410, 'widthPercent': 0.45, 'rescaleHeight': False, 'trialN': 70, 'loaded': True, 'loadedTime': 2802.300000000745, 'positionName': 'RIGHT', 'positionCoords': [998.4, 335], 'bid': 1.05}]",132668.5,1657738881336,edamame,bagel and cc,1.06,1.05,-0.010000000000000009,edamame,833.6999999992549,834,834.1000000014901,True,u,134007.8999999985,1339.3999999985099,1657738882675,1339,HRV,HRV_0013,2022-07-13 15:04:16
71,"[{'imgObject': {}, 'id': 'avocado', 'src': '/static/foodstim60/avocado.jpg', 'key': 'u', 'origWidth': 409, 'origHeight': 409, 'width': 409, 'height': 409, 'widthPercent': 0.45, 'rescaleHeight': False, 'trialN': 71, 'loaded': True, 'loadedTime': 2593.5, 'positionName': 'LEFT', 'positionCoords': [512.6, 335.5], 'bid': 5.2}, {'imgObject': {}, 'id': 'ice cream sundae 002', 'src': '/static/foodstim60/ice cream sundae 002.jpg', 'key': 'i', 'origWidth': 409, 'origHeight': 409, 'width': 409, 'height': 409, 'widthPercent': 0.45, 'rescaleHeight': False, 'trialN': 71, 'loaded': True, 'loadedTime': 2855.800000000745, 'positionName': 'RIGHT', 'positionCoords': [998.4, 335.5], 'bid': 3.59}]",134008.1000000015,1657738882676,avocado,ice cream sundae 002,5.2,3.59,-1.6100000000000003,avocado,1280.5,1280,1280.8999999985099,True,u,135798.0,1789.8999999985099,1657738884465,1789,HRV,HRV_0013,2022-07-13 15:04:16
72,"[{'imgObject': {}, 'id': 'rigatoni', 'src': '/static/foodstim60/rigatoni.jpg', 'key': 'u', 'origWidth': 411, 'origHeight': 411, 'width': 411, 'height': 411, 'widthPercent': 0.45, 'rescaleHeight': False, 'trialN': 72, 'loaded': True, 'loadedTime': 2855.800000000745, 'positionName': 'LEFT', 'positionCoords': [510.6, 334.5], 'bid': 0.59}, {'imgObject': {}, 'id': 'Tribe humus pita', 'src': '/static/foodstim60/Tribe humus pita.jpg', 'key': 'i', 'origWidth': 411, 'origHeight': 411, 'width': 411, 'height': 411, 'widthPercent': 0.45, 'rescaleHeight': False, 'trialN': 72, 'loaded': True, 'loadedTime': 2859.800000000745, 'positionName': 'RIGHT', 'positionCoords': [998.4, 334.5], 'bid': 0.53}]",135798.19999999925,1657738884466,rigatoni,Tribe humus pita,0.59,0.53,-0.05999999999999994,Tribe humus pita,1521.199999999255,1521,1521.800000000745,True,i,137827.69999999925,2029.5,1657738886495,2029,HRV,HRV_0013,2022-07-13 15:04:16
73,"[{'imgObject': {}, 'id': 'cherry tomato', 'src': '/static/foodstim60/cherry tomato.jpg', 'key': 'u', 'origWidth': 410, 'origHeight': 410, 'width': 410, 'height': 410, 'widthPercent': 0.45, 'rescaleHeight': False, 'trialN': 73, 'loaded': True, 'loadedTime': 2552.699999999255, 'positionName': 'LEFT', 'positionCoords': [511.6, 335], 'bid': 0.68}, {'imgObject': {}, 'id': 'granola w milk', 'src': '/static/foodstim60/granola w milk.jpg', 'key': 'i', 'origWidth': 410, 'origHeight': 410, 'width': 410, 'height': 410, 'widthPercent': 0.45, 'rescaleHeight': False, 'trialN': 73, 'loaded': True, 'loadedTime': 2107.800000000745, 'positionName': 'RIGHT', 'positionCoords': [998.4, 335], 'bid': 0.88}]",137827.8999999985,1657738886495,cherry tomato,granola w milk,0.68,0.88,0.19999999999999996,granola w milk,950.6000000014901,952,951.2000000029802,True,i,139289.8999999985,1462.0,1657738887957,1462,HRV,HRV_0013,2022-07-13 15:04:16
74,"[{'imgObject': {}, 'id': 'baked potato', 'src': '/static/foodstim60/baked potato.jpg', 'key': 'u', 'origWidth': 409, 'origHeight': 410, 'width': 409, 'height': 410, 'widthPercent': 0.45, 'rescaleHeight': False, 'trialN': 74, 'loaded': True, 'loadedTime': 2773.699999999255, 'positionName': 'LEFT', 'positionCoords': [512.6, 335], 'bid': 0.77}, {'imgObject': {}, 'id': 'apple slices', 'src': '/static/foodstim60/apple slices.jpg', 'key': 'i', 'origWidth': 409, 'origHeight': 410, 'width': 409, 'height': 410, 'widthPercent': 0.45, 'rescaleHeight': False, 'trialN': 74, 'loaded': True, 'loadedTime': 2570.9000000003725, 'positionName': 'RIGHT', 'positionCoords': [998.4, 335], 'bid': 6.62}]",139290.30000000075,1657738887958,baked potato,apple slices,0.77,6.62,5.85,apple slices,639.0999999977648,639,639.5999999977648,True,i,140439.19999999925,1148.8999999985099,1657738889107,1149,HRV,HRV_0013,2022-07-13 15:04:16
75,"[{'imgObject': {}, 'id': 'mashed potato', 'src': '/static/foodstim60/mashed potato.jpg', 'key': 'u', 'origWidth': 409, 'origHeight': 409, 'width': 409, 'height': 409, 'widthPercent': 0.45, 'rescaleHeight': False, 'trialN': 75, 'loaded': True, 'loadedTime': 2892.9000000003725, 'positionName': 'LEFT', 'positionCoords': [512.6, 335.5], 'bid': 0.8}, {'imgObject': {}, 'id': 'edamame', 'src': '/static/foodstim60/edamame.jpg', 'key': 'i', 'origWidth': 409, 'origHeight': 410, 'width': 409, 'height': 410, 'widthPercent': 0.45, 'rescaleHeight': False, 'trialN': 75, 'loaded': True, 'loadedTime': 2758.199999999255, 'positionName': 'RIGHT', 'positionCoords': [998.4, 335], 'bid': 1.06}]",140439.5,1657738889107,mashed potato,edamame,0.8,1.06,0.26,edamame,1552,1553,1552.5,True,i,142493.5,2054.0,1657738891161,2054,HRV,HRV_0013,2022-07-13 15:04:16
76,"[{'imgObject': {}, 'id': 'hashbrowns', 'src': '/static/foodstim60/hashbrowns.jpg', 'key': 'u', 'origWidth': 411, 'origHeight': 410, 'width': 411, 'height': 410, 'widthPercent': 0.45, 'rescaleHeight': False, 'trialN': 76, 'loaded': True, 'loadedTime': 2803.5, 'positionName': 'LEFT', 'positionCoords': [510.6, 335], 'bid': 0.66}, {'imgObject': {}, 'id': 'cherry tomato', 'src': '/static/foodstim60/cherry tomato.jpg', 'key': 'i', 'origWidth': 410, 'origHeight': 410, 'width': 410, 'height': 410, 'widthPercent': 0.45, 'rescaleHeight': False, 'trialN': 76, 'loaded': True, 'loadedTime': 2551.300000000745, 'positionName': 'RIGHT', 'positionCoords': [998.4, 335], 'bid': 0.68}]",142493.80000000075,1657738891161,hashbrowns,cherry tomato,0.66,0.68,0.020000000000000018,cherry tomato,637.3999999985099,638,637.8999999985099,True,i,143647.3999999985,1153.5999999977648,1657738892315,1154,HRV,HRV_0013,2022-07-13 15:04:16
77,"[{'imgObject': {}, 'id': 'eggsalad', 'src': '/static/foodstim60/eggsalad.jpg', 'key': 'u', 'origWidth': 410, 'origHeight': 409, 'width': 410, 'height': 409, 'widthPercent': 0.45, 'rescaleHeight': False, 'trialN': 77, 'loaded': True, 'loadedTime': 2300.699999999255, 'positionName': 'LEFT', 'positionCoords': [511.6, 335.5], 'bid': 1.29}, {'imgObject': {}, 'id': 'tacos', 'src': '/static/foodstim60/tacos.jpg', 'key': 'i', 'origWidth': 411, 'origHeight': 411, 'width': 411, 'height': 411, 'widthPercent': 0.45, 'rescaleHeight': False, 'trialN': 77, 'loaded': True, 'loadedTime': 2484.0999999996275, 'positionName': 'RIGHT', 'positionCoords': [998.4, 334.5], 'bid': 1.28}]",143647.5,1657738892315,eggsalad,tacos,1.29,1.28,-0.010000000000000009,tacos,650.5,651,651.1999999992549,True,i,144814.1000000015,1166.6000000014901,1657738893482,1167,HRV,HRV_0013,2022-07-13 15:04:16
78,"[{'imgObject': {}, 'id': 'banana', 'src': '/static/foodstim60/banana.jpg', 'key': 'u', 'origWidth': 410, 'origHeight': 410, 'width': 410, 'height': 410, 'widthPercent': 0.45, 'rescaleHeight': False, 'trialN': 78, 'loaded': True, 'loadedTime': 1993, 'positionName': 'LEFT', 'positionCoords': [511.6, 335], 'bid': 7.69}, {'imgObject': {}, 'id': 'kiwi', 'src': '/static/foodstim60/kiwi.jpg', 'key': 'i', 'origWidth': 410, 'origHeight': 410, 'width': 410, 'height': 410, 'widthPercent': 0.45, 'rescaleHeight': False, 'trialN': 78, 'loaded': True, 'loadedTime': 2525.0999999996275, 'positionName': 'RIGHT', 'positionCoords': [998.4, 335], 'bid': 7.11}]",144814.30000000075,1657738893482,banana,kiwi,7.69,7.11,-0.5800000000000001,kiwi,682.3000000007451,682,682.6999999992549,True,i,146005.19999999925,1190.8999999985099,1657738894673,1191,HRV,HRV_0013,2022-07-13 15:04:16
79,"[{'imgObject': {}, 'id': 'cocktailshrimp', 'src': '/static/foodstim60/cocktailshrimp.jpg', 'key': 'u', 'origWidth': 410, 'origHeight': 410, 'width': 410, 'height': 410, 'widthPercent': 0.45, 'rescaleHeight': False, 'trialN': 79, 'loaded': True, 'loadedTime': 2457.4000000003725, 'positionName': 'LEFT', 'positionCoords': [511.6, 335], 'bid': 2.44}, {'imgObject': {}, 'id': 'fruitsalad', 'src': '/static/foodstim60/fruitsalad.jpg', 'key': 'i', 'origWidth': 410, 'origHeight': 410, 'width': 410, 'height': 410, 'widthPercent': 0.45, 'rescaleHeight': False, 'trialN': 79, 'loaded': True, 'loadedTime': 2774.699999999255, 'positionName': 'RIGHT', 'positionCoords': [998.4, 335], 'bid': 0.89}]",146005.5,1657738894673,cocktailshrimp,fruitsalad,2.44,0.89,-1.5499999999999998,fruitsalad,793.8000000007451,794,794.1999999992549,True,i,147309.80000000075,1304.300000000745,1657738895977,1304,HRV,HRV_0013,2022-07-13 15:04:16
80,"[{'imgObject': {}, 'id': 'turkeysandwich', 'src': '/static/foodstim60/turkeysandwich.jpg', 'key': 'u', 'origWidth': 409, 'origHeight': 409, 'width': 409, 'height': 409, 'widthPercent': 0.45, 'rescaleHeight': False, 'trialN': 80, 'loaded': True, 'loadedTime': 2184.699999999255, 'positionName': 'LEFT', 'positionCoords': [512.6, 335.5], 'bid': 0.66}, {'imgObject': {}, 'id': 'roastedpotatoes', 'src': '/static/foodstim60/roastedpotatoes.jpg', 'key': 'i', 'origWidth': 409, 'origHeight': 410, 'width': 409, 'height': 410, 'widthPercent': 0.45, 'rescaleHeight': False, 'trialN': 80, 'loaded': True, 'loadedTime': 2092, 'positionName': 'RIGHT', 'positionCoords': [998.4, 335], 'bid': 0.72}]",147310.0,1657738895977,turkeysandwich,roastedpotatoes,0.66,0.72,0.05999999999999994,roastedpotatoes,727.3999999985099,728,728.0,True,i,148538.8999999985,1228.8999999985099,1657738897206,1229,HRV,HRV_0013,2022-07-13 15:04:16
81,"[{'imgObject': {}, 'id': 'shreddedwheatwithmilk', 'src': '/static/foodstim60/shreddedwheatwithmilk.jpg', 'key': 'u', 'origWidth': 410, 'origHeight': 410, 'width': 410, 'height': 410, 'widthPercent': 0.45, 'rescaleHeight': False, 'trialN': 81, 'loaded': True, 'loadedTime': 2718.199999999255, 'positionName': 'LEFT', 'positionCoords': [511.6, 335], 'bid': 0.72}, {'imgObject': {}, 'id': 'steak', 'src': '/static/foodstim60/steak.jpg', 'key': 'i', 'origWidth': 410, 'origHeight': 410, 'width': 410, 'height': 410, 'widthPercent': 0.45, 'rescaleHeight': False, 'trialN': 81, 'loaded': True, 'loadedTime': 2181.0999999996275, 'positionName': 'RIGHT', 'positionCoords': [998.4, 335], 'bid': 0.76}]",148539.19999999925,1657738897207,shreddedwheatwithmilk,steak,0.72,0.76,0.040000000000000036,shreddedwheatwithmilk,811.8000000007451,812,812.1999999992549,True,u,149862.80000000075,1323.6000000014901,1657738898530,1323,HRV,HRV_0013,2022-07-13 15:04:16
82,"[{'imgObject': {}, 'id': 'fruitsalad', 'src': '/static/foodstim60/fruitsalad.jpg', 'key': 'u', 'origWidth': 410, 'origHeight': 410, 'width': 410, 'height': 410, 'widthPercent': 0.45, 'rescaleHeight': False, 'trialN': 82, 'loaded': True, 'loadedTime': 2774.4000000003725, 'positionName': 'LEFT', 'positionCoords': [511.6, 335], 'bid': 0.89}, {'imgObject': {}, 'id': 'cantaloupe', 'src': '/static/foodstim60/cantaloupe.jpg', 'key': 'i', 'origWidth': 409, 'origHeight': 409, 'width': 409, 'height': 409, 'widthPercent': 0.45, 'rescaleHeight': False, 'trialN': 82, 'loaded': True, 'loadedTime': 2890.800000000745, 'positionName': 'RIGHT', 'positionCoords': [998.4, 335.5], 'bid': 0.79}]",149862.8999999985,1657738898530,fruitsalad,cantaloupe,0.89,0.79,-0.09999999999999998,fruitsalad,1258,1259,1258.5,True,u,151636.30000000075,1773.4000000022352,1657738900304,1774,HRV,HRV_0013,2022-07-13 15:04:16
83,"[{'imgObject': {}, 'id': 'froot loops w milk', 'src': '/static/foodstim60/froot loops w milk.jpg', 'key': 'u', 'origWidth': 410, 'origHeight': 410, 'width': 410, 'height': 410, 'widthPercent': 0.45, 'rescaleHeight': False, 'trialN': 83, 'loaded': True, 'loadedTime': 2699.699999999255, 'positionName': 'LEFT', 'positionCoords': [511.6, 335], 'bid': 0.66}, {'imgObject': {}, 'id': 'chickenfingers', 'src': '/static/foodstim60/chickenfingers.jpg', 'key': 'i', 'origWidth': 410, 'origHeight': 410, 'width': 410, 'height': 410, 'widthPercent': 0.45, 'rescaleHeight': False, 'trialN': 83, 'loaded': True, 'loadedTime': 2429.4000000003725, 'positionName': 'RIGHT', 'positionCoords': [998.4, 335], 'bid': 0.41}]",151636.5,1657738900304,froot loops w milk,chickenfingers,0.66,0.41,-0.25000000000000006,froot loops w milk,624.3999999985099,625,625.0,True,u,152769.3999999985,1132.8999999985099,1657738901437,1133,HRV,HRV_0013,2022-07-13 15:04:16
84,"[{'imgObject': {}, 'id': 'fruitsalad', 'src': '/static/foodstim60/fruitsalad.jpg', 'key': 'u', 'origWidth': 410, 'origHeight': 410, 'width': 410, 'height': 410, 'widthPercent': 0.45, 'rescaleHeight': False, 'trialN': 84, 'loaded': True, 'loadedTime': 2774.699999999255, 'positionName': 'LEFT', 'positionCoords': [511.6, 335], 'bid': 0.89}, {'imgObject': {}, 'id': 'shreddedwheatwithmilk', 'src': '/static/foodstim60/shreddedwheatwithmilk.jpg', 'key': 'i', 'origWidth': 410, 'origHeight': 410, 'width': 410, 'height': 410, 'widthPercent': 0.45, 'rescaleHeight': False, 'trialN': 84, 'loaded': True, 'loadedTime': 2701.5999999996275, 'positionName': 'RIGHT', 'positionCoords': [998.4, 335], 'bid': 0.72}]",152769.6000000015,1657738901437,fruitsalad,shreddedwheatwithmilk,0.89,0.72,-0.17000000000000004,fruitsalad,695.0999999977648,696,695.6999999992549,True,u,153979.8999999985,1210.2999999970198,1657738902647,1210,HRV,HRV_0013,2022-07-13 15:04:16
85,"[{'imgObject': {}, 'id': 'sweetpotato', 'src': '/static/foodstim60/sweetpotato.jpg', 'key': 'u', 'origWidth': 410, 'origHeight': 410, 'width': 410, 'height': 410, 'widthPercent': 0.45, 'rescaleHeight': False, 'trialN': 85, 'loaded': True, 'loadedTime': 2648.5, 'positionName': 'LEFT', 'positionCoords': [511.6, 335], 'bid': 0.42}, {'imgObject': {}, 'id': 'luckycharms', 'src': '/static/foodstim60/luckycharms.jpg', 'key': 'i', 'origWidth': 410, 'origHeight': 409, 'width': 410, 'height': 409, 'widthPercent': 0.45, 'rescaleHeight': False, 'trialN': 85, 'loaded': True, 'loadedTime': 2408.699999999255, 'positionName': 'RIGHT', 'positionCoords': [998.4, 335.5], 'bid': 0.36}]",153980.0,1657738902647,sweetpotato,luckycharms,0.42,0.36,-0.06,sweetpotato,830.8000000007451,832,831.3999999985099,True,u,155317.3999999985,1337.3999999985099,1657738903985,1338,HRV,HRV_0013,2022-07-13 15:04:16
86,"[{'imgObject': {}, 'id': 'cherries', 'src': '/static/foodstim60/cherries.jpg', 'key': 'u', 'origWidth': 410, 'origHeight': 411, 'width': 410, 'height': 411, 'widthPercent': 0.45, 'rescaleHeight': False, 'trialN': 86, 'loaded': True, 'loadedTime': 2363.800000000745, 'positionName': 'LEFT', 'positionCoords': [511.6, 334.5], 'bid': 6.79}, {'imgObject': {}, 'id': 'sushi w_condiments', 'src': '/static/foodstim60/sushi w_condiments.jpg', 'key': 'i', 'origWidth': 410, 'origHeight': 410, 'width': 410, 'height': 410, 'widthPercent': 0.45, 'rescaleHeight': False, 'trialN': 86, 'loaded': True, 'loadedTime': 2463.4000000003725, 'positionName': 'RIGHT', 'positionCoords': [998.4, 335], 'bid': 1.2}]",155317.6000000015,1657738903985,cherries,sushi w_condiments,6.79,1.2,-5.59,cherries,693,693,693.3999999985099,True,u,156524.19999999925,1206.5999999977648,1657738905192,1207,HRV,HRV_0013,2022-07-13 15:04:16
87,"[{'imgObject': {}, 'id': 'salad w chicken', 'src': '/static/foodstim60/salad w chicken.jpg', 'key': 'u', 'origWidth': 411, 'origHeight': 411, 'width': 411, 'height': 411, 'widthPercent': 0.45, 'rescaleHeight': False, 'trialN': 87, 'loaded': True, 'loadedTime': 2075.0999999996275, 'positionName': 'LEFT', 'positionCoords': [510.6, 334.5], 'bid': 0.7000000000000001}, {'imgObject': {}, 'id': 'raspberries', 'src': '/static/foodstim60/raspberries.jpg', 'key': 'i', 'origWidth': 411, 'origHeight': 411, 'width': 411, 'height': 411, 'widthPercent': 0.45, 'rescaleHeight': False, 'trialN': 87, 'loaded': True, 'loadedTime': 2327.300000000745, 'positionName': 'RIGHT', 'positionCoords': [998.4, 334.5], 'bid': 5.5600000000000005}]",156524.3999999985,1657738905192,salad w chicken,raspberries,0.7000000000000001,5.5600000000000005,4.86,raspberries,779.1000000014901,779,779.5,True,i,157810.80000000075,1286.4000000022352,1657738906478,1286,HRV,HRV_0013,2022-07-13 15:04:16
88,"[{'imgObject': {}, 'id': 'froot loops w milk', 'src': '/static/foodstim60/froot loops w milk.jpg', 'key': 'u', 'origWidth': 410, 'origHeight': 410, 'width': 410, 'height': 410, 'widthPercent': 0.45, 'rescaleHeight': False, 'trialN': 88, 'loaded': True, 'loadedTime': 2666.4000000003725, 'positionName': 'LEFT', 'positionCoords': [511.6, 335], 'bid': 0.66}, {'imgObject': {}, 'id': 'popsicles', 'src': '/static/foodstim60/popsicles.jpg', 'key': 'i', 'origWidth': 410, 'origHeight': 410, 'width': 410, 'height': 410, 'widthPercent': 0.45, 'rescaleHeight': False, 'trialN': 88, 'loaded': True, 'loadedTime': 2890.699999999255, 'positionName': 'RIGHT', 'positionCoords': [998.4, 335], 'bid': 0.65}]",157811.0,1657738906478,froot loops w milk,popsicles,0.66,0.65,-0.010000000000000009,popsicles,2454.699999999255,2456,2455.300000000745,True,i,160781.69999999925,2970.699999999255,1657738909449,2971,HRV,HRV_0013,2022-07-13 15:04:16
89,"[{'imgObject': {}, 'id': 'eggsalad', 'src': '/static/foodstim60/eggsalad.jpg', 'key': 'u', 'origWidth': 410, 'origHeight': 409, 'width': 410, 'height': 409, 'widthPercent': 0.45, 'rescaleHeight': False, 'trialN': 89, 'loaded': True, 'loadedTime': 2297, 'positionName': 'LEFT', 'positionCoords': [511.6, 335.5], 'bid': 1.29}, {'imgObject': {}, 'id': 'Grapes', 'src': '/static/foodstim60/Grapes.jpg', 'key': 'i', 'origWidth': 411, 'origHeight': 411, 'width': 411, 'height': 411, 'widthPercent': 0.45, 'rescaleHeight': False, 'trialN': 89, 'loaded': True, 'loadedTime': 2805, 'positionName': 'RIGHT', 'positionCoords': [998.4, 334.5], 'bid': 7.11}]",160781.80000000075,1657738909449,eggsalad,Grapes,1.29,7.11,5.82,Grapes,739.3999999985099,740,740.0,True,i,162026.5,1244.699999999255,1657738910694,1245,HRV,HRV_0013,2022-07-13 15:04:16
90,"[{'imgObject': {}, 'id': 'rigatoni and sauce', 'src': '/static/foodstim60/rigatoni and sauce.jpg', 'key': 'u', 'origWidth': 410, 'origHeight': 411, 'width': 410, 'height': 411, 'widthPercent': 0.45, 'rescaleHeight': False, 'trialN': 90, 'loaded': True, 'loadedTime': 2209.0999999996275, 'positionName': 'LEFT', 'positionCoords': [511.6, 334.5], 'bid': 0.8}, {'imgObject': {}, 'id': 'froot loops w milk', 'src': '/static/foodstim60/froot loops w milk.jpg', 'key': 'i', 'origWidth': 410, 'origHeight': 410, 'width': 410, 'height': 410, 'widthPercent': 0.45, 'rescaleHeight': False, 'trialN': 90, 'loaded': True, 'loadedTime': 2684.0999999996275, 'positionName': 'RIGHT', 'positionCoords': [998.4, 335], 'bid': 0.66}]",165016.5,1657738913684,rigatoni and sauce,froot loops w milk,0.8,0.66,-0.14,froot loops w milk,863.8000000007451,864,864.3999999985099,True,i,166385.69999999925,1369.199999999255,1657738915053,1369,HRV,HRV_0013,2022-07-13 15:04:16
91,"[{'imgObject': {}, 'id': 'Grapes', 'src': '/static/foodstim60/Grapes.jpg', 'key': 'u', 'origWidth': 411, 'origHeight': 411, 'width': 411, 'height': 411, 'widthPercent': 0.45, 'rescaleHeight': False, 'trialN': 91, 'loaded': True, 'loadedTime': 2805.199999999255, 'positionName': 'LEFT', 'positionCoords': [510.6, 334.5], 'bid': 7.11}, {'imgObject': {}, 'id': 'apple slices', 'src': '/static/foodstim60/apple slices.jpg', 'key': 'i', 'origWidth': 409, 'origHeight': 410, 'width': 409, 'height': 410, 'widthPercent': 0.45, 'rescaleHeight': False, 'trialN': 91, 'loaded': True, 'loadedTime': 2570.800000000745, 'positionName': 'RIGHT', 'positionCoords': [998.4, 335], 'bid': 6.62}]",166386.0,1657738915053,Grapes,apple slices,7.11,6.62,-0.4900000000000002,Grapes,773.8999999985099,775,774.5,True,u,167675.6000000015,1289.6000000014901,1657738916343,1290,HRV,HRV_0013,2022-07-13 15:04:16
92,"[{'imgObject': {}, 'id': 'chicken nuggets2', 'src': '/static/foodstim60/chicken nuggets2.jpg', 'key': 'u', 'origWidth': 410, 'origHeight': 409, 'width': 410, 'height': 409, 'widthPercent': 0.45, 'rescaleHeight': False, 'trialN': 92, 'loaded': True, 'loadedTime': 2145.9000000003725, 'positionName': 'LEFT', 'positionCoords': [511.6, 335.5], 'bid': 0.77}, {'imgObject': {}, 'id': 'bagel plain', 'src': '/static/foodstim60/bagel plain.jpg', 'key': 'i', 'origWidth': 410, 'origHeight': 410, 'width': 410, 'height': 410, 'widthPercent': 0.45, 'rescaleHeight': False, 'trialN': 92, 'loaded': True, 'loadedTime': 2523.5, 'positionName': 'RIGHT', 'positionCoords': [998.4, 335], 'bid': 0.7000000000000001}]",167675.80000000075,1657738916343,chicken nuggets2,bagel plain,0.77,0.7000000000000001,-0.06999999999999995,bagel plain,1236.8999999985099,1238,1237.300000000745,True,i,169417.6000000015,1741.800000000745,1657738918085,1742,HRV,HRV_0013,2022-07-13 15:04:16
93,"[{'imgObject': {}, 'id': 'hashbrowns', 'src': '/static/foodstim60/hashbrowns.jpg', 'key': 'u', 'origWidth': 411, 'origHeight': 410, 'width': 411, 'height': 410, 'widthPercent': 0.45, 'rescaleHeight': False, 'trialN': 93, 'loaded': True, 'loadedTime': 2803.9000000003725, 'positionName': 'LEFT', 'positionCoords': [510.6, 335], 'bid': 0.66}, {'imgObject': {}, 'id': 'turkeysandwich', 'src': '/static/foodstim60/turkeysandwich.jpg', 'key': 'i', 'origWidth': 409, 'origHeight': 409, 'width': 409, 'height': 409, 'widthPercent': 0.45, 'rescaleHeight': False, 'trialN': 93, 'loaded': True, 'loadedTime': 2184.800000000745, 'positionName': 'RIGHT', 'positionCoords': [998.4, 335.5], 'bid': 0.66}]",169417.80000000075,1657738918085,hashbrowns,turkeysandwich,0.66,0.66,0.0,turkeysandwich,1483.300000000745,1484,1483.800000000745,True,i,171410.6000000015,1992.800000000745,1657738920078,1993,HRV,HRV_0013,2022-07-13 15:04:16
94,"[{'imgObject': {}, 'id': 'fried eggs', 'src': '/static/foodstim60/fried eggs.jpg', 'key': 'u', 'origWidth': 410, 'origHeight': 410, 'width': 410, 'height': 410, 'widthPercent': 0.45, 'rescaleHeight': False, 'trialN': 94, 'loaded': True, 'loadedTime': 2531.5999999996275, 'positionName': 'LEFT', 'positionCoords': [511.6, 335], 'bid': 1.97}, {'imgObject': {}, 'id': 'ice cream sundae 002', 'src': '/static/foodstim60/ice cream sundae 002.jpg', 'key': 'i', 'origWidth': 409, 'origHeight': 409, 'width': 409, 'height': 409, 'widthPercent': 0.45, 'rescaleHeight': False, 'trialN': 94, 'loaded': True, 'loadedTime': 2855.5, 'positionName': 'RIGHT', 'positionCoords': [998.4, 335.5], 'bid': 3.59}]",171410.8999999985,1657738920078,fried eggs,ice cream sundae 002,1.97,3.59,1.6199999999999999,fried eggs,816.1000000014901,817,816.5,True,u,172732.3999999985,1321.5,1657738921400,1322,HRV,HRV_0013,2022-07-13 15:04:16
95,"[{'imgObject': {}, 'id': 'raspberries', 'src': '/static/foodstim60/raspberries.jpg', 'key': 'u', 'origWidth': 411, 'origHeight': 411, 'width': 411, 'height': 411, 'widthPercent': 0.45, 'rescaleHeight': False, 'trialN': 95, 'loaded': True, 'loadedTime': 2343.699999999255, 'positionName': 'LEFT', 'positionCoords': [510.6, 334.5], 'bid': 5.5600000000000005}, {'imgObject': {}, 'id': 'orange slices', 'src': '/static/foodstim60/orange slices.jpg', 'key': 'i', 'origWidth': 409, 'origHeight': 410, 'width': 409, 'height': 410, 'widthPercent': 0.45, 'rescaleHeight': False, 'trialN': 95, 'loaded': True, 'loadedTime': 2649.4000000003725, 'positionName': 'RIGHT', 'positionCoords': [998.4, 335], 'bid': 6.78}]",172732.6000000015,1657738921400,raspberries,orange slices,5.5600000000000005,6.78,1.2199999999999998,raspberries,1480.199999999255,1481,1480.7999999970198,True,u,174718.30000000075,1985.699999999255,1657738923386,1986,HRV,HRV_0013,2022-07-13 15:04:16
96,"[{'imgObject': {}, 'id': 'popsicles', 'src': '/static/foodstim60/popsicles.jpg', 'key': 'u', 'origWidth': 410, 'origHeight': 410, 'width': 410, 'height': 410, 'widthPercent': 0.45, 'rescaleHeight': False, 'trialN': 96, 'loaded': True, 'loadedTime': 2861.5, 'positionName': 'LEFT', 'positionCoords': [511.6, 335], 'bid': 0.65}, {'imgObject': {}, 'id': 'luckycharms', 'src': '/static/foodstim60/luckycharms.jpg', 'key': 'i', 'origWidth': 410, 'origHeight': 409, 'width': 410, 'height': 409, 'widthPercent': 0.45, 'rescaleHeight': False, 'trialN': 96, 'loaded': True, 'loadedTime': 2408.5, 'positionName': 'RIGHT', 'positionCoords': [998.4, 335.5], 'bid': 0.36}]",174718.5,1657738923386,popsicles,luckycharms,0.65,0.36,-0.29000000000000004,popsicles,804.5,805,804.8999999985099,True,u,176037.6000000015,1319.1000000014901,1657738924705,1319,HRV,HRV_0013,2022-07-13 15:04:16
97,"[{'imgObject': {}, 'id': 'granola w milk', 'src': '/static/foodstim60/granola w milk.jpg', 'key': 'u', 'origWidth': 410, 'origHeight': 410, 'width': 410, 'height': 410, 'widthPercent': 0.45, 'rescaleHeight': False, 'trialN': 97, 'loaded': True, 'loadedTime': 2128, 'positionName': 'LEFT', 'positionCoords': [511.6, 335], 'bid': 0.88}, {'imgObject': {}, 'id': 'edamame', 'src': '/static/foodstim60/edamame.jpg', 'key': 'i', 'origWidth': 409, 'origHeight': 410, 'width': 409, 'height': 410, 'widthPercent': 0.45, 'rescaleHeight': False, 'trialN': 97, 'loaded': True, 'loadedTime': 2757, 'positionName': 'RIGHT', 'positionCoords': [998.4, 335], 'bid': 1.06}]",176037.8999999985,1657738924705,granola w milk,edamame,0.88,1.06,0.18000000000000005,granola w milk,893.9000000022352,895,894.5,True,u,177436.69999999925,1398.800000000745,1657738926104,1399,HRV,HRV_0013,2022-07-13 15:04:16
98,"[{'imgObject': {}, 'id': 'roastedpotatoes', 'src': '/static/foodstim60/roastedpotatoes.jpg', 'key': 'u', 'origWidth': 409, 'origHeight': 410, 'width': 409, 'height': 410, 'widthPercent': 0.45, 'rescaleHeight': False, 'trialN': 98, 'loaded': True, 'loadedTime': 2076.0999999996275, 'positionName': 'LEFT', 'positionCoords': [512.6, 335], 'bid': 0.72}, {'imgObject': {}, 'id': 'burrito', 'src': '/static/foodstim60/burrito.jpg', 'key': 'i', 'origWidth': 410, 'origHeight': 410, 'width': 410, 'height': 410, 'widthPercent': 0.45, 'rescaleHeight': False, 'trialN': 98, 'loaded': True, 'loadedTime': 2700.9000000003725, 'positionName': 'RIGHT', 'positionCoords': [998.4, 335], 'bid': 0.64}]",177436.80000000075,1657738926104,roastedpotatoes,burrito,0.72,0.64,-0.07999999999999996,roastedpotatoes,952.8999999985099,954,953.3999999985099,True,u,178899.5,1462.699999999255,1657738927567,1463,HRV,HRV_0013,2022-07-13 15:04:16
99,"[{'imgObject': {}, 'id': 'chickenfingers', 'src': '/static/foodstim60/chickenfingers.jpg', 'key': 'u', 'origWidth': 410, 'origHeight': 410, 'width': 410, 'height': 410, 'widthPercent': 0.45, 'rescaleHeight': False, 'trialN': 99, 'loaded': True, 'loadedTime': 2427.699999999255, 'positionName': 'LEFT', 'positionCoords': [511.6, 335], 'bid': 0.41}, {'imgObject': {}, 'id': 'veggieswithdip', 'src': '/static/foodstim60/veggieswithdip.jpg', 'key': 'i', 'origWidth': 409, 'origHeight': 409, 'width': 409, 'height': 409, 'widthPercent': 0.45, 'rescaleHeight': False, 'trialN': 99, 'loaded': True, 'loadedTime': 2520.4000000003725, 'positionName': 'RIGHT', 'positionCoords': [998.4, 335.5], 'bid': 0.62}]",178899.69999999925,1657738927567,chickenfingers,veggieswithdip,0.41,0.62,0.21000000000000002,veggieswithdip,1344,1345,1344.5,True,i,180746.69999999925,1847.0,1657738929414,1847,HRV,HRV_0013,2022-07-13 15:04:16
100,"[{'imgObject': {}, 'id': 'bagel and cc', 'src': '/static/foodstim60/bagel and cc.jpg', 'key': 'u', 'origWidth': 410, 'origHeight': 410, 'width': 410, 'height': 410, 'widthPercent': 0.45, 'rescaleHeight': False, 'trialN': 100, 'loaded': True, 'loadedTime': 2802.0999999996275, 'positionName': 'LEFT', 'positionCoords': [511.6, 335], 'bid': 1.05}, {'imgObject': {}, 'id': 'mango', 'src': '/static/foodstim60/mango.jpg', 'key': 'i', 'origWidth': 411, 'origHeight': 411, 'width': 411, 'height': 411, 'widthPercent': 0.45, 'rescaleHeight': False, 'trialN': 100, 'loaded': True, 'loadedTime': 2362.5, 'positionName': 'RIGHT', 'positionCoords': [998.4, 334.5], 'bid': 5.62}]",180746.8999999985,1657738929414,bagel and cc,mango,1.05,5.62,4.57,mango,870.2000000029802,871,870.8000000007451,True,i,182132.19999999925,1385.300000000745,1657738930800,1386,HRV,HRV_0013,2022-07-13 15:04:16
101,"[{'imgObject': {}, 'id': 'fruitsalad', 'src': '/static/foodstim60/fruitsalad.jpg', 'key': 'u', 'origWidth': 410, 'origHeight': 410, 'width': 410, 'height': 410, 'widthPercent': 0.45, 'rescaleHeight': False, 'trialN': 101, 'loaded': True, 'loadedTime': 2774.5999999996275, 'positionName': 'LEFT', 'positionCoords': [511.6, 335], 'bid': 0.89}, {'imgObject': {}, 'id': 'olives', 'src': '/static/foodstim60/olives.jpg', 'key': 'i', 'origWidth': 410, 'origHeight': 410, 'width': 410, 'height': 410, 'widthPercent': 0.45, 'rescaleHeight': False, 'trialN': 101, 'loaded': True, 'loadedTime': 1954.300000000745, 'positionName': 'RIGHT', 'positionCoords': [998.4, 335], 'bid': 0.88}]",182132.3999999985,1657738930800,fruitsalad,olives,0.89,0.88,-0.010000000000000009,fruitsalad,600.4000000022352,601,600.8000000007451,True,u,183246.69999999925,1114.300000000745,1657738931914,1114,HRV,HRV_0013,2022-07-13 15:04:16
102,"[{'imgObject': {}, 'id': 'salmon', 'src': '/static/foodstim60/salmon.jpg', 'key': 'u', 'origWidth': 410, 'origHeight': 409, 'width': 410, 'height': 409, 'widthPercent': 0.45, 'rescaleHeight': False, 'trialN': 102, 'loaded': True, 'loadedTime': 2375.199999999255, 'positionName': 'LEFT', 'positionCoords': [511.6, 335.5], 'bid': 1.13}, {'imgObject': {}, 'id': 'burrito', 'src': '/static/foodstim60/burrito.jpg', 'key': 'i', 'origWidth': 410, 'origHeight': 410, 'width': 410, 'height': 410, 'widthPercent': 0.45, 'rescaleHeight': False, 'trialN': 102, 'loaded': True, 'loadedTime': 2700.9000000003725, 'positionName': 'RIGHT', 'positionCoords': [998.4, 335], 'bid': 0.64}]",183246.8999999985,1657738931914,salmon,burrito,1.13,0.64,-0.4899999999999999,salmon,811.9000000022352,813,812.5,True,u,184564.5,1317.6000000014901,1657738933232,1318,HRV,HRV_0013,2022-07-13 15:04:16
103,"[{'imgObject': {}, 'id': 'mango', 'src': '/static/foodstim60/mango.jpg', 'key': 'u', 'origWidth': 411, 'origHeight': 411, 'width': 411, 'height': 411, 'widthPercent': 0.45, 'rescaleHeight': False, 'trialN': 103, 'loaded': True, 'loadedTime': 2362.5, 'positionName': 'LEFT', 'positionCoords': [510.6, 334.5], 'bid': 5.62}, {'imgObject': {}, 'id': 'banana', 'src': '/static/foodstim60/banana.jpg', 'key': 'i', 'origWidth': 410, 'origHeight': 410, 'width': 410, 'height': 410, 'widthPercent': 0.45, 'rescaleHeight': False, 'trialN': 103, 'loaded': True, 'loadedTime': 1994.0999999996275, 'positionName': 'RIGHT', 'positionCoords': [998.4, 335], 'bid': 7.69}]",184564.6000000015,1657738933232,mango,banana,5.62,7.69,2.0700000000000003,banana,901,902,901.5,True,i,185973.19999999925,1408.5999999977648,1657738934641,1409,HRV,HRV_0013,2022-07-13 15:04:16
104,"[{'imgObject': {}, 'id': 'orange slices', 'src': '/static/foodstim60/orange slices.jpg', 'key': 'u', 'origWidth': 409, 'origHeight': 410, 'width': 409, 'height': 410, 'widthPercent': 0.45, 'rescaleHeight': False, 'trialN': 104, 'loaded': True, 'loadedTime': 2649.199999999255, 'positionName': 'LEFT', 'positionCoords': [512.6, 335], 'bid': 6.78}, {'imgObject': {}, 'id': 'cantaloupe', 'src': '/static/foodstim60/cantaloupe.jpg', 'key': 'i', 'origWidth': 409, 'origHeight': 409, 'width': 409, 'height': 409, 'widthPercent': 0.45, 'rescaleHeight': False, 'trialN': 104, 'loaded': True, 'loadedTime': 2892, 'positionName': 'RIGHT', 'positionCoords': [998.4, 335.5], 'bid': 0.79}]",185973.5,1657738934641,orange slices,cantaloupe,6.78,0.79,-5.99,orange slices,1152,1153,1152.6000000014901,True,u,187633.0,1659.5,1657738936300,1659,HRV,HRV_0013,2022-07-13 15:04:16
105,"[{'imgObject': {}, 'id': 'corn cob', 'src': '/static/foodstim60/corn cob.jpg', 'key': 'u', 'origWidth': 411, 'origHeight': 411, 'width': 411, 'height': 411, 'widthPercent': 0.45, 'rescaleHeight': False, 'trialN': 105, 'loaded': True, 'loadedTime': 2757, 'positionName': 'LEFT', 'positionCoords': [510.6, 334.5], 'bid': 1.2}, {'imgObject': {}, 'id': 'sushi w_condiments', 'src': '/static/foodstim60/sushi w_condiments.jpg', 'key': 'i', 'origWidth': 410, 'origHeight': 410, 'width': 410, 'height': 410, 'widthPercent': 0.45, 'rescaleHeight': False, 'trialN': 105, 'loaded': True, 'loadedTime': 2465.300000000745, 'positionName': 'RIGHT', 'positionCoords': [998.4, 335], 'bid': 1.2}]",187633.19999999925,1657738936301,corn cob,sushi w_condiments,1.2,1.2,0.0,corn cob,822.1999999992549,823,822.6999999992549,True,u,188969.80000000075,1336.6000000014901,1657738937638,1337,HRV,HRV_0013,2022-07-13 15:04:16
106,"[{'imgObject': {}, 'id': 'lox', 'src': '/static/foodstim60/lox.jpg', 'key': 'u', 'origWidth': 410, 'origHeight': 411, 'width': 410, 'height': 411, 'widthPercent': 0.45, 'rescaleHeight': False, 'trialN': 106, 'loaded': True, 'loadedTime': 2458.5, 'positionName': 'LEFT', 'positionCoords': [511.6, 334.5], 'bid': 0.68}, {'imgObject': {}, 'id': 'steak', 'src': '/static/foodstim60/steak.jpg', 'key': 'i', 'origWidth': 410, 'origHeight': 410, 'width': 410, 'height': 410, 'widthPercent': 0.45, 'rescaleHeight': False, 'trialN': 106, 'loaded': True, 'loadedTime': 2179.4000000003725, 'positionName': 'RIGHT', 'positionCoords': [998.4, 335], 'bid': 0.76}]",188970.1000000015,1657738937638,lox,steak,0.68,0.76,0.07999999999999996,steak,1572.7999999970198,1573,1573.3999999985099,True,i,191059.19999999925,2089.099999997765,1657738939727,2089,HRV,HRV_0013,2022-07-13 15:04:16
107,"[{'imgObject': {}, 'id': 'fried eggs', 'src': '/static/foodstim60/fried eggs.jpg', 'key': 'u', 'origWidth': 410, 'origHeight': 410, 'width': 410, 'height': 410, 'widthPercent': 0.45, 'rescaleHeight': False, 'trialN': 107, 'loaded': True, 'loadedTime': 2532, 'positionName': 'LEFT', 'positionCoords': [511.6, 335], 'bid': 1.97}, {'imgObject': {}, 'id': 'cocktailshrimp', 'src': '/static/foodstim60/cocktailshrimp.jpg', 'key': 'i', 'origWidth': 410, 'origHeight': 410, 'width': 410, 'height': 410, 'widthPercent': 0.45, 'rescaleHeight': False, 'trialN': 107, 'loaded': True, 'loadedTime': 2455.9000000003725, 'positionName': 'RIGHT', 'positionCoords': [998.4, 335], 'bid': 2.44}]",191059.30000000075,1657738939727,fried eggs,cocktailshrimp,1.97,2.44,0.47,fried eggs,3286.39999999851,3287,3287.099999997765,True,u,194849.6000000015,3790.300000000745,1657738943518,3791,HRV,HRV_0013,2022-07-13 15:04:16
108,"[{'imgObject': {}, 'id': 'cantaloupe', 'src': '/static/foodstim60/cantaloupe.jpg', 'key': 'u', 'origWidth': 409, 'origHeight': 409, 'width': 409, 'height': 409, 'widthPercent': 0.45, 'rescaleHeight': False, 'trialN': 108, 'loaded': True, 'loadedTime': 2891.699999999255, 'positionName': 'LEFT', 'positionCoords': [512.6, 335.5], 'bid': 0.79}, {'imgObject': {}, 'id': 'rigatoni and sauce', 'src': '/static/foodstim60/rigatoni and sauce.jpg', 'key': 'i', 'origWidth': 410, 'origHeight': 411, 'width': 410, 'height': 411, 'widthPercent': 0.45, 'rescaleHeight': False, 'trialN': 108, 'loaded': True, 'loadedTime': 2208.800000000745, 'positionName': 'RIGHT', 'positionCoords': [998.4, 334.5], 'bid': 0.8}]",194849.80000000075,1657738943518,cantaloupe,rigatoni and sauce,0.79,0.8,0.010000000000000009,cantaloupe,848.3000000007451,849,848.8999999985099,True,u,196205.80000000075,1356.0,1657738944874,1356,HRV,HRV_0013,2022-07-13 15:04:16
109,"[{'imgObject': {}, 'id': 'lox', 'src': '/static/foodstim60/lox.jpg', 'key': 'u', 'origWidth': 410, 'origHeight': 411, 'width': 410, 'height': 411, 'widthPercent': 0.45, 'rescaleHeight': False, 'trialN': 109, 'loaded': True, 'loadedTime': 2462.5, 'positionName': 'LEFT', 'positionCoords': [511.6, 334.5], 'bid': 0.68}, {'imgObject': {}, 'id': 'luckycharms', 'src': '/static/foodstim60/luckycharms.jpg', 'key': 'i', 'origWidth': 410, 'origHeight': 409, 'width': 410, 'height': 409, 'widthPercent': 0.45, 'rescaleHeight': False, 'trialN': 109, 'loaded': True, 'loadedTime': 2393, 'positionName': 'RIGHT', 'positionCoords': [998.4, 335.5], 'bid': 0.36}]",196206.0,1657738944874,lox,luckycharms,0.68,0.36,-0.32000000000000006,luckycharms,659.1000000014901,660,659.6999999992549,True,i,197368.5,1162.5,1657738946036,1162,HRV,HRV_0013,2022-07-13 15:04:16
