success,trial_type,trial_index,time_elapsed,internal_node_id,Block,TrialNumber,TrialTime,trialTimeDiff,FPS_avg,FPS_med,FPS_mode,TrialDur,winResizeTime,rt,block,button_pressed,missTrial,missTrialMsg,MotCoh,MotDir,ColCoh,Color,ChoiceKey,Choice,Accuracy,RT,nFrames,FPS,PPD,onsetDelay,fullScreenExitTime,canvCenter,TrialType,Score,BlockTrial,stimulus,button_labels,exp,subjectId,date
True,fullscreen,0,4766,0.0-0.0,0.0,1.0,,,,,,,,,,,,,,,,,,,,,,,,,,,,,,,,HRV,HRV_0060,2022-11-30 18:06:20
,wl-check-fps,1,9761,0.0-1.0,0.0,2.0,"[6291.8, 6292.9, 6308.8, 6325.1, 6341.9, 6358.5, 6375.4, 6391.9, 6408.5, 6426, 6441.8, 6458.5, 6475.4, 6491.7, 6508.4, 6525.1, 6541.8, 6558.4, 6575.1, 6591.8, 6608.5, 6625.1, 6641.8, 6658.6, 6675.2, 6691.9, 6708.4, 6725.2, 6741.9, 6758.5, 6775.1, 6791.9, 6808.5, 6825.1, 6841.9, 6858.5, 6875.1, 6891.9, 6908.5, 6925.2, 6941.9, 6958.5, 6975.2, 6991.9, 7008.5, 7025.2, 7041.9, 7058.5, 7075.2, 7091.9, 7108.6, 7125.3, 7142, 7158.5, 7175.3, 7191.9, 7208.5, 7225.3, 7241.9, 7258.6, 7275.2, 7291.9, 7308.5, 7325.3, 7341.9, 7358.6, 7375.3, 7392, 7408.7, 7425.3, 7441.9, 7458.6, 7475.2, 7491.9, 7508.6, 7525.3, 7542, 7558.7, 7575.3, 7592, 7608.7, 7625.3, 7642, 7658.7, 7675.4, 7692.1, 7708.7, 7725.3, 7742, 7758.7, 7775.4, 7792.1, 7808.7, 7825.4, 7842.1, 7858.7, 7875.4, 7892.1, 7908.7, 7925.4, 7942.1, 7958.8, 7975.3, 7992.1, 8008.7, 8025.4, 8042.2, 8058.8, 8075.4, 8092.1, 8108.7, 8125.5, 8142.2, 8158.9, 8175.5, 8192.1, 8208.8, 8225.5, 8242.2, 8258.8, 8275.5, 8292.2, 8308.9, 8325.4, 8342.1, 8358.8, 8375.5, 8392.2, 8408.9, 8425.5, 8442.2, 8458.8, 8475.5, 8492.2, 8508.9, 8525.5, 8542.4, 8558.9, 8575.8, 8592.5, 8609.1, 8625.9, 8642.6, 8661.1, 8676, 8692.5, 8709.2, 8725.8, 8742.5, 8759.1, 8775.9, 8792.5, 8809.3, 8825.9, 8842.6, 8859.2, 8875.9, 8892.5, 8909.2, 8926.6, 8942.6, 8959.2, 8976, 8992.6, 9009.2, 9026, 9042.6, 9059.2, 9076, 9092.6, 9109.3, 9125.9, 9142.6, 9159.3, 9175.9, 9192.7, 9209.3, 9226, 9242.7, 9259.3, 9276, 9292.7, 9309.4, 9326, 9342.6, 9359.3, 9376.1, 9392.7, 9409.3, 9426, 9442.7, 9459.4, 9476.1, 9492.6, 9509.4, 9526.1, 9543.1, 9559.4, 9576.1, 9592.7, 9609.4, 9626, 9642.7, 9659.9, 9676, 9692.5, 9709.2, 9725.9, 9742.8, 9759.4, 9776.1, 9792.8, 9809.4, 9826.2, 9842.8, 9859.5, 9876.1, 9892.8, 9909.6, 9926.7, 9942.9, 9959.8, 9977, 9992.9, 10009.6, 10026.8, 10042.8, 10059.6, 10076, 10092.5, 10109.2, 10126, 10142.9, 10159.2, 10175.9, 10192.6, 10209.3, 10226.9, 10242.6, 10259.3, 10276.1, 10292.6, 10309.3, 10326, 10342.9, 10359.3, 10377.4, 10393.2, 10409.8, 10426.6, 10443.1, 10460.2, 10476.7, 10492.9, 10509.7, 10527.3, 10543.1, 10559.4, 10576, 10593, 10609.4, 10626, 10642.7, 10659.5, 10676.1, 10692.8, 10709.4, 10726, 10742.8, 10759.5, 10776.1, 10792.8, 10809.4, 10826.1, 10842.8, 10859.4, 10876.1, 10892.8, 10909.5, 10926.2, 10942.8, 10959.5, 10976.1, 10992.8, 11009.5, 11026.1, 11042.8, 11059.4, 11076.2, 11092.8, 11109.4, 11126.1, 11142.8, 11159.5, 11176.2, 11192.8, 11209.6, 11226.2, 11242.9, 11259.5]","[2.9, 1.1, 15.9, 16.3, 16.8, 16.6, 16.9, 16.5, 16.6, 17.5, 15.8, 16.7, 16.9, 16.3, 16.7, 16.7, 16.7, 16.6, 16.7, 16.7, 16.7, 16.6, 16.7, 16.8, 16.6, 16.7, 16.5, 16.8, 16.7, 16.6, 16.6, 16.8, 16.6, 16.6, 16.8, 16.6, 16.6, 16.8, 16.6, 16.7, 16.7, 16.6, 16.7, 16.7, 16.6, 16.7, 16.7, 16.6, 16.7, 16.7, 16.7, 16.7, 16.7, 16.5, 16.8, 16.6, 16.6, 16.8, 16.6, 16.7, 16.6, 16.7, 16.6, 16.8, 16.6, 16.7, 16.7, 16.7, 16.7, 16.6, 16.6, 16.7, 16.6, 16.7, 16.7, 16.7, 16.7, 16.7, 16.6, 16.7, 16.7, 16.6, 16.7, 16.7, 16.7, 16.7, 16.6, 16.6, 16.7, 16.7, 16.7, 16.7, 16.6, 16.7, 16.7, 16.6, 16.7, 16.7, 16.6, 16.7, 16.7, 16.7, 16.5, 16.8, 16.6, 16.7, 16.8, 16.6, 16.6, 16.7, 16.6, 16.8, 16.7, 16.7, 16.6, 16.6, 16.7, 16.7, 16.7, 16.6, 16.7, 16.7, 16.7, 16.5, 16.7, 16.7, 16.7, 16.7, 16.7, 16.6, 16.7, 16.6, 16.7, 16.7, 16.7, 16.6, 16.9, 16.5, 16.9, 16.7, 16.6, 16.8, 16.7, 18.5, 14.9, 16.5, 16.7, 16.6, 16.7, 16.6, 16.8, 16.6, 16.8, 16.6, 16.7, 16.6, 16.7, 16.6, 16.7, 17.4, 16, 16.6, 16.8, 16.6, 16.6, 16.8, 16.6, 16.6, 16.8, 16.6, 16.7, 16.6, 16.7, 16.7, 16.6, 16.8, 16.6, 16.7, 16.7, 16.6, 16.7, 16.7, 16.7, 16.6, 16.6, 16.7, 16.8, 16.6, 16.6, 16.7, 16.7, 16.7, 16.7, 16.5, 16.8, 16.7, 17, 16.3, 16.7, 16.6, 16.7, 16.6, 16.7, 17.2, 16.1, 16.5, 16.7, 16.7, 16.9, 16.6, 16.7, 16.7, 16.6, 16.8, 16.6, 16.7, 16.6, 16.7, 16.8, 17.1, 16.2, 16.9, 17.2, 15.9, 16.7, 17.2, 16, 16.8, 16.4, 16.5, 16.7, 16.8, 16.9, 16.3, 16.7, 16.7, 16.7, 17.6, 15.7, 16.7, 16.8, 16.5, 16.7, 16.7, 16.9, 16.4, 18.1, 15.8, 16.6, 16.8, 16.5, 17.1, 16.5, 16.2, 16.8, 17.6, 15.8, 16.3, 16.6, 17, 16.4, 16.6, 16.7, 16.8, 16.6, 16.7, 16.6, 16.6, 16.8, 16.7, 16.6, 16.7, 16.6, 16.7, 16.7, 16.6, 16.7, 16.7, 16.7, 16.7, 16.6, 16.7, 16.6, 16.7, 16.7, 16.6, 16.7, 16.6, 16.8, 16.6, 16.6, 16.7, 16.7, 16.7, 16.7, 16.6, 16.8, 16.6, 16.7, 16.6]",60.0,60.0,60.0,4987.8,[],,,,,,,,,,,,,,,,,,,,,,,,,HRV,HRV_0060,2022-11-30 18:06:20
,wl-html-keyboard-response,2,29350,0.0-2.0-0.0,0.0,2.0,,,,,,,,17568.300000000745,0.0,0,True,undefinedblurEvent ,,,,,,,,,,,,,,,,,,,,HRV,HRV_0060,2022-11-30 18:06:20
,wl-rdm,3,42814,0.0-3.0-0.0,0.0,3.0,,,,,,,[],,,,False,,0.0,0.0,87.9,0.0,u,0.0,True,7876.10000000149,471.0,60.0,40.0,3000.0,[],"[640, 360]",ColorTask_Demo,,,,,HRV,HRV_0060,2022-11-30 18:06:20
,wl-rdm,4,48582,0.0-3.0-1.0,0.0,4.0,,,,,,,[],,,,False,,0.0,0.0,87.9,1.0,i,1.0,True,1694.7000000011176,102.0,60.0,40.0,2000.0,[],"[640, 360]",ColorTask_Demo,,,,,HRV,HRV_0060,2022-11-30 18:06:20
,wl-html-keyboard-response,5,57093,0.0-3.0-2.0,0.0,5.0,,,,,,,,6504.5999999996275,0.0,1,,,,,,,,,,,,,,,,,,,,,,HRV,HRV_0060,2022-11-30 18:06:20
,wl-html-keyboard-response,6,70837,0.0-4.0-0.0,0.0,6.0,,,,,,,,11732.900000000373,0.0,0,,,,,,,,,,,,,,,,,,,,,,HRV,HRV_0060,2022-11-30 18:06:20
,wl-html-keyboard-response,7,85493,0.0-5.0-0.0,0.0,7.0,,,,,,,,12646.900000000373,0.0,0,,,,,,,,,,,,,,,,,,,,,,HRV,HRV_0060,2022-11-30 18:06:20
,wl-rdm,8,88122,0.0-6.0-0.0,0.0,8.0,,,,,,,[],,,,False,,,,73.6,1.0,i,1.0,True,1281.4000000003725,77.0,60.0,40.0,276.2104994772823,[],"[640, 360]",ColorTask,1.0,1.0,,,HRV,HRV_0060,2022-11-30 18:06:20
,wl-rdm,9,91156,0.0-6.1-0.1,0.0,9.0,,,,,,,[],,,,False,,,,53.2,0.0,u,0.0,True,1677.1000000014901,101.0,60.0,40.0,297.77340125641024,[],"[640, 360]",ColorTask,2.0,2.0,,,HRV,HRV_0060,2022-11-30 18:06:20
,wl-rdm,10,94440,0.0-6.2-0.2,0.0,10.0,,,,,,,[],,,,False,,,,56.4,0.0,i,1.0,False,1983.4000000003725,119.0,60.0,40.0,222.14623379685636,[],"[640, 360]",ColorTask,1.0,3.0,,,HRV,HRV_0060,2022-11-30 18:06:20
,wl-rdm,11,96658,0.0-6.3-0.3,0.0,11.0,,,,,,,[],,,,False,,,,73.6,0.0,u,0.0,True,902.6999999992549,55.0,60.0,40.0,246.69602941868166,[],"[640, 360]",ColorTask,2.0,4.0,,,HRV,HRV_0060,2022-11-30 18:06:20
,wl-rdm,12,99658,0.0-6.4-0.4,0.0,12.0,,,,,,,[],,,,False,,,,56.4,1.0,i,1.0,True,1621.5999999996275,98.0,60.0,40.0,285.18527451015257,[],"[640, 360]",ColorTask,3.0,5.0,,,HRV,HRV_0060,2022-11-30 18:06:20
,wl-rdm,13,101975,0.0-6.5-0.5,0.0,13.0,,,,,,,[],,,,False,,,,62.5,1.0,i,1.0,True,997.8999999985099,60.0,60.0,40.0,262.2974156803403,[],"[640, 360]",ColorTask,4.0,6.0,,,HRV,HRV_0060,2022-11-30 18:06:20
,wl-rdm,14,104209,0.0-6.6-0.6,0.0,14.0,,,,,,,[],,,,False,,,,87.9,0.0,u,0.0,True,830.4000000022352,50.0,60.0,40.0,330.28631697950044,[],"[640, 360]",ColorTask,5.0,7.0,,,HRV,HRV_0060,2022-11-30 18:06:20
,wl-rdm,15,106559,0.0-6.7-0.7,0.0,15.0,,,,,,,[],,,,False,,,,87.9,1.0,i,1.0,True,1032.0999999996275,62.0,60.0,40.0,265.09739491057235,[],"[640, 360]",ColorTask,6.0,8.0,,,HRV,HRV_0060,2022-11-30 18:06:20
,wl-rdm,16,109243,0.0-6.8-0.8,0.0,16.0,,,,,,,[],,,,False,,,,50.0,1.0,i,1.0,True,1326.9000000003725,80.0,60.0,40.0,285.68616773410474,[],"[640, 360]",ColorTask,7.0,9.0,,,HRV,HRV_0060,2022-11-30 18:06:20
,wl-rdm,17,111544,0.0-6.9-0.9,0.0,17.0,,,,,,,[],,,,False,,,,87.9,1.0,i,1.0,True,904.9000000003725,55.0,60.0,40.0,331.2749171558571,[],"[640, 360]",ColorTask,8.0,10.0,,,HRV,HRV_0060,2022-11-30 18:06:20
,wl-rdm,18,114612,0.0-6.10-0.10,0.0,18.0,,,,,,,[],,,,False,,,,50.0,0.0,i,1.0,False,1754.5999999996275,106.0,60.0,40.0,246.72389861011735,[],"[640, 360]",ColorTask,7.0,11.0,,,HRV,HRV_0060,2022-11-30 18:06:20
,wl-rdm,19,117077,0.0-6.11-0.11,0.0,19.0,,,,,,,[],,,,False,,,,87.9,0.0,u,0.0,True,1077.199999999255,65.0,60.0,40.0,305.2082944974833,[],"[640, 360]",ColorTask,8.0,12.0,,,HRV,HRV_0060,2022-11-30 18:06:20
,wl-rdm,20,119845,0.0-6.12-0.12,0.0,20.0,,,,,,,[],,,,False,,,,62.5,1.0,i,1.0,True,1381.4000000022352,83.0,60.0,40.0,319.82461567753063,[],"[640, 360]",ColorTask,9.0,13.0,,,HRV,HRV_0060,2022-11-30 18:06:20
,wl-rdm,21,122846,0.0-6.13-0.13,0.0,21.0,,,,,,,[],,,,False,,,,73.6,1.0,i,1.0,True,1655.0,100.0,60.0,40.0,277.86094517524157,[],"[640, 360]",ColorTask,10.0,14.0,,,HRV,HRV_0060,2022-11-30 18:06:20
,wl-rdm,22,125264,0.0-6.14-0.14,0.0,22.0,,,,,,,[],,,,False,,,,73.6,1.0,i,1.0,True,1048.800000000745,63.0,60.0,40.0,316.77102089597554,[],"[640, 360]",ColorTask,11.0,15.0,,,HRV,HRV_0060,2022-11-30 18:06:20
,wl-rdm,23,128714,0.0-6.15-0.15,0.0,23.0,,,,,,,[],,,,False,,,,53.2,1.0,i,1.0,True,2093.300000000745,126.0,60.0,40.0,285.959496394234,[],"[640, 360]",ColorTask,12.0,16.0,,,HRV,HRV_0060,2022-11-30 18:06:20
,wl-rdm,24,130914,0.0-6.16-0.16,0.0,24.0,,,,,,,[],,,,False,,,,87.9,1.0,i,1.0,True,898.0,54.0,60.0,40.0,220.44932597311828,[],"[640, 360]",ColorTask,13.0,17.0,,,HRV,HRV_0060,2022-11-30 18:06:20
,wl-rdm,25,133131,0.0-6.17-0.17,0.0,25.0,,,,,,,[],,,,False,,,,56.4,0.0,u,0.0,True,859.8999999985099,52.0,60.0,40.0,270.5663357223485,[],"[640, 360]",ColorTask,14.0,18.0,,,HRV,HRV_0060,2022-11-30 18:06:20
,wl-rdm,26,135799,0.0-6.18-0.18,0.0,26.0,,,,,,,[],,,,False,,,,50.0,0.0,u,0.0,True,1238.199999999255,75.0,60.0,40.0,338.2240363529379,[],"[640, 360]",ColorTask,15.0,19.0,,,HRV,HRV_0060,2022-11-30 18:06:20
,wl-rdm,27,137899,0.0-6.19-0.19,0.0,27.0,,,,,,,[],,,,False,,,,56.4,1.0,u,0.0,False,831.0,50.0,60.0,40.0,212.7684534346507,[],"[640, 360]",ColorTask,14.0,20.0,,,HRV,HRV_0060,2022-11-30 18:06:20
,wl-rdm,28,140200,0.0-6.20-0.20,0.0,28.0,,,,,,,[],,,,False,,,,62.5,1.0,i,1.0,True,943.0,57.0,60.0,40.0,287.6969761565607,[],"[640, 360]",ColorTask,15.0,21.0,,,HRV,HRV_0060,2022-11-30 18:06:20
,wl-rdm,29,142750,0.0-6.21-0.21,0.0,29.0,,,,,,,[],,,,False,,,,56.4,1.0,i,1.0,True,1094.800000000745,66.0,60.0,40.0,371.22681509424547,[],"[640, 360]",ColorTask,16.0,22.0,,,HRV,HRV_0060,2022-11-30 18:06:20
,wl-rdm,30,145284,0.0-6.22-0.22,0.0,30.0,,,,,,,[],,,,False,,,,62.5,1.0,i,1.0,True,1187.9000000003725,72.0,60.0,40.0,282.5686782763695,[],"[640, 360]",ColorTask,17.0,23.0,,,HRV,HRV_0060,2022-11-30 18:06:20
,wl-rdm,31,147385,0.0-6.23-0.23,0.0,31.0,,,,,,,[],,,,False,,,,73.6,0.0,u,0.0,True,832.5999999996275,50.0,60.0,40.0,209.95791783141073,[],"[640, 360]",ColorTask,18.0,24.0,,,HRV,HRV_0060,2022-11-30 18:06:20
,wl-rdm,32,149802,0.0-6.24-0.24,0.0,32.0,,,,,,,[],,,,False,,,,53.2,1.0,i,1.0,True,1097.199999999255,66.0,60.0,40.0,265.72172417385633,[],"[640, 360]",ColorTask,19.0,25.0,,,HRV,HRV_0060,2022-11-30 18:06:20
,wl-rdm,33,152452,0.0-6.25-0.25,0.0,33.0,,,,,,,[],,,,False,,,,50.0,1.0,i,1.0,True,1277.699999999255,77.0,60.0,40.0,309.52083096857973,[],"[640, 360]",ColorTask,20.0,26.0,,,HRV,HRV_0060,2022-11-30 18:06:20
,wl-rdm,34,154754,0.0-6.26-0.26,0.0,34.0,,,,,,,[],,,,False,,,,87.9,0.0,i,1.0,False,858.0999999996275,52.0,60.0,40.0,373.87069424974857,[],"[640, 360]",ColorTask,19.0,27.0,,,HRV,HRV_0060,2022-11-30 18:06:20
,wl-rdm,35,157537,0.0-6.27-0.27,0.0,35.0,,,,,,,[],,,,False,,,,53.2,1.0,i,1.0,True,1338.1000000014901,81.0,60.0,40.0,379.84267858284,[],"[640, 360]",ColorTask,20.0,28.0,,,HRV,HRV_0060,2022-11-30 18:06:20
,wl-rdm,36,159553,0.0-6.28-0.28,0.0,36.0,,,,,,,[],,,,False,,,,87.9,0.0,u,0.0,True,732.1000000014901,44.0,60.0,40.0,211.01650459450653,[],"[640, 360]",ColorTask,21.0,29.0,,,HRV,HRV_0060,2022-11-30 18:06:20
,wl-rdm,37,161855,0.0-6.29-0.29,0.0,37.0,,,,,,,[],,,,False,,,,50.0,0.0,i,1.0,False,1027.0,62.0,60.0,40.0,202.91967792072137,[],"[640, 360]",ColorTask,20.0,30.0,,,HRV,HRV_0060,2022-11-30 18:06:20
,wl-rdm,38,164539,0.0-6.30-0.30,0.0,38.0,,,,,,,[],,,,False,,,,62.5,1.0,u,0.0,False,1239.5,75.0,60.0,40.0,381.0921599482261,[],"[640, 360]",ColorTask,19.0,31.0,,,HRV,HRV_0060,2022-11-30 18:06:20
,wl-rdm,39,166473,0.0-6.31-0.31,0.0,39.0,,,,,,,[],,,,False,,,,53.2,1.0,u,0.0,False,637.2999999988824,39.0,60.0,40.0,231.63120315346706,[],"[640, 360]",ColorTask,18.0,32.0,,,HRV,HRV_0060,2022-11-30 18:06:20
,wl-rdm,40,168689,0.0-6.32-0.32,0.0,40.0,,,,,,,[],,,,False,,,,73.6,1.0,i,1.0,True,786.3999999985099,48.0,60.0,40.0,364.5258448437131,[],"[640, 360]",ColorTask,19.0,33.0,,,HRV,HRV_0060,2022-11-30 18:06:20
,wl-rdm,41,171123,0.0-6.33-0.33,0.0,41.0,,,,,,,[],,,,False,,,,73.6,1.0,i,1.0,True,1015.0999999996275,61.0,60.0,40.0,355.2529658157456,[],"[640, 360]",ColorTask,20.0,34.0,,,HRV,HRV_0060,2022-11-30 18:06:20
,wl-rdm,42,173256,0.0-6.34-0.34,0.0,42.0,,,,,,,[],,,,False,,,,87.9,1.0,i,1.0,True,754.6000000014901,46.0,60.0,40.0,286.4015535915316,[],"[640, 360]",ColorTask,21.0,35.0,,,HRV,HRV_0060,2022-11-30 18:06:20
,wl-rdm,43,176224,0.0-6.35-0.35,0.0,43.0,,,,,,,[],,,,False,,,,56.4,1.0,u,0.0,False,1664.1000000014901,100.0,60.0,40.0,243.1464363146267,[],"[640, 360]",ColorTask,20.0,36.0,,,HRV,HRV_0060,2022-11-30 18:06:20
,wl-rdm,44,178825,0.0-6.36-0.36,0.0,44.0,,,,,,,[],,,,False,,,,50.0,0.0,u,0.0,True,1215.9000000022352,73.0,60.0,40.0,305.5090904641645,[],"[640, 360]",ColorTask,21.0,37.0,,,HRV,HRV_0060,2022-11-30 18:06:20
,wl-rdm,45,181358,0.0-6.37-0.37,0.0,45.0,,,,,,,[],,,,False,,,,62.5,0.0,u,0.0,True,1179.699999999255,71.0,60.0,40.0,275.58698638740884,[],"[640, 360]",ColorTask,22.0,38.0,,,HRV,HRV_0060,2022-11-30 18:06:20
,wl-rdm,46,183693,0.0-6.38-0.38,0.0,46.0,,,,,,,[],,,,False,,,,73.6,1.0,i,1.0,True,911.1999999992549,55.0,60.0,40.0,361.4688774800347,[],"[640, 360]",ColorTask,23.0,39.0,,,HRV,HRV_0060,2022-11-30 18:06:20
,wl-rdm,47,186159,0.0-6.39-0.39,0.0,47.0,,,,,,,[],,,,False,,,,56.4,1.0,u,0.0,False,1120.6000000014901,68.0,60.0,40.0,250.51720239089485,[],"[640, 360]",ColorTask,22.0,40.0,,,HRV,HRV_0060,2022-11-30 18:06:20
,wl-rdm,48,188694,0.0-6.40-0.40,0.0,48.0,,,,,,,[],,,,False,,,,56.4,0.0,u,0.0,True,1142.5,69.0,60.0,40.0,330.250148430759,[],"[640, 360]",ColorTask,23.0,41.0,,,HRV,HRV_0060,2022-11-30 18:06:20
,wl-rdm,49,191044,0.0-6.41-0.41,0.0,49.0,,,,,,,[],,,,False,,,,62.5,0.0,u,0.0,True,1055.199999999255,64.0,60.0,40.0,220.46618099545475,[],"[640, 360]",ColorTask,24.0,42.0,,,HRV,HRV_0060,2022-11-30 18:06:20
,wl-rdm,50,194728,0.0-6.42-0.42,0.0,50.0,,,,,,,[],,,,False,,,,53.2,0.0,u,0.0,True,2233.0,134.0,60.0,40.0,378.8852548844633,[],"[640, 360]",ColorTask,25.0,43.0,,,HRV,HRV_0060,2022-11-30 18:06:20
,wl-rdm,51,197780,0.0-6.43-0.43,0.0,51.0,,,,,,,[],,,,False,,,,50.0,1.0,i,1.0,True,1676.2999999988824,101.0,60.0,40.0,301.5024281966457,[],"[640, 360]",ColorTask,26.0,44.0,,,HRV,HRV_0060,2022-11-30 18:06:20
,wl-rdm,52,200615,0.0-6.44-0.44,0.0,52.0,,,,,,,[],,,,False,,,,56.4,0.0,u,0.0,True,1500.9000000003725,90.0,60.0,40.0,254.39657089794963,[],"[640, 360]",ColorTask,27.0,45.0,,,HRV,HRV_0060,2022-11-30 18:06:20
,wl-rdm,53,204147,0.0-6.45-0.45,0.0,53.0,,,,,,,[],,,,False,,,,62.5,0.0,u,0.0,True,2230.4999999981374,134.0,60.0,40.0,218.58312401698248,[],"[640, 360]",ColorTask,28.0,46.0,,,HRV,HRV_0060,2022-11-30 18:06:20
,wl-rdm,54,206281,0.0-6.46-0.46,0.0,54.0,,,,,,,[],,,,False,,,,87.9,0.0,u,0.0,True,838.6999999992549,51.0,60.0,40.0,209.09470359561251,[],"[640, 360]",ColorTask,29.0,47.0,,,HRV,HRV_0060,2022-11-30 18:06:20
,wl-rdm,55,208714,0.0-6.47-0.47,0.0,55.0,,,,,,,[],,,,False,,,,50.0,1.0,i,1.0,True,1132.699999999255,68.0,60.0,40.0,221.24386254002644,[],"[640, 360]",ColorTask,30.0,48.0,,,HRV,HRV_0060,2022-11-30 18:06:20
,wl-rdm,56,210864,0.0-6.48-0.48,0.0,56.0,,,,,,,[],,,,False,,,,87.9,1.0,i,1.0,True,729.9000000003725,44.0,60.0,40.0,351.5556323998031,[],"[640, 360]",ColorTask,31.0,49.0,,,HRV,HRV_0060,2022-11-30 18:06:20
,wl-rdm,57,213315,0.0-6.49-0.49,0.0,57.0,,,,,,,[],,,,False,,,,53.2,1.0,u,0.0,False,1040.6000000014901,63.0,60.0,40.0,335.3361881820309,[],"[640, 360]",ColorTask,30.0,50.0,,,HRV,HRV_0060,2022-11-30 18:06:20
,wl-rdm,58,215515,0.0-6.50-0.50,0.0,58.0,,,,,,,[],,,,False,,,,56.4,0.0,i,1.0,False,837.7999999988824,51.0,60.0,40.0,297.01897861606074,[],"[640, 360]",ColorTask,29.0,51.0,,,HRV,HRV_0060,2022-11-30 18:06:20
,wl-rdm,59,217682,0.0-6.51-0.51,0.0,59.0,,,,,,,[],,,,False,,,,87.9,1.0,i,1.0,True,821.0999999996275,50.0,60.0,40.0,274.8567300274647,[],"[640, 360]",ColorTask,30.0,52.0,,,HRV,HRV_0060,2022-11-30 18:06:20
,wl-rdm,60,220133,0.0-6.52-0.52,0.0,60.0,,,,,,,[],,,,False,,,,73.6,0.0,u,0.0,True,982.9999999981374,59.0,60.0,40.0,398.7185928899223,[],"[640, 360]",ColorTask,31.0,53.0,,,HRV,HRV_0060,2022-11-30 18:06:20
,wl-rdm,61,222500,0.0-6.53-0.53,0.0,61.0,,,,,,,[],,,,False,,,,50.0,0.0,i,1.0,False,1072.199999999255,65.0,60.0,40.0,211.79751370340162,[],"[640, 360]",ColorTask,30.0,54.0,,,HRV,HRV_0060,2022-11-30 18:06:20
,wl-rdm,62,224544,0.0-6.54-0.54,0.0,62.0,,,,,,,[],,,,False,,,,56.4,1.0,u,0.0,False,751.5999999996275,45.0,60.0,40.0,216.11168026600603,[],"[640, 360]",ColorTask,29.0,55.0,,,HRV,HRV_0060,2022-11-30 18:06:20
,wl-rdm,63,226301,0.0-6.55-0.55,0.0,63.0,,,,,,,[],,,,False,,,,87.9,0.0,i,1.0,False,460.40000000037253,28.0,60.0,40.0,201.07686959994976,[],"[640, 360]",ColorTask,28.0,56.0,,,HRV,HRV_0060,2022-11-30 18:06:20
,wl-rdm,64,229135,0.0-6.56-0.56,0.0,64.0,,,,,,,[],,,,False,,,,53.2,1.0,i,1.0,True,1533.5999999996275,92.0,60.0,40.0,233.44156484316085,[],"[640, 360]",ColorTask,29.0,57.0,,,HRV,HRV_0060,2022-11-30 18:06:20
,wl-rdm,65,231302,0.0-6.57-0.57,0.0,65.0,,,,,,,[],,,,False,,,,73.6,1.0,i,1.0,True,854.7000000011176,52.0,60.0,40.0,245.45907022306147,[],"[640, 360]",ColorTask,30.0,58.0,,,HRV,HRV_0060,2022-11-30 18:06:20
,wl-rdm,66,233919,0.0-6.58-0.58,0.0,66.0,,,,,,,[],,,,False,,,,87.9,0.0,u,0.0,True,1245.0,75.0,60.0,40.0,297.67346135736227,[],"[640, 360]",ColorTask,31.0,59.0,,,HRV,HRV_0060,2022-11-30 18:06:20
,wl-rdm,67,236804,0.0-6.59-0.59,0.0,67.0,,,,,,,[],,,,False,,,,62.5,0.0,i,1.0,False,1565.0999999996275,94.0,60.0,40.0,251.7652792634825,[],"[640, 360]",ColorTask,30.0,60.0,,,HRV,HRV_0060,2022-11-30 18:06:20
,wl-rdm,68,239071,0.0-6.60-0.60,0.0,68.0,,,,,,,[],,,,False,,,,56.4,1.0,i,1.0,True,977.0999999996275,59.0,60.0,40.0,209.42117287038553,[],"[640, 360]",ColorTask,31.0,61.0,,,HRV,HRV_0060,2022-11-30 18:06:20
,wl-rdm,69,241255,0.0-6.61-0.61,0.0,69.0,,,,,,,[],,,,False,,,,62.5,0.0,u,0.0,True,893.5999999996275,54.0,60.0,40.0,211.74490875391652,[],"[640, 360]",ColorTask,32.0,62.0,,,HRV,HRV_0060,2022-11-30 18:06:20
,wl-rdm,70,243805,0.0-6.62-0.62,0.0,70.0,,,,,,,[],,,,False,,,,73.6,0.0,u,0.0,True,1105.2000000011176,67.0,60.0,40.0,353.2661880962866,[],"[640, 360]",ColorTask,33.0,63.0,,,HRV,HRV_0060,2022-11-30 18:06:20
,wl-rdm,71,246239,0.0-6.63-0.63,0.0,71.0,,,,,,,[],,,,False,,,,87.9,1.0,i,1.0,True,1065.0999999996275,64.0,60.0,40.0,316.22722594209415,[],"[640, 360]",ColorTask,34.0,64.0,,,HRV,HRV_0060,2022-11-30 18:06:20
,wl-rdm,72,249923,0.0-6.64-0.64,0.0,72.0,,,,,,,[],,,,False,,,,62.5,0.0,u,0.0,True,2310.199999999255,139.0,60.0,40.0,291.26935404383266,[],"[640, 360]",ColorTask,35.0,65.0,,,HRV,HRV_0060,2022-11-30 18:06:20
,wl-rdm,73,252807,0.0-6.65-0.65,0.0,73.0,,,,,,,[],,,,False,,,,87.9,1.0,u,0.0,False,1471.2000000011176,89.0,60.0,40.0,329.31574355595006,[],"[640, 360]",ColorTask,34.0,66.0,,,HRV,HRV_0060,2022-11-30 18:06:20
,wl-rdm,74,255391,0.0-6.66-0.66,0.0,74.0,,,,,,,[],,,,False,,,,53.2,1.0,u,0.0,False,1293.699999999255,78.0,60.0,40.0,230.48500859246707,[],"[640, 360]",ColorTask,33.0,67.0,,,HRV,HRV_0060,2022-11-30 18:06:20
,wl-rdm,75,257875,0.0-6.67-0.67,0.0,75.0,,,,,,,[],,,,False,,,,50.0,1.0,i,1.0,True,1136.7999999988824,69.0,60.0,40.0,275.8706204685832,[],"[640, 360]",ColorTask,34.0,68.0,,,HRV,HRV_0060,2022-11-30 18:06:20
,wl-rdm,76,260092,0.0-6.68-0.68,0.0,76.0,,,,,,,[],,,,False,,,,73.6,0.0,u,0.0,True,883.2999999988824,53.0,60.0,40.0,260.2504137211539,[],"[640, 360]",ColorTask,35.0,69.0,,,HRV,HRV_0060,2022-11-30 18:06:20
,wl-rdm,77,262627,0.0-6.69-0.69,0.0,77.0,,,,,,,[],,,,False,,,,50.0,1.0,i,1.0,True,1072.699999999255,65.0,60.0,40.0,385.91898222751234,[],"[640, 360]",ColorTask,36.0,70.0,,,HRV,HRV_0060,2022-11-30 18:06:20
,wl-rdm,78,264827,0.0-6.70-0.70,0.0,78.0,,,,,,,[],,,,False,,,,56.4,0.0,u,0.0,True,904.7000000011176,55.0,60.0,40.0,205.89826680009335,[],"[640, 360]",ColorTask,37.0,71.0,,,HRV,HRV_0060,2022-11-30 18:06:20
,wl-rdm,79,267160,0.0-6.71-0.71,0.0,79.0,,,,,,,[],,,,False,,,,73.6,0.0,u,0.0,True,1010.6999999992549,61.0,60.0,40.0,245.73313611122038,[],"[640, 360]",ColorTask,38.0,72.0,,,HRV,HRV_0060,2022-11-30 18:06:20
,wl-rdm,80,269561,0.0-6.72-0.72,0.0,80.0,,,,,,,[],,,,False,,,,62.5,1.0,i,1.0,True,1089.7999999988824,66.0,60.0,40.0,239.67644073124075,[],"[640, 360]",ColorTask,39.0,73.0,,,HRV,HRV_0060,2022-11-30 18:06:20
,wl-rdm,81,271845,0.0-6.73-0.73,0.0,81.0,,,,,,,[],,,,False,,,,73.6,0.0,u,0.0,True,975.3000000007451,59.0,60.0,40.0,240.9514180697861,[],"[640, 360]",ColorTask,40.0,74.0,,,HRV,HRV_0060,2022-11-30 18:06:20
,wl-rdm,82,274145,0.0-6.74-0.74,0.0,82.0,,,,,,,[],,,,False,,,,53.2,0.0,i,1.0,False,940.5999999996275,57.0,60.0,40.0,295.9564624313516,[],"[640, 360]",ColorTask,39.0,75.0,,,HRV,HRV_0060,2022-11-30 18:06:20
,wl-rdm,83,276346,0.0-6.75-0.75,0.0,83.0,,,,,,,[],,,,False,,,,87.9,0.0,u,0.0,True,760.6000000014901,46.0,60.0,40.0,361.79062030823786,[],"[640, 360]",ColorTask,40.0,76.0,,,HRV,HRV_0060,2022-11-30 18:06:20
,wl-rdm,84,278712,0.0-6.76-0.76,0.0,84.0,,,,,,,[],,,,False,,,,53.2,1.0,u,0.0,False,1000.5999999996275,60.0,60.0,40.0,296.9772771567406,[],"[640, 360]",ColorTask,39.0,77.0,,,HRV,HRV_0060,2022-11-30 18:06:20
,wl-rdm,85,280880,0.0-6.77-0.77,0.0,85.0,,,,,,,[],,,,False,,,,56.4,1.0,i,1.0,True,704.9000000003725,43.0,60.0,40.0,398.7331616211332,[],"[640, 360]",ColorTask,40.0,78.0,,,HRV,HRV_0060,2022-11-30 18:06:20
,wl-rdm,86,283314,0.0-6.78-0.78,0.0,86.0,,,,,,,[],,,,False,,,,50.0,0.0,i,1.0,False,1125.8000000026077,68.0,60.0,40.0,248.3630275992546,[],"[640, 360]",ColorTask,39.0,79.0,,,HRV,HRV_0060,2022-11-30 18:06:20
,wl-rdm,87,285097,0.0-6.79-0.79,0.0,87.0,,,,,,,[],,,,False,,,,73.6,1.0,u,0.0,False,463.90000000037253,28.0,60.0,40.0,256.31866853327506,[],"[640, 360]",ColorTask,38.0,80.0,,,HRV,HRV_0060,2022-11-30 18:06:20
,wl-rdm,88,287783,0.0-6.80-0.80,0.0,88.0,,,,,,,[],,,,False,,,,53.2,0.0,u,0.0,True,1358.699999999255,82.0,60.0,40.0,253.92409399420353,[],"[640, 360]",ColorTask,39.0,81.0,,,HRV,HRV_0060,2022-11-30 18:06:20
,wl-rdm,89,290132,0.0-6.81-0.81,0.0,89.0,,,,,,,[],,,,False,,,,56.4,0.0,i,1.0,False,1079.5,65.0,60.0,40.0,208.93044639101734,[],"[640, 360]",ColorTask,38.0,82.0,,,HRV,HRV_0060,2022-11-30 18:06:20
,wl-rdm,90,292032,0.0-6.82-0.82,0.0,90.0,,,,,,,[],,,,False,,,,56.4,0.0,u,0.0,True,537.6999999992549,33.0,60.0,40.0,291.0428474825623,[],"[640, 360]",ColorTask,39.0,83.0,,,HRV,HRV_0060,2022-11-30 18:06:20
,wl-rdm,91,294250,0.0-6.83-0.83,0.0,91.0,,,,,,,[],,,,False,,,,50.0,0.0,u,0.0,True,835.4999999981374,51.0,60.0,40.0,300.9366469501419,[],"[640, 360]",ColorTask,40.0,84.0,,,HRV,HRV_0060,2022-11-30 18:06:20
,wl-rdm,92,296850,0.0-6.84-0.84,0.0,92.0,,,,,,,[],,,,False,,,,62.5,1.0,i,1.0,True,1204.2999999988824,73.0,60.0,40.0,311.6031476558753,[],"[640, 360]",ColorTask,41.0,85.0,,,HRV,HRV_0060,2022-11-30 18:06:20
,wl-rdm,93,299351,0.0-6.85-0.85,0.0,93.0,,,,,,,[],,,,False,,,,62.5,1.0,u,0.0,False,1207.0999999996275,73.0,60.0,40.0,232.752816556607,[],"[640, 360]",ColorTask,40.0,86.0,,,HRV,HRV_0060,2022-11-30 18:06:20
,wl-rdm,94,302251,0.0-6.86-0.86,0.0,94.0,,,,,,,[],,,,False,,,,53.2,0.0,u,0.0,True,1626.5,98.0,60.0,40.0,212.39766748001074,[],"[640, 360]",ColorTask,41.0,87.0,,,HRV,HRV_0060,2022-11-30 18:06:20
,wl-rdm,95,304736,0.0-6.87-0.87,0.0,95.0,,,,,,,[],,,,False,,,,53.2,0.0,u,0.0,True,1212.9000000022352,73.0,60.0,40.0,203.43705725325972,[],"[640, 360]",ColorTask,42.0,88.0,,,HRV,HRV_0060,2022-11-30 18:06:20
,wl-rdm,96,307085,0.0-6.88-0.88,0.0,96.0,,,,,,,[],,,,False,,,,62.5,0.0,u,0.0,True,987.7000000029802,60.0,60.0,40.0,285.67034610442784,[],"[640, 360]",ColorTask,43.0,89.0,,,HRV,HRV_0060,2022-11-30 18:06:20
,wl-rdm,97,309736,0.0-6.89-0.89,0.0,97.0,,,,,,,[],,,,False,,,,56.4,1.0,i,1.0,True,1187.699999999255,72.0,60.0,40.0,394.8047278065103,[],"[640, 360]",ColorTask,44.0,90.0,,,HRV,HRV_0060,2022-11-30 18:06:20
,wl-rdm,98,312603,0.0-6.90-0.90,0.0,98.0,,,,,,,[],,,,False,,,,56.4,0.0,i,1.0,False,1498.2999999988824,90.0,60.0,40.0,303.72537937636514,[],"[640, 360]",ColorTask,43.0,91.0,,,HRV,HRV_0060,2022-11-30 18:06:20
,wl-rdm,99,314937,0.0-6.91-0.91,0.0,99.0,,,,,,,[],,,,False,,,,73.6,1.0,i,1.0,True,1004.0999999996275,61.0,60.0,40.0,254.89607826426325,[],"[640, 360]",ColorTask,44.0,92.0,,,HRV,HRV_0060,2022-11-30 18:06:20
,wl-rdm,100,317704,0.0-6.92-0.92,0.0,100.0,,,,,,,[],,,,False,,,,53.2,0.0,u,0.0,True,1461.5,88.0,60.0,40.0,234.49793528642806,[],"[640, 360]",ColorTask,45.0,93.0,,,HRV,HRV_0060,2022-11-30 18:06:20
,wl-rdm,101,320038,0.0-6.93-0.93,0.0,101.0,,,,,,,[],,,,False,,,,87.9,0.0,u,0.0,True,893.2999999988824,54.0,60.0,40.0,363.6496237322625,[],"[640, 360]",ColorTask,46.0,94.0,,,HRV,HRV_0060,2022-11-30 18:06:20
,wl-rdm,102,323089,0.0-6.94-0.94,0.0,102.0,,,,,,,[],,,,False,,,,62.5,0.0,u,0.0,True,1761.9000000003725,106.0,60.0,40.0,202.09356192140473,[],"[640, 360]",ColorTask,47.0,95.0,,,HRV,HRV_0060,2022-11-30 18:06:20
,wl-rdm,103,325306,0.0-6.95-0.95,0.0,103.0,,,,,,,[],,,,False,,,,53.2,0.0,i,1.0,False,943.6999999992549,57.0,60.0,40.0,204.63897781598916,[],"[640, 360]",ColorTask,46.0,96.0,,,HRV,HRV_0060,2022-11-30 18:06:20
,wl-rdm,104,328173,0.0-6.96-0.96,0.0,104.0,,,,,,,[],,,,False,,,,53.2,1.0,i,1.0,True,1455.5999999996275,88.0,60.0,40.0,325.16110212447313,[],"[640, 360]",ColorTask,47.0,97.0,,,HRV,HRV_0060,2022-11-30 18:06:20
,wl-rdm,105,331541,0.0-6.97-0.97,0.0,105.0,,,,,,,[],,,,False,,,,50.0,0.0,u,0.0,True,2096.699999999255,126.0,60.0,40.0,201.45672867320138,[],"[640, 360]",ColorTask,48.0,98.0,,,HRV,HRV_0060,2022-11-30 18:06:20
,wl-rdm,106,333874,0.0-6.98-0.98,0.0,106.0,,,,,,,[],,,,False,,,,62.5,0.0,u,0.0,True,925.4999999981374,56.0,60.0,40.0,339.3637249866208,[],"[640, 360]",ColorTask,49.0,99.0,,,HRV,HRV_0060,2022-11-30 18:06:20
,wl-rdm,107,336009,0.0-6.99-0.99,0.0,107.0,,,,,,,[],,,,False,,,,73.6,0.0,u,0.0,True,860.8000000007451,52.0,60.0,40.0,215.7476232040122,[],"[640, 360]",ColorTask,50.0,100.0,,,HRV,HRV_0060,2022-11-30 18:06:20
,wl-rdm,108,338409,0.0-6.100-0.100,0.0,108.0,,,,,,,[],,,,False,,,,50.0,0.0,i,1.0,False,939.0,57.0,60.0,40.0,389.35886255598666,[],"[640, 360]",ColorTask,49.0,101.0,,,HRV,HRV_0060,2022-11-30 18:06:20
,wl-rdm,109,341059,0.0-6.101-0.101,0.0,109.0,,,,,,,[],,,,False,,,,53.2,0.0,u,0.0,True,1280.9000000003725,77.0,60.0,40.0,306.41873888513555,[],"[640, 360]",ColorTask,50.0,102.0,,,HRV,HRV_0060,2022-11-30 18:06:20
,wl-rdm,110,343443,0.0-6.102-0.102,0.0,110.0,,,,,,,[],,,,False,,,,50.0,1.0,u,0.0,False,1070.7999999988824,65.0,60.0,40.0,240.93888189619298,[],"[640, 360]",ColorTask,49.0,103.0,,,HRV,HRV_0060,2022-11-30 18:06:20
,wl-rdm,111,346144,0.0-6.103-0.103,0.0,111.0,,,,,,,[],,,,False,,,,62.5,1.0,i,1.0,True,1419.0,86.0,60.0,40.0,206.89337286283808,[],"[640, 360]",ColorTask,50.0,104.0,,,HRV,HRV_0060,2022-11-30 18:06:20
,wl-rdm,112,349761,0.0-6.104-0.104,0.0,112.0,,,,,,,[],,,,False,,,,73.6,0.0,u,0.0,True,2293.7999999988824,138.0,60.0,40.0,259.68623780594623,[],"[640, 360]",ColorTask,51.0,105.0,,,HRV,HRV_0060,2022-11-30 18:06:20
,wl-rdm,113,353461,0.0-6.105-0.105,0.0,113.0,,,,,,,[],,,,False,,,,50.0,1.0,i,1.0,True,2415.9000000003725,145.0,60.0,40.0,229.16740018484523,[],"[640, 360]",ColorTask,52.0,106.0,,,HRV,HRV_0060,2022-11-30 18:06:20
,wl-rdm,114,355862,0.0-6.106-0.106,0.0,114.0,,,,,,,[],,,,False,,,,87.9,1.0,i,1.0,True,1061.4000000003725,64.0,60.0,40.0,269.0008073418436,[],"[640, 360]",ColorTask,53.0,107.0,,,HRV,HRV_0060,2022-11-30 18:06:20
,wl-rdm,115,358313,0.0-6.107-0.107,0.0,115.0,,,,,,,[],,,,False,,,,50.0,1.0,u,0.0,False,988.3000000007451,60.0,60.0,40.0,390.33604101121,[],"[640, 360]",ColorTask,52.0,108.0,,,HRV,HRV_0060,2022-11-30 18:06:20
,wl-html-keyboard-response,116,375558,0.0-7.0-0.0,1.0,116.0,,,,,,,,15226.300000000745,1.0,0,,,,,,,,,,,,,,,,,,,,,,HRV,HRV_0060,2022-11-30 18:06:20
,wl-rdm,117,378033,0.0-8.0-0.0,1.0,117.0,,,,,,,[],,,,False,,,,53.2,1.0,u,0.0,False,1188.4000000003725,72.0,60.0,40.0,209.67433487932817,[],"[640, 360]",ColorTask,51.0,1.0,,,HRV,HRV_0060,2022-11-30 18:06:20
,wl-rdm,118,380316,0.0-8.1-0.1,1.0,118.0,,,,,,,[],,,,False,,,,56.4,0.0,u,0.0,True,970.8000000026077,59.0,60.0,40.0,246.38214903279055,[],"[640, 360]",ColorTask,52.0,2.0,,,HRV,HRV_0060,2022-11-30 18:06:20
,wl-rdm,119,382534,0.0-8.2-0.2,1.0,119.0,,,,,,,[],,,,False,,,,73.6,1.0,i,1.0,True,803.8000000007451,49.0,60.0,40.0,334.44880486197366,[],"[640, 360]",ColorTask,53.0,3.0,,,HRV,HRV_0060,2022-11-30 18:06:20
,wl-rdm,120,384601,0.0-8.3-0.3,1.0,120.0,,,,,,,[],,,,False,,,,73.6,1.0,i,1.0,True,794.5,48.0,60.0,40.0,204.58451148518867,[],"[640, 360]",ColorTask,54.0,4.0,,,HRV,HRV_0060,2022-11-30 18:06:20
,wl-rdm,121,387235,0.0-8.4-0.4,1.0,121.0,,,,,,,[],,,,False,,,,53.2,0.0,u,0.0,True,1187.3999999985099,72.0,60.0,40.0,350.99264394514387,[],"[640, 360]",ColorTask,55.0,5.0,,,HRV,HRV_0060,2022-11-30 18:06:20
,wl-rdm,122,389402,0.0-8.5-0.5,1.0,122.0,,,,,,,[],,,,False,,,,50.0,1.0,i,1.0,True,896.0,54.0,60.0,40.0,205.3412413354562,[],"[640, 360]",ColorTask,56.0,6.0,,,HRV,HRV_0060,2022-11-30 18:06:20
,wl-rdm,123,391686,0.0-8.6-0.6,1.0,123.0,,,,,,,[],,,,False,,,,87.9,1.0,i,1.0,True,988.9000000003725,60.0,60.0,40.0,210.36728327494137,[],"[640, 360]",ColorTask,57.0,7.0,,,HRV,HRV_0060,2022-11-30 18:06:20
,wl-rdm,124,394353,0.0-8.7-0.7,1.0,124.0,,,,,,,[],,,,False,,,,62.5,1.0,u,0.0,False,1221.9999999981374,74.0,60.0,40.0,365.0121715337556,[],"[640, 360]",ColorTask,56.0,8.0,,,HRV,HRV_0060,2022-11-30 18:06:20
,wl-rdm,125,396504,0.0-8.8-0.8,1.0,125.0,,,,,,,[],,,,False,,,,56.4,1.0,i,1.0,True,758.2999999988824,46.0,60.0,40.0,312.0316074807321,[],"[640, 360]",ColorTask,57.0,9.0,,,HRV,HRV_0060,2022-11-30 18:06:20
,wl-rdm,126,398904,0.0-8.9-0.9,1.0,126.0,,,,,,,[],,,,False,,,,62.5,1.0,i,1.0,True,942.2999999988824,57.0,60.0,40.0,393.39843429252346,[],"[640, 360]",ColorTask,58.0,10.0,,,HRV,HRV_0060,2022-11-30 18:06:20
,wl-rdm,127,400904,0.0-8.10-0.10,1.0,127.0,,,,,,,[],,,,False,,,,62.5,1.0,i,1.0,True,687.6999999992549,42.0,60.0,40.0,234.22806289762823,[],"[640, 360]",ColorTask,59.0,11.0,,,HRV,HRV_0060,2022-11-30 18:06:20
,wl-rdm,128,402788,0.0-8.11-0.11,1.0,128.0,,,,,,,[],,,,False,,,,50.0,1.0,u,0.0,False,557.2999999988824,34.0,60.0,40.0,259.3812685927796,[],"[640, 360]",ColorTask,58.0,12.0,,,HRV,HRV_0060,2022-11-30 18:06:20
,wl-rdm,129,404655,0.0-8.12-0.12,1.0,129.0,,,,,,,[],,,,False,,,,53.2,1.0,i,1.0,True,487.59999999962747,30.0,60.0,40.0,309.65380082719264,[],"[640, 360]",ColorTask,59.0,13.0,,,HRV,HRV_0060,2022-11-30 18:06:20
,wl-rdm,130,406839,0.0-8.13-0.13,1.0,130.0,,,,,,,[],,,,False,,,,87.9,1.0,i,1.0,True,793.7999999988824,48.0,60.0,40.0,313.5758721548545,[],"[640, 360]",ColorTask,60.0,14.0,,,HRV,HRV_0060,2022-11-30 18:06:20
,wl-rdm,131,408923,0.0-8.14-0.14,1.0,131.0,,,,,,,[],,,,False,,,,62.5,0.0,u,0.0,True,769.5,47.0,60.0,40.0,236.51694267675765,[],"[640, 360]",ColorTask,61.0,15.0,,,HRV,HRV_0060,2022-11-30 18:06:20
,wl-rdm,132,410906,0.0-8.15-0.15,1.0,132.0,,,,,,,[],,,,False,,,,53.2,1.0,i,1.0,True,705.0999999996275,43.0,60.0,40.0,209.5517354776793,[],"[640, 360]",ColorTask,62.0,16.0,,,HRV,HRV_0060,2022-11-30 18:06:20
,wl-rdm,133,413457,0.0-8.16-0.16,1.0,133.0,,,,,,,[],,,,False,,,,50.0,0.0,u,0.0,True,1146.699999999255,69.0,60.0,40.0,319.37401583524826,[],"[640, 360]",ColorTask,63.0,17.0,,,HRV,HRV_0060,2022-11-30 18:06:20
,wl-rdm,134,416241,0.0-8.17-0.17,1.0,134.0,,,,,,,[],,,,False,,,,50.0,1.0,u,0.0,False,1425.3999999985099,86.0,60.0,40.0,297.06513649701486,[],"[640, 360]",ColorTask,62.0,18.0,,,HRV,HRV_0060,2022-11-30 18:06:20
,wl-rdm,135,418475,0.0-8.18-0.18,1.0,135.0,,,,,,,[],,,,False,,,,87.9,1.0,i,1.0,True,873.9000000003725,53.0,60.0,40.0,278.67785298441254,[],"[640, 360]",ColorTask,63.0,19.0,,,HRV,HRV_0060,2022-11-30 18:06:20
,wl-rdm,136,420759,0.0-8.19-0.19,1.0,136.0,,,,,,,[],,,,False,,,,73.6,0.0,u,0.0,True,953.7000000011176,58.0,60.0,40.0,263.4989174450192,[],"[640, 360]",ColorTask,64.0,20.0,,,HRV,HRV_0060,2022-11-30 18:06:20
,wl-rdm,137,423209,0.0-8.20-0.20,1.0,137.0,,,,,,,[],,,,False,,,,53.2,0.0,u,0.0,True,1053.699999999255,64.0,60.0,40.0,329.69106031373985,[],"[640, 360]",ColorTask,65.0,21.0,,,HRV,HRV_0060,2022-11-30 18:06:20
,wl-rdm,138,425327,0.0-8.21-0.21,1.0,138.0,,,,,,,[],,,,False,,,,53.2,0.0,u,0.0,True,693.3000000007451,42.0,60.0,40.0,360.83466101853776,[],"[640, 360]",ColorTask,66.0,22.0,,,HRV,HRV_0060,2022-11-30 18:06:20
,wl-rdm,139,427743,0.0-8.22-0.22,1.0,139.0,,,,,,,[],,,,False,,,,62.5,1.0,i,1.0,True,953.1999999992549,58.0,60.0,40.0,391.7627104749248,[],"[640, 360]",ColorTask,67.0,23.0,,,HRV,HRV_0060,2022-11-30 18:06:20
,wl-rdm,140,430011,0.0-8.23-0.23,1.0,140.0,,,,,,,[],,,,False,,,,56.4,0.0,u,0.0,True,981.7000000011176,59.0,60.0,40.0,216.62121740018918,[],"[640, 360]",ColorTask,68.0,24.0,,,HRV,HRV_0060,2022-11-30 18:06:20
,wl-rdm,141,432728,0.0-8.24-0.24,1.0,141.0,,,,,,,[],,,,False,,,,53.2,1.0,u,0.0,False,1251.7999999988824,76.0,60.0,40.0,384.2618656856423,[],"[640, 360]",ColorTask,67.0,25.0,,,HRV,HRV_0060,2022-11-30 18:06:20
,wl-rdm,142,435112,0.0-8.25-0.25,1.0,142.0,,,,,,,[],,,,False,,,,62.5,1.0,i,1.0,True,1046.0999999996275,63.0,60.0,40.0,275.5956071823248,[],"[640, 360]",ColorTask,68.0,26.0,,,HRV,HRV_0060,2022-11-30 18:06:20
,wl-rdm,143,437546,0.0-8.26-0.26,1.0,143.0,,,,,,,[],,,,False,,,,53.2,0.0,u,0.0,True,1110.9000000003725,67.0,60.0,40.0,258.09891696246086,[],"[640, 360]",ColorTask,69.0,27.0,,,HRV,HRV_0060,2022-11-30 18:06:20
,wl-rdm,144,439863,0.0-8.27-0.27,1.0,144.0,,,,,,,[],,,,False,,,,56.4,0.0,u,0.0,True,961.2999999988824,58.0,60.0,40.0,274.15824192585836,[],"[640, 360]",ColorTask,70.0,28.0,,,HRV,HRV_0060,2022-11-30 18:06:20
,wl-rdm,145,443147,0.0-8.28-0.28,1.0,145.0,,,,,,,[],,,,False,,,,56.4,0.0,u,0.0,True,1826.3999999985099,110.0,60.0,40.0,390.97640290275416,[],"[640, 360]",ColorTask,71.0,29.0,,,HRV,HRV_0060,2022-11-30 18:06:20
,wl-rdm,146,446615,0.0-8.29-0.29,1.0,146.0,,,,,,,[],,,,False,,,,53.2,1.0,u,0.0,False,2072.4000000003725,125.0,60.0,40.0,301.62469659368645,[],"[640, 360]",ColorTask,70.0,30.0,,,HRV,HRV_0060,2022-11-30 18:06:20
,wl-rdm,147,450265,0.0-8.30-0.30,1.0,147.0,,,,,,,[],,,,False,,,,62.5,0.0,u,0.0,True,2316.300000000745,139.0,60.0,40.0,266.95639051891567,[],"[640, 360]",ColorTask,71.0,31.0,,,HRV,HRV_0060,2022-11-30 18:06:20
,wl-rdm,148,452432,0.0-8.31-0.31,1.0,148.0,,,,,,,[],,,,False,,,,87.9,0.0,i,1.0,False,865.1999999992549,52.0,60.0,40.0,239.62235369417775,[],"[640, 360]",ColorTask,70.0,32.0,,,HRV,HRV_0060,2022-11-30 18:06:20
,wl-rdm,149,454666,0.0-8.32-0.32,1.0,149.0,,,,,,,[],,,,False,,,,73.6,1.0,i,1.0,True,844.0,51.0,60.0,40.0,330.25873616908035,[],"[640, 360]",ColorTask,71.0,33.0,,,HRV,HRV_0060,2022-11-30 18:06:20
,wl-rdm,150,457200,0.0-8.33-0.33,1.0,150.0,,,,,,,[],,,,False,,,,73.6,0.0,u,0.0,True,1106.2999999988824,67.0,60.0,40.0,345.6944655744095,[],"[640, 360]",ColorTask,72.0,34.0,,,HRV,HRV_0060,2022-11-30 18:06:20
,wl-rdm,151,460201,0.0-8.34-0.34,1.0,151.0,,,,,,,[],,,,False,,,,56.4,1.0,u,0.0,False,1679.5999999996275,101.0,60.0,40.0,256.1727878146804,[],"[640, 360]",ColorTask,71.0,35.0,,,HRV,HRV_0060,2022-11-30 18:06:20
,wl-rdm,152,462384,0.0-8.35-0.35,1.0,152.0,,,,,,,[],,,,False,,,,73.6,1.0,i,1.0,True,813.3000000007451,49.0,60.0,40.0,296.8295703941012,[],"[640, 360]",ColorTask,72.0,36.0,,,HRV,HRV_0060,2022-11-30 18:06:20
,wl-rdm,153,464938,0.0-8.36-0.36,1.0,153.0,,,,,,,[],,,,False,,,,53.2,1.0,i,1.0,True,1226.5,74.0,60.0,40.0,255.92738612351403,[],"[640, 360]",ColorTask,73.0,37.0,,,HRV,HRV_0060,2022-11-30 18:06:20
,wl-rdm,154,467419,0.0-8.37-0.37,1.0,154.0,,,,,,,[],,,,False,,,,62.5,0.0,u,0.0,True,1194.800000000745,72.0,60.0,40.0,219.7382300154692,[],"[640, 360]",ColorTask,74.0,38.0,,,HRV,HRV_0060,2022-11-30 18:06:20
,wl-rdm,155,469803,0.0-8.38-0.38,1.0,155.0,,,,,,,[],,,,False,,,,62.5,1.0,u,0.0,False,1105.3999999985099,67.0,60.0,40.0,200.20718405378113,[],"[640, 360]",ColorTask,73.0,39.0,,,HRV,HRV_0060,2022-11-30 18:06:20
,wl-rdm,156,472353,0.0-8.39-0.39,1.0,156.0,,,,,,,[],,,,False,,,,87.9,0.0,u,0.0,True,1177.199999999255,71.0,60.0,40.0,315.53133999716533,[],"[640, 360]",ColorTask,74.0,40.0,,,HRV,HRV_0060,2022-11-30 18:06:20
,wl-rdm,157,474738,0.0-8.40-0.40,1.0,157.0,,,,,,,[],,,,False,,,,73.6,0.0,u,0.0,True,1114.199999999255,67.0,60.0,40.0,204.97044932825258,[],"[640, 360]",ColorTask,75.0,41.0,,,HRV,HRV_0060,2022-11-30 18:06:20
,wl-rdm,158,477137,0.0-8.41-0.41,1.0,158.0,,,,,,,[],,,,False,,,,73.6,0.0,u,0.0,True,1067.4000000003725,64.0,60.0,40.0,264.3734816881923,[],"[640, 360]",ColorTask,76.0,42.0,,,HRV,HRV_0060,2022-11-30 18:06:20
,wl-rdm,159,480088,0.0-8.42-0.42,1.0,159.0,,,,,,,[],,,,False,,,,73.6,0.0,u,0.0,True,1529.9000000003725,92.0,60.0,40.0,361.012043165318,[],"[640, 360]",ColorTask,77.0,43.0,,,HRV,HRV_0060,2022-11-30 18:06:20
,wl-rdm,160,482721,0.0-8.43-0.43,1.0,160.0,,,,,,,[],,,,False,,,,73.6,1.0,i,1.0,True,1171.2999999988824,71.0,60.0,40.0,372.30805608245885,[],"[640, 360]",ColorTask,78.0,44.0,,,HRV,HRV_0060,2022-11-30 18:06:20
,wl-rdm,161,485222,0.0-8.44-0.44,1.0,161.0,,,,,,,[],,,,False,,,,73.6,0.0,u,0.0,True,1028.9000000003725,62.0,60.0,40.0,384.0525850210961,[],"[640, 360]",ColorTask,79.0,45.0,,,HRV,HRV_0060,2022-11-30 18:06:20
,wl-rdm,162,487706,0.0-8.45-0.45,1.0,162.0,,,,,,,[],,,,False,,,,62.5,0.0,u,0.0,True,1065.5999999996275,64.0,60.0,40.0,342.9258108708879,[],"[640, 360]",ColorTask,80.0,46.0,,,HRV,HRV_0060,2022-11-30 18:06:20
,wl-rdm,163,490190,0.0-8.46-0.46,1.0,163.0,,,,,,,[],,,,False,,,,56.4,0.0,i,1.0,False,1062.800000000745,64.0,60.0,40.0,361.3694796131109,[],"[640, 360]",ColorTask,79.0,47.0,,,HRV,HRV_0060,2022-11-30 18:06:20
,wl-rdm,164,492324,0.0-8.47-0.47,1.0,164.0,,,,,,,[],,,,False,,,,87.9,1.0,i,1.0,True,865.0999999996275,52.0,60.0,40.0,208.14474797461497,[],"[640, 360]",ColorTask,80.0,48.0,,,HRV,HRV_0060,2022-11-30 18:06:20
,wl-rdm,165,495191,0.0-8.48-0.48,1.0,165.0,,,,,,,[],,,,False,,,,56.4,0.0,u,0.0,True,1515.5999999996275,91.0,60.0,40.0,296.7220231775135,[],"[640, 360]",ColorTask,81.0,49.0,,,HRV,HRV_0060,2022-11-30 18:06:20
,wl-rdm,166,497608,0.0-8.49-0.49,1.0,166.0,,,,,,,[],,,,False,,,,87.9,0.0,u,0.0,True,975.6000000014901,59.0,60.0,40.0,371.8600717825566,[],"[640, 360]",ColorTask,82.0,50.0,,,HRV,HRV_0060,2022-11-30 18:06:20
,wl-rdm,167,500158,0.0-8.50-0.50,1.0,167.0,,,,,,,[],,,,False,,,,50.0,1.0,i,1.0,True,1079.5999999996275,65.0,60.0,40.0,389.7485003451335,[],"[640, 360]",ColorTask,83.0,51.0,,,HRV,HRV_0060,2022-11-30 18:06:20
,wl-rdm,168,502426,0.0-8.51-0.51,1.0,168.0,,,,,,,[],,,,False,,,,53.2,0.0,u,0.0,True,848.6999999992549,51.0,60.0,40.0,365.503746123416,[],"[640, 360]",ColorTask,84.0,52.0,,,HRV,HRV_0060,2022-11-30 18:06:20
,wl-rdm,169,504593,0.0-8.52-0.52,1.0,169.0,,,,,,,[],,,,False,,,,73.6,1.0,i,1.0,True,836.3000000007451,51.0,60.0,40.0,249.6301180547024,[],"[640, 360]",ColorTask,85.0,53.0,,,HRV,HRV_0060,2022-11-30 18:06:20
,wl-rdm,170,507277,0.0-8.53-0.53,1.0,170.0,,,,,,,[],,,,False,,,,53.2,0.0,i,1.0,False,1378.0,83.0,60.0,40.0,238.64241238913115,[],"[640, 360]",ColorTask,84.0,54.0,,,HRV,HRV_0060,2022-11-30 18:06:20
,wl-rdm,171,509677,0.0-8.54-0.54,1.0,171.0,,,,,,,[],,,,False,,,,87.9,0.0,u,0.0,True,944.0999999996275,57.0,60.0,40.0,373.8268557240274,[],"[640, 360]",ColorTask,85.0,55.0,,,HRV,HRV_0060,2022-11-30 18:06:20
,wl-rdm,172,512495,0.0-8.55-0.55,1.0,172.0,,,,,,,[],,,,False,,,,50.0,0.0,u,0.0,True,1416.5,85.0,60.0,40.0,326.60434291140785,[],"[640, 360]",ColorTask,86.0,56.0,,,HRV,HRV_0060,2022-11-30 18:06:20
,wl-rdm,173,515845,0.0-8.56-0.56,1.0,173.0,,,,,,,[],,,,False,,,,50.0,1.0,i,1.0,True,2062.0999999996275,124.0,60.0,40.0,205.63877119380962,[],"[640, 360]",ColorTask,87.0,57.0,,,HRV,HRV_0060,2022-11-30 18:06:20
,wl-rdm,174,518212,0.0-8.57-0.57,1.0,174.0,,,,,,,[],,,,False,,,,62.5,0.0,u,0.0,True,988.2999999988824,60.0,60.0,40.0,303.16561561265513,[],"[640, 360]",ColorTask,88.0,58.0,,,HRV,HRV_0060,2022-11-30 18:06:20
,wl-rdm,175,520380,0.0-8.58-0.58,1.0,175.0,,,,,,,[],,,,False,,,,56.4,1.0,u,0.0,False,795.8000000007451,48.0,60.0,40.0,290.533213712642,[],"[640, 360]",ColorTask,87.0,59.0,,,HRV,HRV_0060,2022-11-30 18:06:20
,wl-rdm,176,522547,0.0-8.59-0.59,1.0,176.0,,,,,,,[],,,,False,,,,53.2,1.0,i,1.0,True,886.9000000003725,54.0,60.0,40.0,212.66070130479133,[],"[640, 360]",ColorTask,88.0,60.0,,,HRV,HRV_0060,2022-11-30 18:06:20
,wl-rdm,177,524514,0.0-8.60-0.60,1.0,177.0,,,,,,,[],,,,False,,,,62.5,1.0,u,0.0,False,637.5000000018626,39.0,60.0,40.0,236.2273710042498,[],"[640, 360]",ColorTask,87.0,61.0,,,HRV,HRV_0060,2022-11-30 18:06:20
,wl-rdm,178,526649,0.0-8.61-0.61,1.0,178.0,,,,,,,[],,,,False,,,,73.6,0.0,u,0.0,True,771.1999999992549,47.0,60.0,40.0,293.81851437795547,[],"[640, 360]",ColorTask,88.0,62.0,,,HRV,HRV_0060,2022-11-30 18:06:20
,wl-rdm,179,528798,0.0-8.62-0.62,1.0,179.0,,,,,,,[],,,,False,,,,56.4,0.0,u,0.0,True,880.0999999996275,53.0,60.0,40.0,202.98905568284286,[],"[640, 360]",ColorTask,89.0,63.0,,,HRV,HRV_0060,2022-11-30 18:06:20
,wl-rdm,180,531715,0.0-8.63-0.63,1.0,180.0,,,,,,,[],,,,False,,,,62.5,1.0,i,1.0,True,1604.699999999255,97.0,60.0,40.0,245.4488204424694,[],"[640, 360]",ColorTask,90.0,64.0,,,HRV,HRV_0060,2022-11-30 18:06:20
,wl-rdm,181,533933,0.0-8.64-0.64,1.0,181.0,,,,,,,[],,,,False,,,,53.2,0.0,u,0.0,True,938.3000000007451,57.0,60.0,40.0,213.00258557390006,[],"[640, 360]",ColorTask,91.0,65.0,,,HRV,HRV_0060,2022-11-30 18:06:20
,wl-rdm,182,536350,0.0-8.65-0.65,1.0,182.0,,,,,,,[],,,,False,,,,62.5,0.0,i,1.0,False,1004.5999999996275,61.0,60.0,40.0,326.11268750083025,[],"[640, 360]",ColorTask,90.0,66.0,,,HRV,HRV_0060,2022-11-30 18:06:20
,wl-rdm,183,538500,0.0-8.66-0.66,1.0,183.0,,,,,,,[],,,,False,,,,50.0,0.0,u,0.0,True,829.4000000003725,50.0,60.0,40.0,244.6167817867264,[],"[640, 360]",ColorTask,91.0,67.0,,,HRV,HRV_0060,2022-11-30 18:06:20
,wl-rdm,184,541868,0.0-8.67-0.67,1.0,184.0,,,,,,,[],,,,False,,,,53.2,1.0,i,1.0,True,1895.5000000018626,114.0,60.0,40.0,398.57793230177396,[],"[640, 360]",ColorTask,92.0,68.0,,,HRV,HRV_0060,2022-11-30 18:06:20
,wl-rdm,185,544135,0.0-8.68-0.68,1.0,185.0,,,,,,,[],,,,False,,,,62.5,0.0,u,0.0,True,924.7999999988824,56.0,60.0,40.0,276.3315403107615,[],"[640, 360]",ColorTask,93.0,69.0,,,HRV,HRV_0060,2022-11-30 18:06:20
,wl-rdm,186,546535,0.0-8.69-0.69,1.0,186.0,,,,,,,[],,,,False,,,,73.6,1.0,i,1.0,True,922.1000000014901,56.0,60.0,40.0,396.4637249356065,[],"[640, 360]",ColorTask,94.0,70.0,,,HRV,HRV_0060,2022-11-30 18:06:20
,wl-rdm,187,548836,0.0-8.70-0.70,1.0,187.0,,,,,,,[],,,,False,,,,87.9,1.0,i,1.0,True,988.9000000003725,60.0,60.0,40.0,228.46307489347168,[],"[640, 360]",ColorTask,95.0,71.0,,,HRV,HRV_0060,2022-11-30 18:06:20
,wl-rdm,188,551536,0.0-8.71-0.71,1.0,188.0,,,,,,,[],,,,False,,,,56.4,1.0,i,1.0,True,1395.699999999255,84.0,60.0,40.0,240.85355467058025,[],"[640, 360]",ColorTask,96.0,72.0,,,HRV,HRV_0060,2022-11-30 18:06:20
,wl-rdm,189,554622,0.0-8.72-0.72,1.0,189.0,,,,,,,[],,,,False,,,,50.0,1.0,i,1.0,True,1625.4000000003725,98.0,60.0,40.0,397.69111557785345,[],"[640, 360]",ColorTask,97.0,73.0,,,HRV,HRV_0060,2022-11-30 18:06:20
,wl-rdm,190,557905,0.0-8.73-0.73,1.0,190.0,,,,,,,[],,,,False,,,,56.4,0.0,u,0.0,True,1974.7000000011176,119.0,60.0,40.0,234.7011320347097,[],"[640, 360]",ColorTask,98.0,74.0,,,HRV,HRV_0060,2022-11-30 18:06:20
,wl-rdm,191,560938,0.0-8.74-0.74,1.0,191.0,,,,,,,[],,,,False,,,,50.0,1.0,i,1.0,True,1621.4000000003725,98.0,60.0,40.0,348.38161006099045,[],"[640, 360]",ColorTask,99.0,75.0,,,HRV,HRV_0060,2022-11-30 18:06:20
,wl-rdm,192,564223,0.0-8.75-0.75,1.0,192.0,,,,,,,[],,,,False,,,,56.4,1.0,i,1.0,True,1879.1000000014901,113.0,60.0,40.0,329.8422704467994,[],"[640, 360]",ColorTask,100.0,76.0,,,HRV,HRV_0060,2022-11-30 18:06:20
,wl-rdm,193,567039,0.0-8.76-0.76,1.0,193.0,,,,,,,[],,,,False,,,,50.0,0.0,i,1.0,False,1522.5,92.0,60.0,40.0,209.94809646706605,[],"[640, 360]",ColorTask,99.0,77.0,,,HRV,HRV_0060,2022-11-30 18:06:20
,wl-rdm,194,569607,0.0-8.77-0.77,1.0,194.0,,,,,,,[],,,,False,,,,50.0,0.0,u,0.0,True,1276.5999999996275,77.0,60.0,40.0,219.83840734960708,[],"[640, 360]",ColorTask,100.0,78.0,,,HRV,HRV_0060,2022-11-30 18:06:20
,wl-rdm,195,572725,0.0-8.78-0.78,1.0,195.0,,,,,,,[],,,,False,,,,73.6,1.0,i,1.0,True,1660.9999999981374,100.0,60.0,40.0,382.6835543329626,[],"[640, 360]",ColorTask,101.0,79.0,,,HRV,HRV_0060,2022-11-30 18:06:20
,wl-rdm,196,575325,0.0-8.79-0.79,1.0,196.0,,,,,,,[],,,,False,,,,87.9,1.0,i,1.0,True,1189.4000000003725,72.0,60.0,40.0,326.44474620837036,[],"[640, 360]",ColorTask,102.0,80.0,,,HRV,HRV_0060,2022-11-30 18:06:20
,wl-rdm,197,577975,0.0-8.80-0.80,1.0,197.0,,,,,,,[],,,,False,,,,87.9,0.0,u,0.0,True,1237.2999999988824,75.0,60.0,40.0,344.9784332864111,[],"[640, 360]",ColorTask,103.0,81.0,,,HRV,HRV_0060,2022-11-30 18:06:20
,wl-rdm,198,580726,0.0-8.81-0.81,1.0,198.0,,,,,,,[],,,,False,,,,73.6,0.0,u,0.0,True,1438.699999999255,87.0,60.0,40.0,233.1171045032804,[],"[640, 360]",ColorTask,104.0,82.0,,,HRV,HRV_0060,2022-11-30 18:06:20
,wl-rdm,199,585194,0.0-8.82-0.82,1.0,198.0,,,,,,,[],,,,True,RT_timeout ,,,50.0,0.0,,,,,179.0,60.0,40.0,376.9378895131837,[],"[640, 360]",ColorTask,103.0,83.0,,,HRV,HRV_0060,2022-11-30 18:06:20
,wl-rdm,200,586277,0.0-8.83-0.83,1.0,198.0,,,,,,,[],,,,True,too_early ,,,56.4,1.0,i,,,178.80000000074506,0.0,60.0,40.0,376.27601171061804,[],"[640, 360]",ColorTask,102.0,84.0,,,HRV,HRV_0060,2022-11-30 18:06:20
,wl-rdm,201,588411,0.0-8.84-0.84,1.0,199.0,,,,,,,[],,,,False,,,,87.9,0.0,u,0.0,True,796.6999999992549,48.0,60.0,40.0,276.0716007439222,[],"[640, 360]",ColorTask,103.0,85.0,,,HRV,HRV_0060,2022-11-30 18:06:20
,wl-rdm,202,590728,0.0-8.85-0.85,1.0,200.0,,,,,,,[],,,,False,,,,87.9,0.0,u,0.0,True,880.9000000003725,53.0,60.0,40.0,379.7757835518711,[],"[640, 360]",ColorTask,104.0,86.0,,,HRV,HRV_0060,2022-11-30 18:06:20
,wl-rdm,203,593478,0.0-8.86-0.86,1.0,201.0,,,,,,,[],,,,False,,,,62.5,0.0,i,1.0,False,1323.6000000014901,80.0,60.0,40.0,350.17874478869936,[],"[640, 360]",ColorTask,103.0,87.0,,,HRV,HRV_0060,2022-11-30 18:06:20
,wl-rdm,204,595729,0.0-8.87-0.87,1.0,202.0,,,,,,,[],,,,False,,,,73.6,0.0,u,0.0,True,845.5,51.0,60.0,40.0,336.59030415724317,[],"[640, 360]",ColorTask,104.0,88.0,,,HRV,HRV_0060,2022-11-30 18:06:20
,wl-rdm,205,598229,0.0-8.88-0.88,1.0,203.0,,,,,,,[],,,,False,,,,73.6,1.0,u,0.0,False,1231.8000000026077,74.0,60.0,40.0,216.6067761656887,[],"[640, 360]",ColorTask,103.0,89.0,,,HRV,HRV_0060,2022-11-30 18:06:20
,wl-rdm,206,600380,0.0-8.89-0.89,1.0,204.0,,,,,,,[],,,,False,,,,87.9,1.0,i,1.0,True,703.0999999996275,43.0,60.0,40.0,370.5479600484613,[],"[640, 360]",ColorTask,104.0,90.0,,,HRV,HRV_0060,2022-11-30 18:06:20
,wl-rdm,207,602414,0.0-8.90-0.90,1.0,205.0,,,,,,,[],,,,False,,,,56.4,1.0,i,1.0,True,694.4000000003725,42.0,60.0,40.0,253.05117933536616,[],"[640, 360]",ColorTask,105.0,91.0,,,HRV,HRV_0060,2022-11-30 18:06:20
,wl-rdm,208,604347,0.0-8.91-0.91,1.0,206.0,,,,,,,[],,,,False,,,,87.9,1.0,i,1.0,True,586.6999999992549,36.0,60.0,40.0,274.72566884513554,[],"[640, 360]",ColorTask,106.0,92.0,,,HRV,HRV_0060,2022-11-30 18:06:20
,wl-rdm,209,606281,0.0-8.92-0.92,1.0,207.0,,,,,,,[],,,,False,,,,87.9,1.0,i,1.0,True,611.0,37.0,60.0,40.0,241.82711681584684,[],"[640, 360]",ColorTask,107.0,93.0,,,HRV,HRV_0060,2022-11-30 18:06:20
,wl-rdm,210,608415,0.0-8.93-0.93,1.0,208.0,,,,,,,[],,,,False,,,,50.0,0.0,u,0.0,True,806.4000000003725,49.0,60.0,40.0,235.33128062343076,[],"[640, 360]",ColorTask,108.0,94.0,,,HRV,HRV_0060,2022-11-30 18:06:20
,wl-rdm,211,610365,0.0-8.94-0.94,1.0,209.0,,,,,,,[],,,,False,,,,53.2,0.0,u,0.0,True,646.9000000022352,39.0,60.0,40.0,223.57244604467033,[],"[640, 360]",ColorTask,109.0,95.0,,,HRV,HRV_0060,2022-11-30 18:06:20
,wl-rdm,212,612449,0.0-8.95-0.95,1.0,210.0,,,,,,,[],,,,False,,,,53.2,1.0,u,0.0,False,724.1000000014901,44.0,60.0,40.0,289.14358766611383,[],"[640, 360]",ColorTask,108.0,96.0,,,HRV,HRV_0060,2022-11-30 18:06:20
,wl-rdm,213,614516,0.0-8.96-0.96,1.0,211.0,,,,,,,[],,,,False,,,,56.4,1.0,i,1.0,True,709.3000000026077,43.0,60.0,40.0,274.2638224186154,[],"[640, 360]",ColorTask,109.0,97.0,,,HRV,HRV_0060,2022-11-30 18:06:20
,wl-rdm,214,616683,0.0-8.97-0.97,1.0,212.0,,,,,,,[],,,,False,,,,62.5,0.0,u,0.0,True,708.0999999996275,43.0,60.0,40.0,392.96894625954405,[],"[640, 360]",ColorTask,110.0,98.0,,,HRV,HRV_0060,2022-11-30 18:06:20
,wl-rdm,215,620284,0.0-8.98-0.98,1.0,213.0,,,,,,,[],,,,False,,,,56.4,0.0,u,0.0,True,2215.2999999988824,133.0,60.0,40.0,331.56385230020146,[],"[640, 360]",ColorTask,111.0,99.0,,,HRV,HRV_0060,2022-11-30 18:06:20
,wl-rdm,216,622518,0.0-8.99-0.99,1.0,214.0,,,,,,,[],,,,False,,,,53.2,0.0,u,0.0,True,881.8999999985099,53.0,60.0,40.0,296.004254666709,[],"[640, 360]",ColorTask,112.0,100.0,,,HRV,HRV_0060,2022-11-30 18:06:20
,wl-rdm,217,624652,0.0-8.100-0.100,1.0,215.0,,,,,,,[],,,,False,,,,50.0,0.0,i,1.0,False,810.9000000003725,49.0,60.0,40.0,257.0995530868765,[],"[640, 360]",ColorTask,111.0,101.0,,,HRV,HRV_0060,2022-11-30 18:06:20
,wl-rdm,218,626736,0.0-8.101-0.101,1.0,216.0,,,,,,,[],,,,False,,,,50.0,0.0,u,0.0,True,771.1999999992549,47.0,60.0,40.0,243.41204503126295,[],"[640, 360]",ColorTask,112.0,102.0,,,HRV,HRV_0060,2022-11-30 18:06:20
,wl-rdm,219,628936,0.0-8.102-0.102,1.0,217.0,,,,,,,[],,,,False,,,,87.9,0.0,u,0.0,True,737.0,45.0,60.0,40.0,389.32760317296174,[],"[640, 360]",ColorTask,113.0,103.0,,,HRV,HRV_0060,2022-11-30 18:06:20
,wl-rdm,220,630853,0.0-8.103-0.103,1.0,218.0,,,,,,,[],,,,False,,,,50.0,1.0,u,0.0,False,526.6999999973923,32.0,60.0,40.0,324.1809969783123,[],"[640, 360]",ColorTask,112.0,104.0,,,HRV,HRV_0060,2022-11-30 18:06:20
,wl-rdm,221,632837,0.0-8.104-0.104,1.0,219.0,,,,,,,[],,,,False,,,,87.9,0.0,u,0.0,True,677.5,41.0,60.0,40.0,220.34615292859428,[],"[640, 360]",ColorTask,113.0,105.0,,,HRV,HRV_0060,2022-11-30 18:06:20
,wl-rdm,222,634837,0.0-8.105-0.105,1.0,220.0,,,,,,,[],,,,False,,,,56.4,1.0,u,0.0,False,636.6999999992549,39.0,60.0,40.0,299.7735242040696,[],"[640, 360]",ColorTask,112.0,106.0,,,HRV,HRV_0060,2022-11-30 18:06:20
,wl-rdm,223,636871,0.0-8.106-0.106,1.0,221.0,,,,,,,[],,,,False,,,,62.5,1.0,i,1.0,True,721.6999999992549,44.0,60.0,40.0,238.40211399319224,[],"[640, 360]",ColorTask,113.0,107.0,,,HRV,HRV_0060,2022-11-30 18:06:20
,wl-rdm,224,639488,0.0-8.107-0.107,1.0,222.0,,,,,,,[],,,,False,,,,56.4,1.0,u,0.0,False,1231.199999999255,74.0,60.0,40.0,330.3480208993956,[],"[640, 360]",ColorTask,112.0,108.0,,,HRV,HRV_0060,2022-11-30 18:06:20
,wl-rdm,225,642122,0.0-8.108-0.108,1.0,223.0,,,,,,,[],,,,False,,,,50.0,0.0,u,0.0,True,1216.7999999988824,73.0,60.0,40.0,347.45477574131945,[],"[640, 360]",ColorTask,113.0,109.0,,,HRV,HRV_0060,2022-11-30 18:06:20
,wl-rdm,226,644539,0.0-8.109-0.109,1.0,224.0,,,,,,,[],,,,False,,,,50.0,1.0,u,0.0,False,970.6999999992549,59.0,60.0,40.0,371.5904039112404,[],"[640, 360]",ColorTask,112.0,110.0,,,HRV,HRV_0060,2022-11-30 18:06:20
,wl-html-button-response,227,648658,0.0-9.0-0.0,,,,,,,,,,4109.0999999996275,,0,,,,,,,,,,,,,,,,,,,,<h3>End of this session. Thank you!</h3><br>,['Close window'],HRV,HRV_0060,2022-11-30 18:06:20
