trialN,stimuli,trialStartTime,trialStartTime_UNIX,stimulus1,stimulus2,stimulus1Bid,stimulus2Bid,delta,selected,rt,rt_UNIX,rt_perfnow,receivedResponse,rsp,trialEndTime,trialDuration,trialEndTime_UNIX,trialDuration_UNIX,exp,subjectId,date
0,"[{'imgObject': {}, 'id': 'orange slices', 'src': '/static/foodstim60/orange slices.jpg', 'key': 'u', 'origWidth': 409, 'origHeight': 410, 'width': 409, 'height': 410, 'widthPercent': 0.45, 'rescaleHeight': False, 'trialN': 0, 'loaded': True, 'loadedTime': 4242.9000000003725, 'positionName': 'LEFT', 'positionCoords': [205.4, 155], 'bid': 9.87}, {'imgObject': {}, 'id': 'blackbeanswithrice', 'src': '/static/foodstim60/blackbeanswithrice.jpg', 'key': 'i', 'origWidth': 410, 'origHeight': 410, 'width': 410, 'height': 410, 'widthPercent': 0.45, 'rescaleHeight': False, 'trialN': 0, 'loaded': True, 'loadedTime': 4428.300000000745, 'positionName': 'RIGHT', 'positionCoords': [665.6, 155], 'bid': 9.78}]",5803.4000000003725,1669829742218,orange slices,blackbeanswithrice,9.87,9.78,-0.08999999999999986,blackbeanswithrice,726.4000000003725,730,729.0,True,i,7043.800000000745,1240.4000000003725,1669829743459,1241,HRV,HRV_0060,2022-11-30 17:40:30
1,"[{'imgObject': {}, 'id': 'luckycharms', 'src': '/static/foodstim60/luckycharms.jpg', 'key': 'u', 'origWidth': 410, 'origHeight': 409, 'width': 410, 'height': 409, 'widthPercent': 0.45, 'rescaleHeight': False, 'trialN': 1, 'loaded': True, 'loadedTime': 4254.5999999996275, 'positionName': 'LEFT', 'positionCoords': [204.4, 155.5], 'bid': 0.18}, {'imgObject': {}, 'id': 'pear', 'src': '/static/foodstim60/pear.jpg', 'key': 'i', 'origWidth': 411, 'origHeight': 410, 'width': 411, 'height': 410, 'widthPercent': 0.45, 'rescaleHeight': False, 'trialN': 1, 'loaded': True, 'loadedTime': 4351.0999999996275, 'positionName': 'RIGHT', 'positionCoords': [665.6, 155], 'bid': 9.67}]",7044.0,1669829743459,luckycharms,pear,0.18,9.67,9.49,pear,1126.2000000011176,1127,1126.5,True,i,8684.200000001118,1640.2000000011176,1669829745099,1640,HRV,HRV_0060,2022-11-30 17:40:30
2,"[{'imgObject': {}, 'id': 'baked potato', 'src': '/static/foodstim60/baked potato.jpg', 'key': 'u', 'origWidth': 409, 'origHeight': 410, 'width': 409, 'height': 410, 'widthPercent': 0.45, 'rescaleHeight': False, 'trialN': 2, 'loaded': True, 'loadedTime': 4447.5999999996275, 'positionName': 'LEFT', 'positionCoords': [205.4, 155], 'bid': 5.03}, {'imgObject': {}, 'id': 'kiwi', 'src': '/static/foodstim60/kiwi.jpg', 'key': 'i', 'origWidth': 410, 'origHeight': 410, 'width': 410, 'height': 410, 'widthPercent': 0.45, 'rescaleHeight': False, 'trialN': 2, 'loaded': True, 'loadedTime': 4355.0999999996275, 'positionName': 'RIGHT', 'positionCoords': [665.6, 155], 'bid': 0.29}]",8684.900000000373,1669829745100,baked potato,kiwi,5.03,0.29,-4.74,baked potato,805.4000000003725,806,806.1999999992549,True,u,10008.200000001118,1323.300000000745,1669829746423,1323,HRV,HRV_0060,2022-11-30 17:40:30
3,"[{'imgObject': {}, 'id': 'raspberries', 'src': '/static/foodstim60/raspberries.jpg', 'key': 'u', 'origWidth': 411, 'origHeight': 411, 'width': 411, 'height': 411, 'widthPercent': 0.45, 'rescaleHeight': False, 'trialN': 3, 'loaded': True, 'loadedTime': 4362.9000000003725, 'positionName': 'LEFT', 'positionCoords': [203.4, 154.5], 'bid': 9.81}, {'imgObject': {}, 'id': 'chicken nuggets2', 'src': '/static/foodstim60/chicken nuggets2.jpg', 'key': 'i', 'origWidth': 410, 'origHeight': 409, 'width': 410, 'height': 409, 'widthPercent': 0.45, 'rescaleHeight': False, 'trialN': 3, 'loaded': True, 'loadedTime': 4437.5, 'positionName': 'RIGHT', 'positionCoords': [665.6, 155.5], 'bid': 9.82}]",10008.700000001118,1669829746424,raspberries,chicken nuggets2,9.81,9.82,0.009999999999999787,chicken nuggets2,1110.5,1111,1111.2999999988824,True,i,11622.400000000373,1613.699999999255,1669829748037,1613,HRV,HRV_0060,2022-11-30 17:40:30
4,"[{'imgObject': {}, 'id': 'mashed potato', 'src': '/static/foodstim60/mashed potato.jpg', 'key': 'u', 'origWidth': 409, 'origHeight': 409, 'width': 409, 'height': 409, 'widthPercent': 0.45, 'rescaleHeight': False, 'trialN': 4, 'loaded': True, 'loadedTime': 4462.300000000745, 'positionName': 'LEFT', 'positionCoords': [205.4, 155.5], 'bid': 4.93}, {'imgObject': {}, 'id': 'omelette', 'src': '/static/foodstim60/omelette.jpg', 'key': 'i', 'origWidth': 410, 'origHeight': 409, 'width': 410, 'height': 409, 'widthPercent': 0.45, 'rescaleHeight': False, 'trialN': 4, 'loaded': True, 'loadedTime': 4368, 'positionName': 'RIGHT', 'positionCoords': [665.6, 155.5], 'bid': 8.700000000000001}]",11623.099999999627,1669829748038,mashed potato,omelette,4.93,8.700000000000001,3.7700000000000014,mashed potato,788.8000000007451,790,789.7000000011176,True,u,12923.700000001118,1300.6000000014901,1669829749339,1301,HRV,HRV_0060,2022-11-30 17:40:30
5,"[{'imgObject': {}, 'id': 'Tribe humus pita', 'src': '/static/foodstim60/Tribe humus pita.jpg', 'key': 'u', 'origWidth': 411, 'origHeight': 411, 'width': 411, 'height': 411, 'widthPercent': 0.45, 'rescaleHeight': False, 'trialN': 5, 'loaded': True, 'loadedTime': 4456.200000001118, 'positionName': 'LEFT', 'positionCoords': [203.4, 154.5], 'bid': 6.75}, {'imgObject': {}, 'id': 'fried eggs', 'src': '/static/foodstim60/fried eggs.jpg', 'key': 'i', 'origWidth': 410, 'origHeight': 410, 'width': 410, 'height': 410, 'widthPercent': 0.45, 'rescaleHeight': False, 'trialN': 5, 'loaded': True, 'loadedTime': 4466.4000000003725, 'positionName': 'RIGHT', 'positionCoords': [665.6, 155], 'bid': 9.75}]",12924.5,1669829749340,Tribe humus pita,fried eggs,6.75,9.75,3.0,Tribe humus pita,871.5999999996275,872,872.8000000007451,True,u,14307.099999999627,1382.5999999996275,1669829750722,1382,HRV,HRV_0060,2022-11-30 17:40:30
6,"[{'imgObject': {}, 'id': 'eggs', 'src': '/static/foodstim60/eggs.jpg', 'key': 'u', 'origWidth': 409, 'origHeight': 409, 'width': 409, 'height': 409, 'widthPercent': 0.45, 'rescaleHeight': False, 'trialN': 6, 'loaded': True, 'loadedTime': 4949.700000001118, 'positionName': 'LEFT', 'positionCoords': [205.4, 155.5], 'bid': 9.87}, {'imgObject': {}, 'id': 'chickenfingers', 'src': '/static/foodstim60/chickenfingers.jpg', 'key': 'i', 'origWidth': 410, 'origHeight': 410, 'width': 410, 'height': 410, 'widthPercent': 0.45, 'rescaleHeight': False, 'trialN': 6, 'loaded': True, 'loadedTime': 4441.300000000745, 'positionName': 'RIGHT', 'positionCoords': [665.6, 155], 'bid': 9.87}]",14307.700000001118,1669829750723,eggs,chickenfingers,9.87,9.87,0.0,chickenfingers,1214.699999999255,1215,1215.699999999255,True,i,16032.5,1724.7999999988824,1669829752448,1725,HRV,HRV_0060,2022-11-30 17:40:30
7,"[{'imgObject': {}, 'id': 'rigatoni and sauce', 'src': '/static/foodstim60/rigatoni and sauce.jpg', 'key': 'u', 'origWidth': 410, 'origHeight': 411, 'width': 410, 'height': 411, 'widthPercent': 0.45, 'rescaleHeight': False, 'trialN': 7, 'loaded': True, 'loadedTime': 4453.5999999996275, 'positionName': 'LEFT', 'positionCoords': [204.4, 154.5], 'bid': 4.12}, {'imgObject': {}, 'id': 'raisin bran w milk', 'src': '/static/foodstim60/raisin bran w milk.jpg', 'key': 'i', 'origWidth': 411, 'origHeight': 411, 'width': 411, 'height': 411, 'widthPercent': 0.45, 'rescaleHeight': False, 'trialN': 7, 'loaded': True, 'loadedTime': 4460.300000000745, 'positionName': 'RIGHT', 'positionCoords': [665.6, 154.5], 'bid': 3.46}]",16033.099999999627,1669829752448,rigatoni and sauce,raisin bran w milk,4.12,3.46,-0.6600000000000001,raisin bran w milk,1121.5,1122,1122.300000000745,True,i,17664.0,1630.9000000003725,1669829754079,1631,HRV,HRV_0060,2022-11-30 17:40:30
8,"[{'imgObject': {}, 'id': 'turkey sandwich', 'src': '/static/foodstim60/turkey sandwich.jpg', 'key': 'u', 'origWidth': 409, 'origHeight': 409, 'width': 409, 'height': 409, 'widthPercent': 0.45, 'rescaleHeight': False, 'trialN': 8, 'loaded': True, 'loadedTime': 4464.5999999996275, 'positionName': 'LEFT', 'positionCoords': [205.4, 155.5], 'bid': 9.76}, {'imgObject': {}, 'id': 'kiwi', 'src': '/static/foodstim60/kiwi.jpg', 'key': 'i', 'origWidth': 410, 'origHeight': 410, 'width': 410, 'height': 410, 'widthPercent': 0.45, 'rescaleHeight': False, 'trialN': 8, 'loaded': True, 'loadedTime': 4357.5999999996275, 'positionName': 'RIGHT', 'positionCoords': [665.6, 155], 'bid': 0.29}]",17664.5,1669829754080,turkey sandwich,kiwi,9.76,0.29,-9.47,turkey sandwich,678.5,679,679.2000000011176,True,u,18847.0,1182.5,1669829755262,1182,HRV,HRV_0060,2022-11-30 17:40:30
9,"[{'imgObject': {}, 'id': 'granola w milk', 'src': '/static/foodstim60/granola w milk.jpg', 'key': 'u', 'origWidth': 410, 'origHeight': 410, 'width': 410, 'height': 410, 'widthPercent': 0.45, 'rescaleHeight': False, 'trialN': 9, 'loaded': True, 'loadedTime': 4469.5999999996275, 'positionName': 'LEFT', 'positionCoords': [204.4, 155], 'bid': 0.7000000000000001}, {'imgObject': {}, 'id': 'cherry tomato', 'src': '/static/foodstim60/cherry tomato.jpg', 'key': 'i', 'origWidth': 410, 'origHeight': 410, 'width': 410, 'height': 410, 'widthPercent': 0.45, 'rescaleHeight': False, 'trialN': 9, 'loaded': True, 'loadedTime': 4471.5, 'positionName': 'RIGHT', 'positionCoords': [665.6, 155], 'bid': 0.09}]",18847.599999999627,1669829755263,granola w milk,cherry tomato,0.7000000000000001,0.09,-0.6100000000000001,granola w milk,1089.1000000014901,1090,1090.2000000011176,True,u,20448.0,1600.4000000003725,1669829756863,1600,HRV,HRV_0060,2022-11-30 17:40:30
10,"[{'imgObject': {}, 'id': 'granola w milk', 'src': '/static/foodstim60/granola w milk.jpg', 'key': 'u', 'origWidth': 410, 'origHeight': 410, 'width': 410, 'height': 410, 'widthPercent': 0.45, 'rescaleHeight': False, 'trialN': 10, 'loaded': True, 'loadedTime': 4469, 'positionName': 'LEFT', 'positionCoords': [204.4, 155], 'bid': 0.7000000000000001}, {'imgObject': {}, 'id': 'cantaloupe', 'src': '/static/foodstim60/cantaloupe.jpg', 'key': 'i', 'origWidth': 409, 'origHeight': 409, 'width': 409, 'height': 409, 'widthPercent': 0.45, 'rescaleHeight': False, 'trialN': 10, 'loaded': True, 'loadedTime': 4474.800000000745, 'positionName': 'RIGHT', 'positionCoords': [665.6, 155.5], 'bid': 0.4}]",20448.900000000373,1669829756864,granola w milk,cantaloupe,0.7000000000000001,0.4,-0.30000000000000004,granola w milk,915.9000000003725,917,917.0,True,u,21877.0,1428.0999999996275,1669829758292,1428,HRV,HRV_0060,2022-11-30 17:40:30
11,"[{'imgObject': {}, 'id': 'banana', 'src': '/static/foodstim60/banana.jpg', 'key': 'u', 'origWidth': 410, 'origHeight': 410, 'width': 410, 'height': 410, 'widthPercent': 0.45, 'rescaleHeight': False, 'trialN': 11, 'loaded': True, 'loadedTime': 4478.700000001118, 'positionName': 'LEFT', 'positionCoords': [204.4, 155], 'bid': 10}, {'imgObject': {}, 'id': 'blueberries', 'src': '/static/foodstim60/blueberries.jpg', 'key': 'i', 'origWidth': 411, 'origHeight': 411, 'width': 411, 'height': 411, 'widthPercent': 0.45, 'rescaleHeight': False, 'trialN': 11, 'loaded': True, 'loadedTime': 4482.5, 'positionName': 'RIGHT', 'positionCoords': [665.6, 154.5], 'bid': 8.07}]",21877.5,1669829758293,banana,blueberries,10.0,8.07,-1.9299999999999997,banana,995.4000000003725,995,995.9000000003725,True,u,23385.900000000373,1508.4000000003725,1669829759801,1508,HRV,HRV_0060,2022-11-30 17:40:30
12,"[{'imgObject': {}, 'id': 'kiwi', 'src': '/static/foodstim60/kiwi.jpg', 'key': 'u', 'origWidth': 410, 'origHeight': 410, 'width': 410, 'height': 410, 'widthPercent': 0.45, 'rescaleHeight': False, 'trialN': 12, 'loaded': True, 'loadedTime': 4358.4000000003725, 'positionName': 'LEFT', 'positionCoords': [204.4, 155], 'bid': 0.29}, {'imgObject': {}, 'id': 'seaweed', 'src': '/static/foodstim60/seaweed.jpg', 'key': 'i', 'origWidth': 410, 'origHeight': 410, 'width': 410, 'height': 410, 'widthPercent': 0.45, 'rescaleHeight': False, 'trialN': 12, 'loaded': True, 'loadedTime': 4482.700000001118, 'positionName': 'RIGHT', 'positionCoords': [665.6, 155], 'bid': 0.31}]",23386.099999999627,1669829759801,kiwi,seaweed,0.29,0.31,0.020000000000000018,kiwi,955.4000000003725,957,956.3000000007451,True,u,24850.599999999627,1464.5,1669829761266,1465,HRV,HRV_0060,2022-11-30 17:40:30
13,"[{'imgObject': {}, 'id': 'chickenfingers', 'src': '/static/foodstim60/chickenfingers.jpg', 'key': 'u', 'origWidth': 410, 'origHeight': 410, 'width': 410, 'height': 410, 'widthPercent': 0.45, 'rescaleHeight': False, 'trialN': 13, 'loaded': True, 'loadedTime': 4442.200000001118, 'positionName': 'LEFT', 'positionCoords': [204.4, 155], 'bid': 9.87}, {'imgObject': {}, 'id': 'turkey sandwich', 'src': '/static/foodstim60/turkey sandwich.jpg', 'key': 'i', 'origWidth': 409, 'origHeight': 409, 'width': 409, 'height': 409, 'widthPercent': 0.45, 'rescaleHeight': False, 'trialN': 13, 'loaded': True, 'loadedTime': 4464.700000001118, 'positionName': 'RIGHT', 'positionCoords': [665.6, 155.5], 'bid': 9.76}]",24851.599999999627,1669829761267,chickenfingers,turkey sandwich,9.87,9.76,-0.10999999999999943,chickenfingers,994.3000000007451,995,995.3000000007451,True,u,26356.300000000745,1504.7000000011176,1669829762771,1504,HRV,HRV_0060,2022-11-30 17:40:30
14,"[{'imgObject': {}, 'id': 'cocktailshrimp', 'src': '/static/foodstim60/cocktailshrimp.jpg', 'key': 'u', 'origWidth': 410, 'origHeight': 410, 'width': 410, 'height': 410, 'widthPercent': 0.45, 'rescaleHeight': False, 'trialN': 14, 'loaded': True, 'loadedTime': 4485.9000000003725, 'positionName': 'LEFT', 'positionCoords': [204.4, 155], 'bid': 9.81}, {'imgObject': {}, 'id': 'mango', 'src': '/static/foodstim60/mango.jpg', 'key': 'i', 'origWidth': 411, 'origHeight': 411, 'width': 411, 'height': 411, 'widthPercent': 0.45, 'rescaleHeight': False, 'trialN': 14, 'loaded': True, 'loadedTime': 4486.700000001118, 'positionName': 'RIGHT', 'positionCoords': [665.6, 154.5], 'bid': 1.09}]",26356.900000000373,1669829762772,cocktailshrimp,mango,9.81,1.09,-8.72,cocktailshrimp,920.4000000003725,921,921.3000000007451,True,u,27781.900000000373,1425.0,1669829764197,1425,HRV,HRV_0060,2022-11-30 17:40:30
15,"[{'imgObject': {}, 'id': 'orange slices', 'src': '/static/foodstim60/orange slices.jpg', 'key': 'u', 'origWidth': 409, 'origHeight': 410, 'width': 409, 'height': 410, 'widthPercent': 0.45, 'rescaleHeight': False, 'trialN': 15, 'loaded': True, 'loadedTime': 4242.4000000003725, 'positionName': 'LEFT', 'positionCoords': [205.4, 155], 'bid': 9.87}, {'imgObject': {}, 'id': 'roastedpotatoes', 'src': '/static/foodstim60/roastedpotatoes.jpg', 'key': 'i', 'origWidth': 409, 'origHeight': 410, 'width': 409, 'height': 410, 'widthPercent': 0.45, 'rescaleHeight': False, 'trialN': 15, 'loaded': True, 'loadedTime': 5009.5999999996275, 'positionName': 'RIGHT', 'positionCoords': [665.6, 155], 'bid': 9.75}]",27782.599999999627,1669829764198,orange slices,roastedpotatoes,9.87,9.75,-0.11999999999999922,roastedpotatoes,805.5,806,806.5,True,i,29102.200000001118,1319.6000000014901,1669829765517,1319,HRV,HRV_0060,2022-11-30 17:40:30
16,"[{'imgObject': {}, 'id': 'strawberries', 'src': '/static/foodstim60/strawberries.jpg', 'key': 'u', 'origWidth': 410, 'origHeight': 410, 'width': 410, 'height': 410, 'widthPercent': 0.45, 'rescaleHeight': False, 'trialN': 16, 'loaded': True, 'loadedTime': 4488.4000000003725, 'positionName': 'LEFT', 'positionCoords': [204.4, 155], 'bid': 9.78}, {'imgObject': {}, 'id': 'apple slices', 'src': '/static/foodstim60/apple slices.jpg', 'key': 'i', 'origWidth': 409, 'origHeight': 410, 'width': 409, 'height': 410, 'widthPercent': 0.45, 'rescaleHeight': False, 'trialN': 16, 'loaded': True, 'loadedTime': 4893, 'positionName': 'RIGHT', 'positionCoords': [665.6, 155], 'bid': 9.85}]",29102.900000000373,1669829765518,strawberries,apple slices,9.78,9.85,0.07000000000000028,apple slices,838.1999999992549,839,838.5,True,i,30456.400000000373,1353.5,1669829766872,1354,HRV,HRV_0060,2022-11-30 17:40:30
17,"[{'imgObject': {}, 'id': 'omelette', 'src': '/static/foodstim60/omelette.jpg', 'key': 'u', 'origWidth': 410, 'origHeight': 409, 'width': 410, 'height': 409, 'widthPercent': 0.45, 'rescaleHeight': False, 'trialN': 17, 'loaded': True, 'loadedTime': 4397.800000000745, 'positionName': 'LEFT', 'positionCoords': [204.4, 155.5], 'bid': 8.700000000000001}, {'imgObject': {}, 'id': 'Tribe humus pita', 'src': '/static/foodstim60/Tribe humus pita.jpg', 'key': 'i', 'origWidth': 411, 'origHeight': 411, 'width': 411, 'height': 411, 'widthPercent': 0.45, 'rescaleHeight': False, 'trialN': 17, 'loaded': True, 'loadedTime': 4458, 'positionName': 'RIGHT', 'positionCoords': [665.6, 154.5], 'bid': 6.75}]",30457.099999999627,1669829766872,omelette,Tribe humus pita,8.700000000000001,6.75,-1.950000000000001,Tribe humus pita,1132,1133,1133.1000000014901,True,i,32090.700000001118,1633.6000000014901,1669829768506,1634,HRV,HRV_0060,2022-11-30 17:40:30
18,"[{'imgObject': {}, 'id': 'yogurt no spoon', 'src': '/static/foodstim60/yogurt no spoon.jpg', 'key': 'u', 'origWidth': 411, 'origHeight': 410, 'width': 411, 'height': 410, 'widthPercent': 0.45, 'rescaleHeight': False, 'trialN': 18, 'loaded': True, 'loadedTime': 4491.0999999996275, 'positionName': 'LEFT', 'positionCoords': [203.4, 155], 'bid': 8.73}, {'imgObject': {}, 'id': 'burger', 'src': '/static/foodstim60/burger.jpg', 'key': 'i', 'origWidth': 409, 'origHeight': 409, 'width': 409, 'height': 409, 'widthPercent': 0.45, 'rescaleHeight': False, 'trialN': 18, 'loaded': True, 'loadedTime': 4493.300000000745, 'positionName': 'RIGHT', 'positionCoords': [665.6, 155.5], 'bid': 9.79}]",32091.400000000373,1669829768507,yogurt no spoon,burger,8.73,9.79,1.0599999999999987,burger,876.8000000007451,877,877.8000000007451,True,i,33485.0,1393.5999999996275,1669829769900,1393,HRV,HRV_0060,2022-11-30 17:40:30
19,"[{'imgObject': {}, 'id': 'hotdog w must', 'src': '/static/foodstim60/hotdog w must.jpg', 'key': 'u', 'origWidth': 409, 'origHeight': 409, 'width': 409, 'height': 409, 'widthPercent': 0.45, 'rescaleHeight': False, 'trialN': 19, 'loaded': True, 'loadedTime': 4895.4000000003725, 'positionName': 'LEFT', 'positionCoords': [205.4, 155.5], 'bid': 9.98}, {'imgObject': {}, 'id': 'Tribe humus pita', 'src': '/static/foodstim60/Tribe humus pita.jpg', 'key': 'i', 'origWidth': 411, 'origHeight': 411, 'width': 411, 'height': 411, 'widthPercent': 0.45, 'rescaleHeight': False, 'trialN': 19, 'loaded': True, 'loadedTime': 4457.4000000003725, 'positionName': 'RIGHT', 'positionCoords': [665.6, 154.5], 'bid': 6.75}]",33485.40000000037,1669829769900,hotdog w must,Tribe humus pita,9.98,6.75,-3.2300000000000004,hotdog w must,859.3000000007451,860,860.0,True,u,34853.800000000745,1368.4000000003725,1669829771269,1369,HRV,HRV_0060,2022-11-30 17:40:30
20,"[{'imgObject': {}, 'id': 'omelette', 'src': '/static/foodstim60/omelette.jpg', 'key': 'u', 'origWidth': 410, 'origHeight': 409, 'width': 410, 'height': 409, 'widthPercent': 0.45, 'rescaleHeight': False, 'trialN': 20, 'loaded': True, 'loadedTime': 4397, 'positionName': 'LEFT', 'positionCoords': [204.4, 155.5], 'bid': 8.700000000000001}, {'imgObject': {}, 'id': 'steak', 'src': '/static/foodstim60/steak.jpg', 'key': 'i', 'origWidth': 410, 'origHeight': 410, 'width': 410, 'height': 410, 'widthPercent': 0.45, 'rescaleHeight': False, 'trialN': 20, 'loaded': True, 'loadedTime': 4494.5, 'positionName': 'RIGHT', 'positionCoords': [665.6, 155], 'bid': 9.79}]",34854.20000000112,1669829771269,omelette,steak,8.700000000000001,9.79,1.089999999999998,steak,756.5,757,757.0,True,i,36129.70000000112,1275.5,1669829772545,1276,HRV,HRV_0060,2022-11-30 17:40:30
21,"[{'imgObject': {}, 'id': 'omelette', 'src': '/static/foodstim60/omelette.jpg', 'key': 'u', 'origWidth': 410, 'origHeight': 409, 'width': 410, 'height': 409, 'widthPercent': 0.45, 'rescaleHeight': False, 'trialN': 21, 'loaded': True, 'loadedTime': 4365.800000000745, 'positionName': 'LEFT', 'positionCoords': [204.4, 155.5], 'bid': 8.700000000000001}, {'imgObject': {}, 'id': 'yogurt no spoon', 'src': '/static/foodstim60/yogurt no spoon.jpg', 'key': 'i', 'origWidth': 411, 'origHeight': 410, 'width': 411, 'height': 410, 'widthPercent': 0.45, 'rescaleHeight': False, 'trialN': 21, 'loaded': True, 'loadedTime': 4491.4000000003725, 'positionName': 'RIGHT', 'positionCoords': [665.6, 155], 'bid': 8.73}]",36129.90000000037,1669829772545,omelette,yogurt no spoon,8.700000000000001,8.73,0.02999999999999936,yogurt no spoon,1168.5999999996275,1169,1169.0,True,i,37817.90000000037,1688.0,1669829774233,1688,HRV,HRV_0060,2022-11-30 17:40:30
22,"[{'imgObject': {}, 'id': 'edamame', 'src': '/static/foodstim60/edamame.jpg', 'key': 'u', 'origWidth': 409, 'origHeight': 410, 'width': 409, 'height': 410, 'widthPercent': 0.45, 'rescaleHeight': False, 'trialN': 22, 'loaded': True, 'loadedTime': 4506.700000001118, 'positionName': 'LEFT', 'positionCoords': [205.4, 155], 'bid': 0.2}, {'imgObject': {}, 'id': 'rigatoni and sauce', 'src': '/static/foodstim60/rigatoni and sauce.jpg', 'key': 'i', 'origWidth': 410, 'origHeight': 411, 'width': 410, 'height': 411, 'widthPercent': 0.45, 'rescaleHeight': False, 'trialN': 22, 'loaded': True, 'loadedTime': 4455.4000000003725, 'positionName': 'RIGHT', 'positionCoords': [665.6, 154.5], 'bid': 4.12}]",37818.40000000037,1669829774234,edamame,rigatoni and sauce,0.2,4.12,3.92,rigatoni and sauce,857.8000000007451,858,858.3000000007451,True,i,39189.800000000745,1371.4000000003725,1669829775605,1371,HRV,HRV_0060,2022-11-30 17:40:30
23,"[{'imgObject': {}, 'id': 'froot loops w milk', 'src': '/static/foodstim60/froot loops w milk.jpg', 'key': 'u', 'origWidth': 410, 'origHeight': 410, 'width': 410, 'height': 410, 'widthPercent': 0.45, 'rescaleHeight': False, 'trialN': 23, 'loaded': True, 'loadedTime': 4733.200000001118, 'positionName': 'LEFT', 'positionCoords': [204.4, 155], 'bid': 0.28}, {'imgObject': {}, 'id': 'eggsalad', 'src': '/static/foodstim60/eggsalad.jpg', 'key': 'i', 'origWidth': 410, 'origHeight': 409, 'width': 410, 'height': 409, 'widthPercent': 0.45, 'rescaleHeight': False, 'trialN': 23, 'loaded': True, 'loadedTime': 4510, 'positionName': 'RIGHT', 'positionCoords': [665.6, 155.5], 'bid': 2.46}]",39191.09999999963,1669829775606,froot loops w milk,eggsalad,0.28,2.46,2.1799999999999997,froot loops w milk,1085.4000000003725,1086,1086.1000000014901,True,u,40794.40000000037,1603.300000000745,1669829777210,1604,HRV,HRV_0060,2022-11-30 17:40:30
24,"[{'imgObject': {}, 'id': 'lox', 'src': '/static/foodstim60/lox.jpg', 'key': 'u', 'origWidth': 410, 'origHeight': 411, 'width': 410, 'height': 411, 'widthPercent': 0.45, 'rescaleHeight': False, 'trialN': 24, 'loaded': True, 'loadedTime': 4731.5, 'positionName': 'LEFT', 'positionCoords': [204.4, 154.5], 'bid': 9.78}, {'imgObject': {}, 'id': 'hotdog w must', 'src': '/static/foodstim60/hotdog w must.jpg', 'key': 'i', 'origWidth': 409, 'origHeight': 409, 'width': 409, 'height': 409, 'widthPercent': 0.45, 'rescaleHeight': False, 'trialN': 24, 'loaded': True, 'loadedTime': 4895.200000001118, 'positionName': 'RIGHT', 'positionCoords': [665.6, 155.5], 'bid': 9.98}]",40794.800000000745,1669829777210,lox,hotdog w must,9.78,9.98,0.20000000000000107,hotdog w must,696.5999999996275,698,697.6999999992549,True,i,42007.59999999963,1212.7999999988824,1669829778423,1213,HRV,HRV_0060,2022-11-30 17:40:30
25,"[{'imgObject': {}, 'id': 'sushi w_condiments', 'src': '/static/foodstim60/sushi w_condiments.jpg', 'key': 'u', 'origWidth': 410, 'origHeight': 410, 'width': 410, 'height': 410, 'widthPercent': 0.45, 'rescaleHeight': False, 'trialN': 25, 'loaded': True, 'loadedTime': 4817.200000001118, 'positionName': 'LEFT', 'positionCoords': [204.4, 155], 'bid': 9.31}, {'imgObject': {}, 'id': 'avocado', 'src': '/static/foodstim60/avocado.jpg', 'key': 'i', 'origWidth': 409, 'origHeight': 409, 'width': 409, 'height': 409, 'widthPercent': 0.45, 'rescaleHeight': False, 'trialN': 25, 'loaded': True, 'loadedTime': 4823.800000000745, 'positionName': 'RIGHT', 'positionCoords': [665.6, 155.5], 'bid': 9.67}]",42008.0,1669829778423,sushi w_condiments,avocado,9.31,9.67,0.35999999999999943,sushi w_condiments,885.3000000007451,887,886.4000000003725,True,u,43409.09999999963,1401.0999999996275,1669829779824,1401,HRV,HRV_0060,2022-11-30 17:40:30
26,"[{'imgObject': {}, 'id': 'chicken nuggets2', 'src': '/static/foodstim60/chicken nuggets2.jpg', 'key': 'u', 'origWidth': 410, 'origHeight': 409, 'width': 410, 'height': 409, 'widthPercent': 0.45, 'rescaleHeight': False, 'trialN': 26, 'loaded': True, 'loadedTime': 4434.5, 'positionName': 'LEFT', 'positionCoords': [204.4, 155.5], 'bid': 9.82}, {'imgObject': {}, 'id': 'turkey sandwich', 'src': '/static/foodstim60/turkey sandwich.jpg', 'key': 'i', 'origWidth': 409, 'origHeight': 409, 'width': 409, 'height': 409, 'widthPercent': 0.45, 'rescaleHeight': False, 'trialN': 26, 'loaded': True, 'loadedTime': 4464.200000001118, 'positionName': 'RIGHT', 'positionCoords': [665.6, 155.5], 'bid': 9.76}]",43409.70000000112,1669829779825,chicken nuggets2,turkey sandwich,9.82,9.76,-0.0600000000000005,chicken nuggets2,674.3999999985099,676,675.5999999996275,True,u,44590.40000000037,1180.699999999255,1669829781006,1181,HRV,HRV_0060,2022-11-30 17:40:30
27,"[{'imgObject': {}, 'id': 'rigatoni', 'src': '/static/foodstim60/rigatoni.jpg', 'key': 'u', 'origWidth': 411, 'origHeight': 411, 'width': 411, 'height': 411, 'widthPercent': 0.45, 'rescaleHeight': False, 'trialN': 27, 'loaded': True, 'loadedTime': 5018.0999999996275, 'positionName': 'LEFT', 'positionCoords': [203.4, 154.5], 'bid': 4.7}, {'imgObject': {}, 'id': 'rigatoni and sauce', 'src': '/static/foodstim60/rigatoni and sauce.jpg', 'key': 'i', 'origWidth': 410, 'origHeight': 411, 'width': 410, 'height': 411, 'widthPercent': 0.45, 'rescaleHeight': False, 'trialN': 27, 'loaded': True, 'loadedTime': 4455.700000001118, 'positionName': 'RIGHT', 'positionCoords': [665.6, 154.5], 'bid': 4.12}]",44590.59999999963,1669829781006,rigatoni,rigatoni and sauce,4.7,4.12,-0.5800000000000001,rigatoni and sauce,938.6000000014901,939,939.5,True,i,46051.300000000745,1460.7000000011176,1669829782466,1460,HRV,HRV_0060,2022-11-30 17:40:30
28,"[{'imgObject': {}, 'id': 'seaweed', 'src': '/static/foodstim60/seaweed.jpg', 'key': 'u', 'origWidth': 410, 'origHeight': 410, 'width': 410, 'height': 410, 'widthPercent': 0.45, 'rescaleHeight': False, 'trialN': 28, 'loaded': True, 'loadedTime': 4484.300000000745, 'positionName': 'LEFT', 'positionCoords': [204.4, 155], 'bid': 0.31}, {'imgObject': {}, 'id': 'Grapes', 'src': '/static/foodstim60/Grapes.jpg', 'key': 'i', 'origWidth': 411, 'origHeight': 411, 'width': 411, 'height': 411, 'widthPercent': 0.45, 'rescaleHeight': False, 'trialN': 28, 'loaded': True, 'loadedTime': 5173.200000001118, 'positionName': 'RIGHT', 'positionCoords': [665.6, 154.5], 'bid': 0}]",46051.90000000037,1669829782467,seaweed,Grapes,0.31,0.0,-0.31,Grapes,822.4000000003725,823,823.3000000007451,True,i,47391.5,1339.5999999996275,1669829783807,1340,HRV,HRV_0060,2022-11-30 17:40:30
29,"[{'imgObject': {}, 'id': 'blueberries', 'src': '/static/foodstim60/blueberries.jpg', 'key': 'u', 'origWidth': 411, 'origHeight': 411, 'width': 411, 'height': 411, 'widthPercent': 0.45, 'rescaleHeight': False, 'trialN': 29, 'loaded': True, 'loadedTime': 4482.5, 'positionName': 'LEFT', 'positionCoords': [203.4, 154.5], 'bid': 8.07}, {'imgObject': {}, 'id': 'Tribe humus pita', 'src': '/static/foodstim60/Tribe humus pita.jpg', 'key': 'i', 'origWidth': 411, 'origHeight': 411, 'width': 411, 'height': 411, 'widthPercent': 0.45, 'rescaleHeight': False, 'trialN': 29, 'loaded': True, 'loadedTime': 4458.200000001118, 'positionName': 'RIGHT', 'positionCoords': [665.6, 154.5], 'bid': 6.75}]",47392.09999999963,1669829783807,blueberries,Tribe humus pita,8.07,6.75,-1.3200000000000003,Tribe humus pita,688.5,690,689.7000000011176,True,i,48602.20000000112,1210.1000000014901,1669829785017,1210,HRV,HRV_0060,2022-11-30 17:40:30
30,"[{'imgObject': {}, 'id': 'bagel and cc', 'src': '/static/foodstim60/bagel and cc.jpg', 'key': 'u', 'origWidth': 410, 'origHeight': 410, 'width': 410, 'height': 410, 'widthPercent': 0.45, 'rescaleHeight': False, 'trialN': 30, 'loaded': True, 'loadedTime': 4895.800000000745, 'positionName': 'LEFT', 'positionCoords': [204.4, 155], 'bid': 9.64}, {'imgObject': {}, 'id': 'sushi w_condiments', 'src': '/static/foodstim60/sushi w_condiments.jpg', 'key': 'i', 'origWidth': 410, 'origHeight': 410, 'width': 410, 'height': 410, 'widthPercent': 0.45, 'rescaleHeight': False, 'trialN': 30, 'loaded': True, 'loadedTime': 4821.0999999996275, 'positionName': 'RIGHT', 'positionCoords': [665.6, 155], 'bid': 9.31}]",48602.800000000745,1669829785018,bagel and cc,sushi w_condiments,9.64,9.31,-0.33000000000000007,sushi w_condiments,647.5999999996275,649,648.5999999996275,True,i,49768.59999999963,1165.7999999988824,1669829786184,1166,HRV,HRV_0060,2022-11-30 17:40:30
31,"[{'imgObject': {}, 'id': 'mac & cheese', 'src': '/static/foodstim60/mac & cheese.jpg', 'key': 'u', 'origWidth': 410, 'origHeight': 410, 'width': 410, 'height': 410, 'widthPercent': 0.45, 'rescaleHeight': False, 'trialN': 31, 'loaded': True, 'loadedTime': 4942.5, 'positionName': 'LEFT', 'positionCoords': [204.4, 155], 'bid': 0.71}, {'imgObject': {}, 'id': 'granola w milk', 'src': '/static/foodstim60/granola w milk.jpg', 'key': 'i', 'origWidth': 410, 'origHeight': 410, 'width': 410, 'height': 410, 'widthPercent': 0.45, 'rescaleHeight': False, 'trialN': 31, 'loaded': True, 'loadedTime': 4468.5999999996275, 'positionName': 'RIGHT', 'positionCoords': [665.6, 155], 'bid': 0.7000000000000001}]",49769.20000000112,1669829786184,mac & cheese,granola w milk,0.71,0.7000000000000001,-0.009999999999999898,mac & cheese,741.7999999988824,743,742.8999999985099,True,u,51025.90000000037,1256.699999999255,1669829787441,1257,HRV,HRV_0060,2022-11-30 17:40:30
32,"[{'imgObject': {}, 'id': 'raspberries', 'src': '/static/foodstim60/raspberries.jpg', 'key': 'u', 'origWidth': 411, 'origHeight': 411, 'width': 411, 'height': 411, 'widthPercent': 0.45, 'rescaleHeight': False, 'trialN': 32, 'loaded': True, 'loadedTime': 4361.5999999996275, 'positionName': 'LEFT', 'positionCoords': [203.4, 154.5], 'bid': 9.81}, {'imgObject': {}, 'id': 'bagel and cc', 'src': '/static/foodstim60/bagel and cc.jpg', 'key': 'i', 'origWidth': 410, 'origHeight': 410, 'width': 410, 'height': 410, 'widthPercent': 0.45, 'rescaleHeight': False, 'trialN': 32, 'loaded': True, 'loadedTime': 4942.300000000745, 'positionName': 'RIGHT', 'positionCoords': [665.6, 155], 'bid': 9.64}]",51026.5,1669829787442,raspberries,bagel and cc,9.81,9.64,-0.16999999999999993,bagel and cc,1075.4000000003725,1075,1075.800000000745,True,i,52619.09999999963,1592.5999999996275,1669829789034,1592,HRV,HRV_0060,2022-11-30 17:40:30
33,"[{'imgObject': {}, 'id': 'raisin bran w milk', 'src': '/static/foodstim60/raisin bran w milk.jpg', 'key': 'u', 'origWidth': 411, 'origHeight': 411, 'width': 411, 'height': 411, 'widthPercent': 0.45, 'rescaleHeight': False, 'trialN': 33, 'loaded': True, 'loadedTime': 4460.4000000003725, 'positionName': 'LEFT', 'positionCoords': [203.4, 154.5], 'bid': 3.46}, {'imgObject': {}, 'id': 'granola w milk', 'src': '/static/foodstim60/granola w milk.jpg', 'key': 'i', 'origWidth': 410, 'origHeight': 410, 'width': 410, 'height': 410, 'widthPercent': 0.45, 'rescaleHeight': False, 'trialN': 33, 'loaded': True, 'loadedTime': 4469.200000001118, 'positionName': 'RIGHT', 'positionCoords': [665.6, 155], 'bid': 0.7000000000000001}]",52619.59999999963,1669829789035,raisin bran w milk,granola w milk,3.46,0.7000000000000001,-2.76,granola w milk,721.8000000007451,722,722.7000000011176,True,i,53845.09999999963,1225.5,1669829790260,1225,HRV,HRV_0060,2022-11-30 17:40:30
34,"[{'imgObject': {}, 'id': 'olives', 'src': '/static/foodstim60/olives.jpg', 'key': 'u', 'origWidth': 410, 'origHeight': 410, 'width': 410, 'height': 410, 'widthPercent': 0.45, 'rescaleHeight': False, 'trialN': 34, 'loaded': True, 'loadedTime': 4954.200000001118, 'positionName': 'LEFT', 'positionCoords': [204.4, 155], 'bid': 0.28}, {'imgObject': {}, 'id': 'kiwi', 'src': '/static/foodstim60/kiwi.jpg', 'key': 'i', 'origWidth': 410, 'origHeight': 410, 'width': 410, 'height': 410, 'widthPercent': 0.45, 'rescaleHeight': False, 'trialN': 34, 'loaded': True, 'loadedTime': 4352.200000001118, 'positionName': 'RIGHT', 'positionCoords': [665.6, 155], 'bid': 0.29}]",53845.70000000112,1669829790261,olives,kiwi,0.28,0.29,0.009999999999999953,olives,1264.0999999996275,1265,1265.0,True,u,55617.59999999963,1771.8999999985099,1669829792033,1772,HRV,HRV_0060,2022-11-30 17:40:30
35,"[{'imgObject': {}, 'id': 'chickenfingers', 'src': '/static/foodstim60/chickenfingers.jpg', 'key': 'u', 'origWidth': 410, 'origHeight': 410, 'width': 410, 'height': 410, 'widthPercent': 0.45, 'rescaleHeight': False, 'trialN': 35, 'loaded': True, 'loadedTime': 4443.800000000745, 'positionName': 'LEFT', 'positionCoords': [204.4, 155], 'bid': 9.87}, {'imgObject': {}, 'id': 'baked potato', 'src': '/static/foodstim60/baked potato.jpg', 'key': 'i', 'origWidth': 409, 'origHeight': 410, 'width': 409, 'height': 410, 'widthPercent': 0.45, 'rescaleHeight': False, 'trialN': 35, 'loaded': True, 'loadedTime': 4447.300000000745, 'positionName': 'RIGHT', 'positionCoords': [665.6, 155], 'bid': 5.03}]",55617.800000000745,1669829792033,chickenfingers,baked potato,9.87,5.03,-4.839999999999999,baked potato,1611.7999999988824,1613,1612.9000000003725,True,i,57733.5,2115.699999999255,1669829794149,2116,HRV,HRV_0060,2022-11-30 17:40:30
36,"[{'imgObject': {}, 'id': 'salmon', 'src': '/static/foodstim60/salmon.jpg', 'key': 'u', 'origWidth': 410, 'origHeight': 409, 'width': 410, 'height': 409, 'widthPercent': 0.45, 'rescaleHeight': False, 'trialN': 36, 'loaded': True, 'loadedTime': 4997.700000001118, 'positionName': 'LEFT', 'positionCoords': [204.4, 155.5], 'bid': 9.89}, {'imgObject': {}, 'id': 'grilled chicken strips', 'src': '/static/foodstim60/grilled chicken strips.jpg', 'key': 'i', 'origWidth': 410, 'origHeight': 411, 'width': 410, 'height': 411, 'widthPercent': 0.45, 'rescaleHeight': False, 'trialN': 36, 'loaded': True, 'loadedTime': 5010.700000001118, 'positionName': 'RIGHT', 'positionCoords': [665.6, 154.5], 'bid': 9.96}]",57734.0,1669829794149,salmon,grilled chicken strips,9.89,9.96,0.07000000000000028,grilled chicken strips,986.7000000011176,988,987.7000000011176,True,i,59240.5,1506.5,1669829795656,1507,HRV,HRV_0060,2022-11-30 17:40:30
37,"[{'imgObject': {}, 'id': 'orange slices', 'src': '/static/foodstim60/orange slices.jpg', 'key': 'u', 'origWidth': 409, 'origHeight': 410, 'width': 409, 'height': 410, 'widthPercent': 0.45, 'rescaleHeight': False, 'trialN': 37, 'loaded': True, 'loadedTime': 4242.0999999996275, 'positionName': 'LEFT', 'positionCoords': [205.4, 155], 'bid': 9.87}, {'imgObject': {}, 'id': 'apple slices', 'src': '/static/foodstim60/apple slices.jpg', 'key': 'i', 'origWidth': 409, 'origHeight': 410, 'width': 409, 'height': 410, 'widthPercent': 0.45, 'rescaleHeight': False, 'trialN': 37, 'loaded': True, 'loadedTime': 4892.5, 'positionName': 'RIGHT', 'positionCoords': [665.6, 155], 'bid': 9.85}]",59241.800000000745,1669829795657,orange slices,apple slices,9.87,9.85,-0.019999999999999574,apple slices,1076,1077,1076.9000000003725,True,i,60829.59999999963,1587.7999999988824,1669829797245,1588,HRV,HRV_0060,2022-11-30 17:40:30
38,"[{'imgObject': {}, 'id': 'orange slices', 'src': '/static/foodstim60/orange slices.jpg', 'key': 'u', 'origWidth': 409, 'origHeight': 410, 'width': 409, 'height': 410, 'widthPercent': 0.45, 'rescaleHeight': False, 'trialN': 38, 'loaded': True, 'loadedTime': 4239.300000000745, 'positionName': 'LEFT', 'positionCoords': [205.4, 155], 'bid': 9.87}, {'imgObject': {}, 'id': 'chickenfingers', 'src': '/static/foodstim60/chickenfingers.jpg', 'key': 'i', 'origWidth': 410, 'origHeight': 410, 'width': 410, 'height': 410, 'widthPercent': 0.45, 'rescaleHeight': False, 'trialN': 38, 'loaded': True, 'loadedTime': 4443, 'positionName': 'RIGHT', 'positionCoords': [665.6, 155], 'bid': 9.87}]",60830.20000000112,1669829797245,orange slices,chickenfingers,9.87,9.87,0.0,chickenfingers,637.2999999988824,639,638.1999999992549,True,i,61982.20000000112,1152.0,1669829798397,1152,HRV,HRV_0060,2022-11-30 17:40:30
39,"[{'imgObject': {}, 'id': 'orange slices', 'src': '/static/foodstim60/orange slices.jpg', 'key': 'u', 'origWidth': 409, 'origHeight': 410, 'width': 409, 'height': 410, 'widthPercent': 0.45, 'rescaleHeight': False, 'trialN': 39, 'loaded': True, 'loadedTime': 4242.700000001118, 'positionName': 'LEFT', 'positionCoords': [205.4, 155], 'bid': 9.87}, {'imgObject': {}, 'id': 'mashed potato', 'src': '/static/foodstim60/mashed potato.jpg', 'key': 'i', 'origWidth': 409, 'origHeight': 409, 'width': 409, 'height': 409, 'widthPercent': 0.45, 'rescaleHeight': False, 'trialN': 39, 'loaded': True, 'loadedTime': 4461.9000000003725, 'positionName': 'RIGHT', 'positionCoords': [665.6, 155.5], 'bid': 4.93}]",61982.70000000112,1669829798398,orange slices,mashed potato,9.87,4.93,-4.9399999999999995,orange slices,1113.5,1115,1114.5999999996275,True,u,63617.800000000745,1635.0999999996275,1669829800033,1635,HRV,HRV_0060,2022-11-30 17:40:30
40,"[{'imgObject': {}, 'id': 'bagel and cc', 'src': '/static/foodstim60/bagel and cc.jpg', 'key': 'u', 'origWidth': 410, 'origHeight': 410, 'width': 410, 'height': 410, 'widthPercent': 0.45, 'rescaleHeight': False, 'trialN': 40, 'loaded': True, 'loadedTime': 4897.5, 'positionName': 'LEFT', 'positionCoords': [204.4, 155], 'bid': 9.64}, {'imgObject': {}, 'id': 'rigatoni', 'src': '/static/foodstim60/rigatoni.jpg', 'key': 'i', 'origWidth': 411, 'origHeight': 411, 'width': 411, 'height': 411, 'widthPercent': 0.45, 'rescaleHeight': False, 'trialN': 40, 'loaded': True, 'loadedTime': 5016.200000001118, 'positionName': 'RIGHT', 'positionCoords': [665.6, 154.5], 'bid': 4.7}]",63618.09999999963,1669829800033,bagel and cc,rigatoni,9.64,4.7,-4.94,bagel and cc,902.6000000014901,904,903.7000000011176,True,u,65031.40000000037,1413.300000000745,1669829801447,1414,HRV,HRV_0060,2022-11-30 17:40:30
41,"[{'imgObject': {}, 'id': 'blueberries', 'src': '/static/foodstim60/blueberries.jpg', 'key': 'u', 'origWidth': 411, 'origHeight': 411, 'width': 411, 'height': 411, 'widthPercent': 0.45, 'rescaleHeight': False, 'trialN': 41, 'loaded': True, 'loadedTime': 4480.5999999996275, 'positionName': 'LEFT', 'positionCoords': [203.4, 154.5], 'bid': 8.07}, {'imgObject': {}, 'id': 'granola w milk', 'src': '/static/foodstim60/granola w milk.jpg', 'key': 'i', 'origWidth': 410, 'origHeight': 410, 'width': 410, 'height': 410, 'widthPercent': 0.45, 'rescaleHeight': False, 'trialN': 41, 'loaded': True, 'loadedTime': 4469.4000000003725, 'positionName': 'RIGHT', 'positionCoords': [665.6, 155], 'bid': 0.7000000000000001}]",65032.0,1669829801447,blueberries,granola w milk,8.07,0.7000000000000001,-7.37,blueberries,1225.9000000003725,1227,1227.0,True,u,66772.59999999963,1740.5999999996275,1669829803188,1741,HRV,HRV_0060,2022-11-30 17:40:30
42,"[{'imgObject': {}, 'id': 'strawberries', 'src': '/static/foodstim60/strawberries.jpg', 'key': 'u', 'origWidth': 410, 'origHeight': 410, 'width': 410, 'height': 410, 'widthPercent': 0.45, 'rescaleHeight': False, 'trialN': 42, 'loaded': True, 'loadedTime': 4489.700000001118, 'positionName': 'LEFT', 'positionCoords': [204.4, 155], 'bid': 9.78}, {'imgObject': {}, 'id': 'cantaloupe', 'src': '/static/foodstim60/cantaloupe.jpg', 'key': 'i', 'origWidth': 409, 'origHeight': 409, 'width': 409, 'height': 409, 'widthPercent': 0.45, 'rescaleHeight': False, 'trialN': 42, 'loaded': True, 'loadedTime': 4474.200000001118, 'positionName': 'RIGHT', 'positionCoords': [665.6, 155.5], 'bid': 0.4}]",66773.30000000075,1669829803188,strawberries,cantaloupe,9.78,0.4,-9.379999999999999,strawberries,896.5999999996275,898,897.6999999992549,True,u,68172.59999999963,1399.2999999988824,1669829804588,1400,HRV,HRV_0060,2022-11-30 17:40:30
43,"[{'imgObject': {}, 'id': 'raisin bran w milk', 'src': '/static/foodstim60/raisin bran w milk.jpg', 'key': 'u', 'origWidth': 411, 'origHeight': 411, 'width': 411, 'height': 411, 'widthPercent': 0.45, 'rescaleHeight': False, 'trialN': 43, 'loaded': True, 'loadedTime': 4460.5, 'positionName': 'LEFT', 'positionCoords': [203.4, 154.5], 'bid': 3.46}, {'imgObject': {}, 'id': 'omelette', 'src': '/static/foodstim60/omelette.jpg', 'key': 'i', 'origWidth': 410, 'origHeight': 409, 'width': 410, 'height': 409, 'widthPercent': 0.45, 'rescaleHeight': False, 'trialN': 43, 'loaded': True, 'loadedTime': 4396.5999999996275, 'positionName': 'RIGHT', 'positionCoords': [665.6, 155.5], 'bid': 8.700000000000001}]",68172.90000000037,1669829804588,raisin bran w milk,omelette,3.46,8.700000000000001,5.240000000000001,raisin bran w milk,841.8000000007451,843,843.0999999996275,True,u,69521.09999999963,1348.199999999255,1669829805936,1348,HRV,HRV_0060,2022-11-30 17:40:30
44,"[{'imgObject': {}, 'id': 'mango', 'src': '/static/foodstim60/mango.jpg', 'key': 'u', 'origWidth': 411, 'origHeight': 411, 'width': 411, 'height': 411, 'widthPercent': 0.45, 'rescaleHeight': False, 'trialN': 44, 'loaded': True, 'loadedTime': 4487.9000000003725, 'positionName': 'LEFT', 'positionCoords': [203.4, 154.5], 'bid': 1.09}, {'imgObject': {}, 'id': 'hashbrowns', 'src': '/static/foodstim60/hashbrowns.jpg', 'key': 'i', 'origWidth': 411, 'origHeight': 410, 'width': 411, 'height': 410, 'widthPercent': 0.45, 'rescaleHeight': False, 'trialN': 44, 'loaded': True, 'loadedTime': 5057.800000000745, 'positionName': 'RIGHT', 'positionCoords': [665.6, 155], 'bid': 0.8200000000000001}]",69521.5,1669829805937,mango,hashbrowns,1.09,0.8200000000000001,-0.27,hashbrowns,1346.2000000011176,1347,1347.0999999996275,True,i,71372.70000000112,1851.2000000011176,1669829807788,1851,HRV,HRV_0060,2022-11-30 17:40:30
45,"[{'imgObject': {}, 'id': 'blackbeanswithrice', 'src': '/static/foodstim60/blackbeanswithrice.jpg', 'key': 'u', 'origWidth': 410, 'origHeight': 410, 'width': 410, 'height': 410, 'widthPercent': 0.45, 'rescaleHeight': False, 'trialN': 45, 'loaded': True, 'loadedTime': 4428.4000000003725, 'positionName': 'LEFT', 'positionCoords': [204.4, 155], 'bid': 9.78}, {'imgObject': {}, 'id': 'burger', 'src': '/static/foodstim60/burger.jpg', 'key': 'i', 'origWidth': 409, 'origHeight': 409, 'width': 409, 'height': 409, 'widthPercent': 0.45, 'rescaleHeight': False, 'trialN': 45, 'loaded': True, 'loadedTime': 4493.0999999996275, 'positionName': 'RIGHT', 'positionCoords': [665.6, 155.5], 'bid': 9.79}]",71373.20000000112,1669829807788,blackbeanswithrice,burger,9.78,9.79,0.009999999999999787,blackbeanswithrice,795,796,796.0999999996275,True,u,72677.30000000075,1304.0999999996275,1669829809092,1304,HRV,HRV_0060,2022-11-30 17:40:30
46,"[{'imgObject': {}, 'id': 'eggs', 'src': '/static/foodstim60/eggs.jpg', 'key': 'u', 'origWidth': 409, 'origHeight': 409, 'width': 409, 'height': 409, 'widthPercent': 0.45, 'rescaleHeight': False, 'trialN': 46, 'loaded': True, 'loadedTime': 4950, 'positionName': 'LEFT', 'positionCoords': [205.4, 155.5], 'bid': 9.87}, {'imgObject': {}, 'id': 'banana', 'src': '/static/foodstim60/banana.jpg', 'key': 'i', 'origWidth': 410, 'origHeight': 410, 'width': 410, 'height': 410, 'widthPercent': 0.45, 'rescaleHeight': False, 'trialN': 46, 'loaded': True, 'loadedTime': 4479.200000001118, 'positionName': 'RIGHT', 'positionCoords': [665.6, 155], 'bid': 10}]",72677.59999999963,1669829809093,eggs,banana,9.87,10.0,0.13000000000000078,eggs,1387,1388,1388.0,True,u,74575.09999999963,1897.5,1669829810990,1897,HRV,HRV_0060,2022-11-30 17:40:30
47,"[{'imgObject': {}, 'id': 'salad w chicken', 'src': '/static/foodstim60/salad w chicken.jpg', 'key': 'u', 'origWidth': 411, 'origHeight': 411, 'width': 411, 'height': 411, 'widthPercent': 0.45, 'rescaleHeight': False, 'trialN': 47, 'loaded': True, 'loadedTime': 5063.300000000745, 'positionName': 'LEFT', 'positionCoords': [203.4, 154.5], 'bid': 1.34}, {'imgObject': {}, 'id': 'eggsalad', 'src': '/static/foodstim60/eggsalad.jpg', 'key': 'i', 'origWidth': 410, 'origHeight': 409, 'width': 410, 'height': 409, 'widthPercent': 0.45, 'rescaleHeight': False, 'trialN': 47, 'loaded': True, 'loadedTime': 4509.5999999996275, 'positionName': 'RIGHT', 'positionCoords': [665.6, 155.5], 'bid': 2.46}]",74575.80000000075,1669829810991,salad w chicken,eggsalad,1.34,2.46,1.1199999999999999,eggsalad,1426.0999999996275,1427,1427.0999999996275,True,i,76509.30000000075,1933.5,1669829812924,1933,HRV,HRV_0060,2022-11-30 17:40:30
48,"[{'imgObject': {}, 'id': 'cheerios', 'src': '/static/foodstim60/cheerios.jpg', 'key': 'u', 'origWidth': 409, 'origHeight': 410, 'width': 409, 'height': 410, 'widthPercent': 0.45, 'rescaleHeight': False, 'trialN': 48, 'loaded': True, 'loadedTime': 5063.800000000745, 'positionName': 'LEFT', 'positionCoords': [205.4, 155], 'bid': 5.5}, {'imgObject': {}, 'id': 'tacos', 'src': '/static/foodstim60/tacos.jpg', 'key': 'i', 'origWidth': 411, 'origHeight': 411, 'width': 411, 'height': 411, 'widthPercent': 0.45, 'rescaleHeight': False, 'trialN': 48, 'loaded': True, 'loadedTime': 5069.4000000003725, 'positionName': 'RIGHT', 'positionCoords': [665.6, 154.5], 'bid': 9.68}]",76510.09999999963,1669829812925,cheerios,tacos,5.5,9.68,4.18,tacos,973.1000000014901,974,974.1000000014901,True,i,77997.5,1487.4000000003725,1669829814413,1488,HRV,HRV_0060,2022-11-30 17:40:30
49,"[{'imgObject': {}, 'id': 'turkeysandwich', 'src': '/static/foodstim60/turkeysandwich.jpg', 'key': 'u', 'origWidth': 409, 'origHeight': 409, 'width': 409, 'height': 409, 'widthPercent': 0.45, 'rescaleHeight': False, 'trialN': 49, 'loaded': True, 'loadedTime': 5105.5999999996275, 'positionName': 'LEFT', 'positionCoords': [205.4, 155.5], 'bid': 9.81}, {'imgObject': {}, 'id': 'chickenfingers', 'src': '/static/foodstim60/chickenfingers.jpg', 'key': 'i', 'origWidth': 410, 'origHeight': 410, 'width': 410, 'height': 410, 'widthPercent': 0.45, 'rescaleHeight': False, 'trialN': 49, 'loaded': True, 'loadedTime': 4443.0999999996275, 'positionName': 'RIGHT', 'positionCoords': [665.6, 155], 'bid': 9.87}]",77997.70000000112,1669829814413,turkeysandwich,chickenfingers,9.81,9.87,0.05999999999999872,chickenfingers,941.1999999992549,942,942.1999999992549,True,i,79446.20000000112,1448.5,1669829815861,1448,HRV,HRV_0060,2022-11-30 17:40:30
50,"[{'imgObject': {}, 'id': 'burger', 'src': '/static/foodstim60/burger.jpg', 'key': 'u', 'origWidth': 409, 'origHeight': 409, 'width': 409, 'height': 409, 'widthPercent': 0.45, 'rescaleHeight': False, 'trialN': 50, 'loaded': True, 'loadedTime': 4492.800000000745, 'positionName': 'LEFT', 'positionCoords': [205.4, 155.5], 'bid': 9.79}, {'imgObject': {}, 'id': 'cocktailshrimp', 'src': '/static/foodstim60/cocktailshrimp.jpg', 'key': 'i', 'origWidth': 410, 'origHeight': 410, 'width': 410, 'height': 410, 'widthPercent': 0.45, 'rescaleHeight': False, 'trialN': 50, 'loaded': True, 'loadedTime': 4486.200000001118, 'positionName': 'RIGHT', 'positionCoords': [665.6, 155], 'bid': 9.81}]",79446.80000000075,1669829815862,burger,cocktailshrimp,9.79,9.81,0.02000000000000135,burger,1094.7999999988824,1096,1095.5999999996275,True,u,81044.40000000037,1597.5999999996275,1669829817460,1598,HRV,HRV_0060,2022-11-30 17:40:30
51,"[{'imgObject': {}, 'id': 'luckycharms', 'src': '/static/foodstim60/luckycharms.jpg', 'key': 'u', 'origWidth': 410, 'origHeight': 409, 'width': 410, 'height': 409, 'widthPercent': 0.45, 'rescaleHeight': False, 'trialN': 51, 'loaded': True, 'loadedTime': 4345.300000000745, 'positionName': 'LEFT', 'positionCoords': [204.4, 155.5], 'bid': 0.18}, {'imgObject': {}, 'id': 'cherry tomato', 'src': '/static/foodstim60/cherry tomato.jpg', 'key': 'i', 'origWidth': 410, 'origHeight': 410, 'width': 410, 'height': 410, 'widthPercent': 0.45, 'rescaleHeight': False, 'trialN': 51, 'loaded': True, 'loadedTime': 4471.9000000003725, 'positionName': 'RIGHT', 'positionCoords': [665.6, 155], 'bid': 0.09}]",81045.0,1669829817460,luckycharms,cherry tomato,0.18,0.09,-0.09,cherry tomato,1499.4000000003725,1500,1499.9000000003725,True,i,83062.30000000075,2017.300000000745,1669829819477,2017,HRV,HRV_0060,2022-11-30 17:40:30
52,"[{'imgObject': {}, 'id': 'Grapes', 'src': '/static/foodstim60/Grapes.jpg', 'key': 'u', 'origWidth': 411, 'origHeight': 411, 'width': 411, 'height': 411, 'widthPercent': 0.45, 'rescaleHeight': False, 'trialN': 52, 'loaded': True, 'loadedTime': 5173.5, 'positionName': 'LEFT', 'positionCoords': [203.4, 154.5], 'bid': 0}, {'imgObject': {}, 'id': 'edamame', 'src': '/static/foodstim60/edamame.jpg', 'key': 'i', 'origWidth': 409, 'origHeight': 410, 'width': 409, 'height': 410, 'widthPercent': 0.45, 'rescaleHeight': False, 'trialN': 52, 'loaded': True, 'loadedTime': 4507.800000000745, 'positionName': 'RIGHT', 'positionCoords': [665.6, 155], 'bid': 0.2}]",83062.90000000037,1669829819478,Grapes,edamame,0.0,0.2,0.2,Grapes,753.5999999996275,755,754.5999999996275,True,u,84325.0,1262.0999999996275,1669829820740,1262,HRV,HRV_0060,2022-11-30 17:40:30
53,"[{'imgObject': {}, 'id': 'cherry tomato', 'src': '/static/foodstim60/cherry tomato.jpg', 'key': 'u', 'origWidth': 410, 'origHeight': 410, 'width': 410, 'height': 410, 'widthPercent': 0.45, 'rescaleHeight': False, 'trialN': 53, 'loaded': True, 'loadedTime': 4471.0999999996275, 'positionName': 'LEFT', 'positionCoords': [204.4, 155], 'bid': 0.09}, {'imgObject': {}, 'id': 'avocado', 'src': '/static/foodstim60/avocado.jpg', 'key': 'i', 'origWidth': 409, 'origHeight': 409, 'width': 409, 'height': 409, 'widthPercent': 0.45, 'rescaleHeight': False, 'trialN': 53, 'loaded': True, 'loadedTime': 4824.0999999996275, 'positionName': 'RIGHT', 'positionCoords': [665.6, 155.5], 'bid': 9.67}]",84325.40000000037,1669829820741,cherry tomato,avocado,0.09,9.67,9.58,avocado,929.1999999992549,930,930.1999999992549,True,i,85769.90000000037,1444.5,1669829822185,1444,HRV,HRV_0060,2022-11-30 17:40:30
54,"[{'imgObject': {}, 'id': 'blueberries', 'src': '/static/foodstim60/blueberries.jpg', 'key': 'u', 'origWidth': 411, 'origHeight': 411, 'width': 411, 'height': 411, 'widthPercent': 0.45, 'rescaleHeight': False, 'trialN': 54, 'loaded': True, 'loadedTime': 4482, 'positionName': 'LEFT', 'positionCoords': [203.4, 154.5], 'bid': 8.07}, {'imgObject': {}, 'id': 'roastedpotatoes', 'src': '/static/foodstim60/roastedpotatoes.jpg', 'key': 'i', 'origWidth': 409, 'origHeight': 410, 'width': 409, 'height': 410, 'widthPercent': 0.45, 'rescaleHeight': False, 'trialN': 54, 'loaded': True, 'loadedTime': 5005.4000000003725, 'positionName': 'RIGHT', 'positionCoords': [665.6, 155], 'bid': 9.75}]",85770.40000000037,1669829822185,blueberries,roastedpotatoes,8.07,9.75,1.6799999999999997,roastedpotatoes,633.8000000007451,635,634.8000000007451,True,i,86919.20000000112,1148.800000000745,1669829823334,1149,HRV,HRV_0060,2022-11-30 17:40:30
55,"[{'imgObject': {}, 'id': 'burrito', 'src': '/static/foodstim60/burrito.jpg', 'key': 'u', 'origWidth': 410, 'origHeight': 410, 'width': 410, 'height': 410, 'widthPercent': 0.45, 'rescaleHeight': False, 'trialN': 55, 'loaded': True, 'loadedTime': 5109, 'positionName': 'LEFT', 'positionCoords': [204.4, 155], 'bid': 9.78}, {'imgObject': {}, 'id': 'seaweed', 'src': '/static/foodstim60/seaweed.jpg', 'key': 'i', 'origWidth': 410, 'origHeight': 410, 'width': 410, 'height': 410, 'widthPercent': 0.45, 'rescaleHeight': False, 'trialN': 55, 'loaded': True, 'loadedTime': 4484, 'positionName': 'RIGHT', 'positionCoords': [665.6, 155], 'bid': 0.31}]",86919.80000000075,1669829823335,burrito,seaweed,9.78,0.31,-9.469999999999999,burrito,923.4000000003725,924,924.5999999996275,True,u,88351.0,1431.199999999255,1669829824766,1431,HRV,HRV_0060,2022-11-30 17:40:30
56,"[{'imgObject': {}, 'id': 'cherry tomato', 'src': '/static/foodstim60/cherry tomato.jpg', 'key': 'u', 'origWidth': 410, 'origHeight': 410, 'width': 410, 'height': 410, 'widthPercent': 0.45, 'rescaleHeight': False, 'trialN': 56, 'loaded': True, 'loadedTime': 4469.9000000003725, 'positionName': 'LEFT', 'positionCoords': [204.4, 155], 'bid': 0.09}, {'imgObject': {}, 'id': 'eggsalad', 'src': '/static/foodstim60/eggsalad.jpg', 'key': 'i', 'origWidth': 410, 'origHeight': 409, 'width': 410, 'height': 409, 'widthPercent': 0.45, 'rescaleHeight': False, 'trialN': 56, 'loaded': True, 'loadedTime': 4509.5999999996275, 'positionName': 'RIGHT', 'positionCoords': [665.6, 155.5], 'bid': 2.46}]",88351.5,1669829824767,cherry tomato,eggsalad,0.09,2.46,2.37,cherry tomato,1243.5,1244,1244.5,True,u,90102.59999999963,1751.0999999996275,1669829826518,1751,HRV,HRV_0060,2022-11-30 17:40:30
57,"[{'imgObject': {}, 'id': 'raspberries', 'src': '/static/foodstim60/raspberries.jpg', 'key': 'u', 'origWidth': 411, 'origHeight': 411, 'width': 411, 'height': 411, 'widthPercent': 0.45, 'rescaleHeight': False, 'trialN': 57, 'loaded': True, 'loadedTime': 4363.5999999996275, 'positionName': 'LEFT', 'positionCoords': [203.4, 154.5], 'bid': 9.81}, {'imgObject': {}, 'id': 'salad w chicken', 'src': '/static/foodstim60/salad w chicken.jpg', 'key': 'i', 'origWidth': 411, 'origHeight': 411, 'width': 411, 'height': 411, 'widthPercent': 0.45, 'rescaleHeight': False, 'trialN': 57, 'loaded': True, 'loadedTime': 5058.5999999996275, 'positionName': 'RIGHT', 'positionCoords': [665.6, 154.5], 'bid': 1.34}]",90102.80000000075,1669829826518,raspberries,salad w chicken,9.81,1.34,-8.47,raspberries,1092.699999999255,1094,1093.699999999255,True,u,91702.0,1599.199999999255,1669829828117,1599,HRV,HRV_0060,2022-11-30 17:40:30
58,"[{'imgObject': {}, 'id': 'olives', 'src': '/static/foodstim60/olives.jpg', 'key': 'u', 'origWidth': 410, 'origHeight': 410, 'width': 410, 'height': 410, 'widthPercent': 0.45, 'rescaleHeight': False, 'trialN': 58, 'loaded': True, 'loadedTime': 4954.9000000003725, 'positionName': 'LEFT', 'positionCoords': [204.4, 155], 'bid': 0.28}, {'imgObject': {}, 'id': 'veggieswithdip', 'src': '/static/foodstim60/veggieswithdip.jpg', 'key': 'i', 'origWidth': 409, 'origHeight': 409, 'width': 409, 'height': 409, 'widthPercent': 0.45, 'rescaleHeight': False, 'trialN': 58, 'loaded': True, 'loadedTime': 5109.800000000745, 'positionName': 'RIGHT', 'positionCoords': [665.6, 155.5], 'bid': 0}]",91702.59999999963,1669829828118,olives,veggieswithdip,0.28,0.0,-0.28,olives,1107.2000000011176,1108,1108.2000000011176,True,u,93318.0,1615.4000000003725,1669829829733,1615,HRV,HRV_0060,2022-11-30 17:40:30
59,"[{'imgObject': {}, 'id': 'cantaloupe', 'src': '/static/foodstim60/cantaloupe.jpg', 'key': 'u', 'origWidth': 409, 'origHeight': 409, 'width': 409, 'height': 409, 'widthPercent': 0.45, 'rescaleHeight': False, 'trialN': 59, 'loaded': True, 'loadedTime': 4475.700000001118, 'positionName': 'LEFT', 'positionCoords': [205.4, 155.5], 'bid': 0.4}, {'imgObject': {}, 'id': 'cherries', 'src': '/static/foodstim60/cherries.jpg', 'key': 'i', 'origWidth': 410, 'origHeight': 411, 'width': 410, 'height': 411, 'widthPercent': 0.45, 'rescaleHeight': False, 'trialN': 59, 'loaded': True, 'loadedTime': 5114.0999999996275, 'positionName': 'RIGHT', 'positionCoords': [665.6, 154.5], 'bid': 0.45}]",93318.30000000075,1669829829733,cantaloupe,cherries,0.4,0.45,0.04999999999999999,cherries,900.9000000003725,902,902.0,True,i,94731.70000000112,1413.4000000003725,1669829831147,1414,HRV,HRV_0060,2022-11-30 17:40:30
60,"[{'imgObject': {}, 'id': 'salmon', 'src': '/static/foodstim60/salmon.jpg', 'key': 'u', 'origWidth': 410, 'origHeight': 409, 'width': 410, 'height': 409, 'widthPercent': 0.45, 'rescaleHeight': False, 'trialN': 60, 'loaded': True, 'loadedTime': 5004.4000000003725, 'positionName': 'LEFT', 'positionCoords': [204.4, 155.5], 'bid': 9.89}, {'imgObject': {}, 'id': 'burrito', 'src': '/static/foodstim60/burrito.jpg', 'key': 'i', 'origWidth': 410, 'origHeight': 410, 'width': 410, 'height': 410, 'widthPercent': 0.45, 'rescaleHeight': False, 'trialN': 60, 'loaded': True, 'loadedTime': 5109.200000001118, 'positionName': 'RIGHT', 'positionCoords': [665.6, 155], 'bid': 9.78}]",94732.09999999963,1669829831147,salmon,burrito,9.89,9.78,-0.11000000000000121,burrito,884.1000000014901,885,885.2000000011176,True,i,96131.40000000037,1399.300000000745,1669829832546,1399,HRV,HRV_0060,2022-11-30 17:40:30
61,"[{'imgObject': {}, 'id': 'Grapes', 'src': '/static/foodstim60/Grapes.jpg', 'key': 'u', 'origWidth': 411, 'origHeight': 411, 'width': 411, 'height': 411, 'widthPercent': 0.45, 'rescaleHeight': False, 'trialN': 61, 'loaded': True, 'loadedTime': 5170.9000000003725, 'positionName': 'LEFT', 'positionCoords': [203.4, 154.5], 'bid': 0}, {'imgObject': {}, 'id': 'fruitsalad', 'src': '/static/foodstim60/fruitsalad.jpg', 'key': 'i', 'origWidth': 410, 'origHeight': 410, 'width': 410, 'height': 410, 'widthPercent': 0.45, 'rescaleHeight': False, 'trialN': 61, 'loaded': True, 'loadedTime': 5154.700000001118, 'positionName': 'RIGHT', 'positionCoords': [665.6, 155], 'bid': 0}]",96131.80000000075,1669829832547,Grapes,fruitsalad,0.0,0.0,0.0,Grapes,846.2999999988824,847,847.5999999996275,True,u,97485.20000000112,1353.4000000003725,1669829833900,1353,HRV,HRV_0060,2022-11-30 17:40:30
62,"[{'imgObject': {}, 'id': 'burger', 'src': '/static/foodstim60/burger.jpg', 'key': 'u', 'origWidth': 409, 'origHeight': 409, 'width': 409, 'height': 409, 'widthPercent': 0.45, 'rescaleHeight': False, 'trialN': 62, 'loaded': True, 'loadedTime': 4492.9000000003725, 'positionName': 'LEFT', 'positionCoords': [205.4, 155.5], 'bid': 9.79}, {'imgObject': {}, 'id': 'hashbrowns', 'src': '/static/foodstim60/hashbrowns.jpg', 'key': 'i', 'origWidth': 411, 'origHeight': 410, 'width': 411, 'height': 410, 'widthPercent': 0.45, 'rescaleHeight': False, 'trialN': 62, 'loaded': True, 'loadedTime': 5051.800000000745, 'positionName': 'RIGHT', 'positionCoords': [665.6, 155], 'bid': 0.8200000000000001}]",97485.5,1669829833901,burger,hashbrowns,9.79,0.8200000000000001,-8.969999999999999,burger,790.8000000007451,791,791.0999999996275,True,u,98791.40000000037,1305.9000000003725,1669829835206,1305,HRV,HRV_0060,2022-11-30 17:40:30
63,"[{'imgObject': {}, 'id': 'Grapes', 'src': '/static/foodstim60/Grapes.jpg', 'key': 'u', 'origWidth': 411, 'origHeight': 411, 'width': 411, 'height': 411, 'widthPercent': 0.45, 'rescaleHeight': False, 'trialN': 63, 'loaded': True, 'loadedTime': 5173.800000000745, 'positionName': 'LEFT', 'positionCoords': [203.4, 154.5], 'bid': 0}, {'imgObject': {}, 'id': 'yogurt no spoon', 'src': '/static/foodstim60/yogurt no spoon.jpg', 'key': 'i', 'origWidth': 411, 'origHeight': 410, 'width': 411, 'height': 410, 'widthPercent': 0.45, 'rescaleHeight': False, 'trialN': 63, 'loaded': True, 'loadedTime': 4491.700000001118, 'positionName': 'RIGHT', 'positionCoords': [665.6, 155], 'bid': 8.73}]",98792.09999999963,1669829835207,Grapes,yogurt no spoon,0.0,8.73,8.73,Grapes,713.8000000007451,715,714.4000000003725,True,u,100020.09999999963,1228.0,1669829836435,1228,HRV,HRV_0060,2022-11-30 17:40:30
64,"[{'imgObject': {}, 'id': 'shreddedwheatwithmilk', 'src': '/static/foodstim60/shreddedwheatwithmilk.jpg', 'key': 'u', 'origWidth': 410, 'origHeight': 410, 'width': 410, 'height': 410, 'widthPercent': 0.45, 'rescaleHeight': False, 'trialN': 64, 'loaded': True, 'loadedTime': 5163.9000000003725, 'positionName': 'LEFT', 'positionCoords': [204.4, 155], 'bid': 3.48}, {'imgObject': {}, 'id': 'bagel plain', 'src': '/static/foodstim60/bagel plain.jpg', 'key': 'i', 'origWidth': 410, 'origHeight': 410, 'width': 410, 'height': 410, 'widthPercent': 0.45, 'rescaleHeight': False, 'trialN': 64, 'loaded': True, 'loadedTime': 5167.4000000003725, 'positionName': 'RIGHT', 'positionCoords': [665.6, 155], 'bid': 9.84}]",100020.5,1669829836436,shreddedwheatwithmilk,bagel plain,3.48,9.84,6.359999999999999,bagel plain,861.2000000011176,862,862.3000000007451,True,i,101392.30000000075,1371.800000000745,1669829837807,1371,HRV,HRV_0060,2022-11-30 17:40:30
65,"[{'imgObject': {}, 'id': 'orange slices', 'src': '/static/foodstim60/orange slices.jpg', 'key': 'u', 'origWidth': 409, 'origHeight': 410, 'width': 409, 'height': 410, 'widthPercent': 0.45, 'rescaleHeight': False, 'trialN': 65, 'loaded': True, 'loadedTime': 4243.200000001118, 'positionName': 'LEFT', 'positionCoords': [205.4, 155], 'bid': 9.87}, {'imgObject': {}, 'id': 'raspberries', 'src': '/static/foodstim60/raspberries.jpg', 'key': 'i', 'origWidth': 411, 'origHeight': 411, 'width': 411, 'height': 411, 'widthPercent': 0.45, 'rescaleHeight': False, 'trialN': 65, 'loaded': True, 'loadedTime': 4365.200000001118, 'positionName': 'RIGHT', 'positionCoords': [665.6, 154.5], 'bid': 9.81}]",101392.70000000112,1669829837808,orange slices,raspberries,9.87,9.81,-0.05999999999999872,raspberries,1217.699999999255,1218,1218.699999999255,True,i,103119.80000000075,1727.0999999996275,1669829839535,1727,HRV,HRV_0060,2022-11-30 17:40:30
66,"[{'imgObject': {}, 'id': 'mashed potato', 'src': '/static/foodstim60/mashed potato.jpg', 'key': 'u', 'origWidth': 409, 'origHeight': 409, 'width': 409, 'height': 409, 'widthPercent': 0.45, 'rescaleHeight': False, 'trialN': 66, 'loaded': True, 'loadedTime': 4462.300000000745, 'positionName': 'LEFT', 'positionCoords': [205.4, 155.5], 'bid': 4.93}, {'imgObject': {}, 'id': 'cheerios', 'src': '/static/foodstim60/cheerios.jpg', 'key': 'i', 'origWidth': 409, 'origHeight': 410, 'width': 409, 'height': 410, 'widthPercent': 0.45, 'rescaleHeight': False, 'trialN': 66, 'loaded': True, 'loadedTime': 5067.200000001118, 'positionName': 'RIGHT', 'positionCoords': [665.6, 155], 'bid': 5.5}]",103120.40000000037,1669829839535,mashed potato,cheerios,4.93,5.5,0.5700000000000003,cheerios,765.8000000007451,766,766.0,True,i,104395.70000000112,1275.300000000745,1669829840811,1276,HRV,HRV_0060,2022-11-30 17:40:30
67,"[{'imgObject': {}, 'id': 'salmon', 'src': '/static/foodstim60/salmon.jpg', 'key': 'u', 'origWidth': 410, 'origHeight': 409, 'width': 410, 'height': 409, 'widthPercent': 0.45, 'rescaleHeight': False, 'trialN': 67, 'loaded': True, 'loadedTime': 5004.0999999996275, 'positionName': 'LEFT', 'positionCoords': [204.4, 155.5], 'bid': 9.89}, {'imgObject': {}, 'id': 'burger', 'src': '/static/foodstim60/burger.jpg', 'key': 'i', 'origWidth': 409, 'origHeight': 409, 'width': 409, 'height': 409, 'widthPercent': 0.45, 'rescaleHeight': False, 'trialN': 67, 'loaded': True, 'loadedTime': 4493.200000001118, 'positionName': 'RIGHT', 'positionCoords': [665.6, 155.5], 'bid': 9.79}]",104396.20000000112,1669829840811,salmon,burger,9.89,9.79,-0.10000000000000142,burger,962.6999999992549,964,963.6999999992549,True,i,105870.0,1473.7999999988824,1669829842285,1474,HRV,HRV_0060,2022-11-30 17:40:30
68,"[{'imgObject': {}, 'id': 'shreddedwheatwithmilk', 'src': '/static/foodstim60/shreddedwheatwithmilk.jpg', 'key': 'u', 'origWidth': 410, 'origHeight': 410, 'width': 410, 'height': 410, 'widthPercent': 0.45, 'rescaleHeight': False, 'trialN': 68, 'loaded': True, 'loadedTime': 5163.5999999996275, 'positionName': 'LEFT', 'positionCoords': [204.4, 155], 'bid': 3.48}, {'imgObject': {}, 'id': 'rigatoni', 'src': '/static/foodstim60/rigatoni.jpg', 'key': 'i', 'origWidth': 411, 'origHeight': 411, 'width': 411, 'height': 411, 'widthPercent': 0.45, 'rescaleHeight': False, 'trialN': 68, 'loaded': True, 'loadedTime': 5018.5999999996275, 'positionName': 'RIGHT', 'positionCoords': [665.6, 154.5], 'bid': 4.7}]",105870.59999999963,1669829842286,shreddedwheatwithmilk,rigatoni,3.48,4.7,1.2200000000000002,rigatoni,718.6000000014901,719,719.7000000011176,True,i,107095.90000000037,1225.300000000745,1669829843511,1225,HRV,HRV_0060,2022-11-30 17:40:30
69,"[{'imgObject': {}, 'id': 'cantaloupe', 'src': '/static/foodstim60/cantaloupe.jpg', 'key': 'u', 'origWidth': 409, 'origHeight': 409, 'width': 409, 'height': 409, 'widthPercent': 0.45, 'rescaleHeight': False, 'trialN': 69, 'loaded': True, 'loadedTime': 4475.0999999996275, 'positionName': 'LEFT', 'positionCoords': [205.4, 155.5], 'bid': 0.4}, {'imgObject': {}, 'id': 'veggieswithdip', 'src': '/static/foodstim60/veggieswithdip.jpg', 'key': 'i', 'origWidth': 409, 'origHeight': 409, 'width': 409, 'height': 409, 'widthPercent': 0.45, 'rescaleHeight': False, 'trialN': 69, 'loaded': True, 'loadedTime': 5111.4000000003725, 'positionName': 'RIGHT', 'positionCoords': [665.6, 155.5], 'bid': 0}]",107096.40000000037,1669829843511,cantaloupe,veggieswithdip,0.4,0.0,-0.4,cantaloupe,1332,1333,1332.9000000003725,True,u,108944.90000000037,1848.5,1669829845360,1849,HRV,HRV_0060,2022-11-30 17:40:30
70,"[{'imgObject': {}, 'id': 'banana', 'src': '/static/foodstim60/banana.jpg', 'key': 'u', 'origWidth': 410, 'origHeight': 410, 'width': 410, 'height': 410, 'widthPercent': 0.45, 'rescaleHeight': False, 'trialN': 70, 'loaded': True, 'loadedTime': 4480.0999999996275, 'positionName': 'LEFT', 'positionCoords': [204.4, 155], 'bid': 10}, {'imgObject': {}, 'id': 'blackbeanswithrice', 'src': '/static/foodstim60/blackbeanswithrice.jpg', 'key': 'i', 'origWidth': 410, 'origHeight': 410, 'width': 410, 'height': 410, 'widthPercent': 0.45, 'rescaleHeight': False, 'trialN': 70, 'loaded': True, 'loadedTime': 4428, 'positionName': 'RIGHT', 'positionCoords': [665.6, 155], 'bid': 9.78}]",108945.40000000037,1669829845360,banana,blackbeanswithrice,10.0,9.78,-0.22000000000000064,blackbeanswithrice,1271.4000000003725,1273,1272.5,True,i,110737.40000000037,1792.0,1669829847152,1792,HRV,HRV_0060,2022-11-30 17:40:30
71,"[{'imgObject': {}, 'id': 'veggieswithdip', 'src': '/static/foodstim60/veggieswithdip.jpg', 'key': 'u', 'origWidth': 409, 'origHeight': 409, 'width': 409, 'height': 409, 'widthPercent': 0.45, 'rescaleHeight': False, 'trialN': 71, 'loaded': True, 'loadedTime': 5111.5, 'positionName': 'LEFT', 'positionCoords': [205.4, 155.5], 'bid': 0}, {'imgObject': {}, 'id': 'sushi w_condiments', 'src': '/static/foodstim60/sushi w_condiments.jpg', 'key': 'i', 'origWidth': 410, 'origHeight': 410, 'width': 410, 'height': 410, 'widthPercent': 0.45, 'rescaleHeight': False, 'trialN': 71, 'loaded': True, 'loadedTime': 4820.200000001118, 'positionName': 'RIGHT', 'positionCoords': [665.6, 155], 'bid': 9.31}]",110737.90000000037,1669829847153,veggieswithdip,sushi w_condiments,0.0,9.31,9.31,NaN,NaN,NaN,,False,NaN,114768.59999999963,4030.699999999255,1669829851184,4031,HRV,HRV_0060,2022-11-30 17:40:30
72,"[{'imgObject': {}, 'id': 'cherries', 'src': '/static/foodstim60/cherries.jpg', 'key': 'u', 'origWidth': 410, 'origHeight': 411, 'width': 410, 'height': 411, 'widthPercent': 0.45, 'rescaleHeight': False, 'trialN': 72, 'loaded': True, 'loadedTime': 5113.9000000003725, 'positionName': 'LEFT', 'positionCoords': [204.4, 154.5], 'bid': 0.45}, {'imgObject': {}, 'id': 'eggsalad', 'src': '/static/foodstim60/eggsalad.jpg', 'key': 'i', 'origWidth': 410, 'origHeight': 409, 'width': 410, 'height': 409, 'widthPercent': 0.45, 'rescaleHeight': False, 'trialN': 72, 'loaded': True, 'loadedTime': 4509.800000000745, 'positionName': 'RIGHT', 'positionCoords': [665.6, 155.5], 'bid': 2.46}]",114769.40000000037,1669829851184,cherries,eggsalad,0.45,2.46,2.01,NaN,NaN,NaN,,False,NaN,118788.20000000112,4018.800000000745,1669829855203,4019,HRV,HRV_0060,2022-11-30 17:40:30
73,"[{'imgObject': {}, 'id': 'avocado', 'src': '/static/foodstim60/avocado.jpg', 'key': 'u', 'origWidth': 409, 'origHeight': 409, 'width': 409, 'height': 409, 'widthPercent': 0.45, 'rescaleHeight': False, 'trialN': 73, 'loaded': True, 'loadedTime': 4823.9000000003725, 'positionName': 'LEFT', 'positionCoords': [205.4, 155.5], 'bid': 9.67}, {'imgObject': {}, 'id': 'pear', 'src': '/static/foodstim60/pear.jpg', 'key': 'i', 'origWidth': 411, 'origHeight': 410, 'width': 411, 'height': 410, 'widthPercent': 0.45, 'rescaleHeight': False, 'trialN': 73, 'loaded': True, 'loadedTime': 4351.5, 'positionName': 'RIGHT', 'positionCoords': [665.6, 155], 'bid': 9.67}]",118788.70000000112,1669829855204,avocado,pear,9.67,9.67,0.0,avocado,1424.699999999255,1425,1425.699999999255,True,u,120723.40000000037,1934.699999999255,1669829857138,1934,HRV,HRV_0060,2022-11-30 17:40:30
74,"[{'imgObject': {}, 'id': 'tacos', 'src': '/static/foodstim60/tacos.jpg', 'key': 'u', 'origWidth': 411, 'origHeight': 411, 'width': 411, 'height': 411, 'widthPercent': 0.45, 'rescaleHeight': False, 'trialN': 74, 'loaded': True, 'loadedTime': 5105.200000001118, 'positionName': 'LEFT', 'positionCoords': [203.4, 154.5], 'bid': 9.68}, {'imgObject': {}, 'id': 'sweetpotato', 'src': '/static/foodstim60/sweetpotato.jpg', 'key': 'i', 'origWidth': 410, 'origHeight': 410, 'width': 410, 'height': 410, 'widthPercent': 0.45, 'rescaleHeight': False, 'trialN': 74, 'loaded': True, 'loadedTime': 5180.800000000745, 'positionName': 'RIGHT', 'positionCoords': [665.6, 155], 'bid': 0.18}]",120724.0,1669829857139,tacos,sweetpotato,9.68,0.18,-9.5,tacos,3108.0999999996275,3109,3109.0,True,u,124347.5,3623.5,1669829860763,3624,HRV,HRV_0060,2022-11-30 17:40:30
75,"[{'imgObject': {}, 'id': 'baked potato', 'src': '/static/foodstim60/baked potato.jpg', 'key': 'u', 'origWidth': 409, 'origHeight': 410, 'width': 409, 'height': 410, 'widthPercent': 0.45, 'rescaleHeight': False, 'trialN': 75, 'loaded': True, 'loadedTime': 4449.800000000745, 'positionName': 'LEFT', 'positionCoords': [205.4, 155], 'bid': 5.03}, {'imgObject': {}, 'id': 'popsicles', 'src': '/static/foodstim60/popsicles.jpg', 'key': 'i', 'origWidth': 410, 'origHeight': 410, 'width': 410, 'height': 410, 'widthPercent': 0.45, 'rescaleHeight': False, 'trialN': 75, 'loaded': True, 'loadedTime': 5799.9000000003725, 'positionName': 'RIGHT', 'positionCoords': [665.6, 155], 'bid': 6.7}]",124348.20000000112,1669829860763,baked potato,popsicles,5.03,6.7,1.67,baked potato,1556.2999999988824,1557,1557.2999999988824,True,u,126425.80000000075,2077.5999999996275,1669829862841,2078,HRV,HRV_0060,2022-11-30 17:40:30
76,"[{'imgObject': {}, 'id': 'edamame', 'src': '/static/foodstim60/edamame.jpg', 'key': 'u', 'origWidth': 409, 'origHeight': 410, 'width': 409, 'height': 410, 'widthPercent': 0.45, 'rescaleHeight': False, 'trialN': 76, 'loaded': True, 'loadedTime': 4508.0999999996275, 'positionName': 'LEFT', 'positionCoords': [205.4, 155], 'bid': 0.2}, {'imgObject': {}, 'id': 'mango', 'src': '/static/foodstim60/mango.jpg', 'key': 'i', 'origWidth': 411, 'origHeight': 411, 'width': 411, 'height': 411, 'widthPercent': 0.45, 'rescaleHeight': False, 'trialN': 76, 'loaded': True, 'loadedTime': 4488.300000000745, 'positionName': 'RIGHT', 'positionCoords': [665.6, 154.5], 'bid': 1.09}]",126426.5,1669829862842,edamame,mango,0.2,1.09,0.8900000000000001,edamame,1439.7000000011176,1440,1440.5999999996275,True,u,128377.59999999963,1951.0999999996275,1669829864793,1951,HRV,HRV_0060,2022-11-30 17:40:30
77,"[{'imgObject': {}, 'id': 'sweetpotato', 'src': '/static/foodstim60/sweetpotato.jpg', 'key': 'u', 'origWidth': 410, 'origHeight': 410, 'width': 410, 'height': 410, 'widthPercent': 0.45, 'rescaleHeight': False, 'trialN': 77, 'loaded': True, 'loadedTime': 5175, 'positionName': 'LEFT', 'positionCoords': [204.4, 155], 'bid': 0.18}, {'imgObject': {}, 'id': 'shreddedwheatwithmilk', 'src': '/static/foodstim60/shreddedwheatwithmilk.jpg', 'key': 'i', 'origWidth': 410, 'origHeight': 410, 'width': 410, 'height': 410, 'widthPercent': 0.45, 'rescaleHeight': False, 'trialN': 77, 'loaded': True, 'loadedTime': 5164.200000001118, 'positionName': 'RIGHT', 'positionCoords': [665.6, 155], 'bid': 3.48}]",128378.20000000112,1669829864793,sweetpotato,shreddedwheatwithmilk,0.18,3.48,3.3,shreddedwheatwithmilk,1405.0999999996275,1406,1405.8999999985099,True,i,130295.90000000037,1917.699999999255,1669829866711,1918,HRV,HRV_0060,2022-11-30 17:40:30
78,"[{'imgObject': {}, 'id': 'Tribe humus pita', 'src': '/static/foodstim60/Tribe humus pita.jpg', 'key': 'u', 'origWidth': 411, 'origHeight': 411, 'width': 411, 'height': 411, 'widthPercent': 0.45, 'rescaleHeight': False, 'trialN': 78, 'loaded': True, 'loadedTime': 4457.700000001118, 'positionName': 'LEFT', 'positionCoords': [203.4, 154.5], 'bid': 6.75}, {'imgObject': {}, 'id': 'avocado', 'src': '/static/foodstim60/avocado.jpg', 'key': 'i', 'origWidth': 409, 'origHeight': 409, 'width': 409, 'height': 409, 'widthPercent': 0.45, 'rescaleHeight': False, 'trialN': 78, 'loaded': True, 'loadedTime': 4822, 'positionName': 'RIGHT', 'positionCoords': [665.6, 155.5], 'bid': 9.67}]",130296.30000000075,1669829866711,Tribe humus pita,avocado,6.75,9.67,2.92,avocado,1029,1030,1030.0999999996275,True,i,131831.90000000037,1535.5999999996275,1669829868247,1536,HRV,HRV_0060,2022-11-30 17:40:30
79,"[{'imgObject': {}, 'id': 'turkeysandwich', 'src': '/static/foodstim60/turkeysandwich.jpg', 'key': 'u', 'origWidth': 409, 'origHeight': 409, 'width': 409, 'height': 409, 'widthPercent': 0.45, 'rescaleHeight': False, 'trialN': 79, 'loaded': True, 'loadedTime': 5107.0999999996275, 'positionName': 'LEFT', 'positionCoords': [205.4, 155.5], 'bid': 9.81}, {'imgObject': {}, 'id': 'bagel plain', 'src': '/static/foodstim60/bagel plain.jpg', 'key': 'i', 'origWidth': 410, 'origHeight': 410, 'width': 410, 'height': 410, 'widthPercent': 0.45, 'rescaleHeight': False, 'trialN': 79, 'loaded': True, 'loadedTime': 5167.0999999996275, 'positionName': 'RIGHT', 'positionCoords': [665.6, 155], 'bid': 9.84}]",131832.40000000037,1669829868247,turkeysandwich,bagel plain,9.81,9.84,0.02999999999999936,bagel plain,979.0999999996275,981,980.1999999992549,True,i,133322.80000000075,1490.4000000003725,1669829869738,1491,HRV,HRV_0060,2022-11-30 17:40:30
80,"[{'imgObject': {}, 'id': 'salad w chicken', 'src': '/static/foodstim60/salad w chicken.jpg', 'key': 'u', 'origWidth': 411, 'origHeight': 411, 'width': 411, 'height': 411, 'widthPercent': 0.45, 'rescaleHeight': False, 'trialN': 80, 'loaded': True, 'loadedTime': 5062.700000001118, 'positionName': 'LEFT', 'positionCoords': [203.4, 154.5], 'bid': 1.34}, {'imgObject': {}, 'id': 'hashbrowns', 'src': '/static/foodstim60/hashbrowns.jpg', 'key': 'i', 'origWidth': 411, 'origHeight': 410, 'width': 411, 'height': 410, 'widthPercent': 0.45, 'rescaleHeight': False, 'trialN': 80, 'loaded': True, 'loadedTime': 5054, 'positionName': 'RIGHT', 'positionCoords': [665.6, 155], 'bid': 0.8200000000000001}]",133323.30000000075,1669829869738,salad w chicken,hashbrowns,1.34,0.8200000000000001,-0.52,hashbrowns,1011.7999999988824,1013,1012.7999999988824,True,i,134849.09999999963,1525.7999999988824,1669829871264,1526,HRV,HRV_0060,2022-11-30 17:40:30
81,"[{'imgObject': {}, 'id': 'avocado', 'src': '/static/foodstim60/avocado.jpg', 'key': 'u', 'origWidth': 409, 'origHeight': 409, 'width': 409, 'height': 409, 'widthPercent': 0.45, 'rescaleHeight': False, 'trialN': 81, 'loaded': True, 'loadedTime': 4824.200000001118, 'positionName': 'LEFT', 'positionCoords': [205.4, 155.5], 'bid': 9.67}, {'imgObject': {}, 'id': 'turkeysandwich', 'src': '/static/foodstim60/turkeysandwich.jpg', 'key': 'i', 'origWidth': 409, 'origHeight': 409, 'width': 409, 'height': 409, 'widthPercent': 0.45, 'rescaleHeight': False, 'trialN': 81, 'loaded': True, 'loadedTime': 5106.9000000003725, 'positionName': 'RIGHT', 'positionCoords': [665.6, 155.5], 'bid': 9.81}]",134849.59999999963,1669829871265,avocado,turkeysandwich,9.67,9.81,0.14000000000000057,turkeysandwich,965.1000000014901,966,966.1000000014901,True,i,136320.90000000037,1471.300000000745,1669829872736,1471,HRV,HRV_0060,2022-11-30 17:40:30
82,"[{'imgObject': {}, 'id': 'pear', 'src': '/static/foodstim60/pear.jpg', 'key': 'u', 'origWidth': 411, 'origHeight': 410, 'width': 411, 'height': 410, 'widthPercent': 0.45, 'rescaleHeight': False, 'trialN': 82, 'loaded': True, 'loadedTime': 4346.4000000003725, 'positionName': 'LEFT', 'positionCoords': [203.4, 155], 'bid': 9.67}, {'imgObject': {}, 'id': 'chicken nuggets2', 'src': '/static/foodstim60/chicken nuggets2.jpg', 'key': 'i', 'origWidth': 410, 'origHeight': 409, 'width': 410, 'height': 409, 'widthPercent': 0.45, 'rescaleHeight': False, 'trialN': 82, 'loaded': True, 'loadedTime': 4435.5, 'positionName': 'RIGHT', 'positionCoords': [665.6, 155.5], 'bid': 9.82}]",136321.5,1669829872736,pear,chicken nuggets2,9.67,9.82,0.15000000000000036,chicken nuggets2,740.9000000003725,742,741.8000000007451,True,i,137564.5,1243.0,1669829873979,1243,HRV,HRV_0060,2022-11-30 17:40:30
83,"[{'imgObject': {}, 'id': 'turkeysandwich', 'src': '/static/foodstim60/turkeysandwich.jpg', 'key': 'u', 'origWidth': 409, 'origHeight': 409, 'width': 409, 'height': 409, 'widthPercent': 0.45, 'rescaleHeight': False, 'trialN': 83, 'loaded': True, 'loadedTime': 5107.4000000003725, 'positionName': 'LEFT', 'positionCoords': [205.4, 155.5], 'bid': 9.81}, {'imgObject': {}, 'id': 'eggsalad', 'src': '/static/foodstim60/eggsalad.jpg', 'key': 'i', 'origWidth': 410, 'origHeight': 409, 'width': 410, 'height': 409, 'widthPercent': 0.45, 'rescaleHeight': False, 'trialN': 83, 'loaded': True, 'loadedTime': 4508.5999999996275, 'positionName': 'RIGHT', 'positionCoords': [665.6, 155.5], 'bid': 2.46}]",137565.09999999963,1669829873980,turkeysandwich,eggsalad,9.81,2.46,-7.3500000000000005,turkeysandwich,800.6000000014901,801,801.3000000007451,True,u,138883.80000000075,1318.7000000011176,1669829875299,1319,HRV,HRV_0060,2022-11-30 17:40:30
84,"[{'imgObject': {}, 'id': 'chicken nuggets2', 'src': '/static/foodstim60/chicken nuggets2.jpg', 'key': 'u', 'origWidth': 410, 'origHeight': 409, 'width': 410, 'height': 409, 'widthPercent': 0.45, 'rescaleHeight': False, 'trialN': 84, 'loaded': True, 'loadedTime': 4436.5, 'positionName': 'LEFT', 'positionCoords': [204.4, 155.5], 'bid': 9.82}, {'imgObject': {}, 'id': 'salmon', 'src': '/static/foodstim60/salmon.jpg', 'key': 'i', 'origWidth': 410, 'origHeight': 409, 'width': 410, 'height': 409, 'widthPercent': 0.45, 'rescaleHeight': False, 'trialN': 84, 'loaded': True, 'loadedTime': 5005, 'positionName': 'RIGHT', 'positionCoords': [665.6, 155.5], 'bid': 9.89}]",138884.30000000075,1669829875299,chicken nuggets2,salmon,9.82,9.89,0.07000000000000028,chicken nuggets2,694.2999999988824,696,695.4000000003725,True,u,140095.40000000037,1211.0999999996275,1669829876510,1211,HRV,HRV_0060,2022-11-30 17:40:30
85,"[{'imgObject': {}, 'id': 'strawberries', 'src': '/static/foodstim60/strawberries.jpg', 'key': 'u', 'origWidth': 410, 'origHeight': 410, 'width': 410, 'height': 410, 'widthPercent': 0.45, 'rescaleHeight': False, 'trialN': 85, 'loaded': True, 'loadedTime': 4489.800000000745, 'positionName': 'LEFT', 'positionCoords': [204.4, 155], 'bid': 9.78}, {'imgObject': {}, 'id': 'tacos', 'src': '/static/foodstim60/tacos.jpg', 'key': 'i', 'origWidth': 411, 'origHeight': 411, 'width': 411, 'height': 411, 'widthPercent': 0.45, 'rescaleHeight': False, 'trialN': 85, 'loaded': True, 'loadedTime': 5105.0999999996275, 'positionName': 'RIGHT', 'positionCoords': [665.6, 154.5], 'bid': 9.68}]",140095.70000000112,1669829876511,strawberries,tacos,9.78,9.68,-0.09999999999999964,tacos,896.7999999988824,898,897.7999999988824,True,i,141507.80000000075,1412.0999999996275,1669829877923,1412,HRV,HRV_0060,2022-11-30 17:40:30
86,"[{'imgObject': {}, 'id': 'mango', 'src': '/static/foodstim60/mango.jpg', 'key': 'u', 'origWidth': 411, 'origHeight': 411, 'width': 411, 'height': 411, 'widthPercent': 0.45, 'rescaleHeight': False, 'trialN': 86, 'loaded': True, 'loadedTime': 4488.0999999996275, 'positionName': 'LEFT', 'positionCoords': [203.4, 154.5], 'bid': 1.09}, {'imgObject': {}, 'id': 'rigatoni', 'src': '/static/foodstim60/rigatoni.jpg', 'key': 'i', 'origWidth': 411, 'origHeight': 411, 'width': 411, 'height': 411, 'widthPercent': 0.45, 'rescaleHeight': False, 'trialN': 86, 'loaded': True, 'loadedTime': 5051.300000000745, 'positionName': 'RIGHT', 'positionCoords': [665.6, 154.5], 'bid': 4.7}]",141508.40000000037,1669829877923,mango,rigatoni,1.09,4.7,3.6100000000000003,rigatoni,826.5,828,827.4000000003725,True,i,142847.70000000112,1339.300000000745,1669829879263,1340,HRV,HRV_0060,2022-11-30 17:40:30
87,"[{'imgObject': {}, 'id': 'kiwi', 'src': '/static/foodstim60/kiwi.jpg', 'key': 'u', 'origWidth': 410, 'origHeight': 410, 'width': 410, 'height': 410, 'widthPercent': 0.45, 'rescaleHeight': False, 'trialN': 87, 'loaded': True, 'loadedTime': 4355.800000000745, 'positionName': 'LEFT', 'positionCoords': [204.4, 155], 'bid': 0.29}, {'imgObject': {}, 'id': 'cherry tomato', 'src': '/static/foodstim60/cherry tomato.jpg', 'key': 'i', 'origWidth': 410, 'origHeight': 410, 'width': 410, 'height': 410, 'widthPercent': 0.45, 'rescaleHeight': False, 'trialN': 87, 'loaded': True, 'loadedTime': 4471.5, 'positionName': 'RIGHT', 'positionCoords': [665.6, 155], 'bid': 0.09}]",142848.0,1669829879263,kiwi,cherry tomato,0.29,0.09,-0.19999999999999998,cherry tomato,854.9000000003725,856,855.8000000007451,True,i,144213.80000000075,1365.800000000745,1669829880629,1366,HRV,HRV_0060,2022-11-30 17:40:30
88,"[{'imgObject': {}, 'id': 'lox', 'src': '/static/foodstim60/lox.jpg', 'key': 'u', 'origWidth': 410, 'origHeight': 411, 'width': 410, 'height': 411, 'widthPercent': 0.45, 'rescaleHeight': False, 'trialN': 88, 'loaded': True, 'loadedTime': 4731.9000000003725, 'positionName': 'LEFT', 'positionCoords': [204.4, 154.5], 'bid': 9.78}, {'imgObject': {}, 'id': 'ice cream sundae 002', 'src': '/static/foodstim60/ice cream sundae 002.jpg', 'key': 'i', 'origWidth': 409, 'origHeight': 409, 'width': 409, 'height': 409, 'widthPercent': 0.45, 'rescaleHeight': False, 'trialN': 88, 'loaded': True, 'loadedTime': 5181.200000001118, 'positionName': 'RIGHT', 'positionCoords': [665.6, 155.5], 'bid': 9.71}]",144214.20000000112,1669829880629,lox,ice cream sundae 002,9.78,9.71,-0.06999999999999851,lox,850.5999999996275,852,851.5999999996275,True,u,145579.80000000075,1365.5999999996275,1669829881995,1366,HRV,HRV_0060,2022-11-30 17:40:30
89,"[{'imgObject': {}, 'id': 'cherries', 'src': '/static/foodstim60/cherries.jpg', 'key': 'u', 'origWidth': 410, 'origHeight': 411, 'width': 410, 'height': 411, 'widthPercent': 0.45, 'rescaleHeight': False, 'trialN': 89, 'loaded': True, 'loadedTime': 5112.4000000003725, 'positionName': 'LEFT', 'positionCoords': [204.4, 154.5], 'bid': 0.45}, {'imgObject': {}, 'id': 'mac & cheese', 'src': '/static/foodstim60/mac & cheese.jpg', 'key': 'i', 'origWidth': 410, 'origHeight': 410, 'width': 410, 'height': 410, 'widthPercent': 0.45, 'rescaleHeight': False, 'trialN': 89, 'loaded': True, 'loadedTime': 4946, 'positionName': 'RIGHT', 'positionCoords': [665.6, 155], 'bid': 0.71}]",145580.5,1669829881995,cherries,mac & cheese,0.45,0.71,0.25999999999999995,cherries,1229.5999999996275,1231,1230.7000000011176,True,u,147323.59999999963,1743.0999999996275,1669829883738,1743,HRV,HRV_0060,2022-11-30 17:40:30
90,"[{'imgObject': {}, 'id': 'sweetpotato', 'src': '/static/foodstim60/sweetpotato.jpg', 'key': 'u', 'origWidth': 410, 'origHeight': 410, 'width': 410, 'height': 410, 'widthPercent': 0.45, 'rescaleHeight': False, 'trialN': 90, 'loaded': True, 'loadedTime': 5178.9000000003725, 'positionName': 'LEFT', 'positionCoords': [204.4, 155], 'bid': 0.18}, {'imgObject': {}, 'id': 'fruitsalad', 'src': '/static/foodstim60/fruitsalad.jpg', 'key': 'i', 'origWidth': 410, 'origHeight': 410, 'width': 410, 'height': 410, 'widthPercent': 0.45, 'rescaleHeight': False, 'trialN': 90, 'loaded': True, 'loadedTime': 5156.9000000003725, 'positionName': 'RIGHT', 'positionCoords': [665.6, 155], 'bid': 0}]",150974.0,1669829887389,sweetpotato,fruitsalad,0.18,0.0,-0.18,fruitsalad,955,956,956.3000000007451,True,i,152451.09999999963,1477.0999999996275,1669829888866,1477,HRV,HRV_0060,2022-11-30 17:40:30
91,"[{'imgObject': {}, 'id': 'luckycharms', 'src': '/static/foodstim60/luckycharms.jpg', 'key': 'u', 'origWidth': 410, 'origHeight': 409, 'width': 410, 'height': 409, 'widthPercent': 0.45, 'rescaleHeight': False, 'trialN': 91, 'loaded': True, 'loadedTime': 4253.5, 'positionName': 'LEFT', 'positionCoords': [204.4, 155.5], 'bid': 0.18}, {'imgObject': {}, 'id': 'edamame', 'src': '/static/foodstim60/edamame.jpg', 'key': 'i', 'origWidth': 409, 'origHeight': 410, 'width': 409, 'height': 410, 'widthPercent': 0.45, 'rescaleHeight': False, 'trialN': 91, 'loaded': True, 'loadedTime': 4508.4000000003725, 'positionName': 'RIGHT', 'positionCoords': [665.6, 155], 'bid': 0.2}]",152451.59999999963,1669829888866,luckycharms,edamame,0.18,0.2,0.020000000000000018,luckycharms,948.3000000007451,950,949.4000000003725,True,u,153912.20000000112,1460.6000000014901,1669829890327,1461,HRV,HRV_0060,2022-11-30 17:40:30
92,"[{'imgObject': {}, 'id': 'granola w milk', 'src': '/static/foodstim60/granola w milk.jpg', 'key': 'u', 'origWidth': 410, 'origHeight': 410, 'width': 410, 'height': 410, 'widthPercent': 0.45, 'rescaleHeight': False, 'trialN': 92, 'loaded': True, 'loadedTime': 4467.200000001118, 'positionName': 'LEFT', 'positionCoords': [204.4, 155], 'bid': 0.7000000000000001}, {'imgObject': {}, 'id': 'blackbeanswithrice', 'src': '/static/foodstim60/blackbeanswithrice.jpg', 'key': 'i', 'origWidth': 410, 'origHeight': 410, 'width': 410, 'height': 410, 'widthPercent': 0.45, 'rescaleHeight': False, 'trialN': 92, 'loaded': True, 'loadedTime': 4426.300000000745, 'positionName': 'RIGHT', 'positionCoords': [665.6, 155], 'bid': 9.78}]",153912.80000000075,1669829890328,granola w milk,blackbeanswithrice,0.7000000000000001,9.78,9.08,blackbeanswithrice,887.9000000003725,889,888.9000000003725,True,i,155309.90000000037,1397.0999999996275,1669829891725,1397,HRV,HRV_0060,2022-11-30 17:40:30
93,"[{'imgObject': {}, 'id': 'corn cob', 'src': '/static/foodstim60/corn cob.jpg', 'key': 'u', 'origWidth': 411, 'origHeight': 411, 'width': 411, 'height': 411, 'widthPercent': 0.45, 'rescaleHeight': False, 'trialN': 93, 'loaded': True, 'loadedTime': 5191.800000000745, 'positionName': 'LEFT', 'positionCoords': [203.4, 154.5], 'bid': 0.06}, {'imgObject': {}, 'id': 'cherries', 'src': '/static/foodstim60/cherries.jpg', 'key': 'i', 'origWidth': 410, 'origHeight': 411, 'width': 410, 'height': 411, 'widthPercent': 0.45, 'rescaleHeight': False, 'trialN': 93, 'loaded': True, 'loadedTime': 5116.700000001118, 'positionName': 'RIGHT', 'positionCoords': [665.6, 154.5], 'bid': 0.45}]",155310.30000000075,1669829891725,corn cob,cherries,0.06,0.45,0.39,cherries,789.0999999996275,790,790.0999999996275,True,i,156604.70000000112,1294.4000000003725,1669829893020,1295,HRV,HRV_0060,2022-11-30 17:40:30
94,"[{'imgObject': {}, 'id': 'froot loops w milk', 'src': '/static/foodstim60/froot loops w milk.jpg', 'key': 'u', 'origWidth': 410, 'origHeight': 410, 'width': 410, 'height': 410, 'widthPercent': 0.45, 'rescaleHeight': False, 'trialN': 94, 'loaded': True, 'loadedTime': 4816.300000000745, 'positionName': 'LEFT', 'positionCoords': [204.4, 155], 'bid': 0.28}, {'imgObject': {}, 'id': 'seaweed', 'src': '/static/foodstim60/seaweed.jpg', 'key': 'i', 'origWidth': 410, 'origHeight': 410, 'width': 410, 'height': 410, 'widthPercent': 0.45, 'rescaleHeight': False, 'trialN': 94, 'loaded': True, 'loadedTime': 4484.300000000745, 'positionName': 'RIGHT', 'positionCoords': [665.6, 155], 'bid': 0.31}]",156605.0,1669829893020,froot loops w milk,seaweed,0.28,0.31,0.02999999999999997,froot loops w milk,803.9000000003725,805,804.9000000003725,True,u,157921.70000000112,1316.7000000011176,1669829894337,1317,HRV,HRV_0060,2022-11-30 17:40:30
95,"[{'imgObject': {}, 'id': 'salad w chicken', 'src': '/static/foodstim60/salad w chicken.jpg', 'key': 'u', 'origWidth': 411, 'origHeight': 411, 'width': 411, 'height': 411, 'widthPercent': 0.45, 'rescaleHeight': False, 'trialN': 95, 'loaded': True, 'loadedTime': 5061.700000001118, 'positionName': 'LEFT', 'positionCoords': [203.4, 154.5], 'bid': 1.34}, {'imgObject': {}, 'id': 'corn cob', 'src': '/static/foodstim60/corn cob.jpg', 'key': 'i', 'origWidth': 411, 'origHeight': 411, 'width': 411, 'height': 411, 'widthPercent': 0.45, 'rescaleHeight': False, 'trialN': 95, 'loaded': True, 'loadedTime': 5191.0999999996275, 'positionName': 'RIGHT', 'positionCoords': [665.6, 154.5], 'bid': 0.06}]",157922.09999999963,1669829894337,salad w chicken,corn cob,1.34,0.06,-1.28,corn cob,1386.7000000011176,1388,1387.800000000745,True,i,159815.20000000112,1893.1000000014901,1669829896230,1893,HRV,HRV_0060,2022-11-30 17:40:30
96,"[{'imgObject': {}, 'id': 'pear', 'src': '/static/foodstim60/pear.jpg', 'key': 'u', 'origWidth': 411, 'origHeight': 410, 'width': 411, 'height': 410, 'widthPercent': 0.45, 'rescaleHeight': False, 'trialN': 96, 'loaded': True, 'loadedTime': 4348.700000001118, 'positionName': 'LEFT', 'positionCoords': [203.4, 155], 'bid': 9.67}, {'imgObject': {}, 'id': 'blueberries', 'src': '/static/foodstim60/blueberries.jpg', 'key': 'i', 'origWidth': 411, 'origHeight': 411, 'width': 411, 'height': 411, 'widthPercent': 0.45, 'rescaleHeight': False, 'trialN': 96, 'loaded': True, 'loadedTime': 4481.9000000003725, 'positionName': 'RIGHT', 'positionCoords': [665.6, 154.5], 'bid': 8.07}]",159815.70000000112,1669829896231,pear,blueberries,9.67,8.07,-1.5999999999999996,blueberries,902.5,903,903.5999999996275,True,i,161227.80000000075,1412.0999999996275,1669829897643,1412,HRV,HRV_0060,2022-11-30 17:40:30
97,"[{'imgObject': {}, 'id': 'strawberries', 'src': '/static/foodstim60/strawberries.jpg', 'key': 'u', 'origWidth': 410, 'origHeight': 410, 'width': 410, 'height': 410, 'widthPercent': 0.45, 'rescaleHeight': False, 'trialN': 97, 'loaded': True, 'loadedTime': 4489.9000000003725, 'positionName': 'LEFT', 'positionCoords': [204.4, 155], 'bid': 9.78}, {'imgObject': {}, 'id': 'grilled chicken strips', 'src': '/static/foodstim60/grilled chicken strips.jpg', 'key': 'i', 'origWidth': 410, 'origHeight': 411, 'width': 410, 'height': 411, 'widthPercent': 0.45, 'rescaleHeight': False, 'trialN': 97, 'loaded': True, 'loadedTime': 5015.4000000003725, 'positionName': 'RIGHT', 'positionCoords': [665.6, 154.5], 'bid': 9.96}]",161228.20000000112,1669829897643,strawberries,grilled chicken strips,9.78,9.96,0.1800000000000015,grilled chicken strips,1021.0999999996275,1022,1022.0999999996275,True,i,162770.70000000112,1542.5,1669829899186,1543,HRV,HRV_0060,2022-11-30 17:40:30
98,"[{'imgObject': {}, 'id': 'bagel plain', 'src': '/static/foodstim60/bagel plain.jpg', 'key': 'u', 'origWidth': 410, 'origHeight': 410, 'width': 410, 'height': 410, 'widthPercent': 0.45, 'rescaleHeight': False, 'trialN': 98, 'loaded': True, 'loadedTime': 5166.300000000745, 'positionName': 'LEFT', 'positionCoords': [204.4, 155], 'bid': 9.84}, {'imgObject': {}, 'id': 'burrito', 'src': '/static/foodstim60/burrito.jpg', 'key': 'i', 'origWidth': 410, 'origHeight': 410, 'width': 410, 'height': 410, 'widthPercent': 0.45, 'rescaleHeight': False, 'trialN': 98, 'loaded': True, 'loadedTime': 5109.300000000745, 'positionName': 'RIGHT', 'positionCoords': [665.6, 155], 'bid': 9.78}]",162771.5,1669829899186,bagel plain,burrito,9.84,9.78,-0.0600000000000005,burrito,1048.4000000003725,1050,1049.5,True,i,164336.70000000112,1565.2000000011176,1669829900752,1566,HRV,HRV_0060,2022-11-30 17:40:30
99,"[{'imgObject': {}, 'id': 'eggsalad', 'src': '/static/foodstim60/eggsalad.jpg', 'key': 'u', 'origWidth': 410, 'origHeight': 409, 'width': 410, 'height': 409, 'widthPercent': 0.45, 'rescaleHeight': False, 'trialN': 99, 'loaded': True, 'loadedTime': 4509.800000000745, 'positionName': 'LEFT', 'positionCoords': [204.4, 155.5], 'bid': 2.46}, {'imgObject': {}, 'id': 'mango', 'src': '/static/foodstim60/mango.jpg', 'key': 'i', 'origWidth': 411, 'origHeight': 411, 'width': 411, 'height': 411, 'widthPercent': 0.45, 'rescaleHeight': False, 'trialN': 99, 'loaded': True, 'loadedTime': 4487.700000001118, 'positionName': 'RIGHT', 'positionCoords': [665.6, 154.5], 'bid': 1.09}]",164337.20000000112,1669829900752,eggsalad,mango,2.46,1.09,-1.3699999999999999,mango,1716.8999999985099,1718,1718.0,True,i,166562.40000000037,2225.199999999255,1669829902977,2225,HRV,HRV_0060,2022-11-30 17:40:30
100,"[{'imgObject': {}, 'id': 'eggs', 'src': '/static/foodstim60/eggs.jpg', 'key': 'u', 'origWidth': 409, 'origHeight': 409, 'width': 409, 'height': 409, 'widthPercent': 0.45, 'rescaleHeight': False, 'trialN': 100, 'loaded': True, 'loadedTime': 4950.200000001118, 'positionName': 'LEFT', 'positionCoords': [205.4, 155.5], 'bid': 9.87}, {'imgObject': {}, 'id': 'fried eggs', 'src': '/static/foodstim60/fried eggs.jpg', 'key': 'i', 'origWidth': 410, 'origHeight': 410, 'width': 410, 'height': 410, 'widthPercent': 0.45, 'rescaleHeight': False, 'trialN': 100, 'loaded': True, 'loadedTime': 4466.5, 'positionName': 'RIGHT', 'positionCoords': [665.6, 155], 'bid': 9.75}]",166563.09999999963,1669829902978,eggs,fried eggs,9.87,9.75,-0.11999999999999922,fried eggs,1085.2000000011176,1086,1086.1000000014901,True,i,168166.0,1602.9000000003725,1669829904581,1603,HRV,HRV_0060,2022-11-30 17:40:30
101,"[{'imgObject': {}, 'id': 'steak', 'src': '/static/foodstim60/steak.jpg', 'key': 'u', 'origWidth': 410, 'origHeight': 410, 'width': 410, 'height': 410, 'widthPercent': 0.45, 'rescaleHeight': False, 'trialN': 101, 'loaded': True, 'loadedTime': 4493.5, 'positionName': 'LEFT', 'positionCoords': [204.4, 155], 'bid': 9.79}, {'imgObject': {}, 'id': 'blackbeanswithrice', 'src': '/static/foodstim60/blackbeanswithrice.jpg', 'key': 'i', 'origWidth': 410, 'origHeight': 410, 'width': 410, 'height': 410, 'widthPercent': 0.45, 'rescaleHeight': False, 'trialN': 101, 'loaded': True, 'loadedTime': 4429.9000000003725, 'positionName': 'RIGHT', 'positionCoords': [665.6, 155], 'bid': 9.78}]",168166.59999999963,1669829904581,steak,blackbeanswithrice,9.79,9.78,-0.009999999999999787,steak,1200.800000000745,1202,1201.9000000003725,True,u,169888.20000000112,1721.6000000014901,1669829906303,1722,HRV,HRV_0060,2022-11-30 17:40:30
102,"[{'imgObject': {}, 'id': 'chicken nuggets2', 'src': '/static/foodstim60/chicken nuggets2.jpg', 'key': 'u', 'origWidth': 410, 'origHeight': 409, 'width': 410, 'height': 409, 'widthPercent': 0.45, 'rescaleHeight': False, 'trialN': 102, 'loaded': True, 'loadedTime': 4431.800000000745, 'positionName': 'LEFT', 'positionCoords': [204.4, 155.5], 'bid': 9.82}, {'imgObject': {}, 'id': 'raisin bran w milk', 'src': '/static/foodstim60/raisin bran w milk.jpg', 'key': 'i', 'origWidth': 411, 'origHeight': 411, 'width': 411, 'height': 411, 'widthPercent': 0.45, 'rescaleHeight': False, 'trialN': 102, 'loaded': True, 'loadedTime': 4460.5999999996275, 'positionName': 'RIGHT', 'positionCoords': [665.6, 154.5], 'bid': 3.46}]",169888.59999999963,1669829906304,chicken nuggets2,raisin bran w milk,9.82,3.46,-6.36,chicken nuggets2,789,789,790.0,True,u,171190.20000000112,1301.6000000014901,1669829907605,1301,HRV,HRV_0060,2022-11-30 17:40:30
103,"[{'imgObject': {}, 'id': 'cherries', 'src': '/static/foodstim60/cherries.jpg', 'key': 'u', 'origWidth': 410, 'origHeight': 411, 'width': 410, 'height': 411, 'widthPercent': 0.45, 'rescaleHeight': False, 'trialN': 103, 'loaded': True, 'loadedTime': 5115.0999999996275, 'positionName': 'LEFT', 'positionCoords': [204.4, 154.5], 'bid': 0.45}, {'imgObject': {}, 'id': 'Tribe humus pita', 'src': '/static/foodstim60/Tribe humus pita.jpg', 'key': 'i', 'origWidth': 411, 'origHeight': 411, 'width': 411, 'height': 411, 'widthPercent': 0.45, 'rescaleHeight': False, 'trialN': 103, 'loaded': True, 'loadedTime': 4457.800000000745, 'positionName': 'RIGHT', 'positionCoords': [665.6, 154.5], 'bid': 6.75}]",171191.0,1669829907606,cherries,Tribe humus pita,0.45,6.75,6.3,Tribe humus pita,814.5999999996275,816,815.5999999996275,True,i,172511.30000000075,1320.300000000745,1669829908926,1320,HRV,HRV_0060,2022-11-30 17:40:30
104,"[{'imgObject': {}, 'id': 'fried eggs', 'src': '/static/foodstim60/fried eggs.jpg', 'key': 'u', 'origWidth': 410, 'origHeight': 410, 'width': 410, 'height': 410, 'widthPercent': 0.45, 'rescaleHeight': False, 'trialN': 104, 'loaded': True, 'loadedTime': 4466.700000001118, 'positionName': 'LEFT', 'positionCoords': [204.4, 155], 'bid': 9.75}, {'imgObject': {}, 'id': 'tacos', 'src': '/static/foodstim60/tacos.jpg', 'key': 'i', 'origWidth': 411, 'origHeight': 411, 'width': 411, 'height': 411, 'widthPercent': 0.45, 'rescaleHeight': False, 'trialN': 104, 'loaded': True, 'loadedTime': 5105.4000000003725, 'positionName': 'RIGHT', 'positionCoords': [665.6, 154.5], 'bid': 9.68}]",172511.90000000037,1669829908927,fried eggs,tacos,9.75,9.68,-0.07000000000000028,tacos,705,706,705.9000000003725,True,i,173734.59999999963,1222.699999999255,1669829910150,1223,HRV,HRV_0060,2022-11-30 17:40:30
105,"[{'imgObject': {}, 'id': 'veggieswithdip', 'src': '/static/foodstim60/veggieswithdip.jpg', 'key': 'u', 'origWidth': 409, 'origHeight': 409, 'width': 409, 'height': 409, 'widthPercent': 0.45, 'rescaleHeight': False, 'trialN': 105, 'loaded': True, 'loadedTime': 5112.200000001118, 'positionName': 'LEFT', 'positionCoords': [205.4, 155.5], 'bid': 0}, {'imgObject': {}, 'id': 'fruitsalad', 'src': '/static/foodstim60/fruitsalad.jpg', 'key': 'i', 'origWidth': 410, 'origHeight': 410, 'width': 410, 'height': 410, 'widthPercent': 0.45, 'rescaleHeight': False, 'trialN': 105, 'loaded': True, 'loadedTime': 5156.5999999996275, 'positionName': 'RIGHT', 'positionCoords': [665.6, 155], 'bid': 0}]",173735.30000000075,1669829910150,veggieswithdip,fruitsalad,0.0,0.0,0.0,fruitsalad,1068.699999999255,1070,1069.699999999255,True,i,175317.5,1582.199999999255,1669829911732,1582,HRV,HRV_0060,2022-11-30 17:40:30
106,"[{'imgObject': {}, 'id': 'sweetpotato', 'src': '/static/foodstim60/sweetpotato.jpg', 'key': 'u', 'origWidth': 410, 'origHeight': 410, 'width': 410, 'height': 410, 'widthPercent': 0.45, 'rescaleHeight': False, 'trialN': 106, 'loaded': True, 'loadedTime': 5179.0999999996275, 'positionName': 'LEFT', 'positionCoords': [204.4, 155], 'bid': 0.18}, {'imgObject': {}, 'id': 'cherry tomato', 'src': '/static/foodstim60/cherry tomato.jpg', 'key': 'i', 'origWidth': 410, 'origHeight': 410, 'width': 410, 'height': 410, 'widthPercent': 0.45, 'rescaleHeight': False, 'trialN': 106, 'loaded': True, 'loadedTime': 4471.700000001118, 'positionName': 'RIGHT', 'positionCoords': [665.6, 155], 'bid': 0.09}]",175318.0,1669829911733,sweetpotato,cherry tomato,0.18,0.09,-0.09,sweetpotato,916.5999999996275,917,917.5999999996275,True,u,176749.59999999963,1431.5999999996275,1669829913164,1431,HRV,HRV_0060,2022-11-30 17:40:30
107,"[{'imgObject': {}, 'id': 'hashbrowns', 'src': '/static/foodstim60/hashbrowns.jpg', 'key': 'u', 'origWidth': 411, 'origHeight': 410, 'width': 411, 'height': 410, 'widthPercent': 0.45, 'rescaleHeight': False, 'trialN': 107, 'loaded': True, 'loadedTime': 5058.0999999996275, 'positionName': 'LEFT', 'positionCoords': [203.4, 155], 'bid': 0.8200000000000001}, {'imgObject': {}, 'id': 'sweetpotato', 'src': '/static/foodstim60/sweetpotato.jpg', 'key': 'i', 'origWidth': 410, 'origHeight': 410, 'width': 410, 'height': 410, 'widthPercent': 0.45, 'rescaleHeight': False, 'trialN': 107, 'loaded': True, 'loadedTime': 5179.300000000745, 'positionName': 'RIGHT', 'positionCoords': [665.6, 155], 'bid': 0.18}]",176750.20000000112,1669829913165,hashbrowns,sweetpotato,0.8200000000000001,0.18,-0.6400000000000001,hashbrowns,1402.699999999255,1404,1403.7999999988824,True,u,178666.59999999963,1916.3999999985099,1669829915082,1917,HRV,HRV_0060,2022-11-30 17:40:30
108,"[{'imgObject': {}, 'id': 'burger', 'src': '/static/foodstim60/burger.jpg', 'key': 'u', 'origWidth': 409, 'origHeight': 409, 'width': 409, 'height': 409, 'widthPercent': 0.45, 'rescaleHeight': False, 'trialN': 108, 'loaded': True, 'loadedTime': 4491.9000000003725, 'positionName': 'LEFT', 'positionCoords': [205.4, 155.5], 'bid': 9.79}, {'imgObject': {}, 'id': 'turkey sandwich', 'src': '/static/foodstim60/turkey sandwich.jpg', 'key': 'i', 'origWidth': 409, 'origHeight': 409, 'width': 409, 'height': 409, 'widthPercent': 0.45, 'rescaleHeight': False, 'trialN': 108, 'loaded': True, 'loadedTime': 4464.300000000745, 'positionName': 'RIGHT', 'positionCoords': [665.6, 155.5], 'bid': 9.76}]",178667.20000000112,1669829915082,burger,turkey sandwich,9.79,9.76,-0.02999999999999936,burger,696.1999999992549,697,696.5999999996275,True,u,179878.30000000075,1211.0999999996275,1669829916293,1211,HRV,HRV_0060,2022-11-30 17:40:30
