success,trial_type,trial_index,time_elapsed,internal_node_id,Block,TrialNumber,TrialTime,trialTimeDiff,FPS_avg,FPS_med,FPS_mode,TrialDur,winResizeTime,rt,block,button_pressed,MotCoh,MotDir,ColCoh,Color,ChoiceKey,Choice,Accuracy,RT,nFrames,FPS,PPD,missTrial,missTrialMsg,onsetDelay,fullScreenExitTime,canvCenter,TrialType,Score,BlockTrial,stimulus,button_labels,exp,subjectId,date
True,fullscreen,0,2848,0.0-0.0,0.0,1.0,,,,,,,,,,,,,,,,,,,,,,,,,,,,,,,,HRV,HRV_0243,2022-11-30 19:42:32
,wl-check-fps,1,7862,0.0-1.0,0.0,2.0,"[3410.9, 3424.6, 3441.5, 3458, 3474.6, 3491.3, 3507.8, 3524.7, 3541.5, 3557.9, 3577.4, 3598.9, 3608.2, 3624.8, 3641.7, 3658.2, 3675.3, 3691.4, 3708.1, 3724.7, 3741.1, 3757.9, 3775.4, 3791.3, 3808.1, 3824.7, 3841.3, 3857.9, 3874.6, 3891.7, 3908.1, 3925.1, 3941.3, 3958.7, 3974.6, 3991.4, 4009.7, 4025.4, 4042, 4058.1, 4074.7, 4091.5, 4111, 4126.5, 4141.6, 4159.2, 4177.9, 4191.5, 4209.8, 4230.6, 4245.6, 4264.2, 4277.7, 4294.6, 4308.2, 4324.9, 4344.8, 4358.3, 4375, 4391.8, 4408.4, 4425.6, 4442, 4458.2, 4478.1, 4492.3, 4508.3, 4525, 4541.9, 4558.5, 4575.3, 4594.2, 4608.6, 4625.3, 4642, 4658.7, 4675.2, 4691.9, 4708.2, 4725, 4741.6, 4758.3, 4774.9, 4791.8, 4808.9, 4825.1, 4841.6, 4858.4, 4875, 4891.6, 4908.4, 4925, 4941.7, 4962.3, 4975.1, 4992.1, 5008.4, 5025, 5042.1, 5058.5, 5075.2, 5091.6, 5108.3, 5125.3, 5142.2, 5158.6, 5175.4, 5192.1, 5209.4, 5225.5, 5241.8, 5258.5, 5275.1, 5291.8, 5308.6, 5325.3, 5342.4, 5358.9, 5375.6, 5392.4, 5408.9, 5425.5, 5442.2, 5458.9, 5475.5, 5492.2, 5508.9, 5525.6, 5542.3, 5559, 5575.6, 5592.5, 5609.2, 5625.7, 5642.4, 5658.7, 5675.5, 5692.2, 5708.9, 5726.5, 5742.2, 5758.8, 5775.7, 5792.7, 5809.3, 5825.8, 5842.7, 5859.3, 5875.8, 5892.4, 5909.2, 5925.8, 5942.3, 5959.4, 5975.8, 5993.1, 6009.1, 6025.7, 6043, 6059.6, 6076, 6092.6, 6109, 6125.7, 6142.4, 6161.4, 6175.7, 6192.6, 6209.1, 6226.4, 6242.5, 6259.6, 6276.2, 6292.4, 6313.6, 6325.8, 6343, 6359.4, 6376.6, 6392.9, 6409.2, 6425.8, 6442.7, 6459.4, 6476, 6492.8, 6513.8, 6526, 6542.8, 6559.4, 6576.2, 6592.6, 6612.6, 6626.1, 6642.8, 6659.4, 6676.1, 6693, 6709.4, 6726.5, 6750.2, 6759.3, 6776.1, 6793, 6809.2, 6825.9, 6842.6, 6859.2, 6876.2, 6892.7, 6911.8, 6925.9, 6942.6, 6961.7, 6975.9, 6994.6, 7009.3, 7025.9, 7042.7, 7059.9, 7076.7, 7094.5, 7111.5, 7128.2, 7145.4, 7162.4, 7179.5, 7194.6, 7211.2, 7228.1, 7244.5, 7261.3, 7276.3, 7295.3, 7311.8, 7328.6, 7342.9, 7359.6, 7376.2, 7392.7, 7409.6, 7426.3, 7443.3, 7459.6, 7476.4, 7493.2, 7510, 7527.1, 7543.1, 7559.6, 7576.2, 7593, 7609.5, 7626.2, 7642.8, 7659.5, 7676.3, 7692.9, 7709.5, 7726.2, 7743, 7759.7, 7776.3, 7793, 7809.7, 7826.4, 7843.1, 7859.7, 7876.4, 7893, 7909.8, 7926.4, 7943.3, 7960.2, 7976.8, 7993.5, 8010.2, 8026.7, 8043.4, 8060.2, 8076.6, 8093.2, 8110.1, 8126.7, 8143.3, 8159.8, 8176.5, 8193.3, 8209.9, 8226.4, 8243.4, 8259.8, 8276.6, 8293.3, 8309.8, 8326.8, 8343.1, 8359.8, 8381, 8393.3]","[10.9, 13.7, 16.9, 16.5, 16.6, 16.7, 16.5, 16.9, 16.8, 16.4, 19.5, 21.5, 9.3, 16.6, 16.9, 16.5, 17.1, 16.1, 16.7, 16.6, 16.4, 16.8, 17.5, 15.9, 16.8, 16.6, 16.6, 16.6, 16.7, 17.1, 16.4, 17, 16.2, 17.4, 15.9, 16.8, 18.3, 15.7, 16.6, 16.1, 16.6, 16.8, 19.5, 15.5, 15.1, 17.6, 18.7, 13.6, 18.3, 20.8, 15, 18.6, 13.5, 16.9, 13.6, 16.7, 19.9, 13.5, 16.7, 16.8, 16.6, 17.2, 16.4, 16.2, 19.9, 14.2, 16, 16.7, 16.9, 16.6, 16.8, 18.9, 14.4, 16.7, 16.7, 16.7, 16.5, 16.7, 16.3, 16.8, 16.6, 16.7, 16.6, 16.9, 17.1, 16.2, 16.5, 16.8, 16.6, 16.6, 16.8, 16.6, 16.7, 20.6, 12.8, 17, 16.3, 16.6, 17.1, 16.4, 16.7, 16.4, 16.7, 17, 16.9, 16.4, 16.8, 16.7, 17.3, 16.1, 16.3, 16.7, 16.6, 16.7, 16.8, 16.7, 17.1, 16.5, 16.7, 16.8, 16.5, 16.6, 16.7, 16.7, 16.6, 16.7, 16.7, 16.7, 16.7, 16.7, 16.6, 16.9, 16.7, 16.5, 16.7, 16.3, 16.8, 16.7, 16.7, 17.6, 15.7, 16.6, 16.9, 17, 16.6, 16.5, 16.9, 16.6, 16.5, 16.6, 16.8, 16.6, 16.5, 17.1, 16.4, 17.3, 16, 16.6, 17.3, 16.6, 16.4, 16.6, 16.4, 16.7, 16.7, 19, 14.3, 16.9, 16.5, 17.3, 16.1, 17.1, 16.6, 16.2, 21.2, 12.2, 17.2, 16.4, 17.2, 16.3, 16.3, 16.6, 16.9, 16.7, 16.6, 16.8, 21, 12.2, 16.8, 16.6, 16.8, 16.4, 20, 13.5, 16.7, 16.6, 16.7, 16.9, 16.4, 17.1, 23.7, 9.1, 16.8, 16.9, 16.2, 16.7, 16.7, 16.6, 17, 16.5, 19.1, 14.1, 16.7, 19.1, 14.2, 18.7, 14.7, 16.6, 16.8, 17.2, 16.8, 17.8, 17, 16.7, 17.2, 17, 17.1, 15.1, 16.6, 16.9, 16.4, 16.8, 15, 19, 16.5, 16.8, 14.3, 16.7, 16.6, 16.5, 16.9, 16.7, 17, 16.3, 16.8, 16.8, 16.8, 17.1, 16, 16.5, 16.6, 16.8, 16.5, 16.7, 16.6, 16.7, 16.8, 16.6, 16.6, 16.7, 16.8, 16.7, 16.6, 16.7, 16.7, 16.7, 16.7, 16.6, 16.7, 16.6, 16.8, 16.6, 16.9, 16.9, 16.6, 16.7, 16.7, 16.5, 16.7, 16.8, 16.4, 16.6, 16.9, 16.6, 16.6, 16.5, 16.7, 16.8, 16.6, 16.5, 17, 16.4, 16.8, 16.7, 16.5, 17, 16.3, 16.7, 21.2, 12.3]",60.0,60.0,60.0,5009.8,[],,,,,,,,,,,,,,,,,,,,,,,,,HRV,HRV_0243,2022-11-30 19:42:32
,wl-html-keyboard-response,2,23673,0.0-2.0-0.0,0.0,3.0,,,,,,,,13793.300000011921,0.0,0,,,,,,,,,,,,,,,,,,,,,,HRV,HRV_0243,2022-11-30 19:42:32
,wl-rdm,3,31005,0.0-3.0-0.0,0.0,4.0,,,,,,,[],,,,0.0,0.0,87.9,0.0,u,0.0,True,1714.9000000357628,103.0,60.0,40.0,False,,3000.0,[],"[683, 384]",ColorTask_Demo,,,,,HRV,HRV_0243,2022-11-30 19:42:32
,wl-rdm,4,35775,0.0-3.0-1.0,0.0,5.0,,,,,,,[],,,,0.0,0.0,87.9,1.0,i,1.0,True,687.4000000357628,42.0,60.0,40.0,False,,2000.0,[],"[683, 384]",ColorTask_Demo,,,,,HRV,HRV_0243,2022-11-30 19:42:32
,wl-html-keyboard-response,5,46400,0.0-3.0-2.0,0.0,6.0,,,,,,,,8618.900000035763,0.0,1,,,,,,,,,,,,,,,,,,,,,,HRV,HRV_0243,2022-11-30 19:42:32
,wl-html-keyboard-response,6,60281,0.0-4.0-0.0,0.0,7.0,,,,,,,,11870.5,0.0,0,,,,,,,,,,,,,,,,,,,,,,HRV,HRV_0243,2022-11-30 19:42:32
,wl-html-keyboard-response,7,68785,0.0-5.0-0.0,0.0,8.0,,,,,,,,6501.0,0.0,0,,,,,,,,,,,,,,,,,,,,,,HRV,HRV_0243,2022-11-30 19:42:32
,wl-rdm,8,72442,0.0-6.0-0.0,0.0,9.0,,,,,,,[],,,,,,62.5,0.0,u,0.0,True,2368.699999988079,142.0,60.0,40.0,False,,247.67217003435047,[],"[683, 384]",ColorTask,1.0,1.0,,,HRV,HRV_0243,2022-11-30 19:42:32
,wl-rdm,9,74975,0.0-6.1-0.1,0.0,10.0,,,,,,,[],,,,,,87.9,1.0,i,1.0,True,1238.0000000596046,75.0,60.0,40.0,False,,219.34756464115284,[],"[683, 384]",ColorTask,2.0,2.0,,,HRV,HRV_0243,2022-11-30 19:42:32
,wl-rdm,10,77677,0.0-6.2-0.2,0.0,11.0,,,,,,,[],,,,,,56.4,1.0,i,1.0,True,1290.0,78.0,60.0,40.0,False,,333.9557767784423,[],"[683, 384]",ColorTask,3.0,3.0,,,HRV,HRV_0243,2022-11-30 19:42:32
,wl-rdm,11,79844,0.0-6.3-0.3,0.0,12.0,,,,,,,[],,,,,,62.5,0.0,u,0.0,True,787.2000000476837,48.0,60.0,40.0,False,,289.61001986875993,[],"[683, 384]",ColorTask,4.0,4.0,,,HRV,HRV_0243,2022-11-30 19:42:32
,wl-rdm,12,82378,0.0-6.4-0.4,0.0,13.0,,,,,,,[],,,,,,73.6,1.0,i,1.0,True,1208.1000000238419,73.0,60.0,40.0,False,,255.58312394494715,[],"[683, 384]",ColorTask,5.0,5.0,,,HRV,HRV_0243,2022-11-30 19:42:32
,wl-rdm,13,85113,0.0-6.5-0.5,0.0,14.0,,,,,,,[],,,,,,50.0,1.0,i,1.0,True,1320.0,80.0,60.0,40.0,False,,329.099829687804,[],"[683, 384]",ColorTask,6.0,6.0,,,HRV,HRV_0243,2022-11-30 19:42:32
,wl-rdm,14,87180,0.0-6.6-0.6,0.0,15.0,,,,,,,[],,,,,,50.0,0.0,u,0.0,True,755.1000000238419,46.0,60.0,40.0,False,,233.60882345205684,[],"[683, 384]",ColorTask,7.0,7.0,,,HRV,HRV_0243,2022-11-30 19:42:32
,wl-rdm,15,89432,0.0-6.7-0.7,0.0,16.0,,,,,,,[],,,,,,56.4,0.0,u,0.0,True,910.5,55.0,60.0,40.0,False,,281.46528605109194,[],"[683, 384]",ColorTask,8.0,8.0,,,HRV,HRV_0243,2022-11-30 19:42:32
,wl-rdm,16,91766,0.0-6.8-0.8,0.0,17.0,,,,,,,[],,,,,,73.6,1.0,i,1.0,True,1004.6000000238419,61.0,60.0,40.0,False,,246.32053959914992,[],"[683, 384]",ColorTask,9.0,9.0,,,HRV,HRV_0243,2022-11-30 19:42:32
,wl-rdm,17,94118,0.0-6.9-0.9,0.0,18.0,,,,,,,[],,,,,,50.0,0.0,u,0.0,True,1011.1000000238419,60.0,60.0,40.0,False,,255.83899921308839,[],"[683, 384]",ColorTask,10.0,10.0,,,HRV,HRV_0243,2022-11-30 19:42:32
,wl-rdm,18,96401,0.0-6.10-0.10,0.0,19.0,,,,,,,[],,,,,,87.9,0.0,u,0.0,True,960.6999999880791,58.0,60.0,40.0,False,,233.97093665271632,[],"[683, 384]",ColorTask,11.0,11.0,,,HRV,HRV_0243,2022-11-30 19:42:32
,wl-rdm,19,98387,0.0-6.11-0.11,0.0,20.0,,,,,,,[],,,,,,87.9,1.0,i,1.0,True,675.0,41.0,60.0,40.0,False,,244.98018739998088,[],"[683, 384]",ColorTask,12.0,12.0,,,HRV,HRV_0243,2022-11-30 19:42:32
,wl-rdm,20,101303,0.0-6.12-0.12,0.0,21.0,,,,,,,[],,,,,,73.6,1.0,i,1.0,True,1546.800000011921,92.0,60.0,40.0,False,,314.07761080391396,[],"[683, 384]",ColorTask,13.0,13.0,,,HRV,HRV_0243,2022-11-30 19:42:32
,wl-rdm,21,103507,0.0-6.13-0.13,0.0,22.0,,,,,,,[],,,,,,53.2,0.0,u,0.0,True,827.9000000357628,50.0,60.0,40.0,False,,298.03665415685623,[],"[683, 384]",ColorTask,14.0,14.0,,,HRV,HRV_0243,2022-11-30 19:42:32
,wl-rdm,22,105923,0.0-6.14-0.14,0.0,23.0,,,,,,,[],,,,,,87.9,1.0,i,1.0,True,1120.7999999523163,68.0,60.0,40.0,False,,210.73377891343006,[],"[683, 384]",ColorTask,15.0,15.0,,,HRV,HRV_0243,2022-11-30 19:42:32
,wl-rdm,23,108656,0.0-6.15-0.15,0.0,24.0,,,,,,,[],,,,,,53.2,1.0,i,1.0,True,1333.5999999642372,79.0,60.0,40.0,False,,329.979274478529,[],"[683, 384]",ColorTask,16.0,16.0,,,HRV,HRV_0243,2022-11-30 19:42:32
,wl-rdm,24,111325,0.0-6.16-0.16,0.0,25.0,,,,,,,[],,,,,,53.2,1.0,i,1.0,True,1207.0999999642372,73.0,60.0,40.0,False,,374.35785804451734,[],"[683, 384]",ColorTask,17.0,17.0,,,HRV,HRV_0243,2022-11-30 19:42:32
,wl-rdm,25,113826,0.0-6.17-0.17,0.0,26.0,,,,,,,[],,,,,,56.4,1.0,i,1.0,True,1196.0,72.0,60.0,40.0,False,,235.251614583782,[],"[683, 384]",ColorTask,18.0,18.0,,,HRV,HRV_0243,2022-11-30 19:42:32
,wl-rdm,26,115927,0.0-6.18-0.18,0.0,27.0,,,,,,,[],,,,,,50.0,0.0,u,0.0,True,813.7999999523163,49.0,60.0,40.0,False,,203.1356801645639,[],"[683, 384]",ColorTask,19.0,19.0,,,HRV,HRV_0243,2022-11-30 19:42:32
,wl-rdm,27,117911,0.0-6.19-0.19,0.0,28.0,,,,,,,[],,,,,,50.0,1.0,u,0.0,False,671.6000000238419,41.0,60.0,40.0,False,,235.8770319312972,[],"[683, 384]",ColorTask,18.0,20.0,,,HRV,HRV_0243,2022-11-30 19:42:32
,wl-rdm,28,120012,0.0-6.20-0.20,0.0,29.0,,,,,,,[],,,,,,87.9,1.0,i,1.0,True,820.2000000476837,50.0,60.0,40.0,False,,215.3739208757509,[],"[683, 384]",ColorTask,19.0,21.0,,,HRV,HRV_0243,2022-11-30 19:42:32
,wl-rdm,29,122013,0.0-6.21-0.21,0.0,30.0,,,,,,,[],,,,,,87.9,0.0,u,0.0,True,716.5999999642372,43.0,60.0,40.0,False,,211.92444352585196,[],"[683, 384]",ColorTask,20.0,22.0,,,HRV,HRV_0243,2022-11-30 19:42:32
,wl-rdm,30,124498,0.0-6.22-0.22,0.0,31.0,,,,,,,[],,,,,,56.4,1.0,i,1.0,True,1026.6000000238419,62.0,60.0,40.0,False,,395.915097821142,[],"[683, 384]",ColorTask,21.0,23.0,,,HRV,HRV_0243,2022-11-30 19:42:32
,wl-rdm,31,127165,0.0-6.23-0.23,0.0,32.0,,,,,,,[],,,,,,53.2,0.0,i,1.0,False,1265.7000000476837,76.0,60.0,40.0,False,,342.4393495291469,[],"[683, 384]",ColorTask,20.0,24.0,,,HRV,HRV_0243,2022-11-30 19:42:32
,wl-rdm,32,130533,0.0-6.24-0.24,0.0,33.0,,,,,,,[],,,,,,53.2,1.0,u,0.0,False,2078.7000000476837,125.0,60.0,40.0,False,,224.51587440419428,[],"[683, 384]",ColorTask,19.0,25.0,,,HRV,HRV_0243,2022-11-30 19:42:32
,wl-rdm,33,132934,0.0-6.25-0.25,0.0,34.0,,,,,,,[],,,,,,50.0,1.0,u,0.0,False,1119.3999999761581,68.0,60.0,40.0,False,,212.67773782891473,[],"[683, 384]",ColorTask,18.0,26.0,,,HRV,HRV_0243,2022-11-30 19:42:32
,wl-rdm,34,134935,0.0-6.26-0.26,0.0,35.0,,,,,,,[],,,,,,73.6,1.0,i,1.0,True,692.1999999880791,42.0,60.0,40.0,False,,239.1819009024265,[],"[683, 384]",ColorTask,19.0,27.0,,,HRV,HRV_0243,2022-11-30 19:42:32
,wl-rdm,35,137236,0.0-6.27-0.27,0.0,36.0,,,,,,,[],,,,,,73.6,1.0,i,1.0,True,922.6999999880791,56.0,60.0,40.0,False,,285.8495785325284,[],"[683, 384]",ColorTask,20.0,28.0,,,HRV,HRV_0243,2022-11-30 19:42:32
,wl-rdm,36,139558,0.0-6.28-0.28,0.0,37.0,,,,,,,[],,,,,,73.6,0.0,u,0.0,True,1009.6999999880791,61.0,60.0,40.0,False,,248.10401988933341,[],"[683, 384]",ColorTask,21.0,29.0,,,HRV,HRV_0243,2022-11-30 19:42:32
,wl-rdm,37,142405,0.0-6.29-0.29,0.0,38.0,,,,,,,[],,,,,,56.4,0.0,u,0.0,True,1463.5999999642372,88.0,60.0,40.0,False,,326.65893740978254,[],"[683, 384]",ColorTask,22.0,30.0,,,HRV,HRV_0243,2022-11-30 19:42:32
,wl-rdm,38,145740,0.0-6.30-0.30,0.0,39.0,,,,,,,[],,,,,,56.4,0.0,i,1.0,False,2006.0000000596046,117.0,60.0,40.0,False,,259.88862539432716,[],"[683, 384]",ColorTask,21.0,31.0,,,HRV,HRV_0243,2022-11-30 19:42:32
,wl-rdm,39,149609,0.0-6.31-0.31,0.0,40.0,,,,,,,[],,,,,,62.5,1.0,u,0.0,False,2579.900000035763,155.0,60.0,40.0,False,,218.94117825866152,[],"[683, 384]",ColorTask,20.0,32.0,,,HRV,HRV_0243,2022-11-30 19:42:32
,wl-rdm,40,153010,0.0-6.32-0.32,0.0,41.0,,,,,,,[],,,,,,56.4,1.0,i,1.0,True,2034.2000000476837,122.0,60.0,40.0,False,,299.03463925846654,[],"[683, 384]",ColorTask,21.0,33.0,,,HRV,HRV_0243,2022-11-30 19:42:32
,wl-rdm,41,155361,0.0-6.33-0.33,0.0,42.0,,,,,,,[],,,,,,56.4,0.0,u,0.0,True,1030.5,62.0,60.0,40.0,False,,251.3997253750905,[],"[683, 384]",ColorTask,22.0,34.0,,,HRV,HRV_0243,2022-11-30 19:42:32
,wl-rdm,42,157613,0.0-6.34-0.34,0.0,43.0,,,,,,,[],,,,,,87.9,0.0,u,0.0,True,836.8000000119209,50.0,60.0,40.0,False,,342.3097684715632,[],"[683, 384]",ColorTask,23.0,35.0,,,HRV,HRV_0243,2022-11-30 19:42:32
,wl-rdm,43,159780,0.0-6.35-0.35,0.0,44.0,,,,,,,[],,,,,,62.5,1.0,i,1.0,True,869.8000000119209,53.0,60.0,40.0,False,,235.73053428048146,[],"[683, 384]",ColorTask,24.0,36.0,,,HRV,HRV_0243,2022-11-30 19:42:32
,wl-rdm,44,162582,0.0-6.36-0.36,0.0,45.0,,,,,,,[],,,,,,73.6,1.0,u,0.0,False,1371.4000000357628,83.0,60.0,40.0,False,,352.26739165634024,[],"[683, 384]",ColorTask,23.0,37.0,,,HRV,HRV_0243,2022-11-30 19:42:32
,wl-rdm,45,165167,0.0-6.37-0.37,0.0,46.0,,,,,,,[],,,,,,73.6,1.0,i,1.0,True,1208.3999999761581,73.0,60.0,40.0,False,,316.4089160071386,[],"[683, 384]",ColorTask,24.0,38.0,,,HRV,HRV_0243,2022-11-30 19:42:32
,wl-rdm,46,167935,0.0-6.38-0.38,0.0,47.0,,,,,,,[],,,,,,62.5,0.0,u,0.0,True,1354.8999999761581,82.0,60.0,40.0,False,,347.8124560930868,[],"[683, 384]",ColorTask,25.0,39.0,,,HRV,HRV_0243,2022-11-30 19:42:32
,wl-rdm,47,170518,0.0-6.39-0.39,0.0,48.0,,,,,,,[],,,,,,50.0,1.0,u,0.0,False,1247.6999999284744,75.0,60.0,40.0,False,,274.11898224550157,[],"[683, 384]",ColorTask,24.0,40.0,,,HRV,HRV_0243,2022-11-30 19:42:32
,wl-rdm,48,172436,0.0-6.40-0.40,0.0,49.0,,,,,,,[],,,,,,87.9,1.0,i,1.0,True,595.3000000119209,36.0,60.0,40.0,False,,257.7407501046504,[],"[683, 384]",ColorTask,25.0,41.0,,,HRV,HRV_0243,2022-11-30 19:42:32
,wl-rdm,49,174720,0.0-6.41-0.41,0.0,50.0,,,,,,,[],,,,,,53.2,1.0,u,0.0,False,960.0,58.0,60.0,40.0,False,,246.02065511083606,[],"[683, 384]",ColorTask,24.0,42.0,,,HRV,HRV_0243,2022-11-30 19:42:32
,wl-rdm,50,176838,0.0-6.42-0.42,0.0,51.0,,,,,,,[],,,,,,73.6,0.0,u,0.0,True,810.0,49.0,60.0,40.0,False,,239.08212211049062,[],"[683, 384]",ColorTask,25.0,43.0,,,HRV,HRV_0243,2022-11-30 19:42:32
,wl-rdm,51,178888,0.0-6.43-0.43,0.0,52.0,,,,,,,[],,,,,,62.5,1.0,i,1.0,True,772.4000000953674,47.0,60.0,40.0,False,,220.9152794314213,[],"[683, 384]",ColorTask,26.0,44.0,,,HRV,HRV_0243,2022-11-30 19:42:32
,wl-rdm,52,181189,0.0-6.44-0.44,0.0,53.0,,,,,,,[],,,,,,62.5,0.0,u,0.0,True,964.4999999403954,58.0,60.0,40.0,False,,268.53805383226086,[],"[683, 384]",ColorTask,27.0,45.0,,,HRV,HRV_0243,2022-11-30 19:42:32
,wl-rdm,53,183457,0.0-6.45-0.45,0.0,54.0,,,,,,,[],,,,,,73.6,0.0,u,0.0,True,925.4000000357628,56.0,60.0,40.0,False,,266.57861957627017,[],"[683, 384]",ColorTask,28.0,46.0,,,HRV,HRV_0243,2022-11-30 19:42:32
,wl-rdm,54,185892,0.0-6.46-0.46,0.0,55.0,,,,,,,[],,,,,,50.0,1.0,u,0.0,False,1130.9000000357628,67.0,60.0,40.0,False,,236.89461626482122,[],"[683, 384]",ColorTask,27.0,47.0,,,HRV,HRV_0243,2022-11-30 19:42:32
,wl-rdm,55,188027,0.0-6.47-0.47,0.0,56.0,,,,,,,[],,,,,,87.9,1.0,i,1.0,True,680.6999999880791,41.0,60.0,40.0,False,,372.7500886391013,[],"[683, 384]",ColorTask,28.0,48.0,,,HRV,HRV_0243,2022-11-30 19:42:32
,wl-rdm,56,190445,0.0-6.48-0.48,0.0,57.0,,,,,,,[],,,,,,50.0,0.0,i,1.0,False,1105.5,67.0,60.0,40.0,False,,249.98718791733552,[],"[683, 384]",ColorTask,27.0,49.0,,,HRV,HRV_0243,2022-11-30 19:42:32
,wl-rdm,57,193195,0.0-6.49-0.49,0.0,58.0,,,,,,,[],,,,,,53.2,0.0,u,0.0,True,1394.1000000238419,84.0,60.0,40.0,False,,287.1345892258648,[],"[683, 384]",ColorTask,28.0,50.0,,,HRV,HRV_0243,2022-11-30 19:42:32
,wl-rdm,58,195631,0.0-6.50-0.50,0.0,59.0,,,,,,,[],,,,,,50.0,0.0,i,1.0,False,1036.1000000238419,63.0,60.0,40.0,False,,327.64978331995223,[],"[683, 384]",ColorTask,27.0,51.0,,,HRV,HRV_0243,2022-11-30 19:42:32
,wl-rdm,59,197965,0.0-6.51-0.51,0.0,60.0,,,,,,,[],,,,,,53.2,0.0,i,1.0,False,1016.3000000119209,61.0,60.0,40.0,False,,242.5299216082572,[],"[683, 384]",ColorTask,26.0,52.0,,,HRV,HRV_0243,2022-11-30 19:42:32
,wl-rdm,60,200115,0.0-6.52-0.52,0.0,61.0,,,,,,,[],,,,,,62.5,0.0,u,0.0,True,870.2000000476837,53.0,60.0,40.0,False,,207.96681691554522,[],"[683, 384]",ColorTask,27.0,53.0,,,HRV,HRV_0243,2022-11-30 19:42:32
,wl-rdm,61,202549,0.0-6.53-0.53,0.0,62.0,,,,,,,[],,,,,,62.5,0.0,u,0.0,True,1098.3999999761581,66.0,60.0,40.0,False,,257.16611813358423,[],"[683, 384]",ColorTask,28.0,54.0,,,HRV,HRV_0243,2022-11-30 19:42:32
,wl-rdm,62,204878,0.0-6.54-0.54,0.0,63.0,,,,,,,[],,,,,,56.4,0.0,u,0.0,True,919.4000000357628,56.0,60.0,40.0,False,,305.97771185862587,[],"[683, 384]",ColorTask,29.0,55.0,,,HRV,HRV_0243,2022-11-30 19:42:32
,wl-rdm,63,207018,0.0-6.55-0.55,0.0,64.0,,,,,,,[],,,,,,73.6,0.0,u,0.0,True,841.1999999880791,50.0,60.0,40.0,False,,226.8754058650623,[],"[683, 384]",ColorTask,30.0,56.0,,,HRV,HRV_0243,2022-11-30 19:42:32
,wl-rdm,64,209402,0.0-6.56-0.56,0.0,65.0,,,,,,,[],,,,,,53.2,1.0,u,0.0,False,1035.8000000715256,63.0,60.0,40.0,False,,267.19215569924665,[],"[683, 384]",ColorTask,29.0,57.0,,,HRV,HRV_0243,2022-11-30 19:42:32
,wl-rdm,65,211303,0.0-6.57-0.57,0.0,66.0,,,,,,,[],,,,,,62.5,1.0,i,1.0,True,564.7999999523163,34.0,60.0,40.0,False,,275.02291106826726,[],"[683, 384]",ColorTask,30.0,58.0,,,HRV,HRV_0243,2022-11-30 19:42:32
,wl-rdm,66,213587,0.0-6.58-0.58,0.0,67.0,,,,,,,[],,,,,,87.9,1.0,i,1.0,True,965.1999999880791,58.0,60.0,40.0,False,,257.77858123603477,[],"[683, 384]",ColorTask,31.0,59.0,,,HRV,HRV_0243,2022-11-30 19:42:32
,wl-rdm,67,215943,0.0-6.59-0.59,0.0,68.0,,,,,,,[],,,,,,53.2,0.0,u,0.0,True,884.4999999403954,53.0,60.0,40.0,False,,384.7261354864514,[],"[683, 384]",ColorTask,32.0,60.0,,,HRV,HRV_0243,2022-11-30 19:42:32
,wl-rdm,68,218089,0.0-6.60-0.60,0.0,69.0,,,,,,,[],,,,,,73.6,0.0,u,0.0,True,785.3999999761581,47.0,60.0,40.0,False,,289.48117215793616,[],"[683, 384]",ColorTask,33.0,61.0,,,HRV,HRV_0243,2022-11-30 19:42:32
,wl-rdm,69,220191,0.0-6.61-0.61,0.0,70.0,,,,,,,[],,,,,,62.5,0.0,u,0.0,True,827.0000000596046,50.0,60.0,40.0,False,,209.90511126741305,[],"[683, 384]",ColorTask,34.0,62.0,,,HRV,HRV_0243,2022-11-30 19:42:32
,wl-rdm,70,222609,0.0-6.62-0.62,0.0,71.0,,,,,,,[],,,,,,56.4,0.0,u,0.0,True,1133.6000000238419,69.0,60.0,40.0,False,,219.43967517704894,[],"[683, 384]",ColorTask,35.0,63.0,,,HRV,HRV_0243,2022-11-30 19:42:32
,wl-rdm,71,224893,0.0-6.63-0.63,0.0,72.0,,,,,,,[],,,,,,87.9,0.0,u,0.0,True,903.0,55.0,60.0,40.0,False,,310.27939962127334,[],"[683, 384]",ColorTask,36.0,64.0,,,HRV,HRV_0243,2022-11-30 19:42:32
,wl-rdm,72,227712,0.0-6.64-0.64,0.0,73.0,,,,,,,[],,,,,,50.0,1.0,i,1.0,True,1414.8999999761581,85.0,60.0,40.0,False,,347.4451185975888,[],"[683, 384]",ColorTask,37.0,65.0,,,HRV,HRV_0243,2022-11-30 19:42:32
,wl-rdm,73,229945,0.0-6.65-0.65,0.0,74.0,,,,,,,[],,,,,,87.9,0.0,u,0.0,True,836.1999999880791,51.0,60.0,40.0,False,,302.2370591882459,[],"[683, 384]",ColorTask,38.0,66.0,,,HRV,HRV_0243,2022-11-30 19:42:32
,wl-rdm,74,232030,0.0-6.66-0.66,0.0,75.0,,,,,,,[],,,,,,87.9,1.0,i,1.0,True,797.8000000119209,48.0,60.0,40.0,False,,231.3236328473183,[],"[683, 384]",ColorTask,39.0,67.0,,,HRV,HRV_0243,2022-11-30 19:42:32
,wl-rdm,75,234614,0.0-6.67-0.67,0.0,76.0,,,,,,,[],,,,,,56.4,1.0,i,1.0,True,1256.0,75.0,60.0,40.0,False,,260.0792825241202,[],"[683, 384]",ColorTask,40.0,68.0,,,HRV,HRV_0243,2022-11-30 19:42:32
,wl-rdm,76,236848,0.0-6.68-0.68,0.0,77.0,,,,,,,[],,,,,,62.5,1.0,i,1.0,True,932.2999999523163,55.0,60.0,40.0,False,,244.08399368185258,[],"[683, 384]",ColorTask,41.0,69.0,,,HRV,HRV_0243,2022-11-30 19:42:32
,wl-rdm,77,239816,0.0-6.69-0.69,0.0,78.0,,,,,,,[],,,,,,53.2,1.0,i,1.0,True,1650.2999999523163,99.0,60.0,40.0,False,,254.4216115596202,[],"[683, 384]",ColorTask,42.0,70.0,,,HRV,HRV_0243,2022-11-30 19:42:32
,wl-rdm,78,242801,0.0-6.70-0.70,0.0,79.0,,,,,,,[],,,,,,50.0,0.0,u,0.0,True,1536.8999999761581,93.0,60.0,40.0,False,,353.1701277471983,[],"[683, 384]",ColorTask,43.0,71.0,,,HRV,HRV_0243,2022-11-30 19:42:32
,wl-rdm,79,245519,0.0-6.71-0.71,0.0,80.0,,,,,,,[],,,,,,53.2,0.0,i,1.0,False,1395.8999999761581,84.0,60.0,40.0,False,,265.1319963804881,[],"[683, 384]",ColorTask,42.0,72.0,,,HRV,HRV_0243,2022-11-30 19:42:32
,wl-rdm,80,248571,0.0-6.72-0.72,0.0,81.0,,,,,,,[],,,,,,56.4,0.0,u,0.0,True,1678.7999999523163,99.0,60.0,40.0,False,,306.0961005810426,[],"[683, 384]",ColorTask,43.0,73.0,,,HRV,HRV_0243,2022-11-30 19:42:32
,wl-rdm,81,251171,0.0-6.73-0.73,0.0,82.0,,,,,,,[],,,,,,62.5,1.0,i,1.0,True,1237.9999999403954,75.0,60.0,40.0,False,,290.5199789258087,[],"[683, 384]",ColorTask,44.0,74.0,,,HRV,HRV_0243,2022-11-30 19:42:32
,wl-rdm,82,253456,0.0-6.74-0.74,0.0,83.0,,,,,,,[],,,,,,87.9,0.0,u,0.0,True,1003.1000000238419,61.0,60.0,40.0,False,,206.72272716309362,[],"[683, 384]",ColorTask,45.0,75.0,,,HRV,HRV_0243,2022-11-30 19:42:32
,wl-rdm,83,255590,0.0-6.75-0.75,0.0,84.0,,,,,,,[],,,,,,87.9,0.0,u,0.0,True,690.6000000238419,42.0,60.0,40.0,False,,366.28365382576715,[],"[683, 384]",ColorTask,46.0,76.0,,,HRV,HRV_0243,2022-11-30 19:42:32
,wl-rdm,84,257891,0.0-6.76-0.76,0.0,85.0,,,,,,,[],,,,,,73.6,0.0,i,1.0,False,999.1000000238419,60.0,60.0,40.0,False,,232.57677738445022,[],"[683, 384]",ColorTask,45.0,77.0,,,HRV,HRV_0243,2022-11-30 19:42:32
,wl-rdm,85,260311,0.0-6.77-0.77,0.0,86.0,,,,,,,[],,,,,,50.0,1.0,i,1.0,True,1077.6000000238419,65.0,60.0,40.0,False,,279.61029007786146,[],"[683, 384]",ColorTask,46.0,78.0,,,HRV,HRV_0243,2022-11-30 19:42:32
,wl-rdm,86,262380,0.0-6.78-0.78,0.0,87.0,,,,,,,[],,,,,,62.5,0.0,u,0.0,True,760.0,46.0,60.0,40.0,False,,228.82062386016946,[],"[683, 384]",ColorTask,47.0,79.0,,,HRV,HRV_0243,2022-11-30 19:42:32
,wl-rdm,87,264944,0.0-6.79-0.79,0.0,88.0,,,,,,,[],,,,,,50.0,1.0,i,1.0,True,1282.5,77.0,60.0,40.0,False,,232.55051701222138,[],"[683, 384]",ColorTask,48.0,80.0,,,HRV,HRV_0243,2022-11-30 19:42:32
,wl-rdm,88,267462,0.0-6.80-0.80,0.0,89.0,,,,,,,[],,,,,,56.4,1.0,i,1.0,True,1181.199999988079,71.0,60.0,40.0,False,,259.05661794213694,[],"[683, 384]",ColorTask,49.0,81.0,,,HRV,HRV_0243,2022-11-30 19:42:32
,wl-rdm,89,269813,0.0-6.81-0.81,0.0,90.0,,,,,,,[],,,,,,50.0,0.0,u,0.0,True,1055.199999988079,64.0,60.0,40.0,False,,201.83779922742667,[],"[683, 384]",ColorTask,50.0,82.0,,,HRV,HRV_0243,2022-11-30 19:42:32
,wl-rdm,90,272731,0.0-6.82-0.82,0.0,91.0,,,,,,,[],,,,,,53.2,0.0,i,1.0,False,1608.3999999761581,97.0,60.0,40.0,False,,235.06920780528063,[],"[683, 384]",ColorTask,49.0,83.0,,,HRV,HRV_0243,2022-11-30 19:42:32
,wl-rdm,91,275399,0.0-6.83-0.83,0.0,92.0,,,,,,,[],,,,,,56.4,1.0,u,0.0,False,1330.3000000715256,80.0,60.0,40.0,False,,274.0656184124516,[],"[683, 384]",ColorTask,48.0,84.0,,,HRV,HRV_0243,2022-11-30 19:42:32
,wl-rdm,92,279768,0.0-6.84-0.84,0.0,92.0,,,,,,,[],,,,,,62.5,1.0,i,,,3479.300000011921,179.0,60.0,40.0,True,RT_timeout ,272.6358495865634,[],"[683, 384]",ColorTask,47.0,85.0,,,HRV,HRV_0243,2022-11-30 19:42:32
,wl-rdm,93,281903,0.0-6.85-0.85,0.0,93.0,,,,,,,[],,,,,,56.4,0.0,u,0.0,True,824.6000000238419,49.0,60.0,40.0,False,,242.422762011477,[],"[683, 384]",ColorTask,48.0,86.0,,,HRV,HRV_0243,2022-11-30 19:42:32
,wl-rdm,94,284520,0.0-6.86-0.86,0.0,94.0,,,,,,,[],,,,,,62.5,1.0,i,1.0,True,1301.800000011921,78.0,60.0,40.0,False,,241.9210371728975,[],"[683, 384]",ColorTask,49.0,87.0,,,HRV,HRV_0243,2022-11-30 19:42:32
,wl-rdm,95,286524,0.0-6.87-0.87,0.0,95.0,,,,,,,[],,,,,,87.9,0.0,u,0.0,True,710.0999999642372,42.0,60.0,40.0,False,,226.26664224072374,[],"[683, 384]",ColorTask,50.0,88.0,,,HRV,HRV_0243,2022-11-30 19:42:32
,wl-rdm,96,288855,0.0-6.88-0.88,0.0,96.0,,,,,,,[],,,,,,87.9,0.0,u,0.0,True,1004.5000000596046,61.0,60.0,40.0,False,,233.67376685669706,[],"[683, 384]",ColorTask,51.0,89.0,,,HRV,HRV_0243,2022-11-30 19:42:32
,wl-rdm,97,291439,0.0-6.89-0.89,0.0,97.0,,,,,,,[],,,,,,73.6,1.0,i,1.0,True,1255.699999988079,75.0,60.0,40.0,False,,243.0989674299533,[],"[683, 384]",ColorTask,52.0,90.0,,,HRV,HRV_0243,2022-11-30 19:42:32
,wl-rdm,98,293907,0.0-6.90-0.90,0.0,98.0,,,,,,,[],,,,,,50.0,1.0,i,1.0,True,1193.1000000238419,72.0,60.0,40.0,False,,206.0155624697689,[],"[683, 384]",ColorTask,53.0,91.0,,,HRV,HRV_0243,2022-11-30 19:42:32
,wl-rdm,99,295925,0.0-6.91-0.91,0.0,99.0,,,,,,,[],,,,,,56.4,1.0,i,1.0,True,655.9999999403954,40.0,60.0,40.0,False,,261.09778179852026,[],"[683, 384]",ColorTask,54.0,92.0,,,HRV,HRV_0243,2022-11-30 19:42:32
,wl-rdm,100,298245,0.0-6.92-0.92,0.0,100.0,,,,,,,[],,,,,,73.6,0.0,u,0.0,True,1031.199999988079,62.0,60.0,40.0,False,,204.74120058215004,[],"[683, 384]",ColorTask,55.0,93.0,,,HRV,HRV_0243,2022-11-30 19:42:32
,wl-rdm,101,300560,0.0-6.93-0.93,0.0,101.0,,,,,,,[],,,,,,56.4,1.0,i,1.0,True,1021.4000000357628,62.0,60.0,40.0,False,,206.29133727293046,[],"[683, 384]",ColorTask,56.0,94.0,,,HRV,HRV_0243,2022-11-30 19:42:32
,wl-rdm,102,303262,0.0-6.94-0.94,0.0,102.0,,,,,,,[],,,,,,53.2,1.0,i,1.0,True,1261.5,76.0,60.0,40.0,False,,367.42985616616244,[],"[683, 384]",ColorTask,57.0,95.0,,,HRV,HRV_0243,2022-11-30 19:42:32
,wl-rdm,103,306830,0.0-6.95-0.95,0.0,103.0,,,,,,,[],,,,,,50.0,0.0,i,1.0,False,2130.2999999523163,127.0,60.0,40.0,False,,373.8653094834867,[],"[683, 384]",ColorTask,56.0,96.0,,,HRV,HRV_0243,2022-11-30 19:42:32
,wl-rdm,104,310965,0.0-6.96-0.96,0.0,104.0,,,,,,,[],,,,,,56.4,0.0,u,0.0,True,2719.899999976158,164.0,60.0,40.0,False,,344.01130229714516,[],"[683, 384]",ColorTask,57.0,97.0,,,HRV,HRV_0243,2022-11-30 19:42:32
,wl-rdm,105,313083,0.0-6.97-0.97,0.0,105.0,,,,,,,[],,,,,,73.6,0.0,u,0.0,True,792.1999999880791,48.0,60.0,40.0,False,,241.57377473154872,[],"[683, 384]",ColorTask,58.0,98.0,,,HRV,HRV_0243,2022-11-30 19:42:32
,wl-rdm,106,315250,0.0-6.98-0.98,0.0,106.0,,,,,,,[],,,,,,62.5,1.0,i,1.0,True,837.5,51.0,60.0,40.0,False,,257.5128004983701,[],"[683, 384]",ColorTask,59.0,99.0,,,HRV,HRV_0243,2022-11-30 19:42:32
,wl-rdm,107,317551,0.0-6.99-0.99,0.0,107.0,,,,,,,[],,,,,,73.6,1.0,i,1.0,True,903.3000000119209,55.0,60.0,40.0,False,,319.11153717006545,[],"[683, 384]",ColorTask,60.0,100.0,,,HRV,HRV_0243,2022-11-30 19:42:32
,wl-rdm,108,320253,0.0-6.100-0.100,0.0,108.0,,,,,,,[],,,,,,62.5,1.0,i,1.0,True,1403.6000000834465,85.0,60.0,40.0,False,,227.6147806968304,[],"[683, 384]",ColorTask,61.0,101.0,,,HRV,HRV_0243,2022-11-30 19:42:32
,wl-rdm,109,322470,0.0-6.101-0.101,0.0,109.0,,,,,,,[],,,,,,53.2,1.0,u,0.0,False,898.8000000119209,54.0,60.0,40.0,False,,266.53250635790016,[],"[683, 384]",ColorTask,60.0,102.0,,,HRV,HRV_0243,2022-11-30 19:42:32
,wl-rdm,110,324872,0.0-6.102-0.102,0.0,110.0,,,,,,,[],,,,,,53.2,0.0,u,0.0,True,978.2000000476837,59.0,60.0,40.0,False,,350.1582334024818,[],"[683, 384]",ColorTask,61.0,103.0,,,HRV,HRV_0243,2022-11-30 19:42:32
,wl-rdm,111,327125,0.0-6.103-0.103,0.0,111.0,,,,,,,[],,,,,,73.6,0.0,u,0.0,True,778.3000000119209,47.0,60.0,40.0,False,,399.9124174090215,[],"[683, 384]",ColorTask,62.0,104.0,,,HRV,HRV_0243,2022-11-30 19:42:32
,wl-rdm,112,329624,0.0-6.104-0.104,0.0,112.0,,,,,,,[],,,,,,50.0,0.0,i,1.0,False,1070.8999999761581,65.0,60.0,40.0,False,,345.7266827758776,[],"[683, 384]",ColorTask,61.0,105.0,,,HRV,HRV_0243,2022-11-30 19:42:32
,wl-rdm,113,332091,0.0-6.105-0.105,0.0,113.0,,,,,,,[],,,,,,62.5,0.0,u,0.0,True,1177.199999988079,71.0,60.0,40.0,False,,206.9673128519241,[],"[683, 384]",ColorTask,62.0,106.0,,,HRV,HRV_0243,2022-11-30 19:42:32
,wl-rdm,114,334542,0.0-6.106-0.106,0.0,114.0,,,,,,,[],,,,,,53.2,1.0,i,1.0,True,1091.800000011921,65.0,60.0,40.0,False,,277.7738435742981,[],"[683, 384]",ColorTask,63.0,107.0,,,HRV,HRV_0243,2022-11-30 19:42:32
,wl-rdm,115,336911,0.0-6.107-0.107,0.0,115.0,,,,,,,[],,,,,,53.2,0.0,u,0.0,True,939.2000000476837,57.0,60.0,40.0,False,,352.5589935467153,[],"[683, 384]",ColorTask,64.0,108.0,,,HRV,HRV_0243,2022-11-30 19:42:32
,wl-rdm,116,339078,0.0-6.108-0.108,0.0,116.0,,,,,,,[],,,,,,87.9,1.0,i,1.0,True,818.6999999880791,49.0,60.0,40.0,False,,282.3566249058854,[],"[683, 384]",ColorTask,65.0,109.0,,,HRV,HRV_0243,2022-11-30 19:42:32
,wl-html-keyboard-response,117,401144,0.0-7.0-0.0,1.0,117.0,,,,,,,,60055.59999996424,1.0,0,,,,,,,,,,,,,,,,,,,,,,HRV,HRV_0243,2022-11-30 19:42:32
,wl-rdm,118,403824,0.0-8.0-0.0,1.0,118.0,,,,,,,[],,,,,,56.4,0.0,u,0.0,True,1332.3999999761581,82.0,60.0,40.0,False,,250.23328068059624,[],"[683, 384]",ColorTask,66.0,1.0,,,HRV,HRV_0243,2022-11-30 19:42:32
,wl-rdm,119,406008,0.0-8.1-0.1,1.0,119.0,,,,,,,[],,,,,,87.9,0.0,u,0.0,True,860.3999999761581,52.0,60.0,40.0,False,,262.89784408536735,[],"[683, 384]",ColorTask,67.0,2.0,,,HRV,HRV_0243,2022-11-30 19:42:32
,wl-rdm,120,408593,0.0-8.2-0.2,1.0,120.0,,,,,,,[],,,,,,62.5,0.0,i,1.0,False,1218.3999999761581,73.0,60.0,40.0,False,,294.0656596800038,[],"[683, 384]",ColorTask,66.0,3.0,,,HRV,HRV_0243,2022-11-30 19:42:32
,wl-rdm,121,411244,0.0-8.3-0.3,1.0,121.0,,,,,,,[],,,,,,87.9,0.0,u,0.0,True,1360.0999999642372,82.0,60.0,40.0,False,,201.56717209797515,[],"[683, 384]",ColorTask,67.0,4.0,,,HRV,HRV_0243,2022-11-30 19:42:32
,wl-rdm,122,413328,0.0-8.4-0.4,1.0,122.0,,,,,,,[],,,,,,87.9,0.0,u,0.0,True,770.3000000119209,47.0,60.0,40.0,False,,237.80003269286183,[],"[683, 384]",ColorTask,68.0,5.0,,,HRV,HRV_0243,2022-11-30 19:42:32
,wl-rdm,123,415980,0.0-8.5-0.5,1.0,123.0,,,,,,,[],,,,,,50.0,1.0,u,0.0,False,1214.5999999642372,73.0,60.0,40.0,False,,360.9345407717605,[],"[683, 384]",ColorTask,67.0,6.0,,,HRV,HRV_0243,2022-11-30 19:42:32
,wl-rdm,124,418030,0.0-8.6-0.6,1.0,124.0,,,,,,,[],,,,,,73.6,1.0,i,1.0,True,739.3000000119209,45.0,60.0,40.0,False,,229.88622841363394,[],"[683, 384]",ColorTask,68.0,7.0,,,HRV,HRV_0243,2022-11-30 19:42:32
,wl-rdm,125,420164,0.0-8.7-0.7,1.0,125.0,,,,,,,[],,,,,,73.6,0.0,u,0.0,True,802.3999999761581,49.0,60.0,40.0,False,,253.17076737688012,[],"[683, 384]",ColorTask,69.0,8.0,,,HRV,HRV_0243,2022-11-30 19:42:32
,wl-rdm,126,422833,0.0-8.8-0.8,1.0,126.0,,,,,,,[],,,,,,50.0,1.0,i,1.0,True,1330.5,78.0,60.0,40.0,False,,270.50265937323604,[],"[683, 384]",ColorTask,70.0,9.0,,,HRV,HRV_0243,2022-11-30 19:42:32
,wl-rdm,127,426134,0.0-8.9-0.9,1.0,127.0,,,,,,,[],,,,,,53.2,1.0,u,0.0,False,1948.4000000357628,117.0,60.0,40.0,False,,288.03329260982184,[],"[683, 384]",ColorTask,69.0,10.0,,,HRV,HRV_0243,2022-11-30 19:42:32
,wl-rdm,128,428051,0.0-8.10-0.10,1.0,128.0,,,,,,,[],,,,,,73.6,1.0,i,1.0,True,642.1999999284744,39.0,60.0,40.0,False,,209.24366560634195,[],"[683, 384]",ColorTask,70.0,11.0,,,HRV,HRV_0243,2022-11-30 19:42:32
,wl-rdm,129,430621,0.0-8.11-0.11,1.0,129.0,,,,,,,[],,,,,,56.4,1.0,i,1.0,True,1138.800000011921,68.0,60.0,40.0,False,,342.9496397479196,[],"[683, 384]",ColorTask,71.0,12.0,,,HRV,HRV_0243,2022-11-30 19:42:32
,wl-rdm,130,432853,0.0-8.12-0.12,1.0,130.0,,,,,,,[],,,,,,56.4,0.0,u,0.0,True,948.1000000238419,57.0,60.0,40.0,False,,203.72220863862006,[],"[683, 384]",ColorTask,72.0,13.0,,,HRV,HRV_0243,2022-11-30 19:42:32
,wl-rdm,131,435407,0.0-8.13-0.13,1.0,131.0,,,,,,,[],,,,,,73.6,0.0,u,0.0,True,1217.4999999403954,74.0,60.0,40.0,False,,257.18219662249277,[],"[683, 384]",ColorTask,73.0,14.0,,,HRV,HRV_0243,2022-11-30 19:42:32
,wl-rdm,132,437891,0.0-8.14-0.14,1.0,132.0,,,,,,,[],,,,,,73.6,0.0,u,0.0,True,1064.3999999761581,64.0,60.0,40.0,False,,362.1005823693154,[],"[683, 384]",ColorTask,74.0,15.0,,,HRV,HRV_0243,2022-11-30 19:42:32
,wl-rdm,133,441207,0.0-8.15-0.15,1.0,133.0,,,,,,,[],,,,,,50.0,0.0,i,1.0,False,1853.3999999165535,112.0,60.0,40.0,False,,385.8693372256767,[],"[683, 384]",ColorTask,73.0,16.0,,,HRV,HRV_0243,2022-11-30 19:42:32
,wl-rdm,134,444459,0.0-8.16-0.16,1.0,134.0,,,,,,,[],,,,,,62.5,0.0,u,0.0,True,1969.5000000596046,117.0,60.0,40.0,False,,203.82671643383483,[],"[683, 384]",ColorTask,74.0,17.0,,,HRV,HRV_0243,2022-11-30 19:42:32
,wl-rdm,135,447010,0.0-8.17-0.17,1.0,135.0,,,,,,,[],,,,,,62.5,1.0,i,1.0,True,1170.699999988079,71.0,60.0,40.0,False,,311.99161075392465,[],"[683, 384]",ColorTask,75.0,18.0,,,HRV,HRV_0243,2022-11-30 19:42:32
,wl-rdm,136,449461,0.0-8.18-0.18,1.0,136.0,,,,,,,[],,,,,,53.2,1.0,u,0.0,False,1010.0000000596046,61.0,60.0,40.0,False,,358.1590956715727,[],"[683, 384]",ColorTask,74.0,19.0,,,HRV,HRV_0243,2022-11-30 19:42:32
,wl-rdm,137,451478,0.0-8.19-0.19,1.0,137.0,,,,,,,[],,,,,,56.4,1.0,i,1.0,True,659.5999999642372,39.0,60.0,40.0,False,,270.73327900750735,[],"[683, 384]",ColorTask,75.0,20.0,,,HRV,HRV_0243,2022-11-30 19:42:32
,wl-rdm,138,453613,0.0-8.20-0.20,1.0,138.0,,,,,,,[],,,,,,87.9,0.0,u,0.0,True,770.2000000476837,47.0,60.0,40.0,False,,294.8753040032507,[],"[683, 384]",ColorTask,76.0,21.0,,,HRV,HRV_0243,2022-11-30 19:42:32
,wl-rdm,139,455747,0.0-8.21-0.21,1.0,139.0,,,,,,,[],,,,,,87.9,0.0,u,0.0,True,719.8000000119209,44.0,60.0,40.0,False,,337.50188686588785,[],"[683, 384]",ColorTask,77.0,22.0,,,HRV,HRV_0243,2022-11-30 19:42:32
,wl-rdm,140,458331,0.0-8.22-0.22,1.0,140.0,,,,,,,[],,,,,,56.4,0.0,u,0.0,True,1128.4000000357628,68.0,60.0,40.0,False,,365.31902940249336,[],"[683, 384]",ColorTask,78.0,23.0,,,HRV,HRV_0243,2022-11-30 19:42:32
,wl-rdm,141,460467,0.0-8.23-0.23,1.0,141.0,,,,,,,[],,,,,,87.9,0.0,u,0.0,True,772.0999999642372,47.0,60.0,40.0,False,,292.8647999264017,[],"[683, 384]",ColorTask,79.0,24.0,,,HRV,HRV_0243,2022-11-30 19:42:32
,wl-rdm,142,462600,0.0-8.24-0.24,1.0,142.0,,,,,,,[],,,,,,56.4,1.0,i,1.0,True,741.9999999403954,45.0,60.0,40.0,False,,320.242353957604,[],"[683, 384]",ColorTask,80.0,25.0,,,HRV,HRV_0243,2022-11-30 19:42:32
,wl-rdm,143,465103,0.0-8.25-0.25,1.0,143.0,,,,,,,[],,,,,,50.0,1.0,i,1.0,True,1219.199999988079,74.0,60.0,40.0,False,,211.3407957904235,[],"[683, 384]",ColorTask,81.0,26.0,,,HRV,HRV_0243,2022-11-30 19:42:32
,wl-rdm,144,467153,0.0-8.26-0.26,1.0,144.0,,,,,,,[],,,,,,87.9,0.0,u,0.0,True,646.2000000476837,39.0,60.0,40.0,False,,342.03598756627434,[],"[683, 384]",ColorTask,82.0,27.0,,,HRV,HRV_0243,2022-11-30 19:42:32
,wl-rdm,145,469220,0.0-8.27-0.27,1.0,145.0,,,,,,,[],,,,,,73.6,0.0,u,0.0,True,647.5,39.0,60.0,40.0,False,,343.6043242045828,[],"[683, 384]",ColorTask,83.0,28.0,,,HRV,HRV_0243,2022-11-30 19:42:32
,wl-rdm,146,472005,0.0-8.28-0.28,1.0,146.0,,,,,,,[],,,,,,50.0,1.0,i,1.0,True,1433.800000011921,86.0,60.0,40.0,False,,281.1694839669116,[],"[683, 384]",ColorTask,84.0,29.0,,,HRV,HRV_0243,2022-11-30 19:42:32
,wl-rdm,147,474473,0.0-8.29-0.29,1.0,147.0,,,,,,,[],,,,,,56.4,0.0,i,1.0,False,1120.6000000238419,68.0,60.0,40.0,False,,267.8589754082734,[],"[683, 384]",ColorTask,83.0,30.0,,,HRV,HRV_0243,2022-11-30 19:42:32
,wl-rdm,148,476540,0.0-8.30-0.30,1.0,148.0,,,,,,,[],,,,,,87.9,1.0,i,1.0,True,621.5,38.0,60.0,40.0,False,,358.6988848352928,[],"[683, 384]",ColorTask,84.0,31.0,,,HRV,HRV_0243,2022-11-30 19:42:32
,wl-rdm,149,478924,0.0-8.31-0.31,1.0,149.0,,,,,,,[],,,,,,87.9,0.0,u,0.0,True,1071.0,63.0,60.0,40.0,False,,224.73481148154926,[],"[683, 384]",ColorTask,85.0,32.0,,,HRV,HRV_0243,2022-11-30 19:42:32
,wl-rdm,150,481459,0.0-8.32-0.32,1.0,150.0,,,,,,,[],,,,,,56.4,1.0,i,1.0,True,1222.4000000357628,74.0,60.0,40.0,False,,250.1346565678996,[],"[683, 384]",ColorTask,86.0,33.0,,,HRV,HRV_0243,2022-11-30 19:42:32
,wl-rdm,151,483977,0.0-8.33-0.33,1.0,151.0,,,,,,,[],,,,,,87.9,1.0,i,1.0,True,1040.1000000238419,63.0,60.0,40.0,False,,385.684663728543,[],"[683, 384]",ColorTask,87.0,34.0,,,HRV,HRV_0243,2022-11-30 19:42:32
,wl-rdm,152,486195,0.0-8.34-0.34,1.0,152.0,,,,,,,[],,,,,,53.2,1.0,u,0.0,False,869.0,52.0,60.0,40.0,False,,270.6082922042341,[],"[683, 384]",ColorTask,86.0,35.0,,,HRV,HRV_0243,2022-11-30 19:42:32
,wl-rdm,153,488846,0.0-8.35-0.35,1.0,153.0,,,,,,,[],,,,,,62.5,1.0,u,0.0,False,1192.8999999761581,72.0,60.0,40.0,False,,379.50830573322014,[],"[683, 384]",ColorTask,85.0,36.0,,,HRV,HRV_0243,2022-11-30 19:42:32
,wl-rdm,154,491313,0.0-8.36-0.36,1.0,154.0,,,,,,,[],,,,,,53.2,1.0,i,1.0,True,1062.5999999642372,64.0,60.0,40.0,False,,347.26697294699056,[],"[683, 384]",ColorTask,86.0,37.0,,,HRV,HRV_0243,2022-11-30 19:42:32
,wl-rdm,155,493848,0.0-8.37-0.37,1.0,155.0,,,,,,,[],,,,,,73.6,1.0,i,1.0,True,1195.1000000238419,72.0,60.0,40.0,False,,273.3550046637959,[],"[683, 384]",ColorTask,87.0,38.0,,,HRV,HRV_0243,2022-11-30 19:42:32
,wl-rdm,156,496132,0.0-8.38-0.38,1.0,156.0,,,,,,,[],,,,,,53.2,0.0,u,0.0,True,943.8000000715256,57.0,60.0,40.0,False,,265.1648871289908,[],"[683, 384]",ColorTask,88.0,39.0,,,HRV,HRV_0243,2022-11-30 19:42:32
,wl-rdm,157,498850,0.0-8.39-0.39,1.0,157.0,,,,,,,[],,,,,,53.2,0.0,i,1.0,False,1363.1999999284744,79.0,60.0,40.0,False,,297.3675474355526,[],"[683, 384]",ColorTask,87.0,40.0,,,HRV,HRV_0243,2022-11-30 19:42:32
,wl-rdm,158,501051,0.0-8.40-0.40,1.0,158.0,,,,,,,[],,,,,,87.9,1.0,i,1.0,True,925.3000000119209,56.0,60.0,40.0,False,,213.77228605475185,[],"[683, 384]",ColorTask,88.0,41.0,,,HRV,HRV_0243,2022-11-30 19:42:32
,wl-rdm,159,503252,0.0-8.41-0.41,1.0,159.0,,,,,,,[],,,,,,73.6,0.0,u,0.0,True,816.3000000119209,49.0,60.0,40.0,False,,323.22251373330533,[],"[683, 384]",ColorTask,89.0,42.0,,,HRV,HRV_0243,2022-11-30 19:42:32
,wl-rdm,160,505303,0.0-8.42-0.42,1.0,160.0,,,,,,,[],,,,,,73.6,1.0,i,1.0,True,742.3000000119209,45.0,60.0,40.0,False,,238.0784758373283,[],"[683, 384]",ColorTask,90.0,43.0,,,HRV,HRV_0243,2022-11-30 19:42:32
,wl-rdm,161,507804,0.0-8.43-0.43,1.0,161.0,,,,,,,[],,,,,,73.6,1.0,i,1.0,True,1079.3000000715256,64.0,60.0,40.0,False,,347.9365715369274,[],"[683, 384]",ColorTask,91.0,44.0,,,HRV,HRV_0243,2022-11-30 19:42:32
,wl-rdm,162,510739,0.0-8.44-0.44,1.0,162.0,,,,,,,[],,,,,,50.0,1.0,i,1.0,True,1501.3999999761581,91.0,60.0,40.0,False,,365.6260951913116,[],"[683, 384]",ColorTask,92.0,45.0,,,HRV,HRV_0243,2022-11-30 19:42:32
,wl-rdm,163,513141,0.0-8.45-0.45,1.0,163.0,,,,,,,[],,,,,,73.6,0.0,u,0.0,True,1025.199999988079,61.0,60.0,40.0,False,,306.2063561630739,[],"[683, 384]",ColorTask,93.0,46.0,,,HRV,HRV_0243,2022-11-30 19:42:32
,wl-rdm,164,515591,0.0-8.46-0.46,1.0,164.0,,,,,,,[],,,,,,53.2,0.0,i,1.0,False,1073.300000011921,65.0,60.0,40.0,False,,297.0642099649775,[],"[683, 384]",ColorTask,92.0,47.0,,,HRV,HRV_0243,2022-11-30 19:42:32
,wl-rdm,165,518179,0.0-8.47-0.47,1.0,165.0,,,,,,,[],,,,,,50.0,0.0,i,1.0,False,1284.800000011921,77.0,60.0,40.0,False,,225.27328446678533,[],"[683, 384]",ColorTask,91.0,48.0,,,HRV,HRV_0243,2022-11-30 19:42:32
,wl-rdm,166,520944,0.0-8.48-0.48,1.0,166.0,,,,,,,[],,,,,,62.5,1.0,i,1.0,True,1385.2000000476837,83.0,60.0,40.0,False,,306.65364143030774,[],"[683, 384]",ColorTask,92.0,49.0,,,HRV,HRV_0243,2022-11-30 19:42:32
,wl-rdm,167,523278,0.0-8.49-0.49,1.0,167.0,,,,,,,[],,,,,,56.4,0.0,u,0.0,True,1055.7000000476837,64.0,60.0,40.0,False,,202.80431535447704,[],"[683, 384]",ColorTask,93.0,50.0,,,HRV,HRV_0243,2022-11-30 19:42:32
,wl-rdm,168,525463,0.0-8.50-0.50,1.0,168.0,,,,,,,[],,,,,,73.6,1.0,i,1.0,True,843.8000000119209,51.0,60.0,40.0,False,,275.3103861165439,[],"[683, 384]",ColorTask,94.0,51.0,,,HRV,HRV_0243,2022-11-30 19:42:32
,wl-rdm,169,528014,0.0-8.51-0.51,1.0,169.0,,,,,,,[],,,,,,53.2,1.0,i,1.0,True,1259.7999999523163,76.0,60.0,40.0,False,,216.70613109200755,[],"[683, 384]",ColorTask,95.0,52.0,,,HRV,HRV_0243,2022-11-30 19:42:32
,wl-rdm,170,530381,0.0-8.52-0.52,1.0,170.0,,,,,,,[],,,,,,50.0,0.0,u,0.0,True,1068.1000000238419,64.0,60.0,40.0,False,,219.91197080125437,[],"[683, 384]",ColorTask,96.0,53.0,,,HRV,HRV_0243,2022-11-30 19:42:32
,wl-rdm,171,532482,0.0-8.53-0.53,1.0,171.0,,,,,,,[],,,,,,87.9,1.0,i,1.0,True,802.9000000357628,48.0,60.0,40.0,False,,225.98103863171366,[],"[683, 384]",ColorTask,97.0,54.0,,,HRV,HRV_0243,2022-11-30 19:42:32
,wl-rdm,172,534867,0.0-8.54-0.54,1.0,172.0,,,,,,,[],,,,,,62.5,1.0,i,1.0,True,1020.0999999642372,62.0,60.0,40.0,False,,287.3720477545332,[],"[683, 384]",ColorTask,98.0,55.0,,,HRV,HRV_0243,2022-11-30 19:42:32
,wl-rdm,173,537285,0.0-8.55-0.55,1.0,173.0,,,,,,,[],,,,,,62.5,0.0,u,0.0,True,1026.800000011921,62.0,60.0,40.0,False,,319.08491122663884,[],"[683, 384]",ColorTask,99.0,56.0,,,HRV,HRV_0243,2022-11-30 19:42:32
,wl-rdm,174,539585,0.0-8.56-0.56,1.0,174.0,,,,,,,[],,,,,,56.4,1.0,i,1.0,True,1007.1999999284744,61.0,60.0,40.0,False,,217.8435378407741,[],"[683, 384]",ColorTask,100.0,57.0,,,HRV,HRV_0243,2022-11-30 19:42:32
,wl-rdm,175,541770,0.0-8.57-0.57,1.0,175.0,,,,,,,[],,,,,,50.0,1.0,u,0.0,False,830.8000000119209,50.0,60.0,40.0,False,,281.64298385437064,[],"[683, 384]",ColorTask,99.0,58.0,,,HRV,HRV_0243,2022-11-30 19:42:32
,wl-rdm,176,544154,0.0-8.58-0.58,1.0,176.0,,,,,,,[],,,,,,50.0,0.0,u,0.0,True,1094.3999999761581,67.0,60.0,40.0,False,,207.192139532585,[],"[683, 384]",ColorTask,100.0,59.0,,,HRV,HRV_0243,2022-11-30 19:42:32
,wl-rdm,177,546539,0.0-8.59-0.59,1.0,177.0,,,,,,,[],,,,,,50.0,0.0,i,1.0,False,1058.7000000476837,64.0,60.0,40.0,False,,263.0457013010729,[],"[683, 384]",ColorTask,99.0,60.0,,,HRV,HRV_0243,2022-11-30 19:42:32
,wl-rdm,178,548707,0.0-8.60-0.60,1.0,178.0,,,,,,,[],,,,,,73.6,0.0,u,0.0,True,858.1999999880791,52.0,60.0,40.0,False,,244.81296498699163,[],"[683, 384]",ColorTask,100.0,61.0,,,HRV,HRV_0243,2022-11-30 19:42:32
,wl-rdm,179,550827,0.0-8.61-0.61,1.0,179.0,,,,,,,[],,,,,,87.9,1.0,i,1.0,True,801.3999999761581,49.0,60.0,40.0,False,,250.98612588714244,[],"[683, 384]",ColorTask,101.0,62.0,,,HRV,HRV_0243,2022-11-30 19:42:32
,wl-rdm,180,553224,0.0-8.62-0.62,1.0,180.0,,,,,,,[],,,,,,53.2,0.0,i,1.0,False,1106.3000000715256,67.0,60.0,40.0,False,,218.8563728691102,[],"[683, 384]",ColorTask,100.0,63.0,,,HRV,HRV_0243,2022-11-30 19:42:32
,wl-rdm,181,555231,0.0-8.63-0.63,1.0,181.0,,,,,,,[],,,,,,87.9,0.0,u,0.0,True,706.8999999761581,43.0,60.0,40.0,False,,209.8166743846329,[],"[683, 384]",ColorTask,101.0,64.0,,,HRV,HRV_0243,2022-11-30 19:42:32
,wl-rdm,182,557280,0.0-8.64-0.64,1.0,182.0,,,,,,,[],,,,,,87.9,1.0,i,1.0,True,615.1000000238419,37.0,60.0,40.0,False,,370.93782785814034,[],"[683, 384]",ColorTask,102.0,65.0,,,HRV,HRV_0243,2022-11-30 19:42:32
,wl-rdm,183,559211,0.0-8.65-0.65,1.0,183.0,,,,,,,[],,,,,,62.5,1.0,i,1.0,True,638.6999999880791,39.0,60.0,40.0,False,,202.6545731320338,[],"[683, 384]",ColorTask,103.0,66.0,,,HRV,HRV_0243,2022-11-30 19:42:32
,wl-rdm,184,561345,0.0-8.66-0.66,1.0,184.0,,,,,,,[],,,,,,62.5,0.0,u,0.0,True,750.0000000596046,45.0,60.0,40.0,False,,303.04931685334105,[],"[683, 384]",ColorTask,104.0,67.0,,,HRV,HRV_0243,2022-11-30 19:42:32
,wl-rdm,185,563896,0.0-8.67-0.67,1.0,185.0,,,,,,,[],,,,,,73.6,0.0,u,0.0,True,1098.800000011921,64.0,60.0,40.0,False,,369.3716954413042,[],"[683, 384]",ColorTask,105.0,68.0,,,HRV,HRV_0243,2022-11-30 19:42:32
,wl-rdm,186,565864,0.0-8.68-0.68,1.0,186.0,,,,,,,[],,,,,,50.0,1.0,i,1.0,True,612.8000000119209,37.0,60.0,40.0,False,,285.20169534046227,[],"[683, 384]",ColorTask,106.0,69.0,,,HRV,HRV_0243,2022-11-30 19:42:32
,wl-rdm,187,567998,0.0-8.69-0.69,1.0,187.0,,,,,,,[],,,,,,62.5,0.0,u,0.0,True,790.4000000357628,48.0,60.0,40.0,False,,269.2971273698412,[],"[683, 384]",ColorTask,107.0,70.0,,,HRV,HRV_0243,2022-11-30 19:42:32
,wl-rdm,188,570433,0.0-8.70-0.70,1.0,188.0,,,,,,,[],,,,,,62.5,0.0,u,0.0,True,995.0,59.0,60.0,40.0,False,,367.1910776537359,[],"[683, 384]",ColorTask,108.0,71.0,,,HRV,HRV_0243,2022-11-30 19:42:32
,wl-rdm,189,572851,0.0-8.71-0.71,1.0,189.0,,,,,,,[],,,,,,56.4,1.0,i,1.0,True,1071.699999988079,65.0,60.0,40.0,False,,274.19184782975935,[],"[683, 384]",ColorTask,109.0,72.0,,,HRV,HRV_0243,2022-11-30 19:42:32
,wl-rdm,190,575285,0.0-8.72-0.72,1.0,190.0,,,,,,,[],,,,,,53.2,0.0,u,0.0,True,1105.0999999642372,65.0,60.0,40.0,False,,249.41637289434624,[],"[683, 384]",ColorTask,110.0,73.0,,,HRV,HRV_0243,2022-11-30 19:42:32
,wl-rdm,191,577436,0.0-8.73-0.73,1.0,191.0,,,,,,,[],,,,,,62.5,0.0,u,0.0,True,870.7000000476837,53.0,60.0,40.0,False,,208.24943254375145,[],"[683, 384]",ColorTask,111.0,74.0,,,HRV,HRV_0243,2022-11-30 19:42:32
,wl-rdm,192,579686,0.0-8.74-0.74,1.0,192.0,,,,,,,[],,,,,,73.6,1.0,i,1.0,True,862.5,52.0,60.0,40.0,False,,322.58192717134466,[],"[683, 384]",ColorTask,112.0,75.0,,,HRV,HRV_0243,2022-11-30 19:42:32
,wl-rdm,193,581954,0.0-8.75-0.75,1.0,193.0,,,,,,,[],,,,,,50.0,0.0,u,0.0,True,957.8999999761581,56.0,60.0,40.0,False,,237.7476580060376,[],"[683, 384]",ColorTask,113.0,76.0,,,HRV,HRV_0243,2022-11-30 19:42:32
,wl-rdm,194,584222,0.0-8.76-0.76,1.0,194.0,,,,,,,[],,,,,,62.5,1.0,i,1.0,True,847.6999999880791,51.0,60.0,40.0,False,,366.1566661346677,[],"[683, 384]",ColorTask,114.0,77.0,,,HRV,HRV_0243,2022-11-30 19:42:32
,wl-rdm,195,586973,0.0-8.77-0.77,1.0,195.0,,,,,,,[],,,,,,53.2,0.0,i,1.0,False,1277.7999999523163,77.0,60.0,40.0,False,,395.540797275057,[],"[683, 384]",ColorTask,113.0,78.0,,,HRV,HRV_0243,2022-11-30 19:42:32
,wl-rdm,196,589225,0.0-8.78-0.78,1.0,196.0,,,,,,,[],,,,,,53.2,0.0,i,1.0,False,963.0,58.0,60.0,40.0,False,,226.27442678521138,[],"[683, 384]",ColorTask,112.0,79.0,,,HRV,HRV_0243,2022-11-30 19:42:32
,wl-rdm,197,591845,0.0-8.79-0.79,1.0,197.0,,,,,,,[],,,,,,53.2,1.0,i,1.0,True,1161.5,69.0,60.0,40.0,False,,384.14227155812307,[],"[683, 384]",ColorTask,113.0,80.0,,,HRV,HRV_0243,2022-11-30 19:42:32
,wl-rdm,198,594311,0.0-8.80-0.80,1.0,198.0,,,,,,,[],,,,,,62.5,1.0,i,1.0,True,1191.699999988079,72.0,60.0,40.0,False,,203.22240757979938,[],"[683, 384]",ColorTask,114.0,81.0,,,HRV,HRV_0243,2022-11-30 19:42:32
,wl-rdm,199,596462,0.0-8.81-0.81,1.0,199.0,,,,,,,[],,,,,,56.4,1.0,i,1.0,True,773.0,47.0,60.0,40.0,False,,285.9855712076215,[],"[683, 384]",ColorTask,115.0,82.0,,,HRV,HRV_0243,2022-11-30 19:42:32
,wl-rdm,200,598695,0.0-8.82-0.82,1.0,200.0,,,,,,,[],,,,,,73.6,0.0,u,0.0,True,963.8000000119209,58.0,60.0,40.0,False,,208.03915940998834,[],"[683, 384]",ColorTask,116.0,83.0,,,HRV,HRV_0243,2022-11-30 19:42:32
,wl-rdm,201,601180,0.0-8.83-0.83,1.0,201.0,,,,,,,[],,,,,,53.2,1.0,i,1.0,True,1152.300000011921,67.0,60.0,40.0,False,,257.21853142216037,[],"[683, 384]",ColorTask,117.0,84.0,,,HRV,HRV_0243,2022-11-30 19:42:32
,wl-rdm,202,603481,0.0-8.84-0.84,1.0,202.0,,,,,,,[],,,,,,53.2,0.0,u,0.0,True,1008.5000000596046,61.0,60.0,40.0,False,,200.23345464609542,[],"[683, 384]",ColorTask,118.0,85.0,,,HRV,HRV_0243,2022-11-30 19:42:32
,wl-rdm,203,605899,0.0-8.85-0.85,1.0,203.0,,,,,,,[],,,,,,56.4,0.0,i,1.0,False,1007.2999999523163,61.0,60.0,40.0,False,,339.29299536927556,[],"[683, 384]",ColorTask,117.0,86.0,,,HRV,HRV_0243,2022-11-30 19:42:32
,wl-rdm,204,608166,0.0-8.86-0.86,1.0,204.0,,,,,,,[],,,,,,50.0,0.0,u,0.0,True,993.1999999880791,61.0,60.0,40.0,False,,207.47578331044,[],"[683, 384]",ColorTask,118.0,87.0,,,HRV,HRV_0243,2022-11-30 19:42:32
,wl-rdm,205,610411,0.0-8.87-0.87,1.0,205.0,,,,,,,[],,,,,,50.0,1.0,i,1.0,True,948.6999999880791,57.0,60.0,40.0,False,,201.69296698470328,[],"[683, 384]",ColorTask,119.0,88.0,,,HRV,HRV_0243,2022-11-30 19:42:32
,wl-rdm,206,613536,0.0-8.88-0.88,1.0,206.0,,,,,,,[],,,,,,56.4,1.0,i,1.0,True,1742.0,105.0,60.0,40.0,False,,284.3914010734956,[],"[683, 384]",ColorTask,120.0,89.0,,,HRV,HRV_0243,2022-11-30 19:42:32
,wl-rdm,207,616187,0.0-8.89-0.89,1.0,207.0,,,,,,,[],,,,,,50.0,0.0,i,1.0,False,1230.5,74.0,60.0,40.0,False,,346.72853905991053,[],"[683, 384]",ColorTask,119.0,90.0,,,HRV,HRV_0243,2022-11-30 19:42:32
,wl-rdm,208,618254,0.0-8.90-0.90,1.0,208.0,,,,,,,[],,,,,,73.6,1.0,i,1.0,True,774.5999999642372,46.0,60.0,40.0,False,,203.5826657435008,[],"[683, 384]",ColorTask,120.0,91.0,,,HRV,HRV_0243,2022-11-30 19:42:32
,wl-rdm,209,620589,0.0-8.91-0.91,1.0,209.0,,,,,,,[],,,,,,50.0,0.0,i,1.0,False,972.6000000238419,58.0,60.0,40.0,False,,299.7950568780268,[],"[683, 384]",ColorTask,119.0,92.0,,,HRV,HRV_0243,2022-11-30 19:42:32
,wl-rdm,210,622723,0.0-8.92-0.92,1.0,210.0,,,,,,,[],,,,,,87.9,1.0,i,1.0,True,775.9999999403954,47.0,60.0,40.0,False,,293.9187842527423,[],"[683, 384]",ColorTask,120.0,93.0,,,HRV,HRV_0243,2022-11-30 19:42:32
,wl-rdm,211,625207,0.0-8.93-0.93,1.0,211.0,,,,,,,[],,,,,,56.4,0.0,u,0.0,True,1076.0999999642372,65.0,60.0,40.0,False,,320.2490292354536,[],"[683, 384]",ColorTask,121.0,94.0,,,HRV,HRV_0243,2022-11-30 19:42:32
,wl-rdm,212,627658,0.0-8.94-0.94,1.0,212.0,,,,,,,[],,,,,,53.2,1.0,i,1.0,True,1038.300000011921,62.0,60.0,40.0,False,,333.9486594059815,[],"[683, 384]",ColorTask,122.0,95.0,,,HRV,HRV_0243,2022-11-30 19:42:32
,wl-rdm,213,629994,0.0-8.95-0.95,1.0,213.0,,,,,,,[],,,,,,87.9,1.0,i,1.0,True,899.5999999642372,54.0,60.0,40.0,False,,374.886771475868,[],"[683, 384]",ColorTask,123.0,96.0,,,HRV,HRV_0243,2022-11-30 19:42:32
,wl-rdm,214,632144,0.0-8.96-0.96,1.0,214.0,,,,,,,[],,,,,,62.5,0.0,u,0.0,True,721.4000000357628,43.0,60.0,40.0,False,,350.9460144285814,[],"[683, 384]",ColorTask,124.0,97.0,,,HRV,HRV_0243,2022-11-30 19:42:32
,wl-rdm,215,634895,0.0-8.97-0.97,1.0,215.0,,,,,,,[],,,,,,62.5,1.0,i,1.0,True,1337.199999988079,81.0,60.0,40.0,False,,344.143669306416,[],"[683, 384]",ColorTask,125.0,98.0,,,HRV,HRV_0243,2022-11-30 19:42:32
,wl-rdm,216,637446,0.0-8.98-0.98,1.0,216.0,,,,,,,[],,,,,,53.2,0.0,u,0.0,True,1194.199999988079,72.0,60.0,40.0,False,,286.1366844186765,[],"[683, 384]",ColorTask,126.0,99.0,,,HRV,HRV_0243,2022-11-30 19:42:32
,wl-rdm,217,639497,0.0-8.99-0.99,1.0,217.0,,,,,,,[],,,,,,56.4,0.0,i,1.0,False,672.9000000357628,41.0,60.0,40.0,False,,306.4791906729537,[],"[683, 384]",ColorTask,125.0,100.0,,,HRV,HRV_0243,2022-11-30 19:42:32
,wl-rdm,218,641498,0.0-8.100-0.100,1.0,218.0,,,,,,,[],,,,,,62.5,0.0,u,0.0,True,732.7000000476837,44.0,60.0,40.0,False,,213.93308578278857,[],"[683, 384]",ColorTask,126.0,101.0,,,HRV,HRV_0243,2022-11-30 19:42:32
,wl-rdm,219,644366,0.0-8.101-0.101,1.0,219.0,,,,,,,[],,,,,,56.4,1.0,i,1.0,True,1464.300000011921,87.0,60.0,40.0,False,,335.08652731436234,[],"[683, 384]",ColorTask,127.0,102.0,,,HRV,HRV_0243,2022-11-30 19:42:32
,wl-rdm,220,646902,0.0-8.102-0.102,1.0,220.0,,,,,,,[],,,,,,62.5,1.0,i,1.0,True,1080.0,65.0,60.0,40.0,False,,381.4129816634705,[],"[683, 384]",ColorTask,128.0,103.0,,,HRV,HRV_0243,2022-11-30 19:42:32
,wl-rdm,221,649001,0.0-8.103-0.103,1.0,221.0,,,,,,,[],,,,,,87.9,1.0,i,1.0,True,646.3000000119209,39.0,60.0,40.0,False,,397.6527579301397,[],"[683, 384]",ColorTask,129.0,104.0,,,HRV,HRV_0243,2022-11-30 19:42:32
,wl-rdm,222,651252,0.0-8.104-0.104,1.0,222.0,,,,,,,[],,,,,,50.0,1.0,u,0.0,False,888.7999999523163,54.0,60.0,40.0,False,,294.84261367641113,[],"[683, 384]",ColorTask,128.0,105.0,,,HRV,HRV_0243,2022-11-30 19:42:32
,wl-rdm,223,653670,0.0-8.105-0.105,1.0,223.0,,,,,,,[],,,,,,73.6,1.0,i,1.0,True,1048.1000000238419,63.0,60.0,40.0,False,,286.90921277887287,[],"[683, 384]",ColorTask,129.0,106.0,,,HRV,HRV_0243,2022-11-30 19:42:32
,wl-rdm,224,656088,0.0-8.106-0.106,1.0,224.0,,,,,,,[],,,,,,56.4,0.0,i,1.0,False,1128.5000000596046,68.0,60.0,40.0,False,,205.68207725823908,[],"[683, 384]",ColorTask,128.0,107.0,,,HRV,HRV_0243,2022-11-30 19:42:32
,wl-rdm,225,658689,0.0-8.107-0.107,1.0,225.0,,,,,,,[],,,,,,53.2,1.0,u,0.0,False,1270.300000011921,74.0,60.0,40.0,False,,257.0485679990664,[],"[683, 384]",ColorTask,127.0,108.0,,,HRV,HRV_0243,2022-11-30 19:42:32
,wl-html-button-response,226,664730,0.0-9.0-0.0,,,,,,,,,,6036.199999988079,,0,,,,,,,,,,,,,,,,,,,,<h3>End of this session. Thank you!</h3><br>,['Close window'],HRV,HRV_0243,2022-11-30 19:42:32
