trialN,stimuli,trialStartTime,trialStartTime_UNIX,stimulus1,stimulus2,stimulus1Bid,stimulus2Bid,delta,selected,rt,rt_UNIX,rt_perfnow,receivedResponse,rsp,trialEndTime,trialDuration,trialEndTime_UNIX,trialDuration_UNIX,exp,subjectId,date
0,"[{'imgObject': {}, 'id': 'steak', 'src': '/static/foodstim60/steak.jpg', 'key': 'u', 'origWidth': 410, 'origHeight': 410, 'width': 410, 'height': 410, 'widthPercent': 0.45, 'rescaleHeight': False, 'trialN': 0, 'loaded': True, 'loadedTime': 7065.300000011921, 'positionName': 'LEFT', 'positionCoords': [245.68, 179], 'bid': 9.86}, {'imgObject': {}, 'id': 'turkeysandwich', 'src': '/static/foodstim60/turkeysandwich.jpg', 'key': 'i', 'origWidth': 409, 'origHeight': 409, 'width': 409, 'height': 409, 'widthPercent': 0.45, 'rescaleHeight': False, 'trialN': 0, 'loaded': True, 'loadedTime': 7148, 'positionName': 'RIGHT', 'positionCoords': [710.32, 179.5], 'bid': 7.51}]",8734.400000035763,1669836339353,steak,turkeysandwich,9.86,7.51,-2.3499999999999996,turkeysandwich,1097,1108,1107.800000011921,True,i,10347.600000023842,1613.199999988079,1669836340966,1613,HRV,HRV_0243,2022-11-30 19:31:18
1,"[{'imgObject': {}, 'id': 'raspberries', 'src': '/static/foodstim60/raspberries.jpg', 'key': 'u', 'origWidth': 411, 'origHeight': 411, 'width': 411, 'height': 411, 'widthPercent': 0.45, 'rescaleHeight': False, 'trialN': 1, 'loaded': True, 'loadedTime': 7172.600000023842, 'positionName': 'LEFT', 'positionCoords': [244.68, 178.5], 'bid': 0.15}, {'imgObject': {}, 'id': 'cocktailshrimp', 'src': '/static/foodstim60/cocktailshrimp.jpg', 'key': 'i', 'origWidth': 410, 'origHeight': 410, 'width': 410, 'height': 410, 'widthPercent': 0.45, 'rescaleHeight': False, 'trialN': 1, 'loaded': True, 'loadedTime': 7179.5, 'positionName': 'RIGHT', 'positionCoords': [710.32, 179], 'bid': 0.09}]",10347.900000035763,1669836340967,raspberries,cocktailshrimp,0.15,0.09,-0.06,cocktailshrimp,992.3000000119209,996,996.3000000119209,True,i,11851.400000035763,1503.5,1669836342470,1503,HRV,HRV_0243,2022-11-30 19:31:18
2,"[{'imgObject': {}, 'id': 'baked potato', 'src': '/static/foodstim60/baked potato.jpg', 'key': 'u', 'origWidth': 409, 'origHeight': 410, 'width': 409, 'height': 410, 'widthPercent': 0.45, 'rescaleHeight': False, 'trialN': 2, 'loaded': True, 'loadedTime': 7190.600000023842, 'positionName': 'LEFT', 'positionCoords': [246.68, 179], 'bid': 5.08}, {'imgObject': {}, 'id': 'mac & cheese', 'src': '/static/foodstim60/mac & cheese.jpg', 'key': 'i', 'origWidth': 410, 'origHeight': 410, 'width': 410, 'height': 410, 'widthPercent': 0.45, 'rescaleHeight': False, 'trialN': 2, 'loaded': True, 'loadedTime': 7193.700000047684, 'positionName': 'RIGHT', 'positionCoords': [710.32, 179], 'bid': 2.78}]",11851.600000023842,1669836342470,baked potato,mac & cheese,5.08,2.78,-2.3000000000000003,mac & cheese,2095.5,2102,2101.300000011921,True,i,14462.0,2610.399999976158,1669836345081,2611,HRV,HRV_0243,2022-11-30 19:31:18
3,"[{'imgObject': {}, 'id': 'raisin bran w milk', 'src': '/static/foodstim60/raisin bran w milk.jpg', 'key': 'u', 'origWidth': 411, 'origHeight': 411, 'width': 411, 'height': 411, 'widthPercent': 0.45, 'rescaleHeight': False, 'trialN': 3, 'loaded': True, 'loadedTime': 7235.200000047684, 'positionName': 'LEFT', 'positionCoords': [244.68, 178.5], 'bid': 0.15}, {'imgObject': {}, 'id': 'eggsalad', 'src': '/static/foodstim60/eggsalad.jpg', 'key': 'i', 'origWidth': 410, 'origHeight': 409, 'width': 410, 'height': 409, 'widthPercent': 0.45, 'rescaleHeight': False, 'trialN': 3, 'loaded': True, 'loadedTime': 7269.600000023842, 'positionName': 'RIGHT', 'positionCoords': [710.32, 179.5], 'bid': 0.18}]",14462.300000011921,1669836345081,raisin bran w milk,eggsalad,0.15,0.18,0.03,eggsalad,2035.199999988079,2037,2036.5,True,i,17003.400000035763,2541.100000023842,1669836347622,2541,HRV,HRV_0243,2022-11-30 19:31:18
4,"[{'imgObject': {}, 'id': 'tacos', 'src': '/static/foodstim60/tacos.jpg', 'key': 'u', 'origWidth': 411, 'origHeight': 411, 'width': 411, 'height': 411, 'widthPercent': 0.45, 'rescaleHeight': False, 'trialN': 4, 'loaded': True, 'loadedTime': 7308.200000047684, 'positionName': 'LEFT', 'positionCoords': [244.68, 178.5], 'bid': 9.84}, {'imgObject': {}, 'id': 'bagel and cc', 'src': '/static/foodstim60/bagel and cc.jpg', 'key': 'i', 'origWidth': 410, 'origHeight': 410, 'width': 410, 'height': 410, 'widthPercent': 0.45, 'rescaleHeight': False, 'trialN': 4, 'loaded': True, 'loadedTime': 7367.100000023842, 'positionName': 'RIGHT', 'positionCoords': [710.32, 179], 'bid': 6.8500000000000005}]",17003.80000001192,1669836347623,tacos,bagel and cc,9.84,6.8500000000000005,-2.9899999999999993,tacos,732.6999999880791,733,733.6999999880791,True,u,18243.400000035763,1239.6000000238419,1669836348862,1239,HRV,HRV_0243,2022-11-30 19:31:18
5,"[{'imgObject': {}, 'id': 'salad w chicken', 'src': '/static/foodstim60/salad w chicken.jpg', 'key': 'u', 'origWidth': 411, 'origHeight': 411, 'width': 411, 'height': 411, 'widthPercent': 0.45, 'rescaleHeight': False, 'trialN': 5, 'loaded': True, 'loadedTime': 7421.600000023842, 'positionName': 'LEFT', 'positionCoords': [244.68, 178.5], 'bid': 9.86}, {'imgObject': {}, 'id': 'steak', 'src': '/static/foodstim60/steak.jpg', 'key': 'i', 'origWidth': 410, 'origHeight': 410, 'width': 410, 'height': 410, 'widthPercent': 0.45, 'rescaleHeight': False, 'trialN': 5, 'loaded': True, 'loadedTime': 7077.100000023842, 'positionName': 'RIGHT', 'positionCoords': [710.32, 179], 'bid': 9.86}]",18243.600000023842,1669836348862,salad w chicken,steak,9.86,9.86,0.0,salad w chicken,1208.6000000238419,1210,1209.699999988079,True,u,19955.400000035763,1711.800000011921,1669836350574,1712,HRV,HRV_0243,2022-11-30 19:31:18
6,"[{'imgObject': {}, 'id': 'omelette', 'src': '/static/foodstim60/omelette.jpg', 'key': 'u', 'origWidth': 410, 'origHeight': 409, 'width': 410, 'height': 409, 'widthPercent': 0.45, 'rescaleHeight': False, 'trialN': 6, 'loaded': True, 'loadedTime': 7434.600000023842, 'positionName': 'LEFT', 'positionCoords': [245.68, 179.5], 'bid': 4.98}, {'imgObject': {}, 'id': 'turkey sandwich', 'src': '/static/foodstim60/turkey sandwich.jpg', 'key': 'i', 'origWidth': 409, 'origHeight': 409, 'width': 409, 'height': 409, 'widthPercent': 0.45, 'rescaleHeight': False, 'trialN': 6, 'loaded': True, 'loadedTime': 7470.700000047684, 'positionName': 'RIGHT', 'positionCoords': [710.32, 179.5], 'bid': 8.68}]",19955.600000023842,1669836350574,omelette,turkey sandwich,4.98,8.68,3.6999999999999993,turkey sandwich,1136.300000011921,1138,1137.199999988079,True,i,21595.30000001192,1639.699999988079,1669836352214,1640,HRV,HRV_0243,2022-11-30 19:31:18
7,"[{'imgObject': {}, 'id': 'seaweed', 'src': '/static/foodstim60/seaweed.jpg', 'key': 'u', 'origWidth': 410, 'origHeight': 410, 'width': 410, 'height': 410, 'widthPercent': 0.45, 'rescaleHeight': False, 'trialN': 7, 'loaded': True, 'loadedTime': 7523.900000035763, 'positionName': 'LEFT', 'positionCoords': [245.68, 179], 'bid': 0.15}, {'imgObject': {}, 'id': 'raspberries', 'src': '/static/foodstim60/raspberries.jpg', 'key': 'i', 'origWidth': 411, 'origHeight': 411, 'width': 411, 'height': 411, 'widthPercent': 0.45, 'rescaleHeight': False, 'trialN': 7, 'loaded': True, 'loadedTime': 7149.5, 'positionName': 'RIGHT', 'positionCoords': [710.32, 178.5], 'bid': 0.15}]",21595.600000023842,1669836352214,seaweed,raspberries,0.15,0.15,0.0,raspberries,2212.899999976158,2216,2215.300000011921,True,i,24315.400000035763,2719.800000011921,1669836354934,2720,HRV,HRV_0243,2022-11-30 19:31:18
8,"[{'imgObject': {}, 'id': 'burger', 'src': '/static/foodstim60/burger.jpg', 'key': 'u', 'origWidth': 409, 'origHeight': 409, 'width': 409, 'height': 409, 'widthPercent': 0.45, 'rescaleHeight': False, 'trialN': 8, 'loaded': True, 'loadedTime': 7525.400000035763, 'positionName': 'LEFT', 'positionCoords': [246.68, 179.5], 'bid': 5.05}, {'imgObject': {}, 'id': 'omelette', 'src': '/static/foodstim60/omelette.jpg', 'key': 'i', 'origWidth': 410, 'origHeight': 409, 'width': 410, 'height': 409, 'widthPercent': 0.45, 'rescaleHeight': False, 'trialN': 8, 'loaded': True, 'loadedTime': 7429.400000035763, 'positionName': 'RIGHT', 'positionCoords': [710.32, 179.5], 'bid': 4.98}]",24315.600000023842,1669836354934,burger,omelette,5.05,4.98,-0.0699999999999994,burger,1205.6000000238419,1207,1206.6000000238419,True,u,26027.30000001192,1711.699999988079,1669836356646,1712,HRV,HRV_0243,2022-11-30 19:31:18
9,"[{'imgObject': {}, 'id': 'sushi w_condiments', 'src': '/static/foodstim60/sushi w_condiments.jpg', 'key': 'u', 'origWidth': 410, 'origHeight': 410, 'width': 410, 'height': 410, 'widthPercent': 0.45, 'rescaleHeight': False, 'trialN': 9, 'loaded': True, 'loadedTime': 7611.600000023842, 'positionName': 'LEFT', 'positionCoords': [245.68, 179], 'bid': 0.12}, {'imgObject': {}, 'id': 'froot loops w milk', 'src': '/static/foodstim60/froot loops w milk.jpg', 'key': 'i', 'origWidth': 410, 'origHeight': 410, 'width': 410, 'height': 410, 'widthPercent': 0.45, 'rescaleHeight': False, 'trialN': 9, 'loaded': True, 'loadedTime': 7634.300000011921, 'positionName': 'RIGHT', 'positionCoords': [710.32, 179], 'bid': 1.8}]",26027.700000047684,1669836356646,sushi w_condiments,froot loops w milk,0.12,1.8,1.6800000000000002,froot loops w milk,897.7999999523163,899,898.8999999761581,True,i,27427.30000001192,1399.5999999642372,1669836358046,1400,HRV,HRV_0243,2022-11-30 19:31:18
10,"[{'imgObject': {}, 'id': 'omelette', 'src': '/static/foodstim60/omelette.jpg', 'key': 'u', 'origWidth': 410, 'origHeight': 409, 'width': 410, 'height': 409, 'widthPercent': 0.45, 'rescaleHeight': False, 'trialN': 10, 'loaded': True, 'loadedTime': 7430, 'positionName': 'LEFT', 'positionCoords': [245.68, 179.5], 'bid': 4.98}, {'imgObject': {}, 'id': 'cherries', 'src': '/static/foodstim60/cherries.jpg', 'key': 'i', 'origWidth': 410, 'origHeight': 411, 'width': 410, 'height': 411, 'widthPercent': 0.45, 'rescaleHeight': False, 'trialN': 10, 'loaded': True, 'loadedTime': 7673.700000047684, 'positionName': 'RIGHT', 'positionCoords': [710.32, 178.5], 'bid': 1.17}]",27427.600000023842,1669836358046,omelette,cherries,4.98,1.17,-3.8100000000000005,omelette,1011,1013,1012.5,True,u,28947.5,1519.8999999761581,1669836359566,1520,HRV,HRV_0243,2022-11-30 19:31:18
11,"[{'imgObject': {}, 'id': 'apple slices', 'src': '/static/foodstim60/apple slices.jpg', 'key': 'u', 'origWidth': 409, 'origHeight': 410, 'width': 409, 'height': 410, 'widthPercent': 0.45, 'rescaleHeight': False, 'trialN': 11, 'loaded': True, 'loadedTime': 7704.800000011921, 'positionName': 'LEFT', 'positionCoords': [246.68, 179], 'bid': 6.5}, {'imgObject': {}, 'id': 'steak', 'src': '/static/foodstim60/steak.jpg', 'key': 'i', 'origWidth': 410, 'origHeight': 410, 'width': 410, 'height': 410, 'widthPercent': 0.45, 'rescaleHeight': False, 'trialN': 11, 'loaded': True, 'loadedTime': 7070, 'positionName': 'RIGHT', 'positionCoords': [710.32, 179], 'bid': 9.86}]",28947.700000047684,1669836359567,apple slices,steak,6.5,9.86,3.3599999999999994,steak,1523.3999999761581,1524,1524.5999999642372,True,i,30979.400000035763,2031.699999988079,1669836361598,2031,HRV,HRV_0243,2022-11-30 19:31:18
12,"[{'imgObject': {}, 'id': 'popsicles', 'src': '/static/foodstim60/popsicles.jpg', 'key': 'u', 'origWidth': 410, 'origHeight': 410, 'width': 410, 'height': 410, 'widthPercent': 0.45, 'rescaleHeight': False, 'trialN': 12, 'loaded': True, 'loadedTime': 8502.5, 'positionName': 'LEFT', 'positionCoords': [245.68, 179], 'bid': 9.93}, {'imgObject': {}, 'id': 'fruitsalad', 'src': '/static/foodstim60/fruitsalad.jpg', 'key': 'i', 'origWidth': 410, 'origHeight': 410, 'width': 410, 'height': 410, 'widthPercent': 0.45, 'rescaleHeight': False, 'trialN': 12, 'loaded': True, 'loadedTime': 7706.800000011921, 'positionName': 'RIGHT', 'positionCoords': [710.32, 179], 'bid': 3.34}]",30979.5,1669836361598,popsicles,fruitsalad,9.93,3.34,-6.59,popsicles,805.2000000476837,807,806.3000000119209,True,u,32291.400000035763,1311.9000000357628,1669836362910,1312,HRV,HRV_0243,2022-11-30 19:31:18
13,"[{'imgObject': {}, 'id': 'hotdog w must', 'src': '/static/foodstim60/hotdog w must.jpg', 'key': 'u', 'origWidth': 409, 'origHeight': 409, 'width': 409, 'height': 409, 'widthPercent': 0.45, 'rescaleHeight': False, 'trialN': 13, 'loaded': True, 'loadedTime': 7755.600000023842, 'positionName': 'LEFT', 'positionCoords': [246.68, 179.5], 'bid': 6.8}, {'imgObject': {}, 'id': 'burrito', 'src': '/static/foodstim60/burrito.jpg', 'key': 'i', 'origWidth': 410, 'origHeight': 410, 'width': 410, 'height': 410, 'widthPercent': 0.45, 'rescaleHeight': False, 'trialN': 13, 'loaded': True, 'loadedTime': 7777.100000023842, 'positionName': 'RIGHT', 'positionCoords': [710.32, 179], 'bid': 9.81}]",32291.600000023842,1669836362910,hotdog w must,burrito,6.8,9.81,3.0100000000000007,burrito,1048.699999988079,1050,1049.6000000238419,True,i,33843.40000003576,1551.800000011921,1669836364462,1552,HRV,HRV_0243,2022-11-30 19:31:18
14,"[{'imgObject': {}, 'id': 'cherries', 'src': '/static/foodstim60/cherries.jpg', 'key': 'u', 'origWidth': 410, 'origHeight': 411, 'width': 410, 'height': 411, 'widthPercent': 0.45, 'rescaleHeight': False, 'trialN': 14, 'loaded': True, 'loadedTime': 7672.900000035763, 'positionName': 'LEFT', 'positionCoords': [245.68, 178.5], 'bid': 1.17}, {'imgObject': {}, 'id': 'rigatoni', 'src': '/static/foodstim60/rigatoni.jpg', 'key': 'i', 'origWidth': 411, 'origHeight': 411, 'width': 411, 'height': 411, 'widthPercent': 0.45, 'rescaleHeight': False, 'trialN': 14, 'loaded': True, 'loadedTime': 7781.700000047684, 'positionName': 'RIGHT', 'positionCoords': [710.32, 178.5], 'bid': 1.1}]",33843.60000002384,1669836364462,cherries,rigatoni,1.17,1.1,-0.06999999999999984,cherries,1184.6000000238419,1187,1186.199999988079,True,u,35531.40000003576,1687.800000011921,1669836366150,1688,HRV,HRV_0243,2022-11-30 19:31:18
15,"[{'imgObject': {}, 'id': 'yogurt no spoon', 'src': '/static/foodstim60/yogurt no spoon.jpg', 'key': 'u', 'origWidth': 411, 'origHeight': 410, 'width': 411, 'height': 410, 'widthPercent': 0.45, 'rescaleHeight': False, 'trialN': 15, 'loaded': True, 'loadedTime': 7819.400000035763, 'positionName': 'LEFT', 'positionCoords': [244.68, 179], 'bid': 4.15}, {'imgObject': {}, 'id': 'turkeysandwich', 'src': '/static/foodstim60/turkeysandwich.jpg', 'key': 'i', 'origWidth': 409, 'origHeight': 409, 'width': 409, 'height': 409, 'widthPercent': 0.45, 'rescaleHeight': False, 'trialN': 15, 'loaded': True, 'loadedTime': 7141.100000023842, 'positionName': 'RIGHT', 'positionCoords': [710.32, 179.5], 'bid': 7.51}]",35531.60000002384,1669836366150,yogurt no spoon,turkeysandwich,4.15,7.51,3.3599999999999994,turkeysandwich,1404.3999999761581,1406,1405.6000000238419,True,i,37443.40000003576,1911.800000011921,1669836368062,1912,HRV,HRV_0243,2022-11-30 19:31:18
16,"[{'imgObject': {}, 'id': 'mango', 'src': '/static/foodstim60/mango.jpg', 'key': 'u', 'origWidth': 411, 'origHeight': 411, 'width': 411, 'height': 411, 'widthPercent': 0.45, 'rescaleHeight': False, 'trialN': 16, 'loaded': True, 'loadedTime': 7849.600000023842, 'positionName': 'LEFT', 'positionCoords': [244.68, 178.5], 'bid': 0.06}, {'imgObject': {}, 'id': 'raisin bran w milk', 'src': '/static/foodstim60/raisin bran w milk.jpg', 'key': 'i', 'origWidth': 411, 'origHeight': 411, 'width': 411, 'height': 411, 'widthPercent': 0.45, 'rescaleHeight': False, 'trialN': 16, 'loaded': True, 'loadedTime': 7234.100000023842, 'positionName': 'RIGHT', 'positionCoords': [710.32, 178.5], 'bid': 0.15}]",37443.60000002384,1669836368062,mango,raisin bran w milk,0.06,0.15,0.09,raisin bran w milk,1336.300000011921,1338,1337.1000000238419,True,i,39283.80000001192,1840.199999988079,1669836369903,1841,HRV,HRV_0243,2022-11-30 19:31:18
17,"[{'imgObject': {}, 'id': 'burger', 'src': '/static/foodstim60/burger.jpg', 'key': 'u', 'origWidth': 409, 'origHeight': 409, 'width': 409, 'height': 409, 'widthPercent': 0.45, 'rescaleHeight': False, 'trialN': 17, 'loaded': True, 'loadedTime': 7568.900000035763, 'positionName': 'LEFT', 'positionCoords': [246.68, 179.5], 'bid': 5.05}, {'imgObject': {}, 'id': 'shreddedwheatwithmilk', 'src': '/static/foodstim60/shreddedwheatwithmilk.jpg', 'key': 'i', 'origWidth': 410, 'origHeight': 410, 'width': 410, 'height': 410, 'widthPercent': 0.45, 'rescaleHeight': False, 'trialN': 17, 'loaded': True, 'loadedTime': 7865.200000047684, 'positionName': 'RIGHT', 'positionCoords': [710.32, 179], 'bid': 1.98}]",39284.0,1669836369903,burger,shreddedwheatwithmilk,5.05,1.98,-3.07,burger,918.3000000119209,919,919.4000000357628,True,u,40707.80000001192,1423.800000011921,1669836371327,1424,HRV,HRV_0243,2022-11-30 19:31:18
18,"[{'imgObject': {}, 'id': 'burger', 'src': '/static/foodstim60/burger.jpg', 'key': 'u', 'origWidth': 409, 'origHeight': 409, 'width': 409, 'height': 409, 'widthPercent': 0.45, 'rescaleHeight': False, 'trialN': 18, 'loaded': True, 'loadedTime': 7528.700000047684, 'positionName': 'LEFT', 'positionCoords': [246.68, 179.5], 'bid': 5.05}, {'imgObject': {}, 'id': 'bagel plain', 'src': '/static/foodstim60/bagel plain.jpg', 'key': 'i', 'origWidth': 410, 'origHeight': 410, 'width': 410, 'height': 410, 'widthPercent': 0.45, 'rescaleHeight': False, 'trialN': 18, 'loaded': True, 'loadedTime': 7888, 'positionName': 'RIGHT', 'positionCoords': [710.32, 179], 'bid': 5.08}]",40708.10000002384,1669836371327,burger,bagel plain,5.05,5.08,0.03000000000000025,burger,919.6000000238419,921,920.6999999880791,True,u,42131.60000002384,1423.5,1669836372750,1423,HRV,HRV_0243,2022-11-30 19:31:18
19,"[{'imgObject': {}, 'id': 'steak', 'src': '/static/foodstim60/steak.jpg', 'key': 'u', 'origWidth': 410, 'origHeight': 410, 'width': 410, 'height': 410, 'widthPercent': 0.45, 'rescaleHeight': False, 'trialN': 19, 'loaded': True, 'loadedTime': 7083.900000035763, 'positionName': 'LEFT', 'positionCoords': [245.68, 179], 'bid': 9.86}, {'imgObject': {}, 'id': 'tacos', 'src': '/static/foodstim60/tacos.jpg', 'key': 'i', 'origWidth': 411, 'origHeight': 411, 'width': 411, 'height': 411, 'widthPercent': 0.45, 'rescaleHeight': False, 'trialN': 19, 'loaded': True, 'loadedTime': 7308.400000035763, 'positionName': 'RIGHT', 'positionCoords': [710.32, 178.5], 'bid': 9.84}]",42132.0,1669836372751,steak,tacos,9.86,9.84,-0.019999999999999574,tacos,989.5,991,991.2000000476837,True,i,43627.40000003576,1495.4000000357628,1669836374246,1495,HRV,HRV_0243,2022-11-30 19:31:18
20,"[{'imgObject': {}, 'id': 'grilled chicken strips', 'src': '/static/foodstim60/grilled chicken strips.jpg', 'key': 'u', 'origWidth': 410, 'origHeight': 411, 'width': 410, 'height': 411, 'widthPercent': 0.45, 'rescaleHeight': False, 'trialN': 20, 'loaded': True, 'loadedTime': 7903.300000011921, 'positionName': 'LEFT', 'positionCoords': [245.68, 178.5], 'bid': 9.91}, {'imgObject': {}, 'id': 'chickenfingers', 'src': '/static/foodstim60/chickenfingers.jpg', 'key': 'i', 'origWidth': 410, 'origHeight': 410, 'width': 410, 'height': 410, 'widthPercent': 0.45, 'rescaleHeight': False, 'trialN': 20, 'loaded': True, 'loadedTime': 7970, 'positionName': 'RIGHT', 'positionCoords': [710.32, 179], 'bid': 10}]",43627.60000002384,1669836374246,grilled chicken strips,chickenfingers,9.91,10.0,0.08999999999999986,grilled chicken strips,836,838,837.3000000119209,True,u,44971.80000001192,1344.199999988079,1669836375591,1345,HRV,HRV_0243,2022-11-30 19:31:18
21,"[{'imgObject': {}, 'id': 'fruitsalad', 'src': '/static/foodstim60/fruitsalad.jpg', 'key': 'u', 'origWidth': 410, 'origHeight': 410, 'width': 410, 'height': 410, 'widthPercent': 0.45, 'rescaleHeight': False, 'trialN': 21, 'loaded': True, 'loadedTime': 7707.100000023842, 'positionName': 'LEFT', 'positionCoords': [245.68, 179], 'bid': 3.34}, {'imgObject': {}, 'id': 'mashed potato', 'src': '/static/foodstim60/mashed potato.jpg', 'key': 'i', 'origWidth': 409, 'origHeight': 409, 'width': 409, 'height': 409, 'widthPercent': 0.45, 'rescaleHeight': False, 'trialN': 21, 'loaded': True, 'loadedTime': 7995.100000023842, 'positionName': 'RIGHT', 'positionCoords': [710.32, 179.5], 'bid': 5.11}]",44972.200000047684,1669836375591,fruitsalad,mashed potato,3.34,5.11,1.7700000000000005,mashed potato,1733.699999988079,1743,1742.5,True,i,47219.40000003576,2247.199999988079,1669836377838,2247,HRV,HRV_0243,2022-11-30 19:31:18
22,"[{'imgObject': {}, 'id': 'cheerios', 'src': '/static/foodstim60/cheerios.jpg', 'key': 'u', 'origWidth': 409, 'origHeight': 410, 'width': 409, 'height': 410, 'widthPercent': 0.45, 'rescaleHeight': False, 'trialN': 22, 'loaded': True, 'loadedTime': 8020.200000047684, 'positionName': 'LEFT', 'positionCoords': [246.68, 179], 'bid': 1.1}, {'imgObject': {}, 'id': 'hashbrowns', 'src': '/static/foodstim60/hashbrowns.jpg', 'key': 'i', 'origWidth': 411, 'origHeight': 410, 'width': 411, 'height': 410, 'widthPercent': 0.45, 'rescaleHeight': False, 'trialN': 22, 'loaded': True, 'loadedTime': 8108.400000035763, 'positionName': 'RIGHT', 'positionCoords': [710.32, 179], 'bid': 0.1}]",47219.90000003576,1669836377839,cheerios,hashbrowns,1.1,0.1,-1.0,cheerios,1478.5,1480,1480.5,True,u,49203.80000001192,1983.8999999761581,1669836379823,1984,HRV,HRV_0243,2022-11-30 19:31:18
23,"[{'imgObject': {}, 'id': 'grilled chicken strips', 'src': '/static/foodstim60/grilled chicken strips.jpg', 'key': 'u', 'origWidth': 410, 'origHeight': 411, 'width': 410, 'height': 411, 'widthPercent': 0.45, 'rescaleHeight': False, 'trialN': 23, 'loaded': True, 'loadedTime': 7909.200000047684, 'positionName': 'LEFT', 'positionCoords': [245.68, 178.5], 'bid': 9.91}, {'imgObject': {}, 'id': 'corn cob', 'src': '/static/foodstim60/corn cob.jpg', 'key': 'i', 'origWidth': 411, 'origHeight': 411, 'width': 411, 'height': 411, 'widthPercent': 0.45, 'rescaleHeight': False, 'trialN': 23, 'loaded': True, 'loadedTime': 8170.400000035763, 'positionName': 'RIGHT', 'positionCoords': [710.32, 178.5], 'bid': 9.87}]",49204.0,1669836379823,grilled chicken strips,corn cob,9.91,9.87,-0.040000000000000924,grilled chicken strips,1251.1000000238419,1289,1289.4000000357628,True,u,50995.30000001192,1791.300000011921,1669836381614,1791,HRV,HRV_0243,2022-11-30 19:31:18
24,"[{'imgObject': {}, 'id': 'burrito', 'src': '/static/foodstim60/burrito.jpg', 'key': 'u', 'origWidth': 410, 'origHeight': 410, 'width': 410, 'height': 410, 'widthPercent': 0.45, 'rescaleHeight': False, 'trialN': 24, 'loaded': True, 'loadedTime': 7775.200000047684, 'positionName': 'LEFT', 'positionCoords': [245.68, 179], 'bid': 9.81}, {'imgObject': {}, 'id': 'tacos', 'src': '/static/foodstim60/tacos.jpg', 'key': 'i', 'origWidth': 411, 'origHeight': 411, 'width': 411, 'height': 411, 'widthPercent': 0.45, 'rescaleHeight': False, 'trialN': 24, 'loaded': True, 'loadedTime': 7308, 'positionName': 'RIGHT', 'positionCoords': [710.32, 178.5], 'bid': 9.84}]",50996.60000002384,1669836381616,burrito,tacos,9.81,9.84,0.02999999999999936,burrito,1856,1857,1857.3999999761581,True,u,53355.5,2358.899999976158,1669836383974,2358,HRV,HRV_0243,2022-11-30 19:31:18
25,"[{'imgObject': {}, 'id': 'turkey sandwich', 'src': '/static/foodstim60/turkey sandwich.jpg', 'key': 'u', 'origWidth': 409, 'origHeight': 409, 'width': 409, 'height': 409, 'widthPercent': 0.45, 'rescaleHeight': False, 'trialN': 25, 'loaded': True, 'loadedTime': 7478.300000011921, 'positionName': 'LEFT', 'positionCoords': [246.68, 179.5], 'bid': 8.68}, {'imgObject': {}, 'id': 'blackbeanswithrice', 'src': '/static/foodstim60/blackbeanswithrice.jpg', 'key': 'i', 'origWidth': 410, 'origHeight': 410, 'width': 410, 'height': 410, 'widthPercent': 0.45, 'rescaleHeight': False, 'trialN': 25, 'loaded': True, 'loadedTime': 8177.300000011921, 'positionName': 'RIGHT', 'positionCoords': [710.32, 179], 'bid': 0.25}]",53355.700000047684,1669836383975,turkey sandwich,blackbeanswithrice,8.68,0.25,-8.43,turkey sandwich,865.1999999880791,866,866.5,True,u,54723.30000001192,1367.5999999642372,1669836385342,1367,HRV,HRV_0243,2022-11-30 19:31:18
26,"[{'imgObject': {}, 'id': 'bagel and cc', 'src': '/static/foodstim60/bagel and cc.jpg', 'key': 'u', 'origWidth': 410, 'origHeight': 410, 'width': 410, 'height': 410, 'widthPercent': 0.45, 'rescaleHeight': False, 'trialN': 26, 'loaded': True, 'loadedTime': 7373.900000035763, 'positionName': 'LEFT', 'positionCoords': [245.68, 179], 'bid': 6.8500000000000005}, {'imgObject': {}, 'id': 'popsicles', 'src': '/static/foodstim60/popsicles.jpg', 'key': 'i', 'origWidth': 410, 'origHeight': 410, 'width': 410, 'height': 410, 'widthPercent': 0.45, 'rescaleHeight': False, 'trialN': 26, 'loaded': True, 'loadedTime': 8504.400000035763, 'positionName': 'RIGHT', 'positionCoords': [710.32, 179], 'bid': 9.93}]",54723.5,1669836385342,bagel and cc,popsicles,6.8500000000000005,9.93,3.079999999999999,popsicles,884.3000000119209,886,885.7000000476837,True,i,56115.30000001192,1391.800000011921,1669836386734,1392,HRV,HRV_0243,2022-11-30 19:31:18
27,"[{'imgObject': {}, 'id': 'edamame', 'src': '/static/foodstim60/edamame.jpg', 'key': 'u', 'origWidth': 409, 'origHeight': 410, 'width': 409, 'height': 410, 'widthPercent': 0.45, 'rescaleHeight': False, 'trialN': 27, 'loaded': True, 'loadedTime': 8241.400000035763, 'positionName': 'LEFT', 'positionCoords': [246.68, 179], 'bid': 0.18}, {'imgObject': {}, 'id': 'raisin bran w milk', 'src': '/static/foodstim60/raisin bran w milk.jpg', 'key': 'i', 'origWidth': 411, 'origHeight': 411, 'width': 411, 'height': 411, 'widthPercent': 0.45, 'rescaleHeight': False, 'trialN': 27, 'loaded': True, 'loadedTime': 7234.900000035763, 'positionName': 'RIGHT', 'positionCoords': [710.32, 178.5], 'bid': 0.15}]",56115.5,1669836386734,edamame,raisin bran w milk,0.18,0.15,-0.03,raisin bran w milk,1721.9000000357628,1725,1724.6000000238419,True,i,58347.40000003576,2231.900000035763,1669836388966,2232,HRV,HRV_0243,2022-11-30 19:31:18
28,"[{'imgObject': {}, 'id': 'bagel plain', 'src': '/static/foodstim60/bagel plain.jpg', 'key': 'u', 'origWidth': 410, 'origHeight': 410, 'width': 410, 'height': 410, 'widthPercent': 0.45, 'rescaleHeight': False, 'trialN': 28, 'loaded': True, 'loadedTime': 7888.400000035763, 'positionName': 'LEFT', 'positionCoords': [245.68, 179], 'bid': 5.08}, {'imgObject': {}, 'id': 'eggs', 'src': '/static/foodstim60/eggs.jpg', 'key': 'i', 'origWidth': 409, 'origHeight': 409, 'width': 409, 'height': 409, 'widthPercent': 0.45, 'rescaleHeight': False, 'trialN': 28, 'loaded': True, 'loadedTime': 8243.700000047684, 'positionName': 'RIGHT', 'positionCoords': [710.32, 179.5], 'bid': 9.52}]",58347.5,1669836388966,bagel plain,eggs,5.08,9.52,4.4399999999999995,eggs,733.3000000119209,735,735.1000000238419,True,i,59588.30000001192,1240.800000011921,1669836390207,1241,HRV,HRV_0243,2022-11-30 19:31:18
29,"[{'imgObject': {}, 'id': 'cheerios', 'src': '/static/foodstim60/cheerios.jpg', 'key': 'u', 'origWidth': 409, 'origHeight': 410, 'width': 409, 'height': 410, 'widthPercent': 0.45, 'rescaleHeight': False, 'trialN': 29, 'loaded': True, 'loadedTime': 8049.100000023842, 'positionName': 'LEFT', 'positionCoords': [246.68, 179], 'bid': 1.1}, {'imgObject': {}, 'id': 'Grapes', 'src': '/static/foodstim60/Grapes.jpg', 'key': 'i', 'origWidth': 411, 'origHeight': 411, 'width': 411, 'height': 411, 'widthPercent': 0.45, 'rescaleHeight': False, 'trialN': 29, 'loaded': True, 'loadedTime': 8296.5, 'positionName': 'RIGHT', 'positionCoords': [710.32, 178.5], 'bid': 0.19}]",59588.5,1669836390207,cheerios,Grapes,1.1,0.19,-0.9100000000000001,cheerios,1204.300000011921,1206,1205.5,True,u,61299.30000001192,1710.800000011921,1669836391918,1711,HRV,HRV_0243,2022-11-30 19:31:18
30,"[{'imgObject': {}, 'id': 'baked potato', 'src': '/static/foodstim60/baked potato.jpg', 'key': 'u', 'origWidth': 409, 'origHeight': 410, 'width': 409, 'height': 410, 'widthPercent': 0.45, 'rescaleHeight': False, 'trialN': 30, 'loaded': True, 'loadedTime': 7184.400000035763, 'positionName': 'LEFT', 'positionCoords': [246.68, 179], 'bid': 5.08}, {'imgObject': {}, 'id': 'bagel and cc', 'src': '/static/foodstim60/bagel and cc.jpg', 'key': 'i', 'origWidth': 410, 'origHeight': 410, 'width': 410, 'height': 410, 'widthPercent': 0.45, 'rescaleHeight': False, 'trialN': 30, 'loaded': True, 'loadedTime': 7374.300000011921, 'positionName': 'RIGHT', 'positionCoords': [710.32, 179], 'bid': 6.8500000000000005}]",61299.5,1669836391918,baked potato,bagel and cc,5.08,6.8500000000000005,1.7700000000000005,bagel and cc,1402,1404,1403.5,True,i,63203.30000001192,1903.800000011921,1669836393822,1904,HRV,HRV_0243,2022-11-30 19:31:18
31,"[{'imgObject': {}, 'id': 'hashbrowns', 'src': '/static/foodstim60/hashbrowns.jpg', 'key': 'u', 'origWidth': 411, 'origHeight': 410, 'width': 411, 'height': 410, 'widthPercent': 0.45, 'rescaleHeight': False, 'trialN': 31, 'loaded': True, 'loadedTime': 8112.300000011921, 'positionName': 'LEFT', 'positionCoords': [244.68, 179], 'bid': 0.1}, {'imgObject': {}, 'id': 'fried eggs', 'src': '/static/foodstim60/fried eggs.jpg', 'key': 'i', 'origWidth': 410, 'origHeight': 410, 'width': 410, 'height': 410, 'widthPercent': 0.45, 'rescaleHeight': False, 'trialN': 31, 'loaded': True, 'loadedTime': 8310.900000035763, 'positionName': 'RIGHT', 'positionCoords': [710.32, 179], 'bid': 5.08}]",63203.60000002384,1669836393822,hashbrowns,fried eggs,0.1,5.08,4.98,fried eggs,1267.199999988079,1269,1268.699999988079,True,i,64980.0,1776.3999999761581,1669836395599,1777,HRV,HRV_0243,2022-11-30 19:31:18
32,"[{'imgObject': {}, 'id': 'Tribe humus pita', 'src': '/static/foodstim60/Tribe humus pita.jpg', 'key': 'u', 'origWidth': 411, 'origHeight': 411, 'width': 411, 'height': 411, 'widthPercent': 0.45, 'rescaleHeight': False, 'trialN': 32, 'loaded': True, 'loadedTime': 8312.700000047684, 'positionName': 'LEFT', 'positionCoords': [244.68, 178.5], 'bid': 6.18}, {'imgObject': {}, 'id': 'baked potato', 'src': '/static/foodstim60/baked potato.jpg', 'key': 'i', 'origWidth': 409, 'origHeight': 410, 'width': 409, 'height': 410, 'widthPercent': 0.45, 'rescaleHeight': False, 'trialN': 32, 'loaded': True, 'loadedTime': 7190.800000011921, 'positionName': 'RIGHT', 'positionCoords': [710.32, 179], 'bid': 5.08}]",64980.30000001192,1669836395599,Tribe humus pita,baked potato,6.18,5.08,-1.0999999999999996,Tribe humus pita,1535.5,1537,1537.1000000238419,True,u,67019.40000003576,2039.1000000238419,1669836397638,2039,HRV,HRV_0243,2022-11-30 19:31:18
33,"[{'imgObject': {}, 'id': 'turkey sandwich', 'src': '/static/foodstim60/turkey sandwich.jpg', 'key': 'u', 'origWidth': 409, 'origHeight': 409, 'width': 409, 'height': 409, 'widthPercent': 0.45, 'rescaleHeight': False, 'trialN': 33, 'loaded': True, 'loadedTime': 7479.200000047684, 'positionName': 'LEFT', 'positionCoords': [246.68, 179.5], 'bid': 8.68}, {'imgObject': {}, 'id': 'rigatoni and sauce', 'src': '/static/foodstim60/rigatoni and sauce.jpg', 'key': 'i', 'origWidth': 410, 'origHeight': 411, 'width': 410, 'height': 411, 'widthPercent': 0.45, 'rescaleHeight': False, 'trialN': 33, 'loaded': True, 'loadedTime': 8324, 'positionName': 'RIGHT', 'positionCoords': [710.32, 178.5], 'bid': 6.69}]",67020.0,1669836397639,turkey sandwich,rigatoni and sauce,8.68,6.69,-1.9899999999999993,turkey sandwich,826.5,828,828.2000000476837,True,u,68355.80000001192,1335.800000011921,1669836398975,1336,HRV,HRV_0243,2022-11-30 19:31:18
34,"[{'imgObject': {}, 'id': 'raisin bran w milk', 'src': '/static/foodstim60/raisin bran w milk.jpg', 'key': 'u', 'origWidth': 411, 'origHeight': 411, 'width': 411, 'height': 411, 'widthPercent': 0.45, 'rescaleHeight': False, 'trialN': 34, 'loaded': True, 'loadedTime': 7234.800000011921, 'positionName': 'LEFT', 'positionCoords': [244.68, 178.5], 'bid': 0.15}, {'imgObject': {}, 'id': 'mac & cheese', 'src': '/static/foodstim60/mac & cheese.jpg', 'key': 'i', 'origWidth': 410, 'origHeight': 410, 'width': 410, 'height': 410, 'widthPercent': 0.45, 'rescaleHeight': False, 'trialN': 34, 'loaded': True, 'loadedTime': 7192.800000011921, 'positionName': 'RIGHT', 'positionCoords': [710.32, 179], 'bid': 2.78}]",68356.0,1669836398975,raisin bran w milk,mac & cheese,0.15,2.78,2.63,mac & cheese,3056.2000000476837,3057,3057.100000023842,True,i,71915.30000001192,3559.300000011921,1669836402534,3559,HRV,HRV_0243,2022-11-30 19:31:18
35,"[{'imgObject': {}, 'id': 'Tribe humus pita', 'src': '/static/foodstim60/Tribe humus pita.jpg', 'key': 'u', 'origWidth': 411, 'origHeight': 411, 'width': 411, 'height': 411, 'widthPercent': 0.45, 'rescaleHeight': False, 'trialN': 35, 'loaded': True, 'loadedTime': 8317.400000035763, 'positionName': 'LEFT', 'positionCoords': [244.68, 178.5], 'bid': 6.18}, {'imgObject': {}, 'id': 'salad w chicken', 'src': '/static/foodstim60/salad w chicken.jpg', 'key': 'i', 'origWidth': 411, 'origHeight': 411, 'width': 411, 'height': 411, 'widthPercent': 0.45, 'rescaleHeight': False, 'trialN': 35, 'loaded': True, 'loadedTime': 7378.400000035763, 'positionName': 'RIGHT', 'positionCoords': [710.32, 178.5], 'bid': 9.86}]",71915.60000002384,1669836402534,Tribe humus pita,salad w chicken,6.18,9.86,3.6799999999999997,salad w chicken,829,831,830.1000000238419,True,i,73251.40000003576,1335.800000011921,1669836403870,1336,HRV,HRV_0243,2022-11-30 19:31:18
36,"[{'imgObject': {}, 'id': 'salad w chicken', 'src': '/static/foodstim60/salad w chicken.jpg', 'key': 'u', 'origWidth': 411, 'origHeight': 411, 'width': 411, 'height': 411, 'widthPercent': 0.45, 'rescaleHeight': False, 'trialN': 36, 'loaded': True, 'loadedTime': 7375.600000023842, 'positionName': 'LEFT', 'positionCoords': [244.68, 178.5], 'bid': 9.86}, {'imgObject': {}, 'id': 'burrito', 'src': '/static/foodstim60/burrito.jpg', 'key': 'i', 'origWidth': 410, 'origHeight': 410, 'width': 410, 'height': 410, 'widthPercent': 0.45, 'rescaleHeight': False, 'trialN': 36, 'loaded': True, 'loadedTime': 7773.800000011921, 'positionName': 'RIGHT', 'positionCoords': [710.32, 179], 'bid': 9.81}]",73251.60000002384,1669836403870,salad w chicken,burrito,9.86,9.81,-0.049999999999998934,burrito,2392.899999976158,2395,2394.300000011921,True,i,76147.40000003576,2895.800000011921,1669836406766,2896,HRV,HRV_0243,2022-11-30 19:31:18
37,"[{'imgObject': {}, 'id': 'edamame', 'src': '/static/foodstim60/edamame.jpg', 'key': 'u', 'origWidth': 409, 'origHeight': 410, 'width': 409, 'height': 410, 'widthPercent': 0.45, 'rescaleHeight': False, 'trialN': 37, 'loaded': True, 'loadedTime': 8240.800000011921, 'positionName': 'LEFT', 'positionCoords': [246.68, 179], 'bid': 0.18}, {'imgObject': {}, 'id': 'blueberries', 'src': '/static/foodstim60/blueberries.jpg', 'key': 'i', 'origWidth': 411, 'origHeight': 411, 'width': 411, 'height': 411, 'widthPercent': 0.45, 'rescaleHeight': False, 'trialN': 37, 'loaded': True, 'loadedTime': 8368.800000011921, 'positionName': 'RIGHT', 'positionCoords': [710.32, 178.5], 'bid': 0.09}]",76147.60000002384,1669836406766,edamame,blueberries,0.18,0.09,-0.09,blueberries,1279.6000000238419,1281,1280.800000011921,True,i,77931.30000001192,1783.699999988079,1669836408550,1784,HRV,HRV_0243,2022-11-30 19:31:18
38,"[{'imgObject': {}, 'id': 'sushi w_condiments', 'src': '/static/foodstim60/sushi w_condiments.jpg', 'key': 'u', 'origWidth': 410, 'origHeight': 410, 'width': 410, 'height': 410, 'widthPercent': 0.45, 'rescaleHeight': False, 'trialN': 38, 'loaded': True, 'loadedTime': 7612.300000011921, 'positionName': 'LEFT', 'positionCoords': [245.68, 179], 'bid': 0.12}, {'imgObject': {}, 'id': 'mashed potato', 'src': '/static/foodstim60/mashed potato.jpg', 'key': 'i', 'origWidth': 409, 'origHeight': 409, 'width': 409, 'height': 409, 'widthPercent': 0.45, 'rescaleHeight': False, 'trialN': 38, 'loaded': True, 'loadedTime': 7985.600000023842, 'positionName': 'RIGHT', 'positionCoords': [710.32, 179.5], 'bid': 5.11}]",77931.70000004768,1669836408550,sushi w_condiments,mashed potato,0.12,5.11,4.99,mashed potato,1335.5999999642372,1338,1337.2999999523163,True,i,79771.40000003576,1839.699999988079,1669836410390,1840,HRV,HRV_0243,2022-11-30 19:31:18
39,"[{'imgObject': {}, 'id': 'burrito', 'src': '/static/foodstim60/burrito.jpg', 'key': 'u', 'origWidth': 410, 'origHeight': 410, 'width': 410, 'height': 410, 'widthPercent': 0.45, 'rescaleHeight': False, 'trialN': 39, 'loaded': True, 'loadedTime': 7776.800000011921, 'positionName': 'LEFT', 'positionCoords': [245.68, 179], 'bid': 9.81}, {'imgObject': {}, 'id': 'popsicles', 'src': '/static/foodstim60/popsicles.jpg', 'key': 'i', 'origWidth': 410, 'origHeight': 410, 'width': 410, 'height': 410, 'widthPercent': 0.45, 'rescaleHeight': False, 'trialN': 39, 'loaded': True, 'loadedTime': 8504.400000035763, 'positionName': 'RIGHT', 'positionCoords': [710.32, 179], 'bid': 9.93}]",79771.70000004768,1669836410391,burrito,popsicles,9.81,9.93,0.11999999999999922,burrito,1427.8999999761581,1429,1429.199999988079,True,u,81707.60000002384,1935.8999999761581,1669836412327,1936,HRV,HRV_0243,2022-11-30 19:31:18
40,"[{'imgObject': {}, 'id': 'lox', 'src': '/static/foodstim60/lox.jpg', 'key': 'u', 'origWidth': 410, 'origHeight': 411, 'width': 410, 'height': 411, 'widthPercent': 0.45, 'rescaleHeight': False, 'trialN': 40, 'loaded': True, 'loadedTime': 8370.900000035763, 'positionName': 'LEFT', 'positionCoords': [245.68, 178.5], 'bid': 0.03}, {'imgObject': {}, 'id': 'orange slices', 'src': '/static/foodstim60/orange slices.jpg', 'key': 'i', 'origWidth': 409, 'origHeight': 410, 'width': 409, 'height': 410, 'widthPercent': 0.45, 'rescaleHeight': False, 'trialN': 40, 'loaded': True, 'loadedTime': 8373.400000035763, 'positionName': 'RIGHT', 'positionCoords': [710.32, 179], 'bid': 0.05}]",81707.90000003576,1669836412327,lox,orange slices,0.03,0.05,0.020000000000000004,orange slices,2625.399999976158,2628,2628.099999964237,True,i,84843.30000001192,3135.399999976158,1669836415462,3135,HRV,HRV_0243,2022-11-30 19:31:18
41,"[{'imgObject': {}, 'id': 'burger', 'src': '/static/foodstim60/burger.jpg', 'key': 'u', 'origWidth': 409, 'origHeight': 409, 'width': 409, 'height': 409, 'widthPercent': 0.45, 'rescaleHeight': False, 'trialN': 41, 'loaded': True, 'loadedTime': 7569.400000035763, 'positionName': 'LEFT', 'positionCoords': [246.68, 179.5], 'bid': 5.05}, {'imgObject': {}, 'id': 'chicken nuggets2', 'src': '/static/foodstim60/chicken nuggets2.jpg', 'key': 'i', 'origWidth': 410, 'origHeight': 409, 'width': 410, 'height': 409, 'widthPercent': 0.45, 'rescaleHeight': False, 'trialN': 41, 'loaded': True, 'loadedTime': 8433.300000011921, 'positionName': 'RIGHT', 'positionCoords': [710.32, 179.5], 'bid': 9.52}]",84843.5,1669836415462,burger,chicken nuggets2,5.05,9.52,4.47,chicken nuggets2,1905.7000000476837,1907,1906.800000011921,True,i,87251.40000003576,2407.900000035763,1669836417870,2408,HRV,HRV_0243,2022-11-30 19:31:18
42,"[{'imgObject': {}, 'id': 'raspberries', 'src': '/static/foodstim60/raspberries.jpg', 'key': 'u', 'origWidth': 411, 'origHeight': 411, 'width': 411, 'height': 411, 'widthPercent': 0.45, 'rescaleHeight': False, 'trialN': 42, 'loaded': True, 'loadedTime': 7173.800000011921, 'positionName': 'LEFT', 'positionCoords': [244.68, 178.5], 'bid': 0.15}, {'imgObject': {}, 'id': 'kiwi', 'src': '/static/foodstim60/kiwi.jpg', 'key': 'i', 'origWidth': 410, 'origHeight': 410, 'width': 410, 'height': 410, 'widthPercent': 0.45, 'rescaleHeight': False, 'trialN': 42, 'loaded': True, 'loadedTime': 8441.5, 'positionName': 'RIGHT', 'positionCoords': [710.32, 179], 'bid': 2.52}]",87251.60000002384,1669836417870,raspberries,kiwi,0.15,2.52,2.37,kiwi,1182.699999988079,1184,1183.699999988079,True,i,88939.30000001192,1687.699999988079,1669836419558,1688,HRV,HRV_0243,2022-11-30 19:31:18
43,"[{'imgObject': {}, 'id': 'Tribe humus pita', 'src': '/static/foodstim60/Tribe humus pita.jpg', 'key': 'u', 'origWidth': 411, 'origHeight': 411, 'width': 411, 'height': 411, 'widthPercent': 0.45, 'rescaleHeight': False, 'trialN': 43, 'loaded': True, 'loadedTime': 8316.300000011921, 'positionName': 'LEFT', 'positionCoords': [244.68, 178.5], 'bid': 6.18}, {'imgObject': {}, 'id': 'strawberries', 'src': '/static/foodstim60/strawberries.jpg', 'key': 'i', 'origWidth': 410, 'origHeight': 410, 'width': 410, 'height': 410, 'widthPercent': 0.45, 'rescaleHeight': False, 'trialN': 43, 'loaded': True, 'loadedTime': 8446.100000023842, 'positionName': 'RIGHT', 'positionCoords': [710.32, 179], 'bid': 0.13}]",88939.60000002384,1669836419558,Tribe humus pita,strawberries,6.18,0.13,-6.05,Tribe humus pita,1085.8999999761581,1088,1088.0,True,u,90531.40000003576,1591.800000011921,1669836421150,1592,HRV,HRV_0243,2022-11-30 19:31:18
44,"[{'imgObject': {}, 'id': 'granola w milk', 'src': '/static/foodstim60/granola w milk.jpg', 'key': 'u', 'origWidth': 410, 'origHeight': 410, 'width': 410, 'height': 410, 'widthPercent': 0.45, 'rescaleHeight': False, 'trialN': 44, 'loaded': True, 'loadedTime': 8496.400000035763, 'positionName': 'LEFT', 'positionCoords': [245.68, 179], 'bid': 0.08}, {'imgObject': {}, 'id': 'orange slices', 'src': '/static/foodstim60/orange slices.jpg', 'key': 'i', 'origWidth': 409, 'origHeight': 410, 'width': 409, 'height': 410, 'widthPercent': 0.45, 'rescaleHeight': False, 'trialN': 44, 'loaded': True, 'loadedTime': 8375, 'positionName': 'RIGHT', 'positionCoords': [710.32, 179], 'bid': 0.05}]",90531.60000002384,1669836421150,granola w milk,orange slices,0.08,0.05,-0.03,granola w milk,1932.699999988079,1936,1935.199999988079,True,u,92971.40000003576,2439.800000011921,1669836423590,2440,HRV,HRV_0243,2022-11-30 19:31:18
45,"[{'imgObject': {}, 'id': 'cherry tomato', 'src': '/static/foodstim60/cherry tomato.jpg', 'key': 'u', 'origWidth': 410, 'origHeight': 410, 'width': 410, 'height': 410, 'widthPercent': 0.45, 'rescaleHeight': False, 'trialN': 45, 'loaded': True, 'loadedTime': 8514.400000035763, 'positionName': 'LEFT', 'positionCoords': [245.68, 179], 'bid': 0.21}, {'imgObject': {}, 'id': 'sweetpotato', 'src': '/static/foodstim60/sweetpotato.jpg', 'key': 'i', 'origWidth': 410, 'origHeight': 410, 'width': 410, 'height': 410, 'widthPercent': 0.45, 'rescaleHeight': False, 'trialN': 45, 'loaded': True, 'loadedTime': 8518.800000011921, 'positionName': 'RIGHT', 'positionCoords': [710.32, 179], 'bid': 0.84}]",92971.60000002384,1669836423590,cherry tomato,sweetpotato,0.21,0.84,0.63,sweetpotato,1486.199999988079,1489,1488.199999988079,True,i,94963.40000003576,1991.800000011921,1669836425582,1992,HRV,HRV_0243,2022-11-30 19:31:18
46,"[{'imgObject': {}, 'id': 'roastedpotatoes', 'src': '/static/foodstim60/roastedpotatoes.jpg', 'key': 'u', 'origWidth': 409, 'origHeight': 410, 'width': 409, 'height': 410, 'widthPercent': 0.45, 'rescaleHeight': False, 'trialN': 46, 'loaded': True, 'loadedTime': 8633.300000011921, 'positionName': 'LEFT', 'positionCoords': [246.68, 179], 'bid': 6.9}, {'imgObject': {}, 'id': 'edamame', 'src': '/static/foodstim60/edamame.jpg', 'key': 'i', 'origWidth': 409, 'origHeight': 410, 'width': 409, 'height': 410, 'widthPercent': 0.45, 'rescaleHeight': False, 'trialN': 46, 'loaded': True, 'loadedTime': 8230.600000023842, 'positionName': 'RIGHT', 'positionCoords': [710.32, 179], 'bid': 0.18}]",94963.60000002384,1669836425582,roastedpotatoes,edamame,6.9,0.18,-6.720000000000001,roastedpotatoes,1061.699999988079,1064,1063.1000000238419,True,u,96534.30000001192,1570.699999988079,1669836427153,1571,HRV,HRV_0243,2022-11-30 19:31:18
47,"[{'imgObject': {}, 'id': 'strawberries', 'src': '/static/foodstim60/strawberries.jpg', 'key': 'u', 'origWidth': 410, 'origHeight': 410, 'width': 410, 'height': 410, 'widthPercent': 0.45, 'rescaleHeight': False, 'trialN': 47, 'loaded': True, 'loadedTime': 8446.400000035763, 'positionName': 'LEFT', 'positionCoords': [245.68, 179], 'bid': 0.13}, {'imgObject': {}, 'id': 'shreddedwheatwithmilk', 'src': '/static/foodstim60/shreddedwheatwithmilk.jpg', 'key': 'i', 'origWidth': 410, 'origHeight': 410, 'width': 410, 'height': 410, 'widthPercent': 0.45, 'rescaleHeight': False, 'trialN': 47, 'loaded': True, 'loadedTime': 7857.200000047684, 'positionName': 'RIGHT', 'positionCoords': [710.32, 179], 'bid': 1.98}]",96534.70000004768,1669836427154,strawberries,shreddedwheatwithmilk,0.13,1.98,1.85,shreddedwheatwithmilk,1461.0999999642372,1462,1462.0999999642372,True,i,98499.5,1964.7999999523163,1669836429118,1964,HRV,HRV_0243,2022-11-30 19:31:18
48,"[{'imgObject': {}, 'id': 'luckycharms', 'src': '/static/foodstim60/luckycharms.jpg', 'key': 'u', 'origWidth': 410, 'origHeight': 409, 'width': 410, 'height': 409, 'widthPercent': 0.45, 'rescaleHeight': False, 'trialN': 48, 'loaded': True, 'loadedTime': 8644.5, 'positionName': 'LEFT', 'positionCoords': [245.68, 179.5], 'bid': 1.09}, {'imgObject': {}, 'id': 'chicken nuggets2', 'src': '/static/foodstim60/chicken nuggets2.jpg', 'key': 'i', 'origWidth': 410, 'origHeight': 409, 'width': 410, 'height': 409, 'widthPercent': 0.45, 'rescaleHeight': False, 'trialN': 48, 'loaded': True, 'loadedTime': 8426.300000011921, 'positionName': 'RIGHT', 'positionCoords': [710.32, 179.5], 'bid': 9.52}]",98499.70000004768,1669836429119,luckycharms,chicken nuggets2,1.09,9.52,8.43,chicken nuggets2,1394.0999999642372,1395,1395.0,True,i,100395.5,1895.7999999523163,1669836431014,1895,HRV,HRV_0243,2022-11-30 19:31:18
49,"[{'imgObject': {}, 'id': 'salmon', 'src': '/static/foodstim60/salmon.jpg', 'key': 'u', 'origWidth': 410, 'origHeight': 409, 'width': 410, 'height': 409, 'widthPercent': 0.45, 'rescaleHeight': False, 'trialN': 49, 'loaded': True, 'loadedTime': 8655.200000047684, 'positionName': 'LEFT', 'positionCoords': [245.68, 179.5], 'bid': 9.77}, {'imgObject': {}, 'id': 'eggs', 'src': '/static/foodstim60/eggs.jpg', 'key': 'i', 'origWidth': 409, 'origHeight': 409, 'width': 409, 'height': 409, 'widthPercent': 0.45, 'rescaleHeight': False, 'trialN': 49, 'loaded': True, 'loadedTime': 8252.400000035763, 'positionName': 'RIGHT', 'positionCoords': [710.32, 179.5], 'bid': 9.52}]",100395.70000004768,1669836431015,salmon,eggs,9.77,9.52,-0.25,salmon,1079.199999988079,1081,1081.2999999523163,True,u,101979.30000001192,1583.5999999642372,1669836432598,1583,HRV,HRV_0243,2022-11-30 19:31:18
50,"[{'imgObject': {}, 'id': 'sweetpotato', 'src': '/static/foodstim60/sweetpotato.jpg', 'key': 'u', 'origWidth': 410, 'origHeight': 410, 'width': 410, 'height': 410, 'widthPercent': 0.45, 'rescaleHeight': False, 'trialN': 50, 'loaded': True, 'loadedTime': 8525.5, 'positionName': 'LEFT', 'positionCoords': [245.68, 179], 'bid': 0.84}, {'imgObject': {}, 'id': 'raisin bran w milk', 'src': '/static/foodstim60/raisin bran w milk.jpg', 'key': 'i', 'origWidth': 411, 'origHeight': 411, 'width': 411, 'height': 411, 'widthPercent': 0.45, 'rescaleHeight': False, 'trialN': 50, 'loaded': True, 'loadedTime': 7227.700000047684, 'positionName': 'RIGHT', 'positionCoords': [710.32, 178.5], 'bid': 0.15}]",101979.5,1669836432598,sweetpotato,raisin bran w milk,0.84,0.15,-0.69,raisin bran w milk,1080.800000011921,1082,1081.7000000476837,True,i,103563.30000001192,1583.800000011921,1669836434182,1584,HRV,HRV_0243,2022-11-30 19:31:18
51,"[{'imgObject': {}, 'id': 'hotdog w must', 'src': '/static/foodstim60/hotdog w must.jpg', 'key': 'u', 'origWidth': 409, 'origHeight': 409, 'width': 409, 'height': 409, 'widthPercent': 0.45, 'rescaleHeight': False, 'trialN': 51, 'loaded': True, 'loadedTime': 7745.600000023842, 'positionName': 'LEFT', 'positionCoords': [246.68, 179.5], 'bid': 6.8}, {'imgObject': {}, 'id': 'apple slices', 'src': '/static/foodstim60/apple slices.jpg', 'key': 'i', 'origWidth': 409, 'origHeight': 410, 'width': 409, 'height': 410, 'widthPercent': 0.45, 'rescaleHeight': False, 'trialN': 51, 'loaded': True, 'loadedTime': 7704.900000035763, 'positionName': 'RIGHT', 'positionCoords': [710.32, 179], 'bid': 6.5}]",103563.60000002384,1669836434182,hotdog w must,apple slices,6.8,6.5,-0.2999999999999998,apple slices,1401.6000000238419,1403,1402.8999999761581,True,i,105467.40000003576,1903.800000011921,1669836436086,1904,HRV,HRV_0243,2022-11-30 19:31:18
52,"[{'imgObject': {}, 'id': 'banana', 'src': '/static/foodstim60/banana.jpg', 'key': 'u', 'origWidth': 410, 'origHeight': 410, 'width': 410, 'height': 410, 'widthPercent': 0.45, 'rescaleHeight': False, 'trialN': 52, 'loaded': True, 'loadedTime': 8655.400000035763, 'positionName': 'LEFT', 'positionCoords': [245.68, 179], 'bid': 4.95}, {'imgObject': {}, 'id': 'ice cream sundae 002', 'src': '/static/foodstim60/ice cream sundae 002.jpg', 'key': 'i', 'origWidth': 409, 'origHeight': 409, 'width': 409, 'height': 409, 'widthPercent': 0.45, 'rescaleHeight': False, 'trialN': 52, 'loaded': True, 'loadedTime': 8678.200000047684, 'positionName': 'RIGHT', 'positionCoords': [710.32, 179.5], 'bid': 2.21}]",105467.5,1669836436086,banana,ice cream sundae 002,4.95,2.21,-2.74,banana,2104.5,2106,2106.0,True,u,108075.40000003576,2607.900000035763,1669836438694,2608,HRV,HRV_0243,2022-11-30 19:31:18
53,"[{'imgObject': {}, 'id': 'salmon', 'src': '/static/foodstim60/salmon.jpg', 'key': 'u', 'origWidth': 410, 'origHeight': 409, 'width': 410, 'height': 409, 'widthPercent': 0.45, 'rescaleHeight': False, 'trialN': 53, 'loaded': True, 'loadedTime': 8645.900000035763, 'positionName': 'LEFT', 'positionCoords': [245.68, 179.5], 'bid': 9.77}, {'imgObject': {}, 'id': 'cheerios', 'src': '/static/foodstim60/cheerios.jpg', 'key': 'i', 'origWidth': 409, 'origHeight': 410, 'width': 409, 'height': 410, 'widthPercent': 0.45, 'rescaleHeight': False, 'trialN': 53, 'loaded': True, 'loadedTime': 8029.700000047684, 'positionName': 'RIGHT', 'positionCoords': [710.32, 179], 'bid': 1.1}]",108075.60000002384,1669836438694,salmon,cheerios,9.77,1.1,-8.67,salmon,685.8000000119209,688,687.1999999880791,True,u,109267.5,1191.8999999761581,1669836439886,1192,HRV,HRV_0243,2022-11-30 19:31:18
54,"[{'imgObject': {}, 'id': 'rigatoni', 'src': '/static/foodstim60/rigatoni.jpg', 'key': 'u', 'origWidth': 411, 'origHeight': 411, 'width': 411, 'height': 411, 'widthPercent': 0.45, 'rescaleHeight': False, 'trialN': 54, 'loaded': True, 'loadedTime': 7805, 'positionName': 'LEFT', 'positionCoords': [244.68, 178.5], 'bid': 1.1}, {'imgObject': {}, 'id': 'yogurt no spoon', 'src': '/static/foodstim60/yogurt no spoon.jpg', 'key': 'i', 'origWidth': 411, 'origHeight': 410, 'width': 411, 'height': 410, 'widthPercent': 0.45, 'rescaleHeight': False, 'trialN': 54, 'loaded': True, 'loadedTime': 7819.600000023842, 'positionName': 'RIGHT', 'positionCoords': [710.32, 179], 'bid': 4.15}]",109267.80000001192,1669836439887,rigatoni,yogurt no spoon,1.1,4.15,3.0500000000000003,yogurt no spoon,1035.6000000238419,1036,1036.800000011921,True,i,110811.40000003576,1543.6000000238419,1669836441430,1543,HRV,HRV_0243,2022-11-30 19:31:18
55,"[{'imgObject': {}, 'id': 'luckycharms', 'src': '/static/foodstim60/luckycharms.jpg', 'key': 'u', 'origWidth': 410, 'origHeight': 409, 'width': 410, 'height': 409, 'widthPercent': 0.45, 'rescaleHeight': False, 'trialN': 55, 'loaded': True, 'loadedTime': 8634.400000035763, 'positionName': 'LEFT', 'positionCoords': [245.68, 179.5], 'bid': 1.09}, {'imgObject': {}, 'id': 'eggsalad', 'src': '/static/foodstim60/eggsalad.jpg', 'key': 'i', 'origWidth': 410, 'origHeight': 409, 'width': 410, 'height': 409, 'widthPercent': 0.45, 'rescaleHeight': False, 'trialN': 55, 'loaded': True, 'loadedTime': 7269.800000011921, 'positionName': 'RIGHT', 'positionCoords': [710.32, 179.5], 'bid': 0.18}]",110811.60000002384,1669836441430,luckycharms,eggsalad,1.09,0.18,-0.9100000000000001,luckycharms,1630.199999988079,1632,1631.6000000238419,True,u,112947.40000003576,2135.800000011921,1669836443566,2136,HRV,HRV_0243,2022-11-30 19:31:18
56,"[{'imgObject': {}, 'id': 'omelette', 'src': '/static/foodstim60/omelette.jpg', 'key': 'u', 'origWidth': 410, 'origHeight': 409, 'width': 410, 'height': 409, 'widthPercent': 0.45, 'rescaleHeight': False, 'trialN': 56, 'loaded': True, 'loadedTime': 7466.600000023842, 'positionName': 'LEFT', 'positionCoords': [245.68, 179.5], 'bid': 4.98}, {'imgObject': {}, 'id': 'veggieswithdip', 'src': '/static/foodstim60/veggieswithdip.jpg', 'key': 'i', 'origWidth': 409, 'origHeight': 409, 'width': 409, 'height': 409, 'widthPercent': 0.45, 'rescaleHeight': False, 'trialN': 56, 'loaded': True, 'loadedTime': 8683.900000035763, 'positionName': 'RIGHT', 'positionCoords': [710.32, 179.5], 'bid': 4.98}]",112947.60000002384,1669836443566,omelette,veggieswithdip,4.98,4.98,0.0,omelette,1060,1062,1061.5,True,u,114515.40000003576,1567.800000011921,1669836445134,1568,HRV,HRV_0243,2022-11-30 19:31:18
57,"[{'imgObject': {}, 'id': 'kiwi', 'src': '/static/foodstim60/kiwi.jpg', 'key': 'u', 'origWidth': 410, 'origHeight': 410, 'width': 410, 'height': 410, 'widthPercent': 0.45, 'rescaleHeight': False, 'trialN': 57, 'loaded': True, 'loadedTime': 8438, 'positionName': 'LEFT', 'positionCoords': [245.68, 179], 'bid': 2.52}, {'imgObject': {}, 'id': 'mac & cheese', 'src': '/static/foodstim60/mac & cheese.jpg', 'key': 'i', 'origWidth': 410, 'origHeight': 410, 'width': 410, 'height': 410, 'widthPercent': 0.45, 'rescaleHeight': False, 'trialN': 57, 'loaded': True, 'loadedTime': 7193.900000035763, 'positionName': 'RIGHT', 'positionCoords': [710.32, 179], 'bid': 2.78}]",114515.70000004768,1669836445135,kiwi,mac & cheese,2.52,2.78,0.2599999999999998,mac & cheese,928.3999999761581,930,930.1999999880791,True,i,115947.30000001192,1431.5999999642372,1669836446566,1431,HRV,HRV_0243,2022-11-30 19:31:18
58,"[{'imgObject': {}, 'id': 'burger', 'src': '/static/foodstim60/burger.jpg', 'key': 'u', 'origWidth': 409, 'origHeight': 409, 'width': 409, 'height': 409, 'widthPercent': 0.45, 'rescaleHeight': False, 'trialN': 58, 'loaded': True, 'loadedTime': 7528, 'positionName': 'LEFT', 'positionCoords': [246.68, 179.5], 'bid': 5.05}, {'imgObject': {}, 'id': 'fruitsalad', 'src': '/static/foodstim60/fruitsalad.jpg', 'key': 'i', 'origWidth': 410, 'origHeight': 410, 'width': 410, 'height': 410, 'widthPercent': 0.45, 'rescaleHeight': False, 'trialN': 58, 'loaded': True, 'loadedTime': 7706.700000047684, 'positionName': 'RIGHT', 'positionCoords': [710.32, 179], 'bid': 3.34}]",115947.5,1669836446566,burger,fruitsalad,5.05,3.34,-1.71,burger,825.3000000119209,830,830.1000000238419,True,u,117283.30000001192,1335.800000011921,1669836447902,1336,HRV,HRV_0243,2022-11-30 19:31:18
59,"[{'imgObject': {}, 'id': 'cherry tomato', 'src': '/static/foodstim60/cherry tomato.jpg', 'key': 'u', 'origWidth': 410, 'origHeight': 410, 'width': 410, 'height': 410, 'widthPercent': 0.45, 'rescaleHeight': False, 'trialN': 59, 'loaded': True, 'loadedTime': 8514.800000011921, 'positionName': 'LEFT', 'positionCoords': [245.68, 179], 'bid': 0.21}, {'imgObject': {}, 'id': 'blackbeanswithrice', 'src': '/static/foodstim60/blackbeanswithrice.jpg', 'key': 'i', 'origWidth': 410, 'origHeight': 410, 'width': 410, 'height': 410, 'widthPercent': 0.45, 'rescaleHeight': False, 'trialN': 59, 'loaded': True, 'loadedTime': 8185.400000035763, 'positionName': 'RIGHT', 'positionCoords': [710.32, 179], 'bid': 0.25}]",117283.60000002384,1669836447902,cherry tomato,blackbeanswithrice,0.21,0.25,0.04000000000000001,blackbeanswithrice,1560.199999988079,1569,1568.1000000238419,True,i,119376.30000001192,2092.699999988079,1669836449995,2093,HRV,HRV_0243,2022-11-30 19:31:18
60,"[{'imgObject': {}, 'id': 'salad w chicken', 'src': '/static/foodstim60/salad w chicken.jpg', 'key': 'u', 'origWidth': 411, 'origHeight': 411, 'width': 411, 'height': 411, 'widthPercent': 0.45, 'rescaleHeight': False, 'trialN': 60, 'loaded': True, 'loadedTime': 7380, 'positionName': 'LEFT', 'positionCoords': [244.68, 178.5], 'bid': 9.86}, {'imgObject': {}, 'id': 'cantaloupe', 'src': '/static/foodstim60/cantaloupe.jpg', 'key': 'i', 'origWidth': 409, 'origHeight': 409, 'width': 409, 'height': 409, 'widthPercent': 0.45, 'rescaleHeight': False, 'trialN': 60, 'loaded': True, 'loadedTime': 8686.800000011921, 'positionName': 'RIGHT', 'positionCoords': [710.32, 179.5], 'bid': 8.950000000000001}]",119376.5,1669836449995,salad w chicken,cantaloupe,9.86,8.950000000000001,-0.9099999999999984,salad w chicken,796.8000000119209,798,797.7000000476837,True,u,120675.40000003576,1298.9000000357628,1669836451294,1299,HRV,HRV_0243,2022-11-30 19:31:18
61,"[{'imgObject': {}, 'id': 'avocado', 'src': '/static/foodstim60/avocado.jpg', 'key': 'u', 'origWidth': 409, 'origHeight': 409, 'width': 409, 'height': 409, 'widthPercent': 0.45, 'rescaleHeight': False, 'trialN': 61, 'loaded': True, 'loadedTime': 8694, 'positionName': 'LEFT', 'positionCoords': [246.68, 179.5], 'bid': 3.59}, {'imgObject': {}, 'id': 'edamame', 'src': '/static/foodstim60/edamame.jpg', 'key': 'i', 'origWidth': 409, 'origHeight': 410, 'width': 409, 'height': 410, 'widthPercent': 0.45, 'rescaleHeight': False, 'trialN': 61, 'loaded': True, 'loadedTime': 8241.700000047684, 'positionName': 'RIGHT', 'positionCoords': [710.32, 179], 'bid': 0.18}]",120675.60000002384,1669836451294,avocado,edamame,3.59,0.18,-3.4099999999999997,avocado,1789.1000000238419,1792,1791.8999999761581,True,u,122971.30000001192,2295.699999988079,1669836453590,2296,HRV,HRV_0243,2022-11-30 19:31:18
62,"[{'imgObject': {}, 'id': 'bagel and cc', 'src': '/static/foodstim60/bagel and cc.jpg', 'key': 'u', 'origWidth': 410, 'origHeight': 410, 'width': 410, 'height': 410, 'widthPercent': 0.45, 'rescaleHeight': False, 'trialN': 62, 'loaded': True, 'loadedTime': 7313.400000035763, 'positionName': 'LEFT', 'positionCoords': [245.68, 179], 'bid': 6.8500000000000005}, {'imgObject': {}, 'id': 'hotdog w must', 'src': '/static/foodstim60/hotdog w must.jpg', 'key': 'i', 'origWidth': 409, 'origHeight': 409, 'width': 409, 'height': 409, 'widthPercent': 0.45, 'rescaleHeight': False, 'trialN': 62, 'loaded': True, 'loadedTime': 7756.600000023842, 'positionName': 'RIGHT', 'positionCoords': [710.32, 179.5], 'bid': 6.8}]",122971.5,1669836453590,bagel and cc,hotdog w must,6.8500000000000005,6.8,-0.05000000000000071,hotdog w must,795,796,796.0,True,i,124275.40000003576,1303.9000000357628,1669836454894,1304,HRV,HRV_0243,2022-11-30 19:31:18
63,"[{'imgObject': {}, 'id': 'seaweed', 'src': '/static/foodstim60/seaweed.jpg', 'key': 'u', 'origWidth': 410, 'origHeight': 410, 'width': 410, 'height': 410, 'widthPercent': 0.45, 'rescaleHeight': False, 'trialN': 63, 'loaded': True, 'loadedTime': 7524.700000047684, 'positionName': 'LEFT', 'positionCoords': [245.68, 179], 'bid': 0.15}, {'imgObject': {}, 'id': 'blueberries', 'src': '/static/foodstim60/blueberries.jpg', 'key': 'i', 'origWidth': 411, 'origHeight': 411, 'width': 411, 'height': 411, 'widthPercent': 0.45, 'rescaleHeight': False, 'trialN': 63, 'loaded': True, 'loadedTime': 8368.100000023842, 'positionName': 'RIGHT', 'positionCoords': [710.32, 178.5], 'bid': 0.09}]",124275.60000002384,1669836454894,seaweed,blueberries,0.15,0.09,-0.06,blueberries,1468,1469,1468.800000011921,True,i,126251.30000001192,1975.699999988079,1669836456870,1976,HRV,HRV_0243,2022-11-30 19:31:18
64,"[{'imgObject': {}, 'id': 'cantaloupe', 'src': '/static/foodstim60/cantaloupe.jpg', 'key': 'u', 'origWidth': 409, 'origHeight': 409, 'width': 409, 'height': 409, 'widthPercent': 0.45, 'rescaleHeight': False, 'trialN': 64, 'loaded': True, 'loadedTime': 8688.5, 'positionName': 'LEFT', 'positionCoords': [246.68, 179.5], 'bid': 8.950000000000001}, {'imgObject': {}, 'id': 'chicken nuggets2', 'src': '/static/foodstim60/chicken nuggets2.jpg', 'key': 'i', 'origWidth': 410, 'origHeight': 409, 'width': 410, 'height': 409, 'widthPercent': 0.45, 'rescaleHeight': False, 'trialN': 64, 'loaded': True, 'loadedTime': 8432.600000023842, 'positionName': 'RIGHT', 'positionCoords': [710.32, 179.5], 'bid': 9.52}]",126251.60000002384,1669836456870,cantaloupe,chicken nuggets2,8.950000000000001,9.52,0.5699999999999985,chicken nuggets2,1068.699999988079,1082,1081.8999999761581,True,i,127835.30000001192,1583.699999988079,1669836458454,1584,HRV,HRV_0243,2022-11-30 19:31:18
65,"[{'imgObject': {}, 'id': 'rigatoni and sauce', 'src': '/static/foodstim60/rigatoni and sauce.jpg', 'key': 'u', 'origWidth': 410, 'origHeight': 411, 'width': 410, 'height': 411, 'widthPercent': 0.45, 'rescaleHeight': False, 'trialN': 65, 'loaded': True, 'loadedTime': 8330.300000011921, 'positionName': 'LEFT', 'positionCoords': [245.68, 178.5], 'bid': 6.69}, {'imgObject': {}, 'id': 'bagel and cc', 'src': '/static/foodstim60/bagel and cc.jpg', 'key': 'i', 'origWidth': 410, 'origHeight': 410, 'width': 410, 'height': 410, 'widthPercent': 0.45, 'rescaleHeight': False, 'trialN': 65, 'loaded': True, 'loadedTime': 7374.5, 'positionName': 'RIGHT', 'positionCoords': [710.32, 179], 'bid': 6.8500000000000005}]",127835.60000002384,1669836458454,rigatoni and sauce,bagel and cc,6.69,6.8500000000000005,0.16000000000000014,bagel and cc,1506.800000011921,1520,1519.800000011921,True,i,129859.40000003576,2023.800000011921,1669836460478,2024,HRV,HRV_0243,2022-11-30 19:31:18
66,"[{'imgObject': {}, 'id': 'raspberries', 'src': '/static/foodstim60/raspberries.jpg', 'key': 'u', 'origWidth': 411, 'origHeight': 411, 'width': 411, 'height': 411, 'widthPercent': 0.45, 'rescaleHeight': False, 'trialN': 66, 'loaded': True, 'loadedTime': 7174.300000011921, 'positionName': 'LEFT', 'positionCoords': [244.68, 178.5], 'bid': 0.15}, {'imgObject': {}, 'id': 'orange slices', 'src': '/static/foodstim60/orange slices.jpg', 'key': 'i', 'origWidth': 409, 'origHeight': 410, 'width': 409, 'height': 410, 'widthPercent': 0.45, 'rescaleHeight': False, 'trialN': 66, 'loaded': True, 'loadedTime': 8374.5, 'positionName': 'RIGHT', 'positionCoords': [710.32, 179], 'bid': 0.05}]",129859.60000002384,1669836460478,raspberries,orange slices,0.15,0.05,-0.09999999999999999,raspberries,1159.8999999761581,1169,1168.8999999761581,True,u,131532.0,1672.3999999761581,1669836462151,1673,HRV,HRV_0243,2022-11-30 19:31:18
67,"[{'imgObject': {}, 'id': 'kiwi', 'src': '/static/foodstim60/kiwi.jpg', 'key': 'u', 'origWidth': 410, 'origHeight': 410, 'width': 410, 'height': 410, 'widthPercent': 0.45, 'rescaleHeight': False, 'trialN': 67, 'loaded': True, 'loadedTime': 8442.200000047684, 'positionName': 'LEFT', 'positionCoords': [245.68, 179], 'bid': 2.52}, {'imgObject': {}, 'id': 'omelette', 'src': '/static/foodstim60/omelette.jpg', 'key': 'i', 'origWidth': 410, 'origHeight': 409, 'width': 410, 'height': 409, 'widthPercent': 0.45, 'rescaleHeight': False, 'trialN': 67, 'loaded': True, 'loadedTime': 7429.800000011921, 'positionName': 'RIGHT', 'positionCoords': [710.32, 179.5], 'bid': 4.98}]",131532.20000004768,1669836462151,kiwi,omelette,2.52,4.98,2.4600000000000004,omelette,1245.3999999761581,1247,1247.0999999642372,True,i,133283.80000001192,1751.5999999642372,1669836463903,1752,HRV,HRV_0243,2022-11-30 19:31:18
68,"[{'imgObject': {}, 'id': 'avocado', 'src': '/static/foodstim60/avocado.jpg', 'key': 'u', 'origWidth': 409, 'origHeight': 409, 'width': 409, 'height': 409, 'widthPercent': 0.45, 'rescaleHeight': False, 'trialN': 68, 'loaded': True, 'loadedTime': 8690.400000035763, 'positionName': 'LEFT', 'positionCoords': [246.68, 179.5], 'bid': 3.59}, {'imgObject': {}, 'id': 'fruitsalad', 'src': '/static/foodstim60/fruitsalad.jpg', 'key': 'i', 'origWidth': 410, 'origHeight': 410, 'width': 410, 'height': 410, 'widthPercent': 0.45, 'rescaleHeight': False, 'trialN': 68, 'loaded': True, 'loadedTime': 7706.5, 'positionName': 'RIGHT', 'positionCoords': [710.32, 179], 'bid': 3.34}]",133283.90000003576,1669836463903,avocado,fruitsalad,3.59,3.34,-0.25,avocado,1121.8999999761581,1123,1122.8999999761581,True,u,134907.40000003576,1623.5,1669836465526,1623,HRV,HRV_0243,2022-11-30 19:31:18
69,"[{'imgObject': {}, 'id': 'ice cream sundae 002', 'src': '/static/foodstim60/ice cream sundae 002.jpg', 'key': 'u', 'origWidth': 409, 'origHeight': 409, 'width': 409, 'height': 409, 'widthPercent': 0.45, 'rescaleHeight': False, 'trialN': 69, 'loaded': True, 'loadedTime': 8677.700000047684, 'positionName': 'LEFT', 'positionCoords': [246.68, 179.5], 'bid': 2.21}, {'imgObject': {}, 'id': 'shreddedwheatwithmilk', 'src': '/static/foodstim60/shreddedwheatwithmilk.jpg', 'key': 'i', 'origWidth': 410, 'origHeight': 410, 'width': 410, 'height': 410, 'widthPercent': 0.45, 'rescaleHeight': False, 'trialN': 69, 'loaded': True, 'loadedTime': 7864.900000035763, 'positionName': 'RIGHT', 'positionCoords': [710.32, 179], 'bid': 1.98}]",134907.60000002384,1669836465526,ice cream sundae 002,shreddedwheatwithmilk,2.21,1.98,-0.22999999999999998,ice cream sundae 002,1636.6000000238419,1638,1637.699999988079,True,u,137051.80000001192,2144.199999988079,1669836467671,2145,HRV,HRV_0243,2022-11-30 19:31:18
70,"[{'imgObject': {}, 'id': 'strawberries', 'src': '/static/foodstim60/strawberries.jpg', 'key': 'u', 'origWidth': 410, 'origHeight': 410, 'width': 410, 'height': 410, 'widthPercent': 0.45, 'rescaleHeight': False, 'trialN': 70, 'loaded': True, 'loadedTime': 8446.5, 'positionName': 'LEFT', 'positionCoords': [245.68, 179], 'bid': 0.13}, {'imgObject': {}, 'id': 'granola w milk', 'src': '/static/foodstim60/granola w milk.jpg', 'key': 'i', 'origWidth': 410, 'origHeight': 410, 'width': 410, 'height': 410, 'widthPercent': 0.45, 'rescaleHeight': False, 'trialN': 70, 'loaded': True, 'loadedTime': 8495.800000011921, 'positionName': 'RIGHT', 'positionCoords': [710.32, 179], 'bid': 0.08}]",137052.10000002384,1669836467671,strawberries,granola w milk,0.13,0.08,-0.05,granola w milk,2275.399999976158,2277,2276.600000023842,True,i,139835.30000001192,2783.199999988079,1669836470454,2783,HRV,HRV_0243,2022-11-30 19:31:18
71,"[{'imgObject': {}, 'id': 'turkeysandwich', 'src': '/static/foodstim60/turkeysandwich.jpg', 'key': 'u', 'origWidth': 409, 'origHeight': 409, 'width': 409, 'height': 409, 'widthPercent': 0.45, 'rescaleHeight': False, 'trialN': 71, 'loaded': True, 'loadedTime': 7149, 'positionName': 'LEFT', 'positionCoords': [246.68, 179.5], 'bid': 7.51}, {'imgObject': {}, 'id': 'roastedpotatoes', 'src': '/static/foodstim60/roastedpotatoes.jpg', 'key': 'i', 'origWidth': 409, 'origHeight': 410, 'width': 409, 'height': 410, 'widthPercent': 0.45, 'rescaleHeight': False, 'trialN': 71, 'loaded': True, 'loadedTime': 8615.700000047684, 'positionName': 'RIGHT', 'positionCoords': [710.32, 179], 'bid': 6.9}]",139835.5,1669836470454,turkeysandwich,roastedpotatoes,7.51,6.9,-0.6099999999999994,turkeysandwich,1294.800000011921,1296,1295.7000000476837,True,u,141635.40000003576,1799.9000000357628,1669836472254,1800,HRV,HRV_0243,2022-11-30 19:31:18
72,"[{'imgObject': {}, 'id': 'cherry tomato', 'src': '/static/foodstim60/cherry tomato.jpg', 'key': 'u', 'origWidth': 410, 'origHeight': 410, 'width': 410, 'height': 410, 'widthPercent': 0.45, 'rescaleHeight': False, 'trialN': 72, 'loaded': True, 'loadedTime': 8514.100000023842, 'positionName': 'LEFT', 'positionCoords': [245.68, 179], 'bid': 0.21}, {'imgObject': {}, 'id': 'hashbrowns', 'src': '/static/foodstim60/hashbrowns.jpg', 'key': 'i', 'origWidth': 411, 'origHeight': 410, 'width': 411, 'height': 410, 'widthPercent': 0.45, 'rescaleHeight': False, 'trialN': 72, 'loaded': True, 'loadedTime': 8113, 'positionName': 'RIGHT', 'positionCoords': [710.32, 179], 'bid': 0.1}]",141635.80000001192,1669836472255,cherry tomato,hashbrowns,0.21,0.1,-0.10999999999999999,cherry tomato,2392.900000035763,2396,2396.199999988079,True,u,144539.40000003576,2903.600000023842,1669836475158,2903,HRV,HRV_0243,2022-11-30 19:31:18
73,"[{'imgObject': {}, 'id': 'blueberries', 'src': '/static/foodstim60/blueberries.jpg', 'key': 'u', 'origWidth': 411, 'origHeight': 411, 'width': 411, 'height': 411, 'widthPercent': 0.45, 'rescaleHeight': False, 'trialN': 73, 'loaded': True, 'loadedTime': 8365.800000011921, 'positionName': 'LEFT', 'positionCoords': [244.68, 178.5], 'bid': 0.09}, {'imgObject': {}, 'id': 'cocktailshrimp', 'src': '/static/foodstim60/cocktailshrimp.jpg', 'key': 'i', 'origWidth': 410, 'origHeight': 410, 'width': 410, 'height': 410, 'widthPercent': 0.45, 'rescaleHeight': False, 'trialN': 73, 'loaded': True, 'loadedTime': 7183.900000035763, 'positionName': 'RIGHT', 'positionCoords': [710.32, 179], 'bid': 0.09}]",144539.80000001192,1669836475159,blueberries,cocktailshrimp,0.09,0.09,0.0,blueberries,1341.1000000238419,1342,1342.300000011921,True,u,146387.40000003576,1847.6000000238419,1669836477006,1847,HRV,HRV_0243,2022-11-30 19:31:18
74,"[{'imgObject': {}, 'id': 'pear', 'src': '/static/foodstim60/pear.jpg', 'key': 'u', 'origWidth': 411, 'origHeight': 410, 'width': 411, 'height': 410, 'widthPercent': 0.45, 'rescaleHeight': False, 'trialN': 74, 'loaded': True, 'loadedTime': 8699.5, 'positionName': 'LEFT', 'positionCoords': [244.68, 179], 'bid': 8.11}, {'imgObject': {}, 'id': 'apple slices', 'src': '/static/foodstim60/apple slices.jpg', 'key': 'i', 'origWidth': 409, 'origHeight': 410, 'width': 409, 'height': 410, 'widthPercent': 0.45, 'rescaleHeight': False, 'trialN': 74, 'loaded': True, 'loadedTime': 7680.100000023842, 'positionName': 'RIGHT', 'positionCoords': [710.32, 179], 'bid': 6.5}]",146387.60000002384,1669836477006,pear,apple slices,8.11,6.5,-1.6099999999999994,pear,1457.5,1463,1463.0,True,u,148355.30000001192,1967.699999988079,1669836478974,1968,HRV,HRV_0243,2022-11-30 19:31:18
75,"[{'imgObject': {}, 'id': 'luckycharms', 'src': '/static/foodstim60/luckycharms.jpg', 'key': 'u', 'origWidth': 410, 'origHeight': 409, 'width': 410, 'height': 409, 'widthPercent': 0.45, 'rescaleHeight': False, 'trialN': 75, 'loaded': True, 'loadedTime': 8644, 'positionName': 'LEFT', 'positionCoords': [245.68, 179.5], 'bid': 1.09}, {'imgObject': {}, 'id': 'strawberries', 'src': '/static/foodstim60/strawberries.jpg', 'key': 'i', 'origWidth': 410, 'origHeight': 410, 'width': 410, 'height': 410, 'widthPercent': 0.45, 'rescaleHeight': False, 'trialN': 75, 'loaded': True, 'loadedTime': 8449.900000035763, 'positionName': 'RIGHT', 'positionCoords': [710.32, 179], 'bid': 0.13}]",148355.60000002384,1669836478974,luckycharms,strawberries,1.09,0.13,-0.9600000000000001,luckycharms,1184.8999999761581,1187,1186.300000011921,True,u,150043.40000003576,1687.800000011921,1669836480662,1688,HRV,HRV_0243,2022-11-30 19:31:18
76,"[{'imgObject': {}, 'id': 'kiwi', 'src': '/static/foodstim60/kiwi.jpg', 'key': 'u', 'origWidth': 410, 'origHeight': 410, 'width': 410, 'height': 410, 'widthPercent': 0.45, 'rescaleHeight': False, 'trialN': 76, 'loaded': True, 'loadedTime': 8441.5, 'positionName': 'LEFT', 'positionCoords': [245.68, 179], 'bid': 2.52}, {'imgObject': {}, 'id': 'corn cob', 'src': '/static/foodstim60/corn cob.jpg', 'key': 'i', 'origWidth': 411, 'origHeight': 411, 'width': 411, 'height': 411, 'widthPercent': 0.45, 'rescaleHeight': False, 'trialN': 76, 'loaded': True, 'loadedTime': 8116.300000011921, 'positionName': 'RIGHT', 'positionCoords': [710.32, 178.5], 'bid': 9.87}]",150043.60000002384,1669836480662,kiwi,corn cob,2.52,9.87,7.35,corn cob,814.8000000119209,817,816.1999999880791,True,i,151363.90000003576,1320.300000011921,1669836481983,1321,HRV,HRV_0243,2022-11-30 19:31:18
77,"[{'imgObject': {}, 'id': 'grilled chicken strips', 'src': '/static/foodstim60/grilled chicken strips.jpg', 'key': 'u', 'origWidth': 410, 'origHeight': 411, 'width': 410, 'height': 411, 'widthPercent': 0.45, 'rescaleHeight': False, 'trialN': 77, 'loaded': True, 'loadedTime': 7908.5, 'positionName': 'LEFT', 'positionCoords': [245.68, 178.5], 'bid': 9.91}, {'imgObject': {}, 'id': 'mac & cheese', 'src': '/static/foodstim60/mac & cheese.jpg', 'key': 'i', 'origWidth': 410, 'origHeight': 410, 'width': 410, 'height': 410, 'widthPercent': 0.45, 'rescaleHeight': False, 'trialN': 77, 'loaded': True, 'loadedTime': 7193.5, 'positionName': 'RIGHT', 'positionCoords': [710.32, 179], 'bid': 2.78}]",151364.10000002384,1669836481983,grilled chicken strips,mac & cheese,9.91,2.78,-7.130000000000001,grilled chicken strips,965.1000000238419,966,966.3000000119209,True,u,152835.30000001192,1471.199999988079,1669836483454,1471,HRV,HRV_0243,2022-11-30 19:31:18
78,"[{'imgObject': {}, 'id': 'luckycharms', 'src': '/static/foodstim60/luckycharms.jpg', 'key': 'u', 'origWidth': 410, 'origHeight': 409, 'width': 410, 'height': 409, 'widthPercent': 0.45, 'rescaleHeight': False, 'trialN': 78, 'loaded': True, 'loadedTime': 8644.5, 'positionName': 'LEFT', 'positionCoords': [245.68, 179.5], 'bid': 1.09}, {'imgObject': {}, 'id': 'sweetpotato', 'src': '/static/foodstim60/sweetpotato.jpg', 'key': 'i', 'origWidth': 410, 'origHeight': 410, 'width': 410, 'height': 410, 'widthPercent': 0.45, 'rescaleHeight': False, 'trialN': 78, 'loaded': True, 'loadedTime': 8521, 'positionName': 'RIGHT', 'positionCoords': [710.32, 179], 'bid': 0.84}]",152835.60000002384,1669836483454,luckycharms,sweetpotato,1.09,0.84,-0.2500000000000001,luckycharms,763.3999999761581,766,765.8999999761581,True,u,154107.40000003576,1271.800000011921,1669836484726,1272,HRV,HRV_0243,2022-11-30 19:31:18
79,"[{'imgObject': {}, 'id': 'Tribe humus pita', 'src': '/static/foodstim60/Tribe humus pita.jpg', 'key': 'u', 'origWidth': 411, 'origHeight': 411, 'width': 411, 'height': 411, 'widthPercent': 0.45, 'rescaleHeight': False, 'trialN': 79, 'loaded': True, 'loadedTime': 8316.600000023842, 'positionName': 'LEFT', 'positionCoords': [244.68, 178.5], 'bid': 6.18}, {'imgObject': {}, 'id': 'turkeysandwich', 'src': '/static/foodstim60/turkeysandwich.jpg', 'key': 'i', 'origWidth': 409, 'origHeight': 409, 'width': 409, 'height': 409, 'widthPercent': 0.45, 'rescaleHeight': False, 'trialN': 79, 'loaded': True, 'loadedTime': 7148.600000023842, 'positionName': 'RIGHT', 'positionCoords': [710.32, 179.5], 'bid': 7.51}]",154107.60000002384,1669836484726,Tribe humus pita,turkeysandwich,6.18,7.51,1.33,turkeysandwich,998,1000,999.6999999880791,True,i,155611.70000004768,1504.1000000238419,1669836486231,1505,HRV,HRV_0243,2022-11-30 19:31:18
80,"[{'imgObject': {}, 'id': 'edamame', 'src': '/static/foodstim60/edamame.jpg', 'key': 'u', 'origWidth': 409, 'origHeight': 410, 'width': 409, 'height': 410, 'widthPercent': 0.45, 'rescaleHeight': False, 'trialN': 80, 'loaded': True, 'loadedTime': 8241.5, 'positionName': 'LEFT', 'positionCoords': [246.68, 179], 'bid': 0.18}, {'imgObject': {}, 'id': 'Grapes', 'src': '/static/foodstim60/Grapes.jpg', 'key': 'i', 'origWidth': 411, 'origHeight': 411, 'width': 411, 'height': 411, 'widthPercent': 0.45, 'rescaleHeight': False, 'trialN': 80, 'loaded': True, 'loadedTime': 8305.800000011921, 'positionName': 'RIGHT', 'positionCoords': [710.32, 178.5], 'bid': 0.19}]",155612.0,1669836486231,edamame,Grapes,0.18,0.19,0.010000000000000009,Grapes,978.2000000476837,979,979.6000000238419,True,i,157099.90000003576,1487.9000000357628,1669836487719,1488,HRV,HRV_0243,2022-11-30 19:31:18
81,"[{'imgObject': {}, 'id': 'steak', 'src': '/static/foodstim60/steak.jpg', 'key': 'u', 'origWidth': 410, 'origHeight': 410, 'width': 410, 'height': 410, 'widthPercent': 0.45, 'rescaleHeight': False, 'trialN': 81, 'loaded': True, 'loadedTime': 7079.900000035763, 'positionName': 'LEFT', 'positionCoords': [245.68, 179], 'bid': 9.86}, {'imgObject': {}, 'id': 'chicken nuggets2', 'src': '/static/foodstim60/chicken nuggets2.jpg', 'key': 'i', 'origWidth': 410, 'origHeight': 409, 'width': 410, 'height': 409, 'widthPercent': 0.45, 'rescaleHeight': False, 'trialN': 81, 'loaded': True, 'loadedTime': 8419.800000011921, 'positionName': 'RIGHT', 'positionCoords': [710.32, 179.5], 'bid': 9.52}]",157100.20000004768,1669836487719,steak,chicken nuggets2,9.86,9.52,-0.33999999999999986,chicken nuggets2,1794,1795,1795.2999999523163,True,i,159403.70000004768,2303.5,1669836490023,2304,HRV,HRV_0243,2022-11-30 19:31:18
82,"[{'imgObject': {}, 'id': 'popsicles', 'src': '/static/foodstim60/popsicles.jpg', 'key': 'u', 'origWidth': 410, 'origHeight': 410, 'width': 410, 'height': 410, 'widthPercent': 0.45, 'rescaleHeight': False, 'trialN': 82, 'loaded': True, 'loadedTime': 8497.400000035763, 'positionName': 'LEFT', 'positionCoords': [245.68, 179], 'bid': 9.93}, {'imgObject': {}, 'id': 'chickenfingers', 'src': '/static/foodstim60/chickenfingers.jpg', 'key': 'i', 'origWidth': 410, 'origHeight': 410, 'width': 410, 'height': 410, 'widthPercent': 0.45, 'rescaleHeight': False, 'trialN': 82, 'loaded': True, 'loadedTime': 7969.5, 'positionName': 'RIGHT', 'positionCoords': [710.32, 179], 'bid': 10}]",159403.90000003576,1669836490023,popsicles,chickenfingers,9.93,10.0,0.07000000000000028,popsicles,1612.199999988079,1615,1615.5,True,u,161523.40000003576,2119.5,1669836492142,2119,HRV,HRV_0243,2022-11-30 19:31:18
83,"[{'imgObject': {}, 'id': 'pear', 'src': '/static/foodstim60/pear.jpg', 'key': 'u', 'origWidth': 411, 'origHeight': 410, 'width': 411, 'height': 410, 'widthPercent': 0.45, 'rescaleHeight': False, 'trialN': 83, 'loaded': True, 'loadedTime': 8697.900000035763, 'positionName': 'LEFT', 'positionCoords': [244.68, 179], 'bid': 8.11}, {'imgObject': {}, 'id': 'corn cob', 'src': '/static/foodstim60/corn cob.jpg', 'key': 'i', 'origWidth': 411, 'origHeight': 411, 'width': 411, 'height': 411, 'widthPercent': 0.45, 'rescaleHeight': False, 'trialN': 83, 'loaded': True, 'loadedTime': 8170.800000011921, 'positionName': 'RIGHT', 'positionCoords': [710.32, 178.5], 'bid': 9.87}]",161523.90000003576,1669836492143,pear,corn cob,8.11,9.87,1.7599999999999998,pear,1944.5,1946,1945.8999999761581,True,u,163971.30000001192,2447.399999976158,1669836494590,2447,HRV,HRV_0243,2022-11-30 19:31:18
84,"[{'imgObject': {}, 'id': 'veggieswithdip', 'src': '/static/foodstim60/veggieswithdip.jpg', 'key': 'u', 'origWidth': 409, 'origHeight': 409, 'width': 409, 'height': 409, 'widthPercent': 0.45, 'rescaleHeight': False, 'trialN': 84, 'loaded': True, 'loadedTime': 8682.400000035763, 'positionName': 'LEFT', 'positionCoords': [246.68, 179.5], 'bid': 4.98}, {'imgObject': {}, 'id': 'froot loops w milk', 'src': '/static/foodstim60/froot loops w milk.jpg', 'key': 'i', 'origWidth': 410, 'origHeight': 410, 'width': 410, 'height': 410, 'widthPercent': 0.45, 'rescaleHeight': False, 'trialN': 84, 'loaded': True, 'loadedTime': 7634.700000047684, 'positionName': 'RIGHT', 'positionCoords': [710.32, 179], 'bid': 1.8}]",163971.5,1669836494590,veggieswithdip,froot loops w milk,4.98,1.8,-3.1800000000000006,froot loops w milk,1136.800000011921,1141,1140.7000000476837,True,i,165619.30000001192,1647.800000011921,1669836496238,1648,HRV,HRV_0243,2022-11-30 19:31:18
85,"[{'imgObject': {}, 'id': 'tacos', 'src': '/static/foodstim60/tacos.jpg', 'key': 'u', 'origWidth': 411, 'origHeight': 411, 'width': 411, 'height': 411, 'widthPercent': 0.45, 'rescaleHeight': False, 'trialN': 85, 'loaded': True, 'loadedTime': 7302.400000035763, 'positionName': 'LEFT', 'positionCoords': [244.68, 178.5], 'bid': 9.84}, {'imgObject': {}, 'id': 'mashed potato', 'src': '/static/foodstim60/mashed potato.jpg', 'key': 'i', 'origWidth': 409, 'origHeight': 409, 'width': 409, 'height': 409, 'widthPercent': 0.45, 'rescaleHeight': False, 'trialN': 85, 'loaded': True, 'loadedTime': 7995.400000035763, 'positionName': 'RIGHT', 'positionCoords': [710.32, 179.5], 'bid': 5.11}]",165619.60000002384,1669836496238,tacos,mashed potato,9.84,5.11,-4.7299999999999995,tacos,904.3999999761581,908,907.1999999880791,True,u,167027.40000003576,1407.800000011921,1669836497646,1408,HRV,HRV_0243,2022-11-30 19:31:18
86,"[{'imgObject': {}, 'id': 'cocktailshrimp', 'src': '/static/foodstim60/cocktailshrimp.jpg', 'key': 'u', 'origWidth': 410, 'origHeight': 410, 'width': 410, 'height': 410, 'widthPercent': 0.45, 'rescaleHeight': False, 'trialN': 86, 'loaded': True, 'loadedTime': 7184.100000023842, 'positionName': 'LEFT', 'positionCoords': [245.68, 179], 'bid': 0.09}, {'imgObject': {}, 'id': 'rigatoni', 'src': '/static/foodstim60/rigatoni.jpg', 'key': 'i', 'origWidth': 411, 'origHeight': 411, 'width': 411, 'height': 411, 'widthPercent': 0.45, 'rescaleHeight': False, 'trialN': 86, 'loaded': True, 'loadedTime': 7805.800000011921, 'positionName': 'RIGHT', 'positionCoords': [710.32, 178.5], 'bid': 1.1}]",167027.70000004768,1669836497647,cocktailshrimp,rigatoni,0.09,1.1,1.01,rigatoni,2001.8999999761581,2003,2003.5999999642372,True,i,169539.40000003576,2511.699999988079,1669836500158,2511,HRV,HRV_0243,2022-11-30 19:31:18
87,"[{'imgObject': {}, 'id': 'sushi w_condiments', 'src': '/static/foodstim60/sushi w_condiments.jpg', 'key': 'u', 'origWidth': 410, 'origHeight': 410, 'width': 410, 'height': 410, 'widthPercent': 0.45, 'rescaleHeight': False, 'trialN': 87, 'loaded': True, 'loadedTime': 7612.100000023842, 'positionName': 'LEFT', 'positionCoords': [245.68, 179], 'bid': 0.12}, {'imgObject': {}, 'id': 'seaweed', 'src': '/static/foodstim60/seaweed.jpg', 'key': 'i', 'origWidth': 410, 'origHeight': 410, 'width': 410, 'height': 410, 'widthPercent': 0.45, 'rescaleHeight': False, 'trialN': 87, 'loaded': True, 'loadedTime': 7525.200000047684, 'positionName': 'RIGHT', 'positionCoords': [710.32, 179], 'bid': 0.15}]",169539.60000002384,1669836500158,sushi w_condiments,seaweed,0.12,0.15,0.03,sushi w_condiments,1871.300000011921,1873,1872.6000000238419,True,u,171915.30000001192,2375.699999988079,1669836502534,2376,HRV,HRV_0243,2022-11-30 19:31:18
88,"[{'imgObject': {}, 'id': 'granola w milk', 'src': '/static/foodstim60/granola w milk.jpg', 'key': 'u', 'origWidth': 410, 'origHeight': 410, 'width': 410, 'height': 410, 'widthPercent': 0.45, 'rescaleHeight': False, 'trialN': 88, 'loaded': True, 'loadedTime': 8453.400000035763, 'positionName': 'LEFT', 'positionCoords': [245.68, 179], 'bid': 0.08}, {'imgObject': {}, 'id': 'mango', 'src': '/static/foodstim60/mango.jpg', 'key': 'i', 'origWidth': 411, 'origHeight': 411, 'width': 411, 'height': 411, 'widthPercent': 0.45, 'rescaleHeight': False, 'trialN': 88, 'loaded': True, 'loadedTime': 7821.100000023842, 'positionName': 'RIGHT', 'positionCoords': [710.32, 178.5], 'bid': 0.06}]",171915.60000002384,1669836502534,granola w milk,mango,0.08,0.06,-0.020000000000000004,granola w milk,1240.1000000238419,1242,1241.3999999761581,True,u,173659.5,1743.8999999761581,1669836504278,1744,HRV,HRV_0243,2022-11-30 19:31:18
89,"[{'imgObject': {}, 'id': 'baked potato', 'src': '/static/foodstim60/baked potato.jpg', 'key': 'u', 'origWidth': 409, 'origHeight': 410, 'width': 409, 'height': 410, 'widthPercent': 0.45, 'rescaleHeight': False, 'trialN': 89, 'loaded': True, 'loadedTime': 7190.200000047684, 'positionName': 'LEFT', 'positionCoords': [246.68, 179], 'bid': 5.08}, {'imgObject': {}, 'id': 'olives', 'src': '/static/foodstim60/olives.jpg', 'key': 'i', 'origWidth': 410, 'origHeight': 410, 'width': 410, 'height': 410, 'widthPercent': 0.45, 'rescaleHeight': False, 'trialN': 89, 'loaded': True, 'loadedTime': 8704.900000035763, 'positionName': 'RIGHT', 'positionCoords': [710.32, 179], 'bid': 0.1}]",173659.70000004768,1669836504279,baked potato,olives,5.08,0.1,-4.98,baked potato,1087.0999999642372,1088,1088.2999999523163,True,u,175251.30000001192,1591.5999999642372,1669836505870,1591,HRV,HRV_0243,2022-11-30 19:31:18
90,"[{'imgObject': {}, 'id': 'eggsalad', 'src': '/static/foodstim60/eggsalad.jpg', 'key': 'u', 'origWidth': 410, 'origHeight': 409, 'width': 410, 'height': 409, 'widthPercent': 0.45, 'rescaleHeight': False, 'trialN': 90, 'loaded': True, 'loadedTime': 7272.800000011921, 'positionName': 'LEFT', 'positionCoords': [245.68, 179.5], 'bid': 0.18}, {'imgObject': {}, 'id': 'granola w milk', 'src': '/static/foodstim60/granola w milk.jpg', 'key': 'i', 'origWidth': 410, 'origHeight': 410, 'width': 410, 'height': 410, 'widthPercent': 0.45, 'rescaleHeight': False, 'trialN': 90, 'loaded': True, 'loadedTime': 8496.300000011921, 'positionName': 'RIGHT', 'positionCoords': [710.32, 179], 'bid': 0.08}]",182684.30000001192,1669836513303,eggsalad,granola w milk,0.18,0.08,-0.09999999999999999,eggsalad,1786,1788,1787.5,True,u,184979.40000003576,2295.100000023842,1669836515598,2295,HRV,HRV_0243,2022-11-30 19:31:18
91,"[{'imgObject': {}, 'id': 'bagel plain', 'src': '/static/foodstim60/bagel plain.jpg', 'key': 'u', 'origWidth': 410, 'origHeight': 410, 'width': 410, 'height': 410, 'widthPercent': 0.45, 'rescaleHeight': False, 'trialN': 91, 'loaded': True, 'loadedTime': 7869.300000011921, 'positionName': 'LEFT', 'positionCoords': [245.68, 179], 'bid': 5.08}, {'imgObject': {}, 'id': 'cocktailshrimp', 'src': '/static/foodstim60/cocktailshrimp.jpg', 'key': 'i', 'origWidth': 410, 'origHeight': 410, 'width': 410, 'height': 410, 'widthPercent': 0.45, 'rescaleHeight': False, 'trialN': 91, 'loaded': True, 'loadedTime': 7175.800000011921, 'positionName': 'RIGHT', 'positionCoords': [710.32, 179], 'bid': 0.09}]",184979.70000004768,1669836515599,bagel plain,cocktailshrimp,5.08,0.09,-4.99,bagel plain,1243.5999999642372,1244,1244.7999999523163,True,u,186731.40000003576,1751.699999988079,1669836517350,1751,HRV,HRV_0243,2022-11-30 19:31:18
92,"[{'imgObject': {}, 'id': 'blueberries', 'src': '/static/foodstim60/blueberries.jpg', 'key': 'u', 'origWidth': 411, 'origHeight': 411, 'width': 411, 'height': 411, 'widthPercent': 0.45, 'rescaleHeight': False, 'trialN': 92, 'loaded': True, 'loadedTime': 8368.700000047684, 'positionName': 'LEFT', 'positionCoords': [244.68, 178.5], 'bid': 0.09}, {'imgObject': {}, 'id': 'hashbrowns', 'src': '/static/foodstim60/hashbrowns.jpg', 'key': 'i', 'origWidth': 411, 'origHeight': 410, 'width': 411, 'height': 410, 'widthPercent': 0.45, 'rescaleHeight': False, 'trialN': 92, 'loaded': True, 'loadedTime': 8058.200000047684, 'positionName': 'RIGHT', 'positionCoords': [710.32, 179], 'bid': 0.1}]",186731.70000004768,1669836517350,blueberries,hashbrowns,0.09,0.1,0.010000000000000009,blueberries,1486.699999988079,1489,1488.5999999642372,True,u,188723.40000003576,1991.699999988079,1669836519342,1992,HRV,HRV_0243,2022-11-30 19:31:18
93,"[{'imgObject': {}, 'id': 'bagel and cc', 'src': '/static/foodstim60/bagel and cc.jpg', 'key': 'u', 'origWidth': 410, 'origHeight': 410, 'width': 410, 'height': 410, 'widthPercent': 0.45, 'rescaleHeight': False, 'trialN': 93, 'loaded': True, 'loadedTime': 7308.700000047684, 'positionName': 'LEFT', 'positionCoords': [245.68, 179], 'bid': 6.8500000000000005}, {'imgObject': {}, 'id': 'eggsalad', 'src': '/static/foodstim60/eggsalad.jpg', 'key': 'i', 'origWidth': 410, 'origHeight': 409, 'width': 410, 'height': 409, 'widthPercent': 0.45, 'rescaleHeight': False, 'trialN': 93, 'loaded': True, 'loadedTime': 7274, 'positionName': 'RIGHT', 'positionCoords': [710.32, 179.5], 'bid': 0.18}]",188723.60000002384,1669836519342,bagel and cc,eggsalad,6.8500000000000005,0.18,-6.670000000000001,bagel and cc,1908.1000000238419,1910,1909.1000000238419,True,u,191143.30000001192,2419.699999988079,1669836521762,2420,HRV,HRV_0243,2022-11-30 19:31:18
94,"[{'imgObject': {}, 'id': 'kiwi', 'src': '/static/foodstim60/kiwi.jpg', 'key': 'u', 'origWidth': 410, 'origHeight': 410, 'width': 410, 'height': 410, 'widthPercent': 0.45, 'rescaleHeight': False, 'trialN': 94, 'loaded': True, 'loadedTime': 8441.100000023842, 'positionName': 'LEFT', 'positionCoords': [245.68, 179], 'bid': 2.52}, {'imgObject': {}, 'id': 'shreddedwheatwithmilk', 'src': '/static/foodstim60/shreddedwheatwithmilk.jpg', 'key': 'i', 'origWidth': 410, 'origHeight': 410, 'width': 410, 'height': 410, 'widthPercent': 0.45, 'rescaleHeight': False, 'trialN': 94, 'loaded': True, 'loadedTime': 7857.5, 'positionName': 'RIGHT', 'positionCoords': [710.32, 179], 'bid': 1.98}]",191143.5,1669836521762,kiwi,shreddedwheatwithmilk,2.52,1.98,-0.54,shreddedwheatwithmilk,1255.800000011921,1328,1327.5,True,i,192971.40000003576,1827.9000000357628,1669836523590,1828,HRV,HRV_0243,2022-11-30 19:31:18
95,"[{'imgObject': {}, 'id': 'rigatoni', 'src': '/static/foodstim60/rigatoni.jpg', 'key': 'u', 'origWidth': 411, 'origHeight': 411, 'width': 411, 'height': 411, 'widthPercent': 0.45, 'rescaleHeight': False, 'trialN': 95, 'loaded': True, 'loadedTime': 7783.600000023842, 'positionName': 'LEFT', 'positionCoords': [244.68, 178.5], 'bid': 1.1}, {'imgObject': {}, 'id': 'eggs', 'src': '/static/foodstim60/eggs.jpg', 'key': 'i', 'origWidth': 409, 'origHeight': 409, 'width': 409, 'height': 409, 'widthPercent': 0.45, 'rescaleHeight': False, 'trialN': 95, 'loaded': True, 'loadedTime': 8246.700000047684, 'positionName': 'RIGHT', 'positionCoords': [710.32, 179.5], 'bid': 9.52}]",192971.70000004768,1669836523591,rigatoni,eggs,1.1,9.52,8.42,eggs,851.6999999880791,853,853.0,True,i,194331.30000001192,1359.5999999642372,1669836524950,1359,HRV,HRV_0243,2022-11-30 19:31:18
96,"[{'imgObject': {}, 'id': 'pear', 'src': '/static/foodstim60/pear.jpg', 'key': 'u', 'origWidth': 411, 'origHeight': 410, 'width': 411, 'height': 410, 'widthPercent': 0.45, 'rescaleHeight': False, 'trialN': 96, 'loaded': True, 'loadedTime': 8699.400000035763, 'positionName': 'LEFT', 'positionCoords': [244.68, 179], 'bid': 8.11}, {'imgObject': {}, 'id': 'cherry tomato', 'src': '/static/foodstim60/cherry tomato.jpg', 'key': 'i', 'origWidth': 410, 'origHeight': 410, 'width': 410, 'height': 410, 'widthPercent': 0.45, 'rescaleHeight': False, 'trialN': 96, 'loaded': True, 'loadedTime': 8509.800000011921, 'positionName': 'RIGHT', 'positionCoords': [710.32, 179], 'bid': 0.21}]",194331.5,1669836524950,pear,cherry tomato,8.11,0.21,-7.8999999999999995,pear,868.6000000238419,870,869.7000000476837,True,u,195707.30000001192,1375.800000011921,1669836526326,1376,HRV,HRV_0243,2022-11-30 19:31:18
97,"[{'imgObject': {}, 'id': 'popsicles', 'src': '/static/foodstim60/popsicles.jpg', 'key': 'u', 'origWidth': 410, 'origHeight': 410, 'width': 410, 'height': 410, 'widthPercent': 0.45, 'rescaleHeight': False, 'trialN': 97, 'loaded': True, 'loadedTime': 8502.800000011921, 'positionName': 'LEFT', 'positionCoords': [245.68, 179], 'bid': 9.93}, {'imgObject': {}, 'id': 'corn cob', 'src': '/static/foodstim60/corn cob.jpg', 'key': 'i', 'origWidth': 411, 'origHeight': 411, 'width': 411, 'height': 411, 'widthPercent': 0.45, 'rescaleHeight': False, 'trialN': 97, 'loaded': True, 'loadedTime': 8126.400000035763, 'positionName': 'RIGHT', 'positionCoords': [710.32, 178.5], 'bid': 9.87}]",195707.5,1669836526326,popsicles,corn cob,9.93,9.87,-0.0600000000000005,popsicles,1612.2000000476837,1618,1617.9000000357628,True,u,197827.30000001192,2119.800000011921,1669836528446,2120,HRV,HRV_0243,2022-11-30 19:31:18
98,"[{'imgObject': {}, 'id': 'olives', 'src': '/static/foodstim60/olives.jpg', 'key': 'u', 'origWidth': 410, 'origHeight': 410, 'width': 410, 'height': 410, 'widthPercent': 0.45, 'rescaleHeight': False, 'trialN': 98, 'loaded': True, 'loadedTime': 8704.800000011921, 'positionName': 'LEFT', 'positionCoords': [245.68, 179], 'bid': 0.1}, {'imgObject': {}, 'id': 'blackbeanswithrice', 'src': '/static/foodstim60/blackbeanswithrice.jpg', 'key': 'i', 'origWidth': 410, 'origHeight': 410, 'width': 410, 'height': 410, 'widthPercent': 0.45, 'rescaleHeight': False, 'trialN': 98, 'loaded': True, 'loadedTime': 8184.900000035763, 'positionName': 'RIGHT', 'positionCoords': [710.32, 179], 'bid': 0.25}]",197827.5,1669836528446,olives,blackbeanswithrice,0.1,0.25,0.15,blackbeanswithrice,1119,1121,1120.2000000476837,True,i,199451.40000003576,1623.9000000357628,1669836530070,1624,HRV,HRV_0243,2022-11-30 19:31:18
99,"[{'imgObject': {}, 'id': 'salmon', 'src': '/static/foodstim60/salmon.jpg', 'key': 'u', 'origWidth': 410, 'origHeight': 409, 'width': 410, 'height': 409, 'widthPercent': 0.45, 'rescaleHeight': False, 'trialN': 99, 'loaded': True, 'loadedTime': 8645.800000011921, 'positionName': 'LEFT', 'positionCoords': [245.68, 179.5], 'bid': 9.77}, {'imgObject': {}, 'id': 'fried eggs', 'src': '/static/foodstim60/fried eggs.jpg', 'key': 'i', 'origWidth': 410, 'origHeight': 410, 'width': 410, 'height': 410, 'widthPercent': 0.45, 'rescaleHeight': False, 'trialN': 99, 'loaded': True, 'loadedTime': 8309, 'positionName': 'RIGHT', 'positionCoords': [710.32, 179], 'bid': 5.08}]",199451.60000002384,1669836530070,salmon,fried eggs,9.77,5.08,-4.6899999999999995,salmon,847.6999999880791,850,849.5,True,u,200803.30000001192,1351.699999988079,1669836531422,1352,HRV,HRV_0243,2022-11-30 19:31:18
100,"[{'imgObject': {}, 'id': 'olives', 'src': '/static/foodstim60/olives.jpg', 'key': 'u', 'origWidth': 410, 'origHeight': 410, 'width': 410, 'height': 410, 'widthPercent': 0.45, 'rescaleHeight': False, 'trialN': 100, 'loaded': True, 'loadedTime': 8703.600000023842, 'positionName': 'LEFT', 'positionCoords': [245.68, 179], 'bid': 0.1}, {'imgObject': {}, 'id': 'hashbrowns', 'src': '/static/foodstim60/hashbrowns.jpg', 'key': 'i', 'origWidth': 411, 'origHeight': 410, 'width': 411, 'height': 410, 'widthPercent': 0.45, 'rescaleHeight': False, 'trialN': 100, 'loaded': True, 'loadedTime': 8107.600000023842, 'positionName': 'RIGHT', 'positionCoords': [710.32, 179], 'bid': 0.1}]",200803.5,1669836531422,olives,hashbrowns,0.1,0.1,0.0,olives,1875.300000011921,1877,1876.800000011921,True,u,203187.5,2384.0,1669836533806,2384,HRV,HRV_0243,2022-11-30 19:31:18
101,"[{'imgObject': {}, 'id': 'orange slices', 'src': '/static/foodstim60/orange slices.jpg', 'key': 'u', 'origWidth': 409, 'origHeight': 410, 'width': 409, 'height': 410, 'widthPercent': 0.45, 'rescaleHeight': False, 'trialN': 101, 'loaded': True, 'loadedTime': 8371.900000035763, 'positionName': 'LEFT', 'positionCoords': [246.68, 179], 'bid': 0.05}, {'imgObject': {}, 'id': 'olives', 'src': '/static/foodstim60/olives.jpg', 'key': 'i', 'origWidth': 410, 'origHeight': 410, 'width': 410, 'height': 410, 'widthPercent': 0.45, 'rescaleHeight': False, 'trialN': 101, 'loaded': True, 'loadedTime': 8704, 'positionName': 'RIGHT', 'positionCoords': [710.32, 179], 'bid': 0.1}]",203187.80000001192,1669836533807,orange slices,olives,0.05,0.1,0.05,olives,2192.199999988079,2194,2194.0,True,i,205883.90000003576,2696.100000023842,1669836536503,2696,HRV,HRV_0243,2022-11-30 19:31:18
102,"[{'imgObject': {}, 'id': 'banana', 'src': '/static/foodstim60/banana.jpg', 'key': 'u', 'origWidth': 410, 'origHeight': 410, 'width': 410, 'height': 410, 'widthPercent': 0.45, 'rescaleHeight': False, 'trialN': 102, 'loaded': True, 'loadedTime': 8662.5, 'positionName': 'LEFT', 'positionCoords': [245.68, 179], 'bid': 4.95}, {'imgObject': {}, 'id': 'orange slices', 'src': '/static/foodstim60/orange slices.jpg', 'key': 'i', 'origWidth': 409, 'origHeight': 410, 'width': 409, 'height': 410, 'widthPercent': 0.45, 'rescaleHeight': False, 'trialN': 102, 'loaded': True, 'loadedTime': 8373.600000023842, 'positionName': 'RIGHT', 'positionCoords': [710.32, 179], 'bid': 0.05}]",205884.40000003576,1669836536503,banana,orange slices,4.95,0.05,-4.9,banana,1004.5,1006,1005.8999999761581,True,u,207395.30000001192,1510.8999999761581,1669836538014,1511,HRV,HRV_0243,2022-11-30 19:31:18
103,"[{'imgObject': {}, 'id': 'fried eggs', 'src': '/static/foodstim60/fried eggs.jpg', 'key': 'u', 'origWidth': 410, 'origHeight': 410, 'width': 410, 'height': 410, 'widthPercent': 0.45, 'rescaleHeight': False, 'trialN': 103, 'loaded': True, 'loadedTime': 8310.700000047684, 'positionName': 'LEFT', 'positionCoords': [245.68, 179], 'bid': 5.08}, {'imgObject': {}, 'id': 'baked potato', 'src': '/static/foodstim60/baked potato.jpg', 'key': 'i', 'origWidth': 409, 'origHeight': 410, 'width': 409, 'height': 410, 'widthPercent': 0.45, 'rescaleHeight': False, 'trialN': 103, 'loaded': True, 'loadedTime': 7190.400000035763, 'positionName': 'RIGHT', 'positionCoords': [710.32, 179], 'bid': 5.08}]",207395.60000002384,1669836538014,fried eggs,baked potato,5.08,5.08,0.0,fried eggs,1022.8999999761581,1025,1024.699999988079,True,u,208923.30000001192,1527.699999988079,1669836539542,1528,HRV,HRV_0243,2022-11-30 19:31:18
104,"[{'imgObject': {}, 'id': 'eggsalad', 'src': '/static/foodstim60/eggsalad.jpg', 'key': 'u', 'origWidth': 410, 'origHeight': 409, 'width': 410, 'height': 409, 'widthPercent': 0.45, 'rescaleHeight': False, 'trialN': 104, 'loaded': True, 'loadedTime': 7268.800000011921, 'positionName': 'LEFT', 'positionCoords': [245.68, 179.5], 'bid': 0.18}, {'imgObject': {}, 'id': 'Grapes', 'src': '/static/foodstim60/Grapes.jpg', 'key': 'i', 'origWidth': 411, 'origHeight': 411, 'width': 411, 'height': 411, 'widthPercent': 0.45, 'rescaleHeight': False, 'trialN': 104, 'loaded': True, 'loadedTime': 8302.5, 'positionName': 'RIGHT', 'positionCoords': [710.32, 178.5], 'bid': 0.19}]",208923.60000002384,1669836539542,eggsalad,Grapes,0.18,0.19,0.010000000000000009,eggsalad,1496.199999988079,1498,1497.199999988079,True,u,210923.30000001192,1999.699999988079,1669836541542,2000,HRV,HRV_0243,2022-11-30 19:31:18
105,"[{'imgObject': {}, 'id': 'yogurt no spoon', 'src': '/static/foodstim60/yogurt no spoon.jpg', 'key': 'u', 'origWidth': 411, 'origHeight': 410, 'width': 411, 'height': 410, 'widthPercent': 0.45, 'rescaleHeight': False, 'trialN': 105, 'loaded': True, 'loadedTime': 7819.100000023842, 'positionName': 'LEFT', 'positionCoords': [244.68, 179], 'bid': 4.15}, {'imgObject': {}, 'id': 'fruitsalad', 'src': '/static/foodstim60/fruitsalad.jpg', 'key': 'i', 'origWidth': 410, 'origHeight': 410, 'width': 410, 'height': 410, 'widthPercent': 0.45, 'rescaleHeight': False, 'trialN': 105, 'loaded': True, 'loadedTime': 7705.300000011921, 'positionName': 'RIGHT', 'positionCoords': [710.32, 179], 'bid': 3.34}]",210923.60000002384,1669836541542,yogurt no spoon,fruitsalad,4.15,3.34,-0.8100000000000005,fruitsalad,2811,2813,2812.600000023842,True,i,214243.40000003576,3319.800000011921,1669836544862,3320,HRV,HRV_0243,2022-11-30 19:31:18
106,"[{'imgObject': {}, 'id': 'popsicles', 'src': '/static/foodstim60/popsicles.jpg', 'key': 'u', 'origWidth': 410, 'origHeight': 410, 'width': 410, 'height': 410, 'widthPercent': 0.45, 'rescaleHeight': False, 'trialN': 106, 'loaded': True, 'loadedTime': 8503.100000023842, 'positionName': 'LEFT', 'positionCoords': [245.68, 179], 'bid': 9.93}, {'imgObject': {}, 'id': 'cantaloupe', 'src': '/static/foodstim60/cantaloupe.jpg', 'key': 'i', 'origWidth': 409, 'origHeight': 409, 'width': 409, 'height': 409, 'widthPercent': 0.45, 'rescaleHeight': False, 'trialN': 106, 'loaded': True, 'loadedTime': 8689.900000035763, 'positionName': 'RIGHT', 'positionCoords': [710.32, 179.5], 'bid': 8.950000000000001}]",214243.5,1669836544862,popsicles,cantaloupe,9.93,8.950000000000001,-0.9799999999999986,popsicles,1087.7000000476837,1089,1088.9000000357628,True,u,215835.30000001192,1591.800000011921,1669836546454,1592,HRV,HRV_0243,2022-11-30 19:31:18
107,"[{'imgObject': {}, 'id': 'cherries', 'src': '/static/foodstim60/cherries.jpg', 'key': 'u', 'origWidth': 410, 'origHeight': 411, 'width': 410, 'height': 411, 'widthPercent': 0.45, 'rescaleHeight': False, 'trialN': 107, 'loaded': True, 'loadedTime': 7673.300000011921, 'positionName': 'LEFT', 'positionCoords': [245.68, 178.5], 'bid': 1.17}, {'imgObject': {}, 'id': 'cherry tomato', 'src': '/static/foodstim60/cherry tomato.jpg', 'key': 'i', 'origWidth': 410, 'origHeight': 410, 'width': 410, 'height': 410, 'widthPercent': 0.45, 'rescaleHeight': False, 'trialN': 107, 'loaded': True, 'loadedTime': 8518.600000023842, 'positionName': 'RIGHT', 'positionCoords': [710.32, 179], 'bid': 0.21}]",215835.70000004768,1669836546454,cherries,cherry tomato,1.17,0.21,-0.96,cherries,1402.2999999523163,1404,1403.7999999523163,True,u,217747.40000003576,1911.699999988079,1669836548366,1912,HRV,HRV_0243,2022-11-30 19:31:18
108,"[{'imgObject': {}, 'id': 'avocado', 'src': '/static/foodstim60/avocado.jpg', 'key': 'u', 'origWidth': 409, 'origHeight': 409, 'width': 409, 'height': 409, 'widthPercent': 0.45, 'rescaleHeight': False, 'trialN': 108, 'loaded': True, 'loadedTime': 8693.800000011921, 'positionName': 'LEFT', 'positionCoords': [246.68, 179.5], 'bid': 3.59}, {'imgObject': {}, 'id': 'bagel plain', 'src': '/static/foodstim60/bagel plain.jpg', 'key': 'i', 'origWidth': 410, 'origHeight': 410, 'width': 410, 'height': 410, 'widthPercent': 0.45, 'rescaleHeight': False, 'trialN': 108, 'loaded': True, 'loadedTime': 7872.400000035763, 'positionName': 'RIGHT', 'positionCoords': [710.32, 179], 'bid': 5.08}]",217747.80000001192,1669836548367,avocado,bagel plain,3.59,5.08,1.4900000000000002,avocado,1283.199999988079,1284,1284.699999988079,True,u,219539.40000003576,1791.6000000238419,1669836550158,1791,HRV,HRV_0243,2022-11-30 19:31:18
