success,trial_type,trial_index,time_elapsed,internal_node_id,Block,TrialNumber,TrialTime,trialTimeDiff,FPS_avg,FPS_med,FPS_mode,TrialDur,winResizeTime,rt,block,button_pressed,MotCoh,MotDir,ColCoh,Color,ChoiceKey,Choice,Accuracy,RT,nFrames,FPS,PPD,missTrial,missTrialMsg,onsetDelay,fullScreenExitTime,canvCenter,TrialType,Score,BlockTrial,stimulus,button_labels,exp,subjectId,date
True,fullscreen,0,1804,0.0-0.0,0.0,1.0,,,,,,,,,,,,,,,,,,,,,,,,,,,,,,,,HRV,HRV_0011,2022-11-30 17:52:12
,wl-check-fps,1,6801,0.0-1.0,0.0,2.0,"[2500.2, 2506.7, 2512.3, 2525.4, 2543.4, 2559.7, 2576.6, 2594.7, 2610.4, 2626.9, 2643.3, 2660.6, 2674.9, 2691.8, 2707.7, 2724.4, 2741.3, 2757.7, 2774.7, 2791.1, 2808.3, 2824.7, 2841.5, 2858.2, 2874.9, 2894.9, 2907.3, 2924, 2943, 2957.2, 2974.1, 2991.2, 3007.4, 3024.6, 3041, 3057.5, 3074.1, 3091, 3107.6, 3124.2, 3141.1, 3157.8, 3174.4, 3191.2, 3207.6, 3228.7, 3241.3, 3257.7, 3274.2, 3290.9, 3307.6, 3324, 3340.9, 3357.9, 3375.2, 3391, 3407.8, 3424.2, 3441.5, 3462, 3473.9, 3490.5, 3507.4, 3524, 3540.7, 3557.3, 3574, 3590.9, 3607.5, 3624.2, 3641.1, 3657.4, 3674.2, 3690.8, 3707.3, 3724.1, 3740.6, 3757.8, 3775.6, 3794.9, 3806.7, 3823, 3839.8, 3857, 3874.8, 3890.5, 3907.2, 3924.1, 3946.3, 3956.7, 3978.2, 3993.7, 4008.1, 4027.2, 4044.4, 4056.7, 4073, 4090.1, 4106.6, 4123.5, 4140.2, 4156.6, 4173.9, 4190.1, 4206.9, 4228.7, 4240.1, 4256.7, 4273.5, 4290, 4307, 4323.7, 4340, 4356.6, 4373.8, 4390.3, 4406.6, 4423.9, 4439.9, 4457, 4474, 4489.9, 4506.6, 4523.5, 4539.8, 4556.5, 4573.4, 4589.8, 4606.5, 4623.8, 4640.5, 4659.7, 4673.4, 4689.7, 4706.3, 4723.2, 4739.8, 4757, 4773.5, 4790, 4806.4, 4823.1, 4839.6, 4856.2, 4873, 4889.6, 4906.2, 4923.2, 4946.5, 4959.2, 4972.9, 4988.9, 5005.6, 5022.1, 5039.4, 5056.6, 5073.2, 5089.3, 5106.3, 5123.5, 5139.3, 5155.9, 5173.3, 5189.3, 5206.1, 5223.2, 5239.2, 5255.9, 5273.1, 5289.3, 5305.8, 5322.9, 5339.1, 5355.8, 5372.8, 5389.1, 5405.9, 5423.1, 5439.4, 5456.4, 5472.2, 5489.3, 5505.5, 5522.2, 5539, 5555.6, 5572.9, 5588.8, 5605.9, 5622.2, 5638.8, 5656.1, 5675.4, 5688.7, 5705.4, 5722.1, 5738.8, 5756, 5773, 5789.3, 5805.3, 5822, 5838.6, 5855.3, 5876.5, 5888.6, 5905.3, 5921.9, 5938.9, 5955.3, 5973.3, 5988.6, 6005.1, 6021.8, 6038.4, 6055.1, 6071.6, 6088.4, 6105.3, 6123.3, 6142.4, 6160.1, 6177.4, 6190.8, 6207, 6229.8, 6245.1, 6257.3, 6275.5, 6289.6, 6309.2, 6326, 6344.3, 6357.1, 6373.9, 6392.5, 6409.7, 6427.9, 6444.6, 6457.8, 6474.6, 6489.8, 6505.7, 6523.1, 6539.2, 6554.9, 6572.2, 6588.6, 6605.2, 6623.4, 6639.1, 6655.7, 6673.1, 6688.6, 6705.7, 6723.2, 6738.7, 6755, 6772, 6789.7, 6807, 6823.1, 6837.8, 6853.7, 6870.9, 6887.6, 6904.1, 6920.8, 6937.5, 6953.7, 6970.8, 6987.4, 7004.1, 7020.7, 7037.3, 7054, 7072.1, 7088.9, 7117.8, 7124.8, 7137.2, 7153.6, 7170, 7186.7, 7204.1, 7220.6, 7237.2, 7254.2, 7270.5, 7287.7, 7304.1, 7320.6, 7337.1, 7354.2, 7370.5, 7387.1, 7404.1, 7420.4, 7437.1, 7454]","[12.6, 6.5, 5.6, 13.1, 18, 16.3, 16.9, 18.1, 15.7, 16.5, 16.4, 17.3, 14.3, 16.9, 15.9, 16.7, 16.9, 16.4, 17, 16.4, 17.2, 16.4, 16.8, 16.7, 16.7, 20, 12.4, 16.7, 19, 14.2, 16.9, 17.1, 16.2, 17.2, 16.4, 16.5, 16.6, 16.9, 16.6, 16.6, 16.9, 16.7, 16.6, 16.8, 16.4, 21.1, 12.6, 16.4, 16.5, 16.7, 16.7, 16.4, 16.9, 17, 17.3, 15.8, 16.8, 16.4, 17.3, 20.5, 11.9, 16.6, 16.9, 16.6, 16.7, 16.6, 16.7, 16.9, 16.6, 16.7, 16.9, 16.3, 16.8, 16.6, 16.5, 16.8, 16.5, 17.2, 17.8, 19.3, 11.8, 16.3, 16.8, 17.2, 17.8, 15.7, 16.7, 16.9, 22.2, 10.4, 21.5, 15.5, 14.4, 19.1, 17.2, 12.3, 16.3, 17.1, 16.5, 16.9, 16.7, 16.4, 17.3, 16.2, 16.8, 21.8, 11.4, 16.6, 16.8, 16.5, 17, 16.7, 16.3, 16.6, 17.2, 16.5, 16.3, 17.3, 16, 17.1, 17, 15.9, 16.7, 16.9, 16.3, 16.7, 16.9, 16.4, 16.7, 17.3, 16.7, 19.2, 13.7, 16.3, 16.6, 16.9, 16.6, 17.2, 16.5, 16.5, 16.4, 16.7, 16.5, 16.6, 16.8, 16.6, 16.6, 17, 23.3, 12.7, 13.7, 16, 16.7, 16.5, 17.3, 17.2, 16.6, 16.1, 17, 17.2, 15.8, 16.6, 17.4, 16, 16.8, 17.1, 16, 16.7, 17.2, 16.2, 16.5, 17.1, 16.2, 16.7, 17, 16.3, 16.8, 17.2, 16.3, 17, 15.8, 17.1, 16.2, 16.7, 16.8, 16.6, 17.3, 15.9, 17.1, 16.3, 16.6, 17.3, 19.3, 13.3, 16.7, 16.7, 16.7, 17.2, 17, 16.3, 16, 16.7, 16.6, 16.7, 21.2, 12.1, 16.7, 16.6, 17, 16.4, 18, 15.3, 16.5, 16.7, 16.6, 16.7, 16.5, 16.8, 16.9, 18, 19.1, 17.7, 17.3, 13.4, 16.2, 22.8, 15.3, 12.2, 18.2, 14.1, 19.6, 16.8, 18.3, 12.8, 16.8, 18.6, 17.2, 18.2, 16.7, 13.2, 16.8, 15.2, 15.9, 17.4, 16.1, 15.7, 17.3, 16.4, 16.6, 18.2, 15.7, 16.6, 17.4, 15.5, 17.1, 17.5, 15.5, 16.3, 17, 17.7, 17.3, 16.1, 14.7, 15.9, 17.2, 16.7, 16.5, 16.7, 16.7, 16.2, 17.1, 16.6, 16.7, 16.6, 16.6, 16.7, 18.1, 16.8, 28.9, 7, 12.4, 16.4, 16.4, 16.7, 17.4, 16.5, 16.6, 17, 16.3, 17.2, 16.4, 16.5, 16.5, 17.1, 16.3, 16.6, 17, 16.3, 16.7, 16.9]",60.0,76.0,60.0,4988.2,[],,,,,,,,,,,,,,,,,,,,,,,,,HRV,HRV_0011,2022-11-30 17:52:12
,wl-html-keyboard-response,2,26501,0.0-2.0-0.0,0.0,3.0,,,,,,,,17644.199999809265,0.0,0,,,,,,,,,,,,,,,,,,,,,,HRV,HRV_0011,2022-11-30 17:52:12
,wl-rdm,3,33349,0.0-3.0-0.0,0.0,4.0,,,,,,,[],,,,0.0,0.0,87.9,0.0,u,0.0,True,1179.5,71.0,60.0,40.0,False,,3000.0,[],"[683, 384]",ColorTask_Demo,,,,,HRV,HRV_0011,2022-11-30 17:52:12
,wl-rdm,4,37979,0.0-3.0-1.0,0.0,5.0,,,,,,,[],,,,0.0,0.0,87.9,1.0,i,1.0,True,542.9000000953674,33.0,60.0,40.0,False,,2000.0,[],"[683, 384]",ColorTask_Demo,,,,,HRV,HRV_0011,2022-11-30 17:52:12
,wl-html-keyboard-response,5,42249,0.0-3.0-2.0,0.0,6.0,,,,,,,,,0.0,0,,,,,,,,,,,,,,,,,,,,,,HRV,HRV_0011,2022-11-30 17:52:12
,wl-rdm,6,48632,0.0-3.1-0.1,0.0,4.0,,,,,,,[],,,,0.0,0.0,87.9,0.0,u,0.0,True,768.4000000953674,46.0,60.0,40.0,False,,3000.0,[],"[683, 384]",ColorTask_Demo,,,,,HRV,HRV_0011,2022-11-30 17:52:12
,wl-rdm,7,53378,0.0-3.1-1.1,0.0,5.0,,,,,,,[],,,,0.0,0.0,87.9,1.0,i,1.0,True,646.6000001430511,39.0,60.0,40.0,False,,2000.0,[],"[683, 384]",ColorTask_Demo,,,,,HRV,HRV_0011,2022-11-30 17:52:12
,wl-html-keyboard-response,8,57002,0.0-3.1-2.1,0.0,6.0,,,,,,,,,0.0,0,,,,,,,,,,,,,,,,,,,,,,HRV,HRV_0011,2022-11-30 17:52:12
,wl-rdm,9,63384,0.0-3.2-0.2,0.0,4.0,,,,,,,[],,,,0.0,0.0,87.9,0.0,u,0.0,True,753.7000000476837,46.0,60.0,40.0,False,,3000.0,[],"[683, 384]",ColorTask_Demo,,,,,HRV,HRV_0011,2022-11-30 17:52:12
,wl-rdm,10,67965,0.0-3.2-1.2,0.0,5.0,,,,,,,[],,,,0.0,0.0,87.9,1.0,i,1.0,True,479.40000009536743,29.0,60.0,40.0,False,,2000.0,[],"[683, 384]",ColorTask_Demo,,,,,HRV,HRV_0011,2022-11-30 17:52:12
,wl-html-keyboard-response,11,74450,0.0-3.2-2.2,0.0,6.0,,,,,,,,4467.400000095367,0.0,1,,,,,,,,,,,,,,,,,,,,,,HRV,HRV_0011,2022-11-30 17:52:12
,wl-html-keyboard-response,12,82326,0.0-4.0-0.0,0.0,7.0,,,,,,,,5865.200000047684,0.0,0,,,,,,,,,,,,,,,,,,,,,,HRV,HRV_0011,2022-11-30 17:52:12
,wl-html-keyboard-response,13,90140,0.0-5.0-0.0,0.0,8.0,,,,,,,,5790.0,0.0,0,,,,,,,,,,,,,,,,,,,,,,HRV,HRV_0011,2022-11-30 17:52:12
,wl-rdm,14,92105,0.0-6.0-0.0,0.0,9.0,,,,,,,[],,,,,,73.6,1.0,i,1.0,True,603.5999999046326,36.0,60.0,40.0,False,,283.8019066984618,[],"[683, 384]",ColorTask,1.0,1.0,,,HRV,HRV_0011,2022-11-30 17:52:12
,wl-rdm,15,93903,0.0-6.1-0.1,0.0,10.0,,,,,,,[],,,,,,50.0,0.0,i,1.0,False,509.2999999523163,31.0,60.0,40.0,False,,229.11837019188343,[],"[683, 384]",ColorTask,0.0,2.0,,,HRV,HRV_0011,2022-11-30 17:52:12
,wl-rdm,16,96014,0.0-6.2-0.2,0.0,11.0,,,,,,,[],,,,,,50.0,1.0,u,0.0,False,640.8999998569489,39.0,60.0,40.0,False,,354.4456724200886,[],"[683, 384]",ColorTask,-1.0,3.0,,,HRV,HRV_0011,2022-11-30 17:52:12
,wl-rdm,17,98016,0.0-6.3-0.3,0.0,12.0,,,,,,,[],,,,,,53.2,0.0,i,1.0,False,557.9000000953674,34.0,60.0,40.0,False,,361.312898984252,[],"[683, 384]",ColorTask,-2.0,4.0,,,HRV,HRV_0011,2022-11-30 17:52:12
,wl-rdm,18,99986,0.0-6.4-0.4,0.0,13.0,,,,,,,[],,,,,,50.0,1.0,i,1.0,True,585.2999999523163,35.0,60.0,40.0,False,,303.737207123621,[],"[683, 384]",ColorTask,-1.0,5.0,,,HRV,HRV_0011,2022-11-30 17:52:12
,wl-rdm,19,102001,0.0-6.5-0.5,0.0,14.0,,,,,,,[],,,,,,73.6,0.0,u,0.0,True,631.8000001907349,38.0,60.0,40.0,False,,301.5113593775624,[],"[683, 384]",ColorTask,0.0,6.0,,,HRV,HRV_0011,2022-11-30 17:52:12
,wl-rdm,20,104077,0.0-6.6-0.6,0.0,15.0,,,,,,,[],,,,,,62.5,0.0,i,1.0,False,630.5999999046326,38.0,60.0,40.0,False,,366.51873591970457,[],"[683, 384]",ColorTask,-1.0,7.0,,,HRV,HRV_0011,2022-11-30 17:52:12
,wl-rdm,21,106107,0.0-6.7-0.7,0.0,16.0,,,,,,,[],,,,,,73.6,0.0,u,0.0,True,689.2999999523163,42.0,60.0,40.0,False,,252.77449996649926,[],"[683, 384]",ColorTask,0.0,8.0,,,HRV,HRV_0011,2022-11-30 17:52:12
,wl-rdm,22,108105,0.0-6.8-0.8,0.0,17.0,,,,,,,[],,,,,,53.2,0.0,u,0.0,True,609.0999999046326,37.0,60.0,40.0,False,,306.7207533165983,[],"[683, 384]",ColorTask,1.0,9.0,,,HRV,HRV_0011,2022-11-30 17:52:12
,wl-rdm,23,109904,0.0-6.9-0.9,0.0,18.0,,,,,,,[],,,,,,53.2,0.0,i,1.0,False,454.59999990463257,28.0,60.0,40.0,False,,258.44919389903305,[],"[683, 384]",ColorTask,0.0,10.0,,,HRV,HRV_0011,2022-11-30 17:52:12
,wl-rdm,24,111835,0.0-6.10-0.10,0.0,19.0,,,,,,,[],,,,,,62.5,1.0,u,0.0,False,608.7999999523163,37.0,60.0,40.0,False,,240.7720570494389,[],"[683, 384]",ColorTask,-1.0,11.0,,,HRV,HRV_0011,2022-11-30 17:52:12
,wl-rdm,25,113852,0.0-6.11-0.11,0.0,20.0,,,,,,,[],,,,,,87.9,1.0,i,1.0,True,679.0999999046326,41.0,60.0,40.0,False,,276.0083344763884,[],"[683, 384]",ColorTask,0.0,12.0,,,HRV,HRV_0011,2022-11-30 17:52:12
,wl-rdm,26,115964,0.0-6.12-0.12,0.0,21.0,,,,,,,[],,,,,,62.5,1.0,i,1.0,True,778.1999998092651,46.0,60.0,40.0,False,,256.09067482020663,[],"[683, 384]",ColorTask,1.0,13.0,,,HRV,HRV_0011,2022-11-30 17:52:12
,wl-rdm,27,117880,0.0-6.13-0.13,0.0,22.0,,,,,,,[],,,,,,73.6,1.0,i,1.0,True,550.900000333786,34.0,60.0,40.0,False,,281.34760832811776,[],"[683, 384]",ColorTask,2.0,14.0,,,HRV,HRV_0011,2022-11-30 17:52:12
,wl-rdm,28,119744,0.0-6.14-0.14,0.0,23.0,,,,,,,[],,,,,,56.4,0.0,i,1.0,False,504.7999999523163,31.0,60.0,40.0,False,,279.2244301644745,[],"[683, 384]",ColorTask,1.0,15.0,,,HRV,HRV_0011,2022-11-30 17:52:12
,wl-rdm,29,121726,0.0-6.15-0.15,0.0,24.0,,,,,,,[],,,,,,50.0,0.0,i,1.0,False,524.9999997615814,32.0,60.0,40.0,False,,388.9893382614067,[],"[683, 384]",ColorTask,0.0,16.0,,,HRV,HRV_0011,2022-11-30 17:52:12
,wl-rdm,30,123523,0.0-6.16-0.16,0.0,25.0,,,,,,,[],,,,,,56.4,1.0,u,0.0,False,535.1999998092651,32.0,60.0,40.0,False,,215.0665654460784,[],"[683, 384]",ColorTask,-1.0,17.0,,,HRV,HRV_0011,2022-11-30 17:52:12
,wl-rdm,31,125322,0.0-6.17-0.17,0.0,26.0,,,,,,,[],,,,,,56.4,1.0,u,0.0,False,459.19999980926514,28.0,60.0,40.0,False,,263.7453000900356,[],"[683, 384]",ColorTask,-2.0,18.0,,,HRV,HRV_0011,2022-11-30 17:52:12
,wl-rdm,32,127037,0.0-6.18-0.18,0.0,27.0,,,,,,,[],,,,,,50.0,0.0,u,0.0,True,339.90000009536743,21.0,60.0,40.0,False,,295.49159880789756,[],"[683, 384]",ColorTask,-1.0,19.0,,,HRV,HRV_0011,2022-11-30 17:52:12
,wl-rdm,33,128453,0.0-6.19-0.19,0.0,28.0,,,,,,,[],,,,,,73.6,0.0,u,0.0,True,123.69999980926514,8.0,60.0,40.0,False,,210.28092793827042,[],"[683, 384]",ColorTask,0.0,20.0,,,HRV,HRV_0011,2022-11-30 17:52:12
,wl-rdm,34,130217,0.0-6.20-0.20,0.0,29.0,,,,,,,[],,,,,,50.0,1.0,u,0.0,False,321.0,20.0,60.0,40.0,False,,365.6348767927146,[],"[683, 384]",ColorTask,-1.0,21.0,,,HRV,HRV_0011,2022-11-30 17:52:12
,wl-rdm,35,131300,0.0-6.21-0.21,0.0,29.0,,,,,,,[],,,,,,62.5,1.0,i,,,417.40000009536743,0.0,60.0,40.0,True,too_early ,220.1957097784139,[],"[683, 384]",ColorTask,-2.0,22.0,,,HRV,HRV_0011,2022-11-30 17:52:12
,wl-rdm,36,132982,0.0-6.22-0.22,0.0,30.0,,,,,,,[],,,,,,56.4,0.0,i,1.0,False,341.89999985694885,21.0,60.0,40.0,False,,265.619311305849,[],"[683, 384]",ColorTask,-3.0,23.0,,,HRV,HRV_0011,2022-11-30 17:52:12
,wl-rdm,37,135378,0.0-6.23-0.23,0.0,31.0,,,,,,,[],,,,,,53.2,0.0,i,1.0,False,1006.1999998092651,61.0,60.0,40.0,False,,300.0830748699078,[],"[683, 384]",ColorTask,-4.0,24.0,,,HRV,HRV_0011,2022-11-30 17:52:12
,wl-rdm,38,137907,0.0-6.24-0.24,0.0,32.0,,,,,,,[],,,,,,62.5,0.0,u,0.0,True,1209.2999999523163,73.0,60.0,40.0,False,,245.95642307358264,[],"[683, 384]",ColorTask,-3.0,25.0,,,HRV,HRV_0011,2022-11-30 17:52:12
,wl-rdm,39,140192,0.0-6.25-0.25,0.0,33.0,,,,,,,[],,,,,,62.5,0.0,u,0.0,True,938.6000001430511,57.0,60.0,40.0,False,,262.994248770507,[],"[683, 384]",ColorTask,-2.0,26.0,,,HRV,HRV_0011,2022-11-30 17:52:12
,wl-rdm,40,142702,0.0-6.26-0.26,0.0,34.0,,,,,,,[],,,,,,53.2,1.0,u,0.0,False,1067.7999999523163,64.0,60.0,40.0,False,,372.80711402960344,[],"[683, 384]",ColorTask,-3.0,27.0,,,HRV,HRV_0011,2022-11-30 17:52:12
,wl-rdm,41,144567,0.0-6.27-0.27,0.0,35.0,,,,,,,[],,,,,,62.5,1.0,i,1.0,True,597.1000001430511,36.0,60.0,40.0,False,,205.0183682017446,[],"[683, 384]",ColorTask,-2.0,28.0,,,HRV,HRV_0011,2022-11-30 17:52:12
,wl-rdm,42,146714,0.0-6.28-0.28,0.0,36.0,,,,,,,[],,,,,,50.0,1.0,u,0.0,False,851.3999998569489,51.0,60.0,40.0,False,,231.31251763272655,[],"[683, 384]",ColorTask,-3.0,29.0,,,HRV,HRV_0011,2022-11-30 17:52:12
,wl-rdm,43,148778,0.0-6.29-0.29,0.0,37.0,,,,,,,[],,,,,,62.5,1.0,i,1.0,True,578.8999998569489,35.0,60.0,40.0,False,,388.8270581804465,[],"[683, 384]",ColorTask,-2.0,30.0,,,HRV,HRV_0011,2022-11-30 17:52:12
,wl-rdm,44,150961,0.0-6.30-0.30,0.0,38.0,,,,,,,[],,,,,,62.5,0.0,u,0.0,True,871.8999998569489,53.0,60.0,40.0,False,,248.07751396047377,[],"[683, 384]",ColorTask,-1.0,31.0,,,HRV,HRV_0011,2022-11-30 17:52:12
,wl-rdm,45,153092,0.0-6.31-0.31,0.0,39.0,,,,,,,[],,,,,,73.6,0.0,u,0.0,True,816.5,49.0,60.0,40.0,False,,236.4653993948122,[],"[683, 384]",ColorTask,0.0,32.0,,,HRV,HRV_0011,2022-11-30 17:52:12
,wl-rdm,46,155040,0.0-6.32-0.32,0.0,40.0,,,,,,,[],,,,,,87.9,0.0,i,1.0,False,638.2000000476837,39.0,60.0,40.0,False,,219.8590814776585,[],"[683, 384]",ColorTask,-1.0,33.0,,,HRV,HRV_0011,2022-11-30 17:52:12
,wl-rdm,47,157404,0.0-6.33-0.33,0.0,41.0,,,,,,,[],,,,,,53.2,1.0,u,0.0,False,1036.4999997615814,62.0,60.0,40.0,False,,229.36692777041753,[],"[683, 384]",ColorTask,-2.0,34.0,,,HRV,HRV_0011,2022-11-30 17:52:12
,wl-rdm,48,159402,0.0-6.34-0.34,0.0,42.0,,,,,,,[],,,,,,73.6,1.0,i,1.0,True,628.6999998092651,38.0,60.0,40.0,False,,285.3484556553295,[],"[683, 384]",ColorTask,-1.0,35.0,,,HRV,HRV_0011,2022-11-30 17:52:12
,wl-rdm,49,161334,0.0-6.35-0.35,0.0,43.0,,,,,,,[],,,,,,56.4,1.0,i,1.0,True,644.4000000953674,39.0,60.0,40.0,False,,228.57195097674932,[],"[683, 384]",ColorTask,0.0,36.0,,,HRV,HRV_0011,2022-11-30 17:52:12
,wl-rdm,50,163432,0.0-6.36-0.36,0.0,44.0,,,,,,,[],,,,,,62.5,1.0,i,1.0,True,673.6000001430511,41.0,60.0,40.0,False,,349.41359368892535,[],"[683, 384]",ColorTask,1.0,37.0,,,HRV,HRV_0011,2022-11-30 17:52:12
,wl-rdm,51,165330,0.0-6.37-0.37,0.0,45.0,,,,,,,[],,,,,,87.9,0.0,i,1.0,False,538.5999999046326,33.0,60.0,40.0,False,,262.4348682616404,[],"[683, 384]",ColorTask,0.0,38.0,,,HRV,HRV_0011,2022-11-30 17:52:12
,wl-rdm,52,167361,0.0-6.38-0.38,0.0,46.0,,,,,,,[],,,,,,53.2,1.0,i,1.0,True,673.8999996185303,41.0,60.0,40.0,False,,272.4884369641268,[],"[683, 384]",ColorTask,1.0,39.0,,,HRV,HRV_0011,2022-11-30 17:52:12
,wl-rdm,53,169625,0.0-6.39-0.39,0.0,47.0,,,,,,,[],,,,,,56.4,0.0,u,0.0,True,982.7999999523163,59.0,60.0,40.0,False,,209.5216039856918,[],"[683, 384]",ColorTask,2.0,40.0,,,HRV,HRV_0011,2022-11-30 17:52:12
,wl-rdm,54,171777,0.0-6.40-0.40,0.0,48.0,,,,,,,[],,,,,,62.5,0.0,u,0.0,True,772.8000001907349,47.0,60.0,40.0,False,,284.23809171900774,[],"[683, 384]",ColorTask,3.0,41.0,,,HRV,HRV_0011,2022-11-30 17:52:12
,wl-rdm,55,173688,0.0-6.41-0.41,0.0,49.0,,,,,,,[],,,,,,53.2,1.0,u,0.0,False,604.0,36.0,60.0,40.0,False,,219.863517756256,[],"[683, 384]",ColorTask,2.0,42.0,,,HRV,HRV_0011,2022-11-30 17:52:12
,wl-rdm,56,175386,0.0-6.42-0.42,0.0,50.0,,,,,,,[],,,,,,50.0,1.0,u,0.0,False,432.09999990463257,26.0,60.0,40.0,False,,214.84672381170571,[],"[683, 384]",ColorTask,1.0,43.0,,,HRV,HRV_0011,2022-11-30 17:52:12
,wl-rdm,57,177617,0.0-6.43-0.43,0.0,51.0,,,,,,,[],,,,,,56.4,0.0,i,1.0,False,912.2999999523163,55.0,60.0,40.0,False,,265.7453201227849,[],"[683, 384]",ColorTask,0.0,44.0,,,HRV,HRV_0011,2022-11-30 17:52:12
,wl-rdm,58,179665,0.0-6.44-0.44,0.0,52.0,,,,,,,[],,,,,,87.9,0.0,i,1.0,False,689.1000001430511,42.0,60.0,40.0,False,,268.6670739017457,[],"[683, 384]",ColorTask,-1.0,45.0,,,HRV,HRV_0011,2022-11-30 17:52:12
,wl-rdm,59,181847,0.0-6.45-0.45,0.0,53.0,,,,,,,[],,,,,,62.5,1.0,i,1.0,True,704.9000000953674,43.0,60.0,40.0,False,,395.6041366643416,[],"[683, 384]",ColorTask,0.0,46.0,,,HRV,HRV_0011,2022-11-30 17:52:12
,wl-rdm,60,184111,0.0-6.46-0.46,0.0,54.0,,,,,,,[],,,,,,62.5,1.0,i,1.0,True,819.1999998092651,50.0,60.0,40.0,False,,356.56716905639996,[],"[683, 384]",ColorTask,1.0,47.0,,,HRV,HRV_0011,2022-11-30 17:52:12
,wl-rdm,61,186293,0.0-6.47-0.47,0.0,55.0,,,,,,,[],,,,,,50.0,0.0,u,0.0,True,902.6999998092651,54.0,60.0,40.0,False,,200.83630501755732,[],"[683, 384]",ColorTask,2.0,48.0,,,HRV,HRV_0011,2022-11-30 17:52:12
,wl-rdm,62,188357,0.0-6.48-0.48,0.0,56.0,,,,,,,[],,,,,,62.5,1.0,u,0.0,False,785.5000002384186,47.0,60.0,40.0,False,,205.61568826744238,[],"[683, 384]",ColorTask,1.0,49.0,,,HRV,HRV_0011,2022-11-30 17:52:12
,wl-rdm,63,190572,0.0-6.49-0.49,0.0,57.0,,,,,,,[],,,,,,62.5,1.0,i,1.0,True,842.2000000476837,51.0,60.0,40.0,False,,276.24411509301797,[],"[683, 384]",ColorTask,2.0,50.0,,,HRV,HRV_0011,2022-11-30 17:52:12
,wl-rdm,64,192740,0.0-6.50-0.50,0.0,58.0,,,,,,,[],,,,,,56.4,1.0,i,1.0,True,781.2999999523163,47.0,60.0,40.0,False,,305.2808623639567,[],"[683, 384]",ColorTask,3.0,51.0,,,HRV,HRV_0011,2022-11-30 17:52:12
,wl-rdm,65,194701,0.0-6.51-0.51,0.0,59.0,,,,,,,[],,,,,,87.9,1.0,i,1.0,True,555.7999999523163,34.0,60.0,40.0,False,,307.9818177663474,[],"[683, 384]",ColorTask,4.0,52.0,,,HRV,HRV_0011,2022-11-30 17:52:12
,wl-rdm,66,196866,0.0-6.52-0.52,0.0,60.0,,,,,,,[],,,,,,56.4,1.0,i,1.0,True,806.8000001907349,49.0,60.0,40.0,False,,281.8171361590405,[],"[683, 384]",ColorTask,5.0,53.0,,,HRV,HRV_0011,2022-11-30 17:52:12
,wl-rdm,67,198916,0.0-6.53-0.53,0.0,61.0,,,,,,,[],,,,,,87.9,1.0,i,1.0,True,637.0000002384186,38.0,60.0,40.0,False,,333.86176503337674,[],"[683, 384]",ColorTask,6.0,54.0,,,HRV,HRV_0011,2022-11-30 17:52:12
,wl-rdm,68,200947,0.0-6.54-0.54,0.0,62.0,,,,,,,[],,,,,,73.6,1.0,i,1.0,True,625.1000001430511,38.0,60.0,40.0,False,,332.66869138216106,[],"[683, 384]",ColorTask,7.0,55.0,,,HRV,HRV_0011,2022-11-30 17:52:12
,wl-rdm,69,202895,0.0-6.55-0.55,0.0,63.0,,,,,,,[],,,,,,56.4,0.0,i,1.0,False,575.6000001430511,35.0,60.0,40.0,False,,299.10985251577534,[],"[683, 384]",ColorTask,6.0,56.0,,,HRV,HRV_0011,2022-11-30 17:52:12
,wl-rdm,70,204727,0.0-6.56-0.56,0.0,64.0,,,,,,,[],,,,,,87.9,0.0,u,0.0,True,545.8999998569489,33.0,60.0,40.0,False,,213.94494761708012,[],"[683, 384]",ColorTask,7.0,57.0,,,HRV,HRV_0011,2022-11-30 17:52:12
,wl-rdm,71,206708,0.0-6.57-0.57,0.0,65.0,,,,,,,[],,,,,,87.9,1.0,i,1.0,True,613.2000000476837,37.0,60.0,40.0,False,,287.41763890693574,[],"[683, 384]",ColorTask,8.0,58.0,,,HRV,HRV_0011,2022-11-30 17:52:12
,wl-rdm,72,208773,0.0-6.58-0.58,0.0,66.0,,,,,,,[],,,,,,73.6,0.0,i,1.0,False,640.0000002384186,39.0,60.0,40.0,False,,342.2975370637456,[],"[683, 384]",ColorTask,7.0,59.0,,,HRV,HRV_0011,2022-11-30 17:52:12
,wl-rdm,73,210888,0.0-6.59-0.59,0.0,67.0,,,,,,,[],,,,,,50.0,1.0,i,1.0,True,668.9000000953674,40.0,60.0,40.0,False,,380.4306295591155,[],"[683, 384]",ColorTask,8.0,60.0,,,HRV,HRV_0011,2022-11-30 17:52:12
,wl-rdm,74,213052,0.0-6.60-0.60,0.0,68.0,,,,,,,[],,,,,,73.6,0.0,u,0.0,True,779.3999998569489,47.0,60.0,40.0,False,,307.6208601132919,[],"[683, 384]",ColorTask,9.0,61.0,,,HRV,HRV_0011,2022-11-30 17:52:12
,wl-rdm,75,215083,0.0-6.61-0.61,0.0,69.0,,,,,,,[],,,,,,56.4,0.0,u,0.0,True,694.0999999046326,42.0,60.0,40.0,False,,256.17920657593794,[],"[683, 384]",ColorTask,10.0,62.0,,,HRV,HRV_0011,2022-11-30 17:52:12
,wl-rdm,76,216998,0.0-6.62-0.62,0.0,70.0,,,,,,,[],,,,,,62.5,0.0,i,1.0,False,561.1000001430511,34.0,60.0,40.0,False,,267.43410688391106,[],"[683, 384]",ColorTask,9.0,63.0,,,HRV,HRV_0011,2022-11-30 17:52:12
,wl-rdm,77,219030,0.0-6.63-0.63,0.0,71.0,,,,,,,[],,,,,,53.2,0.0,u,0.0,True,625.1000001430511,38.0,60.0,40.0,False,,342.9314954254402,[],"[683, 384]",ColorTask,10.0,64.0,,,HRV,HRV_0011,2022-11-30 17:52:12
,wl-rdm,78,220976,0.0-6.64-0.64,0.0,72.0,,,,,,,[],,,,,,62.5,0.0,i,1.0,False,654.5,40.0,60.0,40.0,False,,206.30117513737437,[],"[683, 384]",ColorTask,9.0,65.0,,,HRV,HRV_0011,2022-11-30 17:52:12
,wl-rdm,79,223042,0.0-6.65-0.65,0.0,73.0,,,,,,,[],,,,,,73.6,1.0,i,1.0,True,756.5,46.0,60.0,40.0,False,,219.6789720091417,[],"[683, 384]",ColorTask,10.0,66.0,,,HRV,HRV_0011,2022-11-30 17:52:12
,wl-rdm,80,224891,0.0-6.66-0.66,0.0,74.0,,,,,,,[],,,,,,53.2,1.0,i,1.0,True,545.2000000476837,32.0,60.0,40.0,False,,244.24083178007385,[],"[683, 384]",ColorTask,11.0,67.0,,,HRV,HRV_0011,2022-11-30 17:52:12
,wl-rdm,81,226955,0.0-6.67-0.67,0.0,75.0,,,,,,,[],,,,,,56.4,1.0,i,1.0,True,723.5,44.0,60.0,40.0,False,,259.08153277707424,[],"[683, 384]",ColorTask,12.0,68.0,,,HRV,HRV_0011,2022-11-30 17:52:12
,wl-rdm,82,229086,0.0-6.68-0.68,0.0,76.0,,,,,,,[],,,,,,56.4,0.0,i,1.0,False,842.2999997138977,51.0,60.0,40.0,False,,211.01593753401613,[],"[683, 384]",ColorTask,11.0,69.0,,,HRV,HRV_0011,2022-11-30 17:52:12
,wl-rdm,83,231237,0.0-6.69-0.69,0.0,77.0,,,,,,,[],,,,,,50.0,1.0,u,0.0,False,756.2999999523163,46.0,60.0,40.0,False,,309.0162536312073,[],"[683, 384]",ColorTask,10.0,70.0,,,HRV,HRV_0011,2022-11-30 17:52:12
,wl-rdm,84,233415,0.0-6.70-0.70,0.0,78.0,,,,,,,[],,,,,,87.9,0.0,i,1.0,False,772.099999666214,47.0,60.0,40.0,False,,317.0506126554284,[],"[683, 384]",ColorTask,9.0,71.0,,,HRV,HRV_0011,2022-11-30 17:52:12
,wl-rdm,85,235596,0.0-6.71-0.71,0.0,79.0,,,,,,,[],,,,,,50.0,0.0,i,1.0,False,824.5,50.0,60.0,40.0,False,,282.7716091620216,[],"[683, 384]",ColorTask,8.0,72.0,,,HRV,HRV_0011,2022-11-30 17:52:12
,wl-rdm,86,238361,0.0-6.72-0.72,0.0,80.0,,,,,,,[],,,,,,50.0,0.0,u,0.0,True,1456.7000000476837,88.0,60.0,40.0,False,,220.61172808354644,[],"[683, 384]",ColorTask,9.0,73.0,,,HRV,HRV_0011,2022-11-30 17:52:12
,wl-rdm,87,242124,0.0-6.73-0.73,0.0,81.0,,,,,,,[],,,,,,53.2,0.0,i,1.0,False,2400.199999809265,144.0,60.0,40.0,False,,296.73834227251155,[],"[683, 384]",ColorTask,8.0,74.0,,,HRV,HRV_0011,2022-11-30 17:52:12
,wl-rdm,88,246519,0.0-6.74-0.74,0.0,81.0,,,,,,,[],,,,,,87.9,0.0,u,,,3226.100000143051,179.0,60.0,40.0,True,RT_timeout ,309.006479448968,[],"[683, 384]",ColorTask,7.0,75.0,,,HRV,HRV_0011,2022-11-30 17:52:12
,wl-rdm,89,248967,0.0-6.75-0.75,0.0,82.0,,,,,,,[],,,,,,50.0,1.0,i,1.0,True,973.7000000476837,59.0,60.0,40.0,False,,387.01474558459915,[],"[683, 384]",ColorTask,8.0,76.0,,,HRV,HRV_0011,2022-11-30 17:52:12
,wl-rdm,90,251115,0.0-6.76-0.76,0.0,83.0,,,,,,,[],,,,,,73.6,1.0,u,0.0,False,704.2999999523163,42.0,60.0,40.0,False,,381.809375562412,[],"[683, 384]",ColorTask,7.0,77.0,,,HRV,HRV_0011,2022-11-30 17:52:12
,wl-rdm,91,253179,0.0-6.77-0.77,0.0,84.0,,,,,,,[],,,,,,53.2,1.0,i,1.0,True,722.9000000953674,43.0,60.0,40.0,False,,271.5834068257118,[],"[683, 384]",ColorTask,8.0,78.0,,,HRV,HRV_0011,2022-11-30 17:52:12
,wl-rdm,92,255144,0.0-6.78-0.78,0.0,85.0,,,,,,,[],,,,,,53.2,0.0,u,0.0,True,584.5999999046326,36.0,60.0,40.0,False,,307.1190498854429,[],"[683, 384]",ColorTask,9.0,79.0,,,HRV,HRV_0011,2022-11-30 17:52:12
,wl-rdm,93,257240,0.0-6.79-0.79,0.0,86.0,,,,,,,[],,,,,,50.0,0.0,i,1.0,False,640.7999999523163,39.0,60.0,40.0,False,,370.1899096858765,[],"[683, 384]",ColorTask,8.0,80.0,,,HRV,HRV_0011,2022-11-30 17:52:12
,wl-rdm,94,259288,0.0-6.80-0.80,0.0,87.0,,,,,,,[],,,,,,56.4,1.0,i,1.0,True,678.2000000476837,41.0,60.0,40.0,False,,285.11807329179106,[],"[683, 384]",ColorTask,9.0,81.0,,,HRV,HRV_0011,2022-11-30 17:52:12
,wl-rdm,95,261287,0.0-6.81-0.81,0.0,88.0,,,,,,,[],,,,,,87.9,0.0,u,0.0,True,642.6000001430511,39.0,60.0,40.0,False,,281.58569255568557,[],"[683, 384]",ColorTask,10.0,82.0,,,HRV,HRV_0011,2022-11-30 17:52:12
,wl-rdm,96,263684,0.0-6.82-0.82,0.0,89.0,,,,,,,[],,,,,,53.2,0.0,u,0.0,True,1124.1000001430511,68.0,60.0,40.0,False,,201.02578661367463,[],"[683, 384]",ColorTask,11.0,83.0,,,HRV,HRV_0011,2022-11-30 17:52:12
,wl-rdm,97,265782,0.0-6.83-0.83,0.0,90.0,,,,,,,[],,,,,,56.4,0.0,i,1.0,False,772.0999999046326,47.0,60.0,40.0,False,,249.14363599700152,[],"[683, 384]",ColorTask,10.0,84.0,,,HRV,HRV_0011,2022-11-30 17:52:12
,wl-rdm,98,267846,0.0-6.84-0.84,0.0,91.0,,,,,,,[],,,,,,73.6,1.0,u,0.0,False,671.5,41.0,60.0,40.0,False,,304.16852193857613,[],"[683, 384]",ColorTask,9.0,85.0,,,HRV,HRV_0011,2022-11-30 17:52:12
,wl-rdm,99,269894,0.0-6.85-0.85,0.0,92.0,,,,,,,[],,,,,,87.9,1.0,i,1.0,True,725.4000000953674,44.0,60.0,40.0,False,,246.46407466355802,[],"[683, 384]",ColorTask,10.0,86.0,,,HRV,HRV_0011,2022-11-30 17:52:12
,wl-rdm,100,271909,0.0-6.86-0.86,0.0,93.0,,,,,,,[],,,,,,73.6,0.0,u,0.0,True,686.2000000476837,42.0,60.0,40.0,False,,240.45024733972144,[],"[683, 384]",ColorTask,11.0,87.0,,,HRV,HRV_0011,2022-11-30 17:52:12
,wl-rdm,101,274192,0.0-6.87-0.87,0.0,94.0,,,,,,,[],,,,,,50.0,0.0,u,0.0,True,838.3000001907349,51.0,60.0,40.0,False,,352.6620015055682,[],"[683, 384]",ColorTask,12.0,88.0,,,HRV,HRV_0011,2022-11-30 17:52:12
,wl-rdm,102,276173,0.0-6.88-0.88,0.0,95.0,,,,,,,[],,,,,,87.9,1.0,i,1.0,True,634.4000000953674,38.0,60.0,40.0,False,,279.15219383904935,[],"[683, 384]",ColorTask,13.0,89.0,,,HRV,HRV_0011,2022-11-30 17:52:12
,wl-rdm,103,278703,0.0-6.89-0.89,0.0,96.0,,,,,,,[],,,,,,87.9,1.0,i,1.0,True,1133.6000001430511,68.0,60.0,40.0,False,,347.0051545079565,[],"[683, 384]",ColorTask,14.0,90.0,,,HRV,HRV_0011,2022-11-30 17:52:12
,wl-rdm,104,281101,0.0-6.90-0.90,0.0,97.0,,,,,,,[],,,,,,50.0,1.0,u,0.0,False,1071.4000000953674,65.0,60.0,40.0,False,,238.88666235545264,[],"[683, 384]",ColorTask,13.0,91.0,,,HRV,HRV_0011,2022-11-30 17:52:12
,wl-rdm,105,282948,0.0-6.91-0.91,0.0,98.0,,,,,,,[],,,,,,50.0,0.0,i,1.0,False,562.2999999523163,33.0,60.0,40.0,False,,207.21065160366348,[],"[683, 384]",ColorTask,12.0,92.0,,,HRV,HRV_0011,2022-11-30 17:52:12
,wl-rdm,106,285080,0.0-6.92-0.92,0.0,99.0,,,,,,,[],,,,,,56.4,1.0,u,0.0,False,773.7999999523163,47.0,60.0,40.0,False,,267.03794906582044,[],"[683, 384]",ColorTask,11.0,93.0,,,HRV,HRV_0011,2022-11-30 17:52:12
,wl-rdm,107,286978,0.0-6.93-0.93,0.0,100.0,,,,,,,[],,,,,,56.4,0.0,i,1.0,False,607.0000002384186,37.0,60.0,40.0,False,,212.6981490668145,[],"[683, 384]",ColorTask,10.0,94.0,,,HRV,HRV_0011,2022-11-30 17:52:12
,wl-rdm,108,289126,0.0-6.94-0.94,0.0,101.0,,,,,,,[],,,,,,53.2,0.0,i,1.0,False,773.7000000476837,47.0,60.0,40.0,False,,283.32775014383316,[],"[683, 384]",ColorTask,9.0,95.0,,,HRV,HRV_0011,2022-11-30 17:52:12
,wl-rdm,109,290891,0.0-6.95-0.95,0.0,102.0,,,,,,,[],,,,,,87.9,0.0,u,0.0,True,373.7000000476837,23.0,60.0,40.0,False,,300.1583943004802,[],"[683, 384]",ColorTask,10.0,96.0,,,HRV,HRV_0011,2022-11-30 17:52:12
,wl-rdm,110,292838,0.0-6.96-0.96,0.0,103.0,,,,,,,[],,,,,,87.9,1.0,i,1.0,True,621.2000002861023,38.0,60.0,40.0,False,,241.71648726739215,[],"[683, 384]",ColorTask,11.0,97.0,,,HRV,HRV_0011,2022-11-30 17:52:12
,wl-rdm,111,294703,0.0-6.97-0.97,0.0,104.0,,,,,,,[],,,,,,73.6,1.0,i,1.0,True,511.4999997615814,31.0,60.0,40.0,False,,281.2689983338613,[],"[683, 384]",ColorTask,12.0,98.0,,,HRV,HRV_0011,2022-11-30 17:52:12
,wl-rdm,112,296751,0.0-6.98-0.98,0.0,105.0,,,,,,,[],,,,,,62.5,0.0,u,0.0,True,691.6000001430511,42.0,60.0,40.0,False,,279.7705888366828,[],"[683, 384]",ColorTask,13.0,99.0,,,HRV,HRV_0011,2022-11-30 17:52:12
,wl-rdm,113,298583,0.0-6.99-0.99,0.0,106.0,,,,,,,[],,,,,,87.9,0.0,i,1.0,False,537.7000000476837,32.0,60.0,40.0,False,,228.72125802391133,[],"[683, 384]",ColorTask,12.0,100.0,,,HRV,HRV_0011,2022-11-30 17:52:12
,wl-rdm,114,300547,0.0-6.100-0.100,0.0,107.0,,,,,,,[],,,,,,73.6,0.0,i,1.0,False,675.0999999046326,41.0,60.0,40.0,False,,207.84985646648946,[],"[683, 384]",ColorTask,11.0,101.0,,,HRV,HRV_0011,2022-11-30 17:52:12
,wl-rdm,115,302479,0.0-6.101-0.101,0.0,108.0,,,,,,,[],,,,,,53.2,1.0,u,0.0,False,575.4000000953674,35.0,60.0,40.0,False,,296.6165133756491,[],"[683, 384]",ColorTask,10.0,102.0,,,HRV,HRV_0011,2022-11-30 17:52:12
,wl-rdm,116,304594,0.0-6.102-0.102,0.0,109.0,,,,,,,[],,,,,,56.4,1.0,u,0.0,False,711.8999998569489,43.0,60.0,40.0,False,,331.80612253841423,[],"[683, 384]",ColorTask,9.0,103.0,,,HRV,HRV_0011,2022-11-30 17:52:12
,wl-rdm,117,306458,0.0-6.103-0.103,0.0,110.0,,,,,,,[],,,,,,62.5,0.0,u,0.0,True,541.5999999046326,33.0,60.0,40.0,False,,248.5263332860118,[],"[683, 384]",ColorTask,10.0,104.0,,,HRV,HRV_0011,2022-11-30 17:52:12
,wl-rdm,118,308358,0.0-6.104-0.104,0.0,111.0,,,,,,,[],,,,,,73.6,0.0,u,0.0,True,572.0999999046326,35.0,60.0,40.0,False,,262.35446803752063,[],"[683, 384]",ColorTask,11.0,105.0,,,HRV,HRV_0011,2022-11-30 17:52:12
,wl-rdm,119,310423,0.0-6.105-0.105,0.0,112.0,,,,,,,[],,,,,,53.2,1.0,i,1.0,True,772.0999999046326,47.0,60.0,40.0,False,,203.94467737425973,[],"[683, 384]",ColorTask,12.0,106.0,,,HRV,HRV_0011,2022-11-30 17:52:12
,wl-rdm,120,312487,0.0-6.106-0.106,0.0,113.0,,,,,,,[],,,,,,53.2,1.0,i,1.0,True,771.7999999523163,47.0,60.0,40.0,False,,215.12647800010384,[],"[683, 384]",ColorTask,13.0,107.0,,,HRV,HRV_0011,2022-11-30 17:52:12
,wl-rdm,121,314752,0.0-6.107-0.107,0.0,114.0,,,,,,,[],,,,,,87.9,1.0,i,1.0,True,835.7999999523163,51.0,60.0,40.0,False,,339.0669833232853,[],"[683, 384]",ColorTask,14.0,108.0,,,HRV,HRV_0011,2022-11-30 17:52:12
,wl-rdm,122,316700,0.0-6.108-0.108,0.0,115.0,,,,,,,[],,,,,,87.9,0.0,u,0.0,True,655.0,40.0,60.0,40.0,False,,208.19731360160554,[],"[683, 384]",ColorTask,15.0,109.0,,,HRV,HRV_0011,2022-11-30 17:52:12
,wl-rdm,123,318734,0.0-6.109-0.109,0.0,116.0,,,,,,,[],,,,,,73.6,1.0,i,1.0,True,679.4000000953674,41.0,60.0,40.0,False,,271.8006819758353,[],"[683, 384]",ColorTask,16.0,110.0,,,HRV,HRV_0011,2022-11-30 17:52:12
,wl-html-keyboard-response,124,325998,0.0-7.0-0.0,1.0,117.0,,,,,,,,5639.5,1.0,0,,,,,,,,,,,,,,,,,,,,,,HRV,HRV_0011,2022-11-30 17:52:12
,wl-rdm,125,328442,0.0-8.0-0.0,1.0,118.0,,,,,,,[],,,,,,53.2,1.0,u,0.0,False,986.9000000953674,60.0,60.0,40.0,False,,364.43768939880516,[],"[683, 384]",ColorTask,15.0,1.0,,,HRV,HRV_0011,2022-11-30 17:52:12
,wl-rdm,126,330571,0.0-8.1-0.1,1.0,119.0,,,,,,,[],,,,,,87.9,0.0,i,1.0,False,670.2000000476837,41.0,60.0,40.0,False,,368.53665588601626,[],"[683, 384]",ColorTask,14.0,2.0,,,HRV,HRV_0011,2022-11-30 17:52:12
,wl-rdm,127,332502,0.0-8.2-0.2,1.0,120.0,,,,,,,[],,,,,,56.4,1.0,i,1.0,True,647.0999999046326,39.0,60.0,40.0,False,,213.02426548059333,[],"[683, 384]",ColorTask,15.0,3.0,,,HRV,HRV_0011,2022-11-30 17:52:12
,wl-rdm,128,334800,0.0-8.3-0.3,1.0,121.0,,,,,,,[],,,,,,56.4,1.0,i,1.0,True,996.6000001430511,60.0,60.0,40.0,False,,228.14229879823347,[],"[683, 384]",ColorTask,16.0,4.0,,,HRV,HRV_0011,2022-11-30 17:52:12
,wl-rdm,129,336748,0.0-8.4-0.4,1.0,122.0,,,,,,,[],,,,,,87.9,0.0,u,0.0,True,603.2999999523163,36.0,60.0,40.0,False,,274.1662160155955,[],"[683, 384]",ColorTask,17.0,5.0,,,HRV,HRV_0011,2022-11-30 17:52:12
,wl-rdm,130,338713,0.0-8.5-0.5,1.0,123.0,,,,,,,[],,,,,,73.6,1.0,i,1.0,True,606.2999999523163,37.0,60.0,40.0,False,,275.20772288300225,[],"[683, 384]",ColorTask,18.0,6.0,,,HRV,HRV_0011,2022-11-30 17:52:12
,wl-rdm,131,340780,0.0-8.6-0.6,1.0,124.0,,,,,,,[],,,,,,87.9,1.0,u,0.0,False,612.7999999523163,37.0,60.0,40.0,False,,371.99232193550324,[],"[683, 384]",ColorTask,17.0,7.0,,,HRV,HRV_0011,2022-11-30 17:52:12
,wl-rdm,132,343259,0.0-8.7-0.7,1.0,125.0,,,,,,,[],,,,,,56.4,1.0,i,1.0,True,1045.6000001430511,63.0,60.0,40.0,False,,354.8901568599072,[],"[683, 384]",ColorTask,18.0,8.0,,,HRV,HRV_0011,2022-11-30 17:52:12
,wl-rdm,133,345473,0.0-8.8-0.8,1.0,126.0,,,,,,,[],,,,,,73.6,0.0,i,1.0,False,908.3999998569489,54.0,60.0,40.0,False,,244.03011093855923,[],"[683, 384]",ColorTask,17.0,9.0,,,HRV,HRV_0011,2022-11-30 17:52:12
,wl-rdm,134,347488,0.0-8.9-0.9,1.0,127.0,,,,,,,[],,,,,,50.0,0.0,u,0.0,True,646.9999997615814,39.0,60.0,40.0,False,,309.8686339097401,[],"[683, 384]",ColorTask,18.0,10.0,,,HRV,HRV_0011,2022-11-30 17:52:12
,wl-rdm,135,349436,0.0-8.10-0.10,1.0,128.0,,,,,,,[],,,,,,53.2,0.0,i,1.0,False,643.3999998569489,39.0,60.0,40.0,False,,224.5453743840001,[],"[683, 384]",ColorTask,17.0,11.0,,,HRV,HRV_0011,2022-11-30 17:52:12
,wl-rdm,136,351733,0.0-8.11-0.11,1.0,129.0,,,,,,,[],,,,,,73.6,1.0,u,0.0,False,867.8999998569489,52.0,60.0,40.0,False,,355.9560309078409,[],"[683, 384]",ColorTask,16.0,12.0,,,HRV,HRV_0011,2022-11-30 17:52:12
,wl-rdm,137,353798,0.0-8.12-0.12,1.0,130.0,,,,,,,[],,,,,,62.5,1.0,i,1.0,True,689.6999998092651,42.0,60.0,40.0,False,,314.88591405608514,[],"[683, 384]",ColorTask,17.0,13.0,,,HRV,HRV_0011,2022-11-30 17:52:12
,wl-rdm,138,355730,0.0-8.13-0.13,1.0,131.0,,,,,,,[],,,,,,87.9,1.0,i,1.0,True,519.0,31.0,60.0,40.0,False,,336.91128154766665,[],"[683, 384]",ColorTask,18.0,14.0,,,HRV,HRV_0011,2022-11-30 17:52:12
,wl-rdm,139,357812,0.0-8.14-0.14,1.0,132.0,,,,,,,[],,,,,,53.2,0.0,i,1.0,False,691.0000002384186,42.0,60.0,40.0,False,,310.0707354829861,[],"[683, 384]",ColorTask,17.0,15.0,,,HRV,HRV_0011,2022-11-30 17:52:12
,wl-rdm,140,359714,0.0-8.15-0.15,1.0,133.0,,,,,,,[],,,,,,73.6,0.0,u,0.0,True,606.5,37.0,60.0,40.0,False,,208.66748511121514,[],"[683, 384]",ColorTask,18.0,16.0,,,HRV,HRV_0011,2022-11-30 17:52:12
,wl-rdm,141,361673,0.0-8.16-0.16,1.0,134.0,,,,,,,[],,,,,,73.6,1.0,i,1.0,True,623.2000000476837,38.0,60.0,40.0,False,,244.38968135448704,[],"[683, 384]",ColorTask,19.0,17.0,,,HRV,HRV_0011,2022-11-30 17:52:12
,wl-rdm,142,363871,0.0-8.17-0.17,1.0,135.0,,,,,,,[],,,,,,50.0,1.0,i,1.0,True,757.2000000476837,44.0,60.0,40.0,False,,382.758257851268,[],"[683, 384]",ColorTask,20.0,18.0,,,HRV,HRV_0011,2022-11-30 17:52:12
,wl-rdm,143,366086,0.0-8.18-0.18,1.0,136.0,,,,,,,[],,,,,,56.4,0.0,u,0.0,True,892.8999998569489,54.0,60.0,40.0,False,,249.5048532105898,[],"[683, 384]",ColorTask,21.0,19.0,,,HRV,HRV_0011,2022-11-30 17:52:12
,wl-rdm,144,368167,0.0-8.19-0.19,1.0,137.0,,,,,,,[],,,,,,50.0,0.0,u,0.0,True,790.4000000953674,48.0,60.0,40.0,False,,206.22410743520211,[],"[683, 384]",ColorTask,22.0,20.0,,,HRV,HRV_0011,2022-11-30 17:52:12
,wl-rdm,145,370049,0.0-8.20-0.20,1.0,138.0,,,,,,,[],,,,,,50.0,0.0,i,1.0,False,552.1000001430511,33.0,60.0,40.0,False,,252.10437248821,[],"[683, 384]",ColorTask,21.0,21.0,,,HRV,HRV_0011,2022-11-30 17:52:12
,wl-rdm,146,372147,0.0-8.21-0.21,1.0,139.0,,,,,,,[],,,,,,87.9,1.0,i,1.0,True,666.3999998569489,40.0,60.0,40.0,False,,357.84792488801406,[],"[683, 384]",ColorTask,22.0,22.0,,,HRV,HRV_0011,2022-11-30 17:52:12
,wl-rdm,147,373845,0.0-8.22-0.22,1.0,140.0,,,,,,,[],,,,,,87.9,1.0,i,1.0,True,405.40000009536743,25.0,60.0,40.0,False,,212.93530953171512,[],"[683, 384]",ColorTask,23.0,23.0,,,HRV,HRV_0011,2022-11-30 17:52:12
,wl-rdm,148,375710,0.0-8.23-0.23,1.0,141.0,,,,,,,[],,,,,,62.5,1.0,i,1.0,True,441.400000333786,27.0,60.0,40.0,False,,352.67214830496755,[],"[683, 384]",ColorTask,24.0,24.0,,,HRV,HRV_0011,2022-11-30 17:52:12
,wl-rdm,149,377690,0.0-8.24-0.24,1.0,142.0,,,,,,,[],,,,,,87.9,0.0,u,0.0,True,588.3000001907349,36.0,60.0,40.0,False,,312.87996706950025,[],"[683, 384]",ColorTask,25.0,25.0,,,HRV,HRV_0011,2022-11-30 17:52:12
,wl-rdm,150,379488,0.0-8.25-0.25,1.0,143.0,,,,,,,[],,,,,,87.9,0.0,i,1.0,False,464.7000000476837,28.0,60.0,40.0,False,,258.14206437972933,[],"[683, 384]",ColorTask,24.0,26.0,,,HRV,HRV_0011,2022-11-30 17:52:12
,wl-rdm,151,381353,0.0-8.26-0.26,1.0,144.0,,,,,,,[],,,,,,73.6,1.0,i,1.0,True,586.3999998569489,35.0,60.0,40.0,False,,204.1380178070979,[],"[683, 384]",ColorTask,25.0,27.0,,,HRV,HRV_0011,2022-11-30 17:52:12
,wl-rdm,152,383318,0.0-8.27-0.27,1.0,145.0,,,,,,,[],,,,,,56.4,1.0,i,1.0,True,663.7000002861023,40.0,60.0,40.0,False,,226.51395541338266,[],"[683, 384]",ColorTask,26.0,28.0,,,HRV,HRV_0011,2022-11-30 17:52:12
,wl-rdm,153,385483,0.0-8.28-0.28,1.0,146.0,,,,,,,[],,,,,,50.0,1.0,i,1.0,True,823.5,50.0,60.0,40.0,False,,251.9874507935483,[],"[683, 384]",ColorTask,27.0,29.0,,,HRV,HRV_0011,2022-11-30 17:52:12
,wl-rdm,154,387752,0.0-8.29-0.29,1.0,147.0,,,,,,,[],,,,,,50.0,0.0,u,0.0,True,930.7000000476837,56.0,60.0,40.0,False,,261.15384246636927,[],"[683, 384]",ColorTask,28.0,30.0,,,HRV,HRV_0011,2022-11-30 17:52:12
,wl-rdm,155,390078,0.0-8.30-0.30,1.0,148.0,,,,,,,[],,,,,,62.5,1.0,i,1.0,True,928.7000000476837,56.0,60.0,40.0,False,,316.1358790055853,[],"[683, 384]",ColorTask,29.0,31.0,,,HRV,HRV_0011,2022-11-30 17:52:12
,wl-rdm,156,392526,0.0-8.31-0.31,1.0,149.0,,,,,,,[],,,,,,62.5,1.0,u,0.0,False,1077.8999998569489,65.0,60.0,40.0,False,,289.7533625121252,[],"[683, 384]",ColorTask,28.0,32.0,,,HRV,HRV_0011,2022-11-30 17:52:12
,wl-rdm,157,394557,0.0-8.32-0.32,1.0,150.0,,,,,,,[],,,,,,53.2,0.0,u,0.0,True,728.2000000476837,44.0,60.0,40.0,False,,218.56878117995743,[],"[683, 384]",ColorTask,29.0,33.0,,,HRV,HRV_0011,2022-11-30 17:52:12
,wl-rdm,158,396705,0.0-8.33-0.33,1.0,151.0,,,,,,,[],,,,,,53.2,0.0,u,0.0,True,673.5000002384186,41.0,60.0,40.0,False,,386.0706256635743,[],"[683, 384]",ColorTask,30.0,34.0,,,HRV,HRV_0011,2022-11-30 17:52:12
,wl-rdm,159,398570,0.0-8.34-0.34,1.0,152.0,,,,,,,[],,,,,,73.6,0.0,u,0.0,True,555.4000000953674,34.0,60.0,40.0,False,,217.95628414585465,[],"[683, 384]",ColorTask,31.0,35.0,,,HRV,HRV_0011,2022-11-30 17:52:12
,wl-rdm,160,400468,0.0-8.35-0.35,1.0,153.0,,,,,,,[],,,,,,73.6,0.0,u,0.0,True,579.7999997138977,35.0,60.0,40.0,False,,242.87597606547007,[],"[683, 384]",ColorTask,32.0,36.0,,,HRV,HRV_0011,2022-11-30 17:52:12
,wl-rdm,161,402366,0.0-8.36-0.36,1.0,154.0,,,,,,,[],,,,,,62.5,0.0,u,0.0,True,623.7000000476837,38.0,60.0,40.0,False,,207.16331138965657,[],"[683, 384]",ColorTask,33.0,37.0,,,HRV,HRV_0011,2022-11-30 17:52:12
,wl-rdm,162,404347,0.0-8.37-0.37,1.0,155.0,,,,,,,[],,,,,,50.0,1.0,u,0.0,False,677.7999999523163,41.0,60.0,40.0,False,,239.86692886614316,[],"[683, 384]",ColorTask,32.0,38.0,,,HRV,HRV_0011,2022-11-30 17:52:12
,wl-rdm,163,406295,0.0-8.38-0.38,1.0,156.0,,,,,,,[],,,,,,56.4,0.0,i,1.0,False,659.4000000953674,40.0,60.0,40.0,False,,205.55021673980914,[],"[683, 384]",ColorTask,31.0,39.0,,,HRV,HRV_0011,2022-11-30 17:52:12
,wl-rdm,164,408077,0.0-8.39-0.39,1.0,157.0,,,,,,,[],,,,,,53.2,1.0,i,1.0,True,485.2000000476837,30.0,60.0,40.0,False,,209.45331246260307,[],"[683, 384]",ColorTask,32.0,40.0,,,HRV,HRV_0011,2022-11-30 17:52:12
,wl-rdm,165,410042,0.0-8.40-0.40,1.0,158.0,,,,,,,[],,,,,,50.0,1.0,u,0.0,False,668.5999999046326,41.0,60.0,40.0,False,,223.3952424066805,[],"[683, 384]",ColorTask,31.0,41.0,,,HRV,HRV_0011,2022-11-30 17:52:12
,wl-rdm,166,412173,0.0-8.41-0.41,1.0,159.0,,,,,,,[],,,,,,62.5,1.0,i,1.0,True,793.5,48.0,60.0,40.0,False,,253.22723163151687,[],"[683, 384]",ColorTask,32.0,42.0,,,HRV,HRV_0011,2022-11-30 17:52:12
,wl-rdm,167,414354,0.0-8.42-0.42,1.0,160.0,,,,,,,[],,,,,,62.5,0.0,u,0.0,True,722.6999998092651,44.0,60.0,40.0,False,,385.0673152365998,[],"[683, 384]",ColorTask,33.0,43.0,,,HRV,HRV_0011,2022-11-30 17:52:12
,wl-rdm,168,416302,0.0-8.43-0.43,1.0,161.0,,,,,,,[],,,,,,53.2,1.0,i,1.0,True,575.4000000953674,35.0,60.0,40.0,False,,293.68386587147427,[],"[683, 384]",ColorTask,34.0,44.0,,,HRV,HRV_0011,2022-11-30 17:52:12
,wl-rdm,169,418000,0.0-8.44-0.44,1.0,162.0,,,,,,,[],,,,,,87.9,1.0,u,0.0,False,391.0000002384186,24.0,60.0,40.0,False,,241.0356092896264,[],"[683, 384]",ColorTask,33.0,45.0,,,HRV,HRV_0011,2022-11-30 17:52:12
,wl-rdm,170,420065,0.0-8.45-0.45,1.0,163.0,,,,,,,[],,,,,,53.2,0.0,u,0.0,True,693.1000001430511,42.0,60.0,40.0,False,,276.48933246229666,[],"[683, 384]",ColorTask,34.0,46.0,,,HRV,HRV_0011,2022-11-30 17:52:12
,wl-rdm,171,422080,0.0-8.46-0.46,1.0,164.0,,,,,,,[],,,,,,50.0,1.0,i,1.0,True,616.2999999523163,37.0,60.0,40.0,False,,332.94697681138337,[],"[683, 384]",ColorTask,35.0,47.0,,,HRV,HRV_0011,2022-11-30 17:52:12
,wl-rdm,172,423961,0.0-8.47-0.47,1.0,165.0,,,,,,,[],,,,,,73.6,1.0,i,1.0,True,515.0999999046326,31.0,60.0,40.0,False,,294.3406513955363,[],"[683, 384]",ColorTask,36.0,48.0,,,HRV,HRV_0011,2022-11-30 17:52:12
,wl-rdm,173,425826,0.0-8.48-0.48,1.0,166.0,,,,,,,[],,,,,,53.2,0.0,i,1.0,False,560.7000000476837,34.0,60.0,40.0,False,,227.43539196383415,[],"[683, 384]",ColorTask,35.0,49.0,,,HRV,HRV_0011,2022-11-30 17:52:12
,wl-rdm,174,427191,0.0-8.49-0.49,1.0,166.0,,,,,,,[],,,,,,56.4,0.0,u,,,818.1000001430511,0.0,60.0,40.0,True,too_early ,359.7739811839598,[],"[683, 384]",ColorTask,34.0,50.0,,,HRV,HRV_0011,2022-11-30 17:52:12
,wl-rdm,175,428557,0.0-8.50-0.50,1.0,166.0,,,,,,,[],,,,,,56.4,0.0,u,,,822.2999999523163,0.0,60.0,40.0,True,too_early ,314.43746314549907,[],"[683, 384]",ColorTask,33.0,51.0,,,HRV,HRV_0011,2022-11-30 17:52:12
,wl-rdm,176,430721,0.0-8.51-0.51,1.0,167.0,,,,,,,[],,,,,,56.4,1.0,u,0.0,False,776.9999997615814,47.0,60.0,40.0,False,,308.60480325288563,[],"[683, 384]",ColorTask,32.0,52.0,,,HRV,HRV_0011,2022-11-30 17:52:12
,wl-rdm,177,432803,0.0-8.52-0.52,1.0,168.0,,,,,,,[],,,,,,62.5,0.0,i,1.0,False,632.9000000953674,38.0,60.0,40.0,False,,366.9893069953871,[],"[683, 384]",ColorTask,31.0,53.0,,,HRV,HRV_0011,2022-11-30 17:52:12
,wl-rdm,178,434851,0.0-8.53-0.53,1.0,169.0,,,,,,,[],,,,,,62.5,1.0,i,1.0,True,740.6999998092651,45.0,60.0,40.0,False,,220.69393769397445,[],"[683, 384]",ColorTask,32.0,54.0,,,HRV,HRV_0011,2022-11-30 17:52:12
,wl-rdm,179,437049,0.0-8.54-0.54,1.0,170.0,,,,,,,[],,,,,,73.6,0.0,u,0.0,True,875.0999999046326,53.0,60.0,40.0,False,,253.68444401891406,[],"[683, 384]",ColorTask,33.0,55.0,,,HRV,HRV_0011,2022-11-30 17:52:12
,wl-rdm,180,439511,0.0-8.55-0.55,1.0,171.0,,,,,,,[],,,,,,50.0,0.0,i,1.0,False,1098.1999998092651,66.0,60.0,40.0,False,,288.5323907297361,[],"[683, 384]",ColorTask,32.0,56.0,,,HRV,HRV_0011,2022-11-30 17:52:12
,wl-rdm,181,441476,0.0-8.56-0.56,1.0,172.0,,,,,,,[],,,,,,53.2,1.0,i,1.0,True,661.6999998092651,40.0,60.0,40.0,False,,218.3022614077082,[],"[683, 384]",ColorTask,33.0,57.0,,,HRV,HRV_0011,2022-11-30 17:52:12
,wl-rdm,182,443491,0.0-8.57-0.57,1.0,173.0,,,,,,,[],,,,,,53.2,1.0,i,1.0,True,696.4999997615814,42.0,60.0,40.0,False,,233.00463826748444,[],"[683, 384]",ColorTask,34.0,58.0,,,HRV,HRV_0011,2022-11-30 17:52:12
,wl-rdm,183,445606,0.0-8.58-0.58,1.0,174.0,,,,,,,[],,,,,,53.2,1.0,i,1.0,True,777.3999998569489,47.0,60.0,40.0,False,,259.8058687937311,[],"[683, 384]",ColorTask,35.0,59.0,,,HRV,HRV_0011,2022-11-30 17:52:12
,wl-rdm,184,448119,0.0-8.59-0.59,1.0,175.0,,,,,,,[],,,,,,73.6,1.0,i,1.0,True,1073.2000002861023,65.0,60.0,40.0,False,,362.047958912812,[],"[683, 384]",ColorTask,36.0,60.0,,,HRV,HRV_0011,2022-11-30 17:52:12
,wl-rdm,185,450151,0.0-8.60-0.60,1.0,176.0,,,,,,,[],,,,,,56.4,0.0,i,1.0,False,697.0999999046326,42.0,60.0,40.0,False,,253.96313791164468,[],"[683, 384]",ColorTask,35.0,61.0,,,HRV,HRV_0011,2022-11-30 17:52:12
,wl-rdm,186,452384,0.0-8.61-0.61,1.0,177.0,,,,,,,[],,,,,,87.9,0.0,u,0.0,True,817.7000000476837,50.0,60.0,40.0,False,,327.0139102108696,[],"[683, 384]",ColorTask,36.0,62.0,,,HRV,HRV_0011,2022-11-30 17:52:12
,wl-rdm,187,454347,0.0-8.62-0.62,1.0,178.0,,,,,,,[],,,,,,87.9,0.0,u,0.0,True,561.2999999523163,34.0,60.0,40.0,False,,321.22622911869456,[],"[683, 384]",ColorTask,37.0,63.0,,,HRV,HRV_0011,2022-11-30 17:52:12
,wl-rdm,188,456312,0.0-8.63-0.63,1.0,179.0,,,,,,,[],,,,,,62.5,0.0,u,0.0,True,680.4000000953674,41.0,60.0,40.0,False,,209.92346636646033,[],"[683, 384]",ColorTask,38.0,64.0,,,HRV,HRV_0011,2022-11-30 17:52:12
,wl-rdm,189,458159,0.0-8.64-0.64,1.0,180.0,,,,,,,[],,,,,,73.6,0.0,u,0.0,True,543.0,33.0,60.0,40.0,False,,222.33695393483654,[],"[683, 384]",ColorTask,39.0,65.0,,,HRV,HRV_0011,2022-11-30 17:52:12
,wl-rdm,190,460107,0.0-8.65-0.65,1.0,181.0,,,,,,,[],,,,,,87.9,1.0,i,1.0,True,578.5000002384186,35.0,60.0,40.0,False,,294.6893250286004,[],"[683, 384]",ColorTask,40.0,66.0,,,HRV,HRV_0011,2022-11-30 17:52:12
,wl-rdm,191,462071,0.0-8.66-0.66,1.0,182.0,,,,,,,[],,,,,,50.0,0.0,i,1.0,False,616.3000001907349,37.0,60.0,40.0,False,,283.0363705641321,[],"[683, 384]",ColorTask,39.0,67.0,,,HRV,HRV_0011,2022-11-30 17:52:12
,wl-rdm,192,464237,0.0-8.67-0.67,1.0,183.0,,,,,,,[],,,,,,56.4,0.0,i,1.0,False,858.0,51.0,60.0,40.0,False,,218.98281906354373,[],"[683, 384]",ColorTask,38.0,68.0,,,HRV,HRV_0011,2022-11-30 17:52:12
,wl-rdm,193,466185,0.0-8.68-0.68,1.0,184.0,,,,,,,[],,,,,,73.6,1.0,i,1.0,True,662.7999999523163,40.0,60.0,40.0,False,,205.97785294231036,[],"[683, 384]",ColorTask,39.0,69.0,,,HRV,HRV_0011,2022-11-30 17:52:12
,wl-rdm,194,468266,0.0-8.69-0.69,1.0,185.0,,,,,,,[],,,,,,62.5,0.0,u,0.0,True,670.3999998569489,40.0,60.0,40.0,False,,341.6579615410348,[],"[683, 384]",ColorTask,40.0,70.0,,,HRV,HRV_0011,2022-11-30 17:52:12
,wl-rdm,195,470465,0.0-8.70-0.70,1.0,186.0,,,,,,,[],,,,,,56.4,0.0,u,0.0,True,723.2000000476837,44.0,60.0,40.0,False,,392.63875466726483,[],"[683, 384]",ColorTask,41.0,71.0,,,HRV,HRV_0011,2022-11-30 17:52:12
,wl-rdm,196,472429,0.0-8.71-0.71,1.0,187.0,,,,,,,[],,,,,,87.9,0.0,u,0.0,True,544.8999998569489,33.0,60.0,40.0,False,,336.77578729260097,[],"[683, 384]",ColorTask,42.0,72.0,,,HRV,HRV_0011,2022-11-30 17:52:12
,wl-rdm,197,474527,0.0-8.72-0.72,1.0,188.0,,,,,,,[],,,,,,62.5,1.0,i,1.0,True,663.7000000476837,40.0,60.0,40.0,False,,355.67592874907837,[],"[683, 384]",ColorTask,43.0,73.0,,,HRV,HRV_0011,2022-11-30 17:52:12
,wl-rdm,198,476792,0.0-8.73-0.73,1.0,189.0,,,,,,,[],,,,,,73.6,0.0,u,0.0,True,803.1000001430511,49.0,60.0,40.0,False,,381.7291777812068,[],"[683, 384]",ColorTask,44.0,74.0,,,HRV,HRV_0011,2022-11-30 17:52:12
,wl-rdm,199,478939,0.0-8.74-0.74,1.0,190.0,,,,,,,[],,,,,,62.5,1.0,i,1.0,True,824.9000000953674,50.0,60.0,40.0,False,,231.56404894583503,[],"[683, 384]",ColorTask,45.0,75.0,,,HRV,HRV_0011,2022-11-30 17:52:12
,wl-rdm,200,480854,0.0-8.75-0.75,1.0,191.0,,,,,,,[],,,,,,62.5,0.0,u,0.0,True,556.7000000476837,34.0,60.0,40.0,False,,279.13579385777876,[],"[683, 384]",ColorTask,46.0,76.0,,,HRV,HRV_0011,2022-11-30 17:52:12
,wl-rdm,201,482825,0.0-8.76-0.76,1.0,192.0,,,,,,,[],,,,,,87.9,1.0,i,1.0,True,640.0,39.0,60.0,40.0,False,,258.79739088898936,[],"[683, 384]",ColorTask,47.0,77.0,,,HRV,HRV_0011,2022-11-30 17:52:12
,wl-rdm,202,485083,0.0-8.77-0.77,1.0,193.0,,,,,,,[],,,,,,53.2,0.0,u,0.0,True,856.1000001430511,52.0,60.0,40.0,False,,324.45303455046593,[],"[683, 384]",ColorTask,48.0,78.0,,,HRV,HRV_0011,2022-11-30 17:52:12
,wl-rdm,203,486915,0.0-8.78-0.78,1.0,194.0,,,,,,,[],,,,,,56.4,0.0,u,0.0,True,505.7999999523163,31.0,60.0,40.0,False,,237.8097246029277,[],"[683, 384]",ColorTask,49.0,79.0,,,HRV,HRV_0011,2022-11-30 17:52:12
,wl-rdm,204,488730,0.0-8.79-0.79,1.0,195.0,,,,,,,[],,,,,,56.4,0.0,u,0.0,True,464.2999999523163,28.0,60.0,40.0,False,,273.7196321158458,[],"[683, 384]",ColorTask,50.0,80.0,,,HRV,HRV_0011,2022-11-30 17:52:12
,wl-rdm,205,490845,0.0-8.80-0.80,1.0,196.0,,,,,,,[],,,,,,73.6,0.0,u,0.0,True,773.0000002384186,47.0,60.0,40.0,False,,264.4116415619759,[],"[683, 384]",ColorTask,51.0,81.0,,,HRV,HRV_0011,2022-11-30 17:52:12
,wl-rdm,206,492909,0.0-8.81-0.81,1.0,197.0,,,,,,,[],,,,,,50.0,1.0,u,0.0,False,668.5,40.0,60.0,40.0,False,,316.49643633676504,[],"[683, 384]",ColorTask,50.0,82.0,,,HRV,HRV_0011,2022-11-30 17:52:12
,wl-rdm,207,495157,0.0-8.82-0.82,1.0,198.0,,,,,,,[],,,,,,56.4,1.0,i,1.0,True,928.7000000476837,55.0,60.0,40.0,False,,236.44004160219922,[],"[683, 384]",ColorTask,51.0,83.0,,,HRV,HRV_0011,2022-11-30 17:52:12
,wl-rdm,208,497272,0.0-8.83-0.83,1.0,199.0,,,,,,,[],,,,,,53.2,1.0,u,0.0,False,825.9000000953674,50.0,60.0,40.0,False,,206.18629765117788,[],"[683, 384]",ColorTask,50.0,84.0,,,HRV,HRV_0011,2022-11-30 17:52:12
,wl-rdm,209,499336,0.0-8.84-0.84,1.0,200.0,,,,,,,[],,,,,,56.4,0.0,u,0.0,True,678.6999998092651,41.0,60.0,40.0,False,,315.1876542195364,[],"[683, 384]",ColorTask,51.0,85.0,,,HRV,HRV_0011,2022-11-30 17:52:12
,wl-rdm,210,501751,0.0-8.85-0.85,1.0,201.0,,,,,,,[],,,,,,50.0,0.0,u,0.0,True,943.2000002861023,57.0,60.0,40.0,False,,386.0114203889291,[],"[683, 384]",ColorTask,52.0,86.0,,,HRV,HRV_0011,2022-11-30 17:52:12
,wl-rdm,211,503998,0.0-8.86-0.86,1.0,202.0,,,,,,,[],,,,,,62.5,0.0,i,1.0,False,879.400000333786,53.0,60.0,40.0,False,,304.9771245005214,[],"[683, 384]",ColorTask,51.0,87.0,,,HRV,HRV_0011,2022-11-30 17:52:12
,wl-rdm,212,506030,0.0-8.87-0.87,1.0,203.0,,,,,,,[],,,,,,62.5,0.0,u,0.0,True,705.5999999046326,43.0,60.0,40.0,False,,241.47507875077116,[],"[683, 384]",ColorTask,52.0,88.0,,,HRV,HRV_0011,2022-11-30 17:52:12
,wl-rdm,213,508695,0.0-8.88-0.88,1.0,204.0,,,,,,,[],,,,,,56.4,1.0,u,0.0,False,1355.3000001907349,82.0,60.0,40.0,False,,228.74909550843716,[],"[683, 384]",ColorTask,51.0,89.0,,,HRV,HRV_0011,2022-11-30 17:52:12
,wl-rdm,214,510525,0.0-8.89-0.89,1.0,205.0,,,,,,,[],,,,,,73.6,1.0,u,0.0,False,362.5,22.0,60.0,40.0,False,,391.6419495773041,[],"[683, 384]",ColorTask,50.0,90.0,,,HRV,HRV_0011,2022-11-30 17:52:12
,wl-rdm,215,512657,0.0-8.90-0.90,1.0,206.0,,,,,,,[],,,,,,53.2,0.0,u,0.0,True,727.3999998569489,43.0,60.0,40.0,False,,324.9402086968036,[],"[683, 384]",ColorTask,51.0,91.0,,,HRV,HRV_0011,2022-11-30 17:52:12
,wl-rdm,216,514671,0.0-8.91-0.91,1.0,207.0,,,,,,,[],,,,,,56.4,1.0,u,0.0,False,546.2000000476837,33.0,60.0,40.0,False,,394.1195794389631,[],"[683, 384]",ColorTask,50.0,92.0,,,HRV,HRV_0011,2022-11-30 17:52:12
,wl-rdm,217,516569,0.0-8.92-0.92,1.0,208.0,,,,,,,[],,,,,,50.0,1.0,u,0.0,False,589.7000000476837,36.0,60.0,40.0,False,,224.2724554343688,[],"[683, 384]",ColorTask,49.0,93.0,,,HRV,HRV_0011,2022-11-30 17:52:12
,wl-rdm,218,518402,0.0-8.93-0.93,1.0,209.0,,,,,,,[],,,,,,50.0,0.0,u,0.0,True,436.0,26.0,60.0,40.0,False,,318.8548820836994,[],"[683, 384]",ColorTask,50.0,94.0,,,HRV,HRV_0011,2022-11-30 17:52:12
,wl-rdm,219,520182,0.0-8.94-0.94,1.0,210.0,,,,,,,[],,,,,,73.6,0.0,u,0.0,True,339.10000014305115,21.0,60.0,40.0,False,,353.4557003892724,[],"[683, 384]",ColorTask,51.0,95.0,,,HRV,HRV_0011,2022-11-30 17:52:12
,wl-rdm,220,521864,0.0-8.95-0.95,1.0,211.0,,,,,,,[],,,,,,62.5,0.0,u,0.0,True,406.60000014305115,25.0,60.0,40.0,False,,204.4425350884054,[],"[683, 384]",ColorTask,52.0,96.0,,,HRV,HRV_0011,2022-11-30 17:52:12
,wl-rdm,221,524095,0.0-8.96-0.96,1.0,212.0,,,,,,,[],,,,,,56.4,1.0,i,1.0,True,936.4000000953674,56.0,60.0,40.0,False,,223.70408233229816,[],"[683, 384]",ColorTask,53.0,97.0,,,HRV,HRV_0011,2022-11-30 17:52:12
,wl-rdm,222,526177,0.0-8.97-0.97,1.0,213.0,,,,,,,[],,,,,,73.6,1.0,i,1.0,True,707.2000002861023,43.0,60.0,40.0,False,,302.36689177692466,[],"[683, 384]",ColorTask,54.0,98.0,,,HRV,HRV_0011,2022-11-30 17:52:12
,wl-rdm,223,528008,0.0-8.98-0.98,1.0,214.0,,,,,,,[],,,,,,62.5,1.0,i,1.0,True,471.90000009536743,29.0,60.0,40.0,False,,273.70102329471354,[],"[683, 384]",ColorTask,55.0,99.0,,,HRV,HRV_0011,2022-11-30 17:52:12
,wl-rdm,224,529940,0.0-8.99-0.99,1.0,215.0,,,,,,,[],,,,,,53.2,1.0,u,0.0,False,614.2999999523163,37.0,60.0,40.0,False,,246.40870967784895,[],"[683, 384]",ColorTask,54.0,100.0,,,HRV,HRV_0011,2022-11-30 17:52:12
,wl-rdm,225,531839,0.0-8.100-0.100,1.0,216.0,,,,,,,[],,,,,,50.0,1.0,i,1.0,True,554.7000000476837,34.0,60.0,40.0,False,,265.32599922486384,[],"[683, 384]",ColorTask,55.0,101.0,,,HRV,HRV_0011,2022-11-30 17:52:12
,wl-rdm,226,533853,0.0-8.101-0.101,1.0,217.0,,,,,,,[],,,,,,53.2,0.0,i,1.0,False,723.6000001430511,44.0,60.0,40.0,False,,204.42154724550775,[],"[683, 384]",ColorTask,54.0,102.0,,,HRV,HRV_0011,2022-11-30 17:52:12
,wl-rdm,227,535901,0.0-8.102-0.102,1.0,218.0,,,,,,,[],,,,,,50.0,1.0,i,1.0,True,621.4999997615814,38.0,60.0,40.0,False,,356.5922238235162,[],"[683, 384]",ColorTask,55.0,103.0,,,HRV,HRV_0011,2022-11-30 17:52:12
,wl-rdm,228,537915,0.0-8.103-0.103,1.0,219.0,,,,,,,[],,,,,,87.9,0.0,u,0.0,True,705.9999997615814,43.0,60.0,40.0,False,,229.4633880084773,[],"[683, 384]",ColorTask,56.0,104.0,,,HRV,HRV_0011,2022-11-30 17:52:12
,wl-rdm,229,539964,0.0-8.104-0.104,1.0,220.0,,,,,,,[],,,,,,53.2,1.0,u,0.0,False,644.5,39.0,60.0,40.0,False,,318.5650490134751,[],"[683, 384]",ColorTask,55.0,105.0,,,HRV,HRV_0011,2022-11-30 17:52:12
,wl-rdm,230,541980,0.0-8.105-0.105,1.0,221.0,,,,,,,[],,,,,,87.9,1.0,i,1.0,True,629.3000001907349,38.0,60.0,40.0,False,,309.99710751159824,[],"[683, 384]",ColorTask,56.0,106.0,,,HRV,HRV_0011,2022-11-30 17:52:12
,wl-rdm,231,544159,0.0-8.106-0.106,1.0,222.0,,,,,,,[],,,,,,87.9,0.0,i,1.0,False,792.4000000953674,47.0,60.0,40.0,False,,315.92591644896277,[],"[683, 384]",ColorTask,55.0,107.0,,,HRV,HRV_0011,2022-11-30 17:52:12
,wl-rdm,232,546507,0.0-8.107-0.107,1.0,223.0,,,,,,,[],,,,,,56.4,0.0,u,0.0,True,1038.3999998569489,63.0,60.0,40.0,False,,230.7202038953554,[],"[683, 384]",ColorTask,56.0,108.0,,,HRV,HRV_0011,2022-11-30 17:52:12
,wl-rdm,233,548406,0.0-8.108-0.108,1.0,224.0,,,,,,,[],,,,,,87.9,1.0,i,1.0,True,629.7000000476837,38.0,60.0,40.0,False,,209.23106742865403,[],"[683, 384]",ColorTask,57.0,109.0,,,HRV,HRV_0011,2022-11-30 17:52:12
,wl-rdm,234,550819,0.0-8.109-0.109,1.0,225.0,,,,,,,[],,,,,,50.0,0.0,u,0.0,True,1091.4000000953674,66.0,60.0,40.0,False,,263.79117687961286,[],"[683, 384]",ColorTask,58.0,110.0,,,HRV,HRV_0011,2022-11-30 17:52:12
,wl-html-button-response,235,552284,0.0-9.0-0.0,,,,,,,,,,1452.9000000953674,,0,,,,,,,,,,,,,,,,,,,,<h3>End of this session. Thank you!</h3><br>,['Close window'],HRV,HRV_0011,2022-11-30 17:52:12
