trialN,stimuli,trialStartTime,trialStartTime_UNIX,stimulus1,stimulus2,stimulus1Bid,stimulus2Bid,delta,selected,rt,rt_UNIX,rt_perfnow,receivedResponse,rsp,trialEndTime,trialDuration,trialEndTime_UNIX,trialDuration_UNIX,exp,subjectId,date
0,"[{'imgObject': {}, 'id': 'mango', 'src': '/static/foodstim60/mango.jpg', 'key': 'u', 'origWidth': 411, 'origHeight': 411, 'width': 411, 'height': 411, 'widthPercent': 0.45, 'rescaleHeight': False, 'trialN': 0, 'loaded': True, 'loadedTime': 2668.7999999523163, 'positionName': 'LEFT', 'positionCoords': [244.68, 178.5], 'bid': 0.34}, {'imgObject': {}, 'id': 'steak', 'src': '/static/foodstim60/steak.jpg', 'key': 'i', 'origWidth': 410, 'origHeight': 410, 'width': 410, 'height': 410, 'widthPercent': 0.45, 'rescaleHeight': False, 'trialN': 0, 'loaded': True, 'loadedTime': 2879.2999999523163, 'positionName': 'RIGHT', 'positionCoords': [710.32, 179], 'bid': 0.24}]",3545.899999856949,1669829889252,mango,steak,0.34,0.24,-0.10000000000000003,mango,941.7000000476837,944,943.5,True,u,5001.399999856949,1455.5,1669829890708,1456,HRV,HRV_0011,2022-11-30 17:42:57
1,"[{'imgObject': {}, 'id': 'avocado', 'src': '/static/foodstim60/avocado.jpg', 'key': 'u', 'origWidth': 409, 'origHeight': 409, 'width': 409, 'height': 409, 'widthPercent': 0.45, 'rescaleHeight': False, 'trialN': 1, 'loaded': True, 'loadedTime': 2881, 'positionName': 'LEFT', 'positionCoords': [246.68, 179.5], 'bid': 0.78}, {'imgObject': {}, 'id': 'roastedpotatoes', 'src': '/static/foodstim60/roastedpotatoes.jpg', 'key': 'i', 'origWidth': 409, 'origHeight': 410, 'width': 409, 'height': 410, 'widthPercent': 0.45, 'rescaleHeight': False, 'trialN': 1, 'loaded': True, 'loadedTime': 2919.199999809265, 'positionName': 'RIGHT', 'positionCoords': [710.32, 179], 'bid': 9.5}]",5002.399999856949,1669829890709,avocado,roastedpotatoes,0.78,9.5,8.72,roastedpotatoes,669.1000001430511,670,670.6000001430511,True,i,6192.0,1189.6000001430511,1669829891898,1189,HRV,HRV_0011,2022-11-30 17:42:57
2,"[{'imgObject': {}, 'id': 'banana', 'src': '/static/foodstim60/banana.jpg', 'key': 'u', 'origWidth': 410, 'origHeight': 410, 'width': 410, 'height': 410, 'widthPercent': 0.45, 'rescaleHeight': False, 'trialN': 2, 'loaded': True, 'loadedTime': 2941.0999999046326, 'positionName': 'LEFT', 'positionCoords': [245.68, 179], 'bid': 3.34}, {'imgObject': {}, 'id': 'mashed potato', 'src': '/static/foodstim60/mashed potato.jpg', 'key': 'i', 'origWidth': 409, 'origHeight': 409, 'width': 409, 'height': 409, 'widthPercent': 0.45, 'rescaleHeight': False, 'trialN': 2, 'loaded': True, 'loadedTime': 2960.0999999046326, 'positionName': 'RIGHT', 'positionCoords': [710.32, 179.5], 'bid': 4.54}]",6192.899999856949,1669829891899,banana,mashed potato,3.34,4.54,1.2000000000000002,mashed potato,1325.9000000953674,1326,1327.4000000953674,True,i,8031.199999809265,1838.2999999523163,1669829893736,1837,HRV,HRV_0011,2022-11-30 17:42:57
3,"[{'imgObject': {}, 'id': 'cherries', 'src': '/static/foodstim60/cherries.jpg', 'key': 'u', 'origWidth': 410, 'origHeight': 411, 'width': 410, 'height': 411, 'widthPercent': 0.45, 'rescaleHeight': False, 'trialN': 3, 'loaded': True, 'loadedTime': 2980.2999999523163, 'positionName': 'LEFT', 'positionCoords': [245.68, 178.5], 'bid': 0.38}, {'imgObject': {}, 'id': 'blueberries', 'src': '/static/foodstim60/blueberries.jpg', 'key': 'i', 'origWidth': 411, 'origHeight': 411, 'width': 411, 'height': 411, 'widthPercent': 0.45, 'rescaleHeight': False, 'trialN': 3, 'loaded': True, 'loadedTime': 2986.0999999046326, 'positionName': 'RIGHT', 'positionCoords': [710.32, 178.5], 'bid': 0.38}]",8032.099999904633,1669829893737,cherries,blueberries,0.38,0.38,0.0,blueberries,682.9000000953674,684,684.2000000476837,True,i,9227.299999952316,1195.2000000476837,1669829894932,1195,HRV,HRV_0011,2022-11-30 17:42:57
4,"[{'imgObject': {}, 'id': 'raspberries', 'src': '/static/foodstim60/raspberries.jpg', 'key': 'u', 'origWidth': 411, 'origHeight': 411, 'width': 411, 'height': 411, 'widthPercent': 0.45, 'rescaleHeight': False, 'trialN': 4, 'loaded': True, 'loadedTime': 2998.5999999046326, 'positionName': 'LEFT', 'positionCoords': [244.68, 178.5], 'bid': 0.6900000000000001}, {'imgObject': {}, 'id': 'fried eggs', 'src': '/static/foodstim60/fried eggs.jpg', 'key': 'i', 'origWidth': 410, 'origHeight': 410, 'width': 410, 'height': 410, 'widthPercent': 0.45, 'rescaleHeight': False, 'trialN': 4, 'loaded': True, 'loadedTime': 3021.5, 'positionName': 'RIGHT', 'positionCoords': [710.32, 179], 'bid': 1.39}]",9228.199999809265,1669829894933,raspberries,fried eggs,0.6900000000000001,1.39,0.6999999999999998,fried eggs,1033.5,1035,1034.8000001907349,True,i,10774.5,1546.3000001907349,1669829896480,1547,HRV,HRV_0011,2022-11-30 17:42:57
5,"[{'imgObject': {}, 'id': 'cherry tomato', 'src': '/static/foodstim60/cherry tomato.jpg', 'key': 'u', 'origWidth': 410, 'origHeight': 410, 'width': 410, 'height': 410, 'widthPercent': 0.45, 'rescaleHeight': False, 'trialN': 5, 'loaded': True, 'loadedTime': 3041.2999999523163, 'positionName': 'LEFT', 'positionCoords': [245.68, 179], 'bid': 0.31}, {'imgObject': {}, 'id': 'shreddedwheatwithmilk', 'src': '/static/foodstim60/shreddedwheatwithmilk.jpg', 'key': 'i', 'origWidth': 410, 'origHeight': 410, 'width': 410, 'height': 410, 'widthPercent': 0.45, 'rescaleHeight': False, 'trialN': 5, 'loaded': True, 'loadedTime': 3058.5999999046326, 'positionName': 'RIGHT', 'positionCoords': [710.32, 179], 'bid': 0.38}]",10775.399999856949,1669829896480,cherry tomato,shreddedwheatwithmilk,0.31,0.38,0.07,shreddedwheatwithmilk,1263.0,1265,1264.2999999523163,True,i,12558.299999952316,1782.9000000953674,1669829898263,1783,HRV,HRV_0011,2022-11-30 17:42:57
6,"[{'imgObject': {}, 'id': 'mac & cheese', 'src': '/static/foodstim60/mac & cheese.jpg', 'key': 'u', 'origWidth': 410, 'origHeight': 410, 'width': 410, 'height': 410, 'widthPercent': 0.45, 'rescaleHeight': False, 'trialN': 6, 'loaded': True, 'loadedTime': 3081.399999856949, 'positionName': 'LEFT', 'positionCoords': [245.68, 179], 'bid': 9.78}, {'imgObject': {}, 'id': 'turkeysandwich', 'src': '/static/foodstim60/turkeysandwich.jpg', 'key': 'i', 'origWidth': 409, 'origHeight': 409, 'width': 409, 'height': 409, 'widthPercent': 0.45, 'rescaleHeight': False, 'trialN': 6, 'loaded': True, 'loadedTime': 3084.699999809265, 'positionName': 'RIGHT', 'positionCoords': [710.32, 179.5], 'bid': 0.98}]",12559.199999809265,1669829898264,mac & cheese,turkeysandwich,9.78,0.98,-8.799999999999999,mac & cheese,691.7000000476837,693,693.0,True,u,13755.699999809265,1196.5,1669829899461,1197,HRV,HRV_0011,2022-11-30 17:42:57
7,"[{'imgObject': {}, 'id': 'cherries', 'src': '/static/foodstim60/cherries.jpg', 'key': 'u', 'origWidth': 410, 'origHeight': 411, 'width': 410, 'height': 411, 'widthPercent': 0.45, 'rescaleHeight': False, 'trialN': 7, 'loaded': True, 'loadedTime': 2963.0999999046326, 'positionName': 'LEFT', 'positionCoords': [245.68, 178.5], 'bid': 0.38}, {'imgObject': {}, 'id': 'mac & cheese', 'src': '/static/foodstim60/mac & cheese.jpg', 'key': 'i', 'origWidth': 410, 'origHeight': 410, 'width': 410, 'height': 410, 'widthPercent': 0.45, 'rescaleHeight': False, 'trialN': 7, 'loaded': True, 'loadedTime': 3082, 'positionName': 'RIGHT', 'positionCoords': [710.32, 179], 'bid': 9.78}]",13756.5,1669829899462,cherries,mac & cheese,0.38,9.78,9.399999999999999,mac & cheese,630.1999998092651,631,631.5,True,i,14898.899999856949,1142.3999998569489,1669829900604,1142,HRV,HRV_0011,2022-11-30 17:42:57
8,"[{'imgObject': {}, 'id': 'banana', 'src': '/static/foodstim60/banana.jpg', 'key': 'u', 'origWidth': 410, 'origHeight': 410, 'width': 410, 'height': 410, 'widthPercent': 0.45, 'rescaleHeight': False, 'trialN': 8, 'loaded': True, 'loadedTime': 2923.5, 'positionName': 'LEFT', 'positionCoords': [245.68, 179], 'bid': 3.34}, {'imgObject': {}, 'id': 'Tribe humus pita', 'src': '/static/foodstim60/Tribe humus pita.jpg', 'key': 'i', 'origWidth': 411, 'origHeight': 411, 'width': 411, 'height': 411, 'widthPercent': 0.45, 'rescaleHeight': False, 'trialN': 8, 'loaded': True, 'loadedTime': 3104.2999999523163, 'positionName': 'RIGHT', 'positionCoords': [710.32, 178.5], 'bid': 4.03}]",14899.899999856949,1669829900605,banana,Tribe humus pita,3.34,4.03,0.6900000000000004,Tribe humus pita,1068.5,1070,1069.7999999523163,True,i,16481.5,1581.6000001430511,1669829902187,1582,HRV,HRV_0011,2022-11-30 17:42:57
9,"[{'imgObject': {}, 'id': 'blackbeanswithrice', 'src': '/static/foodstim60/blackbeanswithrice.jpg', 'key': 'u', 'origWidth': 410, 'origHeight': 410, 'width': 410, 'height': 410, 'widthPercent': 0.45, 'rescaleHeight': False, 'trialN': 9, 'loaded': True, 'loadedTime': 3108.5999999046326, 'positionName': 'LEFT', 'positionCoords': [245.68, 179], 'bid': 0.46}, {'imgObject': {}, 'id': 'rigatoni and sauce', 'src': '/static/foodstim60/rigatoni and sauce.jpg', 'key': 'i', 'origWidth': 410, 'origHeight': 411, 'width': 410, 'height': 411, 'widthPercent': 0.45, 'rescaleHeight': False, 'trialN': 9, 'loaded': True, 'loadedTime': 3127.899999856949, 'positionName': 'RIGHT', 'positionCoords': [710.32, 178.5], 'bid': 0.24}]",16482.39999985695,1669829902187,blackbeanswithrice,rigatoni and sauce,0.46,0.24,-0.22000000000000003,rigatoni and sauce,627.6000001430511,629,628.9000000953674,True,i,17622.0,1139.6000001430511,1669829903327,1140,HRV,HRV_0011,2022-11-30 17:42:57
10,"[{'imgObject': {}, 'id': 'edamame', 'src': '/static/foodstim60/edamame.jpg', 'key': 'u', 'origWidth': 409, 'origHeight': 410, 'width': 409, 'height': 410, 'widthPercent': 0.45, 'rescaleHeight': False, 'trialN': 10, 'loaded': True, 'loadedTime': 3131.199999809265, 'positionName': 'LEFT', 'positionCoords': [246.68, 179], 'bid': 0.31}, {'imgObject': {}, 'id': 'Grapes', 'src': '/static/foodstim60/Grapes.jpg', 'key': 'i', 'origWidth': 411, 'origHeight': 411, 'width': 411, 'height': 411, 'widthPercent': 0.45, 'rescaleHeight': False, 'trialN': 10, 'loaded': True, 'loadedTime': 3147.0999999046326, 'positionName': 'RIGHT', 'positionCoords': [710.32, 178.5], 'bid': 0.03}]",17622.89999985695,1669829903328,edamame,Grapes,0.31,0.03,-0.28,Grapes,795.2999999523163,796,796.5,True,i,18930.299999952316,1307.4000000953674,1669829904635,1307,HRV,HRV_0011,2022-11-30 17:42:57
11,"[{'imgObject': {}, 'id': 'popsicles', 'src': '/static/foodstim60/popsicles.jpg', 'key': 'u', 'origWidth': 410, 'origHeight': 410, 'width': 410, 'height': 410, 'widthPercent': 0.45, 'rescaleHeight': False, 'trialN': 11, 'loaded': True, 'loadedTime': 3544.5999999046326, 'positionName': 'LEFT', 'positionCoords': [245.68, 179], 'bid': 0.35}, {'imgObject': {}, 'id': 'froot loops w milk', 'src': '/static/foodstim60/froot loops w milk.jpg', 'key': 'i', 'origWidth': 410, 'origHeight': 410, 'width': 410, 'height': 410, 'widthPercent': 0.45, 'rescaleHeight': False, 'trialN': 11, 'loaded': True, 'loadedTime': 3166.199999809265, 'positionName': 'RIGHT', 'positionCoords': [710.32, 179], 'bid': 0.32}]",18931.099999904633,1669829904636,popsicles,froot loops w milk,0.35,0.32,-0.02999999999999997,froot loops w milk,900.4000000953674,906,906.0999999046326,True,i,20345.599999904633,1414.5,1669829906051,1415,HRV,HRV_0011,2022-11-30 17:42:57
12,"[{'imgObject': {}, 'id': 'chicken nuggets2', 'src': '/static/foodstim60/chicken nuggets2.jpg', 'key': 'u', 'origWidth': 410, 'origHeight': 409, 'width': 410, 'height': 409, 'widthPercent': 0.45, 'rescaleHeight': False, 'trialN': 12, 'loaded': True, 'loadedTime': 3190.7999999523163, 'positionName': 'LEFT', 'positionCoords': [245.68, 179.5], 'bid': 2.95}, {'imgObject': {}, 'id': 'strawberries', 'src': '/static/foodstim60/strawberries.jpg', 'key': 'i', 'origWidth': 410, 'origHeight': 410, 'width': 410, 'height': 410, 'widthPercent': 0.45, 'rescaleHeight': False, 'trialN': 12, 'loaded': True, 'loadedTime': 3214, 'positionName': 'RIGHT', 'positionCoords': [710.32, 179], 'bid': 3.25}]",20346.599999904633,1669829906052,chicken nuggets2,strawberries,2.95,3.25,0.2999999999999998,strawberries,1292.4000000953674,1294,1294.2999999523163,True,i,22160.599999904633,1814.0,1669829907866,1814,HRV,HRV_0011,2022-11-30 17:42:57
13,"[{'imgObject': {}, 'id': 'cherries', 'src': '/static/foodstim60/cherries.jpg', 'key': 'u', 'origWidth': 410, 'origHeight': 411, 'width': 410, 'height': 411, 'widthPercent': 0.45, 'rescaleHeight': False, 'trialN': 13, 'loaded': True, 'loadedTime': 2960.399999856949, 'positionName': 'LEFT', 'positionCoords': [245.68, 178.5], 'bid': 0.38}, {'imgObject': {}, 'id': 'orange slices', 'src': '/static/foodstim60/orange slices.jpg', 'key': 'i', 'origWidth': 409, 'origHeight': 410, 'width': 409, 'height': 410, 'widthPercent': 0.45, 'rescaleHeight': False, 'trialN': 13, 'loaded': True, 'loadedTime': 3261.199999809265, 'positionName': 'RIGHT', 'positionCoords': [710.32, 179], 'bid': 0.51}]",22161.5,1669829907866,cherries,orange slices,0.38,0.51,0.13,orange slices,1302.1999998092651,1304,1303.3999998569489,True,i,23977.199999809265,1815.6999998092651,1669829909682,1816,HRV,HRV_0011,2022-11-30 17:42:57
14,"[{'imgObject': {}, 'id': 'eggsalad', 'src': '/static/foodstim60/eggsalad.jpg', 'key': 'u', 'origWidth': 410, 'origHeight': 409, 'width': 410, 'height': 409, 'widthPercent': 0.45, 'rescaleHeight': False, 'trialN': 14, 'loaded': True, 'loadedTime': 3195.2999999523163, 'positionName': 'LEFT', 'positionCoords': [245.68, 179.5], 'bid': 0.78}, {'imgObject': {}, 'id': 'salad w chicken', 'src': '/static/foodstim60/salad w chicken.jpg', 'key': 'i', 'origWidth': 411, 'origHeight': 411, 'width': 411, 'height': 411, 'widthPercent': 0.45, 'rescaleHeight': False, 'trialN': 14, 'loaded': True, 'loadedTime': 3220.399999856949, 'positionName': 'RIGHT', 'positionCoords': [710.32, 178.5], 'bid': 6.93}]",23977.599999904633,1669829909683,eggsalad,salad w chicken,0.78,6.93,6.1499999999999995,salad w chicken,672.2999999523163,673,673.7000000476837,True,i,25159.5,1181.9000000953674,1669829910865,1182,HRV,HRV_0011,2022-11-30 17:42:57
15,"[{'imgObject': {}, 'id': 'kiwi', 'src': '/static/foodstim60/kiwi.jpg', 'key': 'u', 'origWidth': 410, 'origHeight': 410, 'width': 410, 'height': 410, 'widthPercent': 0.45, 'rescaleHeight': False, 'trialN': 15, 'loaded': True, 'loadedTime': 3223.899999856949, 'positionName': 'LEFT', 'positionCoords': [245.68, 179], 'bid': 0.32}, {'imgObject': {}, 'id': 'granola w milk', 'src': '/static/foodstim60/granola w milk.jpg', 'key': 'i', 'origWidth': 410, 'origHeight': 410, 'width': 410, 'height': 410, 'widthPercent': 0.45, 'rescaleHeight': False, 'trialN': 15, 'loaded': True, 'loadedTime': 3242.699999809265, 'positionName': 'RIGHT', 'positionCoords': [710.32, 179], 'bid': 0.32}]",25160.5,1669829910865,kiwi,granola w milk,0.32,0.32,0.0,kiwi,992.8999998569489,995,994.0999999046326,True,u,26673.39999985695,1512.8999998569489,1669829912378,1513,HRV,HRV_0011,2022-11-30 17:42:57
16,"[{'imgObject': {}, 'id': 'yogurt no spoon', 'src': '/static/foodstim60/yogurt no spoon.jpg', 'key': 'u', 'origWidth': 411, 'origHeight': 410, 'width': 411, 'height': 410, 'widthPercent': 0.45, 'rescaleHeight': False, 'trialN': 16, 'loaded': True, 'loadedTime': 3263.5999999046326, 'positionName': 'LEFT', 'positionCoords': [244.68, 179], 'bid': 0.6}, {'imgObject': {}, 'id': 'salmon', 'src': '/static/foodstim60/salmon.jpg', 'key': 'i', 'origWidth': 410, 'origHeight': 409, 'width': 410, 'height': 409, 'widthPercent': 0.45, 'rescaleHeight': False, 'trialN': 16, 'loaded': True, 'loadedTime': 3268.7999999523163, 'positionName': 'RIGHT', 'positionCoords': [710.32, 179.5], 'bid': 0.66}]",26674.199999809265,1669829912379,yogurt no spoon,salmon,0.6,0.66,0.06000000000000005,salmon,810.2000000476837,812,811.5,True,i,27988.599999904633,1314.4000000953674,1669829913694,1315,HRV,HRV_0011,2022-11-30 17:42:57
17,"[{'imgObject': {}, 'id': 'luckycharms', 'src': '/static/foodstim60/luckycharms.jpg', 'key': 'u', 'origWidth': 410, 'origHeight': 409, 'width': 410, 'height': 409, 'widthPercent': 0.45, 'rescaleHeight': False, 'trialN': 17, 'loaded': True, 'loadedTime': 3286.399999856949, 'positionName': 'LEFT', 'positionCoords': [245.68, 179.5], 'bid': 0.35}, {'imgObject': {}, 'id': 'apple slices', 'src': '/static/foodstim60/apple slices.jpg', 'key': 'i', 'origWidth': 409, 'origHeight': 410, 'width': 409, 'height': 410, 'widthPercent': 0.45, 'rescaleHeight': False, 'trialN': 17, 'loaded': True, 'loadedTime': 3303.899999856949, 'positionName': 'RIGHT', 'positionCoords': [710.32, 179], 'bid': 0.35}]",27989.39999985695,1669829913694,luckycharms,apple slices,0.35,0.35,0.0,luckycharms,1063.7999999523163,1066,1065.1000001430511,True,u,29575.39999985695,1586.0,1669829915280,1586,HRV,HRV_0011,2022-11-30 17:42:57
18,"[{'imgObject': {}, 'id': 'hotdog w must', 'src': '/static/foodstim60/hotdog w must.jpg', 'key': 'u', 'origWidth': 409, 'origHeight': 409, 'width': 409, 'height': 409, 'widthPercent': 0.45, 'rescaleHeight': False, 'trialN': 18, 'loaded': True, 'loadedTime': 3324.199999809265, 'positionName': 'LEFT', 'positionCoords': [246.68, 179.5], 'bid': 0.35}, {'imgObject': {}, 'id': 'banana', 'src': '/static/foodstim60/banana.jpg', 'key': 'i', 'origWidth': 410, 'origHeight': 410, 'width': 410, 'height': 410, 'widthPercent': 0.45, 'rescaleHeight': False, 'trialN': 18, 'loaded': True, 'loadedTime': 2921.399999856949, 'positionName': 'RIGHT', 'positionCoords': [710.32, 179], 'bid': 3.34}]",29575.89999985695,1669829915281,hotdog w must,banana,0.35,3.34,2.9899999999999998,banana,672.1000001430511,673,673.4000000953674,True,i,30768.799999952316,1192.9000000953674,1669829916474,1193,HRV,HRV_0011,2022-11-30 17:42:57
19,"[{'imgObject': {}, 'id': 'baked potato', 'src': '/static/foodstim60/baked potato.jpg', 'key': 'u', 'origWidth': 409, 'origHeight': 410, 'width': 409, 'height': 410, 'widthPercent': 0.45, 'rescaleHeight': False, 'trialN': 19, 'loaded': True, 'loadedTime': 3327.5, 'positionName': 'LEFT', 'positionCoords': [246.68, 179], 'bid': 1.32}, {'imgObject': {}, 'id': 'chickenfingers', 'src': '/static/foodstim60/chickenfingers.jpg', 'key': 'i', 'origWidth': 410, 'origHeight': 410, 'width': 410, 'height': 410, 'widthPercent': 0.45, 'rescaleHeight': False, 'trialN': 19, 'loaded': True, 'loadedTime': 3346.2999999523163, 'positionName': 'RIGHT', 'positionCoords': [710.32, 179], 'bid': 5.7700000000000005}]",30769.599999904633,1669829916475,baked potato,chickenfingers,1.32,5.7700000000000005,4.45,chickenfingers,1106.2000000476837,1108,1108.0,True,i,32385.699999809265,1616.0999999046326,1669829918091,1616,HRV,HRV_0011,2022-11-30 17:42:57
20,"[{'imgObject': {}, 'id': 'ice cream sundae 002', 'src': '/static/foodstim60/ice cream sundae 002.jpg', 'key': 'u', 'origWidth': 409, 'origHeight': 409, 'width': 409, 'height': 409, 'widthPercent': 0.45, 'rescaleHeight': False, 'trialN': 20, 'loaded': True, 'loadedTime': 3346.5, 'positionName': 'LEFT', 'positionCoords': [246.68, 179.5], 'bid': 0.35}, {'imgObject': {}, 'id': 'seaweed', 'src': '/static/foodstim60/seaweed.jpg', 'key': 'i', 'origWidth': 410, 'origHeight': 410, 'width': 410, 'height': 410, 'widthPercent': 0.45, 'rescaleHeight': False, 'trialN': 20, 'loaded': True, 'loadedTime': 3351, 'positionName': 'RIGHT', 'positionCoords': [710.32, 179], 'bid': 0.3}]",32386.599999904633,1669829918092,ice cream sundae 002,seaweed,0.35,0.3,-0.04999999999999999,ice cream sundae 002,889.7999999523163,891,891.2000000476837,True,u,33792.59999990463,1406.0,1669829919498,1406,HRV,HRV_0011,2022-11-30 17:42:57
21,"[{'imgObject': {}, 'id': 'burrito', 'src': '/static/foodstim60/burrito.jpg', 'key': 'u', 'origWidth': 410, 'origHeight': 410, 'width': 410, 'height': 410, 'widthPercent': 0.45, 'rescaleHeight': False, 'trialN': 21, 'loaded': True, 'loadedTime': 3371.899999856949, 'positionName': 'LEFT', 'positionCoords': [245.68, 179], 'bid': 0.37}, {'imgObject': {}, 'id': 'cheerios', 'src': '/static/foodstim60/cheerios.jpg', 'key': 'i', 'origWidth': 409, 'origHeight': 410, 'width': 409, 'height': 410, 'widthPercent': 0.45, 'rescaleHeight': False, 'trialN': 21, 'loaded': True, 'loadedTime': 3372.899999856949, 'positionName': 'RIGHT', 'positionCoords': [710.32, 179], 'bid': 0.38}]",33793.5,1669829919498,burrito,cheerios,0.37,0.38,0.010000000000000009,cheerios,1399.7999999523163,1402,1401.0999999046326,True,i,35712.799999952316,1919.2999999523163,1669829921418,1920,HRV,HRV_0011,2022-11-30 17:42:57
22,"[{'imgObject': {}, 'id': 'salad w chicken', 'src': '/static/foodstim60/salad w chicken.jpg', 'key': 'u', 'origWidth': 411, 'origHeight': 411, 'width': 411, 'height': 411, 'widthPercent': 0.45, 'rescaleHeight': False, 'trialN': 22, 'loaded': True, 'loadedTime': 3218.5, 'positionName': 'LEFT', 'positionCoords': [244.68, 178.5], 'bid': 6.93}, {'imgObject': {}, 'id': 'corn cob', 'src': '/static/foodstim60/corn cob.jpg', 'key': 'i', 'origWidth': 411, 'origHeight': 411, 'width': 411, 'height': 411, 'widthPercent': 0.45, 'rescaleHeight': False, 'trialN': 22, 'loaded': True, 'loadedTime': 3395.2999999523163, 'positionName': 'RIGHT', 'positionCoords': [710.32, 178.5], 'bid': 6.7700000000000005}]",35713.699999809265,1669829921419,salad w chicken,corn cob,6.93,6.7700000000000005,-0.15999999999999925,corn cob,942.0,943,943.2000000476837,True,i,37164.699999809265,1451.0,1669829922870,1451,HRV,HRV_0011,2022-11-30 17:42:57
23,"[{'imgObject': {}, 'id': 'cantaloupe', 'src': '/static/foodstim60/cantaloupe.jpg', 'key': 'u', 'origWidth': 409, 'origHeight': 409, 'width': 409, 'height': 409, 'widthPercent': 0.45, 'rescaleHeight': False, 'trialN': 23, 'loaded': True, 'loadedTime': 3400.5, 'positionName': 'LEFT', 'positionCoords': [246.68, 179.5], 'bid': 2.56}, {'imgObject': {}, 'id': 'hashbrowns', 'src': '/static/foodstim60/hashbrowns.jpg', 'key': 'i', 'origWidth': 411, 'origHeight': 410, 'width': 411, 'height': 410, 'widthPercent': 0.45, 'rescaleHeight': False, 'trialN': 23, 'loaded': True, 'loadedTime': 3423.199999809265, 'positionName': 'RIGHT', 'positionCoords': [710.32, 179], 'bid': 0.46}]",37165.5,1669829922871,cantaloupe,hashbrowns,2.56,0.46,-2.1,cantaloupe,1915.7999999523163,1917,1917.0,True,u,39593.699999809265,2428.199999809265,1669829925299,2428,HRV,HRV_0011,2022-11-30 17:42:57
24,"[{'imgObject': {}, 'id': 'blueberries', 'src': '/static/foodstim60/blueberries.jpg', 'key': 'u', 'origWidth': 411, 'origHeight': 411, 'width': 411, 'height': 411, 'widthPercent': 0.45, 'rescaleHeight': False, 'trialN': 24, 'loaded': True, 'loadedTime': 2986.399999856949, 'positionName': 'LEFT', 'positionCoords': [244.68, 178.5], 'bid': 0.38}, {'imgObject': {}, 'id': 'raisin bran w milk', 'src': '/static/foodstim60/raisin bran w milk.jpg', 'key': 'i', 'origWidth': 411, 'origHeight': 411, 'width': 411, 'height': 411, 'widthPercent': 0.45, 'rescaleHeight': False, 'trialN': 24, 'loaded': True, 'loadedTime': 3425.399999856949, 'positionName': 'RIGHT', 'positionCoords': [710.32, 178.5], 'bid': 0.4}]",39594.39999985695,1669829925299,blueberries,raisin bran w milk,0.38,0.4,0.020000000000000018,blueberries,1255.4000000953674,1257,1256.7999999523163,True,u,41362.5,1768.1000001430511,1669829927067,1768,HRV,HRV_0011,2022-11-30 17:42:57
25,"[{'imgObject': {}, 'id': 'mashed potato', 'src': '/static/foodstim60/mashed potato.jpg', 'key': 'u', 'origWidth': 409, 'origHeight': 409, 'width': 409, 'height': 409, 'widthPercent': 0.45, 'rescaleHeight': False, 'trialN': 25, 'loaded': True, 'loadedTime': 2947.5, 'positionName': 'LEFT', 'positionCoords': [246.68, 179.5], 'bid': 4.54}, {'imgObject': {}, 'id': 'chickenfingers', 'src': '/static/foodstim60/chickenfingers.jpg', 'key': 'i', 'origWidth': 410, 'origHeight': 410, 'width': 410, 'height': 410, 'widthPercent': 0.45, 'rescaleHeight': False, 'trialN': 25, 'loaded': True, 'loadedTime': 3330.699999809265, 'positionName': 'RIGHT', 'positionCoords': [710.32, 179], 'bid': 5.7700000000000005}]",41363.39999985695,1669829927068,mashed potato,chickenfingers,4.54,5.7700000000000005,1.2300000000000004,mashed potato,683.4000000953674,685,684.7999999523163,True,u,42559.39999985695,1196.0,1669829928264,1196,HRV,HRV_0011,2022-11-30 17:42:57
26,"[{'imgObject': {}, 'id': 'burrito', 'src': '/static/foodstim60/burrito.jpg', 'key': 'u', 'origWidth': 410, 'origHeight': 410, 'width': 410, 'height': 410, 'widthPercent': 0.45, 'rescaleHeight': False, 'trialN': 26, 'loaded': True, 'loadedTime': 3371.0999999046326, 'positionName': 'LEFT', 'positionCoords': [245.68, 179], 'bid': 0.37}, {'imgObject': {}, 'id': 'blackbeanswithrice', 'src': '/static/foodstim60/blackbeanswithrice.jpg', 'key': 'i', 'origWidth': 410, 'origHeight': 410, 'width': 410, 'height': 410, 'widthPercent': 0.45, 'rescaleHeight': False, 'trialN': 26, 'loaded': True, 'loadedTime': 3107, 'positionName': 'RIGHT', 'positionCoords': [710.32, 179], 'bid': 0.46}]",42560.199999809265,1669829928265,burrito,blackbeanswithrice,0.37,0.46,0.09000000000000002,burrito,1235.3000001907349,1237,1236.7000000476837,True,u,44312.699999809265,1752.5,1669829930018,1753,HRV,HRV_0011,2022-11-30 17:42:57
27,"[{'imgObject': {}, 'id': 'cantaloupe', 'src': '/static/foodstim60/cantaloupe.jpg', 'key': 'u', 'origWidth': 409, 'origHeight': 409, 'width': 409, 'height': 409, 'widthPercent': 0.45, 'rescaleHeight': False, 'trialN': 27, 'loaded': True, 'loadedTime': 3399.7999999523163, 'positionName': 'LEFT', 'positionCoords': [246.68, 179.5], 'bid': 2.56}, {'imgObject': {}, 'id': 'burger', 'src': '/static/foodstim60/burger.jpg', 'key': 'i', 'origWidth': 409, 'origHeight': 409, 'width': 409, 'height': 409, 'widthPercent': 0.45, 'rescaleHeight': False, 'trialN': 27, 'loaded': True, 'loadedTime': 3431, 'positionName': 'RIGHT', 'positionCoords': [710.32, 179.5], 'bid': 2.65}]",44313.5,1669829930019,cantaloupe,burger,2.56,2.65,0.08999999999999986,burger,682.7999999523163,684,684.1999998092651,True,i,45508.699999809265,1195.1999998092651,1669829931214,1195,HRV,HRV_0011,2022-11-30 17:42:57
28,"[{'imgObject': {}, 'id': 'omelette', 'src': '/static/foodstim60/omelette.jpg', 'key': 'u', 'origWidth': 410, 'origHeight': 409, 'width': 410, 'height': 409, 'widthPercent': 0.45, 'rescaleHeight': False, 'trialN': 28, 'loaded': True, 'loadedTime': 3434.399999856949, 'positionName': 'LEFT', 'positionCoords': [245.68, 179.5], 'bid': 0.19}, {'imgObject': {}, 'id': 'tacos', 'src': '/static/foodstim60/tacos.jpg', 'key': 'i', 'origWidth': 411, 'origHeight': 411, 'width': 411, 'height': 411, 'widthPercent': 0.45, 'rescaleHeight': False, 'trialN': 28, 'loaded': True, 'loadedTime': 3448.5, 'positionName': 'RIGHT', 'positionCoords': [710.32, 178.5], 'bid': 0.24}]",45509.59999990463,1669829931215,omelette,tacos,0.19,0.24,0.04999999999999999,omelette,1203.2999999523163,1204,1204.5999999046326,True,u,47228.39999985695,1718.7999999523163,1669829932933,1718,HRV,HRV_0011,2022-11-30 17:42:57
29,"[{'imgObject': {}, 'id': 'burrito', 'src': '/static/foodstim60/burrito.jpg', 'key': 'u', 'origWidth': 410, 'origHeight': 410, 'width': 410, 'height': 410, 'widthPercent': 0.45, 'rescaleHeight': False, 'trialN': 29, 'loaded': True, 'loadedTime': 3372.0999999046326, 'positionName': 'LEFT', 'positionCoords': [245.68, 179], 'bid': 0.37}, {'imgObject': {}, 'id': 'raisin bran w milk', 'src': '/static/foodstim60/raisin bran w milk.jpg', 'key': 'i', 'origWidth': 411, 'origHeight': 411, 'width': 411, 'height': 411, 'widthPercent': 0.45, 'rescaleHeight': False, 'trialN': 29, 'loaded': True, 'loadedTime': 3427.5999999046326, 'positionName': 'RIGHT', 'positionCoords': [710.32, 178.5], 'bid': 0.4}]",47229.199999809265,1669829932934,burrito,raisin bran w milk,0.37,0.4,0.030000000000000027,burrito,1225.6000001430511,1227,1226.8000001907349,True,u,48965.699999809265,1736.5,1669829934671,1737,HRV,HRV_0011,2022-11-30 17:42:57
30,"[{'imgObject': {}, 'id': 'Grapes', 'src': '/static/foodstim60/Grapes.jpg', 'key': 'u', 'origWidth': 411, 'origHeight': 411, 'width': 411, 'height': 411, 'widthPercent': 0.45, 'rescaleHeight': False, 'trialN': 30, 'loaded': True, 'loadedTime': 3151.2999999523163, 'positionName': 'LEFT', 'positionCoords': [244.68, 178.5], 'bid': 0.03}, {'imgObject': {}, 'id': 'granola w milk', 'src': '/static/foodstim60/granola w milk.jpg', 'key': 'i', 'origWidth': 410, 'origHeight': 410, 'width': 410, 'height': 410, 'widthPercent': 0.45, 'rescaleHeight': False, 'trialN': 30, 'loaded': True, 'loadedTime': 3243, 'positionName': 'RIGHT', 'positionCoords': [710.32, 179], 'bid': 0.32}]",48966.59999990463,1669829934672,Grapes,granola w milk,0.03,0.32,0.29000000000000004,Grapes,1046.4000000953674,1047,1047.7000000476837,True,u,50532.799999952316,1566.2000000476837,1669829936238,1566,HRV,HRV_0011,2022-11-30 17:42:57
31,"[{'imgObject': {}, 'id': 'lox', 'src': '/static/foodstim60/lox.jpg', 'key': 'u', 'origWidth': 410, 'origHeight': 411, 'width': 410, 'height': 411, 'widthPercent': 0.45, 'rescaleHeight': False, 'trialN': 31, 'loaded': True, 'loadedTime': 3453.2999999523163, 'positionName': 'LEFT', 'positionCoords': [245.68, 178.5], 'bid': 0.38}, {'imgObject': {}, 'id': 'burrito', 'src': '/static/foodstim60/burrito.jpg', 'key': 'i', 'origWidth': 410, 'origHeight': 410, 'width': 410, 'height': 410, 'widthPercent': 0.45, 'rescaleHeight': False, 'trialN': 31, 'loaded': True, 'loadedTime': 3369.2999999523163, 'positionName': 'RIGHT', 'positionCoords': [710.32, 179], 'bid': 0.37}]",50533.59999990463,1669829936239,lox,burrito,0.38,0.37,-0.010000000000000009,burrito,1019.0,1020,1020.5,True,i,52062.799999952316,1529.2000000476837,1669829937768,1529,HRV,HRV_0011,2022-11-30 17:42:57
32,"[{'imgObject': {}, 'id': 'sweetpotato', 'src': '/static/foodstim60/sweetpotato.jpg', 'key': 'u', 'origWidth': 410, 'origHeight': 410, 'width': 410, 'height': 410, 'widthPercent': 0.45, 'rescaleHeight': False, 'trialN': 32, 'loaded': True, 'loadedTime': 3456.5999999046326, 'positionName': 'LEFT', 'positionCoords': [245.68, 179], 'bid': 1.79}, {'imgObject': {}, 'id': 'salad w chicken', 'src': '/static/foodstim60/salad w chicken.jpg', 'key': 'i', 'origWidth': 411, 'origHeight': 411, 'width': 411, 'height': 411, 'widthPercent': 0.45, 'rescaleHeight': False, 'trialN': 32, 'loaded': True, 'loadedTime': 3220.7999999523163, 'positionName': 'RIGHT', 'positionCoords': [710.32, 178.5], 'bid': 6.93}]",52063.59999990463,1669829937769,sweetpotato,salad w chicken,1.79,6.93,5.14,salad w chicken,635.4000000953674,636,636.9000000953674,True,i,53211.299999952316,1147.7000000476837,1669829938916,1147,HRV,HRV_0011,2022-11-30 17:42:57
33,"[{'imgObject': {}, 'id': 'ice cream sundae 002', 'src': '/static/foodstim60/ice cream sundae 002.jpg', 'key': 'u', 'origWidth': 409, 'origHeight': 409, 'width': 409, 'height': 409, 'widthPercent': 0.45, 'rescaleHeight': False, 'trialN': 33, 'loaded': True, 'loadedTime': 3350.2999999523163, 'positionName': 'LEFT', 'positionCoords': [246.68, 179.5], 'bid': 0.35}, {'imgObject': {}, 'id': 'tacos', 'src': '/static/foodstim60/tacos.jpg', 'key': 'i', 'origWidth': 411, 'origHeight': 411, 'width': 411, 'height': 411, 'widthPercent': 0.45, 'rescaleHeight': False, 'trialN': 33, 'loaded': True, 'loadedTime': 3446.5999999046326, 'positionName': 'RIGHT', 'positionCoords': [710.32, 178.5], 'bid': 0.24}]",53212.09999990463,1669829938917,ice cream sundae 002,tacos,0.35,0.24,-0.10999999999999999,tacos,1080.0,1081,1081.0999999046326,True,i,54795.699999809265,1583.5999999046326,1669829940501,1584,HRV,HRV_0011,2022-11-30 17:42:57
34,"[{'imgObject': {}, 'id': 'mango', 'src': '/static/foodstim60/mango.jpg', 'key': 'u', 'origWidth': 411, 'origHeight': 411, 'width': 411, 'height': 411, 'widthPercent': 0.45, 'rescaleHeight': False, 'trialN': 34, 'loaded': True, 'loadedTime': 2827.5999999046326, 'positionName': 'LEFT', 'positionCoords': [244.68, 178.5], 'bid': 0.34}, {'imgObject': {}, 'id': 'luckycharms', 'src': '/static/foodstim60/luckycharms.jpg', 'key': 'i', 'origWidth': 410, 'origHeight': 409, 'width': 410, 'height': 409, 'widthPercent': 0.45, 'rescaleHeight': False, 'trialN': 34, 'loaded': True, 'loadedTime': 3284.399999856949, 'positionName': 'RIGHT', 'positionCoords': [710.32, 179.5], 'bid': 0.35}]",54796.59999990463,1669829940502,mango,luckycharms,0.34,0.35,0.009999999999999953,mango,1141.9000000953674,1143,1143.4000000953674,True,u,56459.0,1662.4000000953674,1669829942164,1662,HRV,HRV_0011,2022-11-30 17:42:57
35,"[{'imgObject': {}, 'id': 'avocado', 'src': '/static/foodstim60/avocado.jpg', 'key': 'u', 'origWidth': 409, 'origHeight': 409, 'width': 409, 'height': 409, 'widthPercent': 0.45, 'rescaleHeight': False, 'trialN': 35, 'loaded': True, 'loadedTime': 2901.5, 'positionName': 'LEFT', 'positionCoords': [246.68, 179.5], 'bid': 0.78}, {'imgObject': {}, 'id': 'bagel and cc', 'src': '/static/foodstim60/bagel and cc.jpg', 'key': 'i', 'origWidth': 410, 'origHeight': 410, 'width': 410, 'height': 410, 'widthPercent': 0.45, 'rescaleHeight': False, 'trialN': 35, 'loaded': True, 'loadedTime': 3476.5, 'positionName': 'RIGHT', 'positionCoords': [710.32, 179], 'bid': 0.76}]",56459.39999985695,1669829942164,avocado,bagel and cc,0.78,0.76,-0.020000000000000018,bagel and cc,683.0,685,684.4000000953674,True,i,57657.299999952316,1197.9000000953674,1669829943362,1198,HRV,HRV_0011,2022-11-30 17:42:57
36,"[{'imgObject': {}, 'id': 'raspberries', 'src': '/static/foodstim60/raspberries.jpg', 'key': 'u', 'origWidth': 411, 'origHeight': 411, 'width': 411, 'height': 411, 'widthPercent': 0.45, 'rescaleHeight': False, 'trialN': 36, 'loaded': True, 'loadedTime': 3002.5, 'positionName': 'LEFT', 'positionCoords': [244.68, 178.5], 'bid': 0.6900000000000001}, {'imgObject': {}, 'id': 'edamame', 'src': '/static/foodstim60/edamame.jpg', 'key': 'i', 'origWidth': 409, 'origHeight': 410, 'width': 409, 'height': 410, 'widthPercent': 0.45, 'rescaleHeight': False, 'trialN': 36, 'loaded': True, 'loadedTime': 3128.2999999523163, 'positionName': 'RIGHT', 'positionCoords': [710.32, 179], 'bid': 0.31}]",57658.09999990463,1669829943363,raspberries,edamame,0.6900000000000001,0.31,-0.38000000000000006,raspberries,1035.2999999523163,1037,1036.5999999046326,True,u,59205.699999809265,1547.5999999046326,1669829944911,1548,HRV,HRV_0011,2022-11-30 17:42:57
37,"[{'imgObject': {}, 'id': 'bagel plain', 'src': '/static/foodstim60/bagel plain.jpg', 'key': 'u', 'origWidth': 410, 'origHeight': 410, 'width': 410, 'height': 410, 'widthPercent': 0.45, 'rescaleHeight': False, 'trialN': 37, 'loaded': True, 'loadedTime': 3480.7999999523163, 'positionName': 'LEFT', 'positionCoords': [245.68, 179], 'bid': 0.24}, {'imgObject': {}, 'id': 'granola w milk', 'src': '/static/foodstim60/granola w milk.jpg', 'key': 'i', 'origWidth': 410, 'origHeight': 410, 'width': 410, 'height': 410, 'widthPercent': 0.45, 'rescaleHeight': False, 'trialN': 37, 'loaded': True, 'loadedTime': 3241.5999999046326, 'positionName': 'RIGHT', 'positionCoords': [710.32, 179], 'bid': 0.32}]",59206.39999985695,1669829944911,bagel plain,granola w milk,0.24,0.32,0.08000000000000002,bagel plain,1276.0,1278,1277.2999999523163,True,u,60990.5,1784.1000001430511,1669829946696,1785,HRV,HRV_0011,2022-11-30 17:42:57
38,"[{'imgObject': {}, 'id': 'Tribe humus pita', 'src': '/static/foodstim60/Tribe humus pita.jpg', 'key': 'u', 'origWidth': 411, 'origHeight': 411, 'width': 411, 'height': 411, 'widthPercent': 0.45, 'rescaleHeight': False, 'trialN': 38, 'loaded': True, 'loadedTime': 3087.2999999523163, 'positionName': 'LEFT', 'positionCoords': [244.68, 178.5], 'bid': 4.03}, {'imgObject': {}, 'id': 'eggs', 'src': '/static/foodstim60/eggs.jpg', 'key': 'i', 'origWidth': 409, 'origHeight': 409, 'width': 409, 'height': 409, 'widthPercent': 0.45, 'rescaleHeight': False, 'trialN': 38, 'loaded': True, 'loadedTime': 3484.699999809265, 'positionName': 'RIGHT', 'positionCoords': [710.32, 179.5], 'bid': 0.37}]",60992.199999809265,1669829946697,Tribe humus pita,eggs,4.03,0.37,-3.66,Tribe humus pita,778.6000001430511,780,779.9000000953674,True,u,62275.199999809265,1283.0,1669829947980,1283,HRV,HRV_0011,2022-11-30 17:42:57
39,"[{'imgObject': {}, 'id': 'corn cob', 'src': '/static/foodstim60/corn cob.jpg', 'key': 'u', 'origWidth': 411, 'origHeight': 411, 'width': 411, 'height': 411, 'widthPercent': 0.45, 'rescaleHeight': False, 'trialN': 39, 'loaded': True, 'loadedTime': 3396.199999809265, 'positionName': 'LEFT', 'positionCoords': [244.68, 178.5], 'bid': 6.7700000000000005}, {'imgObject': {}, 'id': 'roastedpotatoes', 'src': '/static/foodstim60/roastedpotatoes.jpg', 'key': 'i', 'origWidth': 409, 'origHeight': 410, 'width': 409, 'height': 410, 'widthPercent': 0.45, 'rescaleHeight': False, 'trialN': 39, 'loaded': True, 'loadedTime': 2920.0999999046326, 'positionName': 'RIGHT', 'positionCoords': [710.32, 179], 'bid': 9.5}]",62275.39999985695,1669829947980,corn cob,roastedpotatoes,6.7700000000000005,9.5,2.7299999999999995,corn cob,572.7999999523163,575,574.2000000476837,True,u,63360.59999990463,1085.2000000476837,1669829949066,1086,HRV,HRV_0011,2022-11-30 17:42:57
40,"[{'imgObject': {}, 'id': 'Tribe humus pita', 'src': '/static/foodstim60/Tribe humus pita.jpg', 'key': 'u', 'origWidth': 411, 'origHeight': 411, 'width': 411, 'height': 411, 'widthPercent': 0.45, 'rescaleHeight': False, 'trialN': 40, 'loaded': True, 'loadedTime': 3089.899999856949, 'positionName': 'LEFT', 'positionCoords': [244.68, 178.5], 'bid': 4.03}, {'imgObject': {}, 'id': 'mac & cheese', 'src': '/static/foodstim60/mac & cheese.jpg', 'key': 'i', 'origWidth': 410, 'origHeight': 410, 'width': 410, 'height': 410, 'widthPercent': 0.45, 'rescaleHeight': False, 'trialN': 40, 'loaded': True, 'loadedTime': 3062.5999999046326, 'positionName': 'RIGHT', 'positionCoords': [710.32, 179], 'bid': 9.78}]",63361.5,1669829949066,Tribe humus pita,mac & cheese,4.03,9.78,5.749999999999999,Tribe humus pita,1678.1999998092651,1680,1680.0,True,u,65549.79999995232,2188.2999999523163,1669829951255,2189,HRV,HRV_0011,2022-11-30 17:42:57
41,"[{'imgObject': {}, 'id': 'chicken nuggets2', 'src': '/static/foodstim60/chicken nuggets2.jpg', 'key': 'u', 'origWidth': 410, 'origHeight': 409, 'width': 410, 'height': 409, 'widthPercent': 0.45, 'rescaleHeight': False, 'trialN': 41, 'loaded': True, 'loadedTime': 3172.399999856949, 'positionName': 'LEFT', 'positionCoords': [245.68, 179.5], 'bid': 2.95}, {'imgObject': {}, 'id': 'cantaloupe', 'src': '/static/foodstim60/cantaloupe.jpg', 'key': 'i', 'origWidth': 409, 'origHeight': 409, 'width': 409, 'height': 409, 'widthPercent': 0.45, 'rescaleHeight': False, 'trialN': 41, 'loaded': True, 'loadedTime': 3400.0999999046326, 'positionName': 'RIGHT', 'positionCoords': [710.32, 179.5], 'bid': 2.56}]",65550.59999990463,1669829951256,chicken nuggets2,cantaloupe,2.95,2.56,-0.3900000000000001,cantaloupe,722.5999999046326,723,723.9000000953674,True,i,66785.19999980927,1234.5999999046326,1669829952490,1234,HRV,HRV_0011,2022-11-30 17:42:57
42,"[{'imgObject': {}, 'id': 'yogurt no spoon', 'src': '/static/foodstim60/yogurt no spoon.jpg', 'key': 'u', 'origWidth': 411, 'origHeight': 410, 'width': 411, 'height': 410, 'widthPercent': 0.45, 'rescaleHeight': False, 'trialN': 42, 'loaded': True, 'loadedTime': 3264.199999809265, 'positionName': 'LEFT', 'positionCoords': [244.68, 179], 'bid': 0.6}, {'imgObject': {}, 'id': 'seaweed', 'src': '/static/foodstim60/seaweed.jpg', 'key': 'i', 'origWidth': 410, 'origHeight': 410, 'width': 410, 'height': 410, 'widthPercent': 0.45, 'rescaleHeight': False, 'trialN': 42, 'loaded': True, 'loadedTime': 3355.2999999523163, 'positionName': 'RIGHT', 'positionCoords': [710.32, 179], 'bid': 0.3}]",66786.0,1669829952491,yogurt no spoon,seaweed,0.6,0.3,-0.3,seaweed,635.3999998569489,637,636.6999998092651,True,i,67930.59999990463,1144.5999999046326,1669829953641,1150,HRV,HRV_0011,2022-11-30 17:42:57
43,"[{'imgObject': {}, 'id': 'salmon', 'src': '/static/foodstim60/salmon.jpg', 'key': 'u', 'origWidth': 410, 'origHeight': 409, 'width': 410, 'height': 409, 'widthPercent': 0.45, 'rescaleHeight': False, 'trialN': 43, 'loaded': True, 'loadedTime': 3267.699999809265, 'positionName': 'LEFT', 'positionCoords': [245.68, 179.5], 'bid': 0.66}, {'imgObject': {}, 'id': 'baked potato', 'src': '/static/foodstim60/baked potato.jpg', 'key': 'i', 'origWidth': 409, 'origHeight': 410, 'width': 409, 'height': 410, 'widthPercent': 0.45, 'rescaleHeight': False, 'trialN': 43, 'loaded': True, 'loadedTime': 3327.899999856949, 'positionName': 'RIGHT', 'positionCoords': [710.32, 179], 'bid': 1.32}]",67931.39999985695,1669829953641,salmon,baked potato,0.66,1.32,0.66,salmon,1442.0,1443,1442.7000000476837,True,u,69885.29999995232,1953.9000000953674,1669829955595,1954,HRV,HRV_0011,2022-11-30 17:42:57
44,"[{'imgObject': {}, 'id': 'veggieswithdip', 'src': '/static/foodstim60/veggieswithdip.jpg', 'key': 'u', 'origWidth': 409, 'origHeight': 409, 'width': 409, 'height': 409, 'widthPercent': 0.45, 'rescaleHeight': False, 'trialN': 44, 'loaded': True, 'loadedTime': 3484.7999999523163, 'positionName': 'LEFT', 'positionCoords': [246.68, 179.5], 'bid': 0.41}, {'imgObject': {}, 'id': 'sushi w_condiments', 'src': '/static/foodstim60/sushi w_condiments.jpg', 'key': 'i', 'origWidth': 410, 'origHeight': 410, 'width': 410, 'height': 410, 'widthPercent': 0.45, 'rescaleHeight': False, 'trialN': 44, 'loaded': True, 'loadedTime': 3505.7999999523163, 'positionName': 'RIGHT', 'positionCoords': [710.32, 179], 'bid': 0.35}]",69886.09999990463,1669829955596,veggieswithdip,sushi w_condiments,0.41,0.35,-0.06,veggieswithdip,1180.7000000476837,1183,1182.4000000953674,True,u,71579.39999985695,1693.2999999523163,1669829957289,1693,HRV,HRV_0011,2022-11-30 17:42:57
45,"[{'imgObject': {}, 'id': 'olives', 'src': '/static/foodstim60/olives.jpg', 'key': 'u', 'origWidth': 410, 'origHeight': 410, 'width': 410, 'height': 410, 'widthPercent': 0.45, 'rescaleHeight': False, 'trialN': 45, 'loaded': True, 'loadedTime': 3508.7999999523163, 'positionName': 'LEFT', 'positionCoords': [245.68, 179], 'bid': 0.28}, {'imgObject': {}, 'id': 'hotdog w must', 'src': '/static/foodstim60/hotdog w must.jpg', 'key': 'i', 'origWidth': 409, 'origHeight': 409, 'width': 409, 'height': 409, 'widthPercent': 0.45, 'rescaleHeight': False, 'trialN': 45, 'loaded': True, 'loadedTime': 3304.399999856949, 'positionName': 'RIGHT', 'positionCoords': [710.32, 179.5], 'bid': 0.35}]",71580.09999990463,1669829957290,olives,hotdog w must,0.28,0.35,0.06999999999999995,olives,892.2999999523163,894,893.5999999046326,True,u,72984.39999985695,1404.2999999523163,1669829958694,1404,HRV,HRV_0011,2022-11-30 17:42:57
46,"[{'imgObject': {}, 'id': 'salad w chicken', 'src': '/static/foodstim60/salad w chicken.jpg', 'key': 'u', 'origWidth': 411, 'origHeight': 411, 'width': 411, 'height': 411, 'widthPercent': 0.45, 'rescaleHeight': False, 'trialN': 46, 'loaded': True, 'loadedTime': 3221, 'positionName': 'LEFT', 'positionCoords': [244.68, 178.5], 'bid': 6.93}, {'imgObject': {}, 'id': 'shreddedwheatwithmilk', 'src': '/static/foodstim60/shreddedwheatwithmilk.jpg', 'key': 'i', 'origWidth': 410, 'origHeight': 410, 'width': 410, 'height': 410, 'widthPercent': 0.45, 'rescaleHeight': False, 'trialN': 46, 'loaded': True, 'loadedTime': 3058.899999856949, 'positionName': 'RIGHT', 'positionCoords': [710.32, 179], 'bid': 0.38}]",72985.09999990463,1669829958695,salad w chicken,shreddedwheatwithmilk,6.93,0.38,-6.55,salad w chicken,2915.7999999523163,2917,2917.2000000476837,True,u,76414.39999985695,3429.2999999523163,1669829962124,3429,HRV,HRV_0011,2022-11-30 17:42:57
47,"[{'imgObject': {}, 'id': 'turkeysandwich', 'src': '/static/foodstim60/turkeysandwich.jpg', 'key': 'u', 'origWidth': 409, 'origHeight': 409, 'width': 409, 'height': 409, 'widthPercent': 0.45, 'rescaleHeight': False, 'trialN': 47, 'loaded': True, 'loadedTime': 3086.199999809265, 'positionName': 'LEFT', 'positionCoords': [246.68, 179.5], 'bid': 0.98}, {'imgObject': {}, 'id': 'yogurt no spoon', 'src': '/static/foodstim60/yogurt no spoon.jpg', 'key': 'i', 'origWidth': 411, 'origHeight': 410, 'width': 411, 'height': 410, 'widthPercent': 0.45, 'rescaleHeight': False, 'trialN': 47, 'loaded': True, 'loadedTime': 3264.0999999046326, 'positionName': 'RIGHT', 'positionCoords': [710.32, 179], 'bid': 0.6}]",76415.19999980927,1669829962125,turkeysandwich,yogurt no spoon,0.98,0.6,-0.38,turkeysandwich,937.1000001430511,939,938.3000001907349,True,u,77871.69999980927,1456.5,1669829963582,1457,HRV,HRV_0011,2022-11-30 17:42:57
48,"[{'imgObject': {}, 'id': 'cantaloupe', 'src': '/static/foodstim60/cantaloupe.jpg', 'key': 'u', 'origWidth': 409, 'origHeight': 409, 'width': 409, 'height': 409, 'widthPercent': 0.45, 'rescaleHeight': False, 'trialN': 48, 'loaded': True, 'loadedTime': 3398.699999809265, 'positionName': 'LEFT', 'positionCoords': [246.68, 179.5], 'bid': 2.56}, {'imgObject': {}, 'id': 'mashed potato', 'src': '/static/foodstim60/mashed potato.jpg', 'key': 'i', 'origWidth': 409, 'origHeight': 409, 'width': 409, 'height': 409, 'widthPercent': 0.45, 'rescaleHeight': False, 'trialN': 48, 'loaded': True, 'loadedTime': 2959.899999856949, 'positionName': 'RIGHT', 'positionCoords': [710.32, 179.5], 'bid': 4.54}]",77872.5,1669829963583,cantaloupe,mashed potato,2.56,4.54,1.98,mashed potato,787.6999998092651,789,789.0,True,i,79169.79999995232,1297.2999999523163,1669829964880,1297,HRV,HRV_0011,2022-11-30 17:42:57
49,"[{'imgObject': {}, 'id': 'sushi w_condiments', 'src': '/static/foodstim60/sushi w_condiments.jpg', 'key': 'u', 'origWidth': 410, 'origHeight': 410, 'width': 410, 'height': 410, 'widthPercent': 0.45, 'rescaleHeight': False, 'trialN': 49, 'loaded': True, 'loadedTime': 3505.7999999523163, 'positionName': 'LEFT', 'positionCoords': [245.68, 179], 'bid': 0.35}, {'imgObject': {}, 'id': 'eggs', 'src': '/static/foodstim60/eggs.jpg', 'key': 'i', 'origWidth': 409, 'origHeight': 409, 'width': 409, 'height': 409, 'widthPercent': 0.45, 'rescaleHeight': False, 'trialN': 49, 'loaded': True, 'loadedTime': 3482.199999809265, 'positionName': 'RIGHT', 'positionCoords': [710.32, 179.5], 'bid': 0.37}]",79170.59999990463,1669829964881,sushi w_condiments,eggs,0.35,0.37,0.020000000000000018,eggs,1269.5,1270,1270.7999999523163,True,i,80951.29999995232,1780.7000000476837,1669829966661,1780,HRV,HRV_0011,2022-11-30 17:42:57
50,"[{'imgObject': {}, 'id': 'rigatoni', 'src': '/static/foodstim60/rigatoni.jpg', 'key': 'u', 'origWidth': 411, 'origHeight': 411, 'width': 411, 'height': 411, 'widthPercent': 0.45, 'rescaleHeight': False, 'trialN': 50, 'loaded': True, 'loadedTime': 3512.0999999046326, 'positionName': 'LEFT', 'positionCoords': [244.68, 178.5], 'bid': 0.6}, {'imgObject': {}, 'id': 'avocado', 'src': '/static/foodstim60/avocado.jpg', 'key': 'i', 'origWidth': 409, 'origHeight': 409, 'width': 409, 'height': 409, 'widthPercent': 0.45, 'rescaleHeight': False, 'trialN': 50, 'loaded': True, 'loadedTime': 2901.899999856949, 'positionName': 'RIGHT', 'positionCoords': [710.32, 179.5], 'bid': 0.78}]",80952.09999990463,1669829966662,rigatoni,avocado,0.6,0.78,0.18000000000000005,rigatoni,1116.7999999523163,1118,1118.0999999046326,True,u,82583.0,1630.9000000953674,1669829968293,1631,HRV,HRV_0011,2022-11-30 17:42:57
51,"[{'imgObject': {}, 'id': 'mango', 'src': '/static/foodstim60/mango.jpg', 'key': 'u', 'origWidth': 411, 'origHeight': 411, 'width': 411, 'height': 411, 'widthPercent': 0.45, 'rescaleHeight': False, 'trialN': 51, 'loaded': True, 'loadedTime': 2827, 'positionName': 'LEFT', 'positionCoords': [244.68, 178.5], 'bid': 0.34}, {'imgObject': {}, 'id': 'fried eggs', 'src': '/static/foodstim60/fried eggs.jpg', 'key': 'i', 'origWidth': 410, 'origHeight': 410, 'width': 410, 'height': 410, 'widthPercent': 0.45, 'rescaleHeight': False, 'trialN': 51, 'loaded': True, 'loadedTime': 3019, 'positionName': 'RIGHT', 'positionCoords': [710.32, 179], 'bid': 1.39}]",82583.79999995232,1669829968294,mango,fried eggs,0.34,1.39,1.0499999999999998,fried eggs,1397.2000000476837,1398,1398.2999999523163,True,i,84501.09999990463,1917.2999999523163,1669829970211,1917,HRV,HRV_0011,2022-11-30 17:42:57
52,"[{'imgObject': {}, 'id': 'ice cream sundae 002', 'src': '/static/foodstim60/ice cream sundae 002.jpg', 'key': 'u', 'origWidth': 409, 'origHeight': 409, 'width': 409, 'height': 409, 'widthPercent': 0.45, 'rescaleHeight': False, 'trialN': 52, 'loaded': True, 'loadedTime': 3349.199999809265, 'positionName': 'LEFT', 'positionCoords': [246.68, 179.5], 'bid': 0.35}, {'imgObject': {}, 'id': 'cantaloupe', 'src': '/static/foodstim60/cantaloupe.jpg', 'key': 'i', 'origWidth': 409, 'origHeight': 409, 'width': 409, 'height': 409, 'widthPercent': 0.45, 'rescaleHeight': False, 'trialN': 52, 'loaded': True, 'loadedTime': 3397.2999999523163, 'positionName': 'RIGHT', 'positionCoords': [710.32, 179.5], 'bid': 2.56}]",84502.0,1669829970212,ice cream sundae 002,cantaloupe,0.35,2.56,2.21,ice cream sundae 002,1535.5,1537,1536.6999998092651,True,u,86550.59999990463,2048.5999999046326,1669829972261,2049,HRV,HRV_0011,2022-11-30 17:42:57
53,"[{'imgObject': {}, 'id': 'fruitsalad', 'src': '/static/foodstim60/fruitsalad.jpg', 'key': 'u', 'origWidth': 410, 'origHeight': 410, 'width': 410, 'height': 410, 'widthPercent': 0.45, 'rescaleHeight': False, 'trialN': 53, 'loaded': True, 'loadedTime': 3515.699999809265, 'positionName': 'LEFT', 'positionCoords': [245.68, 179], 'bid': 0.31}, {'imgObject': {}, 'id': 'burrito', 'src': '/static/foodstim60/burrito.jpg', 'key': 'i', 'origWidth': 410, 'origHeight': 410, 'width': 410, 'height': 410, 'widthPercent': 0.45, 'rescaleHeight': False, 'trialN': 53, 'loaded': True, 'loadedTime': 3371.399999856949, 'positionName': 'RIGHT', 'positionCoords': [710.32, 179], 'bid': 0.37}]",86550.89999985695,1669829972261,fruitsalad,burrito,0.31,0.37,0.06,burrito,1032.4000000953674,1034,1033.7000000476837,True,i,88094.59999990463,1543.7000000476837,1669829973805,1544,HRV,HRV_0011,2022-11-30 17:42:57
54,"[{'imgObject': {}, 'id': 'cocktailshrimp', 'src': '/static/foodstim60/cocktailshrimp.jpg', 'key': 'u', 'origWidth': 410, 'origHeight': 410, 'width': 410, 'height': 410, 'widthPercent': 0.45, 'rescaleHeight': False, 'trialN': 54, 'loaded': True, 'loadedTime': 3519.699999809265, 'positionName': 'LEFT', 'positionCoords': [245.68, 179], 'bid': 0.53}, {'imgObject': {}, 'id': 'cheerios', 'src': '/static/foodstim60/cheerios.jpg', 'key': 'i', 'origWidth': 409, 'origHeight': 410, 'width': 409, 'height': 410, 'widthPercent': 0.45, 'rescaleHeight': False, 'trialN': 54, 'loaded': True, 'loadedTime': 3392.199999809265, 'positionName': 'RIGHT', 'positionCoords': [710.32, 179], 'bid': 0.38}]",88095.29999995232,1669829973805,cocktailshrimp,cheerios,0.53,0.38,-0.15000000000000002,cocktailshrimp,662.8999998569489,664,664.0999999046326,True,u,89278.0,1182.7000000476837,1669829974988,1183,HRV,HRV_0011,2022-11-30 17:42:57
55,"[{'imgObject': {}, 'id': 'turkey sandwich', 'src': '/static/foodstim60/turkey sandwich.jpg', 'key': 'u', 'origWidth': 409, 'origHeight': 409, 'width': 409, 'height': 409, 'widthPercent': 0.45, 'rescaleHeight': False, 'trialN': 55, 'loaded': True, 'loadedTime': 3534.2999999523163, 'positionName': 'LEFT', 'positionCoords': [246.68, 179.5], 'bid': 0.13}, {'imgObject': {}, 'id': 'Grapes', 'src': '/static/foodstim60/Grapes.jpg', 'key': 'i', 'origWidth': 411, 'origHeight': 411, 'width': 411, 'height': 411, 'widthPercent': 0.45, 'rescaleHeight': False, 'trialN': 55, 'loaded': True, 'loadedTime': 3149.5999999046326, 'positionName': 'RIGHT', 'positionCoords': [710.32, 178.5], 'bid': 0.03}]",89278.89999985695,1669829974989,turkey sandwich,Grapes,0.13,0.03,-0.1,turkey sandwich,585.7000000476837,587,587.0,True,u,90376.09999990463,1097.2000000476837,1669829976086,1097,HRV,HRV_0011,2022-11-30 17:42:57
56,"[{'imgObject': {}, 'id': 'cherry tomato', 'src': '/static/foodstim60/cherry tomato.jpg', 'key': 'u', 'origWidth': 410, 'origHeight': 410, 'width': 410, 'height': 410, 'widthPercent': 0.45, 'rescaleHeight': False, 'trialN': 56, 'loaded': True, 'loadedTime': 3022.199999809265, 'positionName': 'LEFT', 'positionCoords': [245.68, 179], 'bid': 0.31}, {'imgObject': {}, 'id': 'omelette', 'src': '/static/foodstim60/omelette.jpg', 'key': 'i', 'origWidth': 410, 'origHeight': 409, 'width': 410, 'height': 409, 'widthPercent': 0.45, 'rescaleHeight': False, 'trialN': 56, 'loaded': True, 'loadedTime': 3445.7999999523163, 'positionName': 'RIGHT', 'positionCoords': [710.32, 179.5], 'bid': 0.19}]",90377.89999985695,1669829976088,cherry tomato,omelette,0.31,0.19,-0.12,cherry tomato,1001.1000001430511,1002,1002.4000000953674,True,u,91890.79999995232,1512.9000000953674,1669829977601,1513,HRV,HRV_0011,2022-11-30 17:42:57
57,"[{'imgObject': {}, 'id': 'popsicles', 'src': '/static/foodstim60/popsicles.jpg', 'key': 'u', 'origWidth': 410, 'origHeight': 410, 'width': 410, 'height': 410, 'widthPercent': 0.45, 'rescaleHeight': False, 'trialN': 57, 'loaded': True, 'loadedTime': 3544, 'positionName': 'LEFT', 'positionCoords': [245.68, 179], 'bid': 0.35}, {'imgObject': {}, 'id': 'bagel plain', 'src': '/static/foodstim60/bagel plain.jpg', 'key': 'i', 'origWidth': 410, 'origHeight': 410, 'width': 410, 'height': 410, 'widthPercent': 0.45, 'rescaleHeight': False, 'trialN': 57, 'loaded': True, 'loadedTime': 3481.0999999046326, 'positionName': 'RIGHT', 'positionCoords': [710.32, 179], 'bid': 0.24}]",91891.59999990463,1669829977602,popsicles,bagel plain,0.35,0.24,-0.10999999999999999,bagel plain,531.4000000953674,532,532.7000000476837,True,i,92943.39999985695,1051.7999999523163,1669829978653,1051,HRV,HRV_0011,2022-11-30 17:42:57
58,"[{'imgObject': {}, 'id': 'cherries', 'src': '/static/foodstim60/cherries.jpg', 'key': 'u', 'origWidth': 410, 'origHeight': 411, 'width': 410, 'height': 411, 'widthPercent': 0.45, 'rescaleHeight': False, 'trialN': 58, 'loaded': True, 'loadedTime': 2967.2999999523163, 'positionName': 'LEFT', 'positionCoords': [245.68, 178.5], 'bid': 0.38}, {'imgObject': {}, 'id': 'salmon', 'src': '/static/foodstim60/salmon.jpg', 'key': 'i', 'origWidth': 410, 'origHeight': 409, 'width': 410, 'height': 409, 'widthPercent': 0.45, 'rescaleHeight': False, 'trialN': 58, 'loaded': True, 'loadedTime': 3267.0999999046326, 'positionName': 'RIGHT', 'positionCoords': [710.32, 179.5], 'bid': 0.66}]",92943.89999985695,1669829978654,cherries,salmon,0.38,0.66,0.28,salmon,1769.2000000476837,1770,1770.5,True,i,95225.79999995232,2281.9000000953674,1669829980936,2282,HRV,HRV_0011,2022-11-30 17:42:57
59,"[{'imgObject': {}, 'id': 'corn cob', 'src': '/static/foodstim60/corn cob.jpg', 'key': 'u', 'origWidth': 411, 'origHeight': 411, 'width': 411, 'height': 411, 'widthPercent': 0.45, 'rescaleHeight': False, 'trialN': 59, 'loaded': True, 'loadedTime': 3396, 'positionName': 'LEFT', 'positionCoords': [244.68, 178.5], 'bid': 6.7700000000000005}, {'imgObject': {}, 'id': 'cheerios', 'src': '/static/foodstim60/cheerios.jpg', 'key': 'i', 'origWidth': 409, 'origHeight': 410, 'width': 409, 'height': 410, 'widthPercent': 0.45, 'rescaleHeight': False, 'trialN': 59, 'loaded': True, 'loadedTime': 3374.7999999523163, 'positionName': 'RIGHT', 'positionCoords': [710.32, 179], 'bid': 0.38}]",95226.79999995232,1669829980937,corn cob,cheerios,6.7700000000000005,0.38,-6.390000000000001,corn cob,560.3999998569489,561,561.5999999046326,True,u,96292.09999990463,1065.2999999523163,1669829982002,1065,HRV,HRV_0011,2022-11-30 17:42:57
60,"[{'imgObject': {}, 'id': 'tacos', 'src': '/static/foodstim60/tacos.jpg', 'key': 'u', 'origWidth': 411, 'origHeight': 411, 'width': 411, 'height': 411, 'widthPercent': 0.45, 'rescaleHeight': False, 'trialN': 60, 'loaded': True, 'loadedTime': 3449.699999809265, 'positionName': 'LEFT', 'positionCoords': [244.68, 178.5], 'bid': 0.24}, {'imgObject': {}, 'id': 'fruitsalad', 'src': '/static/foodstim60/fruitsalad.jpg', 'key': 'i', 'origWidth': 410, 'origHeight': 410, 'width': 410, 'height': 410, 'widthPercent': 0.45, 'rescaleHeight': False, 'trialN': 60, 'loaded': True, 'loadedTime': 3515.199999809265, 'positionName': 'RIGHT', 'positionCoords': [710.32, 179], 'bid': 0.31}]",96292.59999990463,1669829982003,tacos,fruitsalad,0.24,0.31,0.07,fruitsalad,942.5999999046326,944,943.9000000953674,True,i,97742.69999980927,1450.0999999046326,1669829983453,1450,HRV,HRV_0011,2022-11-30 17:42:57
61,"[{'imgObject': {}, 'id': 'mango', 'src': '/static/foodstim60/mango.jpg', 'key': 'u', 'origWidth': 411, 'origHeight': 411, 'width': 411, 'height': 411, 'widthPercent': 0.45, 'rescaleHeight': False, 'trialN': 61, 'loaded': True, 'loadedTime': 2829.2999999523163, 'positionName': 'LEFT', 'positionCoords': [244.68, 178.5], 'bid': 0.34}, {'imgObject': {}, 'id': 'turkey sandwich', 'src': '/static/foodstim60/turkey sandwich.jpg', 'key': 'i', 'origWidth': 409, 'origHeight': 409, 'width': 409, 'height': 409, 'widthPercent': 0.45, 'rescaleHeight': False, 'trialN': 61, 'loaded': True, 'loadedTime': 3520, 'positionName': 'RIGHT', 'positionCoords': [710.32, 179.5], 'bid': 0.13}]",97743.5,1669829983454,mango,turkey sandwich,0.34,0.13,-0.21000000000000002,turkey sandwich,2153.199999809265,2154,2154.399999856949,True,i,100427.09999990463,2683.5999999046326,1669829986137,2683,HRV,HRV_0011,2022-11-30 17:42:57
62,"[{'imgObject': {}, 'id': 'blackbeanswithrice', 'src': '/static/foodstim60/blackbeanswithrice.jpg', 'key': 'u', 'origWidth': 410, 'origHeight': 410, 'width': 410, 'height': 410, 'widthPercent': 0.45, 'rescaleHeight': False, 'trialN': 62, 'loaded': True, 'loadedTime': 3107.899999856949, 'positionName': 'LEFT', 'positionCoords': [245.68, 179], 'bid': 0.46}, {'imgObject': {}, 'id': 'orange slices', 'src': '/static/foodstim60/orange slices.jpg', 'key': 'i', 'origWidth': 409, 'origHeight': 410, 'width': 409, 'height': 410, 'widthPercent': 0.45, 'rescaleHeight': False, 'trialN': 62, 'loaded': True, 'loadedTime': 3257.2999999523163, 'positionName': 'RIGHT', 'positionCoords': [710.32, 179], 'bid': 0.51}]",100428.0,1669829986138,blackbeanswithrice,orange slices,0.46,0.51,0.04999999999999999,orange slices,677.3999998569489,679,678.6999998092651,True,i,101614.29999995232,1186.2999999523163,1669829987324,1186,HRV,HRV_0011,2022-11-30 17:42:57
63,"[{'imgObject': {}, 'id': 'turkeysandwich', 'src': '/static/foodstim60/turkeysandwich.jpg', 'key': 'u', 'origWidth': 409, 'origHeight': 409, 'width': 409, 'height': 409, 'widthPercent': 0.45, 'rescaleHeight': False, 'trialN': 63, 'loaded': True, 'loadedTime': 3082.199999809265, 'positionName': 'LEFT', 'positionCoords': [246.68, 179.5], 'bid': 0.98}, {'imgObject': {}, 'id': 'fried eggs', 'src': '/static/foodstim60/fried eggs.jpg', 'key': 'i', 'origWidth': 410, 'origHeight': 410, 'width': 410, 'height': 410, 'widthPercent': 0.45, 'rescaleHeight': False, 'trialN': 63, 'loaded': True, 'loadedTime': 3021.2999999523163, 'positionName': 'RIGHT', 'positionCoords': [710.32, 179], 'bid': 1.39}]",101615.09999990463,1669829987325,turkeysandwich,fried eggs,0.98,1.39,0.4099999999999999,fried eggs,637.9000000953674,639,639.2000000476837,True,i,102763.39999985695,1148.2999999523163,1669829988473,1148,HRV,HRV_0011,2022-11-30 17:42:57
64,"[{'imgObject': {}, 'id': 'cheerios', 'src': '/static/foodstim60/cheerios.jpg', 'key': 'u', 'origWidth': 409, 'origHeight': 410, 'width': 409, 'height': 410, 'widthPercent': 0.45, 'rescaleHeight': False, 'trialN': 64, 'loaded': True, 'loadedTime': 3392.899999856949, 'positionName': 'LEFT', 'positionCoords': [246.68, 179], 'bid': 0.38}, {'imgObject': {}, 'id': 'pear', 'src': '/static/foodstim60/pear.jpg', 'key': 'i', 'origWidth': 411, 'origHeight': 410, 'width': 411, 'height': 410, 'widthPercent': 0.45, 'rescaleHeight': False, 'trialN': 64, 'loaded': True, 'loadedTime': 3537.5999999046326, 'positionName': 'RIGHT', 'positionCoords': [710.32, 179], 'bid': 0.31}]",102764.09999990463,1669829988474,cheerios,pear,0.38,0.31,-0.07,cheerios,609.7999999523163,611,611.0,True,u,103881.89999985695,1117.7999999523163,1669829989592,1118,HRV,HRV_0011,2022-11-30 17:42:57
65,"[{'imgObject': {}, 'id': 'rigatoni', 'src': '/static/foodstim60/rigatoni.jpg', 'key': 'u', 'origWidth': 411, 'origHeight': 411, 'width': 411, 'height': 411, 'widthPercent': 0.45, 'rescaleHeight': False, 'trialN': 65, 'loaded': True, 'loadedTime': 3512.5999999046326, 'positionName': 'LEFT', 'positionCoords': [244.68, 178.5], 'bid': 0.6}, {'imgObject': {}, 'id': 'salmon', 'src': '/static/foodstim60/salmon.jpg', 'key': 'i', 'origWidth': 410, 'origHeight': 409, 'width': 410, 'height': 409, 'widthPercent': 0.45, 'rescaleHeight': False, 'trialN': 65, 'loaded': True, 'loadedTime': 3281.399999856949, 'positionName': 'RIGHT', 'positionCoords': [710.32, 179.5], 'bid': 0.66}]",103882.69999980927,1669829989593,rigatoni,salmon,0.6,0.66,0.06000000000000005,salmon,536.0,537,537.0,True,i,104927.29999995232,1044.6000001430511,1669829990637,1044,HRV,HRV_0011,2022-11-30 17:42:57
66,"[{'imgObject': {}, 'id': 'seaweed', 'src': '/static/foodstim60/seaweed.jpg', 'key': 'u', 'origWidth': 410, 'origHeight': 410, 'width': 410, 'height': 410, 'widthPercent': 0.45, 'rescaleHeight': False, 'trialN': 66, 'loaded': True, 'loadedTime': 3354.399999856949, 'positionName': 'LEFT', 'positionCoords': [245.68, 179], 'bid': 0.3}, {'imgObject': {}, 'id': 'edamame', 'src': '/static/foodstim60/edamame.jpg', 'key': 'i', 'origWidth': 409, 'origHeight': 410, 'width': 409, 'height': 410, 'widthPercent': 0.45, 'rescaleHeight': False, 'trialN': 66, 'loaded': True, 'loadedTime': 3130.199999809265, 'positionName': 'RIGHT', 'positionCoords': [710.32, 179], 'bid': 0.31}]",104928.19999980927,1669829990638,seaweed,edamame,0.3,0.31,0.010000000000000009,seaweed,559.7000000476837,561,561.0,True,u,106003.39999985695,1075.2000000476837,1669829991713,1075,HRV,HRV_0011,2022-11-30 17:42:57
67,"[{'imgObject': {}, 'id': 'steak', 'src': '/static/foodstim60/steak.jpg', 'key': 'u', 'origWidth': 410, 'origHeight': 410, 'width': 410, 'height': 410, 'widthPercent': 0.45, 'rescaleHeight': False, 'trialN': 67, 'loaded': True, 'loadedTime': 2879.5, 'positionName': 'LEFT', 'positionCoords': [245.68, 179], 'bid': 0.24}, {'imgObject': {}, 'id': 'sushi w_condiments', 'src': '/static/foodstim60/sushi w_condiments.jpg', 'key': 'i', 'origWidth': 410, 'origHeight': 410, 'width': 410, 'height': 410, 'widthPercent': 0.45, 'rescaleHeight': False, 'trialN': 67, 'loaded': True, 'loadedTime': 3505.699999809265, 'positionName': 'RIGHT', 'positionCoords': [710.32, 179], 'bid': 0.35}]",106003.69999980927,1669829991714,steak,sushi w_condiments,0.24,0.35,0.10999999999999999,sushi w_condiments,851.1000001430511,852,852.4000000953674,True,i,107375.09999990463,1371.4000000953674,1669829993085,1371,HRV,HRV_0011,2022-11-30 17:42:57
68,"[{'imgObject': {}, 'id': 'ice cream sundae 002', 'src': '/static/foodstim60/ice cream sundae 002.jpg', 'key': 'u', 'origWidth': 409, 'origHeight': 409, 'width': 409, 'height': 409, 'widthPercent': 0.45, 'rescaleHeight': False, 'trialN': 68, 'loaded': True, 'loadedTime': 3350, 'positionName': 'LEFT', 'positionCoords': [246.68, 179.5], 'bid': 0.35}, {'imgObject': {}, 'id': 'mango', 'src': '/static/foodstim60/mango.jpg', 'key': 'i', 'origWidth': 411, 'origHeight': 411, 'width': 411, 'height': 411, 'widthPercent': 0.45, 'rescaleHeight': False, 'trialN': 68, 'loaded': True, 'loadedTime': 2825.5, 'positionName': 'RIGHT', 'positionCoords': [710.32, 178.5], 'bid': 0.34}]",107375.89999985695,1669829993086,ice cream sundae 002,mango,0.35,0.34,-0.009999999999999953,mango,524.0,525,525.4000000953674,True,i,108414.19999980927,1038.2999999523163,1669829994124,1038,HRV,HRV_0011,2022-11-30 17:42:57
69,"[{'imgObject': {}, 'id': 'shreddedwheatwithmilk', 'src': '/static/foodstim60/shreddedwheatwithmilk.jpg', 'key': 'u', 'origWidth': 410, 'origHeight': 410, 'width': 410, 'height': 410, 'widthPercent': 0.45, 'rescaleHeight': False, 'trialN': 69, 'loaded': True, 'loadedTime': 3059.7999999523163, 'positionName': 'LEFT', 'positionCoords': [245.68, 179], 'bid': 0.38}, {'imgObject': {}, 'id': 'cheerios', 'src': '/static/foodstim60/cheerios.jpg', 'key': 'i', 'origWidth': 409, 'origHeight': 410, 'width': 409, 'height': 410, 'widthPercent': 0.45, 'rescaleHeight': False, 'trialN': 69, 'loaded': True, 'loadedTime': 3374.399999856949, 'positionName': 'RIGHT', 'positionCoords': [710.32, 179], 'bid': 0.38}]",108415.09999990463,1669829994125,shreddedwheatwithmilk,cheerios,0.38,0.38,0.0,cheerios,682.0,684,683.5,True,i,109610.19999980927,1195.0999999046326,1669829995320,1195,HRV,HRV_0011,2022-11-30 17:42:57
70,"[{'imgObject': {}, 'id': 'pear', 'src': '/static/foodstim60/pear.jpg', 'key': 'u', 'origWidth': 411, 'origHeight': 410, 'width': 411, 'height': 410, 'widthPercent': 0.45, 'rescaleHeight': False, 'trialN': 70, 'loaded': True, 'loadedTime': 3538.0999999046326, 'positionName': 'LEFT', 'positionCoords': [244.68, 179], 'bid': 0.31}, {'imgObject': {}, 'id': 'bagel plain', 'src': '/static/foodstim60/bagel plain.jpg', 'key': 'i', 'origWidth': 410, 'origHeight': 410, 'width': 410, 'height': 410, 'widthPercent': 0.45, 'rescaleHeight': False, 'trialN': 70, 'loaded': True, 'loadedTime': 3481.5, 'positionName': 'RIGHT', 'positionCoords': [710.32, 179], 'bid': 0.24}]",109611.0,1669829995321,pear,bagel plain,0.31,0.24,-0.07,bagel plain,707.5,709,708.7999999523163,True,i,110826.0,1215.0,1669829996536,1215,HRV,HRV_0011,2022-11-30 17:42:57
71,"[{'imgObject': {}, 'id': 'blueberries', 'src': '/static/foodstim60/blueberries.jpg', 'key': 'u', 'origWidth': 411, 'origHeight': 411, 'width': 411, 'height': 411, 'widthPercent': 0.45, 'rescaleHeight': False, 'trialN': 71, 'loaded': True, 'loadedTime': 2982.699999809265, 'positionName': 'LEFT', 'positionCoords': [244.68, 178.5], 'bid': 0.38}, {'imgObject': {}, 'id': 'blackbeanswithrice', 'src': '/static/foodstim60/blackbeanswithrice.jpg', 'key': 'i', 'origWidth': 410, 'origHeight': 410, 'width': 410, 'height': 410, 'widthPercent': 0.45, 'rescaleHeight': False, 'trialN': 71, 'loaded': True, 'loadedTime': 3108.2999999523163, 'positionName': 'RIGHT', 'positionCoords': [710.32, 179], 'bid': 0.46}]",110826.69999980927,1669829996537,blueberries,blackbeanswithrice,0.38,0.46,0.08000000000000002,blueberries,716.8000001907349,718,718.0,True,u,112053.89999985695,1227.2000000476837,1669829997764,1227,HRV,HRV_0011,2022-11-30 17:42:57
72,"[{'imgObject': {}, 'id': 'kiwi', 'src': '/static/foodstim60/kiwi.jpg', 'key': 'u', 'origWidth': 410, 'origHeight': 410, 'width': 410, 'height': 410, 'widthPercent': 0.45, 'rescaleHeight': False, 'trialN': 72, 'loaded': True, 'loadedTime': 3236.199999809265, 'positionName': 'LEFT', 'positionCoords': [245.68, 179], 'bid': 0.32}, {'imgObject': {}, 'id': 'apple slices', 'src': '/static/foodstim60/apple slices.jpg', 'key': 'i', 'origWidth': 409, 'origHeight': 410, 'width': 409, 'height': 410, 'widthPercent': 0.45, 'rescaleHeight': False, 'trialN': 72, 'loaded': True, 'loadedTime': 3304.2999999523163, 'positionName': 'RIGHT', 'positionCoords': [710.32, 179], 'bid': 0.35}]",112054.79999995232,1669829997765,kiwi,apple slices,0.32,0.35,0.02999999999999997,kiwi,1599.7000000476837,1601,1601.0,True,u,114169.39999985695,2114.5999999046326,1669829999880,2115,HRV,HRV_0011,2022-11-30 17:42:57
73,"[{'imgObject': {}, 'id': 'strawberries', 'src': '/static/foodstim60/strawberries.jpg', 'key': 'u', 'origWidth': 410, 'origHeight': 410, 'width': 410, 'height': 410, 'widthPercent': 0.45, 'rescaleHeight': False, 'trialN': 73, 'loaded': True, 'loadedTime': 3198.5, 'positionName': 'LEFT', 'positionCoords': [245.68, 179], 'bid': 3.25}, {'imgObject': {}, 'id': 'burger', 'src': '/static/foodstim60/burger.jpg', 'key': 'i', 'origWidth': 409, 'origHeight': 409, 'width': 409, 'height': 409, 'widthPercent': 0.45, 'rescaleHeight': False, 'trialN': 73, 'loaded': True, 'loadedTime': 3431.2999999523163, 'positionName': 'RIGHT', 'positionCoords': [710.32, 179.5], 'bid': 2.65}]",114169.89999985695,1669829999880,strawberries,burger,3.25,2.65,-0.6000000000000001,burger,1625.6000001430511,1627,1626.9000000953674,True,i,116308.29999995232,2138.4000000953674,1669830002018,2138,HRV,HRV_0011,2022-11-30 17:42:57
74,"[{'imgObject': {}, 'id': 'fried eggs', 'src': '/static/foodstim60/fried eggs.jpg', 'key': 'u', 'origWidth': 410, 'origHeight': 410, 'width': 410, 'height': 410, 'widthPercent': 0.45, 'rescaleHeight': False, 'trialN': 74, 'loaded': True, 'loadedTime': 3021, 'positionName': 'LEFT', 'positionCoords': [245.68, 179], 'bid': 1.39}, {'imgObject': {}, 'id': 'sweetpotato', 'src': '/static/foodstim60/sweetpotato.jpg', 'key': 'i', 'origWidth': 410, 'origHeight': 410, 'width': 410, 'height': 410, 'widthPercent': 0.45, 'rescaleHeight': False, 'trialN': 74, 'loaded': True, 'loadedTime': 3455.699999809265, 'positionName': 'RIGHT', 'positionCoords': [710.32, 179], 'bid': 1.79}]",116309.19999980927,1669830002019,fried eggs,sweetpotato,1.39,1.79,0.40000000000000013,fried eggs,607.6000001430511,609,609.1000001430511,True,u,117436.89999985695,1127.7000000476837,1669830003147,1128,HRV,HRV_0011,2022-11-30 17:42:57
75,"[{'imgObject': {}, 'id': 'pear', 'src': '/static/foodstim60/pear.jpg', 'key': 'u', 'origWidth': 411, 'origHeight': 410, 'width': 411, 'height': 410, 'widthPercent': 0.45, 'rescaleHeight': False, 'trialN': 75, 'loaded': True, 'loadedTime': 3537.7999999523163, 'positionName': 'LEFT', 'positionCoords': [244.68, 179], 'bid': 0.31}, {'imgObject': {}, 'id': 'fruitsalad', 'src': '/static/foodstim60/fruitsalad.jpg', 'key': 'i', 'origWidth': 410, 'origHeight': 410, 'width': 410, 'height': 410, 'widthPercent': 0.45, 'rescaleHeight': False, 'trialN': 75, 'loaded': True, 'loadedTime': 3516.199999809265, 'positionName': 'RIGHT', 'positionCoords': [710.32, 179], 'bid': 0.31}]",117437.79999995232,1669830003148,pear,fruitsalad,0.31,0.31,0.0,fruitsalad,692.0999999046326,693,693.2999999523163,True,i,118635.29999995232,1197.5,1669830004345,1197,HRV,HRV_0011,2022-11-30 17:42:57
76,"[{'imgObject': {}, 'id': 'luckycharms', 'src': '/static/foodstim60/luckycharms.jpg', 'key': 'u', 'origWidth': 410, 'origHeight': 409, 'width': 410, 'height': 409, 'widthPercent': 0.45, 'rescaleHeight': False, 'trialN': 76, 'loaded': True, 'loadedTime': 3282.199999809265, 'positionName': 'LEFT', 'positionCoords': [245.68, 179.5], 'bid': 0.35}, {'imgObject': {}, 'id': 'omelette', 'src': '/static/foodstim60/omelette.jpg', 'key': 'i', 'origWidth': 410, 'origHeight': 409, 'width': 410, 'height': 409, 'widthPercent': 0.45, 'rescaleHeight': False, 'trialN': 76, 'loaded': True, 'loadedTime': 3446.5, 'positionName': 'RIGHT', 'positionCoords': [710.32, 179.5], 'bid': 0.19}]",118636.0,1669830004346,luckycharms,omelette,0.35,0.19,-0.15999999999999998,luckycharms,772.5999999046326,774,773.7999999523163,True,u,119915.19999980927,1279.1999998092651,1669830005625,1279,HRV,HRV_0011,2022-11-30 17:42:57
77,"[{'imgObject': {}, 'id': 'turkeysandwich', 'src': '/static/foodstim60/turkeysandwich.jpg', 'key': 'u', 'origWidth': 409, 'origHeight': 409, 'width': 409, 'height': 409, 'widthPercent': 0.45, 'rescaleHeight': False, 'trialN': 77, 'loaded': True, 'loadedTime': 3085.0999999046326, 'positionName': 'LEFT', 'positionCoords': [246.68, 179.5], 'bid': 0.98}, {'imgObject': {}, 'id': 'baked potato', 'src': '/static/foodstim60/baked potato.jpg', 'key': 'i', 'origWidth': 409, 'origHeight': 410, 'width': 409, 'height': 410, 'widthPercent': 0.45, 'rescaleHeight': False, 'trialN': 77, 'loaded': True, 'loadedTime': 3328.0999999046326, 'positionName': 'RIGHT', 'positionCoords': [710.32, 179], 'bid': 1.32}]",119916.0,1669830005626,turkeysandwich,baked potato,0.98,1.32,0.3400000000000001,turkeysandwich,1473.1999998092651,1475,1474.5,True,u,121908.69999980927,1992.6999998092651,1669830007619,1993,HRV,HRV_0011,2022-11-30 17:42:57
78,"[{'imgObject': {}, 'id': 'tacos', 'src': '/static/foodstim60/tacos.jpg', 'key': 'u', 'origWidth': 411, 'origHeight': 411, 'width': 411, 'height': 411, 'widthPercent': 0.45, 'rescaleHeight': False, 'trialN': 78, 'loaded': True, 'loadedTime': 3448.199999809265, 'positionName': 'LEFT', 'positionCoords': [244.68, 178.5], 'bid': 0.24}, {'imgObject': {}, 'id': 'kiwi', 'src': '/static/foodstim60/kiwi.jpg', 'key': 'i', 'origWidth': 410, 'origHeight': 410, 'width': 410, 'height': 410, 'widthPercent': 0.45, 'rescaleHeight': False, 'trialN': 78, 'loaded': True, 'loadedTime': 3225, 'positionName': 'RIGHT', 'positionCoords': [710.32, 179], 'bid': 0.32}]",121909.59999990463,1669830007620,tacos,kiwi,0.24,0.32,0.08000000000000002,kiwi,787.4000000953674,788,788.7000000476837,True,i,123210.29999995232,1300.7000000476837,1669830008920,1300,HRV,HRV_0011,2022-11-30 17:42:57
79,"[{'imgObject': {}, 'id': 'shreddedwheatwithmilk', 'src': '/static/foodstim60/shreddedwheatwithmilk.jpg', 'key': 'u', 'origWidth': 410, 'origHeight': 410, 'width': 410, 'height': 410, 'widthPercent': 0.45, 'rescaleHeight': False, 'trialN': 79, 'loaded': True, 'loadedTime': 3044.5, 'positionName': 'LEFT', 'positionCoords': [245.68, 179], 'bid': 0.38}, {'imgObject': {}, 'id': 'hashbrowns', 'src': '/static/foodstim60/hashbrowns.jpg', 'key': 'i', 'origWidth': 411, 'origHeight': 410, 'width': 411, 'height': 410, 'widthPercent': 0.45, 'rescaleHeight': False, 'trialN': 79, 'loaded': True, 'loadedTime': 3424.2999999523163, 'positionName': 'RIGHT', 'positionCoords': [710.32, 179], 'bid': 0.46}]",123210.79999995232,1669830008921,shreddedwheatwithmilk,hashbrowns,0.38,0.46,0.08000000000000002,hashbrowns,2562.7000000476837,2564,2564.0,True,i,126294.29999995232,3083.5,1669830012004,3083,HRV,HRV_0011,2022-11-30 17:42:57
80,"[{'imgObject': {}, 'id': 'froot loops w milk', 'src': '/static/foodstim60/froot loops w milk.jpg', 'key': 'u', 'origWidth': 410, 'origHeight': 410, 'width': 410, 'height': 410, 'widthPercent': 0.45, 'rescaleHeight': False, 'trialN': 80, 'loaded': True, 'loadedTime': 3168.399999856949, 'positionName': 'LEFT', 'positionCoords': [245.68, 179], 'bid': 0.32}, {'imgObject': {}, 'id': 'granola w milk', 'src': '/static/foodstim60/granola w milk.jpg', 'key': 'i', 'origWidth': 410, 'origHeight': 410, 'width': 410, 'height': 410, 'widthPercent': 0.45, 'rescaleHeight': False, 'trialN': 80, 'loaded': True, 'loadedTime': 3239.2999999523163, 'positionName': 'RIGHT', 'positionCoords': [710.32, 179], 'bid': 0.32}]",126294.59999990463,1669830012005,froot loops w milk,granola w milk,0.32,0.32,0.0,granola w milk,1429.7000000476837,1431,1431.0,True,i,128238.59999990463,1944.0,1669830013948,1943,HRV,HRV_0011,2022-11-30 17:42:57
81,"[{'imgObject': {}, 'id': 'turkey sandwich', 'src': '/static/foodstim60/turkey sandwich.jpg', 'key': 'u', 'origWidth': 409, 'origHeight': 409, 'width': 409, 'height': 409, 'widthPercent': 0.45, 'rescaleHeight': False, 'trialN': 81, 'loaded': True, 'loadedTime': 3521.5999999046326, 'positionName': 'LEFT', 'positionCoords': [246.68, 179.5], 'bid': 0.13}, {'imgObject': {}, 'id': 'tacos', 'src': '/static/foodstim60/tacos.jpg', 'key': 'i', 'origWidth': 411, 'origHeight': 411, 'width': 411, 'height': 411, 'widthPercent': 0.45, 'rescaleHeight': False, 'trialN': 81, 'loaded': True, 'loadedTime': 3448.699999809265, 'positionName': 'RIGHT', 'positionCoords': [710.32, 178.5], 'bid': 0.24}]",128239.39999985695,1669830013949,turkey sandwich,tacos,0.13,0.24,0.10999999999999999,turkey sandwich,1728.2000000476837,1730,1729.4000000953674,True,u,130488.89999985695,2249.5,1669830016199,2250,HRV,HRV_0011,2022-11-30 17:42:57
82,"[{'imgObject': {}, 'id': 'pear', 'src': '/static/foodstim60/pear.jpg', 'key': 'u', 'origWidth': 411, 'origHeight': 410, 'width': 411, 'height': 410, 'widthPercent': 0.45, 'rescaleHeight': False, 'trialN': 82, 'loaded': True, 'loadedTime': 3535.199999809265, 'positionName': 'LEFT', 'positionCoords': [244.68, 179], 'bid': 0.31}, {'imgObject': {}, 'id': 'bagel and cc', 'src': '/static/foodstim60/bagel and cc.jpg', 'key': 'i', 'origWidth': 410, 'origHeight': 410, 'width': 410, 'height': 410, 'widthPercent': 0.45, 'rescaleHeight': False, 'trialN': 82, 'loaded': True, 'loadedTime': 3456.7999999523163, 'positionName': 'RIGHT', 'positionCoords': [710.32, 179], 'bid': 0.76}]",130489.69999980927,1669830016200,pear,bagel and cc,0.31,0.76,0.45,pear,2444.300000190735,2445,2445.5,True,u,133449.79999995232,2960.100000143051,1669830019160,2960,HRV,HRV_0011,2022-11-30 17:42:57
83,"[{'imgObject': {}, 'id': 'blueberries', 'src': '/static/foodstim60/blueberries.jpg', 'key': 'u', 'origWidth': 411, 'origHeight': 411, 'width': 411, 'height': 411, 'widthPercent': 0.45, 'rescaleHeight': False, 'trialN': 83, 'loaded': True, 'loadedTime': 2984.199999809265, 'positionName': 'LEFT', 'positionCoords': [244.68, 178.5], 'bid': 0.38}, {'imgObject': {}, 'id': 'roastedpotatoes', 'src': '/static/foodstim60/roastedpotatoes.jpg', 'key': 'i', 'origWidth': 409, 'origHeight': 410, 'width': 409, 'height': 410, 'widthPercent': 0.45, 'rescaleHeight': False, 'trialN': 83, 'loaded': True, 'loadedTime': 2920.7999999523163, 'positionName': 'RIGHT', 'positionCoords': [710.32, 179], 'bid': 9.5}]",133450.69999980927,1669830019161,blueberries,roastedpotatoes,0.38,9.5,9.12,blueberries,1360.5,1361,1361.7000000476837,True,u,135323.89999985695,1873.2000000476837,1669830021034,1873,HRV,HRV_0011,2022-11-30 17:42:57
84,"[{'imgObject': {}, 'id': 'Tribe humus pita', 'src': '/static/foodstim60/Tribe humus pita.jpg', 'key': 'u', 'origWidth': 411, 'origHeight': 411, 'width': 411, 'height': 411, 'widthPercent': 0.45, 'rescaleHeight': False, 'trialN': 84, 'loaded': True, 'loadedTime': 3090.5, 'positionName': 'LEFT', 'positionCoords': [244.68, 178.5], 'bid': 4.03}, {'imgObject': {}, 'id': 'yogurt no spoon', 'src': '/static/foodstim60/yogurt no spoon.jpg', 'key': 'i', 'origWidth': 411, 'origHeight': 410, 'width': 411, 'height': 410, 'widthPercent': 0.45, 'rescaleHeight': False, 'trialN': 84, 'loaded': True, 'loadedTime': 3264.399999856949, 'positionName': 'RIGHT', 'positionCoords': [710.32, 179], 'bid': 0.6}]",135324.39999985695,1669830021034,Tribe humus pita,yogurt no spoon,4.03,0.6,-3.43,Tribe humus pita,1268.2000000476837,1270,1269.5,True,u,137105.19999980927,1780.7999999523163,1669830022815,1781,HRV,HRV_0011,2022-11-30 17:42:57
85,"[{'imgObject': {}, 'id': 'lox', 'src': '/static/foodstim60/lox.jpg', 'key': 'u', 'origWidth': 410, 'origHeight': 411, 'width': 410, 'height': 411, 'widthPercent': 0.45, 'rescaleHeight': False, 'trialN': 85, 'loaded': True, 'loadedTime': 3453.199999809265, 'positionName': 'LEFT', 'positionCoords': [245.68, 178.5], 'bid': 0.38}, {'imgObject': {}, 'id': 'shreddedwheatwithmilk', 'src': '/static/foodstim60/shreddedwheatwithmilk.jpg', 'key': 'i', 'origWidth': 410, 'origHeight': 410, 'width': 410, 'height': 410, 'widthPercent': 0.45, 'rescaleHeight': False, 'trialN': 85, 'loaded': True, 'loadedTime': 3057, 'positionName': 'RIGHT', 'positionCoords': [710.32, 179], 'bid': 0.38}]",137105.79999995232,1669830022816,lox,shreddedwheatwithmilk,0.38,0.38,0.0,lox,1357.0,1358,1358.2000000476837,True,u,138977.89999985695,1872.0999999046326,1669830024688,1872,HRV,HRV_0011,2022-11-30 17:42:57
86,"[{'imgObject': {}, 'id': 'eggsalad', 'src': '/static/foodstim60/eggsalad.jpg', 'key': 'u', 'origWidth': 410, 'origHeight': 409, 'width': 410, 'height': 409, 'widthPercent': 0.45, 'rescaleHeight': False, 'trialN': 86, 'loaded': True, 'loadedTime': 3193.5999999046326, 'positionName': 'LEFT', 'positionCoords': [245.68, 179.5], 'bid': 0.78}, {'imgObject': {}, 'id': 'cocktailshrimp', 'src': '/static/foodstim60/cocktailshrimp.jpg', 'key': 'i', 'origWidth': 410, 'origHeight': 410, 'width': 410, 'height': 410, 'widthPercent': 0.45, 'rescaleHeight': False, 'trialN': 86, 'loaded': True, 'loadedTime': 3519.2999999523163, 'positionName': 'RIGHT', 'positionCoords': [710.32, 179], 'bid': 0.53}]",138978.79999995232,1669830024689,eggsalad,cocktailshrimp,0.78,0.53,-0.25,cocktailshrimp,1564.0,1565,1565.2000000476837,True,i,141062.5,2083.7000000476837,1669830026772,2083,HRV,HRV_0011,2022-11-30 17:42:57
87,"[{'imgObject': {}, 'id': 'froot loops w milk', 'src': '/static/foodstim60/froot loops w milk.jpg', 'key': 'u', 'origWidth': 410, 'origHeight': 410, 'width': 410, 'height': 410, 'widthPercent': 0.45, 'rescaleHeight': False, 'trialN': 87, 'loaded': True, 'loadedTime': 3168.5999999046326, 'positionName': 'LEFT', 'positionCoords': [245.68, 179], 'bid': 0.32}, {'imgObject': {}, 'id': 'cherries', 'src': '/static/foodstim60/cherries.jpg', 'key': 'i', 'origWidth': 410, 'origHeight': 411, 'width': 410, 'height': 411, 'widthPercent': 0.45, 'rescaleHeight': False, 'trialN': 87, 'loaded': True, 'loadedTime': 2966.2999999523163, 'positionName': 'RIGHT', 'positionCoords': [710.32, 178.5], 'bid': 0.38}]",141063.29999995232,1669830026773,froot loops w milk,cherries,0.32,0.38,0.06,froot loops w milk,1134.0,1136,1135.2999999523163,True,u,142707.39999985695,1644.0999999046326,1669830028417,1644,HRV,HRV_0011,2022-11-30 17:42:57
88,"[{'imgObject': {}, 'id': 'sweetpotato', 'src': '/static/foodstim60/sweetpotato.jpg', 'key': 'u', 'origWidth': 410, 'origHeight': 410, 'width': 410, 'height': 410, 'widthPercent': 0.45, 'rescaleHeight': False, 'trialN': 88, 'loaded': True, 'loadedTime': 3456.5, 'positionName': 'LEFT', 'positionCoords': [245.68, 179], 'bid': 1.79}, {'imgObject': {}, 'id': 'baked potato', 'src': '/static/foodstim60/baked potato.jpg', 'key': 'i', 'origWidth': 409, 'origHeight': 410, 'width': 409, 'height': 410, 'widthPercent': 0.45, 'rescaleHeight': False, 'trialN': 88, 'loaded': True, 'loadedTime': 3328.199999809265, 'positionName': 'RIGHT', 'positionCoords': [710.32, 179], 'bid': 1.32}]",142708.29999995232,1669830028418,sweetpotato,baked potato,1.79,1.32,-0.47,sweetpotato,2007.0,2009,2008.2999999523163,True,u,145227.39999985695,2519.0999999046326,1669830030937,2519,HRV,HRV_0011,2022-11-30 17:42:57
89,"[{'imgObject': {}, 'id': 'fruitsalad', 'src': '/static/foodstim60/fruitsalad.jpg', 'key': 'u', 'origWidth': 410, 'origHeight': 410, 'width': 410, 'height': 410, 'widthPercent': 0.45, 'rescaleHeight': False, 'trialN': 89, 'loaded': True, 'loadedTime': 3517, 'positionName': 'LEFT', 'positionCoords': [245.68, 179], 'bid': 0.31}, {'imgObject': {}, 'id': 'salmon', 'src': '/static/foodstim60/salmon.jpg', 'key': 'i', 'origWidth': 410, 'origHeight': 409, 'width': 410, 'height': 409, 'widthPercent': 0.45, 'rescaleHeight': False, 'trialN': 89, 'loaded': True, 'loadedTime': 3269.0999999046326, 'positionName': 'RIGHT', 'positionCoords': [710.32, 179.5], 'bid': 0.66}]",145228.29999995232,1669830030938,fruitsalad,salmon,0.31,0.66,0.35000000000000003,salmon,1648.2000000476837,1650,1649.8999998569489,True,i,147389.29999995232,2161.0,1669830033099,2161,HRV,HRV_0011,2022-11-30 17:42:57
90,"[{'imgObject': {}, 'id': 'corn cob', 'src': '/static/foodstim60/corn cob.jpg', 'key': 'u', 'origWidth': 411, 'origHeight': 411, 'width': 411, 'height': 411, 'widthPercent': 0.45, 'rescaleHeight': False, 'trialN': 90, 'loaded': True, 'loadedTime': 3393.199999809265, 'positionName': 'LEFT', 'positionCoords': [244.68, 178.5], 'bid': 6.7700000000000005}, {'imgObject': {}, 'id': 'fried eggs', 'src': '/static/foodstim60/fried eggs.jpg', 'key': 'i', 'origWidth': 410, 'origHeight': 410, 'width': 410, 'height': 410, 'widthPercent': 0.45, 'rescaleHeight': False, 'trialN': 90, 'loaded': True, 'loadedTime': 3020.5999999046326, 'positionName': 'RIGHT', 'positionCoords': [710.32, 179], 'bid': 1.39}]",149786.69999980927,1669830035497,corn cob,fried eggs,6.7700000000000005,1.39,-5.380000000000001,fried eggs,2433.5,2434,2434.800000190735,True,i,152731.69999980927,2945.0,1669830038442,2945,HRV,HRV_0011,2022-11-30 17:42:57
91,"[{'imgObject': {}, 'id': 'bagel and cc', 'src': '/static/foodstim60/bagel and cc.jpg', 'key': 'u', 'origWidth': 410, 'origHeight': 410, 'width': 410, 'height': 410, 'widthPercent': 0.45, 'rescaleHeight': False, 'trialN': 91, 'loaded': True, 'loadedTime': 3477.899999856949, 'positionName': 'LEFT', 'positionCoords': [245.68, 179], 'bid': 0.76}, {'imgObject': {}, 'id': 'strawberries', 'src': '/static/foodstim60/strawberries.jpg', 'key': 'i', 'origWidth': 410, 'origHeight': 410, 'width': 410, 'height': 410, 'widthPercent': 0.45, 'rescaleHeight': False, 'trialN': 91, 'loaded': True, 'loadedTime': 3214.399999856949, 'positionName': 'RIGHT', 'positionCoords': [710.32, 179], 'bid': 3.25}]",152732.5,1669830038442,bagel and cc,strawberries,0.76,3.25,2.49,strawberries,813.0,815,814.2999999523163,True,i,154065.29999995232,1332.7999999523163,1669830039775,1333,HRV,HRV_0011,2022-11-30 17:42:57
92,"[{'imgObject': {}, 'id': 'Tribe humus pita', 'src': '/static/foodstim60/Tribe humus pita.jpg', 'key': 'u', 'origWidth': 411, 'origHeight': 411, 'width': 411, 'height': 411, 'widthPercent': 0.45, 'rescaleHeight': False, 'trialN': 92, 'loaded': True, 'loadedTime': 3104.699999809265, 'positionName': 'LEFT', 'positionCoords': [244.68, 178.5], 'bid': 4.03}, {'imgObject': {}, 'id': 'chickenfingers', 'src': '/static/foodstim60/chickenfingers.jpg', 'key': 'i', 'origWidth': 410, 'origHeight': 410, 'width': 410, 'height': 410, 'widthPercent': 0.45, 'rescaleHeight': False, 'trialN': 92, 'loaded': True, 'loadedTime': 3328.5, 'positionName': 'RIGHT', 'positionCoords': [710.32, 179], 'bid': 5.7700000000000005}]",154066.09999990463,1669830039776,Tribe humus pita,chickenfingers,4.03,5.7700000000000005,1.7400000000000002,chickenfingers,659.7000000476837,661,661.0999999046326,True,i,155237.69999980927,1171.5999999046326,1669830040948,1172,HRV,HRV_0011,2022-11-30 17:42:57
93,"[{'imgObject': {}, 'id': 'raisin bran w milk', 'src': '/static/foodstim60/raisin bran w milk.jpg', 'key': 'u', 'origWidth': 411, 'origHeight': 411, 'width': 411, 'height': 411, 'widthPercent': 0.45, 'rescaleHeight': False, 'trialN': 93, 'loaded': True, 'loadedTime': 3427.7999999523163, 'positionName': 'LEFT', 'positionCoords': [244.68, 178.5], 'bid': 0.4}, {'imgObject': {}, 'id': 'baked potato', 'src': '/static/foodstim60/baked potato.jpg', 'key': 'i', 'origWidth': 409, 'origHeight': 410, 'width': 409, 'height': 410, 'widthPercent': 0.45, 'rescaleHeight': False, 'trialN': 93, 'loaded': True, 'loadedTime': 3326.7999999523163, 'positionName': 'RIGHT', 'positionCoords': [710.32, 179], 'bid': 1.32}]",155238.19999980927,1669830040948,raisin bran w milk,baked potato,0.4,1.32,0.92,baked potato,769.5,771,770.9000000953674,True,i,156520.5,1282.3000001907349,1669830042230,1282,HRV,HRV_0011,2022-11-30 17:42:57
94,"[{'imgObject': {}, 'id': 'chicken nuggets2', 'src': '/static/foodstim60/chicken nuggets2.jpg', 'key': 'u', 'origWidth': 410, 'origHeight': 409, 'width': 410, 'height': 409, 'widthPercent': 0.45, 'rescaleHeight': False, 'trialN': 94, 'loaded': True, 'loadedTime': 3169.2999999523163, 'positionName': 'LEFT', 'positionCoords': [245.68, 179.5], 'bid': 2.95}, {'imgObject': {}, 'id': 'orange slices', 'src': '/static/foodstim60/orange slices.jpg', 'key': 'i', 'origWidth': 409, 'origHeight': 410, 'width': 409, 'height': 410, 'widthPercent': 0.45, 'rescaleHeight': False, 'trialN': 94, 'loaded': True, 'loadedTime': 3260.5999999046326, 'positionName': 'RIGHT', 'positionCoords': [710.32, 179], 'bid': 0.51}]",156521.09999990463,1669830042231,chicken nuggets2,orange slices,2.95,0.51,-2.4400000000000004,chicken nuggets2,737.9000000953674,739,739.0999999046326,True,u,157763.09999990463,1242.0,1669830043473,1242,HRV,HRV_0011,2022-11-30 17:42:57
95,"[{'imgObject': {}, 'id': 'chicken nuggets2', 'src': '/static/foodstim60/chicken nuggets2.jpg', 'key': 'u', 'origWidth': 410, 'origHeight': 409, 'width': 410, 'height': 409, 'widthPercent': 0.45, 'rescaleHeight': False, 'trialN': 95, 'loaded': True, 'loadedTime': 3171.199999809265, 'positionName': 'LEFT', 'positionCoords': [245.68, 179.5], 'bid': 2.95}, {'imgObject': {}, 'id': 'popsicles', 'src': '/static/foodstim60/popsicles.jpg', 'key': 'i', 'origWidth': 410, 'origHeight': 410, 'width': 410, 'height': 410, 'widthPercent': 0.45, 'rescaleHeight': False, 'trialN': 95, 'loaded': True, 'loadedTime': 3544.199999809265, 'positionName': 'RIGHT', 'positionCoords': [710.32, 179], 'bid': 0.35}]",157763.89999985695,1669830043474,chicken nuggets2,popsicles,2.95,0.35,-2.6,chicken nuggets2,600.1000001430511,601,600.7999999523163,True,u,158867.39999985695,1103.5,1669830044577,1103,HRV,HRV_0011,2022-11-30 17:42:57
96,"[{'imgObject': {}, 'id': 'burrito', 'src': '/static/foodstim60/burrito.jpg', 'key': 'u', 'origWidth': 410, 'origHeight': 410, 'width': 410, 'height': 410, 'widthPercent': 0.45, 'rescaleHeight': False, 'trialN': 96, 'loaded': True, 'loadedTime': 3371.699999809265, 'positionName': 'LEFT', 'positionCoords': [245.68, 179], 'bid': 0.37}, {'imgObject': {}, 'id': 'mashed potato', 'src': '/static/foodstim60/mashed potato.jpg', 'key': 'i', 'origWidth': 409, 'origHeight': 409, 'width': 409, 'height': 409, 'widthPercent': 0.45, 'rescaleHeight': False, 'trialN': 96, 'loaded': True, 'loadedTime': 2946.5999999046326, 'positionName': 'RIGHT', 'positionCoords': [710.32, 179.5], 'bid': 4.54}]",158868.19999980927,1669830044578,burrito,mashed potato,0.37,4.54,4.17,mashed potato,592.1000001430511,594,593.4000000953674,True,i,159964.59999990463,1096.4000000953674,1669830045675,1097,HRV,HRV_0011,2022-11-30 17:42:57
97,"[{'imgObject': {}, 'id': 'bagel and cc', 'src': '/static/foodstim60/bagel and cc.jpg', 'key': 'u', 'origWidth': 410, 'origHeight': 410, 'width': 410, 'height': 410, 'widthPercent': 0.45, 'rescaleHeight': False, 'trialN': 97, 'loaded': True, 'loadedTime': 3475.899999856949, 'positionName': 'LEFT', 'positionCoords': [245.68, 179], 'bid': 0.76}, {'imgObject': {}, 'id': 'corn cob', 'src': '/static/foodstim60/corn cob.jpg', 'key': 'i', 'origWidth': 411, 'origHeight': 411, 'width': 411, 'height': 411, 'widthPercent': 0.45, 'rescaleHeight': False, 'trialN': 97, 'loaded': True, 'loadedTime': 3395.5, 'positionName': 'RIGHT', 'positionCoords': [710.32, 178.5], 'bid': 6.7700000000000005}]",159965.39999985695,1669830045675,bagel and cc,corn cob,0.76,6.7700000000000005,6.010000000000001,corn cob,624.0,626,625.4000000953674,True,i,161109.59999990463,1144.2000000476837,1669830046819,1144,HRV,HRV_0011,2022-11-30 17:42:57
98,"[{'imgObject': {}, 'id': 'blueberries', 'src': '/static/foodstim60/blueberries.jpg', 'key': 'u', 'origWidth': 411, 'origHeight': 411, 'width': 411, 'height': 411, 'widthPercent': 0.45, 'rescaleHeight': False, 'trialN': 98, 'loaded': True, 'loadedTime': 2984.5, 'positionName': 'LEFT', 'positionCoords': [244.68, 178.5], 'bid': 0.38}, {'imgObject': {}, 'id': 'kiwi', 'src': '/static/foodstim60/kiwi.jpg', 'key': 'i', 'origWidth': 410, 'origHeight': 410, 'width': 410, 'height': 410, 'widthPercent': 0.45, 'rescaleHeight': False, 'trialN': 98, 'loaded': True, 'loadedTime': 3224.399999856949, 'positionName': 'RIGHT', 'positionCoords': [710.32, 179], 'bid': 0.32}]",161110.29999995232,1669830046820,blueberries,kiwi,0.38,0.32,-0.06,kiwi,917.7999999523163,919,919.0999999046326,True,i,162538.19999980927,1427.8999998569489,1669830048248,1428,HRV,HRV_0011,2022-11-30 17:42:57
99,"[{'imgObject': {}, 'id': 'cocktailshrimp', 'src': '/static/foodstim60/cocktailshrimp.jpg', 'key': 'u', 'origWidth': 410, 'origHeight': 410, 'width': 410, 'height': 410, 'widthPercent': 0.45, 'rescaleHeight': False, 'trialN': 99, 'loaded': True, 'loadedTime': 3519.899999856949, 'positionName': 'LEFT', 'positionCoords': [245.68, 179], 'bid': 0.53}, {'imgObject': {}, 'id': 'rigatoni', 'src': '/static/foodstim60/rigatoni.jpg', 'key': 'i', 'origWidth': 411, 'origHeight': 411, 'width': 411, 'height': 411, 'widthPercent': 0.45, 'rescaleHeight': False, 'trialN': 99, 'loaded': True, 'loadedTime': 3512.7999999523163, 'positionName': 'RIGHT', 'positionCoords': [710.32, 178.5], 'bid': 0.6}]",162539.0,1669830048249,cocktailshrimp,rigatoni,0.53,0.6,0.06999999999999995,rigatoni,1009.0,1010,1010.2999999523163,True,i,164057.5,1518.5,1669830049767,1518,HRV,HRV_0011,2022-11-30 17:42:57
100,"[{'imgObject': {}, 'id': 'popsicles', 'src': '/static/foodstim60/popsicles.jpg', 'key': 'u', 'origWidth': 410, 'origHeight': 410, 'width': 410, 'height': 410, 'widthPercent': 0.45, 'rescaleHeight': False, 'trialN': 100, 'loaded': True, 'loadedTime': 3542.699999809265, 'positionName': 'LEFT', 'positionCoords': [245.68, 179], 'bid': 0.35}, {'imgObject': {}, 'id': 'sushi w_condiments', 'src': '/static/foodstim60/sushi w_condiments.jpg', 'key': 'i', 'origWidth': 410, 'origHeight': 410, 'width': 410, 'height': 410, 'widthPercent': 0.45, 'rescaleHeight': False, 'trialN': 100, 'loaded': True, 'loadedTime': 3503.5, 'positionName': 'RIGHT', 'positionCoords': [710.32, 179], 'bid': 0.35}]",164058.29999995232,1669830049768,popsicles,sushi w_condiments,0.35,0.35,0.0,popsicles,1060.2999999523163,1062,1061.7000000476837,True,u,165639.09999990463,1580.7999999523163,1669830051349,1581,HRV,HRV_0011,2022-11-30 17:42:57
101,"[{'imgObject': {}, 'id': 'hashbrowns', 'src': '/static/foodstim60/hashbrowns.jpg', 'key': 'u', 'origWidth': 411, 'origHeight': 410, 'width': 411, 'height': 410, 'widthPercent': 0.45, 'rescaleHeight': False, 'trialN': 101, 'loaded': True, 'loadedTime': 3400.899999856949, 'positionName': 'LEFT', 'positionCoords': [244.68, 179], 'bid': 0.46}, {'imgObject': {}, 'id': 'grilled chicken strips', 'src': '/static/foodstim60/grilled chicken strips.jpg', 'key': 'i', 'origWidth': 410, 'origHeight': 411, 'width': 410, 'height': 411, 'widthPercent': 0.45, 'rescaleHeight': False, 'trialN': 101, 'loaded': True, 'loadedTime': 3541.2999999523163, 'positionName': 'RIGHT', 'positionCoords': [710.32, 178.5], 'bid': 0.44}]",165639.39999985695,1669830051349,hashbrowns,grilled chicken strips,0.46,0.44,-0.020000000000000018,grilled chicken strips,859.2000000476837,861,860.4000000953674,True,i,167003.09999990463,1363.7000000476837,1669830052713,1364,HRV,HRV_0011,2022-11-30 17:42:57
102,"[{'imgObject': {}, 'id': 'omelette', 'src': '/static/foodstim60/omelette.jpg', 'key': 'u', 'origWidth': 410, 'origHeight': 409, 'width': 410, 'height': 409, 'widthPercent': 0.45, 'rescaleHeight': False, 'trialN': 102, 'loaded': True, 'loadedTime': 3432, 'positionName': 'LEFT', 'positionCoords': [245.68, 179.5], 'bid': 0.19}, {'imgObject': {}, 'id': 'grilled chicken strips', 'src': '/static/foodstim60/grilled chicken strips.jpg', 'key': 'i', 'origWidth': 410, 'origHeight': 411, 'width': 410, 'height': 411, 'widthPercent': 0.45, 'rescaleHeight': False, 'trialN': 102, 'loaded': True, 'loadedTime': 3538.399999856949, 'positionName': 'RIGHT', 'positionCoords': [710.32, 178.5], 'bid': 0.44}]",167003.79999995232,1669830052714,omelette,grilled chicken strips,0.19,0.44,0.25,omelette,1236.2000000476837,1237,1237.5,True,u,168748.59999990463,1744.7999999523163,1669830054459,1745,HRV,HRV_0011,2022-11-30 17:42:57
103,"[{'imgObject': {}, 'id': 'orange slices', 'src': '/static/foodstim60/orange slices.jpg', 'key': 'u', 'origWidth': 409, 'origHeight': 410, 'width': 409, 'height': 410, 'widthPercent': 0.45, 'rescaleHeight': False, 'trialN': 103, 'loaded': True, 'loadedTime': 3260.0999999046326, 'positionName': 'LEFT', 'positionCoords': [246.68, 179], 'bid': 0.51}, {'imgObject': {}, 'id': 'bagel plain', 'src': '/static/foodstim60/bagel plain.jpg', 'key': 'i', 'origWidth': 410, 'origHeight': 410, 'width': 410, 'height': 410, 'widthPercent': 0.45, 'rescaleHeight': False, 'trialN': 103, 'loaded': True, 'loadedTime': 3482, 'positionName': 'RIGHT', 'positionCoords': [710.32, 179], 'bid': 0.24}]",168749.5,1669830054459,orange slices,bagel plain,0.51,0.24,-0.27,orange slices,2000.1999998092651,2002,2001.5,True,u,171262.79999995232,2513.2999999523163,1669830056973,2514,HRV,HRV_0011,2022-11-30 17:42:57
104,"[{'imgObject': {}, 'id': 'chicken nuggets2', 'src': '/static/foodstim60/chicken nuggets2.jpg', 'key': 'u', 'origWidth': 410, 'origHeight': 409, 'width': 410, 'height': 409, 'widthPercent': 0.45, 'rescaleHeight': False, 'trialN': 104, 'loaded': True, 'loadedTime': 3191.399999856949, 'positionName': 'LEFT', 'positionCoords': [245.68, 179.5], 'bid': 2.95}, {'imgObject': {}, 'id': 'raspberries', 'src': '/static/foodstim60/raspberries.jpg', 'key': 'i', 'origWidth': 411, 'origHeight': 411, 'width': 411, 'height': 411, 'widthPercent': 0.45, 'rescaleHeight': False, 'trialN': 104, 'loaded': True, 'loadedTime': 3002.7999999523163, 'positionName': 'RIGHT', 'positionCoords': [710.32, 178.5], 'bid': 0.6900000000000001}]",171263.59999990463,1669830056974,chicken nuggets2,raspberries,2.95,0.6900000000000001,-2.2600000000000002,chicken nuggets2,1466.0999999046326,1467,1467.5,True,u,173233.69999980927,1970.0999999046326,1669830058944,1970,HRV,HRV_0011,2022-11-30 17:42:57
105,"[{'imgObject': {}, 'id': 'cherries', 'src': '/static/foodstim60/cherries.jpg', 'key': 'u', 'origWidth': 410, 'origHeight': 411, 'width': 410, 'height': 411, 'widthPercent': 0.45, 'rescaleHeight': False, 'trialN': 105, 'loaded': True, 'loadedTime': 2979.7999999523163, 'positionName': 'LEFT', 'positionCoords': [245.68, 178.5], 'bid': 0.38}, {'imgObject': {}, 'id': 'veggieswithdip', 'src': '/static/foodstim60/veggieswithdip.jpg', 'key': 'i', 'origWidth': 409, 'origHeight': 409, 'width': 409, 'height': 409, 'widthPercent': 0.45, 'rescaleHeight': False, 'trialN': 105, 'loaded': True, 'loadedTime': 3488.2999999523163, 'positionName': 'RIGHT', 'positionCoords': [710.32, 179.5], 'bid': 0.41}]",173234.5,1669830058944,cherries,veggieswithdip,0.38,0.41,0.02999999999999997,veggieswithdip,1168.7999999523163,1170,1169.5,True,i,174910.79999995232,1676.2999999523163,1669830060621,1677,HRV,HRV_0011,2022-11-30 17:42:57
106,"[{'imgObject': {}, 'id': 'banana', 'src': '/static/foodstim60/banana.jpg', 'key': 'u', 'origWidth': 410, 'origHeight': 410, 'width': 410, 'height': 410, 'widthPercent': 0.45, 'rescaleHeight': False, 'trialN': 106, 'loaded': True, 'loadedTime': 2944, 'positionName': 'LEFT', 'positionCoords': [245.68, 179], 'bid': 3.34}, {'imgObject': {}, 'id': 'eggsalad', 'src': '/static/foodstim60/eggsalad.jpg', 'key': 'i', 'origWidth': 410, 'origHeight': 409, 'width': 410, 'height': 409, 'widthPercent': 0.45, 'rescaleHeight': False, 'trialN': 106, 'loaded': True, 'loadedTime': 3191.5, 'positionName': 'RIGHT', 'positionCoords': [710.32, 179.5], 'bid': 0.78}]",174911.19999980927,1669830060621,banana,eggsalad,3.34,0.78,-2.5599999999999996,banana,1863.5,1866,1865.4000000953674,True,u,177290.29999995232,2379.100000143051,1669830063000,2379,HRV,HRV_0011,2022-11-30 17:42:57
107,"[{'imgObject': {}, 'id': 'fried eggs', 'src': '/static/foodstim60/fried eggs.jpg', 'key': 'u', 'origWidth': 410, 'origHeight': 410, 'width': 410, 'height': 410, 'widthPercent': 0.45, 'rescaleHeight': False, 'trialN': 107, 'loaded': True, 'loadedTime': 3021.699999809265, 'positionName': 'LEFT', 'positionCoords': [245.68, 179], 'bid': 1.39}, {'imgObject': {}, 'id': 'veggieswithdip', 'src': '/static/foodstim60/veggieswithdip.jpg', 'key': 'i', 'origWidth': 409, 'origHeight': 409, 'width': 409, 'height': 409, 'widthPercent': 0.45, 'rescaleHeight': False, 'trialN': 107, 'loaded': True, 'loadedTime': 3489.2999999523163, 'positionName': 'RIGHT', 'positionCoords': [710.32, 179.5], 'bid': 0.41}]",177291.09999990463,1669830063001,fried eggs,veggieswithdip,1.39,0.41,-0.98,fried eggs,1554.0999999046326,1555,1555.4000000953674,True,u,179354.89999985695,2063.7999999523163,1669830065065,2064,HRV,HRV_0011,2022-11-30 17:42:57
108,"[{'imgObject': {}, 'id': 'apple slices', 'src': '/static/foodstim60/apple slices.jpg', 'key': 'u', 'origWidth': 409, 'origHeight': 410, 'width': 409, 'height': 410, 'widthPercent': 0.45, 'rescaleHeight': False, 'trialN': 108, 'loaded': True, 'loadedTime': 3302.899999856949, 'positionName': 'LEFT', 'positionCoords': [246.68, 179], 'bid': 0.35}, {'imgObject': {}, 'id': 'fruitsalad', 'src': '/static/foodstim60/fruitsalad.jpg', 'key': 'i', 'origWidth': 410, 'origHeight': 410, 'width': 410, 'height': 410, 'widthPercent': 0.45, 'rescaleHeight': False, 'trialN': 108, 'loaded': True, 'loadedTime': 3513.0999999046326, 'positionName': 'RIGHT', 'positionCoords': [710.32, 179], 'bid': 0.31}]",179355.79999995232,1669830065066,apple slices,fruitsalad,0.35,0.31,-0.03999999999999998,fruitsalad,838.7000000476837,840,840.0,True,i,180703.59999990463,1347.7999999523163,1669830066413,1347,HRV,HRV_0011,2022-11-30 17:42:57
