success,trial_type,trial_index,time_elapsed,internal_node_id,Block,TrialNumber,TrialTime,trialTimeDiff,FPS_avg,FPS_med,FPS_mode,TrialDur,winResizeTime,rt,block,button_pressed,MotCoh,MotDir,ColCoh,Color,ChoiceKey,Choice,Accuracy,RT,nFrames,FPS,PPD,missTrial,missTrialMsg,onsetDelay,fullScreenExitTime,canvCenter,TrialType,Score,BlockTrial,stimulus,button_labels,exp,subjectId,date
True,fullscreen,0,3218,0.0-0.0,0.0,1.0,,,,,,,,,,,,,,,,,,,,,,,,,,,,,,,,HRV,HRV_0063,2022-11-30 17:58:59
,wl-check-fps,1,9183,0.0-1.0,0.0,2.0,"[6591, 6611, 6643, 6683, 6701, 6713, 6725, 6744, 6762, 6774, 6796, 6809, 6828, 6842, 6859, 6874, 6892, 6908, 6925, 6943, 6959, 6978, 6992, 7012, 7040, 7059, 7082, 7091, 7109, 7124, 7142, 7166, 7195, 7209, 7229, 7242, 7262, 7277, 7297, 7308, 7324, 7341, 7359, 7374, 7392, 7417, 7431, 7453, 7479, 7496, 7510, 7524, 7542, 7558, 7574, 7598, 7610, 7637, 7647, 7662, 7675, 7693, 7711, 7725, 7743, 7774, 7795, 7813, 7845, 7859, 7877, 7891, 7910, 7925, 7947, 7969, 7984, 8002, 8016, 8046, 8069, 8096, 8108, 8125, 8143, 8157, 8174, 8195, 8208, 8225, 8245, 8282, 8346, 8368, 8395, 8408, 8425, 8442, 8469, 8507, 8531, 8565, 8594, 8613, 8641, 8664, 8698, 8725, 8746, 8757, 8776, 8792, 8810, 8825, 8841, 8857, 8875, 8896, 8907, 8928, 8941, 8975, 8993, 9008, 9026, 9042, 9057, 9075, 9092, 9114, 9125, 9144, 9157, 9177, 9191, 9215, 9226, 9242, 9258, 9274, 9292, 9308, 9329, 9343, 9364, 9374, 9405, 9414, 9426, 9443, 9458, 9474, 9496, 9518, 9534, 9549, 9564, 9576, 9591, 9611, 9624, 9643, 9661, 9675, 9692, 9708, 9734, 9766, 9779, 9799, 9843, 9890, 9943, 9964, 10001, 10063, 10081, 10115, 10205, 10240, 10280, 10338, 10363, 10376, 10394, 10413, 10429, 10449, 10458, 10484, 10515, 10530, 10547, 10559, 10576, 10592, 10607, 10636, 10647, 10659, 10686, 10709, 10726, 10745, 10761, 10775, 10796, 10825, 10848, 10862, 10878, 10892, 10910, 10925, 10941, 10958, 10974, 10992, 11008, 11033, 11065, 11075, 11095, 11107, 11125, 11145, 11168, 11191, 11218, 11235, 11280, 11295, 11314, 11329, 11344, 11358, 11379, 11410, 11425, 11448, 11482, 11509, 11547, 11560, 11575, 11595, 11609, 11626, 11642, 11657, 11675, 11692, 11716, 11728, 11749, 11759, 11779, 11792, 11810, 11825, 11842, 11857, 11880, 11902, 11916, 11942, 11963, 11975, 11996, 12008, 12027, 12042, 12058, 12075, 12092, 12108, 12124, 12145, 12158, 12179, 12191, 12213, 12225, 12243, 12257, 12275, 12293, 12307, 12325, 12342, 12361, 12374, 12396, 12407, 12431, 12443, 12460, 12476, 12495, 12507]","[14, 20, 32, 40, 18, 12, 12, 19, 18, 12, 22, 13, 19, 14, 17, 15, 18, 16, 17, 18, 16, 19, 14, 20, 28, 19, 23, 9, 18, 15, 18, 24, 29, 14, 20, 13, 20, 15, 20, 11, 16, 17, 18, 15, 18, 25, 14, 22, 26, 17, 14, 14, 18, 16, 16, 24, 12, 27, 10, 15, 13, 18, 18, 14, 18, 31, 21, 18, 32, 14, 18, 14, 19, 15, 22, 22, 15, 18, 14, 30, 23, 27, 12, 17, 18, 14, 17, 21, 13, 17, 20, 37, 64, 22, 27, 13, 17, 17, 27, 38, 24, 34, 29, 19, 28, 23, 34, 27, 21, 11, 19, 16, 18, 15, 16, 16, 18, 21, 11, 21, 13, 34, 18, 15, 18, 16, 15, 18, 17, 22, 11, 19, 13, 20, 14, 24, 11, 16, 16, 16, 18, 16, 21, 14, 21, 10, 31, 9, 12, 17, 15, 16, 22, 22, 16, 15, 15, 12, 15, 20, 13, 19, 18, 14, 17, 16, 26, 32, 13, 20, 44, 47, 53, 21, 37, 62, 18, 34, 90, 35, 40, 58, 25, 13, 18, 19, 16, 20, 9, 26, 31, 15, 17, 12, 17, 16, 15, 29, 11, 12, 27, 23, 17, 19, 16, 14, 21, 29, 23, 14, 16, 14, 18, 15, 16, 17, 16, 18, 16, 25, 32, 10, 20, 12, 18, 20, 23, 23, 27, 17, 45, 15, 19, 15, 15, 14, 21, 31, 15, 23, 34, 27, 38, 13, 15, 20, 14, 17, 16, 15, 18, 17, 24, 12, 21, 10, 20, 13, 18, 15, 17, 15, 23, 22, 14, 26, 21, 12, 21, 12, 19, 15, 16, 17, 17, 16, 16, 21, 13, 21, 12, 22, 12, 18, 14, 18, 18, 14, 18, 17, 19, 13, 22, 11, 24, 12, 17, 16, 19, 12]",51.0,63.0,56.0,5951.0,[],,,,,,,,,,,,,,,,,,,,,,,,,HRV,HRV_0063,2022-11-30 17:58:59
,wl-html-keyboard-response,2,25079,0.0-2.0-0.0,0.0,3.0,,,,,,,,13874.0,0.0,0,,,,,,,,,,,,,,,,,,,,,,HRV,HRV_0063,2022-11-30 17:58:59
,wl-rdm,3,35567,0.0-3.0-0.0,0.0,4.0,,,,,,,[],,,,0.0,0.0,87.9,0.0,u,0.0,True,1589.0,58.0,56.0,40.0,False,too_early ,3000.0,[],"[683, 384]",ColorTask_Demo,,,,,HRV,HRV_0063,2022-11-30 17:58:59
,wl-rdm,4,40610,0.0-3.0-1.0,0.0,5.0,,,,,,,[],,,,0.0,0.0,87.9,1.0,i,1.0,True,961.0,52.0,56.0,40.0,False,,2000.0,[],"[683, 384]",ColorTask_Demo,,,,,HRV,HRV_0063,2022-11-30 17:58:59
,wl-html-keyboard-response,5,48014,0.0-3.0-2.0,0.0,6.0,,,,,,,,5397.0,0.0,1,,,,,,,,,,,,,,,,,,,,,,HRV,HRV_0063,2022-11-30 17:58:59
,wl-html-keyboard-response,6,55730,0.0-4.0-0.0,0.0,7.0,,,,,,,,5705.0,0.0,0,,,,,,,,,,,,,,,,,,,,,,HRV,HRV_0063,2022-11-30 17:58:59
,wl-html-keyboard-response,7,63469,0.0-5.0-0.0,0.0,8.0,,,,,,,,5729.0,0.0,0,,,,,,,,,,,,,,,,,,,,,,HRV,HRV_0063,2022-11-30 17:58:59
,wl-rdm,8,66075,0.0-6.0-0.0,0.0,9.0,,,,,,,[],,,,,,62.5,0.0,i,1.0,False,1261.0,47.0,56.0,40.0,False,,280.2069576546248,[],"[683, 384]",ColorTask,-1.0,1.0,,,HRV,HRV_0063,2022-11-30 17:58:59
,wl-rdm,9,68307,0.0-6.1-0.1,0.0,10.0,,,,,,,[],,,,,,87.9,0.0,u,0.0,True,914.0,35.0,56.0,40.0,False,,237.05432180687674,[],"[683, 384]",ColorTask,0.0,2.0,,,HRV,HRV_0063,2022-11-30 17:58:59
,wl-rdm,10,70625,0.0-6.2-0.2,0.0,11.0,,,,,,,[],,,,,,50.0,1.0,i,1.0,True,965.0,43.0,56.0,40.0,False,,293.95988890925145,[],"[683, 384]",ColorTask,1.0,3.0,,,HRV,HRV_0063,2022-11-30 17:58:59
,wl-rdm,11,72841,0.0-6.3-0.3,0.0,12.0,,,,,,,[],,,,,,87.9,1.0,i,1.0,True,834.0,42.0,56.0,40.0,False,,326.28335473050447,[],"[683, 384]",ColorTask,2.0,4.0,,,HRV,HRV_0063,2022-11-30 17:58:59
,wl-rdm,12,75113,0.0-6.4-0.4,0.0,13.0,,,,,,,[],,,,,,87.9,0.0,u,0.0,True,797.0,23.0,56.0,40.0,False,,389.71172144402124,[],"[683, 384]",ColorTask,3.0,5.0,,,HRV,HRV_0063,2022-11-30 17:58:59
,wl-rdm,13,77424,0.0-6.5-0.5,0.0,14.0,,,,,,,[],,,,,,73.6,0.0,i,1.0,False,912.0,32.0,56.0,40.0,False,,311.25433443285834,[],"[683, 384]",ColorTask,2.0,6.0,,,HRV,HRV_0063,2022-11-30 17:58:59
,wl-rdm,14,79741,0.0-6.6-0.6,0.0,15.0,,,,,,,[],,,,,,50.0,0.0,u,0.0,True,943.0,54.0,56.0,40.0,False,,233.27992884760133,[],"[683, 384]",ColorTask,3.0,7.0,,,HRV,HRV_0063,2022-11-30 17:58:59
,wl-rdm,15,82107,0.0-6.7-0.7,0.0,16.0,,,,,,,[],,,,,,73.6,0.0,u,0.0,True,965.0,45.0,56.0,40.0,False,,307.1553157448576,[],"[683, 384]",ColorTask,4.0,8.0,,,HRV,HRV_0063,2022-11-30 17:58:59
,wl-rdm,16,84341,0.0-6.8-0.8,0.0,17.0,,,,,,,[],,,,,,62.5,0.0,i,1.0,False,823.0,41.0,56.0,40.0,False,,328.23608983183294,[],"[683, 384]",ColorTask,3.0,9.0,,,HRV,HRV_0063,2022-11-30 17:58:59
,wl-rdm,17,86694,0.0-6.9-0.9,0.0,18.0,,,,,,,[],,,,,,56.4,0.0,i,1.0,False,1018.0,42.0,56.0,40.0,False,,254.06534093946567,[],"[683, 384]",ColorTask,2.0,10.0,,,HRV,HRV_0063,2022-11-30 17:58:59
,wl-rdm,18,88878,0.0-6.10-0.10,0.0,19.0,,,,,,,[],,,,,,53.2,0.0,i,1.0,False,857.0,32.0,56.0,40.0,False,,229.58364921605929,[],"[683, 384]",ColorTask,1.0,11.0,,,HRV,HRV_0063,2022-11-30 17:58:59
,wl-rdm,19,91335,0.0-6.11-0.11,0.0,20.0,,,,,,,[],,,,,,50.0,0.0,i,1.0,False,1157.0,52.0,56.0,40.0,False,,229.0566865581498,[],"[683, 384]",ColorTask,0.0,12.0,,,HRV,HRV_0063,2022-11-30 17:58:59
,wl-rdm,20,93361,0.0-6.12-0.12,0.0,21.0,,,,,,,[],,,,,,56.4,1.0,u,0.0,False,589.0,27.0,56.0,40.0,False,,359.37966589427685,[],"[683, 384]",ColorTask,-1.0,13.0,,,HRV,HRV_0063,2022-11-30 17:58:59
,wl-rdm,21,95874,0.0-6.13-0.13,0.0,22.0,,,,,,,[],,,,,,73.6,0.0,u,0.0,True,1147.0,42.0,56.0,40.0,False,,293.40565598258235,[],"[683, 384]",ColorTask,0.0,14.0,,,HRV,HRV_0063,2022-11-30 17:58:59
,wl-rdm,22,98191,0.0-6.14-0.14,0.0,23.0,,,,,,,[],,,,,,50.0,0.0,u,0.0,True,963.0,46.0,56.0,40.0,False,,257.7745782028586,[],"[683, 384]",ColorTask,1.0,15.0,,,HRV,HRV_0063,2022-11-30 17:58:59
,wl-rdm,23,100588,0.0-6.15-0.15,0.0,24.0,,,,,,,[],,,,,,56.4,1.0,i,1.0,True,1084.0,59.0,56.0,40.0,False,,233.420174245634,[],"[683, 384]",ColorTask,2.0,16.0,,,HRV,HRV_0063,2022-11-30 17:58:59
,wl-rdm,24,103026,0.0-6.16-0.16,0.0,25.0,,,,,,,[],,,,,,62.5,0.0,u,0.0,True,1005.0,37.0,56.0,40.0,False,,358.7461877465919,[],"[683, 384]",ColorTask,3.0,17.0,,,HRV,HRV_0063,2022-11-30 17:58:59
,wl-rdm,25,105256,0.0-6.17-0.17,0.0,26.0,,,,,,,[],,,,,,50.0,0.0,i,1.0,False,834.0,28.0,56.0,40.0,False,,311.0794648530856,[],"[683, 384]",ColorTask,2.0,18.0,,,HRV,HRV_0063,2022-11-30 17:58:59
,wl-rdm,26,107277,0.0-6.18-0.18,0.0,27.0,,,,,,,[],,,,,,73.6,0.0,u,0.0,True,748.0,36.0,56.0,40.0,False,,211.18137455613896,[],"[683, 384]",ColorTask,3.0,19.0,,,HRV,HRV_0063,2022-11-30 17:58:59
,wl-rdm,27,109496,0.0-6.19-0.19,0.0,28.0,,,,,,,[],,,,,,50.0,1.0,u,0.0,False,939.0,43.0,56.0,40.0,False,,207.5810999262112,[],"[683, 384]",ColorTask,2.0,20.0,,,HRV,HRV_0063,2022-11-30 17:58:59
,wl-rdm,28,111706,0.0-6.20-0.20,0.0,29.0,,,,,,,[],,,,,,62.5,1.0,i,1.0,True,922.0,38.0,56.0,40.0,False,,235.83867653960917,[],"[683, 384]",ColorTask,3.0,21.0,,,HRV,HRV_0063,2022-11-30 17:58:59
,wl-rdm,29,114015,0.0-6.21-0.21,0.0,30.0,,,,,,,[],,,,,,87.9,1.0,i,1.0,True,958.0,32.0,56.0,40.0,False,,270.864869073137,[],"[683, 384]",ColorTask,4.0,22.0,,,HRV,HRV_0063,2022-11-30 17:58:59
,wl-rdm,30,116489,0.0-6.22-0.22,0.0,31.0,,,,,,,[],,,,,,62.5,0.0,u,0.0,True,1074.0,47.0,56.0,40.0,False,,322.59049507934,[],"[683, 384]",ColorTask,5.0,23.0,,,HRV,HRV_0063,2022-11-30 17:58:59
,wl-rdm,31,118773,0.0-6.23-0.23,0.0,32.0,,,,,,,[],,,,,,62.5,0.0,u,0.0,True,837.0,29.0,56.0,40.0,False,,348.4936530836868,[],"[683, 384]",ColorTask,6.0,24.0,,,HRV,HRV_0063,2022-11-30 17:58:59
,wl-rdm,32,121289,0.0-6.24-0.24,0.0,33.0,,,,,,,[],,,,,,62.5,0.0,u,0.0,True,1208.0,47.0,56.0,40.0,False,,230.79384468419778,[],"[683, 384]",ColorTask,7.0,25.0,,,HRV,HRV_0063,2022-11-30 17:58:59
,wl-rdm,33,123677,0.0-6.25-0.25,0.0,34.0,,,,,,,[],,,,,,62.5,1.0,i,1.0,True,1128.0,54.0,56.0,40.0,False,,207.20839770070612,[],"[683, 384]",ColorTask,8.0,26.0,,,HRV,HRV_0063,2022-11-30 17:58:59
,wl-rdm,34,126206,0.0-6.26-0.26,0.0,35.0,,,,,,,[],,,,,,87.9,0.0,u,0.0,True,1066.0,57.0,56.0,40.0,False,,384.8940723999832,[],"[683, 384]",ColorTask,9.0,27.0,,,HRV,HRV_0063,2022-11-30 17:58:59
,wl-rdm,35,128372,0.0-6.27-0.27,0.0,36.0,,,,,,,[],,,,,,73.6,1.0,i,1.0,True,812.0,29.0,56.0,40.0,False,,261.70259844280565,[],"[683, 384]",ColorTask,10.0,28.0,,,HRV,HRV_0063,2022-11-30 17:58:59
,wl-rdm,36,130689,0.0-6.28-0.28,0.0,37.0,,,,,,,[],,,,,,73.6,1.0,i,1.0,True,924.0,28.0,56.0,40.0,False,,301.625605236218,[],"[683, 384]",ColorTask,11.0,29.0,,,HRV,HRV_0063,2022-11-30 17:58:59
,wl-rdm,37,133072,0.0-6.29-0.29,0.0,38.0,,,,,,,[],,,,,,53.2,0.0,u,0.0,True,979.0,47.0,56.0,40.0,False,,307.9998793436529,[],"[683, 384]",ColorTask,12.0,30.0,,,HRV,HRV_0063,2022-11-30 17:58:59
,wl-rdm,38,135408,0.0-6.30-0.30,0.0,39.0,,,,,,,[],,,,,,62.5,1.0,i,1.0,True,971.0,41.0,56.0,40.0,False,,285.84502355037125,[],"[683, 384]",ColorTask,13.0,31.0,,,HRV,HRV_0063,2022-11-30 17:58:59
,wl-rdm,39,137704,0.0-6.31-0.31,0.0,40.0,,,,,,,[],,,,,,73.6,1.0,i,1.0,True,900.0,32.0,56.0,40.0,False,,319.752470243055,[],"[683, 384]",ColorTask,14.0,32.0,,,HRV,HRV_0063,2022-11-30 17:58:59
,wl-rdm,40,139805,0.0-6.32-0.32,0.0,41.0,,,,,,,[],,,,,,53.2,1.0,i,1.0,True,725.0,39.0,56.0,40.0,False,,315.92627371948015,[],"[683, 384]",ColorTask,15.0,33.0,,,HRV,HRV_0063,2022-11-30 17:58:59
,wl-rdm,41,142008,0.0-6.33-0.33,0.0,42.0,,,,,,,[],,,,,,87.9,0.0,u,0.0,True,777.0,37.0,56.0,40.0,False,,362.19917568104364,[],"[683, 384]",ColorTask,16.0,34.0,,,HRV,HRV_0063,2022-11-30 17:58:59
,wl-rdm,42,145349,0.0-6.34-0.34,0.0,43.0,,,,,,,[],,,,,,62.5,1.0,u,0.0,False,1966.0,81.0,56.0,40.0,False,,247.77170345118031,[],"[683, 384]",ColorTask,15.0,35.0,,,HRV,HRV_0063,2022-11-30 17:58:59
,wl-rdm,43,146444,0.0-6.35-0.35,0.0,43.0,,,,,,,[],,,,,,50.0,1.0,u,,,557.0,0.0,56.0,40.0,True,too_early ,284.03599345275643,[],"[683, 384]",ColorTask,14.0,36.0,,,HRV,HRV_0063,2022-11-30 17:58:59
,wl-rdm,44,148760,0.0-6.36-0.36,0.0,44.0,,,,,,,[],,,,,,53.2,1.0,i,1.0,True,998.0,52.0,56.0,40.0,False,,227.95350032237664,[],"[683, 384]",ColorTask,15.0,37.0,,,HRV,HRV_0063,2022-11-30 17:58:59
,wl-rdm,45,150896,0.0-6.37-0.37,0.0,45.0,,,,,,,[],,,,,,50.0,1.0,i,1.0,True,746.0,40.0,56.0,40.0,False,,265.5746853661413,[],"[683, 384]",ColorTask,16.0,38.0,,,HRV,HRV_0063,2022-11-30 17:58:59
,wl-rdm,46,153355,0.0-6.38-0.38,0.0,46.0,,,,,,,[],,,,,,56.4,0.0,u,0.0,True,1108.0,42.0,56.0,40.0,False,,280.92750552293717,[],"[683, 384]",ColorTask,17.0,39.0,,,HRV,HRV_0063,2022-11-30 17:58:59
,wl-rdm,47,155954,0.0-6.39-0.39,0.0,47.0,,,,,,,[],,,,,,62.5,0.0,u,0.0,True,1151.0,52.0,56.0,40.0,False,,230.44960758696845,[],"[683, 384]",ColorTask,18.0,40.0,,,HRV,HRV_0063,2022-11-30 17:58:59
,wl-rdm,48,158361,0.0-6.40-0.40,0.0,48.0,,,,,,,[],,,,,,50.0,1.0,i,1.0,True,1020.0,50.0,56.0,40.0,False,,296.02944508073585,[],"[683, 384]",ColorTask,19.0,41.0,,,HRV,HRV_0063,2022-11-30 17:58:59
,wl-rdm,49,160521,0.0-6.41-0.41,0.0,49.0,,,,,,,[],,,,,,53.2,0.0,i,1.0,False,890.0,44.0,56.0,40.0,False,,213.90365180653453,[],"[683, 384]",ColorTask,18.0,42.0,,,HRV,HRV_0063,2022-11-30 17:58:59
,wl-rdm,50,162826,0.0-6.42-0.42,0.0,50.0,,,,,,,[],,,,,,87.9,1.0,i,1.0,True,942.0,48.0,56.0,40.0,False,,217.05512372756746,[],"[683, 384]",ColorTask,19.0,43.0,,,HRV,HRV_0063,2022-11-30 17:58:59
,wl-rdm,51,165371,0.0-6.43-0.43,0.0,51.0,,,,,,,[],,,,,,73.6,0.0,u,0.0,True,1203.0,57.0,56.0,40.0,False,,271.7482809761656,[],"[683, 384]",ColorTask,20.0,44.0,,,HRV,HRV_0063,2022-11-30 17:58:59
,wl-rdm,52,167887,0.0-6.44-0.44,0.0,52.0,,,,,,,[],,,,,,87.9,0.0,u,0.0,True,1179.0,52.0,56.0,40.0,False,,284.6674069862254,[],"[683, 384]",ColorTask,21.0,45.0,,,HRV,HRV_0063,2022-11-30 17:58:59
,wl-rdm,53,170161,0.0-6.45-0.45,0.0,53.0,,,,,,,[],,,,,,50.0,0.0,i,1.0,False,999.0,52.0,56.0,40.0,False,,200.33295164925437,[],"[683, 384]",ColorTask,20.0,46.0,,,HRV,HRV_0063,2022-11-30 17:58:59
,wl-rdm,54,172305,0.0-6.46-0.46,0.0,54.0,,,,,,,[],,,,,,53.2,1.0,i,1.0,True,712.0,28.0,56.0,40.0,False,,364.7296511389359,[],"[683, 384]",ColorTask,21.0,47.0,,,HRV,HRV_0063,2022-11-30 17:58:59
,wl-rdm,55,174487,0.0-6.47-0.47,0.0,55.0,,,,,,,[],,,,,,53.2,1.0,i,1.0,True,903.0,37.0,56.0,40.0,False,,212.54269519089107,[],"[683, 384]",ColorTask,22.0,48.0,,,HRV,HRV_0063,2022-11-30 17:58:59
,wl-rdm,56,176681,0.0-6.48-0.48,0.0,56.0,,,,,,,[],,,,,,56.4,0.0,i,1.0,False,838.0,44.0,56.0,40.0,False,,203.19946392471846,[],"[683, 384]",ColorTask,21.0,49.0,,,HRV,HRV_0063,2022-11-30 17:58:59
,wl-rdm,57,178671,0.0-6.49-0.49,0.0,57.0,,,,,,,[],,,,,,73.6,0.0,u,0.0,True,630.0,25.0,56.0,40.0,False,,223.2980705214702,[],"[683, 384]",ColorTask,22.0,50.0,,,HRV,HRV_0063,2022-11-30 17:58:59
,wl-rdm,58,180890,0.0-6.50-0.50,0.0,58.0,,,,,,,[],,,,,,56.4,1.0,u,0.0,False,815.0,31.0,56.0,40.0,False,,329.4856155335302,[],"[683, 384]",ColorTask,21.0,51.0,,,HRV,HRV_0063,2022-11-30 17:58:59
,wl-rdm,59,182924,0.0-6.51-0.51,0.0,59.0,,,,,,,[],,,,,,56.4,1.0,u,0.0,False,600.0,35.0,56.0,40.0,False,,328.13844352379283,[],"[683, 384]",ColorTask,20.0,52.0,,,HRV,HRV_0063,2022-11-30 17:58:59
,wl-rdm,60,184900,0.0-6.52-0.52,0.0,60.0,,,,,,,[],,,,,,53.2,0.0,i,1.0,False,572.0,33.0,56.0,40.0,False,,294.25624938708035,[],"[683, 384]",ColorTask,19.0,53.0,,,HRV,HRV_0063,2022-11-30 17:58:59
,wl-rdm,61,187104,0.0-6.53-0.53,0.0,61.0,,,,,,,[],,,,,,56.4,1.0,i,1.0,True,794.0,34.0,56.0,40.0,False,,339.24417766459356,[],"[683, 384]",ColorTask,20.0,54.0,,,HRV,HRV_0063,2022-11-30 17:58:59
,wl-rdm,62,189357,0.0-6.54-0.54,0.0,62.0,,,,,,,[],,,,,,87.9,0.0,u,0.0,True,984.0,44.0,56.0,40.0,False,,211.44335063011158,[],"[683, 384]",ColorTask,21.0,55.0,,,HRV,HRV_0063,2022-11-30 17:58:59
,wl-rdm,63,191687,0.0-6.55-0.55,0.0,63.0,,,,,,,[],,,,,,87.9,0.0,u,0.0,True,930.0,45.0,56.0,40.0,False,,237.5634279136949,[],"[683, 384]",ColorTask,22.0,56.0,,,HRV,HRV_0063,2022-11-30 17:58:59
,wl-rdm,64,193870,0.0-6.56-0.56,0.0,64.0,,,,,,,[],,,,,,53.2,1.0,u,0.0,False,877.0,31.0,56.0,40.0,False,,245.80802485451707,[],"[683, 384]",ColorTask,21.0,57.0,,,HRV,HRV_0063,2022-11-30 17:58:59
,wl-rdm,65,195970,0.0-6.57-0.57,0.0,65.0,,,,,,,[],,,,,,62.5,1.0,i,1.0,True,754.0,30.0,56.0,40.0,False,,279.19188398462694,[],"[683, 384]",ColorTask,22.0,58.0,,,HRV,HRV_0063,2022-11-30 17:58:59
,wl-rdm,66,198807,0.0-6.58-0.58,0.0,66.0,,,,,,,[],,,,,,50.0,1.0,i,1.0,True,1457.0,66.0,56.0,40.0,False,,291.2734852548456,[],"[683, 384]",ColorTask,23.0,59.0,,,HRV,HRV_0063,2022-11-30 17:58:59
,wl-rdm,67,200073,0.0-6.59-0.59,0.0,66.0,,,,,,,[],,,,,,62.5,0.0,i,,,713.0,0.0,56.0,40.0,True,too_early ,321.9969976487581,[],"[683, 384]",ColorTask,22.0,60.0,,,HRV,HRV_0063,2022-11-30 17:58:59
,wl-rdm,68,202719,0.0-6.60-0.60,0.0,67.0,,,,,,,[],,,,,,50.0,0.0,u,0.0,True,1302.0,59.0,56.0,40.0,False,,251.08653921986175,[],"[683, 384]",ColorTask,23.0,61.0,,,HRV,HRV_0063,2022-11-30 17:58:59
,wl-rdm,69,205040,0.0-6.61-0.61,0.0,68.0,,,,,,,[],,,,,,50.0,1.0,i,1.0,True,949.0,38.0,56.0,40.0,False,,305.2075429698015,[],"[683, 384]",ColorTask,24.0,62.0,,,HRV,HRV_0063,2022-11-30 17:58:59
,wl-rdm,70,207392,0.0-6.62-0.62,0.0,69.0,,,,,,,[],,,,,,56.4,0.0,u,0.0,True,997.0,40.0,56.0,40.0,False,,267.0742929377809,[],"[683, 384]",ColorTask,25.0,63.0,,,HRV,HRV_0063,2022-11-30 17:58:59
,wl-rdm,71,209439,0.0-6.63-0.63,0.0,70.0,,,,,,,[],,,,,,53.2,0.0,i,1.0,False,767.0,36.0,56.0,40.0,False,,207.27097885830293,[],"[683, 384]",ColorTask,24.0,64.0,,,HRV,HRV_0063,2022-11-30 17:58:59
,wl-rdm,72,211502,0.0-6.64-0.64,0.0,71.0,,,,,,,[],,,,,,87.9,1.0,i,1.0,True,719.0,23.0,56.0,40.0,False,,271.35434110948785,[],"[683, 384]",ColorTask,25.0,65.0,,,HRV,HRV_0063,2022-11-30 17:58:59
,wl-rdm,73,213670,0.0-6.65-0.65,0.0,72.0,,,,,,,[],,,,,,56.4,1.0,u,0.0,False,872.0,38.0,56.0,40.0,False,,226.79707023777698,[],"[683, 384]",ColorTask,24.0,66.0,,,HRV,HRV_0063,2022-11-30 17:58:59
,wl-rdm,74,216082,0.0-6.66-0.66,0.0,73.0,,,,,,,[],,,,,,56.4,0.0,i,1.0,False,1013.0,55.0,56.0,40.0,False,,297.9118799108917,[],"[683, 384]",ColorTask,23.0,67.0,,,HRV,HRV_0063,2022-11-30 17:58:59
,wl-rdm,75,218176,0.0-6.67-0.67,0.0,74.0,,,,,,,[],,,,,,53.2,0.0,u,0.0,True,719.0,25.0,56.0,40.0,False,,274.39294991588565,[],"[683, 384]",ColorTask,24.0,68.0,,,HRV,HRV_0063,2022-11-30 17:58:59
,wl-rdm,76,220539,0.0-6.68-0.68,0.0,75.0,,,,,,,[],,,,,,56.4,0.0,i,1.0,False,1057.0,45.0,56.0,40.0,False,,224.24504737087716,[],"[683, 384]",ColorTask,23.0,69.0,,,HRV,HRV_0063,2022-11-30 17:58:59
,wl-rdm,77,222585,0.0-6.69-0.69,0.0,76.0,,,,,,,[],,,,,,50.0,1.0,u,0.0,False,733.0,34.0,56.0,40.0,False,,229.09120536064677,[],"[683, 384]",ColorTask,22.0,70.0,,,HRV,HRV_0063,2022-11-30 17:58:59
,wl-rdm,78,224554,0.0-6.70-0.70,0.0,77.0,,,,,,,[],,,,,,56.4,0.0,u,0.0,True,599.0,21.0,56.0,40.0,False,,273.0461748671038,[],"[683, 384]",ColorTask,23.0,71.0,,,HRV,HRV_0063,2022-11-30 17:58:59
,wl-rdm,79,226686,0.0-6.71-0.71,0.0,78.0,,,,,,,[],,,,,,62.5,0.0,u,0.0,True,676.0,16.0,56.0,40.0,False,,362.0822059041268,[],"[683, 384]",ColorTask,24.0,72.0,,,HRV,HRV_0063,2022-11-30 17:58:59
,wl-rdm,80,228938,0.0-6.72-0.72,0.0,79.0,,,,,,,[],,,,,,50.0,0.0,u,0.0,True,894.0,47.0,56.0,40.0,False,,288.11049069428117,[],"[683, 384]",ColorTask,25.0,73.0,,,HRV,HRV_0063,2022-11-30 17:58:59
,wl-rdm,81,231221,0.0-6.73-0.73,0.0,80.0,,,,,,,[],,,,,,53.2,1.0,i,1.0,True,919.0,47.0,56.0,40.0,False,,278.92885111392366,[],"[683, 384]",ColorTask,26.0,74.0,,,HRV,HRV_0063,2022-11-30 17:58:59
,wl-rdm,82,233536,0.0-6.74-0.74,0.0,81.0,,,,,,,[],,,,,,56.4,1.0,u,0.0,False,1021.0,38.0,56.0,40.0,False,,227.30778546445333,[],"[683, 384]",ColorTask,25.0,75.0,,,HRV,HRV_0063,2022-11-30 17:58:59
,wl-rdm,83,236140,0.0-6.75-0.75,0.0,82.0,,,,,,,[],,,,,,50.0,1.0,i,1.0,True,1144.0,55.0,56.0,40.0,False,,355.7417506159745,[],"[683, 384]",ColorTask,26.0,76.0,,,HRV,HRV_0063,2022-11-30 17:58:59
,wl-rdm,84,238820,0.0-6.76-0.76,0.0,83.0,,,,,,,[],,,,,,56.4,1.0,u,0.0,False,1359.0,63.0,56.0,40.0,False,,260.29471779218056,[],"[683, 384]",ColorTask,25.0,77.0,,,HRV,HRV_0063,2022-11-30 17:58:59
,wl-rdm,85,240902,0.0-6.77-0.77,0.0,84.0,,,,,,,[],,,,,,87.9,0.0,i,1.0,False,688.0,35.0,56.0,40.0,False,,318.41302359783896,[],"[683, 384]",ColorTask,24.0,78.0,,,HRV,HRV_0063,2022-11-30 17:58:59
,wl-rdm,86,243889,0.0-6.78-0.78,0.0,85.0,,,,,,,[],,,,,,73.6,1.0,i,1.0,True,1596.0,76.0,56.0,40.0,False,,306.5494966238565,[],"[683, 384]",ColorTask,25.0,79.0,,,HRV,HRV_0063,2022-11-30 17:58:59
,wl-rdm,87,246329,0.0-6.79-0.79,0.0,86.0,,,,,,,[],,,,,,53.2,1.0,u,0.0,False,1067.0,29.0,56.0,40.0,False,,287.5935326016878,[],"[683, 384]",ColorTask,24.0,80.0,,,HRV,HRV_0063,2022-11-30 17:58:59
,wl-rdm,88,248453,0.0-6.80-0.80,0.0,87.0,,,,,,,[],,,,,,50.0,0.0,i,1.0,False,819.0,35.0,56.0,40.0,False,,216.8056866720878,[],"[683, 384]",ColorTask,23.0,81.0,,,HRV,HRV_0063,2022-11-30 17:58:59
,wl-rdm,89,250558,0.0-6.81-0.81,0.0,88.0,,,,,,,[],,,,,,73.6,0.0,i,1.0,False,723.0,33.0,56.0,40.0,False,,322.93064071406593,[],"[683, 384]",ColorTask,22.0,82.0,,,HRV,HRV_0063,2022-11-30 17:58:59
,wl-rdm,90,253019,0.0-6.82-0.82,0.0,89.0,,,,,,,[],,,,,,87.9,0.0,u,0.0,True,1163.0,42.0,56.0,40.0,False,,247.62724317561626,[],"[683, 384]",ColorTask,23.0,83.0,,,HRV,HRV_0063,2022-11-30 17:58:59
,wl-rdm,91,255286,0.0-6.83-0.83,0.0,90.0,,,,,,,[],,,,,,62.5,1.0,i,1.0,True,917.0,31.0,56.0,40.0,False,,249.76529837433776,[],"[683, 384]",ColorTask,24.0,84.0,,,HRV,HRV_0063,2022-11-30 17:58:59
,wl-rdm,92,257123,0.0-6.84-0.84,0.0,91.0,,,,,,,[],,,,,,56.4,1.0,i,1.0,True,458.0,25.0,56.0,40.0,False,,265.61271446993976,[],"[683, 384]",ColorTask,25.0,85.0,,,HRV,HRV_0063,2022-11-30 17:58:59
,wl-rdm,93,259340,0.0-6.85-0.85,0.0,92.0,,,,,,,[],,,,,,62.5,0.0,u,0.0,True,915.0,47.0,56.0,40.0,False,,228.6171294915681,[],"[683, 384]",ColorTask,26.0,86.0,,,HRV,HRV_0063,2022-11-30 17:58:59
,wl-rdm,94,261822,0.0-6.86-0.86,0.0,93.0,,,,,,,[],,,,,,73.6,1.0,i,1.0,True,1099.0,24.0,56.0,40.0,False,,299.90915820413596,[],"[683, 384]",ColorTask,27.0,87.0,,,HRV,HRV_0063,2022-11-30 17:58:59
,wl-rdm,95,264071,0.0-6.87-0.87,0.0,94.0,,,,,,,[],,,,,,73.6,1.0,i,1.0,True,847.0,33.0,56.0,40.0,False,,311.0254413324007,[],"[683, 384]",ColorTask,28.0,88.0,,,HRV,HRV_0063,2022-11-30 17:58:59
,wl-rdm,96,266308,0.0-6.88-0.88,0.0,95.0,,,,,,,[],,,,,,62.5,1.0,u,0.0,False,797.0,33.0,56.0,40.0,False,,323.4403882082075,[],"[683, 384]",ColorTask,27.0,89.0,,,HRV,HRV_0063,2022-11-30 17:58:59
,wl-rdm,97,268573,0.0-6.89-0.89,0.0,96.0,,,,,,,[],,,,,,53.2,0.0,u,0.0,True,857.0,44.0,56.0,40.0,False,,298.43827943606345,[],"[683, 384]",ColorTask,28.0,90.0,,,HRV,HRV_0063,2022-11-30 17:58:59
,wl-rdm,98,270851,0.0-6.90-0.90,0.0,97.0,,,,,,,[],,,,,,62.5,1.0,i,1.0,True,1002.0,49.0,56.0,40.0,False,,205.43511890556954,[],"[683, 384]",ColorTask,29.0,91.0,,,HRV,HRV_0063,2022-11-30 17:58:59
,wl-rdm,99,272883,0.0-6.91-0.91,0.0,98.0,,,,,,,[],,,,,,73.6,1.0,i,1.0,True,734.0,33.0,56.0,40.0,False,,223.71793360505146,[],"[683, 384]",ColorTask,30.0,92.0,,,HRV,HRV_0063,2022-11-30 17:58:59
,wl-rdm,100,275151,0.0-6.92-0.92,0.0,99.0,,,,,,,[],,,,,,53.2,1.0,u,0.0,False,956.0,45.0,56.0,40.0,False,,247.13783295065568,[],"[683, 384]",ColorTask,29.0,93.0,,,HRV,HRV_0063,2022-11-30 17:58:59
,wl-rdm,101,277167,0.0-6.93-0.93,0.0,100.0,,,,,,,[],,,,,,53.2,0.0,i,1.0,False,656.0,33.0,56.0,40.0,False,,235.73857094995054,[],"[683, 384]",ColorTask,28.0,94.0,,,HRV,HRV_0063,2022-11-30 17:58:59
,wl-rdm,102,279350,0.0-6.94-0.94,0.0,101.0,,,,,,,[],,,,,,56.4,0.0,u,0.0,True,743.0,39.0,56.0,40.0,False,,357.91832843177355,[],"[683, 384]",ColorTask,29.0,95.0,,,HRV,HRV_0063,2022-11-30 17:58:59
,wl-rdm,103,281451,0.0-6.95-0.95,0.0,102.0,,,,,,,[],,,,,,73.6,0.0,i,1.0,False,769.0,37.0,56.0,40.0,False,,266.25809189099766,[],"[683, 384]",ColorTask,28.0,96.0,,,HRV,HRV_0063,2022-11-30 17:58:59
,wl-rdm,104,283372,0.0-6.96-0.96,0.0,103.0,,,,,,,[],,,,,,50.0,1.0,u,0.0,False,586.0,20.0,56.0,40.0,False,,244.882402091946,[],"[683, 384]",ColorTask,27.0,97.0,,,HRV,HRV_0063,2022-11-30 17:58:59
,wl-rdm,105,285767,0.0-6.97-0.97,0.0,104.0,,,,,,,[],,,,,,73.6,0.0,u,0.0,True,938.0,34.0,56.0,40.0,False,,391.33554369154285,[],"[683, 384]",ColorTask,28.0,98.0,,,HRV,HRV_0063,2022-11-30 17:58:59
,wl-rdm,106,287689,0.0-6.98-0.98,0.0,105.0,,,,,,,[],,,,,,73.6,1.0,i,1.0,True,571.0,22.0,56.0,40.0,False,,252.32126379873282,[],"[683, 384]",ColorTask,29.0,99.0,,,HRV,HRV_0063,2022-11-30 17:58:59
,wl-rdm,107,289904,0.0-6.99-0.99,0.0,106.0,,,,,,,[],,,,,,53.2,0.0,u,0.0,True,786.0,42.0,56.0,40.0,False,,359.46610388516376,[],"[683, 384]",ColorTask,30.0,100.0,,,HRV,HRV_0063,2022-11-30 17:58:59
,wl-rdm,108,292150,0.0-6.100-0.100,0.0,107.0,,,,,,,[],,,,,,87.9,1.0,u,0.0,False,814.0,30.0,56.0,40.0,False,,352.72764262311415,[],"[683, 384]",ColorTask,29.0,101.0,,,HRV,HRV_0063,2022-11-30 17:58:59
,wl-rdm,109,294428,0.0-6.101-0.101,0.0,108.0,,,,,,,[],,,,,,62.5,1.0,i,1.0,True,900.0,41.0,56.0,40.0,False,,261.1153437170343,[],"[683, 384]",ColorTask,30.0,102.0,,,HRV,HRV_0063,2022-11-30 17:58:59
,wl-rdm,110,296965,0.0-6.102-0.102,0.0,109.0,,,,,,,[],,,,,,87.9,1.0,i,1.0,True,1168.0,40.0,56.0,40.0,False,,314.8254390698222,[],"[683, 384]",ColorTask,31.0,103.0,,,HRV,HRV_0063,2022-11-30 17:58:59
,wl-rdm,111,298983,0.0-6.103-0.103,0.0,110.0,,,,,,,[],,,,,,73.6,1.0,i,1.0,True,645.0,33.0,56.0,40.0,False,,295.9924732593969,[],"[683, 384]",ColorTask,32.0,104.0,,,HRV,HRV_0063,2022-11-30 17:58:59
,wl-rdm,112,301070,0.0-6.104-0.104,0.0,111.0,,,,,,,[],,,,,,87.9,1.0,i,1.0,True,780.0,41.0,56.0,40.0,False,,204.3394425208278,[],"[683, 384]",ColorTask,33.0,105.0,,,HRV,HRV_0063,2022-11-30 17:58:59
,wl-rdm,113,303083,0.0-6.105-0.105,0.0,112.0,,,,,,,[],,,,,,50.0,0.0,i,1.0,False,682.0,30.0,56.0,40.0,False,,245.15400930302053,[],"[683, 384]",ColorTask,32.0,106.0,,,HRV,HRV_0063,2022-11-30 17:58:59
,wl-rdm,114,306350,0.0-6.106-0.106,0.0,113.0,,,,,,,[],,,,,,87.9,1.0,u,0.0,False,1834.0,67.0,56.0,40.0,False,,317.4259947785948,[],"[683, 384]",ColorTask,31.0,107.0,,,HRV,HRV_0063,2022-11-30 17:58:59
,wl-rdm,115,308736,0.0-6.107-0.107,0.0,114.0,,,,,,,[],,,,,,53.2,1.0,i,1.0,True,1026.0,43.0,56.0,40.0,False,,292.10499831040363,[],"[683, 384]",ColorTask,32.0,108.0,,,HRV,HRV_0063,2022-11-30 17:58:59
,wl-rdm,116,311149,0.0-6.108-0.108,0.0,115.0,,,,,,,[],,,,,,56.4,0.0,u,0.0,True,953.0,51.0,56.0,40.0,False,,399.9866585564062,[],"[683, 384]",ColorTask,33.0,109.0,,,HRV,HRV_0063,2022-11-30 17:58:59
,wl-rdm,117,313484,0.0-6.109-0.109,0.0,116.0,,,,,,,[],,,,,,87.9,1.0,i,1.0,True,1068.0,51.0,56.0,40.0,False,,210.38933135558503,[],"[683, 384]",ColorTask,34.0,110.0,,,HRV,HRV_0063,2022-11-30 17:58:59
,wl-html-keyboard-response,118,366183,0.0-7.0-0.0,1.0,117.0,,,,,,,,50684.0,1.0,0,,,,,,,,,,,,,,,,,,,,,,HRV,HRV_0063,2022-11-30 17:58:59
,wl-rdm,119,368466,0.0-8.0-0.0,1.0,118.0,,,,,,,[],,,,,,62.5,1.0,i,1.0,True,947.0,47.0,56.0,40.0,False,,210.4042763072212,[],"[683, 384]",ColorTask,35.0,1.0,,,HRV,HRV_0063,2022-11-30 17:58:59
,wl-rdm,120,370881,0.0-8.1-0.1,1.0,119.0,,,,,,,[],,,,,,53.2,1.0,u,0.0,False,1107.0,42.0,56.0,40.0,False,,221.17082395966574,[],"[683, 384]",ColorTask,34.0,2.0,,,HRV,HRV_0063,2022-11-30 17:58:59
,wl-rdm,121,373047,0.0-8.2-0.2,1.0,120.0,,,,,,,[],,,,,,87.9,0.0,u,0.0,True,730.0,35.0,56.0,40.0,False,,340.7095196352161,[],"[683, 384]",ColorTask,35.0,3.0,,,HRV,HRV_0063,2022-11-30 17:58:59
,wl-rdm,122,375546,0.0-8.3-0.3,1.0,121.0,,,,,,,[],,,,,,56.4,1.0,i,1.0,True,1057.0,41.0,56.0,40.0,False,,340.06754255649616,[],"[683, 384]",ColorTask,36.0,4.0,,,HRV,HRV_0063,2022-11-30 17:58:59
,wl-rdm,123,377867,0.0-8.4-0.4,1.0,122.0,,,,,,,[],,,,,,50.0,1.0,i,1.0,True,966.0,44.0,56.0,40.0,False,,274.662747958611,[],"[683, 384]",ColorTask,37.0,5.0,,,HRV,HRV_0063,2022-11-30 17:58:59
,wl-rdm,124,380167,0.0-8.5-0.5,1.0,123.0,,,,,,,[],,,,,,56.4,1.0,i,1.0,True,944.0,32.0,56.0,40.0,False,,272.7752308349279,[],"[683, 384]",ColorTask,38.0,6.0,,,HRV,HRV_0063,2022-11-30 17:58:59
,wl-rdm,125,382363,0.0-8.6-0.6,1.0,124.0,,,,,,,[],,,,,,73.6,0.0,u,0.0,True,715.0,26.0,56.0,40.0,False,,376.2699725304343,[],"[683, 384]",ColorTask,39.0,7.0,,,HRV,HRV_0063,2022-11-30 17:58:59
,wl-rdm,126,384666,0.0-8.7-0.7,1.0,125.0,,,,,,,[],,,,,,56.4,0.0,i,1.0,False,974.0,44.0,56.0,40.0,False,,253.81491213826988,[],"[683, 384]",ColorTask,38.0,8.0,,,HRV,HRV_0063,2022-11-30 17:58:59
,wl-rdm,127,386992,0.0-8.8-0.8,1.0,126.0,,,,,,,[],,,,,,53.2,0.0,u,0.0,True,883.0,39.0,56.0,40.0,False,,367.5551842021383,[],"[683, 384]",ColorTask,39.0,9.0,,,HRV,HRV_0063,2022-11-30 17:58:59
,wl-rdm,128,389400,0.0-8.9-0.9,1.0,127.0,,,,,,,[],,,,,,50.0,0.0,i,1.0,False,915.0,47.0,56.0,40.0,False,,372.7373279935612,[],"[683, 384]",ColorTask,38.0,10.0,,,HRV,HRV_0063,2022-11-30 17:58:59
,wl-rdm,129,391663,0.0-8.10-0.10,1.0,128.0,,,,,,,[],,,,,,53.2,1.0,u,0.0,False,832.0,40.0,56.0,40.0,False,,361.28337659625157,[],"[683, 384]",ColorTask,37.0,11.0,,,HRV,HRV_0063,2022-11-30 17:58:59
,wl-rdm,130,394064,0.0-8.11-0.11,1.0,129.0,,,,,,,[],,,,,,73.6,1.0,u,0.0,False,1062.0,49.0,56.0,40.0,False,,230.9504903577122,[],"[683, 384]",ColorTask,36.0,12.0,,,HRV,HRV_0063,2022-11-30 17:58:59
,wl-rdm,131,396229,0.0-8.12-0.12,1.0,130.0,,,,,,,[],,,,,,53.2,0.0,i,1.0,False,765.0,40.0,56.0,40.0,False,,325.8307251583894,[],"[683, 384]",ColorTask,35.0,13.0,,,HRV,HRV_0063,2022-11-30 17:58:59
,wl-rdm,132,398263,0.0-8.13-0.13,1.0,131.0,,,,,,,[],,,,,,56.4,0.0,i,1.0,False,636.0,28.0,56.0,40.0,False,,277.04183681046726,[],"[683, 384]",ColorTask,34.0,14.0,,,HRV,HRV_0063,2022-11-30 17:58:59
,wl-rdm,133,400482,0.0-8.14-0.14,1.0,132.0,,,,,,,[],,,,,,87.9,0.0,u,0.0,True,789.0,41.0,56.0,40.0,False,,311.50213456890185,[],"[683, 384]",ColorTask,35.0,15.0,,,HRV,HRV_0063,2022-11-30 17:58:59
,wl-rdm,134,402761,0.0-8.15-0.15,1.0,133.0,,,,,,,[],,,,,,50.0,0.0,u,0.0,True,850.0,27.0,56.0,40.0,False,,316.89194363469784,[],"[683, 384]",ColorTask,36.0,16.0,,,HRV,HRV_0063,2022-11-30 17:58:59
,wl-rdm,135,405046,0.0-8.16-0.16,1.0,134.0,,,,,,,[],,,,,,50.0,1.0,i,1.0,True,949.0,44.0,56.0,40.0,False,,259.6780372549417,[],"[683, 384]",ColorTask,37.0,17.0,,,HRV,HRV_0063,2022-11-30 17:58:59
,wl-rdm,136,407148,0.0-8.17-0.17,1.0,135.0,,,,,,,[],,,,,,87.9,1.0,i,1.0,True,748.0,39.0,56.0,40.0,False,,235.3177510168274,[],"[683, 384]",ColorTask,38.0,18.0,,,HRV,HRV_0063,2022-11-30 17:58:59
,wl-rdm,137,409362,0.0-8.18-0.18,1.0,136.0,,,,,,,[],,,,,,73.6,1.0,i,1.0,True,893.0,45.0,56.0,40.0,False,,243.02215861130162,[],"[683, 384]",ColorTask,39.0,19.0,,,HRV,HRV_0063,2022-11-30 17:58:59
,wl-rdm,138,411694,0.0-8.19-0.19,1.0,137.0,,,,,,,[],,,,,,56.4,0.0,u,0.0,True,1045.0,46.0,56.0,40.0,False,,230.49996004343868,[],"[683, 384]",ColorTask,40.0,20.0,,,HRV,HRV_0063,2022-11-30 17:58:59
,wl-rdm,139,413909,0.0-8.20-0.20,1.0,138.0,,,,,,,[],,,,,,50.0,1.0,i,1.0,True,763.0,39.0,56.0,40.0,False,,360.5373886511561,[],"[683, 384]",ColorTask,41.0,21.0,,,HRV,HRV_0063,2022-11-30 17:58:59
,wl-rdm,140,416154,0.0-8.21-0.21,1.0,139.0,,,,,,,[],,,,,,53.2,1.0,i,1.0,True,892.0,40.0,56.0,40.0,False,,251.158385645664,[],"[683, 384]",ColorTask,42.0,22.0,,,HRV,HRV_0063,2022-11-30 17:58:59
,wl-rdm,141,418604,0.0-8.22-0.22,1.0,140.0,,,,,,,[],,,,,,62.5,1.0,i,1.0,True,1140.0,57.0,56.0,40.0,False,,217.63219408725843,[],"[683, 384]",ColorTask,43.0,23.0,,,HRV,HRV_0063,2022-11-30 17:58:59
,wl-rdm,142,420778,0.0-8.23-0.23,1.0,141.0,,,,,,,[],,,,,,56.4,0.0,u,0.0,True,884.0,38.0,56.0,40.0,False,,201.47748276072699,[],"[683, 384]",ColorTask,44.0,24.0,,,HRV,HRV_0063,2022-11-30 17:58:59
,wl-rdm,143,423111,0.0-8.24-0.24,1.0,142.0,,,,,,,[],,,,,,62.5,0.0,i,1.0,False,866.0,42.0,56.0,40.0,False,,316.2362237167726,[],"[683, 384]",ColorTask,43.0,25.0,,,HRV,HRV_0063,2022-11-30 17:58:59
,wl-rdm,144,425510,0.0-8.25-0.25,1.0,143.0,,,,,,,[],,,,,,53.2,1.0,u,0.0,False,1089.0,48.0,56.0,40.0,False,,245.61570110441403,[],"[683, 384]",ColorTask,42.0,26.0,,,HRV,HRV_0063,2022-11-30 17:58:59
,wl-rdm,145,427717,0.0-8.26-0.26,1.0,144.0,,,,,,,[],,,,,,50.0,0.0,u,0.0,True,752.0,32.0,56.0,40.0,False,,370.40204656747443,[],"[683, 384]",ColorTask,43.0,27.0,,,HRV,HRV_0063,2022-11-30 17:58:59
,wl-rdm,146,430060,0.0-8.27-0.27,1.0,145.0,,,,,,,[],,,,,,56.4,1.0,i,1.0,True,1007.0,56.0,56.0,40.0,False,,261.3103749911976,[],"[683, 384]",ColorTask,44.0,28.0,,,HRV,HRV_0063,2022-11-30 17:58:59
,wl-rdm,147,432461,0.0-8.28-0.28,1.0,146.0,,,,,,,[],,,,,,56.4,1.0,u,0.0,False,947.0,47.0,56.0,40.0,False,,377.67264986441273,[],"[683, 384]",ColorTask,43.0,29.0,,,HRV,HRV_0063,2022-11-30 17:58:59
,wl-rdm,148,434723,0.0-8.29-0.29,1.0,147.0,,,,,,,[],,,,,,87.9,1.0,i,1.0,True,854.0,33.0,56.0,40.0,False,,330.2928535593339,[],"[683, 384]",ColorTask,44.0,30.0,,,HRV,HRV_0063,2022-11-30 17:58:59
,wl-rdm,149,436947,0.0-8.30-0.30,1.0,148.0,,,,,,,[],,,,,,73.6,1.0,i,1.0,True,742.0,38.0,56.0,40.0,False,,398.85827462336147,[],"[683, 384]",ColorTask,45.0,31.0,,,HRV,HRV_0063,2022-11-30 17:58:59
,wl-rdm,150,438947,0.0-8.31-0.31,1.0,149.0,,,,,,,[],,,,,,87.9,1.0,i,1.0,True,724.0,35.0,56.0,40.0,False,,200.3549527475848,[],"[683, 384]",ColorTask,46.0,32.0,,,HRV,HRV_0063,2022-11-30 17:58:59
,wl-rdm,151,440995,0.0-8.32-0.32,1.0,150.0,,,,,,,[],,,,,,62.5,0.0,u,0.0,True,718.0,33.0,56.0,40.0,False,,257.99148713478286,[],"[683, 384]",ColorTask,47.0,33.0,,,HRV,HRV_0063,2022-11-30 17:58:59
,wl-rdm,152,443177,0.0-8.33-0.33,1.0,151.0,,,,,,,[],,,,,,62.5,1.0,i,1.0,True,874.0,33.0,56.0,40.0,False,,237.913532317931,[],"[683, 384]",ColorTask,48.0,34.0,,,HRV,HRV_0063,2022-11-30 17:58:59
,wl-rdm,153,445344,0.0-8.34-0.34,1.0,152.0,,,,,,,[],,,,,,56.4,1.0,i,1.0,True,841.0,34.0,56.0,40.0,False,,255.61020125947266,[],"[683, 384]",ColorTask,49.0,35.0,,,HRV,HRV_0063,2022-11-30 17:58:59
,wl-rdm,154,447744,0.0-8.35-0.35,1.0,153.0,,,,,,,[],,,,,,62.5,0.0,u,0.0,True,980.0,52.0,56.0,40.0,False,,322.0107844160444,[],"[683, 384]",ColorTask,50.0,36.0,,,HRV,HRV_0063,2022-11-30 17:58:59
,wl-rdm,155,449960,0.0-8.36-0.36,1.0,154.0,,,,,,,[],,,,,,62.5,0.0,i,1.0,False,919.0,22.0,56.0,40.0,False,,221.99141336888013,[],"[683, 384]",ColorTask,49.0,37.0,,,HRV,HRV_0063,2022-11-30 17:58:59
,wl-rdm,156,452679,0.0-8.37-0.37,1.0,155.0,,,,,,,[],,,,,,87.9,0.0,i,1.0,False,1331.0,58.0,56.0,40.0,False,,315.87208034943967,[],"[683, 384]",ColorTask,48.0,38.0,,,HRV,HRV_0063,2022-11-30 17:58:59
,wl-rdm,157,454881,0.0-8.38-0.38,1.0,156.0,,,,,,,[],,,,,,73.6,0.0,u,0.0,True,795.0,31.0,56.0,40.0,False,,299.88451930480403,[],"[683, 384]",ColorTask,49.0,39.0,,,HRV,HRV_0063,2022-11-30 17:58:59
,wl-rdm,158,457459,0.0-8.39-0.39,1.0,157.0,,,,,,,[],,,,,,53.2,0.0,i,1.0,False,1260.0,59.0,56.0,40.0,False,,232.34895777157067,[],"[683, 384]",ColorTask,48.0,40.0,,,HRV,HRV_0063,2022-11-30 17:58:59
,wl-rdm,159,459641,0.0-8.40-0.40,1.0,158.0,,,,,,,[],,,,,,62.5,1.0,u,0.0,False,793.0,30.0,56.0,40.0,False,,243.24319509585007,[],"[683, 384]",ColorTask,47.0,41.0,,,HRV,HRV_0063,2022-11-30 17:58:59
,wl-rdm,160,462259,0.0-8.41-0.41,1.0,159.0,,,,,,,[],,,,,,73.6,0.0,i,1.0,False,1145.0,62.0,56.0,40.0,False,,389.5893854472582,[],"[683, 384]",ColorTask,46.0,42.0,,,HRV,HRV_0063,2022-11-30 17:58:59
,wl-rdm,161,465143,0.0-8.42-0.42,1.0,160.0,,,,,,,[],,,,,,73.6,0.0,u,0.0,True,1534.0,56.0,56.0,40.0,False,,235.9290147086561,[],"[683, 384]",ColorTask,47.0,43.0,,,HRV,HRV_0063,2022-11-30 17:58:59
,wl-rdm,162,467733,0.0-8.43-0.43,1.0,161.0,,,,,,,[],,,,,,56.4,1.0,i,1.0,True,1152.0,63.0,56.0,40.0,False,,351.7026072681567,[],"[683, 384]",ColorTask,48.0,44.0,,,HRV,HRV_0063,2022-11-30 17:58:59
,wl-rdm,163,469993,0.0-8.44-0.44,1.0,162.0,,,,,,,[],,,,,,87.9,0.0,u,0.0,True,780.0,37.0,56.0,40.0,False,,317.4277037625009,[],"[683, 384]",ColorTask,49.0,45.0,,,HRV,HRV_0063,2022-11-30 17:58:59
,wl-rdm,164,472459,0.0-8.45-0.45,1.0,163.0,,,,,,,[],,,,,,73.6,0.0,u,0.0,True,1027.0,46.0,56.0,40.0,False,,367.9163473333456,[],"[683, 384]",ColorTask,50.0,46.0,,,HRV,HRV_0063,2022-11-30 17:58:59
,wl-rdm,165,474658,0.0-8.46-0.46,1.0,164.0,,,,,,,[],,,,,,87.9,0.0,u,0.0,True,774.0,42.0,56.0,40.0,False,,305.2584178720927,[],"[683, 384]",ColorTask,51.0,47.0,,,HRV,HRV_0063,2022-11-30 17:58:59
,wl-rdm,166,477143,0.0-8.47-0.47,1.0,165.0,,,,,,,[],,,,,,50.0,0.0,u,0.0,True,1075.0,34.0,56.0,40.0,False,,330.7553330856556,[],"[683, 384]",ColorTask,52.0,48.0,,,HRV,HRV_0063,2022-11-30 17:58:59
,wl-rdm,167,479712,0.0-8.48-0.48,1.0,166.0,,,,,,,[],,,,,,56.4,1.0,u,0.0,False,1201.0,53.0,56.0,40.0,False,,307.362752246571,[],"[683, 384]",ColorTask,51.0,49.0,,,HRV,HRV_0063,2022-11-30 17:58:59
,wl-rdm,168,481859,0.0-8.49-0.49,1.0,167.0,,,,,,,[],,,,,,62.5,1.0,i,1.0,True,850.0,42.0,56.0,40.0,False,,228.44108055416638,[],"[683, 384]",ColorTask,52.0,50.0,,,HRV,HRV_0063,2022-11-30 17:58:59
,wl-rdm,169,484166,0.0-8.50-0.50,1.0,168.0,,,,,,,[],,,,,,53.2,1.0,i,1.0,True,971.0,32.0,56.0,40.0,False,,230.86862562042444,[],"[683, 384]",ColorTask,53.0,51.0,,,HRV,HRV_0063,2022-11-30 17:58:59
,wl-rdm,170,486444,0.0-8.51-0.51,1.0,169.0,,,,,,,[],,,,,,73.6,1.0,i,1.0,True,948.0,48.0,56.0,40.0,False,,270.8154935457913,[],"[683, 384]",ColorTask,54.0,52.0,,,HRV,HRV_0063,2022-11-30 17:58:59
,wl-rdm,171,488542,0.0-8.52-0.52,1.0,170.0,,,,,,,[],,,,,,50.0,1.0,i,1.0,True,746.0,29.0,56.0,40.0,False,,268.9320961446481,[],"[683, 384]",ColorTask,55.0,53.0,,,HRV,HRV_0063,2022-11-30 17:58:59
,wl-rdm,172,490841,0.0-8.53-0.53,1.0,171.0,,,,,,,[],,,,,,50.0,1.0,u,0.0,False,893.0,44.0,56.0,40.0,False,,300.49716146219555,[],"[683, 384]",ColorTask,54.0,54.0,,,HRV,HRV_0063,2022-11-30 17:58:59
,wl-rdm,173,492863,0.0-8.54-0.54,1.0,172.0,,,,,,,[],,,,,,87.9,1.0,i,1.0,True,726.0,33.0,56.0,40.0,False,,212.29194389786176,[],"[683, 384]",ColorTask,55.0,55.0,,,HRV,HRV_0063,2022-11-30 17:58:59
,wl-rdm,174,494959,0.0-8.55-0.55,1.0,173.0,,,,,,,[],,,,,,62.5,1.0,i,1.0,True,792.0,24.0,56.0,40.0,False,,219.26214124489317,[],"[683, 384]",ColorTask,56.0,56.0,,,HRV,HRV_0063,2022-11-30 17:58:59
,wl-rdm,175,497109,0.0-8.56-0.56,1.0,174.0,,,,,,,[],,,,,,73.6,1.0,i,1.0,True,798.0,37.0,56.0,40.0,False,,236.60741224058583,[],"[683, 384]",ColorTask,57.0,57.0,,,HRV,HRV_0063,2022-11-30 17:58:59
,wl-rdm,176,499558,0.0-8.57-0.57,1.0,175.0,,,,,,,[],,,,,,62.5,0.0,i,1.0,False,1059.0,45.0,56.0,40.0,False,,272.7656973660794,[],"[683, 384]",ColorTask,56.0,58.0,,,HRV,HRV_0063,2022-11-30 17:58:59
,wl-rdm,177,501465,0.0-8.58-0.58,1.0,176.0,,,,,,,[],,,,,,53.2,0.0,u,0.0,True,584.0,36.0,56.0,40.0,False,,240.12326757200884,[],"[683, 384]",ColorTask,57.0,59.0,,,HRV,HRV_0063,2022-11-30 17:58:59
,wl-rdm,178,503757,0.0-8.59-0.59,1.0,177.0,,,,,,,[],,,,,,50.0,0.0,u,0.0,True,872.0,36.0,56.0,40.0,False,,329.624284634022,[],"[683, 384]",ColorTask,58.0,60.0,,,HRV,HRV_0063,2022-11-30 17:58:59
,wl-rdm,179,506091,0.0-8.60-0.60,1.0,178.0,,,,,,,[],,,,,,73.6,0.0,u,0.0,True,812.0,39.0,56.0,40.0,False,,221.37792707771806,[],"[683, 384]",ColorTask,59.0,61.0,,,HRV,HRV_0063,2022-11-30 17:58:59
,wl-rdm,180,508450,0.0-8.61-0.61,1.0,179.0,,,,,,,[],,,,,,56.4,0.0,i,1.0,False,928.0,42.0,56.0,40.0,False,,358.5315517490194,[],"[683, 384]",ColorTask,58.0,62.0,,,HRV,HRV_0063,2022-11-30 17:58:59
,wl-rdm,181,510730,0.0-8.62-0.62,1.0,180.0,,,,,,,[],,,,,,56.4,1.0,i,1.0,True,857.0,34.0,56.0,40.0,False,,289.1571756464515,[],"[683, 384]",ColorTask,59.0,63.0,,,HRV,HRV_0063,2022-11-30 17:58:59
,wl-rdm,182,513675,0.0-8.63-0.63,1.0,181.0,,,,,,,[],,,,,,53.2,0.0,u,0.0,True,1510.0,72.0,56.0,40.0,False,,377.07589874692576,[],"[683, 384]",ColorTask,60.0,64.0,,,HRV,HRV_0063,2022-11-30 17:58:59
,wl-rdm,183,515891,0.0-8.64-0.64,1.0,182.0,,,,,,,[],,,,,,87.9,0.0,u,0.0,True,861.0,39.0,56.0,40.0,False,,202.15169943070924,[],"[683, 384]",ColorTask,61.0,65.0,,,HRV,HRV_0063,2022-11-30 17:58:59
,wl-rdm,184,518326,0.0-8.65-0.65,1.0,183.0,,,,,,,[],,,,,,53.2,0.0,u,0.0,True,985.0,34.0,56.0,40.0,False,,386.4606661152684,[],"[683, 384]",ColorTask,62.0,66.0,,,HRV,HRV_0063,2022-11-30 17:58:59
,wl-rdm,185,520345,0.0-8.66-0.66,1.0,184.0,,,,,,,[],,,,,,56.4,1.0,i,1.0,True,710.0,22.0,56.0,40.0,False,,248.26673098355485,[],"[683, 384]",ColorTask,63.0,67.0,,,HRV,HRV_0063,2022-11-30 17:58:59
,wl-rdm,186,523782,0.0-8.67-0.67,1.0,185.0,,,,,,,[],,,,,,87.9,1.0,i,1.0,True,2116.0,89.0,56.0,40.0,False,,248.7849826188188,[],"[683, 384]",ColorTask,64.0,68.0,,,HRV,HRV_0063,2022-11-30 17:58:59
,wl-rdm,187,526162,0.0-8.68-0.68,1.0,186.0,,,,,,,[],,,,,,56.4,0.0,u,0.0,True,1008.0,36.0,56.0,40.0,False,,284.9319576777131,[],"[683, 384]",ColorTask,65.0,69.0,,,HRV,HRV_0063,2022-11-30 17:58:59
,wl-rdm,188,528457,0.0-8.69-0.69,1.0,187.0,,,,,,,[],,,,,,87.9,1.0,i,1.0,True,932.0,28.0,56.0,40.0,False,,280.0959416917654,[],"[683, 384]",ColorTask,66.0,70.0,,,HRV,HRV_0063,2022-11-30 17:58:59
,wl-rdm,189,530674,0.0-8.70-0.70,1.0,188.0,,,,,,,[],,,,,,87.9,0.0,u,0.0,True,803.0,29.0,56.0,40.0,False,,359.91784831113506,[],"[683, 384]",ColorTask,67.0,71.0,,,HRV,HRV_0063,2022-11-30 17:58:59
,wl-rdm,190,533159,0.0-8.71-0.71,1.0,189.0,,,,,,,[],,,,,,50.0,1.0,i,1.0,True,1108.0,38.0,56.0,40.0,False,,309.20573735157984,[],"[683, 384]",ColorTask,68.0,72.0,,,HRV,HRV_0063,2022-11-30 17:58:59
,wl-rdm,191,535255,0.0-8.72-0.72,1.0,190.0,,,,,,,[],,,,,,87.9,1.0,i,1.0,True,766.0,24.0,56.0,40.0,False,,257.5945448042298,[],"[683, 384]",ColorTask,69.0,73.0,,,HRV,HRV_0063,2022-11-30 17:58:59
,wl-rdm,192,537591,0.0-8.73-0.73,1.0,191.0,,,,,,,[],,,,,,56.4,0.0,u,0.0,True,916.0,37.0,56.0,40.0,False,,333.5794483273088,[],"[683, 384]",ColorTask,70.0,74.0,,,HRV,HRV_0063,2022-11-30 17:58:59
,wl-rdm,193,540009,0.0-8.74-0.74,1.0,192.0,,,,,,,[],,,,,,62.5,0.0,u,0.0,True,978.0,32.0,56.0,40.0,False,,376.06490704019734,[],"[683, 384]",ColorTask,71.0,75.0,,,HRV,HRV_0063,2022-11-30 17:58:59
,wl-rdm,194,542426,0.0-8.75-0.75,1.0,193.0,,,,,,,[],,,,,,62.5,0.0,i,1.0,False,893.0,40.0,56.0,40.0,False,,369.87531183065335,[],"[683, 384]",ColorTask,70.0,76.0,,,HRV,HRV_0063,2022-11-30 17:58:59
,wl-rdm,195,544613,0.0-8.76-0.76,1.0,194.0,,,,,,,[],,,,,,53.2,0.0,i,1.0,False,881.0,44.0,56.0,40.0,False,,219.3909126783794,[],"[683, 384]",ColorTask,69.0,77.0,,,HRV,HRV_0063,2022-11-30 17:58:59
,wl-rdm,196,546955,0.0-8.77-0.77,1.0,195.0,,,,,,,[],,,,,,87.9,1.0,i,1.0,True,971.0,45.0,56.0,40.0,False,,307.8591407513808,[],"[683, 384]",ColorTask,70.0,78.0,,,HRV,HRV_0063,2022-11-30 17:58:59
,wl-rdm,197,549542,0.0-8.78-0.78,1.0,196.0,,,,,,,[],,,,,,62.5,0.0,u,0.0,True,1279.0,44.0,56.0,40.0,False,,224.4573833494751,[],"[683, 384]",ColorTask,71.0,79.0,,,HRV,HRV_0063,2022-11-30 17:58:59
,wl-rdm,198,551943,0.0-8.79-0.79,1.0,197.0,,,,,,,[],,,,,,62.5,1.0,i,1.0,True,1001.0,42.0,56.0,40.0,False,,330.79763448157377,[],"[683, 384]",ColorTask,72.0,80.0,,,HRV,HRV_0063,2022-11-30 17:58:59
,wl-rdm,199,554591,0.0-8.80-0.80,1.0,198.0,,,,,,,[],,,,,,50.0,1.0,i,1.0,True,1227.0,38.0,56.0,40.0,False,,346.6035652299604,[],"[683, 384]",ColorTask,73.0,81.0,,,HRV,HRV_0063,2022-11-30 17:58:59
,wl-rdm,200,556688,0.0-8.81-0.81,1.0,199.0,,,,,,,[],,,,,,73.6,0.0,u,0.0,True,801.0,28.0,56.0,40.0,False,,203.63142025654713,[],"[683, 384]",ColorTask,74.0,82.0,,,HRV,HRV_0063,2022-11-30 17:58:59
,wl-rdm,201,559404,0.0-8.82-0.82,1.0,200.0,,,,,,,[],,,,,,56.4,0.0,u,0.0,True,1317.0,59.0,56.0,40.0,False,,277.17375805087516,[],"[683, 384]",ColorTask,75.0,83.0,,,HRV,HRV_0063,2022-11-30 17:58:59
,wl-rdm,202,561906,0.0-8.83-0.83,1.0,201.0,,,,,,,[],,,,,,73.6,1.0,i,1.0,True,951.0,42.0,56.0,40.0,False,,390.6985286987608,[],"[683, 384]",ColorTask,76.0,84.0,,,HRV,HRV_0063,2022-11-30 17:58:59
,wl-rdm,203,564091,0.0-8.84-0.84,1.0,202.0,,,,,,,[],,,,,,50.0,0.0,i,1.0,False,721.0,36.0,56.0,40.0,False,,361.50193710129736,[],"[683, 384]",ColorTask,75.0,85.0,,,HRV,HRV_0063,2022-11-30 17:58:59
,wl-rdm,204,566255,0.0-8.85-0.85,1.0,203.0,,,,,,,[],,,,,,73.6,1.0,i,1.0,True,799.0,34.0,56.0,40.0,False,,284.08466769513893,[],"[683, 384]",ColorTask,76.0,86.0,,,HRV,HRV_0063,2022-11-30 17:58:59
,wl-rdm,205,568638,0.0-8.86-0.86,1.0,204.0,,,,,,,[],,,,,,50.0,0.0,i,1.0,False,1076.0,49.0,56.0,40.0,False,,220.90071202084334,[],"[683, 384]",ColorTask,75.0,87.0,,,HRV,HRV_0063,2022-11-30 17:58:59
,wl-rdm,206,571292,0.0-8.87-0.87,1.0,205.0,,,,,,,[],,,,,,50.0,1.0,i,1.0,True,1237.0,62.0,56.0,40.0,False,,278.06637640150166,[],"[683, 384]",ColorTask,76.0,88.0,,,HRV,HRV_0063,2022-11-30 17:58:59
,wl-rdm,207,573627,0.0-8.88-0.88,1.0,206.0,,,,,,,[],,,,,,87.9,0.0,u,0.0,True,883.0,46.0,56.0,40.0,False,,357.0788287933143,[],"[683, 384]",ColorTask,77.0,89.0,,,HRV,HRV_0063,2022-11-30 17:58:59
,wl-rdm,208,575943,0.0-8.89-0.89,1.0,207.0,,,,,,,[],,,,,,53.2,0.0,u,0.0,True,858.0,46.0,56.0,40.0,False,,344.18562535935985,[],"[683, 384]",ColorTask,78.0,90.0,,,HRV,HRV_0063,2022-11-30 17:58:59
,wl-rdm,209,578055,0.0-8.90-0.90,1.0,208.0,,,,,,,[],,,,,,62.5,0.0,u,0.0,True,770.0,39.0,56.0,40.0,False,,296.3078904058426,[],"[683, 384]",ColorTask,79.0,91.0,,,HRV,HRV_0063,2022-11-30 17:58:59
,wl-rdm,210,580324,0.0-8.91-0.91,1.0,209.0,,,,,,,[],,,,,,50.0,1.0,i,1.0,True,1007.0,38.0,56.0,40.0,False,,201.02446292000744,[],"[683, 384]",ColorTask,80.0,92.0,,,HRV,HRV_0063,2022-11-30 17:58:59
,wl-rdm,211,582722,0.0-8.92-0.92,1.0,210.0,,,,,,,[],,,,,,53.2,1.0,i,1.0,True,987.0,46.0,56.0,40.0,False,,310.88044914493844,[],"[683, 384]",ColorTask,81.0,93.0,,,HRV,HRV_0063,2022-11-30 17:58:59
,wl-rdm,212,585045,0.0-8.93-0.93,1.0,211.0,,,,,,,[],,,,,,73.6,1.0,i,1.0,True,980.0,50.0,56.0,40.0,False,,230.1962941394801,[],"[683, 384]",ColorTask,82.0,94.0,,,HRV,HRV_0063,2022-11-30 17:58:59
,wl-rdm,213,587393,0.0-8.94-0.94,1.0,212.0,,,,,,,[],,,,,,62.5,1.0,i,1.0,True,990.0,50.0,56.0,40.0,False,,277.2596436723041,[],"[683, 384]",ColorTask,83.0,95.0,,,HRV,HRV_0063,2022-11-30 17:58:59
,wl-rdm,214,589588,0.0-8.95-0.95,1.0,213.0,,,,,,,[],,,,,,53.2,1.0,i,1.0,True,864.0,28.0,56.0,40.0,False,,256.11742960095097,[],"[683, 384]",ColorTask,84.0,96.0,,,HRV,HRV_0063,2022-11-30 17:58:59
,wl-rdm,215,591939,0.0-8.96-0.96,1.0,214.0,,,,,,,[],,,,,,87.9,0.0,u,0.0,True,916.0,27.0,56.0,40.0,False,,368.08506886419286,[],"[683, 384]",ColorTask,85.0,97.0,,,HRV,HRV_0063,2022-11-30 17:58:59
,wl-rdm,216,594472,0.0-8.97-0.97,1.0,215.0,,,,,,,[],,,,,,53.2,0.0,u,0.0,True,1136.0,56.0,56.0,40.0,False,,305.9768913662036,[],"[683, 384]",ColorTask,86.0,98.0,,,HRV,HRV_0063,2022-11-30 17:58:59
,wl-rdm,217,596891,0.0-8.98-0.98,1.0,216.0,,,,,,,[],,,,,,73.6,0.0,u,0.0,True,958.0,56.0,56.0,40.0,False,,371.49002239704237,[],"[683, 384]",ColorTask,87.0,99.0,,,HRV,HRV_0063,2022-11-30 17:58:59
,wl-rdm,218,599188,0.0-8.99-0.99,1.0,217.0,,,,,,,[],,,,,,62.5,1.0,i,1.0,True,1014.0,39.0,56.0,40.0,False,,205.8881006325155,[],"[683, 384]",ColorTask,88.0,100.0,,,HRV,HRV_0063,2022-11-30 17:58:59
,wl-rdm,219,601904,0.0-8.100-0.100,1.0,218.0,,,,,,,[],,,,,,56.4,0.0,i,1.0,False,1289.0,55.0,56.0,40.0,False,,360.8377480093673,[],"[683, 384]",ColorTask,87.0,101.0,,,HRV,HRV_0063,2022-11-30 17:58:59
,wl-rdm,220,604253,0.0-8.101-0.101,1.0,219.0,,,,,,,[],,,,,,53.2,1.0,i,1.0,True,874.0,47.0,56.0,40.0,False,,379.61739036134446,[],"[683, 384]",ColorTask,88.0,102.0,,,HRV,HRV_0063,2022-11-30 17:58:59
,wl-rdm,221,606521,0.0-8.102-0.102,1.0,220.0,,,,,,,[],,,,,,50.0,0.0,i,1.0,False,891.0,40.0,56.0,40.0,False,,300.36723989325213,[],"[683, 384]",ColorTask,87.0,103.0,,,HRV,HRV_0063,2022-11-30 17:58:59
,wl-rdm,222,608741,0.0-8.103-0.103,1.0,221.0,,,,,,,[],,,,,,73.6,0.0,u,0.0,True,928.0,41.0,56.0,40.0,False,,215.4249502434143,[],"[683, 384]",ColorTask,88.0,104.0,,,HRV,HRV_0063,2022-11-30 17:58:59
,wl-rdm,223,611044,0.0-8.104-0.104,1.0,222.0,,,,,,,[],,,,,,73.6,1.0,i,1.0,True,933.0,43.0,56.0,40.0,False,,273.80723567203336,[],"[683, 384]",ColorTask,89.0,105.0,,,HRV,HRV_0063,2022-11-30 17:58:59
,wl-rdm,224,613321,0.0-8.105-0.105,1.0,223.0,,,,,,,[],,,,,,53.2,1.0,u,0.0,False,897.0,48.0,56.0,40.0,False,,305.95161264005105,[],"[683, 384]",ColorTask,88.0,106.0,,,HRV,HRV_0063,2022-11-30 17:58:59
,wl-rdm,225,615621,0.0-8.106-0.106,1.0,224.0,,,,,,,[],,,,,,50.0,0.0,u,0.0,True,963.0,42.0,56.0,40.0,False,,262.6958951772539,[],"[683, 384]",ColorTask,89.0,107.0,,,HRV,HRV_0063,2022-11-30 17:58:59
,wl-rdm,226,617797,0.0-8.107-0.107,1.0,225.0,,,,,,,[],,,,,,87.9,1.0,i,1.0,True,888.0,32.0,56.0,40.0,False,,209.65191859690472,[],"[683, 384]",ColorTask,90.0,108.0,,,HRV,HRV_0063,2022-11-30 17:58:59
,wl-html-button-response,227,624714,0.0-9.0-0.0,,,,,,,,,,6908.0,,0,,,,,,,,,,,,,,,,,,,,<h3>End of this session. Thank you!</h3><br>,['Close window'],HRV,HRV_0063,2022-11-30 17:58:59
