trialN,stimuli,trialStartTime,trialStartTime_UNIX,stimulus1,stimulus2,stimulus1Bid,stimulus2Bid,delta,selected,rt,rt_UNIX,rt_perfnow,receivedResponse,rsp,trialEndTime,trialDuration,trialEndTime_UNIX,trialDuration_UNIX,exp,subjectId,date
0,"[{'imgObject': {}, 'id': 'cocktailshrimp', 'src': '/static/foodstim60/cocktailshrimp.jpg', 'key': 'u', 'origWidth': 410, 'origHeight': 410, 'width': 410, 'height': 410, 'widthPercent': 0.45, 'rescaleHeight': False, 'trialN': 0, 'loaded': True, 'loadedTime': 6050, 'positionName': 'LEFT', 'positionCoords': [245.68, 179], 'bid': 6.66}, {'imgObject': {}, 'id': 'granola w milk', 'src': '/static/foodstim60/granola w milk.jpg', 'key': 'i', 'origWidth': 410, 'origHeight': 410, 'width': 410, 'height': 410, 'widthPercent': 0.45, 'rescaleHeight': False, 'trialN': 0, 'loaded': True, 'loadedTime': 6160, 'positionName': 'RIGHT', 'positionCoords': [710.32, 179], 'bid': 5.04}]",7820,1669830345426,cocktailshrimp,granola w milk,6.66,5.04,-1.62,cocktailshrimp,901,903,903,True,u,9231,1411,1669830346837,1411,HRV,HRV_0063,2022-11-30 17:48:16
1,"[{'imgObject': {}, 'id': 'seaweed', 'src': '/static/foodstim60/seaweed.jpg', 'key': 'u', 'origWidth': 410, 'origHeight': 410, 'width': 410, 'height': 410, 'widthPercent': 0.45, 'rescaleHeight': False, 'trialN': 1, 'loaded': True, 'loadedTime': 6238, 'positionName': 'LEFT', 'positionCoords': [245.68, 179], 'bid': 7.66}, {'imgObject': {}, 'id': 'edamame', 'src': '/static/foodstim60/edamame.jpg', 'key': 'i', 'origWidth': 409, 'origHeight': 410, 'width': 409, 'height': 410, 'widthPercent': 0.45, 'rescaleHeight': False, 'trialN': 1, 'loaded': True, 'loadedTime': 6316, 'positionName': 'RIGHT', 'positionCoords': [710.32, 179], 'bid': 6.47}]",9231,1669830346837,seaweed,edamame,7.66,6.47,-1.1900000000000004,edamame,565,565,565,True,i,10307,1076,1669830347913,1076,HRV,HRV_0063,2022-11-30 17:48:16
2,"[{'imgObject': {}, 'id': 'burrito', 'src': '/static/foodstim60/burrito.jpg', 'key': 'u', 'origWidth': 410, 'origHeight': 410, 'width': 410, 'height': 410, 'widthPercent': 0.45, 'rescaleHeight': False, 'trialN': 2, 'loaded': True, 'loadedTime': 6331, 'positionName': 'LEFT', 'positionCoords': [245.68, 179], 'bid': 6.03}, {'imgObject': {}, 'id': 'orange slices', 'src': '/static/foodstim60/orange slices.jpg', 'key': 'i', 'origWidth': 409, 'origHeight': 410, 'width': 409, 'height': 410, 'widthPercent': 0.45, 'rescaleHeight': False, 'trialN': 2, 'loaded': True, 'loadedTime': 6394, 'positionName': 'RIGHT', 'positionCoords': [710.32, 179], 'bid': 8.83}]",10308,1669830347914,burrito,orange slices,6.03,8.83,2.8,burrito,414,429,429,True,u,11242,934,1669830348848,934,HRV,HRV_0063,2022-11-30 17:48:16
3,"[{'imgObject': {}, 'id': 'roastedpotatoes', 'src': '/static/foodstim60/roastedpotatoes.jpg', 'key': 'u', 'origWidth': 409, 'origHeight': 410, 'width': 409, 'height': 410, 'widthPercent': 0.45, 'rescaleHeight': False, 'trialN': 3, 'loaded': True, 'loadedTime': 6441, 'positionName': 'LEFT', 'positionCoords': [246.68, 179], 'bid': 5.83}, {'imgObject': {}, 'id': 'omelette', 'src': '/static/foodstim60/omelette.jpg', 'key': 'i', 'origWidth': 410, 'origHeight': 409, 'width': 410, 'height': 409, 'widthPercent': 0.45, 'rescaleHeight': False, 'trialN': 3, 'loaded': True, 'loadedTime': 6566, 'positionName': 'RIGHT', 'positionCoords': [710.32, 179.5], 'bid': 5.83}]",11243,1669830348849,roastedpotatoes,omelette,5.83,5.83,0.0,omelette,338,338,338,True,i,12097,854,1669830349703,854,HRV,HRV_0063,2022-11-30 17:48:16
4,"[{'imgObject': {}, 'id': 'fruitsalad', 'src': '/static/foodstim60/fruitsalad.jpg', 'key': 'u', 'origWidth': 410, 'origHeight': 410, 'width': 410, 'height': 410, 'widthPercent': 0.45, 'rescaleHeight': False, 'trialN': 4, 'loaded': True, 'loadedTime': 6582, 'positionName': 'LEFT', 'positionCoords': [245.68, 179], 'bid': 7.29}, {'imgObject': {}, 'id': 'salmon', 'src': '/static/foodstim60/salmon.jpg', 'key': 'i', 'origWidth': 410, 'origHeight': 409, 'width': 410, 'height': 409, 'widthPercent': 0.45, 'rescaleHeight': False, 'trialN': 4, 'loaded': True, 'loadedTime': 6660, 'positionName': 'RIGHT', 'positionCoords': [710.32, 179.5], 'bid': 8.33}]",12097,1669830349703,fruitsalad,salmon,7.29,8.33,1.04,salmon,358,358,358,True,i,12972,875,1669830350578,875,HRV,HRV_0063,2022-11-30 17:48:16
5,"[{'imgObject': {}, 'id': 'hotdog w must', 'src': '/static/foodstim60/hotdog w must.jpg', 'key': 'u', 'origWidth': 409, 'origHeight': 409, 'width': 409, 'height': 409, 'widthPercent': 0.45, 'rescaleHeight': False, 'trialN': 5, 'loaded': True, 'loadedTime': 6769, 'positionName': 'LEFT', 'positionCoords': [246.68, 179.5], 'bid': 6.8500000000000005}, {'imgObject': {}, 'id': 'seaweed', 'src': '/static/foodstim60/seaweed.jpg', 'key': 'i', 'origWidth': 410, 'origHeight': 410, 'width': 410, 'height': 410, 'widthPercent': 0.45, 'rescaleHeight': False, 'trialN': 5, 'loaded': True, 'loadedTime': 6206, 'positionName': 'RIGHT', 'positionCoords': [710.32, 179], 'bid': 7.66}]",12973,1669830350579,hotdog w must,seaweed,6.8500000000000005,7.66,0.8099999999999996,seaweed,373,373,373,True,i,13848,875,1669830351454,875,HRV,HRV_0063,2022-11-30 17:48:16
6,"[{'imgObject': {}, 'id': 'cocktailshrimp', 'src': '/static/foodstim60/cocktailshrimp.jpg', 'key': 'u', 'origWidth': 410, 'origHeight': 410, 'width': 410, 'height': 410, 'widthPercent': 0.45, 'rescaleHeight': False, 'trialN': 6, 'loaded': True, 'loadedTime': 6050, 'positionName': 'LEFT', 'positionCoords': [245.68, 179], 'bid': 6.66}, {'imgObject': {}, 'id': 'veggieswithdip', 'src': '/static/foodstim60/veggieswithdip.jpg', 'key': 'i', 'origWidth': 409, 'origHeight': 409, 'width': 409, 'height': 409, 'widthPercent': 0.45, 'rescaleHeight': False, 'trialN': 6, 'loaded': True, 'loadedTime': 6816, 'positionName': 'RIGHT', 'positionCoords': [710.32, 179.5], 'bid': 6.63}]",13849,1669830351455,cocktailshrimp,veggieswithdip,6.66,6.63,-0.03000000000000025,cocktailshrimp,305,305,305,True,u,14665,816,1669830352271,816,HRV,HRV_0063,2022-11-30 17:48:16
7,"[{'imgObject': {}, 'id': 'eggsalad', 'src': '/static/foodstim60/eggsalad.jpg', 'key': 'u', 'origWidth': 410, 'origHeight': 409, 'width': 410, 'height': 409, 'widthPercent': 0.45, 'rescaleHeight': False, 'trialN': 7, 'loaded': True, 'loadedTime': 6847, 'positionName': 'LEFT', 'positionCoords': [245.68, 179.5], 'bid': 4.95}, {'imgObject': {}, 'id': 'hashbrowns', 'src': '/static/foodstim60/hashbrowns.jpg', 'key': 'i', 'origWidth': 411, 'origHeight': 410, 'width': 411, 'height': 410, 'widthPercent': 0.45, 'rescaleHeight': False, 'trialN': 7, 'loaded': True, 'loadedTime': 6900, 'positionName': 'RIGHT', 'positionCoords': [710.32, 179], 'bid': 4.76}]",14666,1669830352272,eggsalad,hashbrowns,4.95,4.76,-0.1900000000000004,eggsalad,476,476,476,True,u,15666,1000,1669830353273,1001,HRV,HRV_0063,2022-11-30 17:48:16
8,"[{'imgObject': {}, 'id': 'olives', 'src': '/static/foodstim60/olives.jpg', 'key': 'u', 'origWidth': 410, 'origHeight': 410, 'width': 410, 'height': 410, 'widthPercent': 0.45, 'rescaleHeight': False, 'trialN': 8, 'loaded': True, 'loadedTime': 6926, 'positionName': 'LEFT', 'positionCoords': [245.68, 179], 'bid': 5.96}, {'imgObject': {}, 'id': 'baked potato', 'src': '/static/foodstim60/baked potato.jpg', 'key': 'i', 'origWidth': 409, 'origHeight': 410, 'width': 409, 'height': 410, 'widthPercent': 0.45, 'rescaleHeight': False, 'trialN': 8, 'loaded': True, 'loadedTime': 6975, 'positionName': 'RIGHT', 'positionCoords': [710.32, 179], 'bid': 6.24}]",15668,1669830353275,olives,baked potato,5.96,6.24,0.28000000000000025,olives,366,381,381,True,u,16563,895,1669830354170,895,HRV,HRV_0063,2022-11-30 17:48:16
9,"[{'imgObject': {}, 'id': 'cantaloupe', 'src': '/static/foodstim60/cantaloupe.jpg', 'key': 'u', 'origWidth': 409, 'origHeight': 409, 'width': 409, 'height': 409, 'widthPercent': 0.45, 'rescaleHeight': False, 'trialN': 9, 'loaded': True, 'loadedTime': 6996, 'positionName': 'LEFT', 'positionCoords': [246.68, 179.5], 'bid': 5.84}, {'imgObject': {}, 'id': 'seaweed', 'src': '/static/foodstim60/seaweed.jpg', 'key': 'i', 'origWidth': 410, 'origHeight': 410, 'width': 410, 'height': 410, 'widthPercent': 0.45, 'rescaleHeight': False, 'trialN': 9, 'loaded': True, 'loadedTime': 6222, 'positionName': 'RIGHT', 'positionCoords': [710.32, 179], 'bid': 7.66}]",16564,1669830354171,cantaloupe,seaweed,5.84,7.66,1.8200000000000003,seaweed,228,228,228,True,i,17299,735,1669830354906,735,HRV,HRV_0063,2022-11-30 17:48:16
10,"[{'imgObject': {}, 'id': 'steak', 'src': '/static/foodstim60/steak.jpg', 'key': 'u', 'origWidth': 410, 'origHeight': 410, 'width': 410, 'height': 410, 'widthPercent': 0.45, 'rescaleHeight': False, 'trialN': 10, 'loaded': True, 'loadedTime': 7027, 'positionName': 'LEFT', 'positionCoords': [245.68, 179], 'bid': 6.74}, {'imgObject': {}, 'id': 'turkeysandwich', 'src': '/static/foodstim60/turkeysandwich.jpg', 'key': 'i', 'origWidth': 409, 'origHeight': 409, 'width': 409, 'height': 409, 'widthPercent': 0.45, 'rescaleHeight': False, 'trialN': 10, 'loaded': True, 'loadedTime': 7043, 'positionName': 'RIGHT', 'positionCoords': [710.32, 179.5], 'bid': 5.2700000000000005}]",17301,1669830354908,steak,turkeysandwich,6.74,5.2700000000000005,-1.4699999999999998,turkeysandwich,296,296,296,True,i,18108,807,1669830355715,807,HRV,HRV_0063,2022-11-30 17:48:16
11,"[{'imgObject': {}, 'id': 'olives', 'src': '/static/foodstim60/olives.jpg', 'key': 'u', 'origWidth': 410, 'origHeight': 410, 'width': 410, 'height': 410, 'widthPercent': 0.45, 'rescaleHeight': False, 'trialN': 11, 'loaded': True, 'loadedTime': 6949, 'positionName': 'LEFT', 'positionCoords': [245.68, 179], 'bid': 5.96}, {'imgObject': {}, 'id': 'Tribe humus pita', 'src': '/static/foodstim60/Tribe humus pita.jpg', 'key': 'i', 'origWidth': 411, 'origHeight': 411, 'width': 411, 'height': 411, 'widthPercent': 0.45, 'rescaleHeight': False, 'trialN': 11, 'loaded': True, 'loadedTime': 7058, 'positionName': 'RIGHT', 'positionCoords': [710.32, 178.5], 'bid': 5.98}]",18109,1669830355716,olives,Tribe humus pita,5.96,5.98,0.020000000000000462,Tribe humus pita,357,358,358,True,i,18972,863,1669830356579,863,HRV,HRV_0063,2022-11-30 17:48:16
12,"[{'imgObject': {}, 'id': 'corn cob', 'src': '/static/foodstim60/corn cob.jpg', 'key': 'u', 'origWidth': 411, 'origHeight': 411, 'width': 411, 'height': 411, 'widthPercent': 0.45, 'rescaleHeight': False, 'trialN': 12, 'loaded': True, 'loadedTime': 7102, 'positionName': 'LEFT', 'positionCoords': [244.68, 178.5], 'bid': 5.05}, {'imgObject': {}, 'id': 'popsicles', 'src': '/static/foodstim60/popsicles.jpg', 'key': 'i', 'origWidth': 410, 'origHeight': 410, 'width': 410, 'height': 410, 'widthPercent': 0.45, 'rescaleHeight': False, 'trialN': 12, 'loaded': True, 'loadedTime': 7801, 'positionName': 'RIGHT', 'positionCoords': [710.32, 179], 'bid': 5.32}]",18973,1669830356580,corn cob,popsicles,5.05,5.32,0.27000000000000046,popsicles,295,296,296,True,i,19796,823,1669830357403,823,HRV,HRV_0063,2022-11-30 17:48:16
13,"[{'imgObject': {}, 'id': 'roastedpotatoes', 'src': '/static/foodstim60/roastedpotatoes.jpg', 'key': 'u', 'origWidth': 409, 'origHeight': 410, 'width': 409, 'height': 410, 'widthPercent': 0.45, 'rescaleHeight': False, 'trialN': 13, 'loaded': True, 'loadedTime': 6456, 'positionName': 'LEFT', 'positionCoords': [246.68, 179], 'bid': 5.83}, {'imgObject': {}, 'id': 'sushi w_condiments', 'src': '/static/foodstim60/sushi w_condiments.jpg', 'key': 'i', 'origWidth': 410, 'origHeight': 410, 'width': 410, 'height': 410, 'widthPercent': 0.45, 'rescaleHeight': False, 'trialN': 13, 'loaded': True, 'loadedTime': 7123, 'positionName': 'RIGHT', 'positionCoords': [710.32, 179], 'bid': 5.46}]",19797,1669830357404,roastedpotatoes,sushi w_condiments,5.83,5.46,-0.3700000000000001,roastedpotatoes,171,171,171,True,u,20485,688,1669830358092,688,HRV,HRV_0063,2022-11-30 17:48:16
14,"[{'imgObject': {}, 'id': 'apple slices', 'src': '/static/foodstim60/apple slices.jpg', 'key': 'u', 'origWidth': 409, 'origHeight': 410, 'width': 409, 'height': 410, 'widthPercent': 0.45, 'rescaleHeight': False, 'trialN': 14, 'loaded': True, 'loadedTime': 7139, 'positionName': 'LEFT', 'positionCoords': [246.68, 179], 'bid': 6.36}, {'imgObject': {}, 'id': 'chickenfingers', 'src': '/static/foodstim60/chickenfingers.jpg', 'key': 'i', 'origWidth': 410, 'origHeight': 410, 'width': 410, 'height': 410, 'widthPercent': 0.45, 'rescaleHeight': False, 'trialN': 14, 'loaded': True, 'loadedTime': 7154, 'positionName': 'RIGHT', 'positionCoords': [710.32, 179], 'bid': 6.3}]",20485,1669830358092,apple slices,chickenfingers,6.36,6.3,-0.0600000000000005,apple slices,363,364,364,True,u,21362,877,1669830358969,877,HRV,HRV_0063,2022-11-30 17:48:16
15,"[{'imgObject': {}, 'id': 'cherry tomato', 'src': '/static/foodstim60/cherry tomato.jpg', 'key': 'u', 'origWidth': 410, 'origHeight': 410, 'width': 410, 'height': 410, 'widthPercent': 0.45, 'rescaleHeight': False, 'trialN': 15, 'loaded': True, 'loadedTime': 7212, 'positionName': 'LEFT', 'positionCoords': [245.68, 179], 'bid': 7.28}, {'imgObject': {}, 'id': 'burger', 'src': '/static/foodstim60/burger.jpg', 'key': 'i', 'origWidth': 409, 'origHeight': 409, 'width': 409, 'height': 409, 'widthPercent': 0.45, 'rescaleHeight': False, 'trialN': 15, 'loaded': True, 'loadedTime': 7212, 'positionName': 'RIGHT', 'positionCoords': [710.32, 179.5], 'bid': 7.66}]",21365,1669830358972,cherry tomato,burger,7.28,7.66,0.3799999999999999,cherry tomato,326,326,326,True,u,22204,839,1669830359811,839,HRV,HRV_0063,2022-11-30 17:48:16
16,"[{'imgObject': {}, 'id': 'turkey sandwich', 'src': '/static/foodstim60/turkey sandwich.jpg', 'key': 'u', 'origWidth': 409, 'origHeight': 409, 'width': 409, 'height': 409, 'widthPercent': 0.45, 'rescaleHeight': False, 'trialN': 16, 'loaded': True, 'loadedTime': 7228, 'positionName': 'LEFT', 'positionCoords': [246.68, 179.5], 'bid': 5.98}, {'imgObject': {}, 'id': 'blueberries', 'src': '/static/foodstim60/blueberries.jpg', 'key': 'i', 'origWidth': 411, 'origHeight': 411, 'width': 411, 'height': 411, 'widthPercent': 0.45, 'rescaleHeight': False, 'trialN': 16, 'loaded': True, 'loadedTime': 7244, 'positionName': 'RIGHT', 'positionCoords': [710.32, 178.5], 'bid': 7.75}]",22204,1669830359811,turkey sandwich,blueberries,5.98,7.75,1.7699999999999996,turkey sandwich,280,280,280,True,u,23011,807,1669830360618,807,HRV,HRV_0063,2022-11-30 17:48:16
17,"[{'imgObject': {}, 'id': 'eggs', 'src': '/static/foodstim60/eggs.jpg', 'key': 'u', 'origWidth': 409, 'origHeight': 409, 'width': 409, 'height': 409, 'widthPercent': 0.45, 'rescaleHeight': False, 'trialN': 17, 'loaded': True, 'loadedTime': 7259, 'positionName': 'LEFT', 'positionCoords': [246.68, 179.5], 'bid': 6.43}, {'imgObject': {}, 'id': 'edamame', 'src': '/static/foodstim60/edamame.jpg', 'key': 'i', 'origWidth': 409, 'origHeight': 410, 'width': 409, 'height': 410, 'widthPercent': 0.45, 'rescaleHeight': False, 'trialN': 17, 'loaded': True, 'loadedTime': 6300, 'positionName': 'RIGHT', 'positionCoords': [710.32, 179], 'bid': 6.47}]",23014,1669830360621,eggs,edamame,6.43,6.47,0.040000000000000036,eggs,203,205,205,True,u,23722,708,1669830361329,708,HRV,HRV_0063,2022-11-30 17:48:16
18,"[{'imgObject': {}, 'id': 'Grapes', 'src': '/static/foodstim60/Grapes.jpg', 'key': 'u', 'origWidth': 411, 'origHeight': 411, 'width': 411, 'height': 411, 'widthPercent': 0.45, 'rescaleHeight': False, 'trialN': 18, 'loaded': True, 'loadedTime': 7259, 'positionName': 'LEFT', 'positionCoords': [244.68, 178.5], 'bid': 6.71}, {'imgObject': {}, 'id': 'salmon', 'src': '/static/foodstim60/salmon.jpg', 'key': 'i', 'origWidth': 410, 'origHeight': 409, 'width': 410, 'height': 409, 'widthPercent': 0.45, 'rescaleHeight': False, 'trialN': 18, 'loaded': True, 'loadedTime': 6660, 'positionName': 'RIGHT', 'positionCoords': [710.32, 179.5], 'bid': 8.33}]",23723,1669830361330,Grapes,salmon,6.71,8.33,1.62,Grapes,248,249,249,True,u,24489,766,1669830362096,766,HRV,HRV_0063,2022-11-30 17:48:16
19,"[{'imgObject': {}, 'id': 'luckycharms', 'src': '/static/foodstim60/luckycharms.jpg', 'key': 'u', 'origWidth': 410, 'origHeight': 409, 'width': 410, 'height': 409, 'widthPercent': 0.45, 'rescaleHeight': False, 'trialN': 19, 'loaded': True, 'loadedTime': 7290, 'positionName': 'LEFT', 'positionCoords': [245.68, 179.5], 'bid': 5.36}, {'imgObject': {}, 'id': 'froot loops w milk', 'src': '/static/foodstim60/froot loops w milk.jpg', 'key': 'i', 'origWidth': 410, 'origHeight': 410, 'width': 410, 'height': 410, 'widthPercent': 0.45, 'rescaleHeight': False, 'trialN': 19, 'loaded': True, 'loadedTime': 7314, 'positionName': 'RIGHT', 'positionCoords': [710.32, 179], 'bid': 4.66}]",24489,1669830362096,luckycharms,froot loops w milk,5.36,4.66,-0.7000000000000002,luckycharms,263,279,279,True,u,25270,781,1669830362877,781,HRV,HRV_0063,2022-11-30 17:48:16
20,"[{'imgObject': {}, 'id': 'omelette', 'src': '/static/foodstim60/omelette.jpg', 'key': 'u', 'origWidth': 410, 'origHeight': 409, 'width': 410, 'height': 409, 'widthPercent': 0.45, 'rescaleHeight': False, 'trialN': 20, 'loaded': True, 'loadedTime': 6566, 'positionName': 'LEFT', 'positionCoords': [245.68, 179.5], 'bid': 5.83}, {'imgObject': {}, 'id': 'shreddedwheatwithmilk', 'src': '/static/foodstim60/shreddedwheatwithmilk.jpg', 'key': 'i', 'origWidth': 410, 'origHeight': 410, 'width': 410, 'height': 410, 'widthPercent': 0.45, 'rescaleHeight': False, 'trialN': 20, 'loaded': True, 'loadedTime': 7340, 'positionName': 'RIGHT', 'positionCoords': [710.32, 179], 'bid': 7.63}]",25270,1669830362877,omelette,shreddedwheatwithmilk,5.83,7.63,1.7999999999999998,shreddedwheatwithmilk,176,176,176,True,i,25957,687,1669830363564,687,HRV,HRV_0063,2022-11-30 17:48:16
21,"[{'imgObject': {}, 'id': 'mashed potato', 'src': '/static/foodstim60/mashed potato.jpg', 'key': 'u', 'origWidth': 409, 'origHeight': 409, 'width': 409, 'height': 409, 'widthPercent': 0.45, 'rescaleHeight': False, 'trialN': 21, 'loaded': True, 'loadedTime': 7341, 'positionName': 'LEFT', 'positionCoords': [246.68, 179.5], 'bid': 4.1}, {'imgObject': {}, 'id': 'avocado', 'src': '/static/foodstim60/avocado.jpg', 'key': 'i', 'origWidth': 409, 'origHeight': 409, 'width': 409, 'height': 409, 'widthPercent': 0.45, 'rescaleHeight': False, 'trialN': 21, 'loaded': True, 'loadedTime': 7425, 'positionName': 'RIGHT', 'positionCoords': [710.32, 179.5], 'bid': 5.33}]",25957,1669830363564,mashed potato,avocado,4.1,5.33,1.2300000000000004,avocado,270,270,270,True,i,26738,781,1669830364345,781,HRV,HRV_0063,2022-11-30 17:48:16
22,"[{'imgObject': {}, 'id': 'hashbrowns', 'src': '/static/foodstim60/hashbrowns.jpg', 'key': 'u', 'origWidth': 411, 'origHeight': 410, 'width': 411, 'height': 410, 'widthPercent': 0.45, 'rescaleHeight': False, 'trialN': 22, 'loaded': True, 'loadedTime': 6920, 'positionName': 'LEFT', 'positionCoords': [244.68, 179], 'bid': 4.76}, {'imgObject': {}, 'id': 'eggs', 'src': '/static/foodstim60/eggs.jpg', 'key': 'i', 'origWidth': 409, 'origHeight': 409, 'width': 409, 'height': 409, 'widthPercent': 0.45, 'rescaleHeight': False, 'trialN': 22, 'loaded': True, 'loadedTime': 7259, 'positionName': 'RIGHT', 'positionCoords': [710.32, 179.5], 'bid': 6.43}]",26738,1669830364345,hashbrowns,eggs,4.76,6.43,1.67,eggs,202,202,202,True,i,27456,718,1669830365063,718,HRV,HRV_0063,2022-11-30 17:48:16
23,"[{'imgObject': {}, 'id': 'kiwi', 'src': '/static/foodstim60/kiwi.jpg', 'key': 'u', 'origWidth': 410, 'origHeight': 410, 'width': 410, 'height': 410, 'widthPercent': 0.45, 'rescaleHeight': False, 'trialN': 23, 'loaded': True, 'loadedTime': 7441, 'positionName': 'LEFT', 'positionCoords': [245.68, 179], 'bid': 5.5200000000000005}, {'imgObject': {}, 'id': 'avocado', 'src': '/static/foodstim60/avocado.jpg', 'key': 'i', 'origWidth': 409, 'origHeight': 409, 'width': 409, 'height': 409, 'widthPercent': 0.45, 'rescaleHeight': False, 'trialN': 23, 'loaded': True, 'loadedTime': 7378, 'positionName': 'RIGHT', 'positionCoords': [710.32, 179.5], 'bid': 5.33}]",27457,1669830365064,kiwi,avocado,5.5200000000000005,5.33,-0.1900000000000004,avocado,207,208,208,True,i,28167,710,1669830365774,710,HRV,HRV_0063,2022-11-30 17:48:16
24,"[{'imgObject': {}, 'id': 'bagel and cc', 'src': '/static/foodstim60/bagel and cc.jpg', 'key': 'u', 'origWidth': 410, 'origHeight': 410, 'width': 410, 'height': 410, 'widthPercent': 0.45, 'rescaleHeight': False, 'trialN': 24, 'loaded': True, 'loadedTime': 7441, 'positionName': 'LEFT', 'positionCoords': [245.68, 179], 'bid': 4.5}, {'imgObject': {}, 'id': 'cherries', 'src': '/static/foodstim60/cherries.jpg', 'key': 'i', 'origWidth': 410, 'origHeight': 411, 'width': 410, 'height': 411, 'widthPercent': 0.45, 'rescaleHeight': False, 'trialN': 24, 'loaded': True, 'loadedTime': 7472, 'positionName': 'RIGHT', 'positionCoords': [710.32, 178.5], 'bid': 4.59}]",28167,1669830365774,bagel and cc,cherries,4.5,4.59,0.08999999999999986,cherries,211,211,211,True,i,28894,727,1669830366501,727,HRV,HRV_0063,2022-11-30 17:48:16
25,"[{'imgObject': {}, 'id': 'orange slices', 'src': '/static/foodstim60/orange slices.jpg', 'key': 'u', 'origWidth': 409, 'origHeight': 410, 'width': 409, 'height': 410, 'widthPercent': 0.45, 'rescaleHeight': False, 'trialN': 25, 'loaded': True, 'loadedTime': 6410, 'positionName': 'LEFT', 'positionCoords': [246.68, 179], 'bid': 8.83}, {'imgObject': {}, 'id': 'tacos', 'src': '/static/foodstim60/tacos.jpg', 'key': 'i', 'origWidth': 411, 'origHeight': 411, 'width': 411, 'height': 411, 'widthPercent': 0.45, 'rescaleHeight': False, 'trialN': 25, 'loaded': True, 'loadedTime': 7472, 'positionName': 'RIGHT', 'positionCoords': [710.32, 178.5], 'bid': 8.33}]",28894,1669830366501,orange slices,tacos,8.83,8.33,-0.5,tacos,165,166,166,True,i,29581,687,1669830367188,687,HRV,HRV_0063,2022-11-30 17:48:16
26,"[{'imgObject': {}, 'id': 'mango', 'src': '/static/foodstim60/mango.jpg', 'key': 'u', 'origWidth': 411, 'origHeight': 411, 'width': 411, 'height': 411, 'widthPercent': 0.45, 'rescaleHeight': False, 'trialN': 26, 'loaded': True, 'loadedTime': 7519, 'positionName': 'LEFT', 'positionCoords': [244.68, 178.5], 'bid': 6.17}, {'imgObject': {}, 'id': 'yogurt no spoon', 'src': '/static/foodstim60/yogurt no spoon.jpg', 'key': 'i', 'origWidth': 411, 'origHeight': 410, 'width': 411, 'height': 410, 'widthPercent': 0.45, 'rescaleHeight': False, 'trialN': 26, 'loaded': True, 'loadedTime': 7540, 'positionName': 'RIGHT', 'positionCoords': [710.32, 179], 'bid': 4.19}]",29582,1669830367189,mango,yogurt no spoon,6.17,4.19,-1.9799999999999995,yogurt no spoon,149,149,149,True,i,30254,672,1669830367861,672,HRV,HRV_0063,2022-11-30 17:48:16
27,"[{'imgObject': {}, 'id': 'roastedpotatoes', 'src': '/static/foodstim60/roastedpotatoes.jpg', 'key': 'u', 'origWidth': 409, 'origHeight': 410, 'width': 409, 'height': 410, 'widthPercent': 0.45, 'rescaleHeight': False, 'trialN': 27, 'loaded': True, 'loadedTime': 6425, 'positionName': 'LEFT', 'positionCoords': [246.68, 179], 'bid': 5.83}, {'imgObject': {}, 'id': 'chicken nuggets2', 'src': '/static/foodstim60/chicken nuggets2.jpg', 'key': 'i', 'origWidth': 410, 'origHeight': 409, 'width': 410, 'height': 409, 'widthPercent': 0.45, 'rescaleHeight': False, 'trialN': 27, 'loaded': True, 'loadedTime': 7583, 'positionName': 'RIGHT', 'positionCoords': [710.32, 179.5], 'bid': 6.18}]",30255,1669830367862,roastedpotatoes,chicken nuggets2,5.83,6.18,0.34999999999999964,chicken nuggets2,263,263,263,True,i,31033,778,1669830368640,778,HRV,HRV_0063,2022-11-30 17:48:16
28,"[{'imgObject': {}, 'id': 'granola w milk', 'src': '/static/foodstim60/granola w milk.jpg', 'key': 'u', 'origWidth': 410, 'origHeight': 410, 'width': 410, 'height': 410, 'widthPercent': 0.45, 'rescaleHeight': False, 'trialN': 28, 'loaded': True, 'loadedTime': 6160, 'positionName': 'LEFT', 'positionCoords': [245.68, 179], 'bid': 5.04}, {'imgObject': {}, 'id': 'bagel plain', 'src': '/static/foodstim60/bagel plain.jpg', 'key': 'i', 'origWidth': 410, 'origHeight': 410, 'width': 410, 'height': 410, 'widthPercent': 0.45, 'rescaleHeight': False, 'trialN': 28, 'loaded': True, 'loadedTime': 7599, 'positionName': 'RIGHT', 'positionCoords': [710.32, 179], 'bid': 4.89}]",31033,1669830368640,granola w milk,bagel plain,5.04,4.89,-0.15000000000000036,bagel plain,216,217,217,True,i,31753,720,1669830369360,720,HRV,HRV_0063,2022-11-30 17:48:16
29,"[{'imgObject': {}, 'id': 'chicken nuggets2', 'src': '/static/foodstim60/chicken nuggets2.jpg', 'key': 'u', 'origWidth': 410, 'origHeight': 409, 'width': 410, 'height': 409, 'widthPercent': 0.45, 'rescaleHeight': False, 'trialN': 29, 'loaded': True, 'loadedTime': 7583, 'positionName': 'LEFT', 'positionCoords': [245.68, 179.5], 'bid': 6.18}, {'imgObject': {}, 'id': 'raspberries', 'src': '/static/foodstim60/raspberries.jpg', 'key': 'i', 'origWidth': 411, 'origHeight': 411, 'width': 411, 'height': 411, 'widthPercent': 0.45, 'rescaleHeight': False, 'trialN': 29, 'loaded': True, 'loadedTime': 7614, 'positionName': 'RIGHT', 'positionCoords': [710.32, 178.5], 'bid': 6.21}]",31754,1669830369361,chicken nuggets2,raspberries,6.18,6.21,0.03000000000000025,raspberries,249,250,250,True,i,32608,854,1669830370215,854,HRV,HRV_0063,2022-11-30 17:48:16
30,"[{'imgObject': {}, 'id': 'mango', 'src': '/static/foodstim60/mango.jpg', 'key': 'u', 'origWidth': 411, 'origHeight': 411, 'width': 411, 'height': 411, 'widthPercent': 0.45, 'rescaleHeight': False, 'trialN': 30, 'loaded': True, 'loadedTime': 7519, 'positionName': 'LEFT', 'positionCoords': [244.68, 178.5], 'bid': 6.17}, {'imgObject': {}, 'id': 'mac & cheese', 'src': '/static/foodstim60/mac & cheese.jpg', 'key': 'i', 'origWidth': 410, 'origHeight': 410, 'width': 410, 'height': 410, 'widthPercent': 0.45, 'rescaleHeight': False, 'trialN': 30, 'loaded': True, 'loadedTime': 7648, 'positionName': 'RIGHT', 'positionCoords': [710.32, 179], 'bid': 6.08}]",32609,1669830370216,mango,mac & cheese,6.17,6.08,-0.08999999999999986,mango,141,176,176,True,u,33285,676,1669830370892,676,HRV,HRV_0063,2022-11-30 17:48:16
31,"[{'imgObject': {}, 'id': 'ice cream sundae 002', 'src': '/static/foodstim60/ice cream sundae 002.jpg', 'key': 'u', 'origWidth': 409, 'origHeight': 409, 'width': 409, 'height': 409, 'widthPercent': 0.45, 'rescaleHeight': False, 'trialN': 31, 'loaded': True, 'loadedTime': 7657, 'positionName': 'LEFT', 'positionCoords': [246.68, 179.5], 'bid': 4.28}, {'imgObject': {}, 'id': 'hashbrowns', 'src': '/static/foodstim60/hashbrowns.jpg', 'key': 'i', 'origWidth': 411, 'origHeight': 410, 'width': 411, 'height': 410, 'widthPercent': 0.45, 'rescaleHeight': False, 'trialN': 31, 'loaded': True, 'loadedTime': 6908, 'positionName': 'RIGHT', 'positionCoords': [710.32, 179], 'bid': 4.76}]",33285,1669830370892,ice cream sundae 002,hashbrowns,4.28,4.76,0.47999999999999954,ice cream sundae 002,59,60,60,True,u,33848,563,1669830371455,563,HRV,HRV_0063,2022-11-30 17:48:16
32,"[{'imgObject': {}, 'id': 'hotdog w must', 'src': '/static/foodstim60/hotdog w must.jpg', 'key': 'u', 'origWidth': 409, 'origHeight': 409, 'width': 409, 'height': 409, 'widthPercent': 0.45, 'rescaleHeight': False, 'trialN': 32, 'loaded': True, 'loadedTime': 6660, 'positionName': 'LEFT', 'positionCoords': [246.68, 179.5], 'bid': 6.8500000000000005}, {'imgObject': {}, 'id': 'orange slices', 'src': '/static/foodstim60/orange slices.jpg', 'key': 'i', 'origWidth': 409, 'origHeight': 410, 'width': 409, 'height': 410, 'widthPercent': 0.45, 'rescaleHeight': False, 'trialN': 32, 'loaded': True, 'loadedTime': 6410, 'positionName': 'RIGHT', 'positionCoords': [710.32, 179], 'bid': 8.83}]",33848,1669830371455,hotdog w must,orange slices,6.8500000000000005,8.83,1.9799999999999995,hotdog w must,135,136,136,True,u,34500,652,1669830372107,652,HRV,HRV_0063,2022-11-30 17:48:16
33,"[{'imgObject': {}, 'id': 'apple slices', 'src': '/static/foodstim60/apple slices.jpg', 'key': 'u', 'origWidth': 409, 'origHeight': 410, 'width': 409, 'height': 410, 'widthPercent': 0.45, 'rescaleHeight': False, 'trialN': 33, 'loaded': True, 'loadedTime': 7139, 'positionName': 'LEFT', 'positionCoords': [246.68, 179], 'bid': 6.36}, {'imgObject': {}, 'id': 'Tribe humus pita', 'src': '/static/foodstim60/Tribe humus pita.jpg', 'key': 'i', 'origWidth': 411, 'origHeight': 411, 'width': 411, 'height': 411, 'widthPercent': 0.45, 'rescaleHeight': False, 'trialN': 33, 'loaded': True, 'loadedTime': 7058, 'positionName': 'RIGHT', 'positionCoords': [710.32, 178.5], 'bid': 5.98}]",34502,1669830372109,apple slices,Tribe humus pita,6.36,5.98,-0.3799999999999999,apple slices,146,146,146,True,u,35159,657,1669830372766,657,HRV,HRV_0063,2022-11-30 17:48:16
34,"[{'imgObject': {}, 'id': 'yogurt no spoon', 'src': '/static/foodstim60/yogurt no spoon.jpg', 'key': 'u', 'origWidth': 411, 'origHeight': 410, 'width': 411, 'height': 410, 'widthPercent': 0.45, 'rescaleHeight': False, 'trialN': 34, 'loaded': True, 'loadedTime': 7537, 'positionName': 'LEFT', 'positionCoords': [244.68, 179], 'bid': 4.19}, {'imgObject': {}, 'id': 'luckycharms', 'src': '/static/foodstim60/luckycharms.jpg', 'key': 'i', 'origWidth': 410, 'origHeight': 409, 'width': 410, 'height': 409, 'widthPercent': 0.45, 'rescaleHeight': False, 'trialN': 34, 'loaded': True, 'loadedTime': 7306, 'positionName': 'RIGHT', 'positionCoords': [710.32, 179.5], 'bid': 5.36}]",35161,1669830372768,yogurt no spoon,luckycharms,4.19,5.36,1.17,yogurt no spoon,58,61,61,True,u,35737,576,1669830373344,576,HRV,HRV_0063,2022-11-30 17:48:16
35,"[{'imgObject': {}, 'id': 'baked potato', 'src': '/static/foodstim60/baked potato.jpg', 'key': 'u', 'origWidth': 409, 'origHeight': 410, 'width': 409, 'height': 410, 'widthPercent': 0.45, 'rescaleHeight': False, 'trialN': 35, 'loaded': True, 'loadedTime': 6955, 'positionName': 'LEFT', 'positionCoords': [246.68, 179], 'bid': 6.24}, {'imgObject': {}, 'id': 'burrito', 'src': '/static/foodstim60/burrito.jpg', 'key': 'i', 'origWidth': 410, 'origHeight': 410, 'width': 410, 'height': 410, 'widthPercent': 0.45, 'rescaleHeight': False, 'trialN': 35, 'loaded': True, 'loadedTime': 6331, 'positionName': 'RIGHT', 'positionCoords': [710.32, 179], 'bid': 6.03}]",35737,1669830373344,baked potato,burrito,6.24,6.03,-0.20999999999999996,baked potato,146,146,146,True,u,36390,653,1669830373997,653,HRV,HRV_0063,2022-11-30 17:48:16
36,"[{'imgObject': {}, 'id': 'hotdog w must', 'src': '/static/foodstim60/hotdog w must.jpg', 'key': 'u', 'origWidth': 409, 'origHeight': 409, 'width': 409, 'height': 409, 'widthPercent': 0.45, 'rescaleHeight': False, 'trialN': 36, 'loaded': True, 'loadedTime': 6769, 'positionName': 'LEFT', 'positionCoords': [246.68, 179.5], 'bid': 6.8500000000000005}, {'imgObject': {}, 'id': 'grilled chicken strips', 'src': '/static/foodstim60/grilled chicken strips.jpg', 'key': 'i', 'origWidth': 410, 'origHeight': 411, 'width': 410, 'height': 411, 'widthPercent': 0.45, 'rescaleHeight': False, 'trialN': 36, 'loaded': True, 'loadedTime': 7660, 'positionName': 'RIGHT', 'positionCoords': [710.32, 178.5], 'bid': 7.0600000000000005}]",36390,1669830373997,hotdog w must,grilled chicken strips,6.8500000000000005,7.0600000000000005,0.20999999999999996,grilled chicken strips,409,409,409,True,i,37303,913,1669830374910,913,HRV,HRV_0063,2022-11-30 17:48:16
37,"[{'imgObject': {}, 'id': 'blueberries', 'src': '/static/foodstim60/blueberries.jpg', 'key': 'u', 'origWidth': 411, 'origHeight': 411, 'width': 411, 'height': 411, 'widthPercent': 0.45, 'rescaleHeight': False, 'trialN': 37, 'loaded': True, 'loadedTime': 7244, 'positionName': 'LEFT', 'positionCoords': [244.68, 178.5], 'bid': 7.75}, {'imgObject': {}, 'id': 'pear', 'src': '/static/foodstim60/pear.jpg', 'key': 'i', 'origWidth': 411, 'origHeight': 410, 'width': 411, 'height': 410, 'widthPercent': 0.45, 'rescaleHeight': False, 'trialN': 37, 'loaded': True, 'loadedTime': 7675, 'positionName': 'RIGHT', 'positionCoords': [710.32, 179], 'bid': 7.13}]",37303,1669830374910,blueberries,pear,7.75,7.13,-0.6200000000000001,pear,308,308,308,True,i,38128,825,1669830375735,825,HRV,HRV_0063,2022-11-30 17:48:16
38,"[{'imgObject': {}, 'id': 'rigatoni', 'src': '/static/foodstim60/rigatoni.jpg', 'key': 'u', 'origWidth': 411, 'origHeight': 411, 'width': 411, 'height': 411, 'widthPercent': 0.45, 'rescaleHeight': False, 'trialN': 38, 'loaded': True, 'loadedTime': 7691, 'positionName': 'LEFT', 'positionCoords': [244.68, 178.5], 'bid': 4.76}, {'imgObject': {}, 'id': 'blackbeanswithrice', 'src': '/static/foodstim60/blackbeanswithrice.jpg', 'key': 'i', 'origWidth': 410, 'origHeight': 410, 'width': 410, 'height': 410, 'widthPercent': 0.45, 'rescaleHeight': False, 'trialN': 38, 'loaded': True, 'loadedTime': 7707, 'positionName': 'RIGHT', 'positionCoords': [710.32, 179], 'bid': 5.38}]",38128,1669830375735,rigatoni,blackbeanswithrice,4.76,5.38,0.6200000000000001,blackbeanswithrice,343,343,343,True,i,38989,861,1669830376596,861,HRV,HRV_0063,2022-11-30 17:48:16
39,"[{'imgObject': {}, 'id': 'Grapes', 'src': '/static/foodstim60/Grapes.jpg', 'key': 'u', 'origWidth': 411, 'origHeight': 411, 'width': 411, 'height': 411, 'widthPercent': 0.45, 'rescaleHeight': False, 'trialN': 39, 'loaded': True, 'loadedTime': 7259, 'positionName': 'LEFT', 'positionCoords': [244.68, 178.5], 'bid': 6.71}, {'imgObject': {}, 'id': 'corn cob', 'src': '/static/foodstim60/corn cob.jpg', 'key': 'i', 'origWidth': 411, 'origHeight': 411, 'width': 411, 'height': 411, 'widthPercent': 0.45, 'rescaleHeight': False, 'trialN': 39, 'loaded': True, 'loadedTime': 7107, 'positionName': 'RIGHT', 'positionCoords': [710.32, 178.5], 'bid': 5.05}]",38989,1669830376596,Grapes,corn cob,6.71,5.05,-1.6600000000000001,corn cob,393,393,393,True,i,39911,922,1669830377518,922,HRV,HRV_0063,2022-11-30 17:48:16
40,"[{'imgObject': {}, 'id': 'apple slices', 'src': '/static/foodstim60/apple slices.jpg', 'key': 'u', 'origWidth': 409, 'origHeight': 410, 'width': 409, 'height': 410, 'widthPercent': 0.45, 'rescaleHeight': False, 'trialN': 40, 'loaded': True, 'loadedTime': 7139, 'positionName': 'LEFT', 'positionCoords': [246.68, 179], 'bid': 6.36}, {'imgObject': {}, 'id': 'edamame', 'src': '/static/foodstim60/edamame.jpg', 'key': 'i', 'origWidth': 409, 'origHeight': 410, 'width': 409, 'height': 410, 'widthPercent': 0.45, 'rescaleHeight': False, 'trialN': 40, 'loaded': True, 'loadedTime': 6300, 'positionName': 'RIGHT', 'positionCoords': [710.32, 179], 'bid': 6.47}]",39911,1669830377518,apple slices,edamame,6.36,6.47,0.10999999999999943,apple slices,15,29,29,True,u,40448,537,1669830378055,537,HRV,HRV_0063,2022-11-30 17:48:16
41,"[{'imgObject': {}, 'id': 'shreddedwheatwithmilk', 'src': '/static/foodstim60/shreddedwheatwithmilk.jpg', 'key': 'u', 'origWidth': 410, 'origHeight': 410, 'width': 410, 'height': 410, 'widthPercent': 0.45, 'rescaleHeight': False, 'trialN': 41, 'loaded': True, 'loadedTime': 7336, 'positionName': 'LEFT', 'positionCoords': [245.68, 179], 'bid': 7.63}, {'imgObject': {}, 'id': 'fried eggs', 'src': '/static/foodstim60/fried eggs.jpg', 'key': 'i', 'origWidth': 410, 'origHeight': 410, 'width': 410, 'height': 410, 'widthPercent': 0.45, 'rescaleHeight': False, 'trialN': 41, 'loaded': True, 'loadedTime': 7738, 'positionName': 'RIGHT', 'positionCoords': [710.32, 179], 'bid': 7.38}]",40448,1669830378055,shreddedwheatwithmilk,fried eggs,7.63,7.38,-0.25,shreddedwheatwithmilk,430,430,430,True,u,41430,982,1669830379037,982,HRV,HRV_0063,2022-11-30 17:48:16
42,"[{'imgObject': {}, 'id': 'froot loops w milk', 'src': '/static/foodstim60/froot loops w milk.jpg', 'key': 'u', 'origWidth': 410, 'origHeight': 410, 'width': 410, 'height': 410, 'widthPercent': 0.45, 'rescaleHeight': False, 'trialN': 42, 'loaded': True, 'loadedTime': 7325, 'positionName': 'LEFT', 'positionCoords': [245.68, 179], 'bid': 4.66}, {'imgObject': {}, 'id': 'bagel and cc', 'src': '/static/foodstim60/bagel and cc.jpg', 'key': 'i', 'origWidth': 410, 'origHeight': 410, 'width': 410, 'height': 410, 'widthPercent': 0.45, 'rescaleHeight': False, 'trialN': 42, 'loaded': True, 'loadedTime': 7441, 'positionName': 'RIGHT', 'positionCoords': [710.32, 179], 'bid': 4.5}]",41430,1669830379037,froot loops w milk,bagel and cc,4.66,4.5,-0.16000000000000014,froot loops w milk,792,792,792,True,u,42739,1309,1669830380346,1309,HRV,HRV_0063,2022-11-30 17:48:16
43,"[{'imgObject': {}, 'id': 'cherries', 'src': '/static/foodstim60/cherries.jpg', 'key': 'u', 'origWidth': 410, 'origHeight': 411, 'width': 410, 'height': 411, 'widthPercent': 0.45, 'rescaleHeight': False, 'trialN': 43, 'loaded': True, 'loadedTime': 7456, 'positionName': 'LEFT', 'positionCoords': [245.68, 178.5], 'bid': 4.59}, {'imgObject': {}, 'id': 'avocado', 'src': '/static/foodstim60/avocado.jpg', 'key': 'i', 'origWidth': 409, 'origHeight': 409, 'width': 409, 'height': 409, 'widthPercent': 0.45, 'rescaleHeight': False, 'trialN': 43, 'loaded': True, 'loadedTime': 7425, 'positionName': 'RIGHT', 'positionCoords': [710.32, 179.5], 'bid': 5.33}]",42739,1669830380346,cherries,avocado,4.59,5.33,0.7400000000000002,avocado,311,311,311,True,i,43550,811,1669830381157,811,HRV,HRV_0063,2022-11-30 17:48:16
44,"[{'imgObject': {}, 'id': 'raisin bran w milk', 'src': '/static/foodstim60/raisin bran w milk.jpg', 'key': 'u', 'origWidth': 411, 'origHeight': 411, 'width': 411, 'height': 411, 'widthPercent': 0.45, 'rescaleHeight': False, 'trialN': 44, 'loaded': True, 'loadedTime': 7756, 'positionName': 'LEFT', 'positionCoords': [244.68, 178.5], 'bid': 7.26}, {'imgObject': {}, 'id': 'tacos', 'src': '/static/foodstim60/tacos.jpg', 'key': 'i', 'origWidth': 411, 'origHeight': 411, 'width': 411, 'height': 411, 'widthPercent': 0.45, 'rescaleHeight': False, 'trialN': 44, 'loaded': True, 'loadedTime': 7488, 'positionName': 'RIGHT', 'positionCoords': [710.32, 178.5], 'bid': 8.33}]",43551,1669830381158,raisin bran w milk,tacos,7.26,8.33,1.0700000000000003,raisin bran w milk,328,328,328,True,u,44384,833,1669830381991,833,HRV,HRV_0063,2022-11-30 17:48:16
45,"[{'imgObject': {}, 'id': 'strawberries', 'src': '/static/foodstim60/strawberries.jpg', 'key': 'u', 'origWidth': 410, 'origHeight': 410, 'width': 410, 'height': 410, 'widthPercent': 0.45, 'rescaleHeight': False, 'trialN': 45, 'loaded': True, 'loadedTime': 7769, 'positionName': 'LEFT', 'positionCoords': [245.68, 179], 'bid': 6.01}, {'imgObject': {}, 'id': 'tacos', 'src': '/static/foodstim60/tacos.jpg', 'key': 'i', 'origWidth': 411, 'origHeight': 411, 'width': 411, 'height': 411, 'widthPercent': 0.45, 'rescaleHeight': False, 'trialN': 45, 'loaded': True, 'loadedTime': 7503, 'positionName': 'RIGHT', 'positionCoords': [710.32, 178.5], 'bid': 8.33}]",44384,1669830381991,strawberries,tacos,6.01,8.33,2.3200000000000003,tacos,291,306,306,True,i,45191,807,1669830382798,807,HRV,HRV_0063,2022-11-30 17:48:16
46,"[{'imgObject': {}, 'id': 'burger', 'src': '/static/foodstim60/burger.jpg', 'key': 'u', 'origWidth': 409, 'origHeight': 409, 'width': 409, 'height': 409, 'widthPercent': 0.45, 'rescaleHeight': False, 'trialN': 46, 'loaded': True, 'loadedTime': 7212, 'positionName': 'LEFT', 'positionCoords': [246.68, 179.5], 'bid': 7.66}, {'imgObject': {}, 'id': 'veggieswithdip', 'src': '/static/foodstim60/veggieswithdip.jpg', 'key': 'i', 'origWidth': 409, 'origHeight': 409, 'width': 409, 'height': 409, 'widthPercent': 0.45, 'rescaleHeight': False, 'trialN': 46, 'loaded': True, 'loadedTime': 6816, 'positionName': 'RIGHT', 'positionCoords': [710.32, 179.5], 'bid': 6.63}]",45191,1669830382798,burger,veggieswithdip,7.66,6.63,-1.0300000000000002,burger,282,282,282,True,u,45983,792,1669830383590,792,HRV,HRV_0063,2022-11-30 17:48:16
47,"[{'imgObject': {}, 'id': 'salmon', 'src': '/static/foodstim60/salmon.jpg', 'key': 'u', 'origWidth': 410, 'origHeight': 409, 'width': 410, 'height': 409, 'widthPercent': 0.45, 'rescaleHeight': False, 'trialN': 47, 'loaded': True, 'loadedTime': 6660, 'positionName': 'LEFT', 'positionCoords': [245.68, 179.5], 'bid': 8.33}, {'imgObject': {}, 'id': 'blueberries', 'src': '/static/foodstim60/blueberries.jpg', 'key': 'i', 'origWidth': 411, 'origHeight': 411, 'width': 411, 'height': 411, 'widthPercent': 0.45, 'rescaleHeight': False, 'trialN': 47, 'loaded': True, 'loadedTime': 7244, 'positionName': 'RIGHT', 'positionCoords': [710.32, 178.5], 'bid': 7.75}]",45983,1669830383590,salmon,blueberries,8.33,7.75,-0.5800000000000001,blueberries,204,204,204,True,i,46709,726,1669830384316,726,HRV,HRV_0063,2022-11-30 17:48:16
48,"[{'imgObject': {}, 'id': 'Tribe humus pita', 'src': '/static/foodstim60/Tribe humus pita.jpg', 'key': 'u', 'origWidth': 411, 'origHeight': 411, 'width': 411, 'height': 411, 'widthPercent': 0.45, 'rescaleHeight': False, 'trialN': 48, 'loaded': True, 'loadedTime': 7092, 'positionName': 'LEFT', 'positionCoords': [244.68, 178.5], 'bid': 5.98}, {'imgObject': {}, 'id': 'rigatoni and sauce', 'src': '/static/foodstim60/rigatoni and sauce.jpg', 'key': 'i', 'origWidth': 410, 'origHeight': 411, 'width': 410, 'height': 411, 'widthPercent': 0.45, 'rescaleHeight': False, 'trialN': 48, 'loaded': True, 'loadedTime': 7769, 'positionName': 'RIGHT', 'positionCoords': [710.32, 178.5], 'bid': 6.2}]",46709,1669830384316,Tribe humus pita,rigatoni and sauce,5.98,6.2,0.21999999999999975,rigatoni and sauce,201,201,201,True,i,47424,715,1669830385031,715,HRV,HRV_0063,2022-11-30 17:48:16
49,"[{'imgObject': {}, 'id': 'cheerios', 'src': '/static/foodstim60/cheerios.jpg', 'key': 'u', 'origWidth': 409, 'origHeight': 410, 'width': 409, 'height': 410, 'widthPercent': 0.45, 'rescaleHeight': False, 'trialN': 49, 'loaded': True, 'loadedTime': 7769, 'positionName': 'LEFT', 'positionCoords': [246.68, 179], 'bid': 5.45}, {'imgObject': {}, 'id': 'blackbeanswithrice', 'src': '/static/foodstim60/blackbeanswithrice.jpg', 'key': 'i', 'origWidth': 410, 'origHeight': 410, 'width': 410, 'height': 410, 'widthPercent': 0.45, 'rescaleHeight': False, 'trialN': 49, 'loaded': True, 'loadedTime': 7707, 'positionName': 'RIGHT', 'positionCoords': [710.32, 179], 'bid': 5.38}]",47426,1669830385033,cheerios,blackbeanswithrice,5.45,5.38,-0.07000000000000028,blackbeanswithrice,179,179,179,True,i,48114,688,1669830385721,688,HRV,HRV_0063,2022-11-30 17:48:16
50,"[{'imgObject': {}, 'id': 'chickenfingers', 'src': '/static/foodstim60/chickenfingers.jpg', 'key': 'u', 'origWidth': 410, 'origHeight': 410, 'width': 410, 'height': 410, 'widthPercent': 0.45, 'rescaleHeight': False, 'trialN': 50, 'loaded': True, 'loadedTime': 7154, 'positionName': 'LEFT', 'positionCoords': [245.68, 179], 'bid': 6.3}, {'imgObject': {}, 'id': 'froot loops w milk', 'src': '/static/foodstim60/froot loops w milk.jpg', 'key': 'i', 'origWidth': 410, 'origHeight': 410, 'width': 410, 'height': 410, 'widthPercent': 0.45, 'rescaleHeight': False, 'trialN': 50, 'loaded': True, 'loadedTime': 7329, 'positionName': 'RIGHT', 'positionCoords': [710.32, 179], 'bid': 4.66}]",48116,1669830385723,chickenfingers,froot loops w milk,6.3,4.66,-1.6399999999999997,froot loops w milk,316,316,316,True,i,48948,832,1669830386555,832,HRV,HRV_0063,2022-11-30 17:48:16
51,"[{'imgObject': {}, 'id': 'corn cob', 'src': '/static/foodstim60/corn cob.jpg', 'key': 'u', 'origWidth': 411, 'origHeight': 411, 'width': 411, 'height': 411, 'widthPercent': 0.45, 'rescaleHeight': False, 'trialN': 51, 'loaded': True, 'loadedTime': 7100, 'positionName': 'LEFT', 'positionCoords': [244.68, 178.5], 'bid': 5.05}, {'imgObject': {}, 'id': 'turkeysandwich', 'src': '/static/foodstim60/turkeysandwich.jpg', 'key': 'i', 'origWidth': 409, 'origHeight': 409, 'width': 409, 'height': 409, 'widthPercent': 0.45, 'rescaleHeight': False, 'trialN': 51, 'loaded': True, 'loadedTime': 7043, 'positionName': 'RIGHT', 'positionCoords': [710.32, 179.5], 'bid': 5.2700000000000005}]",48948,1669830386555,corn cob,turkeysandwich,5.05,5.2700000000000005,0.22000000000000064,turkeysandwich,397,398,398,True,i,49859,911,1669830387466,911,HRV,HRV_0063,2022-11-30 17:48:16
52,"[{'imgObject': {}, 'id': 'fruitsalad', 'src': '/static/foodstim60/fruitsalad.jpg', 'key': 'u', 'origWidth': 410, 'origHeight': 410, 'width': 410, 'height': 410, 'widthPercent': 0.45, 'rescaleHeight': False, 'trialN': 52, 'loaded': True, 'loadedTime': 6613, 'positionName': 'LEFT', 'positionCoords': [245.68, 179], 'bid': 7.29}, {'imgObject': {}, 'id': 'cherry tomato', 'src': '/static/foodstim60/cherry tomato.jpg', 'key': 'i', 'origWidth': 410, 'origHeight': 410, 'width': 410, 'height': 410, 'widthPercent': 0.45, 'rescaleHeight': False, 'trialN': 52, 'loaded': True, 'loadedTime': 7186, 'positionName': 'RIGHT', 'positionCoords': [710.32, 179], 'bid': 7.28}]",49859,1669830387466,fruitsalad,cherry tomato,7.29,7.28,-0.009999999999999787,cherry tomato,426,426,426,True,i,50800,941,1669830388407,941,HRV,HRV_0063,2022-11-30 17:48:16
53,"[{'imgObject': {}, 'id': 'raisin bran w milk', 'src': '/static/foodstim60/raisin bran w milk.jpg', 'key': 'u', 'origWidth': 411, 'origHeight': 411, 'width': 411, 'height': 411, 'widthPercent': 0.45, 'rescaleHeight': False, 'trialN': 53, 'loaded': True, 'loadedTime': 7756, 'positionName': 'LEFT', 'positionCoords': [244.68, 178.5], 'bid': 7.26}, {'imgObject': {}, 'id': 'lox', 'src': '/static/foodstim60/lox.jpg', 'key': 'i', 'origWidth': 410, 'origHeight': 411, 'width': 410, 'height': 411, 'widthPercent': 0.45, 'rescaleHeight': False, 'trialN': 53, 'loaded': True, 'loadedTime': 7785, 'positionName': 'RIGHT', 'positionCoords': [710.32, 178.5], 'bid': 5.45}]",50801,1669830388408,raisin bran w milk,lox,7.26,5.45,-1.8099999999999996,raisin bran w milk,231,231,231,True,u,51592,791,1669830389199,791,HRV,HRV_0063,2022-11-30 17:48:16
54,"[{'imgObject': {}, 'id': 'bagel plain', 'src': '/static/foodstim60/bagel plain.jpg', 'key': 'u', 'origWidth': 410, 'origHeight': 410, 'width': 410, 'height': 410, 'widthPercent': 0.45, 'rescaleHeight': False, 'trialN': 54, 'loaded': True, 'loadedTime': 7599, 'positionName': 'LEFT', 'positionCoords': [245.68, 179], 'bid': 4.89}, {'imgObject': {}, 'id': 'cantaloupe', 'src': '/static/foodstim60/cantaloupe.jpg', 'key': 'i', 'origWidth': 409, 'origHeight': 409, 'width': 409, 'height': 409, 'widthPercent': 0.45, 'rescaleHeight': False, 'trialN': 54, 'loaded': True, 'loadedTime': 7011, 'positionName': 'RIGHT', 'positionCoords': [710.32, 179.5], 'bid': 5.84}]",51592,1669830389199,bagel plain,cantaloupe,4.89,5.84,0.9500000000000002,bagel plain,398,414,414,True,u,52519,927,1669830390126,927,HRV,HRV_0063,2022-11-30 17:48:16
55,"[{'imgObject': {}, 'id': 'pear', 'src': '/static/foodstim60/pear.jpg', 'key': 'u', 'origWidth': 411, 'origHeight': 410, 'width': 411, 'height': 410, 'widthPercent': 0.45, 'rescaleHeight': False, 'trialN': 55, 'loaded': True, 'loadedTime': 7675, 'positionName': 'LEFT', 'positionCoords': [244.68, 179], 'bid': 7.13}, {'imgObject': {}, 'id': 'banana', 'src': '/static/foodstim60/banana.jpg', 'key': 'i', 'origWidth': 410, 'origHeight': 410, 'width': 410, 'height': 410, 'widthPercent': 0.45, 'rescaleHeight': False, 'trialN': 55, 'loaded': True, 'loadedTime': 7785, 'positionName': 'RIGHT', 'positionCoords': [710.32, 179], 'bid': 7.19}]",52519,1669830390126,pear,banana,7.13,7.19,0.0600000000000005,pear,209,210,210,True,u,53240,721,1669830390847,721,HRV,HRV_0063,2022-11-30 17:48:16
56,"[{'imgObject': {}, 'id': 'hashbrowns', 'src': '/static/foodstim60/hashbrowns.jpg', 'key': 'u', 'origWidth': 411, 'origHeight': 410, 'width': 411, 'height': 410, 'widthPercent': 0.45, 'rescaleHeight': False, 'trialN': 56, 'loaded': True, 'loadedTime': 6914, 'positionName': 'LEFT', 'positionCoords': [244.68, 179], 'bid': 4.76}, {'imgObject': {}, 'id': 'lox', 'src': '/static/foodstim60/lox.jpg', 'key': 'i', 'origWidth': 410, 'origHeight': 411, 'width': 410, 'height': 411, 'widthPercent': 0.45, 'rescaleHeight': False, 'trialN': 56, 'loaded': True, 'loadedTime': 7785, 'positionName': 'RIGHT', 'positionCoords': [710.32, 178.5], 'bid': 5.45}]",53240,1669830390847,hashbrowns,lox,4.76,5.45,0.6900000000000004,hashbrowns,347,347,347,True,u,54097,857,1669830391704,857,HRV,HRV_0063,2022-11-30 17:48:16
57,"[{'imgObject': {}, 'id': 'ice cream sundae 002', 'src': '/static/foodstim60/ice cream sundae 002.jpg', 'key': 'u', 'origWidth': 409, 'origHeight': 409, 'width': 409, 'height': 409, 'widthPercent': 0.45, 'rescaleHeight': False, 'trialN': 57, 'loaded': True, 'loadedTime': 7658, 'positionName': 'LEFT', 'positionCoords': [246.68, 179.5], 'bid': 4.28}, {'imgObject': {}, 'id': 'blackbeanswithrice', 'src': '/static/foodstim60/blackbeanswithrice.jpg', 'key': 'i', 'origWidth': 410, 'origHeight': 410, 'width': 410, 'height': 410, 'widthPercent': 0.45, 'rescaleHeight': False, 'trialN': 57, 'loaded': True, 'loadedTime': 7707, 'positionName': 'RIGHT', 'positionCoords': [710.32, 179], 'bid': 5.38}]",54098,1669830391705,ice cream sundae 002,blackbeanswithrice,4.28,5.38,1.0999999999999996,ice cream sundae 002,416,432,432,True,u,55056,958,1669830392663,958,HRV,HRV_0063,2022-11-30 17:48:16
58,"[{'imgObject': {}, 'id': 'sweetpotato', 'src': '/static/foodstim60/sweetpotato.jpg', 'key': 'u', 'origWidth': 410, 'origHeight': 410, 'width': 410, 'height': 410, 'widthPercent': 0.45, 'rescaleHeight': False, 'trialN': 58, 'loaded': True, 'loadedTime': 7801, 'positionName': 'LEFT', 'positionCoords': [245.68, 179], 'bid': 4.47}, {'imgObject': {}, 'id': 'ice cream sundae 002', 'src': '/static/foodstim60/ice cream sundae 002.jpg', 'key': 'i', 'origWidth': 409, 'origHeight': 409, 'width': 409, 'height': 409, 'widthPercent': 0.45, 'rescaleHeight': False, 'trialN': 58, 'loaded': True, 'loadedTime': 7651, 'positionName': 'RIGHT', 'positionCoords': [710.32, 179.5], 'bid': 4.28}]",55056,1669830392663,sweetpotato,ice cream sundae 002,4.47,4.28,-0.1899999999999995,sweetpotato,322,322,322,True,u,55886,830,1669830393493,830,HRV,HRV_0063,2022-11-30 17:48:16
59,"[{'imgObject': {}, 'id': 'burger', 'src': '/static/foodstim60/burger.jpg', 'key': 'u', 'origWidth': 409, 'origHeight': 409, 'width': 409, 'height': 409, 'widthPercent': 0.45, 'rescaleHeight': False, 'trialN': 59, 'loaded': True, 'loadedTime': 7212, 'positionName': 'LEFT', 'positionCoords': [246.68, 179.5], 'bid': 7.66}, {'imgObject': {}, 'id': 'olives', 'src': '/static/foodstim60/olives.jpg', 'key': 'i', 'origWidth': 410, 'origHeight': 410, 'width': 410, 'height': 410, 'widthPercent': 0.45, 'rescaleHeight': False, 'trialN': 59, 'loaded': True, 'loadedTime': 6933, 'positionName': 'RIGHT', 'positionCoords': [710.32, 179], 'bid': 5.96}]",55887,1669830393494,burger,olives,7.66,5.96,-1.7000000000000002,olives,98,100,100,True,i,56498,611,1669830394105,611,HRV,HRV_0063,2022-11-30 17:48:16
60,"[{'imgObject': {}, 'id': 'steak', 'src': '/static/foodstim60/steak.jpg', 'key': 'u', 'origWidth': 410, 'origHeight': 410, 'width': 410, 'height': 410, 'widthPercent': 0.45, 'rescaleHeight': False, 'trialN': 60, 'loaded': True, 'loadedTime': 7011, 'positionName': 'LEFT', 'positionCoords': [245.68, 179], 'bid': 6.74}, {'imgObject': {}, 'id': 'cocktailshrimp', 'src': '/static/foodstim60/cocktailshrimp.jpg', 'key': 'i', 'origWidth': 410, 'origHeight': 410, 'width': 410, 'height': 410, 'widthPercent': 0.45, 'rescaleHeight': False, 'trialN': 60, 'loaded': True, 'loadedTime': 6081, 'positionName': 'RIGHT', 'positionCoords': [710.32, 179], 'bid': 6.66}]",56500,1669830394107,steak,cocktailshrimp,6.74,6.66,-0.08000000000000007,steak,176,176,176,True,u,57182,682,1669830394789,682,HRV,HRV_0063,2022-11-30 17:48:16
61,"[{'imgObject': {}, 'id': 'eggsalad', 'src': '/static/foodstim60/eggsalad.jpg', 'key': 'u', 'origWidth': 410, 'origHeight': 409, 'width': 410, 'height': 409, 'widthPercent': 0.45, 'rescaleHeight': False, 'trialN': 61, 'loaded': True, 'loadedTime': 6887, 'positionName': 'LEFT', 'positionCoords': [245.68, 179.5], 'bid': 4.95}, {'imgObject': {}, 'id': 'granola w milk', 'src': '/static/foodstim60/granola w milk.jpg', 'key': 'i', 'origWidth': 410, 'origHeight': 410, 'width': 410, 'height': 410, 'widthPercent': 0.45, 'rescaleHeight': False, 'trialN': 61, 'loaded': True, 'loadedTime': 6175, 'positionName': 'RIGHT', 'positionCoords': [710.32, 179], 'bid': 5.04}]",57183,1669830394790,eggsalad,granola w milk,4.95,5.04,0.08999999999999986,granola w milk,164,164,164,True,i,57870,687,1669830395477,687,HRV,HRV_0063,2022-11-30 17:48:16
62,"[{'imgObject': {}, 'id': 'yogurt no spoon', 'src': '/static/foodstim60/yogurt no spoon.jpg', 'key': 'u', 'origWidth': 411, 'origHeight': 410, 'width': 411, 'height': 410, 'widthPercent': 0.45, 'rescaleHeight': False, 'trialN': 62, 'loaded': True, 'loadedTime': 7540, 'positionName': 'LEFT', 'positionCoords': [244.68, 179], 'bid': 4.19}, {'imgObject': {}, 'id': 'rigatoni', 'src': '/static/foodstim60/rigatoni.jpg', 'key': 'i', 'origWidth': 411, 'origHeight': 411, 'width': 411, 'height': 411, 'widthPercent': 0.45, 'rescaleHeight': False, 'trialN': 62, 'loaded': True, 'loadedTime': 7691, 'positionName': 'RIGHT', 'positionCoords': [710.32, 178.5], 'bid': 4.76}]",57870,1669830395477,yogurt no spoon,rigatoni,4.19,4.76,0.5699999999999994,yogurt no spoon,206,206,206,True,u,58596,726,1669830396203,726,HRV,HRV_0063,2022-11-30 17:48:16
63,"[{'imgObject': {}, 'id': 'olives', 'src': '/static/foodstim60/olives.jpg', 'key': 'u', 'origWidth': 410, 'origHeight': 410, 'width': 410, 'height': 410, 'widthPercent': 0.45, 'rescaleHeight': False, 'trialN': 63, 'loaded': True, 'loadedTime': 6938, 'positionName': 'LEFT', 'positionCoords': [245.68, 179], 'bid': 5.96}, {'imgObject': {}, 'id': 'cantaloupe', 'src': '/static/foodstim60/cantaloupe.jpg', 'key': 'i', 'origWidth': 409, 'origHeight': 409, 'width': 409, 'height': 409, 'widthPercent': 0.45, 'rescaleHeight': False, 'trialN': 63, 'loaded': True, 'loadedTime': 7011, 'positionName': 'RIGHT', 'positionCoords': [710.32, 179.5], 'bid': 5.84}]",58597,1669830396204,olives,cantaloupe,5.96,5.84,-0.1200000000000001,cantaloupe,124,124,124,True,i,59247,650,1669830396854,650,HRV,HRV_0063,2022-11-30 17:48:16
64,"[{'imgObject': {}, 'id': 'roastedpotatoes', 'src': '/static/foodstim60/roastedpotatoes.jpg', 'key': 'u', 'origWidth': 409, 'origHeight': 410, 'width': 409, 'height': 410, 'widthPercent': 0.45, 'rescaleHeight': False, 'trialN': 64, 'loaded': True, 'loadedTime': 6472, 'positionName': 'LEFT', 'positionCoords': [246.68, 179], 'bid': 5.83}, {'imgObject': {}, 'id': 'rigatoni', 'src': '/static/foodstim60/rigatoni.jpg', 'key': 'i', 'origWidth': 411, 'origHeight': 411, 'width': 411, 'height': 411, 'widthPercent': 0.45, 'rescaleHeight': False, 'trialN': 64, 'loaded': True, 'loadedTime': 7691, 'positionName': 'RIGHT', 'positionCoords': [710.32, 178.5], 'bid': 4.76}]",59248,1669830396855,roastedpotatoes,rigatoni,5.83,4.76,-1.0700000000000003,roastedpotatoes,112,113,113,True,u,59863,615,1669830397470,615,HRV,HRV_0063,2022-11-30 17:48:16
65,"[{'imgObject': {}, 'id': 'Tribe humus pita', 'src': '/static/foodstim60/Tribe humus pita.jpg', 'key': 'u', 'origWidth': 411, 'origHeight': 411, 'width': 411, 'height': 411, 'widthPercent': 0.45, 'rescaleHeight': False, 'trialN': 65, 'loaded': True, 'loadedTime': 7058, 'positionName': 'LEFT', 'positionCoords': [244.68, 178.5], 'bid': 5.98}, {'imgObject': {}, 'id': 'corn cob', 'src': '/static/foodstim60/corn cob.jpg', 'key': 'i', 'origWidth': 411, 'origHeight': 411, 'width': 411, 'height': 411, 'widthPercent': 0.45, 'rescaleHeight': False, 'trialN': 65, 'loaded': True, 'loadedTime': 7107, 'positionName': 'RIGHT', 'positionCoords': [710.32, 178.5], 'bid': 5.05}]",59863,1669830397470,Tribe humus pita,corn cob,5.98,5.05,-0.9300000000000006,corn cob,168,168,168,True,i,60547,684,1669830398154,684,HRV,HRV_0063,2022-11-30 17:48:16
66,"[{'imgObject': {}, 'id': 'banana', 'src': '/static/foodstim60/banana.jpg', 'key': 'u', 'origWidth': 410, 'origHeight': 410, 'width': 410, 'height': 410, 'widthPercent': 0.45, 'rescaleHeight': False, 'trialN': 66, 'loaded': True, 'loadedTime': 7785, 'positionName': 'LEFT', 'positionCoords': [245.68, 179], 'bid': 7.19}, {'imgObject': {}, 'id': 'cocktailshrimp', 'src': '/static/foodstim60/cocktailshrimp.jpg', 'key': 'i', 'origWidth': 410, 'origHeight': 410, 'width': 410, 'height': 410, 'widthPercent': 0.45, 'rescaleHeight': False, 'trialN': 66, 'loaded': True, 'loadedTime': 6066, 'positionName': 'RIGHT', 'positionCoords': [710.32, 179], 'bid': 6.66}]",60547,1669830398154,banana,cocktailshrimp,7.19,6.66,-0.5300000000000002,banana,60,62,61,True,u,61112,565,1669830398719,565,HRV,HRV_0063,2022-11-30 17:48:16
67,"[{'imgObject': {}, 'id': 'chicken nuggets2', 'src': '/static/foodstim60/chicken nuggets2.jpg', 'key': 'u', 'origWidth': 410, 'origHeight': 409, 'width': 410, 'height': 409, 'widthPercent': 0.45, 'rescaleHeight': False, 'trialN': 67, 'loaded': True, 'loadedTime': 7583, 'positionName': 'LEFT', 'positionCoords': [245.68, 179.5], 'bid': 6.18}, {'imgObject': {}, 'id': 'banana', 'src': '/static/foodstim60/banana.jpg', 'key': 'i', 'origWidth': 410, 'origHeight': 410, 'width': 410, 'height': 410, 'widthPercent': 0.45, 'rescaleHeight': False, 'trialN': 67, 'loaded': True, 'loadedTime': 7785, 'positionName': 'RIGHT', 'positionCoords': [710.32, 179], 'bid': 7.19}]",61113,1669830398720,chicken nuggets2,banana,6.18,7.19,1.0100000000000007,banana,134,134,134,True,i,61757,644,1669830399364,644,HRV,HRV_0063,2022-11-30 17:48:16
68,"[{'imgObject': {}, 'id': 'raisin bran w milk', 'src': '/static/foodstim60/raisin bran w milk.jpg', 'key': 'u', 'origWidth': 411, 'origHeight': 411, 'width': 411, 'height': 411, 'widthPercent': 0.45, 'rescaleHeight': False, 'trialN': 68, 'loaded': True, 'loadedTime': 7738, 'positionName': 'LEFT', 'positionCoords': [244.68, 178.5], 'bid': 7.26}, {'imgObject': {}, 'id': 'rigatoni and sauce', 'src': '/static/foodstim60/rigatoni and sauce.jpg', 'key': 'i', 'origWidth': 410, 'origHeight': 411, 'width': 410, 'height': 411, 'widthPercent': 0.45, 'rescaleHeight': False, 'trialN': 68, 'loaded': True, 'loadedTime': 7769, 'positionName': 'RIGHT', 'positionCoords': [710.32, 178.5], 'bid': 6.2}]",61759,1669830399366,raisin bran w milk,rigatoni and sauce,7.26,6.2,-1.0599999999999996,rigatoni and sauce,98,100,100,True,i,62366,607,1669830399973,607,HRV,HRV_0063,2022-11-30 17:48:16
69,"[{'imgObject': {}, 'id': 'seaweed', 'src': '/static/foodstim60/seaweed.jpg', 'key': 'u', 'origWidth': 410, 'origHeight': 410, 'width': 410, 'height': 410, 'widthPercent': 0.45, 'rescaleHeight': False, 'trialN': 69, 'loaded': True, 'loadedTime': 6222, 'positionName': 'LEFT', 'positionCoords': [245.68, 179], 'bid': 7.66}, {'imgObject': {}, 'id': 'burger', 'src': '/static/foodstim60/burger.jpg', 'key': 'i', 'origWidth': 409, 'origHeight': 409, 'width': 409, 'height': 409, 'widthPercent': 0.45, 'rescaleHeight': False, 'trialN': 69, 'loaded': True, 'loadedTime': 7212, 'positionName': 'RIGHT', 'positionCoords': [710.32, 179.5], 'bid': 7.66}]",62366,1669830399973,seaweed,burger,7.66,7.66,0.0,burger,181,183,183,True,i,63050,684,1669830400657,684,HRV,HRV_0063,2022-11-30 17:48:16
70,"[{'imgObject': {}, 'id': 'shreddedwheatwithmilk', 'src': '/static/foodstim60/shreddedwheatwithmilk.jpg', 'key': 'u', 'origWidth': 410, 'origHeight': 410, 'width': 410, 'height': 410, 'widthPercent': 0.45, 'rescaleHeight': False, 'trialN': 70, 'loaded': True, 'loadedTime': 7341, 'positionName': 'LEFT', 'positionCoords': [245.68, 179], 'bid': 7.63}, {'imgObject': {}, 'id': 'burger', 'src': '/static/foodstim60/burger.jpg', 'key': 'i', 'origWidth': 409, 'origHeight': 409, 'width': 409, 'height': 409, 'widthPercent': 0.45, 'rescaleHeight': False, 'trialN': 70, 'loaded': True, 'loadedTime': 7212, 'positionName': 'RIGHT', 'positionCoords': [710.32, 179.5], 'bid': 7.66}]",63050,1669830400657,shreddedwheatwithmilk,burger,7.63,7.66,0.03000000000000025,shreddedwheatwithmilk,275,275,275,True,u,63833,783,1669830401440,783,HRV,HRV_0063,2022-11-30 17:48:16
71,"[{'imgObject': {}, 'id': 'mashed potato', 'src': '/static/foodstim60/mashed potato.jpg', 'key': 'u', 'origWidth': 409, 'origHeight': 409, 'width': 409, 'height': 409, 'widthPercent': 0.45, 'rescaleHeight': False, 'trialN': 71, 'loaded': True, 'loadedTime': 7347, 'positionName': 'LEFT', 'positionCoords': [246.68, 179.5], 'bid': 4.1}, {'imgObject': {}, 'id': 'eggsalad', 'src': '/static/foodstim60/eggsalad.jpg', 'key': 'i', 'origWidth': 410, 'origHeight': 409, 'width': 410, 'height': 409, 'widthPercent': 0.45, 'rescaleHeight': False, 'trialN': 71, 'loaded': True, 'loadedTime': 6882, 'positionName': 'RIGHT', 'positionCoords': [710.32, 179.5], 'bid': 4.95}]",63838,1669830401445,mashed potato,eggsalad,4.1,4.95,0.8500000000000005,mashed potato,212,212,212,True,u,64556,718,1669830402163,718,HRV,HRV_0063,2022-11-30 17:48:16
72,"[{'imgObject': {}, 'id': 'apple slices', 'src': '/static/foodstim60/apple slices.jpg', 'key': 'u', 'origWidth': 409, 'origHeight': 410, 'width': 409, 'height': 410, 'widthPercent': 0.45, 'rescaleHeight': False, 'trialN': 72, 'loaded': True, 'loadedTime': 7154, 'positionName': 'LEFT', 'positionCoords': [246.68, 179], 'bid': 6.36}, {'imgObject': {}, 'id': 'rigatoni', 'src': '/static/foodstim60/rigatoni.jpg', 'key': 'i', 'origWidth': 411, 'origHeight': 411, 'width': 411, 'height': 411, 'widthPercent': 0.45, 'rescaleHeight': False, 'trialN': 72, 'loaded': True, 'loadedTime': 7691, 'positionName': 'RIGHT', 'positionCoords': [710.32, 178.5], 'bid': 4.76}]",64557,1669830402164,apple slices,rigatoni,6.36,4.76,-1.6000000000000005,rigatoni,53,54,54,True,i,65157,600,1669830402764,600,HRV,HRV_0063,2022-11-30 17:48:16
73,"[{'imgObject': {}, 'id': 'avocado', 'src': '/static/foodstim60/avocado.jpg', 'key': 'u', 'origWidth': 409, 'origHeight': 409, 'width': 409, 'height': 409, 'widthPercent': 0.45, 'rescaleHeight': False, 'trialN': 73, 'loaded': True, 'loadedTime': 7413, 'positionName': 'LEFT', 'positionCoords': [246.68, 179.5], 'bid': 5.33}, {'imgObject': {}, 'id': 'grilled chicken strips', 'src': '/static/foodstim60/grilled chicken strips.jpg', 'key': 'i', 'origWidth': 410, 'origHeight': 411, 'width': 410, 'height': 411, 'widthPercent': 0.45, 'rescaleHeight': False, 'trialN': 73, 'loaded': True, 'loadedTime': 7660, 'positionName': 'RIGHT', 'positionCoords': [710.32, 178.5], 'bid': 7.0600000000000005}]",65157,1669830402764,avocado,grilled chicken strips,5.33,7.0600000000000005,1.7300000000000004,avocado,62,62,62,True,u,65738,581,1669830403345,581,HRV,HRV_0063,2022-11-30 17:48:16
74,"[{'imgObject': {}, 'id': 'blackbeanswithrice', 'src': '/static/foodstim60/blackbeanswithrice.jpg', 'key': 'u', 'origWidth': 410, 'origHeight': 410, 'width': 410, 'height': 410, 'widthPercent': 0.45, 'rescaleHeight': False, 'trialN': 74, 'loaded': True, 'loadedTime': 7707, 'positionName': 'LEFT', 'positionCoords': [245.68, 179], 'bid': 5.38}, {'imgObject': {}, 'id': 'omelette', 'src': '/static/foodstim60/omelette.jpg', 'key': 'i', 'origWidth': 410, 'origHeight': 409, 'width': 410, 'height': 409, 'widthPercent': 0.45, 'rescaleHeight': False, 'trialN': 74, 'loaded': True, 'loadedTime': 6550, 'positionName': 'RIGHT', 'positionCoords': [710.32, 179.5], 'bid': 5.83}]",65739,1669830403346,blackbeanswithrice,omelette,5.38,5.83,0.4500000000000002,omelette,180,181,181,True,i,66427,688,1669830404034,688,HRV,HRV_0063,2022-11-30 17:48:16
75,"[{'imgObject': {}, 'id': 'mango', 'src': '/static/foodstim60/mango.jpg', 'key': 'u', 'origWidth': 411, 'origHeight': 411, 'width': 411, 'height': 411, 'widthPercent': 0.45, 'rescaleHeight': False, 'trialN': 75, 'loaded': True, 'loadedTime': 7519, 'positionName': 'LEFT', 'positionCoords': [244.68, 178.5], 'bid': 6.17}, {'imgObject': {}, 'id': 'pear', 'src': '/static/foodstim60/pear.jpg', 'key': 'i', 'origWidth': 411, 'origHeight': 410, 'width': 411, 'height': 410, 'widthPercent': 0.45, 'rescaleHeight': False, 'trialN': 75, 'loaded': True, 'loadedTime': 7675, 'positionName': 'RIGHT', 'positionCoords': [710.32, 179], 'bid': 7.13}]",66429,1669830404036,mango,pear,6.17,7.13,0.96,mango,182,182,182,True,u,67128,699,1669830404735,699,HRV,HRV_0063,2022-11-30 17:48:16
76,"[{'imgObject': {}, 'id': 'grilled chicken strips', 'src': '/static/foodstim60/grilled chicken strips.jpg', 'key': 'u', 'origWidth': 410, 'origHeight': 411, 'width': 410, 'height': 411, 'widthPercent': 0.45, 'rescaleHeight': False, 'trialN': 76, 'loaded': True, 'loadedTime': 7660, 'positionName': 'LEFT', 'positionCoords': [245.68, 178.5], 'bid': 7.0600000000000005}, {'imgObject': {}, 'id': 'burger', 'src': '/static/foodstim60/burger.jpg', 'key': 'i', 'origWidth': 409, 'origHeight': 409, 'width': 409, 'height': 409, 'widthPercent': 0.45, 'rescaleHeight': False, 'trialN': 76, 'loaded': True, 'loadedTime': 7212, 'positionName': 'RIGHT', 'positionCoords': [710.32, 179.5], 'bid': 7.66}]",67128,1669830404735,grilled chicken strips,burger,7.0600000000000005,7.66,0.5999999999999996,burger,96,97,97,True,i,67737,609,1669830405344,609,HRV,HRV_0063,2022-11-30 17:48:16
77,"[{'imgObject': {}, 'id': 'mashed potato', 'src': '/static/foodstim60/mashed potato.jpg', 'key': 'u', 'origWidth': 409, 'origHeight': 409, 'width': 409, 'height': 409, 'widthPercent': 0.45, 'rescaleHeight': False, 'trialN': 77, 'loaded': True, 'loadedTime': 7347, 'positionName': 'LEFT', 'positionCoords': [246.68, 179.5], 'bid': 4.1}, {'imgObject': {}, 'id': 'froot loops w milk', 'src': '/static/foodstim60/froot loops w milk.jpg', 'key': 'i', 'origWidth': 410, 'origHeight': 410, 'width': 410, 'height': 410, 'widthPercent': 0.45, 'rescaleHeight': False, 'trialN': 77, 'loaded': True, 'loadedTime': 7316, 'positionName': 'RIGHT', 'positionCoords': [710.32, 179], 'bid': 4.66}]",67738,1669830405345,mashed potato,froot loops w milk,4.1,4.66,0.5600000000000005,mashed potato,218,218,218,True,u,68484,746,1669830406091,746,HRV,HRV_0063,2022-11-30 17:48:16
78,"[{'imgObject': {}, 'id': 'blueberries', 'src': '/static/foodstim60/blueberries.jpg', 'key': 'u', 'origWidth': 411, 'origHeight': 411, 'width': 411, 'height': 411, 'widthPercent': 0.45, 'rescaleHeight': False, 'trialN': 78, 'loaded': True, 'loadedTime': 7244, 'positionName': 'LEFT', 'positionCoords': [244.68, 178.5], 'bid': 7.75}, {'imgObject': {}, 'id': 'cocktailshrimp', 'src': '/static/foodstim60/cocktailshrimp.jpg', 'key': 'i', 'origWidth': 410, 'origHeight': 410, 'width': 410, 'height': 410, 'widthPercent': 0.45, 'rescaleHeight': False, 'trialN': 78, 'loaded': True, 'loadedTime': 6066, 'positionName': 'RIGHT', 'positionCoords': [710.32, 179], 'bid': 6.66}]",68485,1669830406092,blueberries,cocktailshrimp,7.75,6.66,-1.0899999999999999,cocktailshrimp,47,48,48,True,i,69049,564,1669830406656,564,HRV,HRV_0063,2022-11-30 17:48:16
79,"[{'imgObject': {}, 'id': 'cantaloupe', 'src': '/static/foodstim60/cantaloupe.jpg', 'key': 'u', 'origWidth': 409, 'origHeight': 409, 'width': 409, 'height': 409, 'widthPercent': 0.45, 'rescaleHeight': False, 'trialN': 79, 'loaded': True, 'loadedTime': 6996, 'positionName': 'LEFT', 'positionCoords': [246.68, 179.5], 'bid': 5.84}, {'imgObject': {}, 'id': 'turkey sandwich', 'src': '/static/foodstim60/turkey sandwich.jpg', 'key': 'i', 'origWidth': 409, 'origHeight': 409, 'width': 409, 'height': 409, 'widthPercent': 0.45, 'rescaleHeight': False, 'trialN': 79, 'loaded': True, 'loadedTime': 7228, 'positionName': 'RIGHT', 'positionCoords': [710.32, 179.5], 'bid': 5.98}]",69049,1669830406656,cantaloupe,turkey sandwich,5.84,5.98,0.14000000000000057,turkey sandwich,458,462,462,True,i,70028,979,1669830407635,979,HRV,HRV_0063,2022-11-30 17:48:16
80,"[{'imgObject': {}, 'id': 'mashed potato', 'src': '/static/foodstim60/mashed potato.jpg', 'key': 'u', 'origWidth': 409, 'origHeight': 409, 'width': 409, 'height': 409, 'widthPercent': 0.45, 'rescaleHeight': False, 'trialN': 80, 'loaded': True, 'loadedTime': 7365, 'positionName': 'LEFT', 'positionCoords': [246.68, 179.5], 'bid': 4.1}, {'imgObject': {}, 'id': 'mac & cheese', 'src': '/static/foodstim60/mac & cheese.jpg', 'key': 'i', 'origWidth': 410, 'origHeight': 410, 'width': 410, 'height': 410, 'widthPercent': 0.45, 'rescaleHeight': False, 'trialN': 80, 'loaded': True, 'loadedTime': 7630, 'positionName': 'RIGHT', 'positionCoords': [710.32, 179], 'bid': 6.08}]",70028,1669830407635,mashed potato,mac & cheese,4.1,6.08,1.9800000000000004,mac & cheese,303,303,303,True,i,70847,819,1669830408454,819,HRV,HRV_0063,2022-11-30 17:48:16
81,"[{'imgObject': {}, 'id': 'bagel and cc', 'src': '/static/foodstim60/bagel and cc.jpg', 'key': 'u', 'origWidth': 410, 'origHeight': 410, 'width': 410, 'height': 410, 'widthPercent': 0.45, 'rescaleHeight': False, 'trialN': 81, 'loaded': True, 'loadedTime': 7441, 'positionName': 'LEFT', 'positionCoords': [245.68, 179], 'bid': 4.5}, {'imgObject': {}, 'id': 'popsicles', 'src': '/static/foodstim60/popsicles.jpg', 'key': 'i', 'origWidth': 410, 'origHeight': 410, 'width': 410, 'height': 410, 'widthPercent': 0.45, 'rescaleHeight': False, 'trialN': 81, 'loaded': True, 'loadedTime': 7801, 'positionName': 'RIGHT', 'positionCoords': [710.32, 179], 'bid': 5.32}]",70847,1669830408454,bagel and cc,popsicles,4.5,5.32,0.8200000000000003,popsicles,406,406,406,True,i,71767,920,1669830409374,920,HRV,HRV_0063,2022-11-30 17:48:16
82,"[{'imgObject': {}, 'id': 'mango', 'src': '/static/foodstim60/mango.jpg', 'key': 'u', 'origWidth': 411, 'origHeight': 411, 'width': 411, 'height': 411, 'widthPercent': 0.45, 'rescaleHeight': False, 'trialN': 82, 'loaded': True, 'loadedTime': 7503, 'positionName': 'LEFT', 'positionCoords': [244.68, 178.5], 'bid': 6.17}, {'imgObject': {}, 'id': 'kiwi', 'src': '/static/foodstim60/kiwi.jpg', 'key': 'i', 'origWidth': 410, 'origHeight': 410, 'width': 410, 'height': 410, 'widthPercent': 0.45, 'rescaleHeight': False, 'trialN': 82, 'loaded': True, 'loadedTime': 7432, 'positionName': 'RIGHT', 'positionCoords': [710.32, 179], 'bid': 5.5200000000000005}]",71767,1669830409374,mango,kiwi,6.17,5.5200000000000005,-0.6499999999999995,mango,9,15,15,True,u,72287,520,1669830409894,520,HRV,HRV_0063,2022-11-30 17:48:16
83,"[{'imgObject': {}, 'id': 'fried eggs', 'src': '/static/foodstim60/fried eggs.jpg', 'key': 'u', 'origWidth': 410, 'origHeight': 410, 'width': 410, 'height': 410, 'widthPercent': 0.45, 'rescaleHeight': False, 'trialN': 83, 'loaded': True, 'loadedTime': 7738, 'positionName': 'LEFT', 'positionCoords': [245.68, 179], 'bid': 7.38}, {'imgObject': {}, 'id': 'seaweed', 'src': '/static/foodstim60/seaweed.jpg', 'key': 'i', 'origWidth': 410, 'origHeight': 410, 'width': 410, 'height': 410, 'widthPercent': 0.45, 'rescaleHeight': False, 'trialN': 83, 'loaded': True, 'loadedTime': 6191, 'positionName': 'RIGHT', 'positionCoords': [710.32, 179], 'bid': 7.66}]",72287,1669830409894,fried eggs,seaweed,7.38,7.66,0.28000000000000025,fried eggs,389,390,390,True,u,73191,904,1669830410798,904,HRV,HRV_0063,2022-11-30 17:48:16
84,"[{'imgObject': {}, 'id': 'eggsalad', 'src': '/static/foodstim60/eggsalad.jpg', 'key': 'u', 'origWidth': 410, 'origHeight': 409, 'width': 410, 'height': 409, 'widthPercent': 0.45, 'rescaleHeight': False, 'trialN': 84, 'loaded': True, 'loadedTime': 6888, 'positionName': 'LEFT', 'positionCoords': [245.68, 179.5], 'bid': 4.95}, {'imgObject': {}, 'id': 'bagel and cc', 'src': '/static/foodstim60/bagel and cc.jpg', 'key': 'i', 'origWidth': 410, 'origHeight': 410, 'width': 410, 'height': 410, 'widthPercent': 0.45, 'rescaleHeight': False, 'trialN': 84, 'loaded': True, 'loadedTime': 7456, 'positionName': 'RIGHT', 'positionCoords': [710.32, 179], 'bid': 4.5}]",73191,1669830410798,eggsalad,bagel and cc,4.95,4.5,-0.4500000000000002,bagel and cc,374,374,374,True,i,74113,922,1669830411720,922,HRV,HRV_0063,2022-11-30 17:48:16
85,"[{'imgObject': {}, 'id': 'cherry tomato', 'src': '/static/foodstim60/cherry tomato.jpg', 'key': 'u', 'origWidth': 410, 'origHeight': 410, 'width': 410, 'height': 410, 'widthPercent': 0.45, 'rescaleHeight': False, 'trialN': 85, 'loaded': True, 'loadedTime': 7212, 'positionName': 'LEFT', 'positionCoords': [245.68, 179], 'bid': 7.28}, {'imgObject': {}, 'id': 'orange slices', 'src': '/static/foodstim60/orange slices.jpg', 'key': 'i', 'origWidth': 409, 'origHeight': 410, 'width': 409, 'height': 410, 'widthPercent': 0.45, 'rescaleHeight': False, 'trialN': 85, 'loaded': True, 'loadedTime': 6394, 'positionName': 'RIGHT', 'positionCoords': [710.32, 179], 'bid': 8.83}]",74119,1669830411726,cherry tomato,orange slices,7.28,8.83,1.5499999999999998,cherry tomato,446,446,446,True,u,75081,962,1669830412688,962,HRV,HRV_0063,2022-11-30 17:48:16
86,"[{'imgObject': {}, 'id': 'raisin bran w milk', 'src': '/static/foodstim60/raisin bran w milk.jpg', 'key': 'u', 'origWidth': 411, 'origHeight': 411, 'width': 411, 'height': 411, 'widthPercent': 0.45, 'rescaleHeight': False, 'trialN': 86, 'loaded': True, 'loadedTime': 7756, 'positionName': 'LEFT', 'positionCoords': [244.68, 178.5], 'bid': 7.26}, {'imgObject': {}, 'id': 'seaweed', 'src': '/static/foodstim60/seaweed.jpg', 'key': 'i', 'origWidth': 410, 'origHeight': 410, 'width': 410, 'height': 410, 'widthPercent': 0.45, 'rescaleHeight': False, 'trialN': 86, 'loaded': True, 'loadedTime': 6253, 'positionName': 'RIGHT', 'positionCoords': [710.32, 179], 'bid': 7.66}]",75082,1669830412689,raisin bran w milk,seaweed,7.26,7.66,0.40000000000000036,raisin bran w milk,22,24,24,True,u,75607,525,1669830413214,525,HRV,HRV_0063,2022-11-30 17:48:16
87,"[{'imgObject': {}, 'id': 'rigatoni', 'src': '/static/foodstim60/rigatoni.jpg', 'key': 'u', 'origWidth': 411, 'origHeight': 411, 'width': 411, 'height': 411, 'widthPercent': 0.45, 'rescaleHeight': False, 'trialN': 87, 'loaded': True, 'loadedTime': 7691, 'positionName': 'LEFT', 'positionCoords': [244.68, 178.5], 'bid': 4.76}, {'imgObject': {}, 'id': 'cherries', 'src': '/static/foodstim60/cherries.jpg', 'key': 'i', 'origWidth': 410, 'origHeight': 411, 'width': 410, 'height': 411, 'widthPercent': 0.45, 'rescaleHeight': False, 'trialN': 87, 'loaded': True, 'loadedTime': 7456, 'positionName': 'RIGHT', 'positionCoords': [710.32, 178.5], 'bid': 4.59}]",75610,1669830413217,rigatoni,cherries,4.76,4.59,-0.16999999999999993,cherries,3,25,25,True,i,76145,535,1669830413752,535,HRV,HRV_0063,2022-11-30 17:48:16
88,"[{'imgObject': {}, 'id': 'blueberries', 'src': '/static/foodstim60/blueberries.jpg', 'key': 'u', 'origWidth': 411, 'origHeight': 411, 'width': 411, 'height': 411, 'widthPercent': 0.45, 'rescaleHeight': False, 'trialN': 88, 'loaded': True, 'loadedTime': 7228, 'positionName': 'LEFT', 'positionCoords': [244.68, 178.5], 'bid': 7.75}, {'imgObject': {}, 'id': 'salad w chicken', 'src': '/static/foodstim60/salad w chicken.jpg', 'key': 'i', 'origWidth': 411, 'origHeight': 411, 'width': 411, 'height': 411, 'widthPercent': 0.45, 'rescaleHeight': False, 'trialN': 88, 'loaded': True, 'loadedTime': 7801, 'positionName': 'RIGHT', 'positionCoords': [710.32, 178.5], 'bid': 7.29}]",76145,1669830413752,blueberries,salad w chicken,7.75,7.29,-0.45999999999999996,blueberries,402,402,402,True,u,77056,911,1669830414663,911,HRV,HRV_0063,2022-11-30 17:48:16
89,"[{'imgObject': {}, 'id': 'avocado', 'src': '/static/foodstim60/avocado.jpg', 'key': 'u', 'origWidth': 409, 'origHeight': 409, 'width': 409, 'height': 409, 'widthPercent': 0.45, 'rescaleHeight': False, 'trialN': 89, 'loaded': True, 'loadedTime': 7371, 'positionName': 'LEFT', 'positionCoords': [246.68, 179.5], 'bid': 5.33}, {'imgObject': {}, 'id': 'popsicles', 'src': '/static/foodstim60/popsicles.jpg', 'key': 'i', 'origWidth': 410, 'origHeight': 410, 'width': 410, 'height': 410, 'widthPercent': 0.45, 'rescaleHeight': False, 'trialN': 89, 'loaded': True, 'loadedTime': 7801, 'positionName': 'RIGHT', 'positionCoords': [710.32, 179], 'bid': 5.32}]",77056,1669830414663,avocado,popsicles,5.33,5.32,-0.009999999999999787,avocado,79,79,79,True,u,77644,588,1669830415251,588,HRV,HRV_0063,2022-11-30 17:48:16
90,"[{'imgObject': {}, 'id': 'chickenfingers', 'src': '/static/foodstim60/chickenfingers.jpg', 'key': 'u', 'origWidth': 410, 'origHeight': 410, 'width': 410, 'height': 410, 'widthPercent': 0.45, 'rescaleHeight': False, 'trialN': 90, 'loaded': True, 'loadedTime': 7186, 'positionName': 'LEFT', 'positionCoords': [245.68, 179], 'bid': 6.3}, {'imgObject': {}, 'id': 'Grapes', 'src': '/static/foodstim60/Grapes.jpg', 'key': 'i', 'origWidth': 411, 'origHeight': 411, 'width': 411, 'height': 411, 'widthPercent': 0.45, 'rescaleHeight': False, 'trialN': 90, 'loaded': True, 'loadedTime': 7290, 'positionName': 'RIGHT', 'positionCoords': [710.32, 178.5], 'bid': 6.71}]",81973,1669830419580,chickenfingers,Grapes,6.3,6.71,0.41000000000000014,Grapes,943,945,945,True,i,83432,1459,1669830421039,1459,HRV,HRV_0063,2022-11-30 17:48:16
91,"[{'imgObject': {}, 'id': 'apple slices', 'src': '/static/foodstim60/apple slices.jpg', 'key': 'u', 'origWidth': 409, 'origHeight': 410, 'width': 409, 'height': 410, 'widthPercent': 0.45, 'rescaleHeight': False, 'trialN': 91, 'loaded': True, 'loadedTime': 7139, 'positionName': 'LEFT', 'positionCoords': [246.68, 179], 'bid': 6.36}, {'imgObject': {}, 'id': 'fried eggs', 'src': '/static/foodstim60/fried eggs.jpg', 'key': 'i', 'origWidth': 410, 'origHeight': 410, 'width': 410, 'height': 410, 'widthPercent': 0.45, 'rescaleHeight': False, 'trialN': 91, 'loaded': True, 'loadedTime': 7738, 'positionName': 'RIGHT', 'positionCoords': [710.32, 179], 'bid': 7.38}]",83433,1669830421040,apple slices,fried eggs,6.36,7.38,1.0199999999999996,fried eggs,75,77,77,True,i,84019,586,1669830421626,586,HRV,HRV_0063,2022-11-30 17:48:16
92,"[{'imgObject': {}, 'id': 'cherry tomato', 'src': '/static/foodstim60/cherry tomato.jpg', 'key': 'u', 'origWidth': 410, 'origHeight': 410, 'width': 410, 'height': 410, 'widthPercent': 0.45, 'rescaleHeight': False, 'trialN': 92, 'loaded': True, 'loadedTime': 7212, 'positionName': 'LEFT', 'positionCoords': [245.68, 179], 'bid': 7.28}, {'imgObject': {}, 'id': 'cheerios', 'src': '/static/foodstim60/cheerios.jpg', 'key': 'i', 'origWidth': 409, 'origHeight': 410, 'width': 409, 'height': 410, 'widthPercent': 0.45, 'rescaleHeight': False, 'trialN': 92, 'loaded': True, 'loadedTime': 7769, 'positionName': 'RIGHT', 'positionCoords': [710.32, 179], 'bid': 5.45}]",84019,1669830421626,cherry tomato,cheerios,7.28,5.45,-1.83,cheerios,343,343,343,True,i,84881,862,1669830422488,862,HRV,HRV_0063,2022-11-30 17:48:16
93,"[{'imgObject': {}, 'id': 'froot loops w milk', 'src': '/static/foodstim60/froot loops w milk.jpg', 'key': 'u', 'origWidth': 410, 'origHeight': 410, 'width': 410, 'height': 410, 'widthPercent': 0.45, 'rescaleHeight': False, 'trialN': 93, 'loaded': True, 'loadedTime': 7321, 'positionName': 'LEFT', 'positionCoords': [245.68, 179], 'bid': 4.66}, {'imgObject': {}, 'id': 'rigatoni', 'src': '/static/foodstim60/rigatoni.jpg', 'key': 'i', 'origWidth': 411, 'origHeight': 411, 'width': 411, 'height': 411, 'widthPercent': 0.45, 'rescaleHeight': False, 'trialN': 93, 'loaded': True, 'loadedTime': 7691, 'positionName': 'RIGHT', 'positionCoords': [710.32, 178.5], 'bid': 4.76}]",84881,1669830422488,froot loops w milk,rigatoni,4.66,4.76,0.09999999999999964,rigatoni,279,279,279,True,i,85675,794,1669830423282,794,HRV,HRV_0063,2022-11-30 17:48:16
94,"[{'imgObject': {}, 'id': 'banana', 'src': '/static/foodstim60/banana.jpg', 'key': 'u', 'origWidth': 410, 'origHeight': 410, 'width': 410, 'height': 410, 'widthPercent': 0.45, 'rescaleHeight': False, 'trialN': 94, 'loaded': True, 'loadedTime': 7785, 'positionName': 'LEFT', 'positionCoords': [245.68, 179], 'bid': 7.19}, {'imgObject': {}, 'id': 'grilled chicken strips', 'src': '/static/foodstim60/grilled chicken strips.jpg', 'key': 'i', 'origWidth': 410, 'origHeight': 411, 'width': 410, 'height': 411, 'widthPercent': 0.45, 'rescaleHeight': False, 'trialN': 94, 'loaded': True, 'loadedTime': 7660, 'positionName': 'RIGHT', 'positionCoords': [710.32, 178.5], 'bid': 7.0600000000000005}]",85676,1669830423283,banana,grilled chicken strips,7.19,7.0600000000000005,-0.1299999999999999,grilled chicken strips,353,353,353,True,i,86535,859,1669830424142,859,HRV,HRV_0063,2022-11-30 17:48:16
95,"[{'imgObject': {}, 'id': 'steak', 'src': '/static/foodstim60/steak.jpg', 'key': 'u', 'origWidth': 410, 'origHeight': 410, 'width': 410, 'height': 410, 'widthPercent': 0.45, 'rescaleHeight': False, 'trialN': 95, 'loaded': True, 'loadedTime': 7027, 'positionName': 'LEFT', 'positionCoords': [245.68, 179], 'bid': 6.74}, {'imgObject': {}, 'id': 'Grapes', 'src': '/static/foodstim60/Grapes.jpg', 'key': 'i', 'origWidth': 411, 'origHeight': 411, 'width': 411, 'height': 411, 'widthPercent': 0.45, 'rescaleHeight': False, 'trialN': 95, 'loaded': True, 'loadedTime': 7259, 'positionName': 'RIGHT', 'positionCoords': [710.32, 178.5], 'bid': 6.71}]",86538,1669830424145,steak,Grapes,6.74,6.71,-0.03000000000000025,steak,482,482,482,True,u,87534,996,1669830425141,996,HRV,HRV_0063,2022-11-30 17:48:16
96,"[{'imgObject': {}, 'id': 'yogurt no spoon', 'src': '/static/foodstim60/yogurt no spoon.jpg', 'key': 'u', 'origWidth': 411, 'origHeight': 410, 'width': 411, 'height': 410, 'widthPercent': 0.45, 'rescaleHeight': False, 'trialN': 96, 'loaded': True, 'loadedTime': 7539, 'positionName': 'LEFT', 'positionCoords': [244.68, 179], 'bid': 4.19}, {'imgObject': {}, 'id': 'granola w milk', 'src': '/static/foodstim60/granola w milk.jpg', 'key': 'i', 'origWidth': 410, 'origHeight': 410, 'width': 410, 'height': 410, 'widthPercent': 0.45, 'rescaleHeight': False, 'trialN': 96, 'loaded': True, 'loadedTime': 6175, 'positionName': 'RIGHT', 'positionCoords': [710.32, 179], 'bid': 5.04}]",87534,1669830425141,yogurt no spoon,granola w milk,4.19,5.04,0.8499999999999996,yogurt no spoon,403,403,403,True,u,88452,918,1669830426059,918,HRV,HRV_0063,2022-11-30 17:48:16
97,"[{'imgObject': {}, 'id': 'turkeysandwich', 'src': '/static/foodstim60/turkeysandwich.jpg', 'key': 'u', 'origWidth': 409, 'origHeight': 409, 'width': 409, 'height': 409, 'widthPercent': 0.45, 'rescaleHeight': False, 'trialN': 97, 'loaded': True, 'loadedTime': 7043, 'positionName': 'LEFT', 'positionCoords': [246.68, 179.5], 'bid': 5.2700000000000005}, {'imgObject': {}, 'id': 'strawberries', 'src': '/static/foodstim60/strawberries.jpg', 'key': 'i', 'origWidth': 410, 'origHeight': 410, 'width': 410, 'height': 410, 'widthPercent': 0.45, 'rescaleHeight': False, 'trialN': 97, 'loaded': True, 'loadedTime': 7767, 'positionName': 'RIGHT', 'positionCoords': [710.32, 179], 'bid': 6.01}]",88452,1669830426059,turkeysandwich,strawberries,5.2700000000000005,6.01,0.7399999999999993,turkeysandwich,348,348,348,True,u,89316,864,1669830426923,864,HRV,HRV_0063,2022-11-30 17:48:16
98,"[{'imgObject': {}, 'id': 'sweetpotato', 'src': '/static/foodstim60/sweetpotato.jpg', 'key': 'u', 'origWidth': 410, 'origHeight': 410, 'width': 410, 'height': 410, 'widthPercent': 0.45, 'rescaleHeight': False, 'trialN': 98, 'loaded': True, 'loadedTime': 7785, 'positionName': 'LEFT', 'positionCoords': [245.68, 179], 'bid': 4.47}, {'imgObject': {}, 'id': 'lox', 'src': '/static/foodstim60/lox.jpg', 'key': 'i', 'origWidth': 410, 'origHeight': 411, 'width': 410, 'height': 411, 'widthPercent': 0.45, 'rescaleHeight': False, 'trialN': 98, 'loaded': True, 'loadedTime': 7785, 'positionName': 'RIGHT', 'positionCoords': [710.32, 178.5], 'bid': 5.45}]",89317,1669830426924,sweetpotato,lox,4.47,5.45,0.9800000000000004,sweetpotato,396,397,397,True,u,90221,904,1669830427828,904,HRV,HRV_0063,2022-11-30 17:48:16
99,"[{'imgObject': {}, 'id': 'luckycharms', 'src': '/static/foodstim60/luckycharms.jpg', 'key': 'u', 'origWidth': 410, 'origHeight': 409, 'width': 410, 'height': 409, 'widthPercent': 0.45, 'rescaleHeight': False, 'trialN': 99, 'loaded': True, 'loadedTime': 7290, 'positionName': 'LEFT', 'positionCoords': [245.68, 179.5], 'bid': 5.36}, {'imgObject': {}, 'id': 'pear', 'src': '/static/foodstim60/pear.jpg', 'key': 'i', 'origWidth': 411, 'origHeight': 410, 'width': 411, 'height': 410, 'widthPercent': 0.45, 'rescaleHeight': False, 'trialN': 99, 'loaded': True, 'loadedTime': 7675, 'positionName': 'RIGHT', 'positionCoords': [710.32, 179], 'bid': 7.13}]",90222,1669830427829,luckycharms,pear,5.36,7.13,1.7699999999999996,pear,284,284,284,True,i,91019,797,1669830428626,797,HRV,HRV_0063,2022-11-30 17:48:16
100,"[{'imgObject': {}, 'id': 'cherries', 'src': '/static/foodstim60/cherries.jpg', 'key': 'u', 'origWidth': 410, 'origHeight': 411, 'width': 410, 'height': 411, 'widthPercent': 0.45, 'rescaleHeight': False, 'trialN': 100, 'loaded': True, 'loadedTime': 7456, 'positionName': 'LEFT', 'positionCoords': [245.68, 178.5], 'bid': 4.59}, {'imgObject': {}, 'id': 'granola w milk', 'src': '/static/foodstim60/granola w milk.jpg', 'key': 'i', 'origWidth': 410, 'origHeight': 410, 'width': 410, 'height': 410, 'widthPercent': 0.45, 'rescaleHeight': False, 'trialN': 100, 'loaded': True, 'loadedTime': 6175, 'positionName': 'RIGHT', 'positionCoords': [710.32, 179], 'bid': 5.04}]",91019,1669830428626,cherries,granola w milk,4.59,5.04,0.4500000000000002,granola w milk,345,345,345,True,i,91893,874,1669830429500,874,HRV,HRV_0063,2022-11-30 17:48:16
101,"[{'imgObject': {}, 'id': 'orange slices', 'src': '/static/foodstim60/orange slices.jpg', 'key': 'u', 'origWidth': 409, 'origHeight': 410, 'width': 409, 'height': 410, 'widthPercent': 0.45, 'rescaleHeight': False, 'trialN': 101, 'loaded': True, 'loadedTime': 6394, 'positionName': 'LEFT', 'positionCoords': [246.68, 179], 'bid': 8.83}, {'imgObject': {}, 'id': 'salmon', 'src': '/static/foodstim60/salmon.jpg', 'key': 'i', 'origWidth': 410, 'origHeight': 409, 'width': 410, 'height': 409, 'widthPercent': 0.45, 'rescaleHeight': False, 'trialN': 101, 'loaded': True, 'loadedTime': 6660, 'positionName': 'RIGHT', 'positionCoords': [710.32, 179.5], 'bid': 8.33}]",91894,1669830429501,orange slices,salmon,8.83,8.33,-0.5,salmon,380,380,380,True,i,92784,890,1669830430391,890,HRV,HRV_0063,2022-11-30 17:48:16
102,"[{'imgObject': {}, 'id': 'chickenfingers', 'src': '/static/foodstim60/chickenfingers.jpg', 'key': 'u', 'origWidth': 410, 'origHeight': 410, 'width': 410, 'height': 410, 'widthPercent': 0.45, 'rescaleHeight': False, 'trialN': 102, 'loaded': True, 'loadedTime': 7154, 'positionName': 'LEFT', 'positionCoords': [245.68, 179], 'bid': 6.3}, {'imgObject': {}, 'id': 'fruitsalad', 'src': '/static/foodstim60/fruitsalad.jpg', 'key': 'i', 'origWidth': 410, 'origHeight': 410, 'width': 410, 'height': 410, 'widthPercent': 0.45, 'rescaleHeight': False, 'trialN': 102, 'loaded': True, 'loadedTime': 6566, 'positionName': 'RIGHT', 'positionCoords': [710.32, 179], 'bid': 7.29}]",92784,1669830430391,chickenfingers,fruitsalad,6.3,7.29,0.9900000000000002,chickenfingers,400,428,428,True,u,93723,939,1669830431330,939,HRV,HRV_0063,2022-11-30 17:48:16
103,"[{'imgObject': {}, 'id': 'bagel plain', 'src': '/static/foodstim60/bagel plain.jpg', 'key': 'u', 'origWidth': 410, 'origHeight': 410, 'width': 410, 'height': 410, 'widthPercent': 0.45, 'rescaleHeight': False, 'trialN': 103, 'loaded': True, 'loadedTime': 7599, 'positionName': 'LEFT', 'positionCoords': [245.68, 179], 'bid': 4.89}, {'imgObject': {}, 'id': 'cheerios', 'src': '/static/foodstim60/cheerios.jpg', 'key': 'i', 'origWidth': 409, 'origHeight': 410, 'width': 409, 'height': 410, 'widthPercent': 0.45, 'rescaleHeight': False, 'trialN': 103, 'loaded': True, 'loadedTime': 7769, 'positionName': 'RIGHT', 'positionCoords': [710.32, 179], 'bid': 5.45}]",93723,1669830431330,bagel plain,cheerios,4.89,5.45,0.5600000000000005,cheerios,21,22,22,True,i,94259,536,1669830431866,536,HRV,HRV_0063,2022-11-30 17:48:16
104,"[{'imgObject': {}, 'id': 'pear', 'src': '/static/foodstim60/pear.jpg', 'key': 'u', 'origWidth': 411, 'origHeight': 410, 'width': 411, 'height': 410, 'widthPercent': 0.45, 'rescaleHeight': False, 'trialN': 104, 'loaded': True, 'loadedTime': 7660, 'positionName': 'LEFT', 'positionCoords': [244.68, 179], 'bid': 7.13}, {'imgObject': {}, 'id': 'veggieswithdip', 'src': '/static/foodstim60/veggieswithdip.jpg', 'key': 'i', 'origWidth': 409, 'origHeight': 409, 'width': 409, 'height': 409, 'widthPercent': 0.45, 'rescaleHeight': False, 'trialN': 104, 'loaded': True, 'loadedTime': 6816, 'positionName': 'RIGHT', 'positionCoords': [710.32, 179.5], 'bid': 6.63}]",94260,1669830431867,pear,veggieswithdip,7.13,6.63,-0.5,pear,291,291,291,True,u,95068,808,1669830432675,808,HRV,HRV_0063,2022-11-30 17:48:16
105,"[{'imgObject': {}, 'id': 'sushi w_condiments', 'src': '/static/foodstim60/sushi w_condiments.jpg', 'key': 'u', 'origWidth': 410, 'origHeight': 410, 'width': 410, 'height': 410, 'widthPercent': 0.45, 'rescaleHeight': False, 'trialN': 105, 'loaded': True, 'loadedTime': 7123, 'positionName': 'LEFT', 'positionCoords': [245.68, 179], 'bid': 5.46}, {'imgObject': {}, 'id': 'cherries', 'src': '/static/foodstim60/cherries.jpg', 'key': 'i', 'origWidth': 410, 'origHeight': 411, 'width': 410, 'height': 411, 'widthPercent': 0.45, 'rescaleHeight': False, 'trialN': 105, 'loaded': True, 'loadedTime': 7456, 'positionName': 'RIGHT', 'positionCoords': [710.32, 178.5], 'bid': 4.59}]",95068,1669830432675,sushi w_condiments,cherries,5.46,4.59,-0.8700000000000001,sushi w_condiments,327,328,328,True,u,95912,844,1669830433519,844,HRV,HRV_0063,2022-11-30 17:48:16
106,"[{'imgObject': {}, 'id': 'corn cob', 'src': '/static/foodstim60/corn cob.jpg', 'key': 'u', 'origWidth': 411, 'origHeight': 411, 'width': 411, 'height': 411, 'widthPercent': 0.45, 'rescaleHeight': False, 'trialN': 106, 'loaded': True, 'loadedTime': 7107, 'positionName': 'LEFT', 'positionCoords': [244.68, 178.5], 'bid': 5.05}, {'imgObject': {}, 'id': 'lox', 'src': '/static/foodstim60/lox.jpg', 'key': 'i', 'origWidth': 410, 'origHeight': 411, 'width': 410, 'height': 411, 'widthPercent': 0.45, 'rescaleHeight': False, 'trialN': 106, 'loaded': True, 'loadedTime': 7785, 'positionName': 'RIGHT', 'positionCoords': [710.32, 178.5], 'bid': 5.45}]",95912,1669830433519,corn cob,lox,5.05,5.45,0.40000000000000036,corn cob,308,308,308,True,u,96737,825,1669830434344,825,HRV,HRV_0063,2022-11-30 17:48:16
107,"[{'imgObject': {}, 'id': 'strawberries', 'src': '/static/foodstim60/strawberries.jpg', 'key': 'u', 'origWidth': 410, 'origHeight': 410, 'width': 410, 'height': 410, 'widthPercent': 0.45, 'rescaleHeight': False, 'trialN': 107, 'loaded': True, 'loadedTime': 7769, 'positionName': 'LEFT', 'positionCoords': [245.68, 179], 'bid': 6.01}, {'imgObject': {}, 'id': 'mac & cheese', 'src': '/static/foodstim60/mac & cheese.jpg', 'key': 'i', 'origWidth': 410, 'origHeight': 410, 'width': 410, 'height': 410, 'widthPercent': 0.45, 'rescaleHeight': False, 'trialN': 107, 'loaded': True, 'loadedTime': 7614, 'positionName': 'RIGHT', 'positionCoords': [710.32, 179], 'bid': 6.08}]",96738,1669830434345,strawberries,mac & cheese,6.01,6.08,0.07000000000000028,strawberries,437,437,437,True,u,97692,954,1669830435299,954,HRV,HRV_0063,2022-11-30 17:48:16
108,"[{'imgObject': {}, 'id': 'blackbeanswithrice', 'src': '/static/foodstim60/blackbeanswithrice.jpg', 'key': 'u', 'origWidth': 410, 'origHeight': 410, 'width': 410, 'height': 410, 'widthPercent': 0.45, 'rescaleHeight': False, 'trialN': 108, 'loaded': True, 'loadedTime': 7691, 'positionName': 'LEFT', 'positionCoords': [245.68, 179], 'bid': 5.38}, {'imgObject': {}, 'id': 'banana', 'src': '/static/foodstim60/banana.jpg', 'key': 'i', 'origWidth': 410, 'origHeight': 410, 'width': 410, 'height': 410, 'widthPercent': 0.45, 'rescaleHeight': False, 'trialN': 108, 'loaded': True, 'loadedTime': 7785, 'positionName': 'RIGHT', 'positionCoords': [710.32, 179], 'bid': 7.19}]",97692,1669830435299,blackbeanswithrice,banana,5.38,7.19,1.8100000000000005,blackbeanswithrice,329,329,329,True,u,98533,841,1669830436140,841,HRV,HRV_0063,2022-11-30 17:48:16
109,"[{'imgObject': {}, 'id': 'cantaloupe', 'src': '/static/foodstim60/cantaloupe.jpg', 'key': 'u', 'origWidth': 409, 'origHeight': 409, 'width': 409, 'height': 409, 'widthPercent': 0.45, 'rescaleHeight': False, 'trialN': 109, 'loaded': True, 'loadedTime': 6996, 'positionName': 'LEFT', 'positionCoords': [246.68, 179.5], 'bid': 5.84}, {'imgObject': {}, 'id': 'mac & cheese', 'src': '/static/foodstim60/mac & cheese.jpg', 'key': 'i', 'origWidth': 410, 'origHeight': 410, 'width': 410, 'height': 410, 'widthPercent': 0.45, 'rescaleHeight': False, 'trialN': 109, 'loaded': True, 'loadedTime': 7630, 'positionName': 'RIGHT', 'positionCoords': [710.32, 179], 'bid': 6.08}]",98534,1669830436141,cantaloupe,mac & cheese,5.84,6.08,0.2400000000000002,cantaloupe,329,329,329,True,u,99379,845,1669830436986,845,HRV,HRV_0063,2022-11-30 17:48:16
110,"[{'imgObject': {}, 'id': 'turkeysandwich', 'src': '/static/foodstim60/turkeysandwich.jpg', 'key': 'u', 'origWidth': 409, 'origHeight': 409, 'width': 409, 'height': 409, 'widthPercent': 0.45, 'rescaleHeight': False, 'trialN': 110, 'loaded': True, 'loadedTime': 7043, 'positionName': 'LEFT', 'positionCoords': [246.68, 179.5], 'bid': 5.2700000000000005}, {'imgObject': {}, 'id': 'avocado', 'src': '/static/foodstim60/avocado.jpg', 'key': 'i', 'origWidth': 409, 'origHeight': 409, 'width': 409, 'height': 409, 'widthPercent': 0.45, 'rescaleHeight': False, 'trialN': 110, 'loaded': True, 'loadedTime': 7424, 'positionName': 'RIGHT', 'positionCoords': [710.32, 179.5], 'bid': 5.33}]",99379,1669830436986,turkeysandwich,avocado,5.2700000000000005,5.33,0.05999999999999961,turkeysandwich,313,313,313,True,u,100199,820,1669830437806,820,HRV,HRV_0063,2022-11-30 17:48:16
111,"[{'imgObject': {}, 'id': 'shreddedwheatwithmilk', 'src': '/static/foodstim60/shreddedwheatwithmilk.jpg', 'key': 'u', 'origWidth': 410, 'origHeight': 410, 'width': 410, 'height': 410, 'widthPercent': 0.45, 'rescaleHeight': False, 'trialN': 111, 'loaded': True, 'loadedTime': 7341, 'positionName': 'LEFT', 'positionCoords': [245.68, 179], 'bid': 7.63}, {'imgObject': {}, 'id': 'steak', 'src': '/static/foodstim60/steak.jpg', 'key': 'i', 'origWidth': 410, 'origHeight': 410, 'width': 410, 'height': 410, 'widthPercent': 0.45, 'rescaleHeight': False, 'trialN': 111, 'loaded': True, 'loadedTime': 7027, 'positionName': 'RIGHT', 'positionCoords': [710.32, 179], 'bid': 6.74}]",100200,1669830437807,shreddedwheatwithmilk,steak,7.63,6.74,-0.8899999999999997,steak,382,382,382,True,i,101087,887,1669830438694,887,HRV,HRV_0063,2022-11-30 17:48:16
112,"[{'imgObject': {}, 'id': 'edamame', 'src': '/static/foodstim60/edamame.jpg', 'key': 'u', 'origWidth': 409, 'origHeight': 410, 'width': 409, 'height': 410, 'widthPercent': 0.45, 'rescaleHeight': False, 'trialN': 112, 'loaded': True, 'loadedTime': 6300, 'positionName': 'LEFT', 'positionCoords': [246.68, 179], 'bid': 6.47}, {'imgObject': {}, 'id': 'burrito', 'src': '/static/foodstim60/burrito.jpg', 'key': 'i', 'origWidth': 410, 'origHeight': 410, 'width': 410, 'height': 410, 'widthPercent': 0.45, 'rescaleHeight': False, 'trialN': 112, 'loaded': True, 'loadedTime': 6331, 'positionName': 'RIGHT', 'positionCoords': [710.32, 179], 'bid': 6.03}]",101087,1669830438694,edamame,burrito,6.47,6.03,-0.4399999999999995,edamame,354,355,355,True,u,101943,856,1669830439550,856,HRV,HRV_0063,2022-11-30 17:48:16
113,"[{'imgObject': {}, 'id': 'veggieswithdip', 'src': '/static/foodstim60/veggieswithdip.jpg', 'key': 'u', 'origWidth': 409, 'origHeight': 409, 'width': 409, 'height': 409, 'widthPercent': 0.45, 'rescaleHeight': False, 'trialN': 113, 'loaded': True, 'loadedTime': 6831, 'positionName': 'LEFT', 'positionCoords': [246.68, 179.5], 'bid': 6.63}, {'imgObject': {}, 'id': 'Grapes', 'src': '/static/foodstim60/Grapes.jpg', 'key': 'i', 'origWidth': 411, 'origHeight': 411, 'width': 411, 'height': 411, 'widthPercent': 0.45, 'rescaleHeight': False, 'trialN': 113, 'loaded': True, 'loadedTime': 7290, 'positionName': 'RIGHT', 'positionCoords': [710.32, 178.5], 'bid': 6.71}]",101945,1669830439552,veggieswithdip,Grapes,6.63,6.71,0.08000000000000007,veggieswithdip,294,294,294,True,u,102753,808,1669830440360,808,HRV,HRV_0063,2022-11-30 17:48:16
114,"[{'imgObject': {}, 'id': 'roastedpotatoes', 'src': '/static/foodstim60/roastedpotatoes.jpg', 'key': 'u', 'origWidth': 409, 'origHeight': 410, 'width': 409, 'height': 410, 'widthPercent': 0.45, 'rescaleHeight': False, 'trialN': 114, 'loaded': True, 'loadedTime': 6456, 'positionName': 'LEFT', 'positionCoords': [246.68, 179], 'bid': 5.83}, {'imgObject': {}, 'id': 'luckycharms', 'src': '/static/foodstim60/luckycharms.jpg', 'key': 'i', 'origWidth': 410, 'origHeight': 409, 'width': 410, 'height': 409, 'widthPercent': 0.45, 'rescaleHeight': False, 'trialN': 114, 'loaded': True, 'loadedTime': 7305, 'positionName': 'RIGHT', 'positionCoords': [710.32, 179.5], 'bid': 5.36}]",102755,1669830440362,roastedpotatoes,luckycharms,5.83,5.36,-0.46999999999999975,roastedpotatoes,311,311,311,True,u,103577,822,1669830441184,822,HRV,HRV_0063,2022-11-30 17:48:16
115,"[{'imgObject': {}, 'id': 'eggs', 'src': '/static/foodstim60/eggs.jpg', 'key': 'u', 'origWidth': 409, 'origHeight': 409, 'width': 409, 'height': 409, 'widthPercent': 0.45, 'rescaleHeight': False, 'trialN': 115, 'loaded': True, 'loadedTime': 7259, 'positionName': 'LEFT', 'positionCoords': [246.68, 179.5], 'bid': 6.43}, {'imgObject': {}, 'id': 'strawberries', 'src': '/static/foodstim60/strawberries.jpg', 'key': 'i', 'origWidth': 410, 'origHeight': 410, 'width': 410, 'height': 410, 'widthPercent': 0.45, 'rescaleHeight': False, 'trialN': 115, 'loaded': True, 'loadedTime': 7769, 'positionName': 'RIGHT', 'positionCoords': [710.32, 179], 'bid': 6.01}]",103577,1669830441184,eggs,strawberries,6.43,6.01,-0.41999999999999993,eggs,328,330,330,True,u,104409,832,1669830442016,832,HRV,HRV_0063,2022-11-30 17:48:16
116,"[{'imgObject': {}, 'id': 'salad w chicken', 'src': '/static/foodstim60/salad w chicken.jpg', 'key': 'u', 'origWidth': 411, 'origHeight': 411, 'width': 411, 'height': 411, 'widthPercent': 0.45, 'rescaleHeight': False, 'trialN': 116, 'loaded': True, 'loadedTime': 7801, 'positionName': 'LEFT', 'positionCoords': [244.68, 178.5], 'bid': 7.29}, {'imgObject': {}, 'id': 'raisin bran w milk', 'src': '/static/foodstim60/raisin bran w milk.jpg', 'key': 'i', 'origWidth': 411, 'origHeight': 411, 'width': 411, 'height': 411, 'widthPercent': 0.45, 'rescaleHeight': False, 'trialN': 116, 'loaded': True, 'loadedTime': 7762, 'positionName': 'RIGHT', 'positionCoords': [710.32, 178.5], 'bid': 7.26}]",104410,1669830442017,salad w chicken,raisin bran w milk,7.29,7.26,-0.03000000000000025,salad w chicken,389,389,389,True,u,105304,894,1669830442911,894,HRV,HRV_0063,2022-11-30 17:48:16
117,"[{'imgObject': {}, 'id': 'salad w chicken', 'src': '/static/foodstim60/salad w chicken.jpg', 'key': 'u', 'origWidth': 411, 'origHeight': 411, 'width': 411, 'height': 411, 'widthPercent': 0.45, 'rescaleHeight': False, 'trialN': 117, 'loaded': True, 'loadedTime': 7801, 'positionName': 'LEFT', 'positionCoords': [244.68, 178.5], 'bid': 7.29}, {'imgObject': {}, 'id': 'baked potato', 'src': '/static/foodstim60/baked potato.jpg', 'key': 'i', 'origWidth': 409, 'origHeight': 410, 'width': 409, 'height': 410, 'widthPercent': 0.45, 'rescaleHeight': False, 'trialN': 117, 'loaded': True, 'loadedTime': 6957, 'positionName': 'RIGHT', 'positionCoords': [710.32, 179], 'bid': 6.24}]",105304,1669830442911,salad w chicken,baked potato,7.29,6.24,-1.0499999999999998,salad w chicken,309,309,309,True,u,106127,823,1669830443734,823,HRV,HRV_0063,2022-11-30 17:48:16
118,"[{'imgObject': {}, 'id': 'mashed potato', 'src': '/static/foodstim60/mashed potato.jpg', 'key': 'u', 'origWidth': 409, 'origHeight': 409, 'width': 409, 'height': 409, 'widthPercent': 0.45, 'rescaleHeight': False, 'trialN': 118, 'loaded': True, 'loadedTime': 7347, 'positionName': 'LEFT', 'positionCoords': [246.68, 179.5], 'bid': 4.1}, {'imgObject': {}, 'id': 'yogurt no spoon', 'src': '/static/foodstim60/yogurt no spoon.jpg', 'key': 'i', 'origWidth': 411, 'origHeight': 410, 'width': 411, 'height': 410, 'widthPercent': 0.45, 'rescaleHeight': False, 'trialN': 118, 'loaded': True, 'loadedTime': 7583, 'positionName': 'RIGHT', 'positionCoords': [710.32, 179], 'bid': 4.19}]",106127,1669830443734,mashed potato,yogurt no spoon,4.1,4.19,0.09000000000000075,mashed potato,470,470,470,True,u,107129,1002,1669830444736,1002,HRV,HRV_0063,2022-11-30 17:48:16
