success,trial_type,trial_index,time_elapsed,internal_node_id,Block,TrialNumber,TrialTime,trialTimeDiff,FPS_avg,FPS_med,FPS_mode,TrialDur,winResizeTime,rt,block,button_pressed,MotCoh,MotDir,ColCoh,Color,ChoiceKey,Choice,Accuracy,RT,nFrames,FPS,PPD,missTrial,missTrialMsg,onsetDelay,fullScreenExitTime,canvCenter,TrialType,Score,BlockTrial,stimulus,button_labels,exp,subjectId,date
True,fullscreen,0,4767,0.0-0.0,0.0,1.0,,,,,,,,,,,,,,,,,,,,,,,,,,,,,,,,HRV,HRV_0211,2022-11-30 19:07:14
,wl-check-fps,1,9757,0.0-1.0,0.0,2.0,"[5334.6, 5338.2, 5351.2, 5367.8, 5384.4, 5401.2, 5417.8, 5434.5, 5451.1, 5467.9, 5484.6, 5501.1, 5517.9, 5534.5, 5551.3, 5567.9, 5585.4, 5601.1, 5617.9, 5634.5, 5651.2, 5668, 5684.6, 5701.3, 5718, 5734.6, 5751.2, 5767.9, 5784.6, 5801.3, 5818, 5834.7, 5851.1, 5868, 5884.5, 5901.2, 5917.8, 5934.4, 5951.2, 5967.9, 5984.5, 6001.2, 6017.8, 6034.6, 6051.2, 6068, 6084.7, 6101.3, 6117.9, 6134.6, 6151.3, 6168, 6184.7, 6201.4, 6218, 6234.6, 6251.2, 6267.9, 6284.6, 6301.2, 6317.9, 6334.5, 6351.3, 6368, 6384.4, 6401, 6417.8, 6434.4, 6451.1, 6467.7, 6484.5, 6501.2, 6517.8, 6534.6, 6551.1, 6567.8, 6584.4, 6601.1, 6617.8, 6634.5, 6651.1, 6667.9, 6684.6, 6701.2, 6718, 6734.6, 6751.3, 6768, 6784.7, 6801.2, 6818, 6834.4, 6851.3, 6867.9, 6884.5, 6901.2, 6917.9, 6934.5, 6951.1, 6967.8, 6984.4, 7001.1, 7017.8, 7034.5, 7051, 7067.7, 7084.5, 7101, 7117.8, 7134.5, 7151.1, 7167.8, 7184.5, 7201.2, 7217.9, 7234.6, 7251.1, 7267.7, 7284.4, 7301.1, 7317.8, 7334.4, 7351, 7367.8, 7384.4, 7401, 7417.7, 7434.4, 7451.1, 7467.7, 7484.4, 7501.1, 7517.7, 7534.5, 7551.1, 7567.8, 7584.4, 7601.1, 7617.8, 7634.4, 7651.1, 7667.8, 7684.4, 7701.1, 7717.8, 7734.6, 7751.1, 7767.7, 7784.4, 7801.1, 7817.7, 7834.4, 7851.1, 7867.9, 7884.5, 7901, 7917.7, 7934.4, 7951.2, 7967.8, 7984.5, 8001.1, 8017.8, 8034.5, 8051.1, 8067.8, 8084.5, 8101, 8117.7, 8134.4, 8151.2, 8167.8, 8184.5, 8201.1, 8217.7, 8234.4, 8251, 8267.7, 8284.4, 8301.1, 8317.8, 8334.4, 8351.2, 8367.8, 8384.4, 8401, 8417.8, 8434.5, 8451.1, 8467.8, 8484.4, 8501.2, 8517.8, 8534.5, 8551.2, 8567.6, 8584.4, 8601.1, 8617.8, 8634.4, 8651, 8667.8, 8684.5, 8701.1, 8717.8, 8734.4, 8751.1, 8767.8, 8784.5, 8801.1, 8818, 8834.4, 8851.2, 8867.8, 8884.5, 8901.1, 8917.8, 8934.4, 8951.2, 8967.8, 8984.5, 9001.1, 9017.7, 9034.5, 9051.2, 9067.8, 9084.4, 9101, 9117.8, 9134.4, 9151.1, 9167.7, 9184.4, 9201.2, 9217.8, 9234.4, 9251.1, 9267.8, 9284.4, 9301.1, 9317.8, 9334.4, 9351.1, 9367.7, 9384.5, 9401.1, 9417.7, 9434.5, 9451.1, 9467.7, 9484.4, 9501.1, 9517.8, 9534.5, 9551.1, 9567.8, 9584.5, 9601.2, 9617.8, 9634.4, 9651.1, 9667.8, 9684.4, 9701, 9717.6, 9734.5, 9751, 9767.8, 9784.4, 9801.1, 9817.8, 9834.5, 9851, 9867.7, 9884.5, 9901, 9917.7, 9934.6, 9951.3, 9967.9, 9984.4, 10001.3, 10017.9, 10034.7, 10051.2, 10067.8, 10084.5, 10101.1, 10117.6, 10134.3, 10151.2, 10167.8, 10184.6, 10201.1, 10217.8, 10234.5, 10251.1, 10267.8, 10284.6, 10301.2]","[2.7, 3.6, 13, 16.6, 16.6, 16.8, 16.6, 16.7, 16.6, 16.8, 16.7, 16.5, 16.8, 16.6, 16.8, 16.6, 17.5, 15.7, 16.8, 16.6, 16.7, 16.8, 16.6, 16.7, 16.7, 16.6, 16.6, 16.7, 16.7, 16.7, 16.7, 16.7, 16.4, 16.9, 16.5, 16.7, 16.6, 16.6, 16.8, 16.7, 16.6, 16.7, 16.6, 16.8, 16.6, 16.8, 16.7, 16.6, 16.6, 16.7, 16.7, 16.7, 16.7, 16.7, 16.6, 16.6, 16.6, 16.7, 16.7, 16.6, 16.7, 16.6, 16.8, 16.7, 16.4, 16.6, 16.8, 16.6, 16.7, 16.6, 16.8, 16.7, 16.6, 16.8, 16.5, 16.7, 16.6, 16.7, 16.7, 16.7, 16.6, 16.8, 16.7, 16.6, 16.8, 16.6, 16.7, 16.7, 16.7, 16.5, 16.8, 16.4, 16.9, 16.6, 16.6, 16.7, 16.7, 16.6, 16.6, 16.7, 16.6, 16.7, 16.7, 16.7, 16.5, 16.7, 16.8, 16.5, 16.8, 16.7, 16.6, 16.7, 16.7, 16.7, 16.7, 16.7, 16.5, 16.6, 16.7, 16.7, 16.7, 16.6, 16.6, 16.8, 16.6, 16.6, 16.7, 16.7, 16.7, 16.6, 16.7, 16.7, 16.6, 16.8, 16.6, 16.7, 16.6, 16.7, 16.7, 16.6, 16.7, 16.7, 16.6, 16.7, 16.7, 16.8, 16.5, 16.6, 16.7, 16.7, 16.6, 16.7, 16.7, 16.8, 16.6, 16.5, 16.7, 16.7, 16.8, 16.6, 16.7, 16.6, 16.7, 16.7, 16.6, 16.7, 16.7, 16.5, 16.7, 16.7, 16.8, 16.6, 16.7, 16.6, 16.6, 16.7, 16.6, 16.7, 16.7, 16.7, 16.7, 16.6, 16.8, 16.6, 16.6, 16.6, 16.8, 16.7, 16.6, 16.7, 16.6, 16.8, 16.6, 16.7, 16.7, 16.4, 16.8, 16.7, 16.7, 16.6, 16.6, 16.8, 16.7, 16.6, 16.7, 16.6, 16.7, 16.7, 16.7, 16.6, 16.9, 16.4, 16.8, 16.6, 16.7, 16.6, 16.7, 16.6, 16.8, 16.6, 16.7, 16.6, 16.6, 16.8, 16.7, 16.6, 16.6, 16.6, 16.8, 16.6, 16.7, 16.6, 16.7, 16.8, 16.6, 16.6, 16.7, 16.7, 16.6, 16.7, 16.7, 16.6, 16.7, 16.6, 16.8, 16.6, 16.6, 16.8, 16.6, 16.6, 16.7, 16.7, 16.7, 16.7, 16.6, 16.7, 16.7, 16.7, 16.6, 16.6, 16.7, 16.7, 16.6, 16.6, 16.6, 16.9, 16.5, 16.8, 16.6, 16.7, 16.7, 16.7, 16.5, 16.7, 16.8, 16.5, 16.7, 16.9, 16.7, 16.6, 16.5, 16.9, 16.6, 16.8, 16.5, 16.6, 16.7, 16.6, 16.5, 16.7, 16.9, 16.6, 16.8, 16.5, 16.7, 16.7, 16.6, 16.7, 16.8, 16.6]",60.0,60.0,60.0,4986.1,[],,,,,,,,,,,,,,,,,,,,,,,,,HRV,HRV_0211,2022-11-30 19:07:14
,wl-html-keyboard-response,2,26453,0.0-2.0-0.0,0.0,3.0,,,,,,,,14682.799999952316,0.0,0,,,,,,,,,,,,,,,,,,,,,,HRV,HRV_0211,2022-11-30 19:07:14
,wl-rdm,3,35439,0.0-3.0-0.0,0.0,4.0,,,,,,,[],,,,0.0,0.0,87.9,0.0,u,0.0,True,3383.5,203.0,60.0,40.0,False,,3000.0,[],"[960, 540]",ColorTask_Demo,,,,,HRV,HRV_0211,2022-11-30 19:07:14
,wl-rdm,4,41205,0.0-3.0-1.0,0.0,5.0,,,,,,,[],,,,0.0,0.0,87.9,1.0,i,1.0,True,1714.2000000476837,103.0,60.0,40.0,False,,2000.0,[],"[960, 540]",ColorTask_Demo,,,,,HRV,HRV_0211,2022-11-30 19:07:14
,wl-html-keyboard-response,5,49049,0.0-3.0-2.0,0.0,6.0,,,,,,,,5835.100000023842,0.0,1,,,,,,,,,,,,,,,,,,,,,,HRV,HRV_0211,2022-11-30 19:07:14
,wl-html-keyboard-response,6,72130,0.0-4.0-0.0,0.0,7.0,,,,,,,,21072.699999928474,0.0,0,,,,,,,,,,,,,,,,,,,,,,HRV,HRV_0211,2022-11-30 19:07:14
,wl-html-keyboard-response,7,103539,0.0-5.0-0.0,0.0,8.0,,,,,,,,29400.799999952316,0.0,0,,,,,,,,,,,,,,,,,,,,,,HRV,HRV_0211,2022-11-30 19:07:14
,wl-rdm,8,106504,0.0-6.0-0.0,0.0,9.0,,,,,,,[],,,,,,56.4,0.0,u,0.0,True,1592.9000000953674,96.0,60.0,40.0,False,,299.5522823924922,[],"[960, 540]",ColorTask,1.0,1.0,,,HRV,HRV_0211,2022-11-30 19:07:14
,wl-rdm,9,108804,0.0-6.1-0.1,0.0,10.0,,,,,,,[],,,,,,87.9,1.0,i,1.0,True,855.2999999523163,52.0,60.0,40.0,False,,355.6679199517814,[],"[960, 540]",ColorTask,2.0,2.0,,,HRV,HRV_0211,2022-11-30 19:07:14
,wl-rdm,10,111288,0.0-6.2-0.2,0.0,11.0,,,,,,,[],,,,,,73.6,1.0,i,1.0,True,1119.0,68.0,60.0,40.0,False,,288.73766152590997,[],"[960, 540]",ColorTask,3.0,3.0,,,HRV,HRV_0211,2022-11-30 19:07:14
,wl-rdm,11,113871,0.0-6.3-0.3,0.0,12.0,,,,,,,[],,,,,,53.2,0.0,u,0.0,True,1188.6999999284744,72.0,60.0,40.0,False,,307.045151006207,[],"[960, 540]",ColorTask,4.0,4.0,,,HRV,HRV_0211,2022-11-30 19:07:14
,wl-rdm,12,116038,0.0-6.4-0.4,0.0,13.0,,,,,,,[],,,,,,73.6,1.0,i,1.0,True,878.1999999284744,53.0,60.0,40.0,False,,231.15549475951397,[],"[960, 540]",ColorTask,5.0,5.0,,,HRV,HRV_0211,2022-11-30 19:07:14
,wl-rdm,13,118354,0.0-6.5-0.5,0.0,14.0,,,,,,,[],,,,,,62.5,1.0,i,1.0,True,1007.2000000476837,61.0,60.0,40.0,False,,235.69306915943264,[],"[960, 540]",ColorTask,6.0,6.0,,,HRV,HRV_0211,2022-11-30 19:07:14
,wl-rdm,14,120921,0.0-6.6-0.6,0.0,15.0,,,,,,,[],,,,,,50.0,1.0,u,0.0,False,1201.1000000238419,73.0,60.0,40.0,False,,273.33470563660046,[],"[960, 540]",ColorTask,5.0,7.0,,,HRV,HRV_0211,2022-11-30 19:07:14
,wl-rdm,15,123354,0.0-6.7-0.7,0.0,16.0,,,,,,,[],,,,,,56.4,0.0,u,0.0,True,1143.3999999761581,68.0,60.0,40.0,False,,204.5145384629142,[],"[960, 540]",ColorTask,6.0,8.0,,,HRV,HRV_0211,2022-11-30 19:07:14
,wl-rdm,16,126204,0.0-6.8-0.8,0.0,17.0,,,,,,,[],,,,,,62.5,1.0,i,1.0,True,1507.1000000238419,91.0,60.0,40.0,False,,264.54873084834287,[],"[960, 540]",ColorTask,7.0,9.0,,,HRV,HRV_0211,2022-11-30 19:07:14
,wl-rdm,17,128371,0.0-6.9-0.9,0.0,18.0,,,,,,,[],,,,,,62.5,1.0,i,1.0,True,806.0,49.0,60.0,40.0,False,,292.54073394499426,[],"[960, 540]",ColorTask,8.0,10.0,,,HRV,HRV_0211,2022-11-30 19:07:14
,wl-rdm,18,130354,0.0-6.10-0.10,0.0,19.0,,,,,,,[],,,,,,87.9,0.0,u,0.0,True,706.7999999523163,43.0,60.0,40.0,False,,208.09408558645674,[],"[960, 540]",ColorTask,9.0,11.0,,,HRV,HRV_0211,2022-11-30 19:07:14
,wl-rdm,19,132605,0.0-6.11-0.11,0.0,20.0,,,,,,,[],,,,,,50.0,0.0,i,1.0,False,879.9000000953674,53.0,60.0,40.0,False,,316.5586536356616,[],"[960, 540]",ColorTask,8.0,12.0,,,HRV,HRV_0211,2022-11-30 19:07:14
,wl-rdm,20,135221,0.0-6.12-0.12,0.0,21.0,,,,,,,[],,,,,,50.0,0.0,i,1.0,False,1237.8999999761581,75.0,60.0,40.0,False,,298.50071273362266,[],"[960, 540]",ColorTask,7.0,13.0,,,HRV,HRV_0211,2022-11-30 19:07:14
,wl-rdm,21,137405,0.0-6.13-0.13,0.0,22.0,,,,,,,[],,,,,,53.2,1.0,u,0.0,False,905.9000000953674,55.0,60.0,40.0,False,,201.08350917544513,[],"[960, 540]",ColorTask,6.0,14.0,,,HRV,HRV_0211,2022-11-30 19:07:14
,wl-rdm,22,139738,0.0-6.14-0.14,0.0,23.0,,,,,,,[],,,,,,50.0,1.0,i,1.0,True,1065.4999998807907,64.0,60.0,40.0,False,,211.31590541288142,[],"[960, 540]",ColorTask,7.0,15.0,,,HRV,HRV_0211,2022-11-30 19:07:14
,wl-rdm,23,142271,0.0-6.15-0.15,0.0,24.0,,,,,,,[],,,,,,62.5,1.0,u,0.0,False,1244.0999999046326,75.0,60.0,40.0,False,,210.8365255647651,[],"[960, 540]",ColorTask,6.0,16.0,,,HRV,HRV_0211,2022-11-30 19:07:14
,wl-rdm,24,144738,0.0-6.16-0.16,0.0,25.0,,,,,,,[],,,,,,53.2,1.0,i,1.0,True,1074.1999999284744,65.0,60.0,40.0,False,,322.48404400144966,[],"[960, 540]",ColorTask,7.0,17.0,,,HRV,HRV_0211,2022-11-30 19:07:14
,wl-rdm,25,146988,0.0-6.17-0.17,0.0,26.0,,,,,,,[],,,,,,50.0,1.0,i,1.0,True,847.4000000953674,51.0,60.0,40.0,False,,326.1948600021559,[],"[960, 540]",ColorTask,8.0,18.0,,,HRV,HRV_0211,2022-11-30 19:07:14
,wl-rdm,26,149055,0.0-6.18-0.18,0.0,27.0,,,,,,,[],,,,,,53.2,1.0,i,1.0,True,672.2999999523163,41.0,60.0,40.0,False,,302.72655098892716,[],"[960, 540]",ColorTask,9.0,19.0,,,HRV,HRV_0211,2022-11-30 19:07:14
,wl-rdm,27,151155,0.0-6.19-0.19,0.0,28.0,,,,,,,[],,,,,,73.6,0.0,u,0.0,True,674.2999999523163,41.0,60.0,40.0,False,,344.3149681658798,[],"[960, 540]",ColorTask,10.0,20.0,,,HRV,HRV_0211,2022-11-30 19:07:14
,wl-rdm,28,154005,0.0-6.20-0.20,0.0,29.0,,,,,,,[],,,,,,56.4,1.0,u,0.0,False,1372.4999998807907,83.0,60.0,40.0,False,,383.66734207386537,[],"[960, 540]",ColorTask,9.0,21.0,,,HRV,HRV_0211,2022-11-30 19:07:14
,wl-rdm,29,156438,0.0-6.21-0.21,0.0,30.0,,,,,,,[],,,,,,56.4,1.0,i,1.0,True,1003.8999999761581,61.0,60.0,40.0,False,,339.5598628876786,[],"[960, 540]",ColorTask,10.0,22.0,,,HRV,HRV_0211,2022-11-30 19:07:14
,wl-rdm,30,159038,0.0-6.22-0.22,0.0,31.0,,,,,,,[],,,,,,56.4,0.0,u,0.0,True,1178.8999999761581,71.0,60.0,40.0,False,,346.6807782457511,[],"[960, 540]",ColorTask,11.0,23.0,,,HRV,HRV_0211,2022-11-30 19:07:14
,wl-rdm,31,161338,0.0-6.23-0.23,0.0,32.0,,,,,,,[],,,,,,56.4,1.0,u,0.0,False,861.2000000476837,52.0,60.0,40.0,False,,359.9095658488761,[],"[960, 540]",ColorTask,10.0,24.0,,,HRV,HRV_0211,2022-11-30 19:07:14
,wl-rdm,32,163455,0.0-6.24-0.24,0.0,33.0,,,,,,,[],,,,,,73.6,1.0,i,1.0,True,811.0,49.0,60.0,40.0,False,,239.43804771875034,[],"[960, 540]",ColorTask,11.0,25.0,,,HRV,HRV_0211,2022-11-30 19:07:14
,wl-rdm,33,165788,0.0-6.25-0.25,0.0,34.0,,,,,,,[],,,,,,56.4,0.0,u,0.0,True,930.1000000238419,56.0,60.0,40.0,False,,346.585920652115,[],"[960, 540]",ColorTask,12.0,26.0,,,HRV,HRV_0211,2022-11-30 19:07:14
,wl-rdm,34,168388,0.0-6.26-0.26,0.0,35.0,,,,,,,[],,,,,,73.6,1.0,i,1.0,True,1289.2999999523163,78.0,60.0,40.0,False,,231.15491707615217,[],"[960, 540]",ColorTask,13.0,27.0,,,HRV,HRV_0211,2022-11-30 19:07:14
,wl-rdm,35,170538,0.0-6.27-0.27,0.0,36.0,,,,,,,[],,,,,,56.4,1.0,i,1.0,True,799.1999999284744,48.0,60.0,40.0,False,,282.70259237175094,[],"[960, 540]",ColorTask,14.0,28.0,,,HRV,HRV_0211,2022-11-30 19:07:14
,wl-rdm,36,172688,0.0-6.28-0.28,0.0,37.0,,,,,,,[],,,,,,73.6,0.0,u,0.0,True,671.6000000238419,41.0,60.0,40.0,False,,398.0969664760546,[],"[960, 540]",ColorTask,15.0,29.0,,,HRV,HRV_0211,2022-11-30 19:07:14
,wl-rdm,37,174821,0.0-6.29-0.29,0.0,38.0,,,,,,,[],,,,,,53.2,0.0,i,1.0,False,746.5,45.0,60.0,40.0,False,,313.56019688612616,[],"[960, 540]",ColorTask,14.0,30.0,,,HRV,HRV_0211,2022-11-30 19:07:14
,wl-rdm,38,176905,0.0-6.30-0.30,0.0,39.0,,,,,,,[],,,,,,56.4,0.0,u,0.0,True,751.4999998807907,46.0,60.0,40.0,False,,254.1945384232447,[],"[960, 540]",ColorTask,15.0,31.0,,,HRV,HRV_0211,2022-11-30 19:07:14
,wl-rdm,39,178955,0.0-6.31-0.31,0.0,40.0,,,,,,,[],,,,,,53.2,0.0,u,0.0,True,657.5,40.0,60.0,40.0,False,,301.50689372889394,[],"[960, 540]",ColorTask,16.0,32.0,,,HRV,HRV_0211,2022-11-30 19:07:14
,wl-rdm,40,181571,0.0-6.32-0.32,0.0,41.0,,,,,,,[],,,,,,62.5,0.0,u,0.0,True,1240.3999999761581,75.0,60.0,40.0,False,,291.5310008565315,[],"[960, 540]",ColorTask,17.0,33.0,,,HRV,HRV_0211,2022-11-30 19:07:14
,wl-rdm,41,184005,0.0-6.33-0.33,0.0,42.0,,,,,,,[],,,,,,50.0,0.0,u,0.0,True,1015.2000000476837,61.0,60.0,40.0,False,,335.78474677903273,[],"[960, 540]",ColorTask,18.0,34.0,,,HRV,HRV_0211,2022-11-30 19:07:14
,wl-rdm,42,186088,0.0-6.34-0.34,0.0,43.0,,,,,,,[],,,,,,62.5,1.0,i,1.0,True,736.6000000238419,45.0,60.0,40.0,False,,258.11729126383034,[],"[960, 540]",ColorTask,19.0,35.0,,,HRV,HRV_0211,2022-11-30 19:07:14
,wl-rdm,43,188955,0.0-6.35-0.35,0.0,44.0,,,,,,,[],,,,,,56.4,0.0,u,0.0,True,1441.7000000476837,87.0,60.0,40.0,False,,343.30697655879237,[],"[960, 540]",ColorTask,20.0,36.0,,,HRV,HRV_0211,2022-11-30 19:07:14
,wl-rdm,44,192005,0.0-6.36-0.36,0.0,45.0,,,,,,,[],,,,,,50.0,1.0,i,1.0,True,1739.0000001192093,105.0,60.0,40.0,False,,217.28696394675416,[],"[960, 540]",ColorTask,21.0,37.0,,,HRV,HRV_0211,2022-11-30 19:07:14
,wl-rdm,45,194554,0.0-6.37-0.37,0.0,46.0,,,,,,,[],,,,,,62.5,1.0,i,1.0,True,1266.4000000953674,76.0,60.0,40.0,False,,223.34794395154037,[],"[960, 540]",ColorTask,22.0,38.0,,,HRV,HRV_0211,2022-11-30 19:07:14
,wl-rdm,46,196687,0.0-6.38-0.38,0.0,47.0,,,,,,,[],,,,,,87.9,0.0,u,0.0,True,751.2999999523163,46.0,60.0,40.0,False,,285.99040486873037,[],"[960, 540]",ColorTask,23.0,39.0,,,HRV,HRV_0211,2022-11-30 19:07:14
,wl-rdm,47,198721,0.0-6.39-0.39,0.0,48.0,,,,,,,[],,,,,,87.9,1.0,i,1.0,True,708.7000000476837,43.0,60.0,40.0,False,,236.41559496961003,[],"[960, 540]",ColorTask,24.0,40.0,,,HRV,HRV_0211,2022-11-30 19:07:14
,wl-rdm,48,201371,0.0-6.40-0.40,0.0,49.0,,,,,,,[],,,,,,53.2,0.0,u,0.0,True,1222.7000000476837,74.0,60.0,40.0,False,,363.6047622582921,[],"[960, 540]",ColorTask,25.0,41.0,,,HRV,HRV_0211,2022-11-30 19:07:14
,wl-rdm,49,204104,0.0-6.41-0.41,0.0,50.0,,,,,,,[],,,,,,62.5,1.0,i,1.0,True,1384.7000000476837,84.0,60.0,40.0,False,,274.617960398607,[],"[960, 540]",ColorTask,26.0,42.0,,,HRV,HRV_0211,2022-11-30 19:07:14
,wl-rdm,50,206954,0.0-6.42-0.42,0.0,51.0,,,,,,,[],,,,,,50.0,0.0,i,1.0,False,1467.2999999523163,88.0,60.0,40.0,False,,307.4067542599556,[],"[960, 540]",ColorTask,25.0,43.0,,,HRV,HRV_0211,2022-11-30 19:07:14
,wl-rdm,51,209171,0.0-6.43-0.43,0.0,52.0,,,,,,,[],,,,,,87.9,0.0,u,0.0,True,906.0999999046326,55.0,60.0,40.0,False,,243.1314585465215,[],"[960, 540]",ColorTask,26.0,44.0,,,HRV,HRV_0211,2022-11-30 19:07:14
,wl-rdm,52,211737,0.0-6.44-0.44,0.0,53.0,,,,,,,[],,,,,,50.0,1.0,i,1.0,True,1101.0999999046326,67.0,60.0,40.0,False,,377.35526683330556,[],"[960, 540]",ColorTask,27.0,45.0,,,HRV,HRV_0211,2022-11-30 19:07:14
,wl-rdm,53,214154,0.0-6.45-0.45,0.0,54.0,,,,,,,[],,,,,,56.4,1.0,i,1.0,True,965.2000000476837,58.0,60.0,40.0,False,,396.5884818535289,[],"[960, 540]",ColorTask,28.0,46.0,,,HRV,HRV_0211,2022-11-30 19:07:14
,wl-rdm,54,216737,0.0-6.46-0.46,0.0,55.0,,,,,,,[],,,,,,50.0,0.0,u,0.0,True,1133.0000001192093,68.0,60.0,40.0,False,,373.0511534672752,[],"[960, 540]",ColorTask,29.0,47.0,,,HRV,HRV_0211,2022-11-30 19:07:14
,wl-rdm,55,219437,0.0-6.47-0.47,0.0,56.0,,,,,,,[],,,,,,50.0,0.0,u,0.0,True,1396.6999999284744,84.0,60.0,40.0,False,,245.56645822186573,[],"[960, 540]",ColorTask,30.0,48.0,,,HRV,HRV_0211,2022-11-30 19:07:14
,wl-rdm,56,221837,0.0-6.48-0.48,0.0,57.0,,,,,,,[],,,,,,73.6,0.0,u,0.0,True,979.0000001192093,59.0,60.0,40.0,False,,339.36509028437814,[],"[960, 540]",ColorTask,31.0,49.0,,,HRV,HRV_0211,2022-11-30 19:07:14
,wl-rdm,57,224337,0.0-6.49-0.49,0.0,58.0,,,,,,,[],,,,,,87.9,1.0,i,1.0,True,1158.0,70.0,60.0,40.0,False,,269.45534016067575,[],"[960, 540]",ColorTask,32.0,50.0,,,HRV,HRV_0211,2022-11-30 19:07:14
,wl-rdm,58,226615,0.0-6.50-0.50,0.0,59.0,,,,,,,[],,,,,,62.5,0.0,u,0.0,True,879.3999999761581,53.0,60.0,40.0,False,,321.6123681851501,[],"[960, 540]",ColorTask,33.0,51.0,,,HRV,HRV_0211,2022-11-30 19:07:14
,wl-rdm,59,229087,0.0-6.51-0.51,0.0,60.0,,,,,,,[],,,,,,73.6,0.0,u,0.0,True,1177.0,71.0,60.0,40.0,False,,217.53189165783786,[],"[960, 540]",ColorTask,34.0,52.0,,,HRV,HRV_0211,2022-11-30 19:07:14
,wl-rdm,60,231571,0.0-6.52-0.52,0.0,61.0,,,,,,,[],,,,,,73.6,1.0,i,1.0,True,1066.0,64.0,60.0,40.0,False,,358.045686161905,[],"[960, 540]",ColorTask,35.0,53.0,,,HRV,HRV_0211,2022-11-30 19:07:14
,wl-rdm,61,233837,0.0-6.53-0.53,0.0,62.0,,,,,,,[],,,,,,87.9,1.0,i,1.0,True,845.5999999046326,51.0,60.0,40.0,False,,349.8766259671076,[],"[960, 540]",ColorTask,36.0,54.0,,,HRV,HRV_0211,2022-11-30 19:07:14
,wl-rdm,62,236220,0.0-6.54-0.54,0.0,63.0,,,,,,,[],,,,,,56.4,1.0,i,1.0,True,1021.5,62.0,60.0,40.0,False,,274.75607005244393,[],"[960, 540]",ColorTask,37.0,55.0,,,HRV,HRV_0211,2022-11-30 19:07:14
,wl-rdm,63,239254,0.0-6.55-0.55,0.0,64.0,,,,,,,[],,,,,,62.5,0.0,u,0.0,True,1611.6000000238419,97.0,60.0,40.0,False,,346.4401489343279,[],"[960, 540]",ColorTask,38.0,56.0,,,HRV,HRV_0211,2022-11-30 19:07:14
,wl-rdm,64,241371,0.0-6.56-0.56,0.0,65.0,,,,,,,[],,,,,,62.5,1.0,i,1.0,True,756.2000000476837,46.0,60.0,40.0,False,,297.2921436256521,[],"[960, 540]",ColorTask,39.0,57.0,,,HRV,HRV_0211,2022-11-30 19:07:14
,wl-rdm,65,244404,0.0-6.57-0.57,0.0,66.0,,,,,,,[],,,,,,50.0,1.0,u,0.0,False,1607.3999999761581,97.0,60.0,40.0,False,,338.6282032925059,[],"[960, 540]",ColorTask,38.0,58.0,,,HRV,HRV_0211,2022-11-30 19:07:14
,wl-rdm,66,246870,0.0-6.58-0.58,0.0,67.0,,,,,,,[],,,,,,56.4,0.0,i,1.0,False,1144.7000000476837,69.0,60.0,40.0,False,,241.57132819964073,[],"[960, 540]",ColorTask,37.0,59.0,,,HRV,HRV_0211,2022-11-30 19:07:14
,wl-rdm,67,249237,0.0-6.59-0.59,0.0,68.0,,,,,,,[],,,,,,53.2,1.0,i,1.0,True,1045.8999999761581,63.0,60.0,40.0,False,,244.30545303609932,[],"[960, 540]",ColorTask,38.0,60.0,,,HRV,HRV_0211,2022-11-30 19:07:14
,wl-rdm,68,252204,0.0-6.60-0.60,0.0,69.0,,,,,,,[],,,,,,53.2,0.0,i,1.0,False,1663.4000000953674,100.0,60.0,40.0,False,,228.43789956427472,[],"[960, 540]",ColorTask,37.0,61.0,,,HRV,HRV_0211,2022-11-30 19:07:14
,wl-rdm,69,255171,0.0-6.61-0.61,0.0,70.0,,,,,,,[],,,,,,53.2,1.0,u,0.0,False,1633.3999999761581,98.0,60.0,40.0,False,,253.90453108658215,[],"[960, 540]",ColorTask,36.0,62.0,,,HRV,HRV_0211,2022-11-30 19:07:14
,wl-rdm,70,257471,0.0-6.62-0.62,0.0,71.0,,,,,,,[],,,,,,73.6,1.0,i,1.0,True,927.2000000476837,56.0,60.0,40.0,False,,302.39308021185144,[],"[960, 540]",ColorTask,37.0,63.0,,,HRV,HRV_0211,2022-11-30 19:07:14
,wl-rdm,71,259938,0.0-6.63-0.63,0.0,72.0,,,,,,,[],,,,,,73.6,0.0,u,0.0,True,1042.2999999523163,63.0,60.0,40.0,False,,339.7709477953568,[],"[960, 540]",ColorTask,38.0,64.0,,,HRV,HRV_0211,2022-11-30 19:07:14
,wl-rdm,72,262221,0.0-6.64-0.64,0.0,73.0,,,,,,,[],,,,,,73.6,0.0,u,0.0,True,928.8999999761581,56.0,60.0,40.0,False,,289.55257776174017,[],"[960, 540]",ColorTask,39.0,65.0,,,HRV,HRV_0211,2022-11-30 19:07:14
,wl-rdm,73,265221,0.0-6.65-0.65,0.0,74.0,,,,,,,[],,,,,,56.4,0.0,u,0.0,True,1673.1999999284744,101.0,60.0,40.0,False,,247.7713058825189,[],"[960, 540]",ColorTask,40.0,66.0,,,HRV,HRV_0211,2022-11-30 19:07:14
,wl-rdm,74,267887,0.0-6.66-0.66,0.0,75.0,,,,,,,[],,,,,,50.0,1.0,i,1.0,True,1252.3000000715256,76.0,60.0,40.0,False,,320.5354324290562,[],"[960, 540]",ColorTask,41.0,67.0,,,HRV,HRV_0211,2022-11-30 19:07:14
,wl-rdm,75,270421,0.0-6.67-0.67,0.0,76.0,,,,,,,[],,,,,,87.9,1.0,i,1.0,True,1171.7000000476837,71.0,60.0,40.0,False,,282.04881369362727,[],"[960, 540]",ColorTask,42.0,68.0,,,HRV,HRV_0211,2022-11-30 19:07:14
,wl-rdm,76,272604,0.0-6.68-0.68,0.0,77.0,,,,,,,[],,,,,,87.9,0.0,u,0.0,True,896.7000000476837,54.0,60.0,40.0,False,,219.225440679529,[],"[960, 540]",ColorTask,43.0,69.0,,,HRV,HRV_0211,2022-11-30 19:07:14
,wl-rdm,77,274821,0.0-6.69-0.69,0.0,78.0,,,,,,,[],,,,,,87.9,0.0,u,0.0,True,913.5,55.0,60.0,40.0,False,,217.79419933141597,[],"[960, 540]",ColorTask,44.0,70.0,,,HRV,HRV_0211,2022-11-30 19:07:14
,wl-rdm,78,277287,0.0-6.70-0.70,0.0,79.0,,,,,,,[],,,,,,73.6,0.0,u,0.0,True,993.3000000715256,60.0,60.0,40.0,False,,387.6972453828055,[],"[960, 540]",ColorTask,45.0,71.0,,,HRV,HRV_0211,2022-11-30 19:07:14
,wl-rdm,79,279621,0.0-6.71-0.71,0.0,80.0,,,,,,,[],,,,,,62.5,0.0,u,0.0,True,1005.0000001192093,61.0,60.0,40.0,False,,262.8195866342188,[],"[960, 540]",ColorTask,46.0,72.0,,,HRV,HRV_0211,2022-11-30 19:07:14
,wl-rdm,80,282237,0.0-6.72-0.72,0.0,81.0,,,,,,,[],,,,,,62.5,0.0,u,0.0,True,1271.3000000715256,77.0,60.0,40.0,False,,255.57664237562875,[],"[960, 540]",ColorTask,47.0,73.0,,,HRV,HRV_0211,2022-11-30 19:07:14
,wl-rdm,81,285354,0.0-6.73-0.73,0.0,82.0,,,,,,,[],,,,,,53.2,1.0,i,1.0,True,1749.0999999046326,105.0,60.0,40.0,False,,286.93440246958596,[],"[960, 540]",ColorTask,48.0,74.0,,,HRV,HRV_0211,2022-11-30 19:07:14
,wl-rdm,82,287771,0.0-6.74-0.74,0.0,83.0,,,,,,,[],,,,,,62.5,0.0,u,0.0,True,1025.2999999523163,62.0,60.0,40.0,False,,316.742882522429,[],"[960, 540]",ColorTask,49.0,75.0,,,HRV,HRV_0211,2022-11-30 19:07:14
,wl-rdm,83,291137,0.0-6.75-0.75,0.0,84.0,,,,,,,[],,,,,,53.2,0.0,i,1.0,False,2049.5999999046326,123.0,60.0,40.0,False,,261.23529272453976,[],"[960, 540]",ColorTask,48.0,76.0,,,HRV,HRV_0211,2022-11-30 19:07:14
,wl-rdm,84,294604,0.0-6.76-0.76,0.0,85.0,,,,,,,[],,,,,,53.2,1.0,i,1.0,True,2081.0,125.0,60.0,40.0,False,,323.98785940341094,[],"[960, 540]",ColorTask,49.0,77.0,,,HRV,HRV_0211,2022-11-30 19:07:14
,wl-rdm,85,298471,0.0-6.77-0.77,0.0,86.0,,,,,,,[],,,,,,53.2,1.0,i,1.0,True,2404.3000000715256,145.0,60.0,40.0,False,,395.36848037373034,[],"[960, 540]",ColorTask,50.0,78.0,,,HRV,HRV_0211,2022-11-30 19:07:14
,wl-rdm,86,301754,0.0-6.78-0.78,0.0,87.0,,,,,,,[],,,,,,50.0,0.0,i,1.0,False,1981.8999998569489,119.0,60.0,40.0,False,,235.76902553913044,[],"[960, 540]",ColorTask,49.0,79.0,,,HRV,HRV_0211,2022-11-30 19:07:14
,wl-rdm,87,304071,0.0-6.79-0.79,0.0,88.0,,,,,,,[],,,,,,73.6,0.0,u,0.0,True,1028.0,62.0,60.0,40.0,False,,212.11635379111536,[],"[960, 540]",ColorTask,50.0,80.0,,,HRV,HRV_0211,2022-11-30 19:07:14
,wl-rdm,88,306921,0.0-6.80-0.80,0.0,89.0,,,,,,,[],,,,,,53.2,1.0,i,1.0,True,1559.3999999761581,94.0,60.0,40.0,False,,208.06916529627642,[],"[960, 540]",ColorTask,51.0,81.0,,,HRV,HRV_0211,2022-11-30 19:07:14
,wl-rdm,89,310438,0.0-6.81-0.81,0.0,90.0,,,,,,,[],,,,,,56.4,1.0,i,1.0,True,2230.0999999046326,134.0,60.0,40.0,False,,223.90328349266872,[],"[960, 540]",ColorTask,52.0,82.0,,,HRV,HRV_0211,2022-11-30 19:07:14
,wl-rdm,90,312687,0.0-6.82-0.82,0.0,91.0,,,,,,,[],,,,,,87.9,1.0,i,1.0,True,936.1000000238419,57.0,60.0,40.0,False,,227.47552455541734,[],"[960, 540]",ColorTask,53.0,83.0,,,HRV,HRV_0211,2022-11-30 19:07:14
,wl-rdm,91,315237,0.0-6.83-0.83,0.0,92.0,,,,,,,[],,,,,,50.0,1.0,u,0.0,False,1221.7000000476837,74.0,60.0,40.0,False,,236.97171527646336,[],"[960, 540]",ColorTask,52.0,84.0,,,HRV,HRV_0211,2022-11-30 19:07:14
,wl-rdm,92,317438,0.0-6.84-0.84,0.0,93.0,,,,,,,[],,,,,,87.9,0.0,u,0.0,True,779.0,47.0,60.0,40.0,False,,361.2642875263725,[],"[960, 540]",ColorTask,53.0,85.0,,,HRV,HRV_0211,2022-11-30 19:07:14
,wl-rdm,93,320054,0.0-6.85-0.85,0.0,94.0,,,,,,,[],,,,,,53.2,0.0,u,0.0,True,1327.6999999284744,80.0,60.0,40.0,False,,217.46334402221473,[],"[960, 540]",ColorTask,54.0,86.0,,,HRV,HRV_0211,2022-11-30 19:07:14
,wl-rdm,94,322304,0.0-6.86-0.86,0.0,95.0,,,,,,,[],,,,,,87.9,0.0,u,0.0,True,936.8999999761581,57.0,60.0,40.0,False,,229.37598269442805,[],"[960, 540]",ColorTask,55.0,87.0,,,HRV,HRV_0211,2022-11-30 19:07:14
,wl-rdm,95,324354,0.0-6.87-0.87,0.0,96.0,,,,,,,[],,,,,,87.9,1.0,i,1.0,True,666.1999999284744,40.0,60.0,40.0,False,,316.67671533003676,[],"[960, 540]",ColorTask,56.0,88.0,,,HRV,HRV_0211,2022-11-30 19:07:14
,wl-rdm,96,327354,0.0-6.88-0.88,0.0,97.0,,,,,,,[],,,,,,50.0,0.0,u,0.0,True,1684.1000000238419,102.0,60.0,40.0,False,,221.26231562682557,[],"[960, 540]",ColorTask,57.0,89.0,,,HRV,HRV_0211,2022-11-30 19:07:14
,wl-rdm,97,329570,0.0-6.89-0.89,0.0,98.0,,,,,,,[],,,,,,73.6,0.0,u,0.0,True,865.0,52.0,60.0,40.0,False,,270.1730109774745,[],"[960, 540]",ColorTask,58.0,90.0,,,HRV,HRV_0211,2022-11-30 19:07:14
,wl-rdm,98,331721,0.0-6.90-0.90,0.0,99.0,,,,,,,[],,,,,,87.9,0.0,u,0.0,True,818.3000000715256,50.0,60.0,40.0,False,,233.64908169977468,[],"[960, 540]",ColorTask,59.0,91.0,,,HRV,HRV_0211,2022-11-30 19:07:14
,wl-rdm,99,335054,0.0-6.91-0.91,0.0,100.0,,,,,,,[],,,,,,50.0,1.0,u,0.0,False,2021.8000000715256,122.0,60.0,40.0,False,,241.43271225784628,[],"[960, 540]",ColorTask,58.0,92.0,,,HRV,HRV_0211,2022-11-30 19:07:14
,wl-rdm,100,337204,0.0-6.92-0.92,0.0,101.0,,,,,,,[],,,,,,87.9,1.0,i,1.0,True,698.2000000476837,42.0,60.0,40.0,False,,367.529584119725,[],"[960, 540]",ColorTask,59.0,93.0,,,HRV,HRV_0211,2022-11-30 19:07:14
,wl-rdm,101,339521,0.0-6.93-0.93,0.0,102.0,,,,,,,[],,,,,,73.6,1.0,i,1.0,True,942.5999999046326,57.0,60.0,40.0,False,,292.59080579721063,[],"[960, 540]",ColorTask,60.0,94.0,,,HRV,HRV_0211,2022-11-30 19:07:14
,wl-rdm,102,341670,0.0-6.94-0.94,0.0,103.0,,,,,,,[],,,,,,73.6,1.0,i,1.0,True,861.7999999523163,52.0,60.0,40.0,False,,214.14544324781943,[],"[960, 540]",ColorTask,61.0,95.0,,,HRV,HRV_0211,2022-11-30 19:07:14
,wl-rdm,103,344220,0.0-6.95-0.95,0.0,104.0,,,,,,,[],,,,,,53.2,0.0,i,1.0,False,1113.3999999761581,67.0,60.0,40.0,False,,355.24110637773424,[],"[960, 540]",ColorTask,60.0,96.0,,,HRV,HRV_0211,2022-11-30 19:07:14
,wl-rdm,104,346304,0.0-6.96-0.96,0.0,105.0,,,,,,,[],,,,,,62.5,0.0,u,0.0,True,762.1000000238419,46.0,60.0,40.0,False,,241.00547887135707,[],"[960, 540]",ColorTask,61.0,97.0,,,HRV,HRV_0211,2022-11-30 19:07:14
,wl-rdm,105,348487,0.0-6.97-0.97,0.0,106.0,,,,,,,[],,,,,,87.9,1.0,i,1.0,True,753.2999999523163,46.0,60.0,40.0,False,,336.27513487031933,[],"[960, 540]",ColorTask,62.0,98.0,,,HRV,HRV_0211,2022-11-30 19:07:14
,wl-rdm,106,350421,0.0-6.98-0.98,0.0,107.0,,,,,,,[],,,,,,62.5,0.0,u,0.0,True,639.1000000238419,39.0,60.0,40.0,False,,217.93196235638686,[],"[960, 540]",ColorTask,63.0,99.0,,,HRV,HRV_0211,2022-11-30 19:07:14
,wl-rdm,107,353104,0.0-6.99-0.99,0.0,108.0,,,,,,,[],,,,,,62.5,1.0,i,1.0,True,1334.9000000953674,81.0,60.0,40.0,False,,274.88486025609154,[],"[960, 540]",ColorTask,64.0,100.0,,,HRV,HRV_0211,2022-11-30 19:07:14
,wl-rdm,108,355970,0.0-6.100-0.100,0.0,109.0,,,,,,,[],,,,,,56.4,1.0,u,0.0,False,1515.6000000238419,91.0,60.0,40.0,False,,267.5155135177966,[],"[960, 540]",ColorTask,63.0,101.0,,,HRV,HRV_0211,2022-11-30 19:07:14
,wl-rdm,109,358637,0.0-6.101-0.101,0.0,110.0,,,,,,,[],,,,,,56.4,1.0,i,1.0,True,1280.7000000476837,77.0,60.0,40.0,False,,328.1011895137676,[],"[960, 540]",ColorTask,64.0,102.0,,,HRV,HRV_0211,2022-11-30 19:07:14
,wl-rdm,110,360987,0.0-6.102-0.102,0.0,111.0,,,,,,,[],,,,,,50.0,0.0,u,0.0,True,964.5,58.0,60.0,40.0,False,,302.9015596726292,[],"[960, 540]",ColorTask,65.0,103.0,,,HRV,HRV_0211,2022-11-30 19:07:14
,wl-rdm,111,362987,0.0-6.103-0.103,0.0,112.0,,,,,,,[],,,,,,73.6,1.0,i,1.0,True,714.9999998807907,43.0,60.0,40.0,False,,206.34029426178677,[],"[960, 540]",ColorTask,66.0,104.0,,,HRV,HRV_0211,2022-11-30 19:07:14
,wl-rdm,112,365704,0.0-6.104-0.104,0.0,113.0,,,,,,,[],,,,,,53.2,0.0,u,0.0,True,1260.7999999523163,76.0,60.0,40.0,False,,378.96117322216423,[],"[960, 540]",ColorTask,67.0,105.0,,,HRV,HRV_0211,2022-11-30 19:07:14
,wl-rdm,113,368121,0.0-6.105-0.105,0.0,114.0,,,,,,,[],,,,,,56.4,0.0,u,0.0,True,1026.0999999046326,62.0,60.0,40.0,False,,315.7592908486332,[],"[960, 540]",ColorTask,68.0,106.0,,,HRV,HRV_0211,2022-11-30 19:07:14
,wl-rdm,114,370587,0.0-6.106-0.106,0.0,115.0,,,,,,,[],,,,,,62.5,0.0,u,0.0,True,1068.1000000238419,65.0,60.0,40.0,False,,307.1934648847414,[],"[960, 540]",ColorTask,69.0,107.0,,,HRV,HRV_0211,2022-11-30 19:07:14
,wl-rdm,115,373853,0.0-6.107-0.107,0.0,116.0,,,,,,,[],,,,,,87.9,0.0,u,0.0,True,1790.3999999761581,107.0,60.0,40.0,False,,398.95675446600717,[],"[960, 540]",ColorTask,70.0,108.0,,,HRV,HRV_0211,2022-11-30 19:07:14
,wl-html-keyboard-response,116,389167,0.0-7.0-0.0,1.0,117.0,,,,,,,,13299.200000047684,1.0,0,,,,,,,,,,,,,,,,,,,,,,HRV,HRV_0211,2022-11-30 19:07:14
,wl-rdm,117,391570,0.0-8.0-0.0,1.0,118.0,,,,,,,[],,,,,,53.2,0.0,u,0.0,True,1098.2000000476837,66.0,60.0,40.0,False,,248.90086583884255,[],"[960, 540]",ColorTask,71.0,1.0,,,HRV,HRV_0211,2022-11-30 19:07:14
,wl-rdm,118,394120,0.0-8.1-0.1,1.0,119.0,,,,,,,[],,,,,,62.5,0.0,u,0.0,True,1259.5,76.0,60.0,40.0,False,,207.26745467647888,[],"[960, 540]",ColorTask,72.0,2.0,,,HRV,HRV_0211,2022-11-30 19:07:14
,wl-rdm,119,396270,0.0-8.2-0.2,1.0,120.0,,,,,,,[],,,,,,87.9,0.0,u,0.0,True,820.5,50.0,60.0,40.0,False,,237.80940087528745,[],"[960, 540]",ColorTask,73.0,3.0,,,HRV,HRV_0211,2022-11-30 19:07:14
,wl-rdm,120,398987,0.0-8.3-0.3,1.0,121.0,,,,,,,[],,,,,,53.2,1.0,i,1.0,True,1391.3000000715256,84.0,60.0,40.0,False,,248.94980703425293,[],"[960, 540]",ColorTask,74.0,4.0,,,HRV,HRV_0211,2022-11-30 19:07:14
,wl-rdm,121,401337,0.0-8.4-0.4,1.0,122.0,,,,,,,[],,,,,,62.5,1.0,i,1.0,True,1049.3999999761581,63.0,60.0,40.0,False,,244.96363940144545,[],"[960, 540]",ColorTask,75.0,5.0,,,HRV,HRV_0211,2022-11-30 19:07:14
,wl-rdm,122,404737,0.0-8.5-0.5,1.0,123.0,,,,,,,[],,,,,,50.0,0.0,u,0.0,True,2017.9000000953674,122.0,60.0,40.0,False,,294.83384027107843,[],"[960, 540]",ColorTask,76.0,6.0,,,HRV,HRV_0211,2022-11-30 19:07:14
,wl-rdm,123,406870,0.0-8.6-0.6,1.0,124.0,,,,,,,[],,,,,,73.6,0.0,u,0.0,True,828.0999999046326,50.0,60.0,40.0,False,,243.50220388334773,[],"[960, 540]",ColorTask,77.0,7.0,,,HRV,HRV_0211,2022-11-30 19:07:14
,wl-rdm,124,409003,0.0-8.7-0.7,1.0,125.0,,,,,,,[],,,,,,62.5,1.0,i,1.0,True,823.8999999761581,50.0,60.0,40.0,False,,236.30541593152822,[],"[960, 540]",ColorTask,78.0,8.0,,,HRV,HRV_0211,2022-11-30 19:07:14
,wl-rdm,125,411937,0.0-8.8-0.8,1.0,126.0,,,,,,,[],,,,,,56.4,1.0,i,1.0,True,1552.0999999046326,94.0,60.0,40.0,False,,290.1680312034029,[],"[960, 540]",ColorTask,79.0,9.0,,,HRV,HRV_0211,2022-11-30 19:07:14
,wl-rdm,126,414503,0.0-8.9-0.9,1.0,127.0,,,,,,,[],,,,,,62.5,1.0,i,1.0,True,1269.5,77.0,60.0,40.0,False,,200.38627991090866,[],"[960, 540]",ColorTask,80.0,10.0,,,HRV,HRV_0211,2022-11-30 19:07:14
,wl-rdm,127,417570,0.0-8.10-0.10,1.0,128.0,,,,,,,[],,,,,,53.2,0.0,u,0.0,True,1766.6000000238419,106.0,60.0,40.0,False,,223.08461009349278,[],"[960, 540]",ColorTask,81.0,11.0,,,HRV,HRV_0211,2022-11-30 19:07:14
,wl-rdm,128,420153,0.0-8.11-0.11,1.0,129.0,,,,,,,[],,,,,,53.2,1.0,i,1.0,True,1143.5,69.0,60.0,40.0,False,,358.6315731380138,[],"[960, 540]",ColorTask,82.0,12.0,,,HRV,HRV_0211,2022-11-30 19:07:14
,wl-rdm,129,422670,0.0-8.12-0.12,1.0,130.0,,,,,,,[],,,,,,62.5,1.0,i,1.0,True,1094.9999998807907,66.0,60.0,40.0,False,,343.16050700171525,[],"[960, 540]",ColorTask,83.0,13.0,,,HRV,HRV_0211,2022-11-30 19:07:14
,wl-rdm,130,425487,0.0-8.13-0.13,1.0,131.0,,,,,,,[],,,,,,50.0,1.0,u,0.0,False,1378.1999999284744,83.0,60.0,40.0,False,,356.4508040801196,[],"[960, 540]",ColorTask,82.0,14.0,,,HRV,HRV_0211,2022-11-30 19:07:14
,wl-rdm,131,428103,0.0-8.14-0.14,1.0,132.0,,,,,,,[],,,,,,56.4,1.0,i,1.0,True,1327.1000000238419,80.0,60.0,40.0,False,,208.94548737397687,[],"[960, 540]",ColorTask,83.0,15.0,,,HRV,HRV_0211,2022-11-30 19:07:14
,wl-rdm,132,430136,0.0-8.15-0.15,1.0,133.0,,,,,,,[],,,,,,53.2,0.0,i,1.0,False,625.8999999761581,38.0,60.0,40.0,False,,317.16321644860005,[],"[960, 540]",ColorTask,82.0,16.0,,,HRV,HRV_0211,2022-11-30 19:07:14
,wl-rdm,133,432953,0.0-8.16-0.16,1.0,134.0,,,,,,,[],,,,,,50.0,1.0,u,0.0,False,1335.2000000476837,81.0,60.0,40.0,False,,395.0472410237167,[],"[960, 540]",ColorTask,81.0,17.0,,,HRV,HRV_0211,2022-11-30 19:07:14
,wl-rdm,134,435503,0.0-8.17-0.17,1.0,135.0,,,,,,,[],,,,,,53.2,1.0,i,1.0,True,1260.3999999761581,76.0,60.0,40.0,False,,202.323876896177,[],"[960, 540]",ColorTask,82.0,18.0,,,HRV,HRV_0211,2022-11-30 19:07:14
,wl-rdm,135,437770,0.0-8.18-0.18,1.0,136.0,,,,,,,[],,,,,,73.6,1.0,i,1.0,True,889.9000000953674,54.0,60.0,40.0,False,,285.400579482417,[],"[960, 540]",ColorTask,83.0,19.0,,,HRV,HRV_0211,2022-11-30 19:07:14
,wl-rdm,136,440953,0.0-8.19-0.19,1.0,137.0,,,,,,,[],,,,,,56.4,1.0,i,1.0,True,1733.2000000476837,104.0,60.0,40.0,False,,379.7263812192982,[],"[960, 540]",ColorTask,84.0,20.0,,,HRV,HRV_0211,2022-11-30 19:07:14
,wl-rdm,137,444253,0.0-8.20-0.20,1.0,138.0,,,,,,,[],,,,,,53.2,1.0,i,1.0,True,1989.8999999761581,120.0,60.0,40.0,False,,227.5198011143472,[],"[960, 540]",ColorTask,85.0,21.0,,,HRV,HRV_0211,2022-11-30 19:07:14
,wl-rdm,138,446670,0.0-8.21-0.21,1.0,139.0,,,,,,,[],,,,,,50.0,1.0,u,0.0,False,1128.2999999523163,68.0,60.0,40.0,False,,207.16679484372847,[],"[960, 540]",ColorTask,84.0,22.0,,,HRV,HRV_0211,2022-11-30 19:07:14
,wl-rdm,139,449653,0.0-8.22-0.22,1.0,140.0,,,,,,,[],,,,,,56.4,0.0,u,0.0,True,1629.0000001192093,98.0,60.0,40.0,False,,283.3984945069374,[],"[960, 540]",ColorTask,85.0,23.0,,,HRV,HRV_0211,2022-11-30 19:07:14
,wl-rdm,140,451887,0.0-8.23-0.23,1.0,141.0,,,,,,,[],,,,,,87.9,1.0,i,1.0,True,945.2000000476837,57.0,60.0,40.0,False,,208.71905738821718,[],"[960, 540]",ColorTask,86.0,24.0,,,HRV,HRV_0211,2022-11-30 19:07:14
,wl-rdm,141,454803,0.0-8.24-0.24,1.0,142.0,,,,,,,[],,,,,,53.2,0.0,u,0.0,True,1524.1000000238419,92.0,60.0,40.0,False,,324.49266157236184,[],"[960, 540]",ColorTask,87.0,25.0,,,HRV,HRV_0211,2022-11-30 19:07:14
,wl-rdm,142,457103,0.0-8.25-0.25,1.0,143.0,,,,,,,[],,,,,,50.0,0.0,i,1.0,False,986.0,60.0,60.0,40.0,False,,232.68408413665148,[],"[960, 540]",ColorTask,86.0,26.0,,,HRV,HRV_0211,2022-11-30 19:07:14
,wl-rdm,143,459537,0.0-8.26-0.26,1.0,144.0,,,,,,,[],,,,,,53.2,0.0,u,0.0,True,1068.0,65.0,60.0,40.0,False,,278.3998728284012,[],"[960, 540]",ColorTask,87.0,27.0,,,HRV,HRV_0211,2022-11-30 19:07:14
,wl-rdm,144,461770,0.0-8.27-0.27,1.0,145.0,,,,,,,[],,,,,,87.9,1.0,i,1.0,True,774.6000000238419,47.0,60.0,40.0,False,,372.47815537238785,[],"[960, 540]",ColorTask,88.0,28.0,,,HRV,HRV_0211,2022-11-30 19:07:14
,wl-rdm,145,464120,0.0-8.28-0.28,1.0,146.0,,,,,,,[],,,,,,87.9,0.0,u,0.0,True,935.3999999761581,57.0,60.0,40.0,False,,319.5729444521657,[],"[960, 540]",ColorTask,89.0,29.0,,,HRV,HRV_0211,2022-11-30 19:07:14
,wl-rdm,146,466770,0.0-8.29-0.29,1.0,147.0,,,,,,,[],,,,,,53.2,0.0,i,1.0,False,1284.5,78.0,60.0,40.0,False,,285.50681683423466,[],"[960, 540]",ColorTask,88.0,30.0,,,HRV,HRV_0211,2022-11-30 19:07:14
,wl-rdm,147,468953,0.0-8.30-0.30,1.0,148.0,,,,,,,[],,,,,,73.6,0.0,u,0.0,True,766.3999999761581,46.0,60.0,40.0,False,,338.0317510869129,[],"[960, 540]",ColorTask,89.0,31.0,,,HRV,HRV_0211,2022-11-30 19:07:14
,wl-rdm,148,471120,0.0-8.31-0.31,1.0,149.0,,,,,,,[],,,,,,73.6,1.0,i,1.0,True,709.8999999761581,43.0,60.0,40.0,False,,368.05880349551626,[],"[960, 540]",ColorTask,90.0,32.0,,,HRV,HRV_0211,2022-11-30 19:07:14
,wl-rdm,149,473637,0.0-8.32-0.32,1.0,150.0,,,,,,,[],,,,,,56.4,1.0,i,1.0,True,1098.2000000476837,66.0,60.0,40.0,False,,340.61644546037513,[],"[960, 540]",ColorTask,91.0,33.0,,,HRV,HRV_0211,2022-11-30 19:07:14
,wl-rdm,150,475787,0.0-8.33-0.33,1.0,151.0,,,,,,,[],,,,,,62.5,0.0,u,0.0,True,715.1999999284744,43.0,60.0,40.0,False,,365.3635842908424,[],"[960, 540]",ColorTask,92.0,34.0,,,HRV,HRV_0211,2022-11-30 19:07:14
,wl-rdm,151,478887,0.0-8.34-0.34,1.0,152.0,,,,,,,[],,,,,,87.9,1.0,i,1.0,True,1721.7000000476837,104.0,60.0,40.0,False,,292.87445393589087,[],"[960, 540]",ColorTask,93.0,35.0,,,HRV,HRV_0211,2022-11-30 19:07:14
,wl-rdm,152,481187,0.0-8.35-0.35,1.0,153.0,,,,,,,[],,,,,,87.9,1.0,i,1.0,True,940.3000000715256,57.0,60.0,40.0,False,,269.2740466213887,[],"[960, 540]",ColorTask,94.0,36.0,,,HRV,HRV_0211,2022-11-30 19:07:14
,wl-rdm,153,483270,0.0-8.36-0.36,1.0,154.0,,,,,,,[],,,,,,87.9,0.0,u,0.0,True,704.3999999761581,43.0,60.0,40.0,False,,289.63665009196575,[],"[960, 540]",ColorTask,95.0,37.0,,,HRV,HRV_0211,2022-11-30 19:07:14
,wl-rdm,154,485720,0.0-8.37-0.37,1.0,155.0,,,,,,,[],,,,,,62.5,1.0,i,1.0,True,1102.7000000476837,67.0,60.0,40.0,False,,258.40395457967986,[],"[960, 540]",ColorTask,96.0,38.0,,,HRV,HRV_0211,2022-11-30 19:07:14
,wl-rdm,155,488320,0.0-8.38-0.38,1.0,156.0,,,,,,,[],,,,,,56.4,0.0,u,0.0,True,1218.7000000476837,74.0,60.0,40.0,False,,297.75508507759514,[],"[960, 540]",ColorTask,97.0,39.0,,,HRV,HRV_0211,2022-11-30 19:07:14
,wl-rdm,156,491620,0.0-8.39-0.39,1.0,157.0,,,,,,,[],,,,,,53.2,1.0,i,1.0,True,1965.2000000476837,118.0,60.0,40.0,False,,271.34482005186885,[],"[960, 540]",ColorTask,98.0,40.0,,,HRV,HRV_0211,2022-11-30 19:07:14
,wl-rdm,157,494536,0.0-8.40-0.40,1.0,158.0,,,,,,,[],,,,,,50.0,0.0,u,0.0,True,1551.7000000476837,94.0,60.0,40.0,False,,296.11718502353585,[],"[960, 540]",ColorTask,99.0,41.0,,,HRV,HRV_0211,2022-11-30 19:07:14
,wl-rdm,158,497053,0.0-8.41-0.41,1.0,159.0,,,,,,,[],,,,,,73.6,1.0,i,1.0,True,1179.2999999523163,71.0,60.0,40.0,False,,257.63634155030667,[],"[960, 540]",ColorTask,100.0,42.0,,,HRV,HRV_0211,2022-11-30 19:07:14
,wl-rdm,159,499220,0.0-8.42-0.42,1.0,160.0,,,,,,,[],,,,,,73.6,1.0,i,1.0,True,806.2999999523163,49.0,60.0,40.0,False,,299.38710960567147,[],"[960, 540]",ColorTask,101.0,43.0,,,HRV,HRV_0211,2022-11-30 19:07:14
,wl-rdm,160,502353,0.0-8.43-0.43,1.0,161.0,,,,,,,[],,,,,,56.4,1.0,i,1.0,True,1843.8999999761581,111.0,60.0,40.0,False,,202.1546112281602,[],"[960, 540]",ColorTask,102.0,44.0,,,HRV,HRV_0211,2022-11-30 19:07:14
,wl-rdm,161,504386,0.0-8.44-0.44,1.0,162.0,,,,,,,[],,,,,,87.9,0.0,u,0.0,True,699.6999999284744,42.0,60.0,40.0,False,,250.14959170113778,[],"[960, 540]",ColorTask,103.0,45.0,,,HRV,HRV_0211,2022-11-30 19:07:14
,wl-rdm,162,507353,0.0-8.45-0.45,1.0,163.0,,,,,,,[],,,,,,73.6,0.0,u,0.0,True,1651.0,100.0,60.0,40.0,False,,223.62607302229384,[],"[960, 540]",ColorTask,104.0,46.0,,,HRV,HRV_0211,2022-11-30 19:07:14
,wl-rdm,163,509536,0.0-8.46-0.46,1.0,164.0,,,,,,,[],,,,,,73.6,1.0,i,1.0,True,767.8999999761581,47.0,60.0,40.0,False,,325.47044833439384,[],"[960, 540]",ColorTask,105.0,47.0,,,HRV,HRV_0211,2022-11-30 19:07:14
,wl-rdm,164,512603,0.0-8.47-0.47,1.0,165.0,,,,,,,[],,,,,,62.5,0.0,u,0.0,True,1658.5,100.0,60.0,40.0,False,,333.20340412818996,[],"[960, 540]",ColorTask,106.0,48.0,,,HRV,HRV_0211,2022-11-30 19:07:14
,wl-rdm,165,516003,0.0-8.48-0.48,1.0,166.0,,,,,,,[],,,,,,62.5,1.0,i,1.0,True,1964.7000000476837,118.0,60.0,40.0,False,,362.5246064702317,[],"[960, 540]",ColorTask,107.0,49.0,,,HRV,HRV_0211,2022-11-30 19:07:14
,wl-rdm,166,518753,0.0-8.49-0.49,1.0,167.0,,,,,,,[],,,,,,62.5,0.0,u,0.0,True,1442.2000000476837,87.0,60.0,40.0,False,,225.19265860136952,[],"[960, 540]",ColorTask,108.0,50.0,,,HRV,HRV_0211,2022-11-30 19:07:14
,wl-rdm,167,521270,0.0-8.50-0.50,1.0,168.0,,,,,,,[],,,,,,53.2,1.0,i,1.0,True,1061.5,64.0,60.0,40.0,False,,373.7329727633082,[],"[960, 540]",ColorTask,109.0,51.0,,,HRV,HRV_0211,2022-11-30 19:07:14
,wl-rdm,168,524003,0.0-8.51-0.51,1.0,169.0,,,,,,,[],,,,,,56.4,0.0,i,1.0,False,1366.3999999761581,82.0,60.0,40.0,False,,294.5624660252598,[],"[960, 540]",ColorTask,108.0,52.0,,,HRV,HRV_0211,2022-11-30 19:07:14
,wl-rdm,169,526436,0.0-8.52-0.52,1.0,170.0,,,,,,,[],,,,,,50.0,1.0,u,0.0,False,1012.8999999761581,61.0,60.0,40.0,False,,353.53033955023943,[],"[960, 540]",ColorTask,107.0,53.0,,,HRV,HRV_0211,2022-11-30 19:07:14
,wl-rdm,170,528686,0.0-8.53-0.53,1.0,171.0,,,,,,,[],,,,,,53.2,0.0,u,0.0,True,928.3000000715256,56.0,60.0,40.0,False,,238.40602995239584,[],"[960, 540]",ColorTask,108.0,54.0,,,HRV,HRV_0211,2022-11-30 19:07:14
,wl-rdm,171,530886,0.0-8.54-0.54,1.0,172.0,,,,,,,[],,,,,,62.5,0.0,u,0.0,True,828.3000000715256,50.0,60.0,40.0,False,,288.13813659988546,[],"[960, 540]",ColorTask,109.0,55.0,,,HRV,HRV_0211,2022-11-30 19:07:14
,wl-rdm,172,533786,0.0-8.55-0.55,1.0,173.0,,,,,,,[],,,,,,50.0,1.0,i,1.0,True,1569.0,95.0,60.0,40.0,False,,265.76888359338585,[],"[960, 540]",ColorTask,110.0,56.0,,,HRV,HRV_0211,2022-11-30 19:07:14
,wl-rdm,173,536569,0.0-8.56-0.56,1.0,174.0,,,,,,,[],,,,,,50.0,1.0,u,0.0,False,1475.9000000953674,89.0,60.0,40.0,False,,240.27002746893587,[],"[960, 540]",ColorTask,109.0,57.0,,,HRV,HRV_0211,2022-11-30 19:07:14
,wl-rdm,174,539270,0.0-8.57-0.57,1.0,175.0,,,,,,,[],,,,,,50.0,1.0,i,1.0,True,1261.2999999523163,76.0,60.0,40.0,False,,376.3064432759978,[],"[960, 540]",ColorTask,110.0,58.0,,,HRV,HRV_0211,2022-11-30 19:07:14
,wl-rdm,175,541986,0.0-8.58-0.58,1.0,176.0,,,,,,,[],,,,,,73.6,0.0,u,0.0,True,1241.2999999523163,75.0,60.0,40.0,False,,388.42353320750294,[],"[960, 540]",ColorTask,111.0,59.0,,,HRV,HRV_0211,2022-11-30 19:07:14
,wl-rdm,176,544436,0.0-8.59-0.59,1.0,177.0,,,,,,,[],,,,,,56.4,0.0,u,0.0,True,1096.2000000476837,66.0,60.0,40.0,False,,287.20809974120255,[],"[960, 540]",ColorTask,112.0,60.0,,,HRV,HRV_0211,2022-11-30 19:07:14
,wl-rdm,177,546836,0.0-8.60-0.60,1.0,178.0,,,,,,,[],,,,,,50.0,1.0,i,1.0,True,940.8999999761581,57.0,60.0,40.0,False,,368.3214873766442,[],"[960, 540]",ColorTask,113.0,61.0,,,HRV,HRV_0211,2022-11-30 19:07:14
,wl-rdm,178,549536,0.0-8.61-0.61,1.0,179.0,,,,,,,[],,,,,,53.2,0.0,u,0.0,True,1409.5,85.0,60.0,40.0,False,,203.98586266242194,[],"[960, 540]",ColorTask,114.0,62.0,,,HRV,HRV_0211,2022-11-30 19:07:14
,wl-rdm,179,551969,0.0-8.62-0.62,1.0,180.0,,,,,,,[],,,,,,62.5,0.0,u,0.0,True,989.6999999284744,60.0,60.0,40.0,False,,382.56426009297377,[],"[960, 540]",ColorTask,115.0,63.0,,,HRV,HRV_0211,2022-11-30 19:07:14
,wl-rdm,180,554254,0.0-8.63-0.63,1.0,181.0,,,,,,,[],,,,,,62.5,0.0,u,0.0,True,911.7000000476837,55.0,60.0,40.0,False,,303.8528955018323,[],"[960, 540]",ColorTask,116.0,64.0,,,HRV,HRV_0211,2022-11-30 19:07:14
,wl-rdm,181,556270,0.0-8.64-0.64,1.0,182.0,,,,,,,[],,,,,,87.9,0.0,u,0.0,True,721.3999998569489,44.0,60.0,40.0,False,,201.13569205273777,[],"[960, 540]",ColorTask,117.0,65.0,,,HRV,HRV_0211,2022-11-30 19:07:14
,wl-rdm,182,558820,0.0-8.65-0.65,1.0,183.0,,,,,,,[],,,,,,50.0,1.0,i,1.0,True,1249.2999999523163,75.0,60.0,40.0,False,,225.12074546557798,[],"[960, 540]",ColorTask,118.0,66.0,,,HRV,HRV_0211,2022-11-30 19:07:14
,wl-rdm,183,561487,0.0-8.66-0.66,1.0,184.0,,,,,,,[],,,,,,87.9,1.0,i,1.0,True,1228.5,74.0,60.0,40.0,False,,364.5851565723145,[],"[960, 540]",ColorTask,119.0,67.0,,,HRV,HRV_0211,2022-11-30 19:07:14
,wl-rdm,184,564054,0.0-8.67-0.67,1.0,185.0,,,,,,,[],,,,,,73.6,0.0,u,0.0,True,1255.6000000238419,76.0,60.0,40.0,False,,225.8732715430281,[],"[960, 540]",ColorTask,120.0,68.0,,,HRV,HRV_0211,2022-11-30 19:07:14
,wl-rdm,185,566570,0.0-8.68-0.68,1.0,186.0,,,,,,,[],,,,,,50.0,0.0,u,0.0,True,1135.1999999284744,69.0,60.0,40.0,False,,284.7862134142008,[],"[960, 540]",ColorTask,121.0,69.0,,,HRV,HRV_0211,2022-11-30 19:07:14
,wl-rdm,186,570087,0.0-8.69-0.69,1.0,187.0,,,,,,,[],,,,,,50.0,0.0,u,0.0,True,2188.799999833107,132.0,60.0,40.0,False,,243.41042244907857,[],"[960, 540]",ColorTask,122.0,70.0,,,HRV,HRV_0211,2022-11-30 19:07:14
,wl-rdm,187,573220,0.0-8.70-0.70,1.0,188.0,,,,,,,[],,,,,,62.5,1.0,i,1.0,True,1847.3999999761581,111.0,60.0,40.0,False,,207.60892126381646,[],"[960, 540]",ColorTask,123.0,71.0,,,HRV,HRV_0211,2022-11-30 19:07:14
,wl-rdm,188,575537,0.0-8.71-0.71,1.0,189.0,,,,,,,[],,,,,,56.4,1.0,u,0.0,False,901.8000000715256,55.0,60.0,40.0,False,,332.85488590174583,[],"[960, 540]",ColorTask,122.0,72.0,,,HRV,HRV_0211,2022-11-30 19:07:14
,wl-rdm,189,579687,0.0-8.72-0.72,1.0,190.0,,,,,,,[],,,,,,56.4,1.0,u,0.0,False,2694.899999976158,162.0,60.0,40.0,False,,382.90181142121764,[],"[960, 540]",ColorTask,121.0,73.0,,,HRV,HRV_0211,2022-11-30 19:07:14
,wl-rdm,190,581787,0.0-8.73-0.73,1.0,191.0,,,,,,,[],,,,,,62.5,1.0,i,1.0,True,700.8000000715256,43.0,60.0,40.0,False,,315.7776752149773,[],"[960, 540]",ColorTask,122.0,74.0,,,HRV,HRV_0211,2022-11-30 19:07:14
,wl-rdm,191,584037,0.0-8.74-0.74,1.0,192.0,,,,,,,[],,,,,,87.9,0.0,u,0.0,True,838.6999999284744,51.0,60.0,40.0,False,,326.40650711601796,[],"[960, 540]",ColorTask,123.0,75.0,,,HRV,HRV_0211,2022-11-30 19:07:14
,wl-rdm,192,586170,0.0-8.75-0.75,1.0,193.0,,,,,,,[],,,,,,87.9,0.0,u,0.0,True,734.8000000715256,45.0,60.0,40.0,False,,311.94495766886837,[],"[960, 540]",ColorTask,124.0,76.0,,,HRV,HRV_0211,2022-11-30 19:07:14
,wl-rdm,193,588320,0.0-8.76-0.76,1.0,194.0,,,,,,,[],,,,,,87.9,0.0,u,0.0,True,836.4000000953674,51.0,60.0,40.0,False,,222.99654266801463,[],"[960, 540]",ColorTask,125.0,77.0,,,HRV,HRV_0211,2022-11-30 19:07:14
,wl-rdm,194,590337,0.0-8.77-0.77,1.0,195.0,,,,,,,[],,,,,,87.9,1.0,i,1.0,True,691.5,42.0,60.0,40.0,False,,253.38401626205345,[],"[960, 540]",ColorTask,126.0,78.0,,,HRV,HRV_0211,2022-11-30 19:07:14
,wl-rdm,195,593920,0.0-8.78-0.78,1.0,196.0,,,,,,,[],,,,,,53.2,1.0,i,1.0,True,2279.2999999523163,137.0,60.0,40.0,False,,224.47918091204028,[],"[960, 540]",ColorTask,127.0,79.0,,,HRV,HRV_0211,2022-11-30 19:07:14
,wl-rdm,196,596404,0.0-8.79-0.79,1.0,197.0,,,,,,,[],,,,,,56.4,0.0,u,0.0,True,1183.0999999046326,71.0,60.0,40.0,False,,232.00303804219868,[],"[960, 540]",ColorTask,128.0,80.0,,,HRV,HRV_0211,2022-11-30 19:07:14
,wl-rdm,197,598520,0.0-8.80-0.80,1.0,198.0,,,,,,,[],,,,,,73.6,0.0,u,0.0,True,793.5,48.0,60.0,40.0,False,,235.5535126664272,[],"[960, 540]",ColorTask,129.0,81.0,,,HRV,HRV_0211,2022-11-30 19:07:14
,wl-rdm,198,600670,0.0-8.81-0.81,1.0,199.0,,,,,,,[],,,,,,87.9,1.0,i,1.0,True,854.2000000476837,52.0,60.0,40.0,False,,210.33868473907194,[],"[960, 540]",ColorTask,130.0,82.0,,,HRV,HRV_0211,2022-11-30 19:07:14
,wl-rdm,199,603504,0.0-8.82-0.82,1.0,200.0,,,,,,,[],,,,,,56.4,0.0,u,0.0,True,1361.2000000476837,82.0,60.0,40.0,False,,383.81454759327755,[],"[960, 540]",ColorTask,131.0,83.0,,,HRV,HRV_0211,2022-11-30 19:07:14
,wl-rdm,200,605870,0.0-8.83-0.83,1.0,201.0,,,,,,,[],,,,,,73.6,1.0,i,1.0,True,1081.5999999046326,65.0,60.0,40.0,False,,203.27754876811494,[],"[960, 540]",ColorTask,132.0,84.0,,,HRV,HRV_0211,2022-11-30 19:07:14
,wl-rdm,201,608653,0.0-8.84-0.84,1.0,202.0,,,,,,,[],,,,,,56.4,1.0,i,1.0,True,1363.6000000238419,82.0,60.0,40.0,False,,340.073614146709,[],"[960, 540]",ColorTask,133.0,85.0,,,HRV,HRV_0211,2022-11-30 19:07:14
,wl-rdm,202,610637,0.0-8.85-0.85,1.0,203.0,,,,,,,[],,,,,,73.6,1.0,i,1.0,True,663.5,40.0,60.0,40.0,False,,254.6666515425578,[],"[960, 540]",ColorTask,134.0,86.0,,,HRV,HRV_0211,2022-11-30 19:07:14
,wl-rdm,203,612736,0.0-8.86-0.86,1.0,204.0,,,,,,,[],,,,,,62.5,0.0,u,0.0,True,825.7999999523163,50.0,60.0,40.0,False,,200.98739226157042,[],"[960, 540]",ColorTask,135.0,87.0,,,HRV,HRV_0211,2022-11-30 19:07:14
,wl-rdm,204,615186,0.0-8.87-0.87,1.0,205.0,,,,,,,[],,,,,,62.5,0.0,i,1.0,False,1115.4999998807907,67.0,60.0,40.0,False,,263.57155038382916,[],"[960, 540]",ColorTask,134.0,88.0,,,HRV,HRV_0211,2022-11-30 19:07:14
,wl-rdm,205,617553,0.0-8.88-0.88,1.0,206.0,,,,,,,[],,,,,,73.6,1.0,i,1.0,True,1068.6000000238419,65.0,60.0,40.0,False,,225.4880693078462,[],"[960, 540]",ColorTask,135.0,89.0,,,HRV,HRV_0211,2022-11-30 19:07:14
,wl-rdm,206,619786,0.0-8.89-0.89,1.0,207.0,,,,,,,[],,,,,,87.9,0.0,u,0.0,True,891.1000000238419,54.0,60.0,40.0,False,,259.2175830243864,[],"[960, 540]",ColorTask,136.0,90.0,,,HRV,HRV_0211,2022-11-30 19:07:14
,wl-rdm,207,622120,0.0-8.90-0.90,1.0,208.0,,,,,,,[],,,,,,50.0,0.0,i,1.0,False,1002.2999999523163,61.0,60.0,40.0,False,,247.65517869935394,[],"[960, 540]",ColorTask,135.0,91.0,,,HRV,HRV_0211,2022-11-30 19:07:14
,wl-rdm,208,624103,0.0-8.91-0.91,1.0,209.0,,,,,,,[],,,,,,73.6,0.0,u,0.0,True,670.0000001192093,41.0,60.0,40.0,False,,227.40433864000428,[],"[960, 540]",ColorTask,136.0,92.0,,,HRV,HRV_0211,2022-11-30 19:07:14
,wl-rdm,209,626236,0.0-8.92-0.92,1.0,210.0,,,,,,,[],,,,,,73.6,0.0,u,0.0,True,772.7999999523163,47.0,60.0,40.0,False,,269.77782634681785,[],"[960, 540]",ColorTask,137.0,93.0,,,HRV,HRV_0211,2022-11-30 19:07:14
,wl-rdm,210,628403,0.0-8.93-0.93,1.0,211.0,,,,,,,[],,,,,,53.2,1.0,i,1.0,True,883.2999999523163,53.0,60.0,40.0,False,,212.37310478879064,[],"[960, 540]",ColorTask,138.0,94.0,,,HRV,HRV_0211,2022-11-30 19:07:14
,wl-rdm,211,631420,0.0-8.94-0.94,1.0,212.0,,,,,,,[],,,,,,50.0,0.0,u,0.0,True,1663.7999999523163,100.0,60.0,40.0,False,,296.302575640799,[],"[960, 540]",ColorTask,139.0,95.0,,,HRV,HRV_0211,2022-11-30 19:07:14
,wl-rdm,212,634253,0.0-8.95-0.95,1.0,213.0,,,,,,,[],,,,,,56.4,0.0,u,0.0,True,1505.3999999761581,91.0,60.0,40.0,False,,244.4258186364654,[],"[960, 540]",ColorTask,140.0,96.0,,,HRV,HRV_0211,2022-11-30 19:07:14
,wl-rdm,213,636820,0.0-8.96-0.96,1.0,214.0,,,,,,,[],,,,,,73.6,1.0,i,1.0,True,1156.3999999761581,70.0,60.0,40.0,False,,331.2403845910644,[],"[960, 540]",ColorTask,141.0,97.0,,,HRV,HRV_0211,2022-11-30 19:07:14
,wl-rdm,214,638986,0.0-8.97-0.97,1.0,215.0,,,,,,,[],,,,,,87.9,1.0,i,1.0,True,801.2000000476837,49.0,60.0,40.0,False,,272.7216830130054,[],"[960, 540]",ColorTask,142.0,98.0,,,HRV,HRV_0211,2022-11-30 19:07:14
,wl-rdm,215,641203,0.0-8.98-0.98,1.0,216.0,,,,,,,[],,,,,,50.0,0.0,u,0.0,True,764.7999999523163,46.0,60.0,40.0,False,,378.9207539751353,[],"[960, 540]",ColorTask,143.0,99.0,,,HRV,HRV_0211,2022-11-30 19:07:14
,wl-rdm,216,643670,0.0-8.99-0.99,1.0,217.0,,,,,,,[],,,,,,62.5,1.0,i,1.0,True,1104.7999999523163,67.0,60.0,40.0,False,,272.55918989692935,[],"[960, 540]",ColorTask,144.0,100.0,,,HRV,HRV_0211,2022-11-30 19:07:14
,wl-rdm,217,645836,0.0-8.100-0.100,1.0,218.0,,,,,,,[],,,,,,73.6,0.0,u,0.0,True,872.6000000238419,53.0,60.0,40.0,False,,213.4692348034091,[],"[960, 540]",ColorTask,145.0,101.0,,,HRV,HRV_0211,2022-11-30 19:07:14
,wl-rdm,218,649353,0.0-8.101-0.101,1.0,219.0,,,,,,,[],,,,,,56.4,1.0,i,1.0,True,2094.2000000476837,126.0,60.0,40.0,False,,346.99301852529675,[],"[960, 540]",ColorTask,146.0,102.0,,,HRV,HRV_0211,2022-11-30 19:07:14
,wl-rdm,219,651553,0.0-8.102-0.102,1.0,220.0,,,,,,,[],,,,,,56.4,0.0,u,0.0,True,868.2999999523163,53.0,60.0,40.0,False,,259.9172310708844,[],"[960, 540]",ColorTask,147.0,103.0,,,HRV,HRV_0211,2022-11-30 19:07:14
,wl-rdm,220,654320,0.0-8.103-0.103,1.0,221.0,,,,,,,[],,,,,,56.4,0.0,u,0.0,True,1477.2000000476837,89.0,60.0,40.0,False,,206.83973097572797,[],"[960, 540]",ColorTask,148.0,104.0,,,HRV,HRV_0211,2022-11-30 19:07:14
,wl-rdm,221,657553,0.0-8.104-0.104,1.0,222.0,,,,,,,[],,,,,,53.2,0.0,i,1.0,False,1867.9999998807907,113.0,60.0,40.0,False,,267.8399504738866,[],"[960, 540]",ColorTask,147.0,105.0,,,HRV,HRV_0211,2022-11-30 19:07:14
,wl-rdm,222,660103,0.0-8.105-0.105,1.0,223.0,,,,,,,[],,,,,,53.2,1.0,i,1.0,True,1229.299999833107,74.0,60.0,40.0,False,,238.76741056598138,[],"[960, 540]",ColorTask,148.0,106.0,,,HRV,HRV_0211,2022-11-30 19:07:14
,wl-rdm,223,662969,0.0-8.106-0.106,1.0,224.0,,,,,,,[],,,,,,50.0,0.0,u,0.0,True,1499.7000000476837,90.0,60.0,40.0,False,,290.10810125815925,[],"[960, 540]",ColorTask,149.0,107.0,,,HRV,HRV_0211,2022-11-30 19:07:14
,wl-rdm,224,664986,0.0-8.107-0.107,1.0,225.0,,,,,,,[],,,,,,87.9,1.0,i,1.0,True,582.5,35.0,60.0,40.0,False,,351.6702377911998,[],"[960, 540]",ColorTask,150.0,108.0,,,HRV,HRV_0211,2022-11-30 19:07:14
,wl-html-button-response,225,668566,0.0-9.0-0.0,,,,,,,,,,3574.399999976158,,0,,,,,,,,,,,,,,,,,,,,<h3>End of this session. Thank you!</h3><br>,['Close window'],HRV,HRV_0211,2022-11-30 19:07:14
