trialN,stimuli,trialStartTime,trialStartTime_UNIX,stimulus1,stimulus2,stimulus1Bid,stimulus2Bid,delta,selected,rt,rt_UNIX,rt_perfnow,receivedResponse,rsp,trialEndTime,trialDuration,trialEndTime_UNIX,trialDuration_UNIX,exp,subjectId,date
0,"[{'imgObject': {}, 'id': 'avocado', 'src': '/static/foodstim60/avocado.jpg', 'key': 'u', 'origWidth': 409, 'origHeight': 409, 'width': 409, 'height': 409, 'widthPercent': 0.45, 'rescaleHeight': False, 'trialN': 0, 'loaded': True, 'loadedTime': 3080.7999999523163, 'positionName': 'LEFT', 'positionCoords': [512.6, 335.5], 'bid': 3.63}, {'imgObject': {}, 'id': 'raspberries', 'src': '/static/foodstim60/raspberries.jpg', 'key': 'i', 'origWidth': 411, 'origHeight': 411, 'width': 411, 'height': 411, 'widthPercent': 0.45, 'rescaleHeight': False, 'trialN': 0, 'loaded': True, 'loadedTime': 3120.7000000476837, 'positionName': 'RIGHT', 'positionCoords': [998.4, 334.5], 'bid': 6.1000000000000005}]",3459.2999999523163,1669834288232,avocado,raspberries,3.63,6.1000000000000005,2.4700000000000006,raspberries,2320.100000023842,2320,2320.8000000715256,True,i,6283.799999952316,2824.5,1669834291056,2824,HRV,HRV_0211,2022-11-30 18:55:59
1,"[{'imgObject': {}, 'id': 'mac & cheese', 'src': '/static/foodstim60/mac & cheese.jpg', 'key': 'u', 'origWidth': 410, 'origHeight': 410, 'width': 410, 'height': 410, 'widthPercent': 0.45, 'rescaleHeight': False, 'trialN': 1, 'loaded': True, 'loadedTime': 3129.7999999523163, 'positionName': 'LEFT', 'positionCoords': [511.6, 335], 'bid': 7.83}, {'imgObject': {}, 'id': 'tacos', 'src': '/static/foodstim60/tacos.jpg', 'key': 'i', 'origWidth': 411, 'origHeight': 411, 'width': 411, 'height': 411, 'widthPercent': 0.45, 'rescaleHeight': False, 'trialN': 1, 'loaded': True, 'loadedTime': 3131.100000023842, 'positionName': 'RIGHT', 'positionCoords': [998.4, 334.5], 'bid': 6.8500000000000005}]",6284.100000023842,1669834291056,mac & cheese,tacos,7.83,6.8500000000000005,-0.9799999999999995,tacos,1719.1999999284744,1720,1719.6000000238419,True,i,8521.5,2237.399999976158,1669834293294,2238,HRV,HRV_0211,2022-11-30 18:55:59
2,"[{'imgObject': {}, 'id': 'rigatoni', 'src': '/static/foodstim60/rigatoni.jpg', 'key': 'u', 'origWidth': 411, 'origHeight': 411, 'width': 411, 'height': 411, 'widthPercent': 0.45, 'rescaleHeight': False, 'trialN': 2, 'loaded': True, 'loadedTime': 3136.100000023842, 'positionName': 'LEFT', 'positionCoords': [510.6, 334.5], 'bid': 5.72}, {'imgObject': {}, 'id': 'cocktailshrimp', 'src': '/static/foodstim60/cocktailshrimp.jpg', 'key': 'i', 'origWidth': 410, 'origHeight': 410, 'width': 410, 'height': 410, 'widthPercent': 0.45, 'rescaleHeight': False, 'trialN': 2, 'loaded': True, 'loadedTime': 3136.5, 'positionName': 'RIGHT', 'positionCoords': [998.4, 335], 'bid': 5.8500000000000005}]",8521.600000023842,1669834293294,rigatoni,cocktailshrimp,5.72,5.8500000000000005,0.13000000000000078,cocktailshrimp,1673.7999999523163,1674,1674.1000000238419,True,i,10696.5,2174.899999976158,1669834295469,2175,HRV,HRV_0211,2022-11-30 18:55:59
3,"[{'imgObject': {}, 'id': 'shreddedwheatwithmilk', 'src': '/static/foodstim60/shreddedwheatwithmilk.jpg', 'key': 'u', 'origWidth': 410, 'origHeight': 410, 'width': 410, 'height': 410, 'widthPercent': 0.45, 'rescaleHeight': False, 'trialN': 3, 'loaded': True, 'loadedTime': 3139.2999999523163, 'positionName': 'LEFT', 'positionCoords': [511.6, 335], 'bid': 5.46}, {'imgObject': {}, 'id': 'grilled chicken strips', 'src': '/static/foodstim60/grilled chicken strips.jpg', 'key': 'i', 'origWidth': 410, 'origHeight': 411, 'width': 410, 'height': 411, 'widthPercent': 0.45, 'rescaleHeight': False, 'trialN': 3, 'loaded': True, 'loadedTime': 3140.7999999523163, 'positionName': 'RIGHT', 'positionCoords': [998.4, 334.5], 'bid': 9.91}]",10696.799999952316,1669834295469,shreddedwheatwithmilk,grilled chicken strips,5.46,9.91,4.45,grilled chicken strips,1117.3000000715256,1118,1117.6000000238419,True,i,12318.799999952316,1622.0,1669834297091,1622,HRV,HRV_0211,2022-11-30 18:55:59
4,"[{'imgObject': {}, 'id': 'bagel plain', 'src': '/static/foodstim60/bagel plain.jpg', 'key': 'u', 'origWidth': 410, 'origHeight': 410, 'width': 410, 'height': 410, 'widthPercent': 0.45, 'rescaleHeight': False, 'trialN': 4, 'loaded': True, 'loadedTime': 3142, 'positionName': 'LEFT', 'positionCoords': [511.6, 335], 'bid': 7.44}, {'imgObject': {}, 'id': 'chickenfingers', 'src': '/static/foodstim60/chickenfingers.jpg', 'key': 'i', 'origWidth': 410, 'origHeight': 410, 'width': 410, 'height': 410, 'widthPercent': 0.45, 'rescaleHeight': False, 'trialN': 4, 'loaded': True, 'loadedTime': 3144, 'positionName': 'RIGHT', 'positionCoords': [998.4, 335], 'bid': 7.390000000000001}]",12319.0,1669834297091,bagel plain,chickenfingers,7.44,7.390000000000001,-0.04999999999999982,chickenfingers,1653.3999999761581,1654,1653.8999999761581,True,i,14483.799999952316,2164.7999999523163,1669834299256,2165,HRV,HRV_0211,2022-11-30 18:55:59
5,"[{'imgObject': {}, 'id': 'bagel plain', 'src': '/static/foodstim60/bagel plain.jpg', 'key': 'u', 'origWidth': 410, 'origHeight': 410, 'width': 410, 'height': 410, 'widthPercent': 0.45, 'rescaleHeight': False, 'trialN': 5, 'loaded': True, 'loadedTime': 3142.5, 'positionName': 'LEFT', 'positionCoords': [511.6, 335], 'bid': 7.44}, {'imgObject': {}, 'id': 'eggs', 'src': '/static/foodstim60/eggs.jpg', 'key': 'i', 'origWidth': 409, 'origHeight': 409, 'width': 409, 'height': 409, 'widthPercent': 0.45, 'rescaleHeight': False, 'trialN': 5, 'loaded': True, 'loadedTime': 3145.2000000476837, 'positionName': 'RIGHT', 'positionCoords': [998.4, 335.5], 'bid': 7.23}]",14484.100000023842,1669834299256,bagel plain,eggs,7.44,7.23,-0.20999999999999996,bagel plain,976.2999999523163,977,976.7999999523163,True,u,15976.899999976158,1492.7999999523163,1669834300749,1493,HRV,HRV_0211,2022-11-30 18:55:59
6,"[{'imgObject': {}, 'id': 'sushi w_condiments', 'src': '/static/foodstim60/sushi w_condiments.jpg', 'key': 'u', 'origWidth': 410, 'origHeight': 410, 'width': 410, 'height': 410, 'widthPercent': 0.45, 'rescaleHeight': False, 'trialN': 6, 'loaded': True, 'loadedTime': 3145.899999976158, 'positionName': 'LEFT', 'positionCoords': [511.6, 335], 'bid': 7.1000000000000005}, {'imgObject': {}, 'id': 'salmon', 'src': '/static/foodstim60/salmon.jpg', 'key': 'i', 'origWidth': 410, 'origHeight': 409, 'width': 410, 'height': 409, 'widthPercent': 0.45, 'rescaleHeight': False, 'trialN': 6, 'loaded': True, 'loadedTime': 3148.100000023842, 'positionName': 'RIGHT', 'positionCoords': [998.4, 335.5], 'bid': 10}]",15977.299999952316,1669834300749,sushi w_condiments,salmon,7.1000000000000005,10.0,2.8999999999999995,salmon,1434.7000000476837,1436,1435.3000000715256,True,i,17925.5,1948.2000000476837,1669834302698,1949,HRV,HRV_0211,2022-11-30 18:55:59
7,"[{'imgObject': {}, 'id': 'avocado', 'src': '/static/foodstim60/avocado.jpg', 'key': 'u', 'origWidth': 409, 'origHeight': 409, 'width': 409, 'height': 409, 'widthPercent': 0.45, 'rescaleHeight': False, 'trialN': 7, 'loaded': True, 'loadedTime': 3082.7000000476837, 'positionName': 'LEFT', 'positionCoords': [512.6, 335.5], 'bid': 3.63}, {'imgObject': {}, 'id': 'Tribe humus pita', 'src': '/static/foodstim60/Tribe humus pita.jpg', 'key': 'i', 'origWidth': 411, 'origHeight': 411, 'width': 411, 'height': 411, 'widthPercent': 0.45, 'rescaleHeight': False, 'trialN': 7, 'loaded': True, 'loadedTime': 3149.600000023842, 'positionName': 'RIGHT', 'positionCoords': [998.4, 334.5], 'bid': 5.08}]",17925.799999952316,1669834302698,avocado,Tribe humus pita,3.63,5.08,1.4500000000000002,Tribe humus pita,1038.9000000953674,1039,1039.4000000953674,True,i,19481.299999952316,1555.5,1669834304254,1556,HRV,HRV_0211,2022-11-30 18:55:59
8,"[{'imgObject': {}, 'id': 'cheerios', 'src': '/static/foodstim60/cheerios.jpg', 'key': 'u', 'origWidth': 409, 'origHeight': 410, 'width': 409, 'height': 410, 'widthPercent': 0.45, 'rescaleHeight': False, 'trialN': 8, 'loaded': True, 'loadedTime': 3151.2000000476837, 'positionName': 'LEFT', 'positionCoords': [512.6, 335], 'bid': 5.01}, {'imgObject': {}, 'id': 'sushi w_condiments', 'src': '/static/foodstim60/sushi w_condiments.jpg', 'key': 'i', 'origWidth': 410, 'origHeight': 410, 'width': 410, 'height': 410, 'widthPercent': 0.45, 'rescaleHeight': False, 'trialN': 8, 'loaded': True, 'loadedTime': 3146.7000000476837, 'positionName': 'RIGHT', 'positionCoords': [998.4, 335], 'bid': 7.1000000000000005}]",19481.600000023842,1669834304254,cheerios,sushi w_condiments,5.01,7.1000000000000005,2.0900000000000007,sushi w_condiments,970.7999999523163,971,971.2999999523163,True,i,20961.200000047684,1479.6000000238419,1669834305733,1479,HRV,HRV_0211,2022-11-30 18:55:59
9,"[{'imgObject': {}, 'id': 'cherries', 'src': '/static/foodstim60/cherries.jpg', 'key': 'u', 'origWidth': 410, 'origHeight': 411, 'width': 410, 'height': 411, 'widthPercent': 0.45, 'rescaleHeight': False, 'trialN': 9, 'loaded': True, 'loadedTime': 3152.5, 'positionName': 'LEFT', 'positionCoords': [511.6, 334.5], 'bid': 3.44}, {'imgObject': {}, 'id': 'mango', 'src': '/static/foodstim60/mango.jpg', 'key': 'i', 'origWidth': 411, 'origHeight': 411, 'width': 411, 'height': 411, 'widthPercent': 0.45, 'rescaleHeight': False, 'trialN': 9, 'loaded': True, 'loadedTime': 3154.7999999523163, 'positionName': 'RIGHT', 'positionCoords': [998.4, 334.5], 'bid': 3.97}]",20961.600000023842,1669834305734,cherries,mango,3.44,3.97,0.5300000000000002,mango,826.6999999284744,827,827.1999999284744,True,i,22295.799999952316,1334.1999999284744,1669834307068,1334,HRV,HRV_0211,2022-11-30 18:55:59
10,"[{'imgObject': {}, 'id': 'hotdog w must', 'src': '/static/foodstim60/hotdog w must.jpg', 'key': 'u', 'origWidth': 409, 'origHeight': 409, 'width': 409, 'height': 409, 'widthPercent': 0.45, 'rescaleHeight': False, 'trialN': 10, 'loaded': True, 'loadedTime': 3158.100000023842, 'positionName': 'LEFT', 'positionCoords': [512.6, 335.5], 'bid': 1.35}, {'imgObject': {}, 'id': 'edamame', 'src': '/static/foodstim60/edamame.jpg', 'key': 'i', 'origWidth': 409, 'origHeight': 410, 'width': 409, 'height': 410, 'widthPercent': 0.45, 'rescaleHeight': False, 'trialN': 10, 'loaded': True, 'loadedTime': 3171.399999976158, 'positionName': 'RIGHT', 'positionCoords': [998.4, 335], 'bid': 2.96}]",22296.100000023842,1669834307068,hotdog w must,edamame,1.35,2.96,1.6099999999999999,edamame,773.5,774,773.8999999761581,True,i,23571.600000023842,1275.5,1669834308344,1276,HRV,HRV_0211,2022-11-30 18:55:59
11,"[{'imgObject': {}, 'id': 'burger', 'src': '/static/foodstim60/burger.jpg', 'key': 'u', 'origWidth': 409, 'origHeight': 409, 'width': 409, 'height': 409, 'widthPercent': 0.45, 'rescaleHeight': False, 'trialN': 11, 'loaded': True, 'loadedTime': 3196.399999976158, 'positionName': 'LEFT', 'positionCoords': [512.6, 335.5], 'bid': 7.09}, {'imgObject': {}, 'id': 'rigatoni', 'src': '/static/foodstim60/rigatoni.jpg', 'key': 'i', 'origWidth': 411, 'origHeight': 411, 'width': 411, 'height': 411, 'widthPercent': 0.45, 'rescaleHeight': False, 'trialN': 11, 'loaded': True, 'loadedTime': 3135.399999976158, 'positionName': 'RIGHT', 'positionCoords': [998.4, 334.5], 'bid': 5.72}]",23571.799999952316,1669834308344,burger,rigatoni,7.09,5.72,-1.37,burger,1528.4000000953674,1529,1529.1000000238419,True,u,25603.399999976158,2031.6000000238419,1669834310376,2032,HRV,HRV_0211,2022-11-30 18:55:59
12,"[{'imgObject': {}, 'id': 'ice cream sundae 002', 'src': '/static/foodstim60/ice cream sundae 002.jpg', 'key': 'u', 'origWidth': 409, 'origHeight': 409, 'width': 409, 'height': 409, 'widthPercent': 0.45, 'rescaleHeight': False, 'trialN': 12, 'loaded': True, 'loadedTime': 3197.5, 'positionName': 'LEFT', 'positionCoords': [512.6, 335.5], 'bid': 3.23}, {'imgObject': {}, 'id': 'cocktailshrimp', 'src': '/static/foodstim60/cocktailshrimp.jpg', 'key': 'i', 'origWidth': 410, 'origHeight': 410, 'width': 410, 'height': 410, 'widthPercent': 0.45, 'rescaleHeight': False, 'trialN': 12, 'loaded': True, 'loadedTime': 3137.899999976158, 'positionName': 'RIGHT', 'positionCoords': [998.4, 335], 'bid': 5.8500000000000005}]",25603.700000047684,1669834310376,ice cream sundae 002,cocktailshrimp,3.23,5.8500000000000005,2.6200000000000006,cocktailshrimp,747.8999999761581,748,748.5,True,i,26860.299999952316,1256.5999999046326,1669834311632,1256,HRV,HRV_0211,2022-11-30 18:55:59
13,"[{'imgObject': {}, 'id': 'popsicles', 'src': '/static/foodstim60/popsicles.jpg', 'key': 'u', 'origWidth': 410, 'origHeight': 410, 'width': 410, 'height': 410, 'widthPercent': 0.45, 'rescaleHeight': False, 'trialN': 13, 'loaded': True, 'loadedTime': 3214, 'positionName': 'LEFT', 'positionCoords': [511.6, 335], 'bid': 3.68}, {'imgObject': {}, 'id': 'banana', 'src': '/static/foodstim60/banana.jpg', 'key': 'i', 'origWidth': 410, 'origHeight': 410, 'width': 410, 'height': 410, 'widthPercent': 0.45, 'rescaleHeight': False, 'trialN': 13, 'loaded': True, 'loadedTime': 3222.5, 'positionName': 'RIGHT', 'positionCoords': [998.4, 335], 'bid': 3.46}]",26860.5,1669834311633,popsicles,banana,3.68,3.46,-0.2200000000000002,banana,872.3999999761581,872,872.7999999523163,True,i,28239.700000047684,1379.2000000476837,1669834313012,1379,HRV,HRV_0211,2022-11-30 18:55:59
14,"[{'imgObject': {}, 'id': 'baked potato', 'src': '/static/foodstim60/baked potato.jpg', 'key': 'u', 'origWidth': 409, 'origHeight': 410, 'width': 409, 'height': 410, 'widthPercent': 0.45, 'rescaleHeight': False, 'trialN': 14, 'loaded': True, 'loadedTime': 3232.2000000476837, 'positionName': 'LEFT', 'positionCoords': [512.6, 335], 'bid': 6.5200000000000005}, {'imgObject': {}, 'id': 'turkey sandwich', 'src': '/static/foodstim60/turkey sandwich.jpg', 'key': 'i', 'origWidth': 409, 'origHeight': 409, 'width': 409, 'height': 409, 'widthPercent': 0.45, 'rescaleHeight': False, 'trialN': 14, 'loaded': True, 'loadedTime': 3242.2999999523163, 'positionName': 'RIGHT', 'positionCoords': [998.4, 335.5], 'bid': 6.76}]",28239.899999976158,1669834313012,baked potato,turkey sandwich,6.5200000000000005,6.76,0.23999999999999932,turkey sandwich,1028.3000000715256,1029,1028.8000000715256,True,i,29773.799999952316,1533.8999999761581,1669834314546,1534,HRV,HRV_0211,2022-11-30 18:55:59
15,"[{'imgObject': {}, 'id': 'orange slices', 'src': '/static/foodstim60/orange slices.jpg', 'key': 'u', 'origWidth': 409, 'origHeight': 410, 'width': 409, 'height': 410, 'widthPercent': 0.45, 'rescaleHeight': False, 'trialN': 15, 'loaded': True, 'loadedTime': 3259.5, 'positionName': 'LEFT', 'positionCoords': [512.6, 335], 'bid': 5.54}, {'imgObject': {}, 'id': 'fruitsalad', 'src': '/static/foodstim60/fruitsalad.jpg', 'key': 'i', 'origWidth': 410, 'origHeight': 410, 'width': 410, 'height': 410, 'widthPercent': 0.45, 'rescaleHeight': False, 'trialN': 15, 'loaded': True, 'loadedTime': 3268.5, 'positionName': 'RIGHT', 'positionCoords': [998.4, 335], 'bid': 4.66}]",29773.899999976158,1669834314546,orange slices,fruitsalad,5.54,4.66,-0.8799999999999999,orange slices,990.3000000715256,991,990.8000000715256,True,u,31274.200000047684,1500.3000000715256,1669834316046,1500,HRV,HRV_0211,2022-11-30 18:55:59
16,"[{'imgObject': {}, 'id': 'cantaloupe', 'src': '/static/foodstim60/cantaloupe.jpg', 'key': 'u', 'origWidth': 409, 'origHeight': 409, 'width': 409, 'height': 409, 'widthPercent': 0.45, 'rescaleHeight': False, 'trialN': 16, 'loaded': True, 'loadedTime': 3278.2000000476837, 'positionName': 'LEFT', 'positionCoords': [512.6, 335.5], 'bid': 6.09}, {'imgObject': {}, 'id': 'yogurt no spoon', 'src': '/static/foodstim60/yogurt no spoon.jpg', 'key': 'i', 'origWidth': 411, 'origHeight': 410, 'width': 411, 'height': 410, 'widthPercent': 0.45, 'rescaleHeight': False, 'trialN': 16, 'loaded': True, 'loadedTime': 3293.7999999523163, 'positionName': 'RIGHT', 'positionCoords': [998.4, 335], 'bid': 5.58}]",31274.399999976158,1669834316047,cantaloupe,yogurt no spoon,6.09,5.58,-0.5099999999999998,yogurt no spoon,1185.3999999761581,1185,1185.8999999761581,True,i,32967.299999952316,1692.8999999761581,1669834317740,1693,HRV,HRV_0211,2022-11-30 18:55:59
17,"[{'imgObject': {}, 'id': 'bagel plain', 'src': '/static/foodstim60/bagel plain.jpg', 'key': 'u', 'origWidth': 410, 'origHeight': 410, 'width': 410, 'height': 410, 'widthPercent': 0.45, 'rescaleHeight': False, 'trialN': 17, 'loaded': True, 'loadedTime': 3142.100000023842, 'positionName': 'LEFT', 'positionCoords': [511.6, 335], 'bid': 7.44}, {'imgObject': {}, 'id': 'baked potato', 'src': '/static/foodstim60/baked potato.jpg', 'key': 'i', 'origWidth': 409, 'origHeight': 410, 'width': 409, 'height': 410, 'widthPercent': 0.45, 'rescaleHeight': False, 'trialN': 17, 'loaded': True, 'loadedTime': 3232.100000023842, 'positionName': 'RIGHT', 'positionCoords': [998.4, 335], 'bid': 6.5200000000000005}]",32967.60000002384,1669834317740,bagel plain,baked potato,7.44,6.5200000000000005,-0.9199999999999999,bagel plain,1294.1999999284744,1295,1294.6999999284744,True,u,34775.60000002384,1808.0,1669834319548,1808,HRV,HRV_0211,2022-11-30 18:55:59
18,"[{'imgObject': {}, 'id': 'burrito', 'src': '/static/foodstim60/burrito.jpg', 'key': 'u', 'origWidth': 410, 'origHeight': 410, 'width': 410, 'height': 410, 'widthPercent': 0.45, 'rescaleHeight': False, 'trialN': 18, 'loaded': True, 'loadedTime': 3302.7000000476837, 'positionName': 'LEFT', 'positionCoords': [511.6, 335], 'bid': 3.96}, {'imgObject': {}, 'id': 'kiwi', 'src': '/static/foodstim60/kiwi.jpg', 'key': 'i', 'origWidth': 410, 'origHeight': 410, 'width': 410, 'height': 410, 'widthPercent': 0.45, 'rescaleHeight': False, 'trialN': 18, 'loaded': True, 'loadedTime': 3311.399999976158, 'positionName': 'RIGHT', 'positionCoords': [998.4, 335], 'bid': 3.79}]",34775.89999997616,1669834319548,burrito,kiwi,3.96,3.79,-0.16999999999999993,kiwi,876.3999999761581,877,876.8999999761581,True,i,36156.799999952316,1380.8999999761581,1669834320929,1381,HRV,HRV_0211,2022-11-30 18:55:59
19,"[{'imgObject': {}, 'id': 'grilled chicken strips', 'src': '/static/foodstim60/grilled chicken strips.jpg', 'key': 'u', 'origWidth': 410, 'origHeight': 411, 'width': 410, 'height': 411, 'widthPercent': 0.45, 'rescaleHeight': False, 'trialN': 19, 'loaded': True, 'loadedTime': 3139.7000000476837, 'positionName': 'LEFT', 'positionCoords': [511.6, 334.5], 'bid': 9.91}, {'imgObject': {}, 'id': 'chickenfingers', 'src': '/static/foodstim60/chickenfingers.jpg', 'key': 'i', 'origWidth': 410, 'origHeight': 410, 'width': 410, 'height': 410, 'widthPercent': 0.45, 'rescaleHeight': False, 'trialN': 19, 'loaded': True, 'loadedTime': 3144.2000000476837, 'positionName': 'RIGHT', 'positionCoords': [998.4, 335], 'bid': 7.390000000000001}]",36157.10000002384,1669834320929,grilled chicken strips,chickenfingers,9.91,7.390000000000001,-2.5199999999999996,chickenfingers,1015.1999999284744,1016,1015.6999999284744,True,i,37679.799999952316,1522.6999999284744,1669834322452,1523,HRV,HRV_0211,2022-11-30 18:55:59
20,"[{'imgObject': {}, 'id': 'fruitsalad', 'src': '/static/foodstim60/fruitsalad.jpg', 'key': 'u', 'origWidth': 410, 'origHeight': 410, 'width': 410, 'height': 410, 'widthPercent': 0.45, 'rescaleHeight': False, 'trialN': 20, 'loaded': True, 'loadedTime': 3268.600000023842, 'positionName': 'LEFT', 'positionCoords': [511.6, 335], 'bid': 4.66}, {'imgObject': {}, 'id': 'blueberries', 'src': '/static/foodstim60/blueberries.jpg', 'key': 'i', 'origWidth': 411, 'origHeight': 411, 'width': 411, 'height': 411, 'widthPercent': 0.45, 'rescaleHeight': False, 'trialN': 20, 'loaded': True, 'loadedTime': 3321.2999999523163, 'positionName': 'RIGHT', 'positionCoords': [998.4, 334.5], 'bid': 3.06}]",37680.0,1669834322452,fruitsalad,blueberries,4.66,3.06,-1.6,fruitsalad,1452.3999999761581,1453,1452.8999999761581,True,u,39635.60000002384,1955.6000000238419,1669834324408,1956,HRV,HRV_0211,2022-11-30 18:55:59
21,"[{'imgObject': {}, 'id': 'bagel and cc', 'src': '/static/foodstim60/bagel and cc.jpg', 'key': 'u', 'origWidth': 410, 'origHeight': 410, 'width': 410, 'height': 410, 'widthPercent': 0.45, 'rescaleHeight': False, 'trialN': 21, 'loaded': True, 'loadedTime': 3322.2000000476837, 'positionName': 'LEFT', 'positionCoords': [511.6, 335], 'bid': 10}, {'imgObject': {}, 'id': 'salad w chicken', 'src': '/static/foodstim60/salad w chicken.jpg', 'key': 'i', 'origWidth': 411, 'origHeight': 411, 'width': 411, 'height': 411, 'widthPercent': 0.45, 'rescaleHeight': False, 'trialN': 21, 'loaded': True, 'loadedTime': 3340.100000023842, 'positionName': 'RIGHT', 'positionCoords': [998.4, 334.5], 'bid': 7.82}]",39635.799999952316,1669834324408,bagel and cc,salad w chicken,10.0,7.82,-2.1799999999999997,bagel and cc,1145.0,1145,1145.4000000953674,True,u,41286.200000047684,1650.4000000953674,1669834326058,1650,HRV,HRV_0211,2022-11-30 18:55:59
22,"[{'imgObject': {}, 'id': 'apple slices', 'src': '/static/foodstim60/apple slices.jpg', 'key': 'u', 'origWidth': 409, 'origHeight': 410, 'width': 409, 'height': 410, 'widthPercent': 0.45, 'rescaleHeight': False, 'trialN': 22, 'loaded': True, 'loadedTime': 3340.2000000476837, 'positionName': 'LEFT', 'positionCoords': [512.6, 335], 'bid': 5.04}, {'imgObject': {}, 'id': 'chickenfingers', 'src': '/static/foodstim60/chickenfingers.jpg', 'key': 'i', 'origWidth': 410, 'origHeight': 410, 'width': 410, 'height': 410, 'widthPercent': 0.45, 'rescaleHeight': False, 'trialN': 22, 'loaded': True, 'loadedTime': 3142.7999999523163, 'positionName': 'RIGHT', 'positionCoords': [998.4, 335], 'bid': 7.390000000000001}]",41286.39999997616,1669834326059,apple slices,chickenfingers,5.04,7.390000000000001,2.3500000000000005,chickenfingers,1086.2000000476837,1086,1086.5,True,i,42875.60000002384,1589.2000000476837,1669834327648,1589,HRV,HRV_0211,2022-11-30 18:55:59
23,"[{'imgObject': {}, 'id': 'cherries', 'src': '/static/foodstim60/cherries.jpg', 'key': 'u', 'origWidth': 410, 'origHeight': 411, 'width': 410, 'height': 411, 'widthPercent': 0.45, 'rescaleHeight': False, 'trialN': 23, 'loaded': True, 'loadedTime': 3153.5, 'positionName': 'LEFT', 'positionCoords': [511.6, 334.5], 'bid': 3.44}, {'imgObject': {}, 'id': 'eggsalad', 'src': '/static/foodstim60/eggsalad.jpg', 'key': 'i', 'origWidth': 410, 'origHeight': 409, 'width': 410, 'height': 409, 'widthPercent': 0.45, 'rescaleHeight': False, 'trialN': 23, 'loaded': True, 'loadedTime': 3350.2000000476837, 'positionName': 'RIGHT', 'positionCoords': [998.4, 335.5], 'bid': 4.92}]",42875.799999952316,1669834327648,cherries,eggsalad,3.44,4.92,1.48,eggsalad,1176.4000000953674,1177,1177.0,True,i,44559.799999952316,1684.0,1669834329332,1684,HRV,HRV_0211,2022-11-30 18:55:59
24,"[{'imgObject': {}, 'id': 'cherry tomato', 'src': '/static/foodstim60/cherry tomato.jpg', 'key': 'u', 'origWidth': 410, 'origHeight': 410, 'width': 410, 'height': 410, 'widthPercent': 0.45, 'rescaleHeight': False, 'trialN': 24, 'loaded': True, 'loadedTime': 3358.600000023842, 'positionName': 'LEFT', 'positionCoords': [511.6, 335], 'bid': 5.01}, {'imgObject': {}, 'id': 'pear', 'src': '/static/foodstim60/pear.jpg', 'key': 'i', 'origWidth': 411, 'origHeight': 410, 'width': 411, 'height': 410, 'widthPercent': 0.45, 'rescaleHeight': False, 'trialN': 24, 'loaded': True, 'loadedTime': 3367.7999999523163, 'positionName': 'RIGHT', 'positionCoords': [998.4, 335], 'bid': 5.01}]",44560.200000047684,1669834329332,cherry tomato,pear,5.01,5.01,0.0,pear,1094.1999999284744,1095,1094.5999999046326,True,i,46172.200000047684,1612.0,1669834330944,1612,HRV,HRV_0211,2022-11-30 18:55:59
25,"[{'imgObject': {}, 'id': 'omelette', 'src': '/static/foodstim60/omelette.jpg', 'key': 'u', 'origWidth': 410, 'origHeight': 409, 'width': 410, 'height': 409, 'widthPercent': 0.45, 'rescaleHeight': False, 'trialN': 25, 'loaded': True, 'loadedTime': 3369, 'positionName': 'LEFT', 'positionCoords': [511.6, 335.5], 'bid': 5.09}, {'imgObject': {}, 'id': 'granola w milk', 'src': '/static/foodstim60/granola w milk.jpg', 'key': 'i', 'origWidth': 410, 'origHeight': 410, 'width': 410, 'height': 410, 'widthPercent': 0.45, 'rescaleHeight': False, 'trialN': 25, 'loaded': True, 'loadedTime': 3377.2000000476837, 'positionName': 'RIGHT', 'positionCoords': [998.4, 335], 'bid': 5.21}]",46172.39999997616,1669834330945,omelette,granola w milk,5.09,5.21,0.1200000000000001,granola w milk,1615.8999999761581,1616,1616.3000000715256,True,i,48297.700000047684,2125.3000000715256,1669834333070,2125,HRV,HRV_0211,2022-11-30 18:55:59
26,"[{'imgObject': {}, 'id': 'olives', 'src': '/static/foodstim60/olives.jpg', 'key': 'u', 'origWidth': 410, 'origHeight': 410, 'width': 410, 'height': 410, 'widthPercent': 0.45, 'rescaleHeight': False, 'trialN': 26, 'loaded': True, 'loadedTime': 3378.2999999523163, 'positionName': 'LEFT', 'positionCoords': [511.6, 335], 'bid': 5.22}, {'imgObject': {}, 'id': 'mac & cheese', 'src': '/static/foodstim60/mac & cheese.jpg', 'key': 'i', 'origWidth': 410, 'origHeight': 410, 'width': 410, 'height': 410, 'widthPercent': 0.45, 'rescaleHeight': False, 'trialN': 26, 'loaded': True, 'loadedTime': 3130.5, 'positionName': 'RIGHT', 'positionCoords': [998.4, 335], 'bid': 7.83}]",48298.0,1669834333070,olives,mac & cheese,5.22,7.83,2.6100000000000003,olives,1026.3999999761581,1027,1027.0,True,u,49833.200000047684,1535.2000000476837,1669834334605,1535,HRV,HRV_0211,2022-11-30 18:55:59
27,"[{'imgObject': {}, 'id': 'shreddedwheatwithmilk', 'src': '/static/foodstim60/shreddedwheatwithmilk.jpg', 'key': 'u', 'origWidth': 410, 'origHeight': 410, 'width': 410, 'height': 410, 'widthPercent': 0.45, 'rescaleHeight': False, 'trialN': 27, 'loaded': True, 'loadedTime': 3139.5, 'positionName': 'LEFT', 'positionCoords': [511.6, 335], 'bid': 5.46}, {'imgObject': {}, 'id': 'rigatoni', 'src': '/static/foodstim60/rigatoni.jpg', 'key': 'i', 'origWidth': 411, 'origHeight': 411, 'width': 411, 'height': 411, 'widthPercent': 0.45, 'rescaleHeight': False, 'trialN': 27, 'loaded': True, 'loadedTime': 3136.2999999523163, 'positionName': 'RIGHT', 'positionCoords': [998.4, 334.5], 'bid': 5.72}]",49833.39999997616,1669834334605,shreddedwheatwithmilk,rigatoni,5.46,5.72,0.2599999999999998,shreddedwheatwithmilk,1243.0,1243,1243.6000000238419,True,u,51594.200000047684,1760.8000000715256,1669834336366,1761,HRV,HRV_0211,2022-11-30 18:55:59
28,"[{'imgObject': {}, 'id': 'avocado', 'src': '/static/foodstim60/avocado.jpg', 'key': 'u', 'origWidth': 409, 'origHeight': 409, 'width': 409, 'height': 409, 'widthPercent': 0.45, 'rescaleHeight': False, 'trialN': 28, 'loaded': True, 'loadedTime': 3093.899999976158, 'positionName': 'LEFT', 'positionCoords': [512.6, 335.5], 'bid': 3.63}, {'imgObject': {}, 'id': 'hotdog w must', 'src': '/static/foodstim60/hotdog w must.jpg', 'key': 'i', 'origWidth': 409, 'origHeight': 409, 'width': 409, 'height': 409, 'widthPercent': 0.45, 'rescaleHeight': False, 'trialN': 28, 'loaded': True, 'loadedTime': 3158.2000000476837, 'positionName': 'RIGHT', 'positionCoords': [998.4, 335.5], 'bid': 1.35}]",51594.5,1669834336366,avocado,hotdog w must,3.63,1.35,-2.28,avocado,1169.7999999523163,1170,1170.2000000476837,True,u,53278.299999952316,1683.7999999523163,1669834338050,1684,HRV,HRV_0211,2022-11-30 18:55:59
29,"[{'imgObject': {}, 'id': 'shreddedwheatwithmilk', 'src': '/static/foodstim60/shreddedwheatwithmilk.jpg', 'key': 'u', 'origWidth': 410, 'origHeight': 410, 'width': 410, 'height': 410, 'widthPercent': 0.45, 'rescaleHeight': False, 'trialN': 29, 'loaded': True, 'loadedTime': 3139.5, 'positionName': 'LEFT', 'positionCoords': [511.6, 335], 'bid': 5.46}, {'imgObject': {}, 'id': 'olives', 'src': '/static/foodstim60/olives.jpg', 'key': 'i', 'origWidth': 410, 'origHeight': 410, 'width': 410, 'height': 410, 'widthPercent': 0.45, 'rescaleHeight': False, 'trialN': 29, 'loaded': True, 'loadedTime': 3379, 'positionName': 'RIGHT', 'positionCoords': [998.4, 335], 'bid': 5.22}]",53278.5,1669834338050,shreddedwheatwithmilk,olives,5.46,5.22,-0.2400000000000002,olives,1165.7999999523163,1166,1166.2999999523163,True,i,54953.700000047684,1675.2000000476837,1669834339725,1675,HRV,HRV_0211,2022-11-30 18:55:59
30,"[{'imgObject': {}, 'id': 'raisin bran w milk', 'src': '/static/foodstim60/raisin bran w milk.jpg', 'key': 'u', 'origWidth': 411, 'origHeight': 411, 'width': 411, 'height': 411, 'widthPercent': 0.45, 'rescaleHeight': False, 'trialN': 30, 'loaded': True, 'loadedTime': 3396.600000023842, 'positionName': 'LEFT', 'positionCoords': [510.6, 334.5], 'bid': 4.91}, {'imgObject': {}, 'id': 'ice cream sundae 002', 'src': '/static/foodstim60/ice cream sundae 002.jpg', 'key': 'i', 'origWidth': 409, 'origHeight': 409, 'width': 409, 'height': 409, 'widthPercent': 0.45, 'rescaleHeight': False, 'trialN': 30, 'loaded': True, 'loadedTime': 3197.600000023842, 'positionName': 'RIGHT', 'positionCoords': [998.4, 335.5], 'bid': 3.23}]",54953.89999997616,1669834339725,raisin bran w milk,ice cream sundae 002,4.91,3.23,-1.6800000000000002,raisin bran w milk,900.1000000238419,901,900.5,True,u,56364.5,1410.6000000238419,1669834341136,1411,HRV,HRV_0211,2022-11-30 18:55:59
31,"[{'imgObject': {}, 'id': 'omelette', 'src': '/static/foodstim60/omelette.jpg', 'key': 'u', 'origWidth': 410, 'origHeight': 409, 'width': 410, 'height': 409, 'widthPercent': 0.45, 'rescaleHeight': False, 'trialN': 31, 'loaded': True, 'loadedTime': 3368.600000023842, 'positionName': 'LEFT', 'positionCoords': [511.6, 335.5], 'bid': 5.09}, {'imgObject': {}, 'id': 'popsicles', 'src': '/static/foodstim60/popsicles.jpg', 'key': 'i', 'origWidth': 410, 'origHeight': 410, 'width': 410, 'height': 410, 'widthPercent': 0.45, 'rescaleHeight': False, 'trialN': 31, 'loaded': True, 'loadedTime': 3206.5, 'positionName': 'RIGHT', 'positionCoords': [998.4, 335], 'bid': 3.68}]",56364.700000047684,1669834341136,omelette,popsicles,5.09,3.68,-1.4099999999999997,omelette,759.5999999046326,760,760.1999999284744,True,u,57637.89999997616,1273.1999999284744,1669834342409,1273,HRV,HRV_0211,2022-11-30 18:55:59
32,"[{'imgObject': {}, 'id': 'corn cob', 'src': '/static/foodstim60/corn cob.jpg', 'key': 'u', 'origWidth': 411, 'origHeight': 411, 'width': 411, 'height': 411, 'widthPercent': 0.45, 'rescaleHeight': False, 'trialN': 32, 'loaded': True, 'loadedTime': 3396.7000000476837, 'positionName': 'LEFT', 'positionCoords': [510.6, 334.5], 'bid': 4.17}, {'imgObject': {}, 'id': 'burrito', 'src': '/static/foodstim60/burrito.jpg', 'key': 'i', 'origWidth': 410, 'origHeight': 410, 'width': 410, 'height': 410, 'widthPercent': 0.45, 'rescaleHeight': False, 'trialN': 32, 'loaded': True, 'loadedTime': 3311, 'positionName': 'RIGHT', 'positionCoords': [998.4, 335], 'bid': 3.96}]",57638.0,1669834342410,corn cob,burrito,4.17,3.96,-0.20999999999999996,corn cob,1182.2999999523163,1182,1182.8999999761581,True,u,59324.10000002384,1686.1000000238419,1669834344096,1686,HRV,HRV_0211,2022-11-30 18:55:59
33,"[{'imgObject': {}, 'id': 'grilled chicken strips', 'src': '/static/foodstim60/grilled chicken strips.jpg', 'key': 'u', 'origWidth': 410, 'origHeight': 411, 'width': 410, 'height': 411, 'widthPercent': 0.45, 'rescaleHeight': False, 'trialN': 33, 'loaded': True, 'loadedTime': 3141.100000023842, 'positionName': 'LEFT', 'positionCoords': [511.6, 334.5], 'bid': 9.91}, {'imgObject': {}, 'id': 'veggieswithdip', 'src': '/static/foodstim60/veggieswithdip.jpg', 'key': 'i', 'origWidth': 409, 'origHeight': 409, 'width': 409, 'height': 409, 'widthPercent': 0.45, 'rescaleHeight': False, 'trialN': 33, 'loaded': True, 'loadedTime': 3397.899999976158, 'positionName': 'RIGHT', 'positionCoords': [998.4, 335.5], 'bid': 6.87}]",59324.299999952316,1669834344096,grilled chicken strips,veggieswithdip,9.91,6.87,-3.04,grilled chicken strips,1192.0,1192,1192.7000000476837,True,u,61032.60000002384,1708.3000000715256,1669834345804,1708,HRV,HRV_0211,2022-11-30 18:55:59
34,"[{'imgObject': {}, 'id': 'orange slices', 'src': '/static/foodstim60/orange slices.jpg', 'key': 'u', 'origWidth': 409, 'origHeight': 410, 'width': 409, 'height': 410, 'widthPercent': 0.45, 'rescaleHeight': False, 'trialN': 34, 'loaded': True, 'loadedTime': 3251.600000023842, 'positionName': 'LEFT', 'positionCoords': [512.6, 335], 'bid': 5.54}, {'imgObject': {}, 'id': 'lox', 'src': '/static/foodstim60/lox.jpg', 'key': 'i', 'origWidth': 410, 'origHeight': 411, 'width': 410, 'height': 411, 'widthPercent': 0.45, 'rescaleHeight': False, 'trialN': 34, 'loaded': True, 'loadedTime': 3407.100000023842, 'positionName': 'RIGHT', 'positionCoords': [998.4, 334.5], 'bid': 5.28}]",61032.799999952316,1669834345804,orange slices,lox,5.54,5.28,-0.2599999999999998,orange slices,1243.6000000238419,1244,1244.1000000238419,True,u,62781.700000047684,1748.9000000953674,1669834347553,1749,HRV,HRV_0211,2022-11-30 18:55:59
35,"[{'imgObject': {}, 'id': 'ice cream sundae 002', 'src': '/static/foodstim60/ice cream sundae 002.jpg', 'key': 'u', 'origWidth': 409, 'origHeight': 409, 'width': 409, 'height': 409, 'widthPercent': 0.45, 'rescaleHeight': False, 'trialN': 35, 'loaded': True, 'loadedTime': 3196.5, 'positionName': 'LEFT', 'positionCoords': [512.6, 335.5], 'bid': 3.23}, {'imgObject': {}, 'id': 'edamame', 'src': '/static/foodstim60/edamame.jpg', 'key': 'i', 'origWidth': 409, 'origHeight': 410, 'width': 409, 'height': 410, 'widthPercent': 0.45, 'rescaleHeight': False, 'trialN': 35, 'loaded': True, 'loadedTime': 3179.899999976158, 'positionName': 'RIGHT', 'positionCoords': [998.4, 335], 'bid': 2.96}]",62781.89999997616,1669834347553,ice cream sundae 002,edamame,3.23,2.96,-0.27,edamame,1182.7000000476837,1184,1183.3000000715256,True,i,64470.200000047684,1688.3000000715256,1669834349242,1689,HRV,HRV_0211,2022-11-30 18:55:59
36,"[{'imgObject': {}, 'id': 'cantaloupe', 'src': '/static/foodstim60/cantaloupe.jpg', 'key': 'u', 'origWidth': 409, 'origHeight': 409, 'width': 409, 'height': 409, 'widthPercent': 0.45, 'rescaleHeight': False, 'trialN': 36, 'loaded': True, 'loadedTime': 3278, 'positionName': 'LEFT', 'positionCoords': [512.6, 335.5], 'bid': 6.09}, {'imgObject': {}, 'id': 'chickenfingers', 'src': '/static/foodstim60/chickenfingers.jpg', 'key': 'i', 'origWidth': 410, 'origHeight': 410, 'width': 410, 'height': 410, 'widthPercent': 0.45, 'rescaleHeight': False, 'trialN': 36, 'loaded': True, 'loadedTime': 3143.600000023842, 'positionName': 'RIGHT', 'positionCoords': [998.4, 335], 'bid': 7.390000000000001}]",64470.39999997616,1669834349242,cantaloupe,chickenfingers,6.09,7.390000000000001,1.3000000000000007,cantaloupe,872.0,873,872.6000000238419,True,u,65865.10000002384,1394.7000000476837,1669834350637,1395,HRV,HRV_0211,2022-11-30 18:55:59
37,"[{'imgObject': {}, 'id': 'salmon', 'src': '/static/foodstim60/salmon.jpg', 'key': 'u', 'origWidth': 410, 'origHeight': 409, 'width': 410, 'height': 409, 'widthPercent': 0.45, 'rescaleHeight': False, 'trialN': 37, 'loaded': True, 'loadedTime': 3147.2000000476837, 'positionName': 'LEFT', 'positionCoords': [511.6, 335.5], 'bid': 10}, {'imgObject': {}, 'id': 'bagel and cc', 'src': '/static/foodstim60/bagel and cc.jpg', 'key': 'i', 'origWidth': 410, 'origHeight': 410, 'width': 410, 'height': 410, 'widthPercent': 0.45, 'rescaleHeight': False, 'trialN': 37, 'loaded': True, 'loadedTime': 3330.399999976158, 'positionName': 'RIGHT', 'positionCoords': [998.4, 335], 'bid': 10}]",65865.29999995232,1669834350637,salmon,bagel and cc,10.0,10.0,0.0,bagel and cc,1380.4000000953674,1381,1380.8000000715256,True,i,67761.39999997616,1896.1000000238419,1669834352533,1896,HRV,HRV_0211,2022-11-30 18:55:59
38,"[{'imgObject': {}, 'id': 'burger', 'src': '/static/foodstim60/burger.jpg', 'key': 'u', 'origWidth': 409, 'origHeight': 409, 'width': 409, 'height': 409, 'widthPercent': 0.45, 'rescaleHeight': False, 'trialN': 38, 'loaded': True, 'loadedTime': 3180.899999976158, 'positionName': 'LEFT', 'positionCoords': [512.6, 335.5], 'bid': 7.09}, {'imgObject': {}, 'id': 'steak', 'src': '/static/foodstim60/steak.jpg', 'key': 'i', 'origWidth': 410, 'origHeight': 410, 'width': 410, 'height': 410, 'widthPercent': 0.45, 'rescaleHeight': False, 'trialN': 38, 'loaded': True, 'loadedTime': 3414.7000000476837, 'positionName': 'RIGHT', 'positionCoords': [998.4, 335], 'bid': 9.98}]",67761.60000002384,1669834352533,burger,steak,7.09,9.98,2.8900000000000006,burger,1283.0,1284,1283.5,True,u,69560.79999995232,1799.1999999284744,1669834354332,1799,HRV,HRV_0211,2022-11-30 18:55:59
39,"[{'imgObject': {}, 'id': 'seaweed', 'src': '/static/foodstim60/seaweed.jpg', 'key': 'u', 'origWidth': 410, 'origHeight': 410, 'width': 410, 'height': 410, 'widthPercent': 0.45, 'rescaleHeight': False, 'trialN': 39, 'loaded': True, 'loadedTime': 3416.2000000476837, 'positionName': 'LEFT', 'positionCoords': [511.6, 335], 'bid': 4.98}, {'imgObject': {}, 'id': 'edamame', 'src': '/static/foodstim60/edamame.jpg', 'key': 'i', 'origWidth': 409, 'origHeight': 410, 'width': 409, 'height': 410, 'widthPercent': 0.45, 'rescaleHeight': False, 'trialN': 39, 'loaded': True, 'loadedTime': 3170.600000023842, 'positionName': 'RIGHT', 'positionCoords': [998.4, 335], 'bid': 2.96}]",69561.0,1669834354333,seaweed,edamame,4.98,2.96,-2.0200000000000005,seaweed,979.6000000238419,980,980.1000000238419,True,u,71047.79999995232,1486.7999999523163,1669834355819,1486,HRV,HRV_0211,2022-11-30 18:55:59
40,"[{'imgObject': {}, 'id': 'roastedpotatoes', 'src': '/static/foodstim60/roastedpotatoes.jpg', 'key': 'u', 'origWidth': 409, 'origHeight': 410, 'width': 409, 'height': 410, 'widthPercent': 0.45, 'rescaleHeight': False, 'trialN': 40, 'loaded': True, 'loadedTime': 3417.7999999523163, 'positionName': 'LEFT', 'positionCoords': [512.6, 335], 'bid': 6.73}, {'imgObject': {}, 'id': 'turkey sandwich', 'src': '/static/foodstim60/turkey sandwich.jpg', 'key': 'i', 'origWidth': 409, 'origHeight': 409, 'width': 409, 'height': 409, 'widthPercent': 0.45, 'rescaleHeight': False, 'trialN': 40, 'loaded': True, 'loadedTime': 3250.2000000476837, 'positionName': 'RIGHT', 'positionCoords': [998.4, 335.5], 'bid': 6.76}]",71048.10000002384,1669834355820,roastedpotatoes,turkey sandwich,6.73,6.76,0.02999999999999936,turkey sandwich,1093.5,1094,1093.8999999761581,True,i,72651.10000002384,1603.0,1669834357423,1603,HRV,HRV_0211,2022-11-30 18:55:59
41,"[{'imgObject': {}, 'id': 'raisin bran w milk', 'src': '/static/foodstim60/raisin bran w milk.jpg', 'key': 'u', 'origWidth': 411, 'origHeight': 411, 'width': 411, 'height': 411, 'widthPercent': 0.45, 'rescaleHeight': False, 'trialN': 41, 'loaded': True, 'loadedTime': 3388.2999999523163, 'positionName': 'LEFT', 'positionCoords': [510.6, 334.5], 'bid': 4.91}, {'imgObject': {}, 'id': 'hashbrowns', 'src': '/static/foodstim60/hashbrowns.jpg', 'key': 'i', 'origWidth': 411, 'origHeight': 410, 'width': 411, 'height': 410, 'widthPercent': 0.45, 'rescaleHeight': False, 'trialN': 41, 'loaded': True, 'loadedTime': 3418.600000023842, 'positionName': 'RIGHT', 'positionCoords': [998.4, 335], 'bid': 4.97}]",72651.39999997616,1669834357423,raisin bran w milk,hashbrowns,4.91,4.97,0.05999999999999961,raisin bran w milk,1033.7000000476837,1034,1034.3999999761581,True,u,74193.79999995232,1542.3999999761581,1669834358965,1542,HRV,HRV_0211,2022-11-30 18:55:59
42,"[{'imgObject': {}, 'id': 'shreddedwheatwithmilk', 'src': '/static/foodstim60/shreddedwheatwithmilk.jpg', 'key': 'u', 'origWidth': 410, 'origHeight': 410, 'width': 410, 'height': 410, 'widthPercent': 0.45, 'rescaleHeight': False, 'trialN': 42, 'loaded': True, 'loadedTime': 3139, 'positionName': 'LEFT', 'positionCoords': [511.6, 335], 'bid': 5.46}, {'imgObject': {}, 'id': 'corn cob', 'src': '/static/foodstim60/corn cob.jpg', 'key': 'i', 'origWidth': 411, 'origHeight': 411, 'width': 411, 'height': 411, 'widthPercent': 0.45, 'rescaleHeight': False, 'trialN': 42, 'loaded': True, 'loadedTime': 3397.5, 'positionName': 'RIGHT', 'positionCoords': [998.4, 334.5], 'bid': 4.17}]",74194.10000002384,1669834358966,shreddedwheatwithmilk,corn cob,5.46,4.17,-1.29,corn cob,745.8999999761581,746,746.3999999761581,True,i,75450.60000002384,1256.5,1669834360222,1256,HRV,HRV_0211,2022-11-30 18:55:59
43,"[{'imgObject': {}, 'id': 'shreddedwheatwithmilk', 'src': '/static/foodstim60/shreddedwheatwithmilk.jpg', 'key': 'u', 'origWidth': 410, 'origHeight': 410, 'width': 410, 'height': 410, 'widthPercent': 0.45, 'rescaleHeight': False, 'trialN': 43, 'loaded': True, 'loadedTime': 3138.2999999523163, 'positionName': 'LEFT', 'positionCoords': [511.6, 335], 'bid': 5.46}, {'imgObject': {}, 'id': 'orange slices', 'src': '/static/foodstim60/orange slices.jpg', 'key': 'i', 'origWidth': 409, 'origHeight': 410, 'width': 409, 'height': 410, 'widthPercent': 0.45, 'rescaleHeight': False, 'trialN': 43, 'loaded': True, 'loadedTime': 3259.7999999523163, 'positionName': 'RIGHT', 'positionCoords': [998.4, 335], 'bid': 5.54}]",75450.79999995232,1669834360222,shreddedwheatwithmilk,orange slices,5.46,5.54,0.08000000000000007,orange slices,681.2000000476837,682,681.6000000238419,True,i,76641.10000002384,1190.3000000715256,1669834361413,1191,HRV,HRV_0211,2022-11-30 18:55:59
44,"[{'imgObject': {}, 'id': 'apple slices', 'src': '/static/foodstim60/apple slices.jpg', 'key': 'u', 'origWidth': 409, 'origHeight': 410, 'width': 409, 'height': 410, 'widthPercent': 0.45, 'rescaleHeight': False, 'trialN': 44, 'loaded': True, 'loadedTime': 3348.899999976158, 'positionName': 'LEFT', 'positionCoords': [512.6, 335], 'bid': 5.04}, {'imgObject': {}, 'id': 'eggsalad', 'src': '/static/foodstim60/eggsalad.jpg', 'key': 'i', 'origWidth': 410, 'origHeight': 409, 'width': 410, 'height': 409, 'widthPercent': 0.45, 'rescaleHeight': False, 'trialN': 44, 'loaded': True, 'loadedTime': 3350.399999976158, 'positionName': 'RIGHT', 'positionCoords': [998.4, 335.5], 'bid': 4.92}]",76641.29999995232,1669834361413,apple slices,eggsalad,5.04,4.92,-0.1200000000000001,apple slices,861.4000000953674,862,862.0,True,u,78021.79999995232,1380.5,1669834362793,1380,HRV,HRV_0211,2022-11-30 18:55:59
45,"[{'imgObject': {}, 'id': 'blackbeanswithrice', 'src': '/static/foodstim60/blackbeanswithrice.jpg', 'key': 'u', 'origWidth': 410, 'origHeight': 410, 'width': 410, 'height': 410, 'widthPercent': 0.45, 'rescaleHeight': False, 'trialN': 45, 'loaded': True, 'loadedTime': 3434.7000000476837, 'positionName': 'LEFT', 'positionCoords': [511.6, 335], 'bid': 6.8500000000000005}, {'imgObject': {}, 'id': 'hashbrowns', 'src': '/static/foodstim60/hashbrowns.jpg', 'key': 'i', 'origWidth': 411, 'origHeight': 410, 'width': 411, 'height': 410, 'widthPercent': 0.45, 'rescaleHeight': False, 'trialN': 45, 'loaded': True, 'loadedTime': 3418.7999999523163, 'positionName': 'RIGHT', 'positionCoords': [998.4, 335], 'bid': 4.97}]",78022.10000002384,1669834362794,blackbeanswithrice,hashbrowns,6.8500000000000005,4.97,-1.8800000000000008,blackbeanswithrice,894.3999999761581,895,894.8999999761581,True,u,79426.39999997616,1404.2999999523163,1669834364198,1404,HRV,HRV_0211,2022-11-30 18:55:59
46,"[{'imgObject': {}, 'id': 'mashed potato', 'src': '/static/foodstim60/mashed potato.jpg', 'key': 'u', 'origWidth': 409, 'origHeight': 409, 'width': 409, 'height': 409, 'widthPercent': 0.45, 'rescaleHeight': False, 'trialN': 46, 'loaded': True, 'loadedTime': 3435.5, 'positionName': 'LEFT', 'positionCoords': [512.6, 335.5], 'bid': 6.46}, {'imgObject': {}, 'id': 'veggieswithdip', 'src': '/static/foodstim60/veggieswithdip.jpg', 'key': 'i', 'origWidth': 409, 'origHeight': 409, 'width': 409, 'height': 409, 'widthPercent': 0.45, 'rescaleHeight': False, 'trialN': 46, 'loaded': True, 'loadedTime': 3398.600000023842, 'positionName': 'RIGHT', 'positionCoords': [998.4, 335.5], 'bid': 6.87}]",79426.70000004768,1669834364198,mashed potato,veggieswithdip,6.46,6.87,0.41000000000000014,veggieswithdip,1530.0,1531,1530.6999999284744,True,i,81471.5,2044.7999999523163,1669834366243,2045,HRV,HRV_0211,2022-11-30 18:55:59
47,"[{'imgObject': {}, 'id': 'luckycharms', 'src': '/static/foodstim60/luckycharms.jpg', 'key': 'u', 'origWidth': 410, 'origHeight': 409, 'width': 410, 'height': 409, 'widthPercent': 0.45, 'rescaleHeight': False, 'trialN': 47, 'loaded': True, 'loadedTime': 3436, 'positionName': 'LEFT', 'positionCoords': [511.6, 335.5], 'bid': 5.55}, {'imgObject': {}, 'id': 'froot loops w milk', 'src': '/static/foodstim60/froot loops w milk.jpg', 'key': 'i', 'origWidth': 410, 'origHeight': 410, 'width': 410, 'height': 410, 'widthPercent': 0.45, 'rescaleHeight': False, 'trialN': 47, 'loaded': True, 'loadedTime': 3446.2999999523163, 'positionName': 'RIGHT', 'positionCoords': [998.4, 335], 'bid': 6.01}]",81471.70000004768,1669834366243,luckycharms,froot loops w milk,5.55,6.01,0.45999999999999996,froot loops w milk,1269.0,1270,1269.5,True,i,83251.10000002384,1779.3999999761581,1669834368023,1780,HRV,HRV_0211,2022-11-30 18:55:59
48,"[{'imgObject': {}, 'id': 'chicken nuggets2', 'src': '/static/foodstim60/chicken nuggets2.jpg', 'key': 'u', 'origWidth': 410, 'origHeight': 409, 'width': 410, 'height': 409, 'widthPercent': 0.45, 'rescaleHeight': False, 'trialN': 48, 'loaded': True, 'loadedTime': 3449.2000000476837, 'positionName': 'LEFT', 'positionCoords': [511.6, 335.5], 'bid': 6.140000000000001}, {'imgObject': {}, 'id': 'rigatoni and sauce', 'src': '/static/foodstim60/rigatoni and sauce.jpg', 'key': 'i', 'origWidth': 410, 'origHeight': 411, 'width': 410, 'height': 411, 'widthPercent': 0.45, 'rescaleHeight': False, 'trialN': 48, 'loaded': True, 'loadedTime': 3452.399999976158, 'positionName': 'RIGHT', 'positionCoords': [998.4, 334.5], 'bid': 7.78}]",83251.29999995232,1669834368023,chicken nuggets2,rigatoni and sauce,6.140000000000001,7.78,1.6399999999999997,rigatoni and sauce,1217.5,1218,1218.0,True,i,84979.10000002384,1727.8000000715256,1669834369751,1728,HRV,HRV_0211,2022-11-30 18:55:59
49,"[{'imgObject': {}, 'id': 'mashed potato', 'src': '/static/foodstim60/mashed potato.jpg', 'key': 'u', 'origWidth': 409, 'origHeight': 409, 'width': 409, 'height': 409, 'widthPercent': 0.45, 'rescaleHeight': False, 'trialN': 49, 'loaded': True, 'loadedTime': 3435.7999999523163, 'positionName': 'LEFT', 'positionCoords': [512.6, 335.5], 'bid': 6.46}, {'imgObject': {}, 'id': 'baked potato', 'src': '/static/foodstim60/baked potato.jpg', 'key': 'i', 'origWidth': 409, 'origHeight': 410, 'width': 409, 'height': 410, 'widthPercent': 0.45, 'rescaleHeight': False, 'trialN': 49, 'loaded': True, 'loadedTime': 3231.899999976158, 'positionName': 'RIGHT', 'positionCoords': [998.4, 335], 'bid': 6.5200000000000005}]",84979.39999997616,1669834369751,mashed potato,baked potato,6.46,6.5200000000000005,0.0600000000000005,mashed potato,1632.3999999761581,1633,1632.8999999761581,True,u,87116.10000002384,2136.7000000476837,1669834371888,2137,HRV,HRV_0211,2022-11-30 18:55:59
50,"[{'imgObject': {}, 'id': 'hotdog w must', 'src': '/static/foodstim60/hotdog w must.jpg', 'key': 'u', 'origWidth': 409, 'origHeight': 409, 'width': 409, 'height': 409, 'widthPercent': 0.45, 'rescaleHeight': False, 'trialN': 50, 'loaded': True, 'loadedTime': 3156.7000000476837, 'positionName': 'LEFT', 'positionCoords': [512.6, 335.5], 'bid': 1.35}, {'imgObject': {}, 'id': 'hashbrowns', 'src': '/static/foodstim60/hashbrowns.jpg', 'key': 'i', 'origWidth': 411, 'origHeight': 410, 'width': 411, 'height': 410, 'widthPercent': 0.45, 'rescaleHeight': False, 'trialN': 50, 'loaded': True, 'loadedTime': 3417.899999976158, 'positionName': 'RIGHT', 'positionCoords': [998.4, 335], 'bid': 4.97}]",87116.29999995232,1669834371888,hotdog w must,hashbrowns,1.35,4.97,3.6199999999999997,hotdog w must,1081.5,1082,1082.0,True,u,88702.79999995232,1586.5,1669834373474,1586,HRV,HRV_0211,2022-11-30 18:55:59
51,"[{'imgObject': {}, 'id': 'mac & cheese', 'src': '/static/foodstim60/mac & cheese.jpg', 'key': 'u', 'origWidth': 410, 'origHeight': 410, 'width': 410, 'height': 410, 'widthPercent': 0.45, 'rescaleHeight': False, 'trialN': 51, 'loaded': True, 'loadedTime': 3125.5, 'positionName': 'LEFT', 'positionCoords': [511.6, 335], 'bid': 7.83}, {'imgObject': {}, 'id': 'rigatoni and sauce', 'src': '/static/foodstim60/rigatoni and sauce.jpg', 'key': 'i', 'origWidth': 410, 'origHeight': 411, 'width': 410, 'height': 411, 'widthPercent': 0.45, 'rescaleHeight': False, 'trialN': 51, 'loaded': True, 'loadedTime': 3452, 'positionName': 'RIGHT', 'positionCoords': [998.4, 334.5], 'bid': 7.78}]",88703.0,1669834373475,mac & cheese,rigatoni and sauce,7.83,7.78,-0.04999999999999982,mac & cheese,1525.2000000476837,1525,1525.7999999523163,True,u,90735.20000004768,2032.2000000476837,1669834375507,2032,HRV,HRV_0211,2022-11-30 18:55:59
52,"[{'imgObject': {}, 'id': 'kiwi', 'src': '/static/foodstim60/kiwi.jpg', 'key': 'u', 'origWidth': 410, 'origHeight': 410, 'width': 410, 'height': 410, 'widthPercent': 0.45, 'rescaleHeight': False, 'trialN': 52, 'loaded': True, 'loadedTime': 3312.2000000476837, 'positionName': 'LEFT', 'positionCoords': [511.6, 335], 'bid': 3.79}, {'imgObject': {}, 'id': 'granola w milk', 'src': '/static/foodstim60/granola w milk.jpg', 'key': 'i', 'origWidth': 410, 'origHeight': 410, 'width': 410, 'height': 410, 'widthPercent': 0.45, 'rescaleHeight': False, 'trialN': 52, 'loaded': True, 'loadedTime': 3378, 'positionName': 'RIGHT', 'positionCoords': [998.4, 335], 'bid': 5.21}]",90735.39999997616,1669834375507,kiwi,granola w milk,3.79,5.21,1.42,granola w milk,1293.1000000238419,1294,1293.7000000476837,True,i,92534.29999995232,1798.8999999761581,1669834377306,1799,HRV,HRV_0211,2022-11-30 18:55:59
53,"[{'imgObject': {}, 'id': 'popsicles', 'src': '/static/foodstim60/popsicles.jpg', 'key': 'u', 'origWidth': 410, 'origHeight': 410, 'width': 410, 'height': 410, 'widthPercent': 0.45, 'rescaleHeight': False, 'trialN': 53, 'loaded': True, 'loadedTime': 3214.2999999523163, 'positionName': 'LEFT', 'positionCoords': [511.6, 335], 'bid': 3.68}, {'imgObject': {}, 'id': 'edamame', 'src': '/static/foodstim60/edamame.jpg', 'key': 'i', 'origWidth': 409, 'origHeight': 410, 'width': 409, 'height': 410, 'widthPercent': 0.45, 'rescaleHeight': False, 'trialN': 53, 'loaded': True, 'loadedTime': 3171.5, 'positionName': 'RIGHT', 'positionCoords': [998.4, 335], 'bid': 2.96}]",92534.5,1669834377306,popsicles,edamame,3.68,2.96,-0.7200000000000002,edamame,877.7999999523163,878,878.2000000476837,True,i,93916.10000002384,1381.6000000238419,1669834378688,1382,HRV,HRV_0211,2022-11-30 18:55:59
54,"[{'imgObject': {}, 'id': 'lox', 'src': '/static/foodstim60/lox.jpg', 'key': 'u', 'origWidth': 410, 'origHeight': 411, 'width': 410, 'height': 411, 'widthPercent': 0.45, 'rescaleHeight': False, 'trialN': 54, 'loaded': True, 'loadedTime': 3406, 'positionName': 'LEFT', 'positionCoords': [511.6, 334.5], 'bid': 5.28}, {'imgObject': {}, 'id': 'mango', 'src': '/static/foodstim60/mango.jpg', 'key': 'i', 'origWidth': 411, 'origHeight': 411, 'width': 411, 'height': 411, 'widthPercent': 0.45, 'rescaleHeight': False, 'trialN': 54, 'loaded': True, 'loadedTime': 3156, 'positionName': 'RIGHT', 'positionCoords': [998.4, 334.5], 'bid': 3.97}]",93916.39999997616,1669834378688,lox,mango,5.28,3.97,-1.31,lox,1128.2000000476837,1129,1128.7000000476837,True,u,95547.89999997616,1631.5,1669834380319,1631,HRV,HRV_0211,2022-11-30 18:55:59
55,"[{'imgObject': {}, 'id': 'olives', 'src': '/static/foodstim60/olives.jpg', 'key': 'u', 'origWidth': 410, 'origHeight': 410, 'width': 410, 'height': 410, 'widthPercent': 0.45, 'rescaleHeight': False, 'trialN': 55, 'loaded': True, 'loadedTime': 3379.100000023842, 'positionName': 'LEFT', 'positionCoords': [511.6, 335], 'bid': 5.22}, {'imgObject': {}, 'id': 'lox', 'src': '/static/foodstim60/lox.jpg', 'key': 'i', 'origWidth': 410, 'origHeight': 411, 'width': 410, 'height': 411, 'widthPercent': 0.45, 'rescaleHeight': False, 'trialN': 55, 'loaded': True, 'loadedTime': 3406.899999976158, 'positionName': 'RIGHT', 'positionCoords': [998.4, 334.5], 'bid': 5.28}]",95548.0,1669834380320,olives,lox,5.22,5.28,0.0600000000000005,olives,928.5,928,928.8999999761581,True,u,96982.60000002384,1434.6000000238419,1669834381754,1434,HRV,HRV_0211,2022-11-30 18:55:59
56,"[{'imgObject': {}, 'id': 'steak', 'src': '/static/foodstim60/steak.jpg', 'key': 'u', 'origWidth': 410, 'origHeight': 410, 'width': 410, 'height': 410, 'widthPercent': 0.45, 'rescaleHeight': False, 'trialN': 56, 'loaded': True, 'loadedTime': 3407.600000023842, 'positionName': 'LEFT', 'positionCoords': [511.6, 335], 'bid': 9.98}, {'imgObject': {}, 'id': 'roastedpotatoes', 'src': '/static/foodstim60/roastedpotatoes.jpg', 'key': 'i', 'origWidth': 409, 'origHeight': 410, 'width': 409, 'height': 410, 'widthPercent': 0.45, 'rescaleHeight': False, 'trialN': 56, 'loaded': True, 'loadedTime': 3416.5, 'positionName': 'RIGHT', 'positionCoords': [998.4, 335], 'bid': 6.73}]",96982.89999997616,1669834381754,steak,roastedpotatoes,9.98,6.73,-3.25,steak,1141.3999999761581,1142,1141.8999999761581,True,u,98640.0,1657.1000000238419,1669834383412,1658,HRV,HRV_0211,2022-11-30 18:55:59
57,"[{'imgObject': {}, 'id': 'granola w milk', 'src': '/static/foodstim60/granola w milk.jpg', 'key': 'u', 'origWidth': 410, 'origHeight': 410, 'width': 410, 'height': 410, 'widthPercent': 0.45, 'rescaleHeight': False, 'trialN': 57, 'loaded': True, 'loadedTime': 3378.2000000476837, 'positionName': 'LEFT', 'positionCoords': [511.6, 335], 'bid': 5.21}, {'imgObject': {}, 'id': 'cocktailshrimp', 'src': '/static/foodstim60/cocktailshrimp.jpg', 'key': 'i', 'origWidth': 410, 'origHeight': 410, 'width': 410, 'height': 410, 'widthPercent': 0.45, 'rescaleHeight': False, 'trialN': 57, 'loaded': True, 'loadedTime': 3137.7999999523163, 'positionName': 'RIGHT', 'positionCoords': [998.4, 335], 'bid': 5.8500000000000005}]",98640.29999995232,1669834383412,granola w milk,cocktailshrimp,5.21,5.8500000000000005,0.6400000000000006,cocktailshrimp,869.6000000238419,870,869.9000000953674,True,i,100020.29999995232,1380.0,1669834384792,1380,HRV,HRV_0211,2022-11-30 18:55:59
58,"[{'imgObject': {}, 'id': 'burger', 'src': '/static/foodstim60/burger.jpg', 'key': 'u', 'origWidth': 409, 'origHeight': 409, 'width': 409, 'height': 409, 'widthPercent': 0.45, 'rescaleHeight': False, 'trialN': 58, 'loaded': True, 'loadedTime': 3188.2999999523163, 'positionName': 'LEFT', 'positionCoords': [512.6, 335.5], 'bid': 7.09}, {'imgObject': {}, 'id': 'veggieswithdip', 'src': '/static/foodstim60/veggieswithdip.jpg', 'key': 'i', 'origWidth': 409, 'origHeight': 409, 'width': 409, 'height': 409, 'widthPercent': 0.45, 'rescaleHeight': False, 'trialN': 58, 'loaded': True, 'loadedTime': 3399.100000023842, 'positionName': 'RIGHT', 'positionCoords': [998.4, 335.5], 'bid': 6.87}]",100020.5,1669834384792,burger,veggieswithdip,7.09,6.87,-0.21999999999999975,veggieswithdip,960.3999999761581,961,960.7999999523163,True,i,101494.0,1473.5,1669834386266,1474,HRV,HRV_0211,2022-11-30 18:55:59
59,"[{'imgObject': {}, 'id': 'raspberries', 'src': '/static/foodstim60/raspberries.jpg', 'key': 'u', 'origWidth': 411, 'origHeight': 411, 'width': 411, 'height': 411, 'widthPercent': 0.45, 'rescaleHeight': False, 'trialN': 59, 'loaded': True, 'loadedTime': 3122.399999976158, 'positionName': 'LEFT', 'positionCoords': [510.6, 334.5], 'bid': 6.1000000000000005}, {'imgObject': {}, 'id': 'sweetpotato', 'src': '/static/foodstim60/sweetpotato.jpg', 'key': 'i', 'origWidth': 410, 'origHeight': 410, 'width': 410, 'height': 410, 'widthPercent': 0.45, 'rescaleHeight': False, 'trialN': 59, 'loaded': True, 'loadedTime': 3454, 'positionName': 'RIGHT', 'positionCoords': [998.4, 335], 'bid': 6.37}]",101494.29999995232,1669834386266,raspberries,sweetpotato,6.1000000000000005,6.37,0.2699999999999996,raspberries,870.0,870,870.5,True,u,102880.79999995232,1386.5,1669834387652,1386,HRV,HRV_0211,2022-11-30 18:55:59
60,"[{'imgObject': {}, 'id': 'Grapes', 'src': '/static/foodstim60/Grapes.jpg', 'key': 'u', 'origWidth': 411, 'origHeight': 411, 'width': 411, 'height': 411, 'widthPercent': 0.45, 'rescaleHeight': False, 'trialN': 60, 'loaded': True, 'loadedTime': 3455.399999976158, 'positionName': 'LEFT', 'positionCoords': [510.6, 334.5], 'bid': 5.67}, {'imgObject': {}, 'id': 'edamame', 'src': '/static/foodstim60/edamame.jpg', 'key': 'i', 'origWidth': 409, 'origHeight': 410, 'width': 409, 'height': 410, 'widthPercent': 0.45, 'rescaleHeight': False, 'trialN': 60, 'loaded': True, 'loadedTime': 3171.7000000476837, 'positionName': 'RIGHT', 'positionCoords': [998.4, 335], 'bid': 2.96}]",102881.10000002384,1669834387653,Grapes,edamame,5.67,2.96,-2.71,edamame,1211.1999999284744,1211,1211.6999999284744,True,i,104597.10000002384,1716.0,1669834389369,1716,HRV,HRV_0211,2022-11-30 18:55:59
61,"[{'imgObject': {}, 'id': 'roastedpotatoes', 'src': '/static/foodstim60/roastedpotatoes.jpg', 'key': 'u', 'origWidth': 409, 'origHeight': 410, 'width': 409, 'height': 410, 'widthPercent': 0.45, 'rescaleHeight': False, 'trialN': 61, 'loaded': True, 'loadedTime': 3417.2000000476837, 'positionName': 'LEFT', 'positionCoords': [512.6, 335], 'bid': 6.73}, {'imgObject': {}, 'id': 'fruitsalad', 'src': '/static/foodstim60/fruitsalad.jpg', 'key': 'i', 'origWidth': 410, 'origHeight': 410, 'width': 410, 'height': 410, 'widthPercent': 0.45, 'rescaleHeight': False, 'trialN': 61, 'loaded': True, 'loadedTime': 3268.7999999523163, 'positionName': 'RIGHT', 'positionCoords': [998.4, 335], 'bid': 4.66}]",104597.29999995232,1669834389369,roastedpotatoes,fruitsalad,6.73,4.66,-2.0700000000000003,roastedpotatoes,1079.1000000238419,1080,1079.7000000476837,True,u,106194.5,1597.2000000476837,1669834390966,1597,HRV,HRV_0211,2022-11-30 18:55:59
62,"[{'imgObject': {}, 'id': 'froot loops w milk', 'src': '/static/foodstim60/froot loops w milk.jpg', 'key': 'u', 'origWidth': 410, 'origHeight': 410, 'width': 410, 'height': 410, 'widthPercent': 0.45, 'rescaleHeight': False, 'trialN': 62, 'loaded': True, 'loadedTime': 3446.5, 'positionName': 'LEFT', 'positionCoords': [511.6, 335], 'bid': 6.01}, {'imgObject': {}, 'id': 'eggs', 'src': '/static/foodstim60/eggs.jpg', 'key': 'i', 'origWidth': 409, 'origHeight': 409, 'width': 409, 'height': 409, 'widthPercent': 0.45, 'rescaleHeight': False, 'trialN': 62, 'loaded': True, 'loadedTime': 3145.600000023842, 'positionName': 'RIGHT', 'positionCoords': [998.4, 335.5], 'bid': 7.23}]",106194.79999995232,1669834390966,froot loops w milk,eggs,6.01,7.23,1.2200000000000006,froot loops w milk,873.4000000953674,874,873.9000000953674,True,u,107577.20000004768,1382.4000000953674,1669834392349,1383,HRV,HRV_0211,2022-11-30 18:55:59
63,"[{'imgObject': {}, 'id': 'salmon', 'src': '/static/foodstim60/salmon.jpg', 'key': 'u', 'origWidth': 410, 'origHeight': 409, 'width': 410, 'height': 409, 'widthPercent': 0.45, 'rescaleHeight': False, 'trialN': 63, 'loaded': True, 'loadedTime': 3148.2999999523163, 'positionName': 'LEFT', 'positionCoords': [511.6, 335.5], 'bid': 10}, {'imgObject': {}, 'id': 'grilled chicken strips', 'src': '/static/foodstim60/grilled chicken strips.jpg', 'key': 'i', 'origWidth': 410, 'origHeight': 411, 'width': 410, 'height': 411, 'widthPercent': 0.45, 'rescaleHeight': False, 'trialN': 63, 'loaded': True, 'loadedTime': 3140.7000000476837, 'positionName': 'RIGHT', 'positionCoords': [998.4, 334.5], 'bid': 9.91}]",107577.39999997616,1669834392349,salmon,grilled chicken strips,10.0,9.91,-0.08999999999999986,grilled chicken strips,1235.0,1236,1235.6000000238419,True,i,109327.60000002384,1750.2000000476837,1669834394100,1751,HRV,HRV_0211,2022-11-30 18:55:59
64,"[{'imgObject': {}, 'id': 'blackbeanswithrice', 'src': '/static/foodstim60/blackbeanswithrice.jpg', 'key': 'u', 'origWidth': 410, 'origHeight': 410, 'width': 410, 'height': 410, 'widthPercent': 0.45, 'rescaleHeight': False, 'trialN': 64, 'loaded': True, 'loadedTime': 3426.5, 'positionName': 'LEFT', 'positionCoords': [511.6, 335], 'bid': 6.8500000000000005}, {'imgObject': {}, 'id': 'strawberries', 'src': '/static/foodstim60/strawberries.jpg', 'key': 'i', 'origWidth': 410, 'origHeight': 410, 'width': 410, 'height': 410, 'widthPercent': 0.45, 'rescaleHeight': False, 'trialN': 64, 'loaded': True, 'loadedTime': 3456.5, 'positionName': 'RIGHT', 'positionCoords': [998.4, 335], 'bid': 5.67}]",109327.89999997616,1669834394100,blackbeanswithrice,strawberries,6.8500000000000005,5.67,-1.1800000000000006,blackbeanswithrice,702.7000000476837,704,703.5,True,u,110553.0,1225.1000000238419,1669834395325,1225,HRV,HRV_0211,2022-11-30 18:55:59
65,"[{'imgObject': {}, 'id': 'banana', 'src': '/static/foodstim60/banana.jpg', 'key': 'u', 'origWidth': 410, 'origHeight': 410, 'width': 410, 'height': 410, 'widthPercent': 0.45, 'rescaleHeight': False, 'trialN': 65, 'loaded': True, 'loadedTime': 3215.2000000476837, 'positionName': 'LEFT', 'positionCoords': [511.6, 335], 'bid': 3.46}, {'imgObject': {}, 'id': 'hashbrowns', 'src': '/static/foodstim60/hashbrowns.jpg', 'key': 'i', 'origWidth': 411, 'origHeight': 410, 'width': 411, 'height': 410, 'widthPercent': 0.45, 'rescaleHeight': False, 'trialN': 65, 'loaded': True, 'loadedTime': 3426.100000023842, 'positionName': 'RIGHT', 'positionCoords': [998.4, 335], 'bid': 4.97}]",110553.29999995232,1669834395325,banana,hashbrowns,3.46,4.97,1.5099999999999998,banana,883.1000000238419,884,883.6000000238419,True,u,111952.0,1398.7000000476837,1669834396724,1399,HRV,HRV_0211,2022-11-30 18:55:59
66,"[{'imgObject': {}, 'id': 'apple slices', 'src': '/static/foodstim60/apple slices.jpg', 'key': 'u', 'origWidth': 409, 'origHeight': 410, 'width': 409, 'height': 410, 'widthPercent': 0.45, 'rescaleHeight': False, 'trialN': 66, 'loaded': True, 'loadedTime': 3340.7999999523163, 'positionName': 'LEFT', 'positionCoords': [512.6, 335], 'bid': 5.04}, {'imgObject': {}, 'id': 'banana', 'src': '/static/foodstim60/banana.jpg', 'key': 'i', 'origWidth': 410, 'origHeight': 410, 'width': 410, 'height': 410, 'widthPercent': 0.45, 'rescaleHeight': False, 'trialN': 66, 'loaded': True, 'loadedTime': 3222.899999976158, 'positionName': 'RIGHT', 'positionCoords': [998.4, 335], 'bid': 3.46}]",111952.29999995232,1669834396724,apple slices,banana,5.04,3.46,-1.58,apple slices,1004.4000000953674,1005,1005.0,True,u,113458.70000004768,1506.4000000953674,1669834398231,1507,HRV,HRV_0211,2022-11-30 18:55:59
67,"[{'imgObject': {}, 'id': 'tacos', 'src': '/static/foodstim60/tacos.jpg', 'key': 'u', 'origWidth': 411, 'origHeight': 411, 'width': 411, 'height': 411, 'widthPercent': 0.45, 'rescaleHeight': False, 'trialN': 67, 'loaded': True, 'loadedTime': 3133.600000023842, 'positionName': 'LEFT', 'positionCoords': [510.6, 334.5], 'bid': 6.8500000000000005}, {'imgObject': {}, 'id': 'sweetpotato', 'src': '/static/foodstim60/sweetpotato.jpg', 'key': 'i', 'origWidth': 410, 'origHeight': 410, 'width': 410, 'height': 410, 'widthPercent': 0.45, 'rescaleHeight': False, 'trialN': 67, 'loaded': True, 'loadedTime': 3453.600000023842, 'positionName': 'RIGHT', 'positionCoords': [998.4, 335], 'bid': 6.37}]",113459.0,1669834398231,tacos,sweetpotato,6.8500000000000005,6.37,-0.4800000000000004,tacos,913.2999999523163,914,913.7999999523163,True,u,114881.70000004768,1422.7000000476837,1669834399654,1423,HRV,HRV_0211,2022-11-30 18:55:59
68,"[{'imgObject': {}, 'id': 'eggsalad', 'src': '/static/foodstim60/eggsalad.jpg', 'key': 'u', 'origWidth': 410, 'origHeight': 409, 'width': 410, 'height': 409, 'widthPercent': 0.45, 'rescaleHeight': False, 'trialN': 68, 'loaded': True, 'loadedTime': 3350.5, 'positionName': 'LEFT', 'positionCoords': [511.6, 335.5], 'bid': 4.92}, {'imgObject': {}, 'id': 'hashbrowns', 'src': '/static/foodstim60/hashbrowns.jpg', 'key': 'i', 'origWidth': 411, 'origHeight': 410, 'width': 411, 'height': 410, 'widthPercent': 0.45, 'rescaleHeight': False, 'trialN': 68, 'loaded': True, 'loadedTime': 3418.7000000476837, 'positionName': 'RIGHT', 'positionCoords': [998.4, 335], 'bid': 4.97}]",114882.0,1669834399654,eggsalad,hashbrowns,4.92,4.97,0.04999999999999982,eggsalad,882.6000000238419,883,883.2000000476837,True,u,116279.0,1397.0,1669834401051,1397,HRV,HRV_0211,2022-11-30 18:55:59
69,"[{'imgObject': {}, 'id': 'froot loops w milk', 'src': '/static/foodstim60/froot loops w milk.jpg', 'key': 'u', 'origWidth': 410, 'origHeight': 410, 'width': 410, 'height': 410, 'widthPercent': 0.45, 'rescaleHeight': False, 'trialN': 69, 'loaded': True, 'loadedTime': 3446.5, 'positionName': 'LEFT', 'positionCoords': [511.6, 335], 'bid': 6.01}, {'imgObject': {}, 'id': 'cantaloupe', 'src': '/static/foodstim60/cantaloupe.jpg', 'key': 'i', 'origWidth': 409, 'origHeight': 409, 'width': 409, 'height': 409, 'widthPercent': 0.45, 'rescaleHeight': False, 'trialN': 69, 'loaded': True, 'loadedTime': 3278.2999999523163, 'positionName': 'RIGHT', 'positionCoords': [998.4, 335.5], 'bid': 6.09}]",116279.39999997616,1669834401052,froot loops w milk,cantaloupe,6.01,6.09,0.08000000000000007,cantaloupe,757.1000000238419,757,757.8000000715256,True,i,117551.89999997616,1272.5,1669834402324,1272,HRV,HRV_0211,2022-11-30 18:55:59
70,"[{'imgObject': {}, 'id': 'eggs', 'src': '/static/foodstim60/eggs.jpg', 'key': 'u', 'origWidth': 409, 'origHeight': 409, 'width': 409, 'height': 409, 'widthPercent': 0.45, 'rescaleHeight': False, 'trialN': 70, 'loaded': True, 'loadedTime': 3145.2999999523163, 'positionName': 'LEFT', 'positionCoords': [512.6, 335.5], 'bid': 7.23}, {'imgObject': {}, 'id': 'pear', 'src': '/static/foodstim60/pear.jpg', 'key': 'i', 'origWidth': 411, 'origHeight': 410, 'width': 411, 'height': 410, 'widthPercent': 0.45, 'rescaleHeight': False, 'trialN': 70, 'loaded': True, 'loadedTime': 3367.5, 'positionName': 'RIGHT', 'positionCoords': [998.4, 335], 'bid': 5.01}]",117552.10000002384,1669834402324,eggs,pear,7.23,5.01,-2.2200000000000006,eggs,1292.1999999284744,1293,1292.7999999523163,True,u,119354.0,1801.8999999761581,1669834404126,1802,HRV,HRV_0211,2022-11-30 18:55:59
71,"[{'imgObject': {}, 'id': 'baked potato', 'src': '/static/foodstim60/baked potato.jpg', 'key': 'u', 'origWidth': 409, 'origHeight': 410, 'width': 409, 'height': 410, 'widthPercent': 0.45, 'rescaleHeight': False, 'trialN': 71, 'loaded': True, 'loadedTime': 3231.7000000476837, 'positionName': 'LEFT', 'positionCoords': [512.6, 335], 'bid': 6.5200000000000005}, {'imgObject': {}, 'id': 'burger', 'src': '/static/foodstim60/burger.jpg', 'key': 'i', 'origWidth': 409, 'origHeight': 409, 'width': 409, 'height': 409, 'widthPercent': 0.45, 'rescaleHeight': False, 'trialN': 71, 'loaded': True, 'loadedTime': 3196.100000023842, 'positionName': 'RIGHT', 'positionCoords': [998.4, 335.5], 'bid': 7.09}]",119354.29999995232,1669834404126,baked potato,burger,6.5200000000000005,7.09,0.5699999999999994,baked potato,1051.5,1052,1052.0,True,u,120912.29999995232,1558.0,1669834405684,1558,HRV,HRV_0211,2022-11-30 18:55:59
72,"[{'imgObject': {}, 'id': 'cantaloupe', 'src': '/static/foodstim60/cantaloupe.jpg', 'key': 'u', 'origWidth': 409, 'origHeight': 409, 'width': 409, 'height': 409, 'widthPercent': 0.45, 'rescaleHeight': False, 'trialN': 72, 'loaded': True, 'loadedTime': 3277.899999976158, 'positionName': 'LEFT', 'positionCoords': [512.6, 335.5], 'bid': 6.09}, {'imgObject': {}, 'id': 'banana', 'src': '/static/foodstim60/banana.jpg', 'key': 'i', 'origWidth': 410, 'origHeight': 410, 'width': 410, 'height': 410, 'widthPercent': 0.45, 'rescaleHeight': False, 'trialN': 72, 'loaded': True, 'loadedTime': 3222.600000023842, 'positionName': 'RIGHT', 'positionCoords': [998.4, 335], 'bid': 3.46}]",120912.5,1669834405685,cantaloupe,banana,6.09,3.46,-2.63,cantaloupe,772.2000000476837,772,772.7000000476837,True,u,122201.10000002384,1288.6000000238419,1669834406973,1288,HRV,HRV_0211,2022-11-30 18:55:59
73,"[{'imgObject': {}, 'id': 'sweetpotato', 'src': '/static/foodstim60/sweetpotato.jpg', 'key': 'u', 'origWidth': 410, 'origHeight': 410, 'width': 410, 'height': 410, 'widthPercent': 0.45, 'rescaleHeight': False, 'trialN': 73, 'loaded': True, 'loadedTime': 3453.7999999523163, 'positionName': 'LEFT', 'positionCoords': [511.6, 335], 'bid': 6.37}, {'imgObject': {}, 'id': 'luckycharms', 'src': '/static/foodstim60/luckycharms.jpg', 'key': 'i', 'origWidth': 410, 'origHeight': 409, 'width': 410, 'height': 409, 'widthPercent': 0.45, 'rescaleHeight': False, 'trialN': 73, 'loaded': True, 'loadedTime': 3436.7999999523163, 'positionName': 'RIGHT', 'positionCoords': [998.4, 335.5], 'bid': 5.55}]",122201.29999995232,1669834406973,sweetpotato,luckycharms,6.37,5.55,-0.8200000000000003,sweetpotato,867.1000000238419,868,867.6000000238419,True,u,123586.20000004768,1384.9000000953674,1669834408358,1385,HRV,HRV_0211,2022-11-30 18:55:59
74,"[{'imgObject': {}, 'id': 'chicken nuggets2', 'src': '/static/foodstim60/chicken nuggets2.jpg', 'key': 'u', 'origWidth': 410, 'origHeight': 409, 'width': 410, 'height': 409, 'widthPercent': 0.45, 'rescaleHeight': False, 'trialN': 74, 'loaded': True, 'loadedTime': 3449.600000023842, 'positionName': 'LEFT', 'positionCoords': [511.6, 335.5], 'bid': 6.140000000000001}, {'imgObject': {}, 'id': 'fried eggs', 'src': '/static/foodstim60/fried eggs.jpg', 'key': 'i', 'origWidth': 410, 'origHeight': 410, 'width': 410, 'height': 410, 'widthPercent': 0.45, 'rescaleHeight': False, 'trialN': 74, 'loaded': True, 'loadedTime': 3457.2999999523163, 'positionName': 'RIGHT', 'positionCoords': [998.4, 335], 'bid': 6.4}]",123586.39999997616,1669834408359,chicken nuggets2,fried eggs,6.140000000000001,6.4,0.2599999999999998,fried eggs,1034.1000000238419,1034,1034.6000000238419,True,i,125136.5,1550.1000000238419,1669834409909,1550,HRV,HRV_0211,2022-11-30 18:55:59
75,"[{'imgObject': {}, 'id': 'strawberries', 'src': '/static/foodstim60/strawberries.jpg', 'key': 'u', 'origWidth': 410, 'origHeight': 410, 'width': 410, 'height': 410, 'widthPercent': 0.45, 'rescaleHeight': False, 'trialN': 75, 'loaded': True, 'loadedTime': 3455.5, 'positionName': 'LEFT', 'positionCoords': [511.6, 335], 'bid': 5.67}, {'imgObject': {}, 'id': 'Grapes', 'src': '/static/foodstim60/Grapes.jpg', 'key': 'i', 'origWidth': 411, 'origHeight': 411, 'width': 411, 'height': 411, 'widthPercent': 0.45, 'rescaleHeight': False, 'trialN': 75, 'loaded': True, 'loadedTime': 3454.7999999523163, 'positionName': 'RIGHT', 'positionCoords': [998.4, 334.5], 'bid': 5.67}]",125136.79999995232,1669834409909,strawberries,Grapes,5.67,5.67,0.0,Grapes,787.2000000476837,788,787.6000000238419,True,i,126434.20000004768,1297.4000000953674,1669834411206,1297,HRV,HRV_0211,2022-11-30 18:55:59
76,"[{'imgObject': {}, 'id': 'chickenfingers', 'src': '/static/foodstim60/chickenfingers.jpg', 'key': 'u', 'origWidth': 410, 'origHeight': 410, 'width': 410, 'height': 410, 'widthPercent': 0.45, 'rescaleHeight': False, 'trialN': 76, 'loaded': True, 'loadedTime': 3144.2999999523163, 'positionName': 'LEFT', 'positionCoords': [511.6, 335], 'bid': 7.390000000000001}, {'imgObject': {}, 'id': 'mashed potato', 'src': '/static/foodstim60/mashed potato.jpg', 'key': 'i', 'origWidth': 409, 'origHeight': 409, 'width': 409, 'height': 409, 'widthPercent': 0.45, 'rescaleHeight': False, 'trialN': 76, 'loaded': True, 'loadedTime': 3435.600000023842, 'positionName': 'RIGHT', 'positionCoords': [998.4, 335.5], 'bid': 6.46}]",126434.29999995232,1669834411207,chickenfingers,mashed potato,7.390000000000001,6.46,-0.9300000000000006,chickenfingers,1122.1000000238419,1122,1122.6000000238419,True,u,128065.20000004768,1630.9000000953674,1669834412837,1630,HRV,HRV_0211,2022-11-30 18:55:59
77,"[{'imgObject': {}, 'id': 'fruitsalad', 'src': '/static/foodstim60/fruitsalad.jpg', 'key': 'u', 'origWidth': 410, 'origHeight': 410, 'width': 410, 'height': 410, 'widthPercent': 0.45, 'rescaleHeight': False, 'trialN': 77, 'loaded': True, 'loadedTime': 3269, 'positionName': 'LEFT', 'positionCoords': [511.6, 335], 'bid': 4.66}, {'imgObject': {}, 'id': 'raisin bran w milk', 'src': '/static/foodstim60/raisin bran w milk.jpg', 'key': 'i', 'origWidth': 411, 'origHeight': 411, 'width': 411, 'height': 411, 'widthPercent': 0.45, 'rescaleHeight': False, 'trialN': 77, 'loaded': True, 'loadedTime': 3396.2000000476837, 'positionName': 'RIGHT', 'positionCoords': [998.4, 334.5], 'bid': 4.91}]",128065.39999997616,1669834412838,fruitsalad,raisin bran w milk,4.66,4.91,0.25,raisin bran w milk,1075.8000000715256,1076,1076.3999999761581,True,i,129645.20000004768,1579.8000000715256,1669834414417,1579,HRV,HRV_0211,2022-11-30 18:55:59
78,"[{'imgObject': {}, 'id': 'salad w chicken', 'src': '/static/foodstim60/salad w chicken.jpg', 'key': 'u', 'origWidth': 411, 'origHeight': 411, 'width': 411, 'height': 411, 'widthPercent': 0.45, 'rescaleHeight': False, 'trialN': 78, 'loaded': True, 'loadedTime': 3339.600000023842, 'positionName': 'LEFT', 'positionCoords': [510.6, 334.5], 'bid': 7.82}, {'imgObject': {}, 'id': 'rigatoni and sauce', 'src': '/static/foodstim60/rigatoni and sauce.jpg', 'key': 'i', 'origWidth': 410, 'origHeight': 411, 'width': 410, 'height': 411, 'widthPercent': 0.45, 'rescaleHeight': False, 'trialN': 78, 'loaded': True, 'loadedTime': 3450.5, 'positionName': 'RIGHT', 'positionCoords': [998.4, 334.5], 'bid': 7.78}]",129645.39999997616,1669834414418,salad w chicken,rigatoni and sauce,7.82,7.78,-0.040000000000000036,rigatoni and sauce,816.8000000715256,817,817.3000000715256,True,i,130973.60000002384,1328.2000000476837,1669834415746,1328,HRV,HRV_0211,2022-11-30 18:55:59
79,"[{'imgObject': {}, 'id': 'blueberries', 'src': '/static/foodstim60/blueberries.jpg', 'key': 'u', 'origWidth': 411, 'origHeight': 411, 'width': 411, 'height': 411, 'widthPercent': 0.45, 'rescaleHeight': False, 'trialN': 79, 'loaded': True, 'loadedTime': 3321.100000023842, 'positionName': 'LEFT', 'positionCoords': [510.6, 334.5], 'bid': 3.06}, {'imgObject': {}, 'id': 'kiwi', 'src': '/static/foodstim60/kiwi.jpg', 'key': 'i', 'origWidth': 410, 'origHeight': 410, 'width': 410, 'height': 410, 'widthPercent': 0.45, 'rescaleHeight': False, 'trialN': 79, 'loaded': True, 'loadedTime': 3312.399999976158, 'positionName': 'RIGHT', 'positionCoords': [998.4, 335], 'bid': 3.79}]",130973.89999997616,1669834415746,blueberries,kiwi,3.06,3.79,0.73,blueberries,1893.8999999761581,1894,1894.3000000715256,True,u,133375.20000004768,2401.3000000715256,1669834418147,2401,HRV,HRV_0211,2022-11-30 18:55:59
80,"[{'imgObject': {}, 'id': 'orange slices', 'src': '/static/foodstim60/orange slices.jpg', 'key': 'u', 'origWidth': 409, 'origHeight': 410, 'width': 409, 'height': 410, 'widthPercent': 0.45, 'rescaleHeight': False, 'trialN': 80, 'loaded': True, 'loadedTime': 3251.7000000476837, 'positionName': 'LEFT', 'positionCoords': [512.6, 335], 'bid': 5.54}, {'imgObject': {}, 'id': 'chicken nuggets2', 'src': '/static/foodstim60/chicken nuggets2.jpg', 'key': 'i', 'origWidth': 410, 'origHeight': 409, 'width': 410, 'height': 409, 'widthPercent': 0.45, 'rescaleHeight': False, 'trialN': 80, 'loaded': True, 'loadedTime': 3449.5, 'positionName': 'RIGHT', 'positionCoords': [998.4, 335.5], 'bid': 6.140000000000001}]",133375.5,1669834418148,orange slices,chicken nuggets2,5.54,6.140000000000001,0.6000000000000005,orange slices,685.2999999523163,685,685.7999999523163,True,u,134578.70000004768,1203.2000000476837,1669834419351,1203,HRV,HRV_0211,2022-11-30 18:55:59
81,"[{'imgObject': {}, 'id': 'ice cream sundae 002', 'src': '/static/foodstim60/ice cream sundae 002.jpg', 'key': 'u', 'origWidth': 409, 'origHeight': 409, 'width': 409, 'height': 409, 'widthPercent': 0.45, 'rescaleHeight': False, 'trialN': 81, 'loaded': True, 'loadedTime': 3197.2000000476837, 'positionName': 'LEFT', 'positionCoords': [512.6, 335.5], 'bid': 3.23}, {'imgObject': {}, 'id': 'cheerios', 'src': '/static/foodstim60/cheerios.jpg', 'key': 'i', 'origWidth': 409, 'origHeight': 410, 'width': 409, 'height': 410, 'widthPercent': 0.45, 'rescaleHeight': False, 'trialN': 81, 'loaded': True, 'loadedTime': 3151, 'positionName': 'RIGHT', 'positionCoords': [998.4, 335], 'bid': 5.01}]",134579.0,1669834419351,ice cream sundae 002,cheerios,3.23,5.01,1.7799999999999998,cheerios,689.2999999523163,690,689.7000000476837,True,i,135782.0,1203.0,1669834420554,1203,HRV,HRV_0211,2022-11-30 18:55:59
82,"[{'imgObject': {}, 'id': 'grilled chicken strips', 'src': '/static/foodstim60/grilled chicken strips.jpg', 'key': 'u', 'origWidth': 410, 'origHeight': 411, 'width': 410, 'height': 411, 'widthPercent': 0.45, 'rescaleHeight': False, 'trialN': 82, 'loaded': True, 'loadedTime': 3140.5, 'positionName': 'LEFT', 'positionCoords': [511.6, 334.5], 'bid': 9.91}, {'imgObject': {}, 'id': 'steak', 'src': '/static/foodstim60/steak.jpg', 'key': 'i', 'origWidth': 410, 'origHeight': 410, 'width': 410, 'height': 410, 'widthPercent': 0.45, 'rescaleHeight': False, 'trialN': 82, 'loaded': True, 'loadedTime': 3414.7999999523163, 'positionName': 'RIGHT', 'positionCoords': [998.4, 335], 'bid': 9.98}]",135782.20000004768,1669834420554,grilled chicken strips,steak,9.91,9.98,0.07000000000000028,grilled chicken strips,654.2999999523163,655,654.7999999523163,True,u,136953.29999995232,1171.0999999046326,1669834421725,1171,HRV,HRV_0211,2022-11-30 18:55:59
83,"[{'imgObject': {}, 'id': 'cantaloupe', 'src': '/static/foodstim60/cantaloupe.jpg', 'key': 'u', 'origWidth': 409, 'origHeight': 409, 'width': 409, 'height': 409, 'widthPercent': 0.45, 'rescaleHeight': False, 'trialN': 83, 'loaded': True, 'loadedTime': 3278, 'positionName': 'LEFT', 'positionCoords': [512.6, 335.5], 'bid': 6.09}, {'imgObject': {}, 'id': 'cocktailshrimp', 'src': '/static/foodstim60/cocktailshrimp.jpg', 'key': 'i', 'origWidth': 410, 'origHeight': 410, 'width': 410, 'height': 410, 'widthPercent': 0.45, 'rescaleHeight': False, 'trialN': 83, 'loaded': True, 'loadedTime': 3137.600000023842, 'positionName': 'RIGHT', 'positionCoords': [998.4, 335], 'bid': 5.8500000000000005}]",136953.70000004768,1669834421726,cantaloupe,cocktailshrimp,6.09,5.8500000000000005,-0.23999999999999932,cantaloupe,891.5999999046326,892,892.0999999046326,True,u,138347.10000002384,1393.3999999761581,1669834423119,1393,HRV,HRV_0211,2022-11-30 18:55:59
84,"[{'imgObject': {}, 'id': 'bagel and cc', 'src': '/static/foodstim60/bagel and cc.jpg', 'key': 'u', 'origWidth': 410, 'origHeight': 410, 'width': 410, 'height': 410, 'widthPercent': 0.45, 'rescaleHeight': False, 'trialN': 84, 'loaded': True, 'loadedTime': 3330.5, 'positionName': 'LEFT', 'positionCoords': [511.6, 335], 'bid': 10}, {'imgObject': {}, 'id': 'steak', 'src': '/static/foodstim60/steak.jpg', 'key': 'i', 'origWidth': 410, 'origHeight': 410, 'width': 410, 'height': 410, 'widthPercent': 0.45, 'rescaleHeight': False, 'trialN': 84, 'loaded': True, 'loadedTime': 3414.899999976158, 'positionName': 'RIGHT', 'positionCoords': [998.4, 335], 'bid': 9.98}]",138347.29999995232,1669834423119,bagel and cc,steak,10.0,9.98,-0.019999999999999574,steak,777.0,778,777.6000000238419,True,i,139629.89999997616,1282.6000000238419,1669834424402,1283,HRV,HRV_0211,2022-11-30 18:55:59
85,"[{'imgObject': {}, 'id': 'Grapes', 'src': '/static/foodstim60/Grapes.jpg', 'key': 'u', 'origWidth': 411, 'origHeight': 411, 'width': 411, 'height': 411, 'widthPercent': 0.45, 'rescaleHeight': False, 'trialN': 85, 'loaded': True, 'loadedTime': 3455.2999999523163, 'positionName': 'LEFT', 'positionCoords': [510.6, 334.5], 'bid': 5.67}, {'imgObject': {}, 'id': 'Tribe humus pita', 'src': '/static/foodstim60/Tribe humus pita.jpg', 'key': 'i', 'origWidth': 411, 'origHeight': 411, 'width': 411, 'height': 411, 'widthPercent': 0.45, 'rescaleHeight': False, 'trialN': 85, 'loaded': True, 'loadedTime': 3149.7000000476837, 'positionName': 'RIGHT', 'positionCoords': [998.4, 334.5], 'bid': 5.08}]",139630.10000002384,1669834424402,Grapes,Tribe humus pita,5.67,5.08,-0.5899999999999999,Tribe humus pita,1054.6000000238419,1055,1055.0,True,i,141195.0,1564.8999999761581,1669834425967,1565,HRV,HRV_0211,2022-11-30 18:55:59
86,"[{'imgObject': {}, 'id': 'raspberries', 'src': '/static/foodstim60/raspberries.jpg', 'key': 'u', 'origWidth': 411, 'origHeight': 411, 'width': 411, 'height': 411, 'widthPercent': 0.45, 'rescaleHeight': False, 'trialN': 86, 'loaded': True, 'loadedTime': 3111.2000000476837, 'positionName': 'LEFT', 'positionCoords': [510.6, 334.5], 'bid': 6.1000000000000005}, {'imgObject': {}, 'id': 'bagel plain', 'src': '/static/foodstim60/bagel plain.jpg', 'key': 'i', 'origWidth': 410, 'origHeight': 410, 'width': 410, 'height': 410, 'widthPercent': 0.45, 'rescaleHeight': False, 'trialN': 86, 'loaded': True, 'loadedTime': 3141.2999999523163, 'positionName': 'RIGHT', 'positionCoords': [998.4, 335], 'bid': 7.44}]",141195.20000004768,1669834425967,raspberries,bagel plain,6.1000000000000005,7.44,1.3399999999999999,bagel plain,673.1999999284744,674,673.7999999523163,True,i,142376.10000002384,1180.8999999761581,1669834427148,1181,HRV,HRV_0211,2022-11-30 18:55:59
87,"[{'imgObject': {}, 'id': 'fried eggs', 'src': '/static/foodstim60/fried eggs.jpg', 'key': 'u', 'origWidth': 410, 'origHeight': 410, 'width': 410, 'height': 410, 'widthPercent': 0.45, 'rescaleHeight': False, 'trialN': 87, 'loaded': True, 'loadedTime': 3456.7000000476837, 'positionName': 'LEFT', 'positionCoords': [511.6, 335], 'bid': 6.4}, {'imgObject': {}, 'id': 'burrito', 'src': '/static/foodstim60/burrito.jpg', 'key': 'i', 'origWidth': 410, 'origHeight': 410, 'width': 410, 'height': 410, 'widthPercent': 0.45, 'rescaleHeight': False, 'trialN': 87, 'loaded': True, 'loadedTime': 3303.100000023842, 'positionName': 'RIGHT', 'positionCoords': [998.4, 335], 'bid': 3.96}]",142376.29999995232,1669834427148,fried eggs,burrito,6.4,3.96,-2.4400000000000004,fried eggs,716.1000000238419,717,716.6000000238419,True,u,143601.39999997616,1225.1000000238419,1669834428373,1225,HRV,HRV_0211,2022-11-30 18:55:59
88,"[{'imgObject': {}, 'id': 'mac & cheese', 'src': '/static/foodstim60/mac & cheese.jpg', 'key': 'u', 'origWidth': 410, 'origHeight': 410, 'width': 410, 'height': 410, 'widthPercent': 0.45, 'rescaleHeight': False, 'trialN': 88, 'loaded': True, 'loadedTime': 3123.100000023842, 'positionName': 'LEFT', 'positionCoords': [511.6, 335], 'bid': 7.83}, {'imgObject': {}, 'id': 'fried eggs', 'src': '/static/foodstim60/fried eggs.jpg', 'key': 'i', 'origWidth': 410, 'origHeight': 410, 'width': 410, 'height': 410, 'widthPercent': 0.45, 'rescaleHeight': False, 'trialN': 88, 'loaded': True, 'loadedTime': 3457.7000000476837, 'positionName': 'RIGHT', 'positionCoords': [998.4, 335], 'bid': 6.4}]",143601.5,1669834428374,mac & cheese,fried eggs,7.83,6.4,-1.4299999999999997,mac & cheese,778.7000000476837,779,779.2999999523163,True,u,144887.89999997616,1286.3999999761581,1669834429660,1286,HRV,HRV_0211,2022-11-30 18:55:59
89,"[{'imgObject': {}, 'id': 'sushi w_condiments', 'src': '/static/foodstim60/sushi w_condiments.jpg', 'key': 'u', 'origWidth': 410, 'origHeight': 410, 'width': 410, 'height': 410, 'widthPercent': 0.45, 'rescaleHeight': False, 'trialN': 89, 'loaded': True, 'loadedTime': 3147.100000023842, 'positionName': 'LEFT', 'positionCoords': [511.6, 335], 'bid': 7.1000000000000005}, {'imgObject': {}, 'id': 'eggs', 'src': '/static/foodstim60/eggs.jpg', 'key': 'i', 'origWidth': 409, 'origHeight': 409, 'width': 409, 'height': 409, 'widthPercent': 0.45, 'rescaleHeight': False, 'trialN': 89, 'loaded': True, 'loadedTime': 3144.5, 'positionName': 'RIGHT', 'positionCoords': [998.4, 335.5], 'bid': 7.23}]",144888.20000004768,1669834429660,sushi w_condiments,eggs,7.1000000000000005,7.23,0.1299999999999999,sushi w_condiments,764.8999999761581,766,765.3999999761581,True,u,146157.70000004768,1269.5,1669834430930,1270,HRV,HRV_0211,2022-11-30 18:55:59
90,"[{'imgObject': {}, 'id': 'bagel and cc', 'src': '/static/foodstim60/bagel and cc.jpg', 'key': 'u', 'origWidth': 410, 'origHeight': 410, 'width': 410, 'height': 410, 'widthPercent': 0.45, 'rescaleHeight': False, 'trialN': 90, 'loaded': True, 'loadedTime': 3321.399999976158, 'positionName': 'LEFT', 'positionCoords': [511.6, 335], 'bid': 10}, {'imgObject': {}, 'id': 'yogurt no spoon', 'src': '/static/foodstim60/yogurt no spoon.jpg', 'key': 'i', 'origWidth': 411, 'origHeight': 410, 'width': 411, 'height': 410, 'widthPercent': 0.45, 'rescaleHeight': False, 'trialN': 90, 'loaded': True, 'loadedTime': 3286.100000023842, 'positionName': 'RIGHT', 'positionCoords': [998.4, 335], 'bid': 5.58}]",149113.0,1669834433885,bagel and cc,yogurt no spoon,10.0,5.58,-4.42,yogurt no spoon,1700.8999999761581,1702,1701.5,True,i,151330.0,2217.0,1669834436102,2217,HRV,HRV_0211,2022-11-30 18:55:59
91,"[{'imgObject': {}, 'id': 'granola w milk', 'src': '/static/foodstim60/granola w milk.jpg', 'key': 'u', 'origWidth': 410, 'origHeight': 410, 'width': 410, 'height': 410, 'widthPercent': 0.45, 'rescaleHeight': False, 'trialN': 91, 'loaded': True, 'loadedTime': 3378.2999999523163, 'positionName': 'LEFT', 'positionCoords': [511.6, 335], 'bid': 5.21}, {'imgObject': {}, 'id': 'cherry tomato', 'src': '/static/foodstim60/cherry tomato.jpg', 'key': 'i', 'origWidth': 410, 'origHeight': 410, 'width': 410, 'height': 410, 'widthPercent': 0.45, 'rescaleHeight': False, 'trialN': 91, 'loaded': True, 'loadedTime': 3358.2000000476837, 'positionName': 'RIGHT', 'positionCoords': [998.4, 335], 'bid': 5.01}]",151330.29999995232,1669834436102,granola w milk,cherry tomato,5.21,5.01,-0.20000000000000018,granola w milk,794.0,795,794.4000000953674,True,u,152632.89999997616,1302.6000000238419,1669834437405,1303,HRV,HRV_0211,2022-11-30 18:55:59
92,"[{'imgObject': {}, 'id': 'chicken nuggets2', 'src': '/static/foodstim60/chicken nuggets2.jpg', 'key': 'u', 'origWidth': 410, 'origHeight': 409, 'width': 410, 'height': 409, 'widthPercent': 0.45, 'rescaleHeight': False, 'trialN': 92, 'loaded': True, 'loadedTime': 3450.2999999523163, 'positionName': 'LEFT', 'positionCoords': [511.6, 335.5], 'bid': 6.140000000000001}, {'imgObject': {}, 'id': 'popsicles', 'src': '/static/foodstim60/popsicles.jpg', 'key': 'i', 'origWidth': 410, 'origHeight': 410, 'width': 410, 'height': 410, 'widthPercent': 0.45, 'rescaleHeight': False, 'trialN': 92, 'loaded': True, 'loadedTime': 3213.5, 'positionName': 'RIGHT', 'positionCoords': [998.4, 335], 'bid': 3.68}]",152633.20000004768,1669834437405,chicken nuggets2,popsicles,6.140000000000001,3.68,-2.4600000000000004,chicken nuggets2,931.0,932,931.5999999046326,True,u,154078.60000002384,1445.3999999761581,1669834438851,1446,HRV,HRV_0211,2022-11-30 18:55:59
93,"[{'imgObject': {}, 'id': 'cherries', 'src': '/static/foodstim60/cherries.jpg', 'key': 'u', 'origWidth': 410, 'origHeight': 411, 'width': 410, 'height': 411, 'widthPercent': 0.45, 'rescaleHeight': False, 'trialN': 93, 'loaded': True, 'loadedTime': 3154, 'positionName': 'LEFT', 'positionCoords': [511.6, 334.5], 'bid': 3.44}, {'imgObject': {}, 'id': 'avocado', 'src': '/static/foodstim60/avocado.jpg', 'key': 'i', 'origWidth': 409, 'origHeight': 409, 'width': 409, 'height': 409, 'widthPercent': 0.45, 'rescaleHeight': False, 'trialN': 93, 'loaded': True, 'loadedTime': 3082.899999976158, 'positionName': 'RIGHT', 'positionCoords': [998.4, 335.5], 'bid': 3.63}]",154078.79999995232,1669834438851,cherries,avocado,3.44,3.63,0.18999999999999995,avocado,1645.7000000476837,1646,1646.2000000476837,True,i,156229.70000004768,2150.9000000953674,1669834441002,2151,HRV,HRV_0211,2022-11-30 18:55:59
94,"[{'imgObject': {}, 'id': 'mango', 'src': '/static/foodstim60/mango.jpg', 'key': 'u', 'origWidth': 411, 'origHeight': 411, 'width': 411, 'height': 411, 'widthPercent': 0.45, 'rescaleHeight': False, 'trialN': 94, 'loaded': True, 'loadedTime': 3156.600000023842, 'positionName': 'LEFT', 'positionCoords': [510.6, 334.5], 'bid': 3.97}, {'imgObject': {}, 'id': 'hotdog w must', 'src': '/static/foodstim60/hotdog w must.jpg', 'key': 'i', 'origWidth': 409, 'origHeight': 409, 'width': 409, 'height': 409, 'widthPercent': 0.45, 'rescaleHeight': False, 'trialN': 94, 'loaded': True, 'loadedTime': 3157.899999976158, 'positionName': 'RIGHT', 'positionCoords': [998.4, 335.5], 'bid': 1.35}]",156230.0,1669834441002,mango,hotdog w must,3.97,1.35,-2.62,mango,838.2999999523163,839,838.7999999523163,True,u,157581.5,1351.5,1669834442354,1352,HRV,HRV_0211,2022-11-30 18:55:59
95,"[{'imgObject': {}, 'id': 'raspberries', 'src': '/static/foodstim60/raspberries.jpg', 'key': 'u', 'origWidth': 411, 'origHeight': 411, 'width': 411, 'height': 411, 'widthPercent': 0.45, 'rescaleHeight': False, 'trialN': 95, 'loaded': True, 'loadedTime': 3111.100000023842, 'positionName': 'LEFT', 'positionCoords': [510.6, 334.5], 'bid': 6.1000000000000005}, {'imgObject': {}, 'id': 'chicken nuggets2', 'src': '/static/foodstim60/chicken nuggets2.jpg', 'key': 'i', 'origWidth': 410, 'origHeight': 409, 'width': 410, 'height': 409, 'widthPercent': 0.45, 'rescaleHeight': False, 'trialN': 95, 'loaded': True, 'loadedTime': 3448.100000023842, 'positionName': 'RIGHT', 'positionCoords': [998.4, 335.5], 'bid': 6.140000000000001}]",157581.79999995232,1669834442354,raspberries,chicken nuggets2,6.1000000000000005,6.140000000000001,0.040000000000000036,raspberries,870.6000000238419,871,870.9000000953674,True,u,158967.89999997616,1386.1000000238419,1669834443740,1386,HRV,HRV_0211,2022-11-30 18:55:59
96,"[{'imgObject': {}, 'id': 'burrito', 'src': '/static/foodstim60/burrito.jpg', 'key': 'u', 'origWidth': 410, 'origHeight': 410, 'width': 410, 'height': 410, 'widthPercent': 0.45, 'rescaleHeight': False, 'trialN': 96, 'loaded': True, 'loadedTime': 3303.2000000476837, 'positionName': 'LEFT', 'positionCoords': [511.6, 335], 'bid': 3.96}, {'imgObject': {}, 'id': 'pear', 'src': '/static/foodstim60/pear.jpg', 'key': 'i', 'origWidth': 411, 'origHeight': 410, 'width': 411, 'height': 410, 'widthPercent': 0.45, 'rescaleHeight': False, 'trialN': 96, 'loaded': True, 'loadedTime': 3367.5, 'positionName': 'RIGHT', 'positionCoords': [998.4, 335], 'bid': 5.01}]",158968.10000002384,1669834443740,burrito,pear,3.96,5.01,1.0499999999999998,pear,805.5,806,806.1999999284744,True,i,160283.89999997616,1315.7999999523163,1669834445056,1316,HRV,HRV_0211,2022-11-30 18:55:59
97,"[{'imgObject': {}, 'id': 'sushi w_condiments', 'src': '/static/foodstim60/sushi w_condiments.jpg', 'key': 'u', 'origWidth': 410, 'origHeight': 410, 'width': 410, 'height': 410, 'widthPercent': 0.45, 'rescaleHeight': False, 'trialN': 97, 'loaded': True, 'loadedTime': 3147, 'positionName': 'LEFT', 'positionCoords': [511.6, 335], 'bid': 7.1000000000000005}, {'imgObject': {}, 'id': 'cocktailshrimp', 'src': '/static/foodstim60/cocktailshrimp.jpg', 'key': 'i', 'origWidth': 410, 'origHeight': 410, 'width': 410, 'height': 410, 'widthPercent': 0.45, 'rescaleHeight': False, 'trialN': 97, 'loaded': True, 'loadedTime': 3138.100000023842, 'positionName': 'RIGHT', 'positionCoords': [998.4, 335], 'bid': 5.8500000000000005}]",160284.10000002384,1669834445056,sushi w_condiments,cocktailshrimp,7.1000000000000005,5.8500000000000005,-1.25,sushi w_condiments,785.1000000238419,786,785.6999999284744,True,u,161580.5,1296.3999999761581,1669834446353,1297,HRV,HRV_0211,2022-11-30 18:55:59
98,"[{'imgObject': {}, 'id': 'rigatoni', 'src': '/static/foodstim60/rigatoni.jpg', 'key': 'u', 'origWidth': 411, 'origHeight': 411, 'width': 411, 'height': 411, 'widthPercent': 0.45, 'rescaleHeight': False, 'trialN': 98, 'loaded': True, 'loadedTime': 3135.600000023842, 'positionName': 'LEFT', 'positionCoords': [510.6, 334.5], 'bid': 5.72}, {'imgObject': {}, 'id': 'omelette', 'src': '/static/foodstim60/omelette.jpg', 'key': 'i', 'origWidth': 410, 'origHeight': 409, 'width': 410, 'height': 409, 'widthPercent': 0.45, 'rescaleHeight': False, 'trialN': 98, 'loaded': True, 'loadedTime': 3367.899999976158, 'positionName': 'RIGHT', 'positionCoords': [998.4, 335.5], 'bid': 5.09}]",161580.60000002384,1669834446353,rigatoni,omelette,5.72,5.09,-0.6299999999999999,rigatoni,839.7999999523163,840,840.2999999523163,True,u,162933.89999997616,1353.2999999523163,1669834447706,1353,HRV,HRV_0211,2022-11-30 18:55:59
99,"[{'imgObject': {}, 'id': 'blackbeanswithrice', 'src': '/static/foodstim60/blackbeanswithrice.jpg', 'key': 'u', 'origWidth': 410, 'origHeight': 410, 'width': 410, 'height': 410, 'widthPercent': 0.45, 'rescaleHeight': False, 'trialN': 99, 'loaded': True, 'loadedTime': 3427.399999976158, 'positionName': 'LEFT', 'positionCoords': [511.6, 335], 'bid': 6.8500000000000005}, {'imgObject': {}, 'id': 'fried eggs', 'src': '/static/foodstim60/fried eggs.jpg', 'key': 'i', 'origWidth': 410, 'origHeight': 410, 'width': 410, 'height': 410, 'widthPercent': 0.45, 'rescaleHeight': False, 'trialN': 99, 'loaded': True, 'loadedTime': 3457.600000023842, 'positionName': 'RIGHT', 'positionCoords': [998.4, 335], 'bid': 6.4}]",162934.20000004768,1669834447706,blackbeanswithrice,fried eggs,6.8500000000000005,6.4,-0.4500000000000002,fried eggs,862.0999999046326,863,862.6999999284744,True,i,164312.0,1377.7999999523163,1669834449084,1378,HRV,HRV_0211,2022-11-30 18:55:59
100,"[{'imgObject': {}, 'id': 'chickenfingers', 'src': '/static/foodstim60/chickenfingers.jpg', 'key': 'u', 'origWidth': 410, 'origHeight': 410, 'width': 410, 'height': 410, 'widthPercent': 0.45, 'rescaleHeight': False, 'trialN': 100, 'loaded': True, 'loadedTime': 3143.899999976158, 'positionName': 'LEFT', 'positionCoords': [511.6, 335], 'bid': 7.390000000000001}, {'imgObject': {}, 'id': 'sushi w_condiments', 'src': '/static/foodstim60/sushi w_condiments.jpg', 'key': 'i', 'origWidth': 410, 'origHeight': 410, 'width': 410, 'height': 410, 'widthPercent': 0.45, 'rescaleHeight': False, 'trialN': 100, 'loaded': True, 'loadedTime': 3146.7000000476837, 'positionName': 'RIGHT', 'positionCoords': [998.4, 335], 'bid': 7.1000000000000005}]",164312.20000004768,1669834449084,chickenfingers,sushi w_condiments,7.390000000000001,7.1000000000000005,-0.29000000000000004,chickenfingers,756.1999999284744,757,756.6999999284744,True,u,165583.29999995232,1271.0999999046326,1669834450355,1271,HRV,HRV_0211,2022-11-30 18:55:59
101,"[{'imgObject': {}, 'id': 'luckycharms', 'src': '/static/foodstim60/luckycharms.jpg', 'key': 'u', 'origWidth': 410, 'origHeight': 409, 'width': 410, 'height': 409, 'widthPercent': 0.45, 'rescaleHeight': False, 'trialN': 101, 'loaded': True, 'loadedTime': 3444.2000000476837, 'positionName': 'LEFT', 'positionCoords': [511.6, 335.5], 'bid': 5.55}, {'imgObject': {}, 'id': 'salmon', 'src': '/static/foodstim60/salmon.jpg', 'key': 'i', 'origWidth': 410, 'origHeight': 409, 'width': 410, 'height': 409, 'widthPercent': 0.45, 'rescaleHeight': False, 'trialN': 101, 'loaded': True, 'loadedTime': 3148.2000000476837, 'positionName': 'RIGHT', 'positionCoords': [998.4, 335.5], 'bid': 10}]",165583.60000002384,1669834450356,luckycharms,salmon,5.55,10.0,4.45,salmon,764.6999999284744,765,765.2999999523163,True,i,166857.20000004768,1273.6000000238419,1669834451629,1273,HRV,HRV_0211,2022-11-30 18:55:59
102,"[{'imgObject': {}, 'id': 'strawberries', 'src': '/static/foodstim60/strawberries.jpg', 'key': 'u', 'origWidth': 410, 'origHeight': 410, 'width': 410, 'height': 410, 'widthPercent': 0.45, 'rescaleHeight': False, 'trialN': 102, 'loaded': True, 'loadedTime': 3456.399999976158, 'positionName': 'LEFT', 'positionCoords': [511.6, 335], 'bid': 5.67}, {'imgObject': {}, 'id': 'hotdog w must', 'src': '/static/foodstim60/hotdog w must.jpg', 'key': 'i', 'origWidth': 409, 'origHeight': 409, 'width': 409, 'height': 409, 'widthPercent': 0.45, 'rescaleHeight': False, 'trialN': 102, 'loaded': True, 'loadedTime': 3157.5, 'positionName': 'RIGHT', 'positionCoords': [998.4, 335.5], 'bid': 1.35}]",166857.5,1669834451630,strawberries,hotdog w must,5.67,1.35,-4.32,strawberries,811.3999999761581,812,811.8999999761581,True,u,168171.5,1314.0,1669834452944,1314,HRV,HRV_0211,2022-11-30 18:55:59
103,"[{'imgObject': {}, 'id': 'cherries', 'src': '/static/foodstim60/cherries.jpg', 'key': 'u', 'origWidth': 410, 'origHeight': 411, 'width': 410, 'height': 411, 'widthPercent': 0.45, 'rescaleHeight': False, 'trialN': 103, 'loaded': True, 'loadedTime': 3154.100000023842, 'positionName': 'LEFT', 'positionCoords': [511.6, 334.5], 'bid': 3.44}, {'imgObject': {}, 'id': 'banana', 'src': '/static/foodstim60/banana.jpg', 'key': 'i', 'origWidth': 410, 'origHeight': 410, 'width': 410, 'height': 410, 'widthPercent': 0.45, 'rescaleHeight': False, 'trialN': 103, 'loaded': True, 'loadedTime': 3222.7999999523163, 'positionName': 'RIGHT', 'positionCoords': [998.4, 335], 'bid': 3.46}]",168171.70000004768,1669834452944,cherries,banana,3.44,3.46,0.020000000000000018,banana,944.8999999761581,945,945.5,True,i,169629.89999997616,1458.1999999284744,1669834454402,1458,HRV,HRV_0211,2022-11-30 18:55:59
104,"[{'imgObject': {}, 'id': 'cherry tomato', 'src': '/static/foodstim60/cherry tomato.jpg', 'key': 'u', 'origWidth': 410, 'origHeight': 410, 'width': 410, 'height': 410, 'widthPercent': 0.45, 'rescaleHeight': False, 'trialN': 104, 'loaded': True, 'loadedTime': 3358.2999999523163, 'positionName': 'LEFT', 'positionCoords': [511.6, 335], 'bid': 5.01}, {'imgObject': {}, 'id': 'popsicles', 'src': '/static/foodstim60/popsicles.jpg', 'key': 'i', 'origWidth': 410, 'origHeight': 410, 'width': 410, 'height': 410, 'widthPercent': 0.45, 'rescaleHeight': False, 'trialN': 104, 'loaded': True, 'loadedTime': 3205.7999999523163, 'positionName': 'RIGHT', 'positionCoords': [998.4, 335], 'bid': 3.68}]",169630.20000004768,1669834454402,cherry tomato,popsicles,5.01,3.68,-1.3299999999999996,cherry tomato,685.6999999284744,687,686.0999999046326,True,u,170820.89999997616,1190.6999999284744,1669834455593,1191,HRV,HRV_0211,2022-11-30 18:55:59
105,"[{'imgObject': {}, 'id': 'tacos', 'src': '/static/foodstim60/tacos.jpg', 'key': 'u', 'origWidth': 411, 'origHeight': 411, 'width': 411, 'height': 411, 'widthPercent': 0.45, 'rescaleHeight': False, 'trialN': 105, 'loaded': True, 'loadedTime': 3132.600000023842, 'positionName': 'LEFT', 'positionCoords': [510.6, 334.5], 'bid': 6.8500000000000005}, {'imgObject': {}, 'id': 'blackbeanswithrice', 'src': '/static/foodstim60/blackbeanswithrice.jpg', 'key': 'i', 'origWidth': 410, 'origHeight': 410, 'width': 410, 'height': 410, 'widthPercent': 0.45, 'rescaleHeight': False, 'trialN': 105, 'loaded': True, 'loadedTime': 3427.2000000476837, 'positionName': 'RIGHT', 'positionCoords': [998.4, 335], 'bid': 6.8500000000000005}]",170821.10000002384,1669834455593,tacos,blackbeanswithrice,6.8500000000000005,6.8500000000000005,0.0,tacos,696.8999999761581,698,697.2999999523163,True,u,172026.0,1204.8999999761581,1669834456798,1205,HRV,HRV_0211,2022-11-30 18:55:59
106,"[{'imgObject': {}, 'id': 'salad w chicken', 'src': '/static/foodstim60/salad w chicken.jpg', 'key': 'u', 'origWidth': 411, 'origHeight': 411, 'width': 411, 'height': 411, 'widthPercent': 0.45, 'rescaleHeight': False, 'trialN': 106, 'loaded': True, 'loadedTime': 3330.7999999523163, 'positionName': 'LEFT', 'positionCoords': [510.6, 334.5], 'bid': 7.82}, {'imgObject': {}, 'id': 'turkey sandwich', 'src': '/static/foodstim60/turkey sandwich.jpg', 'key': 'i', 'origWidth': 409, 'origHeight': 409, 'width': 409, 'height': 409, 'widthPercent': 0.45, 'rescaleHeight': False, 'trialN': 106, 'loaded': True, 'loadedTime': 3240.899999976158, 'positionName': 'RIGHT', 'positionCoords': [998.4, 335.5], 'bid': 6.76}]",172026.20000004768,1669834456798,salad w chicken,turkey sandwich,7.82,6.76,-1.0600000000000005,salad w chicken,801.5,802,801.8999999761581,True,u,173331.79999995232,1305.5999999046326,1669834458104,1306,HRV,HRV_0211,2022-11-30 18:55:59
107,"[{'imgObject': {}, 'id': 'veggieswithdip', 'src': '/static/foodstim60/veggieswithdip.jpg', 'key': 'u', 'origWidth': 409, 'origHeight': 409, 'width': 409, 'height': 409, 'widthPercent': 0.45, 'rescaleHeight': False, 'trialN': 107, 'loaded': True, 'loadedTime': 3398.7999999523163, 'positionName': 'LEFT', 'positionCoords': [512.6, 335.5], 'bid': 6.87}, {'imgObject': {}, 'id': 'Grapes', 'src': '/static/foodstim60/Grapes.jpg', 'key': 'i', 'origWidth': 411, 'origHeight': 411, 'width': 411, 'height': 411, 'widthPercent': 0.45, 'rescaleHeight': False, 'trialN': 107, 'loaded': True, 'loadedTime': 3455.100000023842, 'positionName': 'RIGHT', 'positionCoords': [998.4, 334.5], 'bid': 5.67}]",173332.0,1669834458104,veggieswithdip,Grapes,6.87,5.67,-1.2000000000000002,veggieswithdip,912.2999999523163,913,912.8999999761581,True,u,174747.60000002384,1415.6000000238419,1669834459520,1416,HRV,HRV_0211,2022-11-30 18:55:59
