success,trial_type,trial_index,time_elapsed,internal_node_id,missTrial,missTrialMsg,Block,TrialNumber,TrialTime,trialTimeDiff,FPS_avg,FPS_med,FPS_mode,TrialDur,winResizeTime,rt,block,button_pressed,MotCoh,MotDir,ColCoh,Color,ChoiceKey,Choice,Accuracy,RT,nFrames,FPS,PPD,onsetDelay,fullScreenExitTime,canvCenter,TrialType,Score,BlockTrial,stimulus,button_labels,exp,subjectId,date
True,fullscreen,0,17184,0.0-0.0,True,undefinedblurEvent ,0.0,0.0,,,,,,,,,,,,,,,,,,,,,,,,,,,,,,HRV,HRV_0276,2022-11-30 20:33:04
,wl-check-fps,1,22182,0.0-1.0,,,0.0,1.0,"[17630, 17631.2, 17647, 17670, 17681.7, 17698.5, 17714.1, 17731.5, 17748.7, 17764.9, 17783.1, 17801.8, 17814.1, 17830.7, 17847.4, 17864, 17880.7, 17897.6, 17914.1, 17930.8, 17947.4, 17964.1, 17981, 17997.5, 18014.2, 18030.9, 18047.5, 18064.2, 18080.9, 18097.7, 18114.3, 18131, 18147.9, 18164.3, 18182.6, 18197.9, 18214.3, 18231, 18247.8, 18264.4, 18281.1, 18297.8, 18314.5, 18331.1, 18347.9, 18364.5, 18381.2, 18397.9, 18414.6, 18431.2, 18447.8, 18464.6, 18481.2, 18498, 18514.7, 18531.4, 18548, 18564.8, 18581.4, 18598, 18614.8, 18631.4, 18648.1, 18664.8, 18681.5, 18698.2, 18714.9, 18731.6, 18748.2, 18765, 18781.6, 18798.3, 18814.9, 18831.7, 18848.3, 18865, 18881.7, 18898.4, 18915.1, 18931.9, 18948.5, 18965.1, 18981.8, 18998.4, 19015.2, 19031.8, 19048.6, 19065.2, 19081.9, 19098.6, 19115.3, 19131.9, 19148.6, 19165.4, 19182, 19198.6, 19215.4, 19232.1, 19248.7, 19265.4, 19282.1, 19298.8, 19315.5, 19332.2, 19348.8, 19365.5, 19382.3, 19398.9, 19415.5, 19432.6, 19449.2, 19465.9, 19482.6, 19499.3, 19516, 19532.7, 19549.3, 19566, 19583.2, 19602.3, 19619.2, 19634.1, 19650.8, 19668.3, 19683.7, 19702, 19716.9, 19734.3, 19749.7, 19766.3, 19783.8, 19799.3, 19816, 19832.7, 19849.4, 19866.1, 19883.4, 19900.1, 19916.8, 19933.1, 19950.4, 19970.2, 19983.3, 19999.5, 20016.2, 20033.2, 20050, 20066.6, 20083.4, 20099.9, 20116.6, 20133.4, 20150.1, 20166.7, 20183.4, 20202.3, 20217.3, 20233.4, 20250.2, 20266.8, 20283.5, 20300.2, 20316.8, 20333.4, 20350.3, 20366.9, 20383.6, 20400.3, 20418.6, 20435.1, 20453.1, 20470.8, 20490.1, 20501.8, 20520.4, 20534.5, 20551, 20567.8, 20583.5, 20600.1, 20617.3, 20633.9, 20650.6, 20667.8, 20683.9, 20700.6, 20717.2, 20733.8, 20750.6, 20767.3, 20783.9, 20800.6, 20817.4, 20834.1, 20850.7, 20867.9, 20884, 20900.8, 20917.9, 20934.2, 20950.8, 20968, 20984.2, 21000.9, 21017.5, 21034.2, 21050.9, 21067.6, 21084.3, 21101, 21117.7, 21134.3, 21151, 21168.4, 21184.5, 21201, 21217.8, 21234.5, 21251.1, 21268, 21284.6, 21302.4, 21320.4, 21336.6, 21353.8, 21371.2, 21386.1, 21403.3, 21420.5, 21437.7, 21451.4, 21469, 21484.7, 21501.8, 21520.1, 21537.2, 21553.7, 21570.7, 21586.8, 21603.8, 21620.3, 21636.3, 21653.5, 21671, 21688.1, 21701.7, 21718.2, 21735.3, 21753.1, 21770.3, 21787.7, 21803.6, 21819.4, 21836.3, 21852.6, 21872, 21885, 21901.6, 21918.2, 21937, 21954.7, 21968.4, 21985.8, 22002.6, 22018.2, 22035.9, 22052.8, 22072.4, 22089, 22105.4, 22121.7, 22138.3, 22155.1, 22171.7, 22189.1, 22205.6, 22222.3, 22238.8, 22252.7, 22269.2, 22285.8, 22302.5, 22319.2, 22336, 22352.7, 22369.3, 22385.8, 22402.7, 22419.5, 22436.3, 22452.9, 22469.7, 22486.3, 22503, 22519.4, 22536.5, 22553, 22569.7, 22586.5, 22603.1]","[1, 1.2, 15.8, 23, 11.7, 16.8, 15.6, 17.4, 17.2, 16.2, 18.2, 18.7, 12.3, 16.6, 16.7, 16.6, 16.7, 16.9, 16.5, 16.7, 16.6, 16.7, 16.9, 16.5, 16.7, 16.7, 16.6, 16.7, 16.7, 16.8, 16.6, 16.7, 16.9, 16.4, 18.3, 15.3, 16.4, 16.7, 16.8, 16.6, 16.7, 16.7, 16.7, 16.6, 16.8, 16.6, 16.7, 16.7, 16.7, 16.6, 16.6, 16.8, 16.6, 16.8, 16.7, 16.7, 16.6, 16.8, 16.6, 16.6, 16.8, 16.6, 16.7, 16.7, 16.7, 16.7, 16.7, 16.7, 16.6, 16.8, 16.6, 16.7, 16.6, 16.8, 16.6, 16.7, 16.7, 16.7, 16.7, 16.8, 16.6, 16.6, 16.7, 16.6, 16.8, 16.6, 16.8, 16.6, 16.7, 16.7, 16.7, 16.6, 16.7, 16.8, 16.6, 16.6, 16.8, 16.7, 16.6, 16.7, 16.7, 16.7, 16.7, 16.7, 16.6, 16.7, 16.8, 16.6, 16.6, 17.1, 16.6, 16.7, 16.7, 16.7, 16.7, 16.7, 16.6, 16.7, 17.2, 19.1, 16.9, 14.9, 16.7, 17.5, 15.4, 18.3, 14.9, 17.4, 15.4, 16.6, 17.5, 15.5, 16.7, 16.7, 16.7, 16.7, 17.3, 16.7, 16.7, 16.3, 17.3, 19.8, 13.1, 16.2, 16.7, 17, 16.8, 16.6, 16.8, 16.5, 16.7, 16.8, 16.7, 16.6, 16.7, 18.9, 15, 16.1, 16.8, 16.6, 16.7, 16.7, 16.6, 16.6, 16.9, 16.6, 16.7, 16.7, 18.3, 16.5, 18, 17.7, 19.3, 11.7, 18.6, 14.1, 16.5, 16.8, 15.7, 16.6, 17.2, 16.6, 16.7, 17.2, 16.1, 16.7, 16.6, 16.6, 16.8, 16.7, 16.6, 16.7, 16.8, 16.7, 16.6, 17.2, 16.1, 16.8, 17.1, 16.3, 16.6, 17.2, 16.2, 16.7, 16.6, 16.7, 16.7, 16.7, 16.7, 16.7, 16.7, 16.6, 16.7, 17.4, 16.1, 16.5, 16.8, 16.7, 16.6, 16.9, 16.6, 17.8, 18, 16.2, 17.2, 17.4, 14.9, 17.2, 17.2, 17.2, 13.7, 17.6, 15.7, 17.1, 18.3, 17.1, 16.5, 17, 16.1, 17, 16.5, 16, 17.2, 17.5, 17.1, 13.6, 16.5, 17.1, 17.8, 17.2, 17.4, 15.9, 15.8, 16.9, 16.3, 19.4, 13, 16.6, 16.6, 18.8, 17.7, 13.7, 17.4, 16.8, 15.6, 17.7, 16.9, 19.6, 16.6, 16.4, 16.3, 16.6, 16.8, 16.6, 17.4, 16.5, 16.7, 16.5, 13.9, 16.5, 16.6, 16.7, 16.7, 16.8, 16.7, 16.6, 16.5, 16.9, 16.8, 16.8, 16.6, 16.8, 16.6, 16.7, 16.4, 17.1, 16.5, 16.7, 16.8, 16.6]",60.0,60.0,60.0,4990.7,[],,,,,,,,,,,,,,,,,,,,,,,HRV,HRV_0276,2022-11-30 20:33:04
,wl-html-keyboard-response,2,43051,0.0-2.0-0.0,,,0.0,2.0,,,,,,,,18854.10000014305,0.0,0,,,,,,,,,,,,,,,,,,,,HRV,HRV_0276,2022-11-30 20:33:04
,wl-rdm,3,51175,0.0-3.0-0.0,False,,0.0,3.0,,,,,,,[],,,,0.0,0.0,87.9,0.0,u,0.0,True,2508.9000000953674,151.0,60.0,40.0,3000.0,[],"[960, 540]",ColorTask_Demo,,,,,HRV,HRV_0276,2022-11-30 20:33:04
,wl-rdm,4,74079,0.0-3.0-1.0,False,too_early RT_timeout ,0.0,4.0,,,,,,,[],,,,0.0,0.0,87.9,1.0,i,1.0,True,1677.7999999523163,101.0,60.0,40.0,2000.0,[],"[960, 540]",ColorTask_Demo,,,,,HRV,HRV_0276,2022-11-30 20:33:04
,wl-html-keyboard-response,5,82932,0.0-3.0-2.0,,,0.0,5.0,,,,,,,,6838.599999904633,0.0,1,,,,,,,,,,,,,,,,,,,,HRV,HRV_0276,2022-11-30 20:33:04
,wl-html-keyboard-response,6,95764,0.0-4.0-0.0,,,0.0,6.0,,,,,,,,10826.599999904633,0.0,0,,,,,,,,,,,,,,,,,,,,HRV,HRV_0276,2022-11-30 20:33:04
,wl-html-keyboard-response,7,116532,0.0-5.0-0.0,,,0.0,7.0,,,,,,,,18762.900000095367,0.0,0,,,,,,,,,,,,,,,,,,,,HRV,HRV_0276,2022-11-30 20:33:04
,wl-rdm,8,119741,0.0-6.0-0.0,False,,0.0,8.0,,,,,,,[],,,,,,73.6,0.0,u,0.0,True,1925.9000000953674,116.0,60.0,40.0,212.32957626802528,[],"[960, 540]",ColorTask,1.0,1.0,,,HRV,HRV_0276,2022-11-30 20:33:04
,wl-rdm,9,123062,0.0-6.1-0.1,False,,0.0,9.0,,,,,,,[],,,,,,53.2,0.0,i,1.0,False,1940.4999997615814,117.0,60.0,40.0,305.2271212566242,[],"[960, 540]",ColorTask,0.0,2.0,,,HRV,HRV_0276,2022-11-30 20:33:04
,wl-rdm,10,125732,0.0-6.2-0.2,False,,0.0,10.0,,,,,,,[],,,,,,73.6,1.0,i,1.0,True,1374.8000001907349,83.0,60.0,40.0,226.457205549729,[],"[960, 540]",ColorTask,1.0,3.0,,,HRV,HRV_0276,2022-11-30 20:33:04
,wl-rdm,11,128650,0.0-6.3-0.3,False,,0.0,11.0,,,,,,,[],,,,,,73.6,1.0,i,1.0,True,1648.2000000476837,99.0,60.0,40.0,203.58631721783084,[],"[960, 540]",ColorTask,2.0,4.0,,,HRV,HRV_0276,2022-11-30 20:33:04
,wl-rdm,12,131737,0.0-6.4-0.4,False,,0.0,12.0,,,,,,,[],,,,,,53.2,1.0,u,0.0,False,1725.9999997615814,104.0,60.0,40.0,297.23195019218525,[],"[960, 540]",ColorTask,1.0,5.0,,,HRV,HRV_0276,2022-11-30 20:33:04
,wl-rdm,13,134422,0.0-6.5-0.5,False,,0.0,13.0,,,,,,,[],,,,,,62.5,0.0,u,0.0,True,1411.0999999046326,85.0,60.0,40.0,216.06968635315658,[],"[960, 540]",ColorTask,2.0,6.0,,,HRV,HRV_0276,2022-11-30 20:33:04
,wl-rdm,14,137526,0.0-6.6-0.6,False,,0.0,14.0,,,,,,,[],,,,,,53.2,0.0,i,1.0,False,1705.2000000476837,103.0,60.0,40.0,324.9347815079203,[],"[960, 540]",ColorTask,1.0,7.0,,,HRV,HRV_0276,2022-11-30 20:33:04
,wl-rdm,15,141329,0.0-6.7-0.7,False,,0.0,15.0,,,,,,,[],,,,,,53.2,1.0,i,1.0,True,2499.899999856949,150.0,60.0,40.0,238.39135823143684,[],"[960, 540]",ColorTask,2.0,8.0,,,HRV,HRV_0276,2022-11-30 20:33:04
,wl-rdm,16,144415,0.0-6.8-0.8,False,,0.0,16.0,,,,,,,[],,,,,,56.4,0.0,u,0.0,True,1743.7000000476837,105.0,60.0,40.0,270.6823417219614,[],"[960, 540]",ColorTask,3.0,9.0,,,HRV,HRV_0276,2022-11-30 20:33:04
,wl-rdm,17,147252,0.0-6.9-0.9,False,,0.0,17.0,,,,,,,[],,,,,,62.5,0.0,u,0.0,True,1524.1000001430511,92.0,60.0,40.0,249.50316694278789,[],"[960, 540]",ColorTask,4.0,10.0,,,HRV,HRV_0276,2022-11-30 20:33:04
,wl-rdm,18,150271,0.0-6.10-0.10,False,,0.0,18.0,,,,,,,[],,,,,,50.0,0.0,u,0.0,True,1727.3000001907349,104.0,60.0,40.0,229.72164978967047,[],"[960, 540]",ColorTask,5.0,11.0,,,HRV,HRV_0276,2022-11-30 20:33:04
,wl-rdm,19,153341,0.0-6.11-0.11,False,,0.0,19.0,,,,,,,[],,,,,,87.9,1.0,i,1.0,True,1673.8999998569489,101.0,60.0,40.0,328.90092257710944,[],"[960, 540]",ColorTask,6.0,12.0,,,HRV,HRV_0276,2022-11-30 20:33:04
,wl-rdm,20,156076,0.0-6.12-0.12,False,,0.0,20.0,,,,,,,[],,,,,,73.6,1.0,i,1.0,True,1429.7000000476837,86.0,60.0,40.0,226.9781709814215,[],"[960, 540]",ColorTask,7.0,13.0,,,HRV,HRV_0276,2022-11-30 20:33:04
,wl-rdm,21,158579,0.0-6.13-0.13,False,,0.0,21.0,,,,,,,[],,,,,,87.9,1.0,i,1.0,True,1145.7999999523163,69.0,60.0,40.0,288.70088904330737,[],"[960, 540]",ColorTask,8.0,14.0,,,HRV,HRV_0276,2022-11-30 20:33:04
,wl-rdm,22,161482,0.0-6.14-0.14,False,,0.0,22.0,,,,,,,[],,,,,,87.9,1.0,i,1.0,True,1447.7000000476837,87.0,60.0,40.0,398.4180229736867,[],"[960, 540]",ColorTask,9.0,15.0,,,HRV,HRV_0276,2022-11-30 20:33:04
,wl-rdm,23,163885,0.0-6.15-0.15,False,,0.0,23.0,,,,,,,[],,,,,,87.9,0.0,u,0.0,True,1045.1000001430511,63.0,60.0,40.0,284.3662892748049,[],"[960, 540]",ColorTask,10.0,16.0,,,HRV,HRV_0276,2022-11-30 20:33:04
,wl-rdm,24,166670,0.0-6.16-0.16,False,,0.0,24.0,,,,,,,[],,,,,,73.6,1.0,i,1.0,True,1409.0999999046326,85.0,60.0,40.0,307.9833528032238,[],"[960, 540]",ColorTask,11.0,17.0,,,HRV,HRV_0276,2022-11-30 20:33:04
,wl-rdm,25,170140,0.0-6.17-0.17,False,,0.0,25.0,,,,,,,[],,,,,,62.5,0.0,u,0.0,True,2195.600000143051,132.0,60.0,40.0,208.04785497650568,[],"[960, 540]",ColorTask,12.0,18.0,,,HRV,HRV_0276,2022-11-30 20:33:04
,wl-rdm,26,173027,0.0-6.18-0.18,False,,0.0,26.0,,,,,,,[],,,,,,53.2,0.0,u,0.0,True,1480.3999998569489,89.0,60.0,40.0,343.8937144189845,[],"[960, 540]",ColorTask,13.0,19.0,,,HRV,HRV_0276,2022-11-30 20:33:04
,wl-rdm,27,176580,0.0-6.19-0.19,False,,0.0,27.0,,,,,,,[],,,,,,56.4,1.0,i,1.0,True,2279.800000190735,137.0,60.0,40.0,214.51077740952704,[],"[960, 540]",ColorTask,14.0,20.0,,,HRV,HRV_0276,2022-11-30 20:33:04
,wl-rdm,28,179150,0.0-6.20-0.20,False,,0.0,28.0,,,,,,,[],,,,,,62.5,0.0,u,0.0,True,1210.7000000476837,73.0,60.0,40.0,283.9362054451014,[],"[960, 540]",ColorTask,15.0,21.0,,,HRV,HRV_0276,2022-11-30 20:33:04
,wl-rdm,29,182302,0.0-6.21-0.21,False,,0.0,29.0,,,,,,,[],,,,,,56.4,1.0,i,1.0,True,1827.9000000953674,110.0,60.0,40.0,244.21166678295288,[],"[960, 540]",ColorTask,16.0,22.0,,,HRV,HRV_0276,2022-11-30 20:33:04
,wl-rdm,30,185072,0.0-6.22-0.22,False,,0.0,30.0,,,,,,,[],,,,,,87.9,0.0,u,0.0,True,1400.1000001430511,84.0,60.0,40.0,304.3786057340708,[],"[960, 540]",ColorTask,17.0,23.0,,,HRV,HRV_0276,2022-11-30 20:33:04
,wl-rdm,31,188275,0.0-6.23-0.23,False,,0.0,31.0,,,,,,,[],,,,,,56.4,1.0,i,1.0,True,1890.9000000953674,114.0,60.0,40.0,239.14346303992824,[],"[960, 540]",ColorTask,18.0,24.0,,,HRV,HRV_0276,2022-11-30 20:33:04
,wl-rdm,32,191195,0.0-6.24-0.24,False,,0.0,32.0,,,,,,,[],,,,,,73.6,0.0,u,0.0,True,1464.2999999523163,88.0,60.0,40.0,385.96561929208667,[],"[960, 540]",ColorTask,19.0,25.0,,,HRV,HRV_0276,2022-11-30 20:33:04
,wl-rdm,33,195149,0.0-6.25-0.25,False,,0.0,33.0,,,,,,,[],,,,,,56.4,0.0,i,1.0,False,2660.2000000476837,160.0,60.0,40.0,208.7061716658474,[],"[960, 540]",ColorTask,18.0,26.0,,,HRV,HRV_0276,2022-11-30 20:33:04
,wl-rdm,34,198669,0.0-6.26-0.26,False,,0.0,34.0,,,,,,,[],,,,,,62.5,1.0,i,1.0,True,2140.699999809265,129.0,60.0,40.0,304.248732853304,[],"[960, 540]",ColorTask,19.0,27.0,,,HRV,HRV_0276,2022-11-30 20:33:04
,wl-rdm,35,202123,0.0-6.27-0.27,False,,0.0,35.0,,,,,,,[],,,,,,50.0,1.0,i,1.0,True,2014.6999998092651,121.0,60.0,40.0,376.45365321189666,[],"[960, 540]",ColorTask,20.0,28.0,,,HRV,HRV_0276,2022-11-30 20:33:04
,wl-rdm,36,204825,0.0-6.28-0.28,False,,0.0,36.0,,,,,,,[],,,,,,73.6,1.0,i,1.0,True,1289.9000000953674,78.0,60.0,40.0,339.3923568483224,[],"[960, 540]",ColorTask,21.0,29.0,,,HRV,HRV_0276,2022-11-30 20:33:04
,wl-rdm,37,207595,0.0-6.29-0.29,False,,0.0,37.0,,,,,,,[],,,,,,73.6,0.0,u,0.0,True,1497.6999998092651,90.0,60.0,40.0,213.30900807755154,[],"[960, 540]",ColorTask,22.0,30.0,,,HRV,HRV_0276,2022-11-30 20:33:04
,wl-rdm,38,210698,0.0-6.30-0.30,False,,0.0,38.0,,,,,,,[],,,,,,62.5,0.0,u,0.0,True,1724.2999999523163,104.0,60.0,40.0,305.7403711874274,[],"[960, 540]",ColorTask,23.0,31.0,,,HRV,HRV_0276,2022-11-30 20:33:04
,wl-rdm,39,213618,0.0-6.31-0.31,False,,0.0,39.0,,,,,,,[],,,,,,50.0,0.0,i,1.0,False,1624.2999999523163,98.0,60.0,40.0,218.97068263171798,[],"[960, 540]",ColorTask,22.0,32.0,,,HRV,HRV_0276,2022-11-30 20:33:04
,wl-rdm,40,216687,0.0-6.32-0.32,False,,0.0,40.0,,,,,,,[],,,,,,50.0,0.0,i,1.0,False,1790.9000000953674,108.0,60.0,40.0,213.07748635454877,[],"[960, 540]",ColorTask,21.0,33.0,,,HRV,HRV_0276,2022-11-30 20:33:04
,wl-rdm,41,219606,0.0-6.33-0.33,False,,0.0,41.0,,,,,,,[],,,,,,73.6,0.0,u,0.0,True,1473.9000000953674,89.0,60.0,40.0,365.80915925808085,[],"[960, 540]",ColorTask,22.0,34.0,,,HRV,HRV_0276,2022-11-30 20:33:04
,wl-rdm,42,221893,0.0-6.34-0.34,False,,0.0,42.0,,,,,,,[],,,,,,87.9,0.0,u,0.0,True,961.9000000953674,58.0,60.0,40.0,263.31984972897095,[],"[960, 540]",ColorTask,23.0,35.0,,,HRV,HRV_0276,2022-11-30 20:33:04
,wl-rdm,43,224344,0.0-6.35-0.35,False,,0.0,43.0,,,,,,,[],,,,,,87.9,0.0,u,0.0,True,1041.1000001430511,63.0,60.0,40.0,336.027748442209,[],"[960, 540]",ColorTask,24.0,36.0,,,HRV,HRV_0276,2022-11-30 20:33:04
,wl-rdm,44,226964,0.0-6.36-0.36,False,,0.0,44.0,,,,,,,[],,,,,,50.0,0.0,i,1.0,False,1305.9000000953674,79.0,60.0,40.0,234.18171082663545,[],"[960, 540]",ColorTask,23.0,37.0,,,HRV,HRV_0276,2022-11-30 20:33:04
,wl-rdm,45,230184,0.0-6.37-0.37,False,,0.0,45.0,,,,,,,[],,,,,,56.4,1.0,i,1.0,True,1883.9000000953674,113.0,60.0,40.0,268.26123344584096,[],"[960, 540]",ColorTask,24.0,38.0,,,HRV,HRV_0276,2022-11-30 20:33:04
,wl-rdm,46,233604,0.0-6.38-0.38,False,,0.0,46.0,,,,,,,[],,,,,,50.0,0.0,u,0.0,True,2008.2999999523163,121.0,60.0,40.0,342.92919183700906,[],"[960, 540]",ColorTask,25.0,39.0,,,HRV,HRV_0276,2022-11-30 20:33:04
,wl-rdm,47,236707,0.0-6.39-0.39,False,,0.0,47.0,,,,,,,[],,,,,,56.4,0.0,u,0.0,True,1640.2999999523163,99.0,60.0,40.0,395.21433957587726,[],"[960, 540]",ColorTask,26.0,40.0,,,HRV,HRV_0276,2022-11-30 20:33:04
,wl-rdm,48,239927,0.0-6.40-0.40,False,,0.0,48.0,,,,,,,[],,,,,,53.2,0.0,i,1.0,False,1876.2000000476837,113.0,60.0,40.0,276.7988723331406,[],"[960, 540]",ColorTask,25.0,41.0,,,HRV,HRV_0276,2022-11-30 20:33:04
,wl-rdm,49,243380,0.0-6.41-0.41,False,,0.0,49.0,,,,,,,[],,,,,,53.2,1.0,i,1.0,True,2013.1999998092651,121.0,60.0,40.0,374.0783130005345,[],"[960, 540]",ColorTask,26.0,42.0,,,HRV,HRV_0276,2022-11-30 20:33:04
,wl-rdm,50,247535,0.0-6.42-0.42,False,,0.0,50.0,,,,,,,[],,,,,,50.0,1.0,i,1.0,True,2811.900000333786,169.0,60.0,40.0,270.63527246836554,[],"[960, 540]",ColorTask,27.0,43.0,,,HRV,HRV_0276,2022-11-30 20:33:04
,wl-rdm,51,250304,0.0-6.43-0.43,False,,0.0,51.0,,,,,,,[],,,,,,87.9,1.0,i,1.0,True,1349.7000000476837,81.0,60.0,40.0,353.661135351791,[],"[960, 540]",ColorTask,28.0,44.0,,,HRV,HRV_0276,2022-11-30 20:33:04
,wl-rdm,52,253674,0.0-6.44-0.44,False,,0.0,52.0,,,,,,,[],,,,,,53.2,1.0,i,1.0,True,1976.0,119.0,60.0,40.0,323.7875715258357,[],"[960, 540]",ColorTask,29.0,45.0,,,HRV,HRV_0276,2022-11-30 20:33:04
,wl-rdm,53,257946,0.0-6.45-0.45,False,,0.0,53.0,,,,,,,[],,,,,,62.5,1.0,i,1.0,True,2893.199999809265,174.0,60.0,40.0,311.8875848328762,[],"[960, 540]",ColorTask,30.0,46.0,,,HRV,HRV_0276,2022-11-30 20:33:04
,wl-rdm,54,261783,0.0-6.46-0.46,False,,0.0,54.0,,,,,,,[],,,,,,87.9,1.0,i,1.0,True,2510.5,151.0,60.0,40.0,265.2936378794317,[],"[960, 540]",ColorTask,31.0,47.0,,,HRV,HRV_0276,2022-11-30 20:33:04
,wl-rdm,55,265770,0.0-6.47-0.47,False,,0.0,55.0,,,,,,,[],,,,,,53.2,1.0,u,0.0,False,2543.0,153.0,60.0,40.0,368.8665927224638,[],"[960, 540]",ColorTask,30.0,48.0,,,HRV,HRV_0276,2022-11-30 20:33:04
,wl-rdm,56,268923,0.0-6.48-0.48,False,,0.0,56.0,,,,,,,[],,,,,,53.2,0.0,u,0.0,True,1790.0999999046326,108.0,60.0,40.0,287.7004547970021,[],"[960, 540]",ColorTask,31.0,49.0,,,HRV,HRV_0276,2022-11-30 20:33:04
,wl-rdm,57,272527,0.0-6.49-0.49,False,,0.0,57.0,,,,,,,[],,,,,,50.0,0.0,i,1.0,False,2307.9000000953674,139.0,60.0,40.0,219.62288781469417,[],"[960, 540]",ColorTask,30.0,50.0,,,HRV,HRV_0276,2022-11-30 20:33:04
,wl-rdm,58,275545,0.0-6.50-0.50,False,,0.0,58.0,,,,,,,[],,,,,,62.5,1.0,i,1.0,True,1681.8999998569489,101.0,60.0,40.0,279.4090679853923,[],"[960, 540]",ColorTask,31.0,51.0,,,HRV,HRV_0276,2022-11-30 20:33:04
,wl-rdm,59,278416,0.0-6.51-0.51,False,,0.0,59.0,,,,,,,[],,,,,,73.6,0.0,u,0.0,True,1450.4000000953674,87.0,60.0,40.0,352.2161601085185,[],"[960, 540]",ColorTask,32.0,52.0,,,HRV,HRV_0276,2022-11-30 20:33:04
,wl-rdm,60,281769,0.0-6.52-0.52,False,,0.0,60.0,,,,,,,[],,,,,,62.5,1.0,i,1.0,True,1974.8999998569489,119.0,60.0,40.0,305.0889026499286,[],"[960, 540]",ColorTask,33.0,53.0,,,HRV,HRV_0276,2022-11-30 20:33:04
,wl-rdm,61,284805,0.0-6.53-0.53,False,,0.0,61.0,,,,,,,[],,,,,,56.4,0.0,u,0.0,True,1572.8999998569489,95.0,60.0,40.0,386.71022625638454,[],"[960, 540]",ColorTask,34.0,54.0,,,HRV,HRV_0276,2022-11-30 20:33:04
,wl-rdm,62,289277,0.0-6.54-0.54,True,RT_timeout ,0.0,61.0,,,,,,,[],,,,,,50.0,0.0,u,,,3311.0,179.0,60.0,40.0,385.2898871607257,[],"[960, 540]",ColorTask,33.0,55.0,,,HRV,HRV_0276,2022-11-30 20:33:04
,wl-rdm,63,292296,0.0-6.55-0.55,False,,0.0,62.0,,,,,,,[],,,,,,53.2,0.0,u,0.0,True,1666.5999999046326,100.0,60.0,40.0,296.3999450504383,[],"[960, 540]",ColorTask,34.0,56.0,,,HRV,HRV_0276,2022-11-30 20:33:04
,wl-rdm,64,295549,0.0-6.56-0.56,False,,0.0,63.0,,,,,,,[],,,,,,53.2,1.0,i,1.0,True,1894.7000000476837,114.0,60.0,40.0,295.7815016462783,[],"[960, 540]",ColorTask,35.0,57.0,,,HRV,HRV_0276,2022-11-30 20:33:04
,wl-rdm,65,298369,0.0-6.57-0.57,False,,0.0,64.0,,,,,,,[],,,,,,56.4,0.0,u,0.0,True,1441.8999998569489,87.0,60.0,40.0,305.39793294104874,[],"[960, 540]",ColorTask,36.0,58.0,,,HRV,HRV_0276,2022-11-30 20:33:04
,wl-rdm,66,301305,0.0-6.58-0.58,False,,0.0,65.0,,,,,,,[],,,,,,50.0,0.0,i,1.0,False,1657.8999998569489,100.0,60.0,40.0,216.05696290380936,[],"[960, 540]",ColorTask,35.0,59.0,,,HRV,HRV_0276,2022-11-30 20:33:04
,wl-rdm,67,304475,0.0-6.59-0.59,False,,0.0,66.0,,,,,,,[],,,,,,56.4,1.0,u,0.0,False,1823.5,110.0,60.0,40.0,273.7878946119777,[],"[960, 540]",ColorTask,34.0,60.0,,,HRV,HRV_0276,2022-11-30 20:33:04
,wl-rdm,68,307711,0.0-6.60-0.60,False,,0.0,67.0,,,,,,,[],,,,,,53.2,1.0,u,0.0,False,1817.0000002384186,109.0,60.0,40.0,366.7681463860049,[],"[960, 540]",ColorTask,33.0,61.0,,,HRV,HRV_0276,2022-11-30 20:33:04
,wl-rdm,69,310431,0.0-6.61-0.61,False,,0.0,68.0,,,,,,,[],,,,,,87.9,1.0,i,1.0,True,1392.7000002861023,84.0,60.0,40.0,264.1446500332151,[],"[960, 540]",ColorTask,34.0,62.0,,,HRV,HRV_0276,2022-11-30 20:33:04
,wl-rdm,70,312816,0.0-6.62-0.62,False,,0.0,69.0,,,,,,,[],,,,,,87.9,1.0,i,1.0,True,1083.2000000476837,65.0,60.0,40.0,243.51144831932538,[],"[960, 540]",ColorTask,35.0,63.0,,,HRV,HRV_0276,2022-11-30 20:33:04
,wl-rdm,71,315518,0.0-6.63-0.63,False,,0.0,70.0,,,,,,,[],,,,,,62.5,1.0,i,1.0,True,1338.4000000953674,81.0,60.0,40.0,287.64660107475356,[],"[960, 540]",ColorTask,36.0,64.0,,,HRV,HRV_0276,2022-11-30 20:33:04
,wl-rdm,72,317855,0.0-6.64-0.64,False,,0.0,71.0,,,,,,,[],,,,,,73.6,0.0,u,0.0,True,1025.8000001907349,62.0,60.0,40.0,248.50728801756577,[],"[960, 540]",ColorTask,37.0,65.0,,,HRV,HRV_0276,2022-11-30 20:33:04
,wl-rdm,73,320890,0.0-6.65-0.65,False,,0.0,72.0,,,,,,,[],,,,,,62.5,1.0,i,1.0,True,1675.0,101.0,60.0,40.0,273.58184467374724,[],"[960, 540]",ColorTask,38.0,66.0,,,HRV,HRV_0276,2022-11-30 20:33:04
,wl-rdm,74,323409,0.0-6.66-0.66,False,,0.0,73.0,,,,,,,[],,,,,,73.6,1.0,i,1.0,True,1073.3000001907349,65.0,60.0,40.0,382.649856713116,[],"[960, 540]",ColorTask,39.0,67.0,,,HRV,HRV_0276,2022-11-30 20:33:04
,wl-rdm,75,327047,0.0-6.67-0.67,False,,0.0,74.0,,,,,,,[],,,,,,53.2,1.0,i,1.0,True,2276.899999856949,137.0,60.0,40.0,284.5176741407382,[],"[960, 540]",ColorTask,40.0,68.0,,,HRV,HRV_0276,2022-11-30 20:33:04
,wl-rdm,76,329966,0.0-6.68-0.68,False,,0.0,75.0,,,,,,,[],,,,,,50.0,1.0,u,0.0,False,1592.8999998569489,96.0,60.0,40.0,251.58627526548807,[],"[960, 540]",ColorTask,39.0,69.0,,,HRV,HRV_0276,2022-11-30 20:33:04
,wl-rdm,77,333253,0.0-6.69-0.69,False,,0.0,76.0,,,,,,,[],,,,,,56.4,0.0,u,0.0,True,1856.0,112.0,60.0,40.0,363.4584890444114,[],"[960, 540]",ColorTask,40.0,70.0,,,HRV,HRV_0276,2022-11-30 20:33:04
,wl-rdm,78,336372,0.0-6.70-0.70,False,,0.0,77.0,,,,,,,[],,,,,,87.9,0.0,u,0.0,True,1778.6000001430511,107.0,60.0,40.0,272.1693604353304,[],"[960, 540]",ColorTask,41.0,71.0,,,HRV,HRV_0276,2022-11-30 20:33:04
,wl-rdm,79,338642,0.0-6.71-0.71,False,,0.0,78.0,,,,,,,[],,,,,,87.9,0.0,u,0.0,True,972.3000001907349,59.0,60.0,40.0,222.57048698826117,[],"[960, 540]",ColorTask,42.0,72.0,,,HRV,HRV_0276,2022-11-30 20:33:04
,wl-rdm,80,341745,0.0-6.72-0.72,False,,0.0,79.0,,,,,,,[],,,,,,50.0,1.0,u,0.0,False,1757.0999999046326,106.0,60.0,40.0,271.92781687922184,[],"[960, 540]",ColorTask,41.0,73.0,,,HRV,HRV_0276,2022-11-30 20:33:04
,wl-rdm,81,344314,0.0-6.73-0.73,False,,0.0,80.0,,,,,,,[],,,,,,73.6,0.0,u,0.0,True,1289.7999997138977,78.0,60.0,40.0,206.57801974347095,[],"[960, 540]",ColorTask,42.0,74.0,,,HRV,HRV_0276,2022-11-30 20:33:04
,wl-rdm,82,346949,0.0-6.74-0.74,False,,0.0,81.0,,,,,,,[],,,,,,62.5,0.0,u,0.0,True,1244.0,75.0,60.0,40.0,321.5503446392113,[],"[960, 540]",ColorTask,43.0,75.0,,,HRV,HRV_0276,2022-11-30 20:33:04
,wl-rdm,83,350137,0.0-6.75-0.75,False,,0.0,82.0,,,,,,,[],,,,,,56.4,1.0,i,1.0,True,1841.5999999046326,111.0,60.0,40.0,276.6492287412114,[],"[960, 540]",ColorTask,44.0,76.0,,,HRV,HRV_0276,2022-11-30 20:33:04
,wl-rdm,84,352356,0.0-6.76-0.76,False,,0.0,83.0,,,,,,,[],,,,,,87.9,0.0,u,0.0,True,894.7000000476837,54.0,60.0,40.0,260.89783944772057,[],"[960, 540]",ColorTask,45.0,77.0,,,HRV,HRV_0276,2022-11-30 20:33:04
,wl-rdm,85,354974,0.0-6.77-0.77,False,,0.0,84.0,,,,,,,[],,,,,,50.0,0.0,u,0.0,True,1226.2999999523163,74.0,60.0,40.0,332.971652729158,[],"[960, 540]",ColorTask,46.0,78.0,,,HRV,HRV_0276,2022-11-30 20:33:04
,wl-rdm,86,358011,0.0-6.78-0.78,False,,0.0,85.0,,,,,,,[],,,,,,50.0,1.0,u,0.0,False,1624.4000000953674,98.0,60.0,40.0,344.92790624958144,[],"[960, 540]",ColorTask,45.0,79.0,,,HRV,HRV_0276,2022-11-30 20:33:04
,wl-rdm,87,361348,0.0-6.79-0.79,False,,0.0,86.0,,,,,,,[],,,,,,56.4,0.0,u,0.0,True,1930.0999999046326,116.0,60.0,40.0,342.3454578286775,[],"[960, 540]",ColorTask,46.0,80.0,,,HRV,HRV_0276,2022-11-30 20:33:04
,wl-rdm,88,363583,0.0-6.80-0.80,False,,0.0,87.0,,,,,,,[],,,,,,73.6,0.0,u,0.0,True,874.2000002861023,53.0,60.0,40.0,292.74502424016805,[],"[960, 540]",ColorTask,47.0,81.0,,,HRV,HRV_0276,2022-11-30 20:33:04
,wl-rdm,89,366653,0.0-6.81-0.81,False,,0.0,88.0,,,,,,,[],,,,,,50.0,1.0,i,1.0,True,1790.9000000953674,108.0,60.0,40.0,205.65388947793718,[],"[960, 540]",ColorTask,48.0,82.0,,,HRV,HRV_0276,2022-11-30 20:33:04
,wl-rdm,90,368738,0.0-6.82-0.82,False,,0.0,89.0,,,,,,,[],,,,,,87.9,1.0,i,1.0,True,796.0999999046326,48.0,60.0,40.0,220.12730068853404,[],"[960, 540]",ColorTask,49.0,83.0,,,HRV,HRV_0276,2022-11-30 20:33:04
,wl-rdm,91,371674,0.0-6.83-0.83,False,,0.0,90.0,,,,,,,[],,,,,,53.2,0.0,u,0.0,True,1479.1999998092651,89.0,60.0,40.0,393.50279203328563,[],"[960, 540]",ColorTask,50.0,84.0,,,HRV,HRV_0276,2022-11-30 20:33:04
,wl-rdm,92,374061,0.0-6.84-0.84,False,,0.0,91.0,,,,,,,[],,,,,,62.5,0.0,u,0.0,True,1107.0999999046326,67.0,60.0,40.0,208.32534586525296,[],"[960, 540]",ColorTask,51.0,85.0,,,HRV,HRV_0276,2022-11-30 20:33:04
,wl-rdm,93,377464,0.0-6.85-0.85,False,,0.0,92.0,,,,,,,[],,,,,,53.2,0.0,u,0.0,True,2126.0,128.0,60.0,40.0,205.7410609157583,[],"[960, 540]",ColorTask,52.0,86.0,,,HRV,HRV_0276,2022-11-30 20:33:04
,wl-rdm,94,379883,0.0-6.86-0.86,False,,0.0,93.0,,,,,,,[],,,,,,73.6,1.0,i,1.0,True,963.4000000953674,58.0,60.0,40.0,389.76130406847176,[],"[960, 540]",ColorTask,53.0,87.0,,,HRV,HRV_0276,2022-11-30 20:33:04
,wl-rdm,95,382686,0.0-6.87-0.87,False,,0.0,94.0,,,,,,,[],,,,,,62.5,1.0,i,1.0,True,1406.9999997615814,85.0,60.0,40.0,333.09134648486327,[],"[960, 540]",ColorTask,54.0,88.0,,,HRV,HRV_0276,2022-11-30 20:33:04
,wl-rdm,96,385055,0.0-6.88-0.88,False,,0.0,95.0,,,,,,,[],,,,,,53.2,1.0,i,1.0,True,1041.5,63.0,60.0,40.0,254.85151150052423,[],"[960, 540]",ColorTask,55.0,89.0,,,HRV,HRV_0276,2022-11-30 20:33:04
,wl-rdm,97,387257,0.0-6.89-0.89,False,,0.0,96.0,,,,,,,[],,,,,,73.6,1.0,i,1.0,True,790.0999999046326,48.0,60.0,40.0,349.04112505558874,[],"[960, 540]",ColorTask,56.0,90.0,,,HRV,HRV_0276,2022-11-30 20:33:04
,wl-rdm,98,389359,0.0-6.90-0.90,False,,0.0,97.0,,,,,,,[],,,,,,87.9,0.0,u,0.0,True,792.1000001430511,48.0,60.0,40.0,238.21499682360528,[],"[960, 540]",ColorTask,57.0,91.0,,,HRV,HRV_0276,2022-11-30 20:33:04
,wl-rdm,99,392062,0.0-6.91-0.91,False,,0.0,98.0,,,,,,,[],,,,,,56.4,0.0,i,1.0,False,1407.9999997615814,85.0,60.0,40.0,231.70602321012862,[],"[960, 540]",ColorTask,56.0,92.0,,,HRV,HRV_0276,2022-11-30 20:33:04
,wl-rdm,100,394615,0.0-6.92-0.92,False,,0.0,99.0,,,,,,,[],,,,,,56.4,1.0,i,1.0,True,1107.5,67.0,60.0,40.0,369.10966740399056,[],"[960, 540]",ColorTask,57.0,93.0,,,HRV,HRV_0276,2022-11-30 20:33:04
,wl-rdm,101,397033,0.0-6.93-0.93,False,,0.0,100.0,,,,,,,[],,,,,,62.5,1.0,i,1.0,True,1081.1000001430511,65.0,60.0,40.0,271.54459785148504,[],"[960, 540]",ColorTask,58.0,94.0,,,HRV,HRV_0276,2022-11-30 20:33:04
,wl-rdm,102,399319,0.0-6.94-0.94,False,,0.0,101.0,,,,,,,[],,,,,,50.0,0.0,u,0.0,True,941.7000000476837,57.0,60.0,40.0,280.6672450599574,[],"[960, 540]",ColorTask,59.0,95.0,,,HRV,HRV_0276,2022-11-30 20:33:04
,wl-rdm,103,401621,0.0-6.95-0.95,False,,0.0,102.0,,,,,,,[],,,,,,73.6,1.0,i,1.0,True,989.0,60.0,60.0,40.0,237.7780588860358,[],"[960, 540]",ColorTask,60.0,96.0,,,HRV,HRV_0276,2022-11-30 20:33:04
,wl-rdm,104,404557,0.0-6.96-0.96,False,,0.0,103.0,,,,,,,[],,,,,,53.2,0.0,u,0.0,True,1561.2999999523163,94.0,60.0,40.0,302.53557138148096,[],"[960, 540]",ColorTask,61.0,97.0,,,HRV,HRV_0276,2022-11-30 20:33:04
,wl-rdm,105,407077,0.0-6.97-0.97,False,,0.0,104.0,,,,,,,[],,,,,,56.4,0.0,u,0.0,True,1127.2000000476837,68.0,60.0,40.0,330.9424500675824,[],"[960, 540]",ColorTask,62.0,98.0,,,HRV,HRV_0276,2022-11-30 20:33:04
,wl-rdm,106,409996,0.0-6.98-0.98,False,,0.0,105.0,,,,,,,[],,,,,,50.0,1.0,i,1.0,True,1534.3000001907349,93.0,60.0,40.0,310.4211857704222,[],"[960, 540]",ColorTask,63.0,99.0,,,HRV,HRV_0276,2022-11-30 20:33:04
,wl-rdm,107,412164,0.0-6.99-0.99,False,,0.0,106.0,,,,,,,[],,,,,,87.9,0.0,i,1.0,False,876.7000000476837,53.0,60.0,40.0,232.18125522651377,[],"[960, 540]",ColorTask,62.0,100.0,,,HRV,HRV_0276,2022-11-30 20:33:04
,wl-rdm,108,415618,0.0-6.100-0.100,False,,0.0,107.0,,,,,,,[],,,,,,50.0,1.0,u,0.0,False,2130.5,128.0,60.0,40.0,258.0180118403636,[],"[960, 540]",ColorTask,61.0,101.0,,,HRV,HRV_0276,2022-11-30 20:33:04
,wl-rdm,109,418838,0.0-6.101-0.101,False,,0.0,108.0,,,,,,,[],,,,,,56.4,1.0,i,1.0,True,1838.2999999523163,111.0,60.0,40.0,306.0973603928326,[],"[960, 540]",ColorTask,62.0,102.0,,,HRV,HRV_0276,2022-11-30 20:33:04
,wl-rdm,110,421958,0.0-6.102-0.102,False,,0.0,109.0,,,,,,,[],,,,,,56.4,1.0,i,1.0,True,1776.4000000953674,107.0,60.0,40.0,281.37636865389914,[],"[960, 540]",ColorTask,63.0,103.0,,,HRV,HRV_0276,2022-11-30 20:33:04
,wl-rdm,111,424777,0.0-6.103-0.103,False,,0.0,110.0,,,,,,,[],,,,,,62.5,0.0,u,0.0,True,1447.3000001907349,87.0,60.0,40.0,302.5388809082475,[],"[960, 540]",ColorTask,64.0,104.0,,,HRV,HRV_0276,2022-11-30 20:33:04
,wl-rdm,112,427414,0.0-6.104-0.104,False,,0.0,111.0,,,,,,,[],,,,,,62.5,1.0,i,1.0,True,1207.5,73.0,60.0,40.0,351.6974590562888,[],"[960, 540]",ColorTask,65.0,105.0,,,HRV,HRV_0276,2022-11-30 20:33:04
,wl-rdm,113,429532,0.0-6.105-0.105,False,,0.0,112.0,,,,,,,[],,,,,,87.9,1.0,i,1.0,True,809.7999999523163,49.0,60.0,40.0,242.14702484202272,[],"[960, 540]",ColorTask,66.0,106.0,,,HRV,HRV_0276,2022-11-30 20:33:04
,wl-rdm,114,431884,0.0-6.106-0.106,False,,0.0,113.0,,,,,,,[],,,,,,62.5,0.0,u,0.0,True,1043.7999999523163,63.0,60.0,40.0,245.61452747311066,[],"[960, 540]",ColorTask,67.0,107.0,,,HRV,HRV_0276,2022-11-30 20:33:04
,wl-rdm,115,434687,0.0-6.107-0.107,False,,0.0,114.0,,,,,,,[],,,,,,50.0,1.0,u,0.0,False,1516.2999999523163,91.0,60.0,40.0,228.94356916468104,[],"[960, 540]",ColorTask,66.0,108.0,,,HRV,HRV_0276,2022-11-30 20:33:04
,wl-rdm,116,437124,0.0-6.108-0.108,False,,0.0,115.0,,,,,,,[],,,,,,73.6,0.0,u,0.0,True,1055.2000000476837,64.0,60.0,40.0,308.3710899066716,[],"[960, 540]",ColorTask,67.0,109.0,,,HRV,HRV_0276,2022-11-30 20:33:04
,wl-html-keyboard-response,117,447236,0.0-7.0-0.0,,,1.0,116.0,,,,,,,,8102.700000047684,1.0,0,,,,,,,,,,,,,,,,,,,,HRV,HRV_0276,2022-11-30 20:33:04
,wl-rdm,118,450002,0.0-8.0-0.0,False,,1.0,117.0,,,,,,,[],,,,,,53.2,1.0,i,1.0,True,1389.2999997138977,84.0,60.0,40.0,284.1580993108614,[],"[960, 540]",ColorTask,68.0,1.0,,,HRV,HRV_0276,2022-11-30 20:33:04
,wl-rdm,119,452137,0.0-8.1-0.1,False,,1.0,118.0,,,,,,,[],,,,,,87.9,0.0,u,0.0,True,838.7999999523163,51.0,60.0,40.0,217.5223619112357,[],"[960, 540]",ColorTask,69.0,2.0,,,HRV,HRV_0276,2022-11-30 20:33:04
,wl-rdm,120,454591,0.0-8.2-0.2,False,,1.0,119.0,,,,,,,[],,,,,,62.5,1.0,i,1.0,True,1068.0,64.0,60.0,40.0,305.2515656629177,[],"[960, 540]",ColorTask,70.0,3.0,,,HRV,HRV_0276,2022-11-30 20:33:04
,wl-rdm,121,456775,0.0-8.3-0.3,False,,1.0,120.0,,,,,,,[],,,,,,87.9,0.0,u,0.0,True,873.6000001430511,53.0,60.0,40.0,239.2119559864132,[],"[960, 540]",ColorTask,71.0,4.0,,,HRV,HRV_0276,2022-11-30 20:33:04
,wl-rdm,122,459144,0.0-8.4-0.4,False,,1.0,121.0,,,,,,,[],,,,,,73.6,0.0,u,0.0,True,1021.9000000953674,62.0,60.0,40.0,280.3169844073217,[],"[960, 540]",ColorTask,72.0,5.0,,,HRV,HRV_0276,2022-11-30 20:33:04
,wl-rdm,123,461465,0.0-8.5-0.5,False,,1.0,122.0,,,,,,,[],,,,,,73.6,1.0,i,1.0,True,990.0,60.0,60.0,40.0,255.0437339843263,[],"[960, 540]",ColorTask,73.0,6.0,,,HRV,HRV_0276,2022-11-30 20:33:04
,wl-rdm,124,464100,0.0-8.6-0.6,False,,1.0,123.0,,,,,,,[],,,,,,62.5,1.0,i,1.0,True,1194.3000001907349,72.0,60.0,40.0,378.00784145590575,[],"[960, 540]",ColorTask,74.0,7.0,,,HRV,HRV_0276,2022-11-30 20:33:04
,wl-rdm,125,466386,0.0-8.7-0.7,False,,1.0,124.0,,,,,,,[],,,,,,87.9,1.0,i,1.0,True,863.6000001430511,52.0,60.0,40.0,362.15841198824955,[],"[960, 540]",ColorTask,75.0,8.0,,,HRV,HRV_0276,2022-11-30 20:33:04
,wl-rdm,126,468605,0.0-8.8-0.8,False,,1.0,125.0,,,,,,,[],,,,,,62.5,0.0,u,0.0,True,874.0999999046326,53.0,60.0,40.0,273.08361461788434,[],"[960, 540]",ColorTask,76.0,9.0,,,HRV,HRV_0276,2022-11-30 20:33:04
,wl-rdm,127,470590,0.0-8.9-0.9,False,,1.0,126.0,,,,,,,[],,,,,,87.9,0.0,u,0.0,True,676.1000001430511,41.0,60.0,40.0,236.80095145317011,[],"[960, 540]",ColorTask,77.0,10.0,,,HRV,HRV_0276,2022-11-30 20:33:04
,wl-rdm,128,472992,0.0-8.10-0.10,False,,1.0,127.0,,,,,,,[],,,,,,73.6,0.0,u,0.0,True,1074.5,65.0,60.0,40.0,266.7719356868026,[],"[960, 540]",ColorTask,78.0,11.0,,,HRV,HRV_0276,2022-11-30 20:33:04
,wl-rdm,129,475895,0.0-8.11-0.11,False,,1.0,128.0,,,,,,,[],,,,,,56.4,1.0,i,1.0,True,1442.7999997138977,87.0,60.0,40.0,386.47226207067035,[],"[960, 540]",ColorTask,79.0,12.0,,,HRV,HRV_0276,2022-11-30 20:33:04
,wl-rdm,130,478448,0.0-8.12-0.12,False,,1.0,129.0,,,,,,,[],,,,,,62.5,0.0,u,0.0,True,1274.5,77.0,60.0,40.0,204.33716614242394,[],"[960, 540]",ColorTask,80.0,13.0,,,HRV,HRV_0276,2022-11-30 20:33:04
,wl-rdm,131,480950,0.0-8.13-0.13,False,,1.0,130.0,,,,,,,[],,,,,,56.4,1.0,i,1.0,True,1226.2999997138977,74.0,60.0,40.0,213.2437914856388,[],"[960, 540]",ColorTask,81.0,14.0,,,HRV,HRV_0276,2022-11-30 20:33:04
,wl-rdm,132,483219,0.0-8.14-0.14,False,,1.0,131.0,,,,,,,[],,,,,,87.9,0.0,u,0.0,True,912.2000000476837,55.0,60.0,40.0,286.26873818196646,[],"[960, 540]",ColorTask,82.0,15.0,,,HRV,HRV_0276,2022-11-30 20:33:04
,wl-rdm,133,485421,0.0-8.15-0.15,False,,1.0,132.0,,,,,,,[],,,,,,62.5,1.0,i,1.0,True,926.7000000476837,56.0,60.0,40.0,206.15338248491193,[],"[960, 540]",ColorTask,83.0,16.0,,,HRV,HRV_0276,2022-11-30 20:33:04
,wl-rdm,134,487957,0.0-8.16-0.16,False,,1.0,133.0,,,,,,,[],,,,,,56.4,1.0,u,0.0,False,1244.5,75.0,60.0,40.0,214.4046625762857,[],"[960, 540]",ColorTask,82.0,17.0,,,HRV,HRV_0276,2022-11-30 20:33:04
,wl-rdm,135,490126,0.0-8.17-0.17,False,,1.0,134.0,,,,,,,[],,,,,,73.6,0.0,u,0.0,True,809.2999999523163,49.0,60.0,40.0,289.1958612605767,[],"[960, 540]",ColorTask,83.0,18.0,,,HRV,HRV_0276,2022-11-30 20:33:04
,wl-rdm,136,492378,0.0-8.18-0.18,False,,1.0,135.0,,,,,,,[],,,,,,87.9,1.0,i,1.0,True,806.4000000953674,49.0,60.0,40.0,382.0616274573533,[],"[960, 540]",ColorTask,84.0,19.0,,,HRV,HRV_0276,2022-11-30 20:33:04
,wl-rdm,137,494797,0.0-8.19-0.19,False,,1.0,136.0,,,,,,,[],,,,,,53.2,1.0,i,1.0,True,1056.6000001430511,64.0,60.0,40.0,298.1759434118088,[],"[960, 540]",ColorTask,85.0,20.0,,,HRV,HRV_0276,2022-11-30 20:33:04
,wl-rdm,138,497784,0.0-8.20-0.20,False,,1.0,137.0,,,,,,,[],,,,,,53.2,0.0,u,0.0,True,1700.0,102.0,60.0,40.0,230.16719138656708,[],"[960, 540]",ColorTask,86.0,21.0,,,HRV,HRV_0276,2022-11-30 20:33:04
,wl-rdm,139,500503,0.0-8.21-0.21,False,,1.0,138.0,,,,,,,[],,,,,,50.0,1.0,u,0.0,False,1373.4000000953674,83.0,60.0,40.0,277.63343727490076,[],"[960, 540]",ColorTask,85.0,22.0,,,HRV,HRV_0276,2022-11-30 20:33:04
,wl-rdm,140,503155,0.0-8.22-0.22,False,,1.0,139.0,,,,,,,[],,,,,,56.4,0.0,u,0.0,True,1304.8000001907349,79.0,60.0,40.0,281.77127830865857,[],"[960, 540]",ColorTask,86.0,23.0,,,HRV,HRV_0276,2022-11-30 20:33:04
,wl-rdm,141,505309,0.0-8.23-0.23,False,,1.0,140.0,,,,,,,[],,,,,,73.6,1.0,i,1.0,True,861.0999999046326,52.0,60.0,40.0,221.68950509614163,[],"[960, 540]",ColorTask,87.0,24.0,,,HRV,HRV_0276,2022-11-30 20:33:04
,wl-rdm,142,508094,0.0-8.24-0.24,False,,1.0,141.0,,,,,,,[],,,,,,56.4,1.0,i,1.0,True,1425.9000000953674,86.0,60.0,40.0,287.5242694488063,[],"[960, 540]",ColorTask,88.0,25.0,,,HRV,HRV_0276,2022-11-30 20:33:04
,wl-rdm,143,510329,0.0-8.25-0.25,False,,1.0,142.0,,,,,,,[],,,,,,87.9,1.0,i,1.0,True,863.5,52.0,60.0,40.0,302.40202699691577,[],"[960, 540]",ColorTask,89.0,26.0,,,HRV,HRV_0276,2022-11-30 20:33:04
,wl-rdm,144,512648,0.0-8.26-0.26,False,,1.0,143.0,,,,,,,[],,,,,,56.4,0.0,u,0.0,True,1049.3999998569489,63.0,60.0,40.0,200.97976964260397,[],"[960, 540]",ColorTask,90.0,27.0,,,HRV,HRV_0276,2022-11-30 20:33:04
,wl-rdm,145,515201,0.0-8.27-0.27,False,,1.0,144.0,,,,,,,[],,,,,,62.5,0.0,u,0.0,True,1098.0999999046326,66.0,60.0,40.0,389.9929752134576,[],"[960, 540]",ColorTask,91.0,28.0,,,HRV,HRV_0276,2022-11-30 20:33:04
,wl-rdm,146,517403,0.0-8.28-0.28,False,,1.0,145.0,,,,,,,[],,,,,,87.9,0.0,u,0.0,True,828.2000000476837,50.0,60.0,40.0,306.64576356008365,[],"[960, 540]",ColorTask,92.0,29.0,,,HRV,HRV_0276,2022-11-30 20:33:04
,wl-rdm,147,519688,0.0-8.29-0.29,False,,1.0,146.0,,,,,,,[],,,,,,87.9,1.0,i,1.0,True,956.1000001430511,58.0,60.0,40.0,262.23575536531786,[],"[960, 540]",ColorTask,93.0,30.0,,,HRV,HRV_0276,2022-11-30 20:33:04
,wl-rdm,148,521958,0.0-8.30-0.30,False,,1.0,147.0,,,,,,,[],,,,,,73.6,1.0,i,1.0,True,971.2999999523163,59.0,60.0,40.0,227.28753315325957,[],"[960, 540]",ColorTask,94.0,31.0,,,HRV,HRV_0276,2022-11-30 20:33:04
,wl-rdm,149,524243,0.0-8.31-0.31,False,,1.0,148.0,,,,,,,[],,,,,,56.4,0.0,u,0.0,True,1011.5,61.0,60.0,40.0,215.32733055531958,[],"[960, 540]",ColorTask,95.0,32.0,,,HRV,HRV_0276,2022-11-30 20:33:04
,wl-rdm,150,526578,0.0-8.32-0.32,False,,1.0,149.0,,,,,,,[],,,,,,62.5,1.0,i,1.0,True,978.5000002384186,59.0,60.0,40.0,293.53815814442373,[],"[960, 540]",ColorTask,96.0,33.0,,,HRV,HRV_0276,2022-11-30 20:33:04
,wl-rdm,151,528898,0.0-8.33-0.33,False,,1.0,150.0,,,,,,,[],,,,,,53.2,0.0,u,0.0,True,987.0,60.0,60.0,40.0,255.20011009638145,[],"[960, 540]",ColorTask,97.0,34.0,,,HRV,HRV_0276,2022-11-30 20:33:04
,wl-rdm,152,531350,0.0-8.34-0.34,False,,1.0,151.0,,,,,,,[],,,,,,56.4,1.0,u,0.0,False,1168.2000000476837,70.0,60.0,40.0,213.8572525708132,[],"[960, 540]",ColorTask,96.0,35.0,,,HRV,HRV_0276,2022-11-30 20:33:04
,wl-rdm,153,534219,0.0-8.35-0.35,False,,1.0,152.0,,,,,,,[],,,,,,50.0,1.0,i,1.0,True,1528.3999998569489,92.0,60.0,40.0,268.01547048217515,[],"[960, 540]",ColorTask,97.0,36.0,,,HRV,HRV_0276,2022-11-30 20:33:04
,wl-rdm,154,536472,0.0-8.36-0.36,False,,1.0,153.0,,,,,,,[],,,,,,62.5,1.0,i,1.0,True,965.5,58.0,60.0,40.0,224.88341918871424,[],"[960, 540]",ColorTask,98.0,37.0,,,HRV,HRV_0276,2022-11-30 20:33:04
,wl-rdm,155,539025,0.0-8.37-0.37,False,,1.0,154.0,,,,,,,[],,,,,,50.0,1.0,u,0.0,False,1120.6000001430511,68.0,60.0,40.0,354.9882989043248,[],"[960, 540]",ColorTask,97.0,38.0,,,HRV,HRV_0276,2022-11-30 20:33:04
,wl-rdm,156,541360,0.0-8.38-0.38,False,,1.0,155.0,,,,,,,[],,,,,,50.0,0.0,i,1.0,False,1039.8999998569489,63.0,60.0,40.0,231.42968930424507,[],"[960, 540]",ColorTask,96.0,39.0,,,HRV,HRV_0276,2022-11-30 20:33:04
,wl-rdm,157,543663,0.0-8.39-0.39,False,,1.0,156.0,,,,,,,[],,,,,,73.6,0.0,u,0.0,True,999.0999999046326,60.0,60.0,40.0,249.2827710990451,[],"[960, 540]",ColorTask,97.0,40.0,,,HRV,HRV_0276,2022-11-30 20:33:04
,wl-rdm,158,546148,0.0-8.40-0.40,False,,1.0,157.0,,,,,,,[],,,,,,50.0,0.0,u,0.0,True,1194.7000000476837,72.0,60.0,40.0,218.14195079997305,[],"[960, 540]",ColorTask,98.0,41.0,,,HRV,HRV_0276,2022-11-30 20:33:04
,wl-rdm,159,548417,0.0-8.41-0.41,False,,1.0,158.0,,,,,,,[],,,,,,50.0,0.0,u,0.0,True,980.0999999046326,59.0,60.0,40.0,233.48658667777826,[],"[960, 540]",ColorTask,99.0,42.0,,,HRV,HRV_0276,2022-11-30 20:33:04
,wl-rdm,160,550920,0.0-8.42-0.42,False,,1.0,159.0,,,,,,,[],,,,,,56.4,1.0,i,1.0,True,1191.5,72.0,60.0,40.0,238.17265796243072,[],"[960, 540]",ColorTask,100.0,43.0,,,HRV,HRV_0276,2022-11-30 20:33:04
,wl-rdm,161,553422,0.0-8.43-0.43,False,,1.0,160.0,,,,,,,[],,,,,,50.0,0.0,u,0.0,True,1073.0,65.0,60.0,40.0,358.42993129137335,[],"[960, 540]",ColorTask,101.0,44.0,,,HRV,HRV_0276,2022-11-30 20:33:04
,wl-rdm,162,555808,0.0-8.44-0.44,False,,1.0,161.0,,,,,,,[],,,,,,87.9,1.0,i,1.0,True,1064.3000001907349,64.0,60.0,40.0,252.66128670392453,[],"[960, 540]",ColorTask,102.0,45.0,,,HRV,HRV_0276,2022-11-30 20:33:04
,wl-rdm,163,558195,0.0-8.45-0.45,False,,1.0,162.0,,,,,,,[],,,,,,50.0,1.0,i,1.0,True,1106.2000000476837,67.0,60.0,40.0,213.37063727275006,[],"[960, 540]",ColorTask,103.0,46.0,,,HRV,HRV_0276,2022-11-30 20:33:04
,wl-rdm,164,561515,0.0-8.46-0.46,False,,1.0,163.0,,,,,,,[],,,,,,53.2,1.0,i,1.0,True,1923.1000001430511,116.0,60.0,40.0,332.03824157440897,[],"[960, 540]",ColorTask,104.0,47.0,,,HRV,HRV_0276,2022-11-30 20:33:04
,wl-rdm,165,563850,0.0-8.47-0.47,False,,1.0,164.0,,,,,,,[],,,,,,62.5,1.0,i,1.0,True,873.7000000476837,53.0,60.0,40.0,378.10159889888564,[],"[960, 540]",ColorTask,105.0,48.0,,,HRV,HRV_0276,2022-11-30 20:33:04
,wl-rdm,166,566386,0.0-8.48-0.48,False,,1.0,165.0,,,,,,,[],,,,,,53.2,1.0,u,0.0,False,1179.7000002861023,71.0,60.0,40.0,287.95285727307896,[],"[960, 540]",ColorTask,104.0,49.0,,,HRV,HRV_0276,2022-11-30 20:33:04
,wl-rdm,167,568638,0.0-8.49-0.49,False,,1.0,166.0,,,,,,,[],,,,,,73.6,0.0,u,0.0,True,875.0999999046326,53.0,60.0,40.0,311.10220534517777,[],"[960, 540]",ColorTask,105.0,50.0,,,HRV,HRV_0276,2022-11-30 20:33:04
,wl-rdm,168,570991,0.0-8.50-0.50,False,,1.0,167.0,,,,,,,[],,,,,,62.5,0.0,u,0.0,True,989.3999998569489,60.0,60.0,40.0,295.63723958317564,[],"[960, 540]",ColorTask,106.0,51.0,,,HRV,HRV_0276,2022-11-30 20:33:04
,wl-rdm,169,573509,0.0-8.51-0.51,False,,1.0,168.0,,,,,,,[],,,,,,56.4,1.0,u,0.0,False,1110.7999999523163,67.0,60.0,40.0,335.99269716665844,[],"[960, 540]",ColorTask,105.0,52.0,,,HRV,HRV_0276,2022-11-30 20:33:04
,wl-rdm,170,575678,0.0-8.52-0.52,False,,1.0,169.0,,,,,,,[],,,,,,73.6,0.0,u,0.0,True,821.0999999046326,50.0,60.0,40.0,282.76827943777886,[],"[960, 540]",ColorTask,106.0,53.0,,,HRV,HRV_0276,2022-11-30 20:33:04
,wl-rdm,171,578464,0.0-8.53-0.53,False,,1.0,170.0,,,,,,,[],,,,,,62.5,0.0,i,1.0,False,1431.5,86.0,60.0,40.0,293.1576653044976,[],"[960, 540]",ColorTask,105.0,54.0,,,HRV,HRV_0276,2022-11-30 20:33:04
,wl-rdm,172,581217,0.0-8.54-0.54,False,,1.0,171.0,,,,,,,[],,,,,,53.2,0.0,i,1.0,False,1397.0999999046326,84.0,60.0,40.0,290.00348063721907,[],"[960, 540]",ColorTask,104.0,55.0,,,HRV,HRV_0276,2022-11-30 20:33:04
,wl-rdm,173,583369,0.0-8.55-0.55,False,,1.0,172.0,,,,,,,[],,,,,,87.9,0.0,u,0.0,True,822.3000001907349,50.0,60.0,40.0,260.9718287197634,[],"[960, 540]",ColorTask,105.0,56.0,,,HRV,HRV_0276,2022-11-30 20:33:04
,wl-rdm,174,585638,0.0-8.56-0.56,False,,1.0,173.0,,,,,,,[],,,,,,56.4,0.0,u,0.0,True,977.3999998569489,59.0,60.0,40.0,205.40848648145518,[],"[960, 540]",ColorTask,106.0,57.0,,,HRV,HRV_0276,2022-11-30 20:33:04
,wl-rdm,175,588190,0.0-8.57-0.57,False,,1.0,174.0,,,,,,,[],,,,,,56.4,1.0,i,1.0,True,1242.4000000953674,75.0,60.0,40.0,239.86130626279936,[],"[960, 540]",ColorTask,107.0,58.0,,,HRV,HRV_0276,2022-11-30 20:33:04
,wl-rdm,176,590827,0.0-8.58-0.58,False,,1.0,175.0,,,,,,,[],,,,,,62.5,0.0,u,0.0,True,1272.2999999523163,77.0,60.0,40.0,288.23854045563496,[],"[960, 540]",ColorTask,108.0,59.0,,,HRV,HRV_0276,2022-11-30 20:33:04
,wl-rdm,177,593296,0.0-8.59-0.59,False,,1.0,176.0,,,,,,,[],,,,,,56.4,1.0,i,1.0,True,1182.2999999523163,71.0,60.0,40.0,220.4016162508815,[],"[960, 540]",ColorTask,109.0,60.0,,,HRV,HRV_0276,2022-11-30 20:33:04
,wl-rdm,178,595448,0.0-8.60-0.60,False,,1.0,177.0,,,,,,,[],,,,,,87.9,0.0,u,0.0,True,806.5999999046326,49.0,60.0,40.0,269.20509336719664,[],"[960, 540]",ColorTask,110.0,61.0,,,HRV,HRV_0276,2022-11-30 20:33:04
,wl-rdm,179,597551,0.0-8.61-0.61,False,,1.0,178.0,,,,,,,[],,,,,,73.6,1.0,i,1.0,True,826.5,50.0,60.0,40.0,214.24789995619702,[],"[960, 540]",ColorTask,111.0,62.0,,,HRV,HRV_0276,2022-11-30 20:33:04
,wl-rdm,180,599785,0.0-8.62-0.62,False,,1.0,179.0,,,,,,,[],,,,,,87.9,0.0,u,0.0,True,773.3999998569489,47.0,60.0,40.0,390.0267573163942,[],"[960, 540]",ColorTask,112.0,63.0,,,HRV,HRV_0276,2022-11-30 20:33:04
,wl-rdm,181,601938,0.0-8.63-0.63,False,,1.0,180.0,,,,,,,[],,,,,,87.9,1.0,i,1.0,True,861.0999999046326,52.0,60.0,40.0,229.7476622805007,[],"[960, 540]",ColorTask,113.0,64.0,,,HRV,HRV_0276,2022-11-30 20:33:04
,wl-rdm,182,604941,0.0-8.64-0.64,False,,1.0,181.0,,,,,,,[],,,,,,56.4,0.0,u,0.0,True,1573.4000000953674,95.0,60.0,40.0,364.6624452193648,[],"[960, 540]",ColorTask,114.0,65.0,,,HRV,HRV_0276,2022-11-30 20:33:04
,wl-rdm,183,607360,0.0-8.65-0.65,False,,1.0,182.0,,,,,,,[],,,,,,53.2,0.0,i,1.0,False,1099.4000000953674,66.0,60.0,40.0,263.27506966517825,[],"[960, 540]",ColorTask,113.0,66.0,,,HRV,HRV_0276,2022-11-30 20:33:04
,wl-rdm,184,609596,0.0-8.66-0.66,False,,1.0,183.0,,,,,,,[],,,,,,50.0,0.0,i,1.0,False,912.6000001430511,55.0,60.0,40.0,253.26533196289455,[],"[960, 540]",ColorTask,112.0,67.0,,,HRV,HRV_0276,2022-11-30 20:33:04
,wl-rdm,185,612299,0.0-8.67-0.67,False,,1.0,184.0,,,,,,,[],,,,,,62.5,1.0,i,1.0,True,1356.6999998092651,82.0,60.0,40.0,270.79348209982527,[],"[960, 540]",ColorTask,113.0,68.0,,,HRV,HRV_0276,2022-11-30 20:33:04
,wl-rdm,186,614718,0.0-8.68-0.68,False,,1.0,185.0,,,,,,,[],,,,,,73.6,0.0,u,0.0,True,1010.7000000476837,61.0,60.0,40.0,323.6531175943004,[],"[960, 540]",ColorTask,114.0,69.0,,,HRV,HRV_0276,2022-11-30 20:33:04
,wl-rdm,187,616869,0.0-8.69-0.69,False,,1.0,186.0,,,,,,,[],,,,,,62.5,0.0,u,0.0,True,792.0000002384186,48.0,60.0,40.0,287.9828095317599,[],"[960, 540]",ColorTask,115.0,70.0,,,HRV,HRV_0276,2022-11-30 20:33:04
,wl-rdm,188,618987,0.0-8.70-0.70,False,,1.0,187.0,,,,,,,[],,,,,,73.6,0.0,u,0.0,True,840.2000000476837,51.0,60.0,40.0,201.53644760729645,[],"[960, 540]",ColorTask,116.0,71.0,,,HRV,HRV_0276,2022-11-30 20:33:04
,wl-rdm,189,621724,0.0-8.71-0.71,False,,1.0,188.0,,,,,,,[],,,,,,50.0,0.0,i,1.0,False,1440.5999999046326,87.0,60.0,40.0,220.0057448974348,[],"[960, 540]",ColorTask,115.0,72.0,,,HRV,HRV_0276,2022-11-30 20:33:04
,wl-rdm,190,623977,0.0-8.72-0.72,False,,1.0,189.0,,,,,,,[],,,,,,53.2,1.0,i,1.0,True,981.9000000953674,59.0,60.0,40.0,200.33132816510636,[],"[960, 540]",ColorTask,116.0,73.0,,,HRV,HRV_0276,2022-11-30 20:33:04
,wl-rdm,191,626528,0.0-8.73-0.73,False,,1.0,190.0,,,,,,,[],,,,,,50.0,1.0,i,1.0,True,1173.5,71.0,60.0,40.0,303.8281194377484,[],"[960, 540]",ColorTask,117.0,74.0,,,HRV,HRV_0276,2022-11-30 20:33:04
,wl-rdm,192,628864,0.0-8.74-0.74,False,,1.0,191.0,,,,,,,[],,,,,,73.6,0.0,u,0.0,True,973.3999998569489,59.0,60.0,40.0,290.60167730580315,[],"[960, 540]",ColorTask,118.0,75.0,,,HRV,HRV_0276,2022-11-30 20:33:04
,wl-rdm,193,631150,0.0-8.75-0.75,False,,1.0,192.0,,,,,,,[],,,,,,87.9,1.0,i,1.0,True,921.0,56.0,60.0,40.0,288.20237112790613,[],"[960, 540]",ColorTask,119.0,76.0,,,HRV,HRV_0276,2022-11-30 20:33:04
,wl-rdm,194,633702,0.0-8.76-0.76,False,,1.0,193.0,,,,,,,[],,,,,,53.2,1.0,u,0.0,False,1140.0,69.0,60.0,40.0,343.84891813974633,[],"[960, 540]",ColorTask,118.0,77.0,,,HRV,HRV_0276,2022-11-30 20:33:04
,wl-rdm,195,636338,0.0-8.77-0.77,False,,1.0,194.0,,,,,,,[],,,,,,53.2,0.0,i,1.0,False,1347.3000001907349,81.0,60.0,40.0,215.70036824224383,[],"[960, 540]",ColorTask,117.0,78.0,,,HRV,HRV_0276,2022-11-30 20:33:04
,wl-rdm,196,638708,0.0-8.78-0.78,False,,1.0,195.0,,,,,,,[],,,,,,56.4,0.0,u,0.0,True,1072.2999999523163,65.0,60.0,40.0,228.7133161436545,[],"[960, 540]",ColorTask,118.0,79.0,,,HRV,HRV_0276,2022-11-30 20:33:04
,wl-rdm,197,640944,0.0-8.79-0.79,False,,1.0,196.0,,,,,,,[],,,,,,73.6,1.0,i,1.0,True,897.7000000476837,54.0,60.0,40.0,280.5367231703261,[],"[960, 540]",ColorTask,119.0,80.0,,,HRV,HRV_0276,2022-11-30 20:33:04
,wl-rdm,198,643262,0.0-8.80-0.80,False,,1.0,197.0,,,,,,,[],,,,,,50.0,1.0,u,0.0,False,875.4000000953674,53.0,60.0,40.0,382.14697428850354,[],"[960, 540]",ColorTask,118.0,81.0,,,HRV,HRV_0276,2022-11-30 20:33:04
,wl-rdm,199,645514,0.0-8.81-0.81,False,,1.0,198.0,,,,,,,[],,,,,,53.2,0.0,i,1.0,False,913.0999999046326,55.0,60.0,40.0,283.29176105666556,[],"[960, 540]",ColorTask,117.0,82.0,,,HRV,HRV_0276,2022-11-30 20:33:04
,wl-rdm,200,647966,0.0-8.82-0.82,False,,1.0,199.0,,,,,,,[],,,,,,50.0,0.0,u,0.0,True,1168.3000001907349,70.0,60.0,40.0,215.296735040933,[],"[960, 540]",ColorTask,118.0,83.0,,,HRV,HRV_0276,2022-11-30 20:33:04
,wl-rdm,201,650335,0.0-8.83-0.83,False,,1.0,200.0,,,,,,,[],,,,,,62.5,0.0,u,0.0,True,982.0999999046326,59.0,60.0,40.0,332.5778736835766,[],"[960, 540]",ColorTask,119.0,84.0,,,HRV,HRV_0276,2022-11-30 20:33:04
,wl-rdm,202,653088,0.0-8.84-0.84,False,,1.0,201.0,,,,,,,[],,,,,,53.2,0.0,u,0.0,True,1430.5,86.0,60.0,40.0,251.994712318614,[],"[960, 540]",ColorTask,120.0,85.0,,,HRV,HRV_0276,2022-11-30 20:33:04
,wl-rdm,203,655524,0.0-8.85-0.85,False,,1.0,202.0,,,,,,,[],,,,,,53.2,0.0,u,0.0,True,1040.4000000953674,63.0,60.0,40.0,316.9422625708627,[],"[960, 540]",ColorTask,121.0,86.0,,,HRV,HRV_0276,2022-11-30 20:33:04
,wl-rdm,204,658061,0.0-8.86-0.86,False,,1.0,203.0,,,,,,,[],,,,,,53.2,1.0,u,0.0,False,1223.7000000476837,74.0,60.0,40.0,227.62105037040578,[],"[960, 540]",ColorTask,120.0,87.0,,,HRV,HRV_0276,2022-11-30 20:33:04
,wl-rdm,205,660663,0.0-8.87-0.87,False,,1.0,204.0,,,,,,,[],,,,,,62.5,1.0,i,1.0,True,1318.3999998569489,79.0,60.0,40.0,208.23153732880823,[],"[960, 540]",ColorTask,121.0,88.0,,,HRV,HRV_0276,2022-11-30 20:33:04
,wl-rdm,206,663215,0.0-8.88-0.88,False,,1.0,205.0,,,,,,,[],,,,,,56.4,0.0,i,1.0,False,1108.0000002384186,67.0,60.0,40.0,377.77767318835186,[],"[960, 540]",ColorTask,120.0,89.0,,,HRV,HRV_0276,2022-11-30 20:33:04
,wl-rdm,207,665617,0.0-8.89-0.89,False,,1.0,206.0,,,,,,,[],,,,,,73.6,1.0,i,1.0,True,987.9000000953674,60.0,60.0,40.0,335.66480062730125,[],"[960, 540]",ColorTask,121.0,90.0,,,HRV,HRV_0276,2022-11-30 20:33:04
,wl-rdm,208,667920,0.0-8.90-0.90,False,,1.0,207.0,,,,,,,[],,,,,,73.6,1.0,i,1.0,True,931.3999998569489,56.0,60.0,40.0,302.29781002435857,[],"[960, 540]",ColorTask,122.0,91.0,,,HRV,HRV_0276,2022-11-30 20:33:04
,wl-rdm,209,670556,0.0-8.91-0.91,False,,1.0,208.0,,,,,,,[],,,,,,56.4,0.0,u,0.0,True,1195.2999999523163,72.0,60.0,40.0,377.25201777495124,[],"[960, 540]",ColorTask,123.0,92.0,,,HRV,HRV_0276,2022-11-30 20:33:04
,wl-rdm,210,673310,0.0-8.92-0.92,False,,1.0,209.0,,,,,,,[],,,,,,50.0,0.0,i,1.0,False,1310.5999999046326,79.0,60.0,40.0,372.8039162638388,[],"[960, 540]",ColorTask,122.0,93.0,,,HRV,HRV_0276,2022-11-30 20:33:04
,wl-rdm,211,675610,0.0-8.93-0.93,False,,1.0,210.0,,,,,,,[],,,,,,87.9,0.0,u,0.0,True,1028.7000000476837,62.0,60.0,40.0,207.17712752606104,[],"[960, 540]",ColorTask,123.0,94.0,,,HRV,HRV_0276,2022-11-30 20:33:04
,wl-rdm,212,678231,0.0-8.94-0.94,False,,1.0,211.0,,,,,,,[],,,,,,56.4,0.0,u,0.0,True,1272.7999999523163,77.0,60.0,40.0,270.90842496323984,[],"[960, 540]",ColorTask,124.0,95.0,,,HRV,HRV_0276,2022-11-30 20:33:04
,wl-rdm,213,680683,0.0-8.95-0.95,False,,1.0,212.0,,,,,,,[],,,,,,53.2,1.0,u,0.0,False,1156.8999998569489,70.0,60.0,40.0,222.32853862451185,[],"[960, 540]",ColorTask,123.0,96.0,,,HRV,HRV_0276,2022-11-30 20:33:04
,wl-rdm,214,682851,0.0-8.96-0.96,False,,1.0,213.0,,,,,,,[],,,,,,87.9,1.0,i,1.0,True,805.6000001430511,49.0,60.0,40.0,287.7024756909322,[],"[960, 540]",ColorTask,124.0,97.0,,,HRV,HRV_0276,2022-11-30 20:33:04
,wl-rdm,215,685220,0.0-8.97-0.97,False,,1.0,214.0,,,,,,,[],,,,,,53.2,1.0,i,1.0,True,987.8999998569489,60.0,60.0,40.0,310.8310529902507,[],"[960, 540]",ColorTask,125.0,98.0,,,HRV,HRV_0276,2022-11-30 20:33:04
,wl-rdm,216,687756,0.0-8.98-0.98,False,,1.0,215.0,,,,,,,[],,,,,,50.0,1.0,u,0.0,False,1127.7999999523163,68.0,60.0,40.0,337.3653747042492,[],"[960, 540]",ColorTask,124.0,99.0,,,HRV,HRV_0276,2022-11-30 20:33:04
,wl-rdm,217,689992,0.0-8.99-0.99,False,,1.0,216.0,,,,,,,[],,,,,,73.6,1.0,i,1.0,True,898.0999999046326,54.0,60.0,40.0,274.5894507602187,[],"[960, 540]",ColorTask,125.0,100.0,,,HRV,HRV_0276,2022-11-30 20:33:04
,wl-rdm,218,692762,0.0-8.100-0.100,False,,1.0,217.0,,,,,,,[],,,,,,50.0,0.0,u,0.0,True,1325.7999999523163,80.0,60.0,40.0,379.2716605596826,[],"[960, 540]",ColorTask,126.0,101.0,,,HRV,HRV_0276,2022-11-30 20:33:04
,wl-rdm,219,695364,0.0-8.101-0.101,False,,1.0,218.0,,,,,,,[],,,,,,50.0,1.0,i,1.0,True,1193.7999999523163,72.0,60.0,40.0,333.9638474810572,[],"[960, 540]",ColorTask,127.0,102.0,,,HRV,HRV_0276,2022-11-30 20:33:04
,wl-rdm,220,697599,0.0-8.102-0.102,False,,1.0,219.0,,,,,,,[],,,,,,87.9,1.0,i,1.0,True,921.7000000476837,56.0,60.0,40.0,223.55823712786687,[],"[960, 540]",ColorTask,128.0,103.0,,,HRV,HRV_0276,2022-11-30 20:33:04
,wl-rdm,221,700118,0.0-8.103-0.103,False,,1.0,220.0,,,,,,,[],,,,,,50.0,1.0,i,1.0,True,1190.2999999523163,72.0,60.0,40.0,265.55172249491864,[],"[960, 540]",ColorTask,129.0,104.0,,,HRV,HRV_0276,2022-11-30 20:33:04
,wl-rdm,222,702888,0.0-8.104-0.104,False,,1.0,221.0,,,,,,,[],,,,,,62.5,1.0,i,1.0,True,1364.8999998569489,82.0,60.0,40.0,342.38236168566687,[],"[960, 540]",ColorTask,130.0,105.0,,,HRV,HRV_0276,2022-11-30 20:33:04
,wl-rdm,223,705140,0.0-8.105-0.105,False,,1.0,222.0,,,,,,,[],,,,,,73.6,1.0,i,1.0,True,926.7999999523163,56.0,60.0,40.0,251.95713176072928,[],"[960, 540]",ColorTask,131.0,106.0,,,HRV,HRV_0276,2022-11-30 20:33:04
,wl-rdm,224,707509,0.0-8.106-0.106,False,,1.0,223.0,,,,,,,[],,,,,,53.2,0.0,u,0.0,True,1066.7000000476837,64.0,60.0,40.0,240.92589776475702,[],"[960, 540]",ColorTask,132.0,107.0,,,HRV,HRV_0276,2022-11-30 20:33:04
,wl-rdm,225,709828,0.0-8.107-0.107,False,,1.0,224.0,,,,,,,[],,,,,,62.5,0.0,u,0.0,True,959.8999998569489,58.0,60.0,40.0,297.6087471608894,[],"[960, 540]",ColorTask,133.0,108.0,,,HRV,HRV_0276,2022-11-30 20:33:04
,wl-html-button-response,226,712421,0.0-9.0-0.0,,,,,,,,,,,,2585.5,,0,,,,,,,,,,,,,,,,,,<h3>End of this session. Thank you!</h3><br>,['Close window'],HRV,HRV_0276,2022-11-30 20:33:04
