trialN,stimuli,trialStartTime,trialStartTime_UNIX,stimulus1,stimulus2,stimulus1Bid,stimulus2Bid,delta,selected,rt,rt_UNIX,rt_perfnow,receivedResponse,rsp,trialEndTime,trialDuration,trialEndTime_UNIX,trialDuration_UNIX,exp,subjectId,date
0,"[{'imgObject': {}, 'id': 'ice cream sundae 002', 'src': '/static/foodstim60/ice cream sundae 002.jpg', 'key': 'u', 'origWidth': 409, 'origHeight': 409, 'width': 409, 'height': 409, 'widthPercent': 0.45, 'rescaleHeight': False, 'trialN': 0, 'loaded': True, 'loadedTime': 2896.600000143051, 'positionName': 'LEFT', 'positionCoords': [512.6, 335.5], 'bid': 0.2}, {'imgObject': {}, 'id': 'olives', 'src': '/static/foodstim60/olives.jpg', 'key': 'i', 'origWidth': 410, 'origHeight': 410, 'width': 410, 'height': 410, 'widthPercent': 0.45, 'rescaleHeight': False, 'trialN': 0, 'loaded': True, 'loadedTime': 3055.2999999523163, 'positionName': 'RIGHT', 'positionCoords': [998.4, 335], 'bid': 0.13}]",5137.700000047684,1669838503418,ice cream sundae 002,olives,0.2,0.13,-0.07,olives,1378.5,1379,1379.5,True,i,7021.200000047684,1883.5,1669838505301,1883,HRV,HRV_0276,2022-11-30 20:07:14
1,"[{'imgObject': {}, 'id': 'burger', 'src': '/static/foodstim60/burger.jpg', 'key': 'u', 'origWidth': 409, 'origHeight': 409, 'width': 409, 'height': 409, 'widthPercent': 0.45, 'rescaleHeight': False, 'trialN': 1, 'loaded': True, 'loadedTime': 3065, 'positionName': 'LEFT', 'positionCoords': [512.6, 335.5], 'bid': 0.11}, {'imgObject': {}, 'id': 'luckycharms', 'src': '/static/foodstim60/luckycharms.jpg', 'key': 'i', 'origWidth': 410, 'origHeight': 409, 'width': 410, 'height': 409, 'widthPercent': 0.45, 'rescaleHeight': False, 'trialN': 1, 'loaded': True, 'loadedTime': 3073, 'positionName': 'RIGHT', 'positionCoords': [998.4, 335.5], 'bid': 0.13}]",7021.900000095367,1669838505302,burger,luckycharms,0.11,0.13,0.020000000000000004,burger,1118.5,1119,1119.2999999523163,True,u,8647.100000143051,1625.2000000476837,1669838506927,1625,HRV,HRV_0276,2022-11-30 20:07:14
2,"[{'imgObject': {}, 'id': 'cheerios', 'src': '/static/foodstim60/cheerios.jpg', 'key': 'u', 'origWidth': 409, 'origHeight': 410, 'width': 409, 'height': 410, 'widthPercent': 0.45, 'rescaleHeight': False, 'trialN': 2, 'loaded': True, 'loadedTime': 3082.7999999523163, 'positionName': 'LEFT', 'positionCoords': [512.6, 335], 'bid': 0.21}, {'imgObject': {}, 'id': 'lox', 'src': '/static/foodstim60/lox.jpg', 'key': 'i', 'origWidth': 410, 'origHeight': 411, 'width': 410, 'height': 411, 'widthPercent': 0.45, 'rescaleHeight': False, 'trialN': 2, 'loaded': True, 'loadedTime': 3104.4000000953674, 'positionName': 'RIGHT', 'positionCoords': [998.4, 334.5], 'bid': 0.13}]",8647.700000047684,1669838506928,cheerios,lox,0.21,0.13,-0.07999999999999999,lox,1100.5,1101,1101.2999999523163,True,i,10263.900000095367,1616.2000000476837,1669838508544,1616,HRV,HRV_0276,2022-11-30 20:07:14
3,"[{'imgObject': {}, 'id': 'veggieswithdip', 'src': '/static/foodstim60/veggieswithdip.jpg', 'key': 'u', 'origWidth': 409, 'origHeight': 409, 'width': 409, 'height': 409, 'widthPercent': 0.45, 'rescaleHeight': False, 'trialN': 3, 'loaded': True, 'loadedTime': 3108.100000143051, 'positionName': 'LEFT', 'positionCoords': [512.6, 335.5], 'bid': 2.61}, {'imgObject': {}, 'id': 'steak', 'src': '/static/foodstim60/steak.jpg', 'key': 'i', 'origWidth': 410, 'origHeight': 410, 'width': 410, 'height': 410, 'widthPercent': 0.45, 'rescaleHeight': False, 'trialN': 3, 'loaded': True, 'loadedTime': 3110.4000000953674, 'positionName': 'RIGHT', 'positionCoords': [998.4, 335], 'bid': 1.81}]",10264.600000143051,1669838508545,veggieswithdip,steak,2.61,1.81,-0.7999999999999998,veggieswithdip,988.5999999046326,989,989.2999999523163,True,u,11777.100000143051,1512.5,1669838510057,1512,HRV,HRV_0276,2022-11-30 20:07:14
4,"[{'imgObject': {}, 'id': 'apple slices', 'src': '/static/foodstim60/apple slices.jpg', 'key': 'u', 'origWidth': 409, 'origHeight': 410, 'width': 409, 'height': 410, 'widthPercent': 0.45, 'rescaleHeight': False, 'trialN': 4, 'loaded': True, 'loadedTime': 3112.2999999523163, 'positionName': 'LEFT', 'positionCoords': [512.6, 335], 'bid': 1.88}, {'imgObject': {}, 'id': 'salad w chicken', 'src': '/static/foodstim60/salad w chicken.jpg', 'key': 'i', 'origWidth': 411, 'origHeight': 411, 'width': 411, 'height': 411, 'widthPercent': 0.45, 'rescaleHeight': False, 'trialN': 4, 'loaded': True, 'loadedTime': 3211.7999999523163, 'positionName': 'RIGHT', 'positionCoords': [998.4, 334.5], 'bid': 4.34}]",11777.700000047684,1669838510058,apple slices,salad w chicken,1.88,4.34,2.46,salad w chicken,1026.5,1027,1027.2000000476837,True,i,13307.200000047684,1529.5,1669838511587,1529,HRV,HRV_0276,2022-11-30 20:07:14
5,"[{'imgObject': {}, 'id': 'Grapes', 'src': '/static/foodstim60/Grapes.jpg', 'key': 'u', 'origWidth': 411, 'origHeight': 411, 'width': 411, 'height': 411, 'widthPercent': 0.45, 'rescaleHeight': False, 'trialN': 5, 'loaded': True, 'loadedTime': 3341.600000143051, 'positionName': 'LEFT', 'positionCoords': [510.6, 334.5], 'bid': 3.86}, {'imgObject': {}, 'id': 'corn cob', 'src': '/static/foodstim60/corn cob.jpg', 'key': 'i', 'origWidth': 411, 'origHeight': 411, 'width': 411, 'height': 411, 'widthPercent': 0.45, 'rescaleHeight': False, 'trialN': 5, 'loaded': True, 'loadedTime': 3341.9000000953674, 'positionName': 'RIGHT', 'positionCoords': [998.4, 334.5], 'bid': 2.35}]",13307.900000095367,1669838511588,Grapes,corn cob,3.86,2.35,-1.5099999999999998,corn cob,1192.2000000476837,1193,1193.0999999046326,True,i,15002.700000047684,1694.7999999523163,1669838513283,1695,HRV,HRV_0276,2022-11-30 20:07:14
6,"[{'imgObject': {}, 'id': 'fruitsalad', 'src': '/static/foodstim60/fruitsalad.jpg', 'key': 'u', 'origWidth': 410, 'origHeight': 410, 'width': 410, 'height': 410, 'widthPercent': 0.45, 'rescaleHeight': False, 'trialN': 6, 'loaded': True, 'loadedTime': 3430.2000000476837, 'positionName': 'LEFT', 'positionCoords': [511.6, 335], 'bid': 0.61}, {'imgObject': {}, 'id': 'chickenfingers', 'src': '/static/foodstim60/chickenfingers.jpg', 'key': 'i', 'origWidth': 410, 'origHeight': 410, 'width': 410, 'height': 410, 'widthPercent': 0.45, 'rescaleHeight': False, 'trialN': 6, 'loaded': True, 'loadedTime': 3546.7999999523163, 'positionName': 'RIGHT', 'positionCoords': [998.4, 335], 'bid': 0.25}]",15003.299999952316,1669838513283,fruitsalad,chickenfingers,0.61,0.25,-0.36,fruitsalad,1240.8000001907349,1242,1241.5,True,u,16746.299999952316,1743.0,1669838515026,1743,HRV,HRV_0276,2022-11-30 20:07:14
7,"[{'imgObject': {}, 'id': 'edamame', 'src': '/static/foodstim60/edamame.jpg', 'key': 'u', 'origWidth': 409, 'origHeight': 410, 'width': 409, 'height': 410, 'widthPercent': 0.45, 'rescaleHeight': False, 'trialN': 7, 'loaded': True, 'loadedTime': 3580.2999999523163, 'positionName': 'LEFT', 'positionCoords': [512.6, 335], 'bid': 0}, {'imgObject': {}, 'id': 'ice cream sundae 002', 'src': '/static/foodstim60/ice cream sundae 002.jpg', 'key': 'i', 'origWidth': 409, 'origHeight': 409, 'width': 409, 'height': 409, 'widthPercent': 0.45, 'rescaleHeight': False, 'trialN': 7, 'loaded': True, 'loadedTime': 2896.100000143051, 'positionName': 'RIGHT', 'positionCoords': [998.4, 335.5], 'bid': 0.2}]",16746.799999952316,1669838515027,edamame,ice cream sundae 002,0.0,0.2,0.2,edamame,1609.3000001907349,1610,1610.0,True,u,18867.700000047684,2120.9000000953674,1669838517148,2121,HRV,HRV_0276,2022-11-30 20:07:14
8,"[{'imgObject': {}, 'id': 'tacos', 'src': '/static/foodstim60/tacos.jpg', 'key': 'u', 'origWidth': 411, 'origHeight': 411, 'width': 411, 'height': 411, 'widthPercent': 0.45, 'rescaleHeight': False, 'trialN': 8, 'loaded': True, 'loadedTime': 3652.4000000953674, 'positionName': 'LEFT', 'positionCoords': [510.6, 334.5], 'bid': 0.11}, {'imgObject': {}, 'id': 'rigatoni and sauce', 'src': '/static/foodstim60/rigatoni and sauce.jpg', 'key': 'i', 'origWidth': 410, 'origHeight': 411, 'width': 410, 'height': 411, 'widthPercent': 0.45, 'rescaleHeight': False, 'trialN': 8, 'loaded': True, 'loadedTime': 3701.100000143051, 'positionName': 'RIGHT', 'positionCoords': [998.4, 334.5], 'bid': 0.11}]",18868.299999952316,1669838517148,tacos,rigatoni and sauce,0.11,0.11,0.0,tacos,1303.8000001907349,1304,1304.5,True,u,20685.700000047684,1817.4000000953674,1669838518965,1817,HRV,HRV_0276,2022-11-30 20:07:14
9,"[{'imgObject': {}, 'id': 'hashbrowns', 'src': '/static/foodstim60/hashbrowns.jpg', 'key': 'u', 'origWidth': 411, 'origHeight': 410, 'width': 411, 'height': 410, 'widthPercent': 0.45, 'rescaleHeight': False, 'trialN': 9, 'loaded': True, 'loadedTime': 3827.7000000476837, 'positionName': 'LEFT', 'positionCoords': [510.6, 335], 'bid': 0.2}, {'imgObject': {}, 'id': 'baked potato', 'src': '/static/foodstim60/baked potato.jpg', 'key': 'i', 'origWidth': 409, 'origHeight': 410, 'width': 409, 'height': 410, 'widthPercent': 0.45, 'rescaleHeight': False, 'trialN': 9, 'loaded': True, 'loadedTime': 3863.9000000953674, 'positionName': 'RIGHT', 'positionCoords': [998.4, 335], 'bid': 0.95}]",20686.299999952316,1669838518965,hashbrowns,baked potato,0.2,0.95,0.75,baked potato,1390.5,1392,1391.5,True,i,22587.5,1901.2000000476837,1669838520867,1902,HRV,HRV_0276,2022-11-30 20:07:14
10,"[{'imgObject': {}, 'id': 'shreddedwheatwithmilk', 'src': '/static/foodstim60/shreddedwheatwithmilk.jpg', 'key': 'u', 'origWidth': 410, 'origHeight': 410, 'width': 410, 'height': 410, 'widthPercent': 0.45, 'rescaleHeight': False, 'trialN': 10, 'loaded': True, 'loadedTime': 3900.4000000953674, 'positionName': 'LEFT', 'positionCoords': [511.6, 335], 'bid': 0.12}, {'imgObject': {}, 'id': 'cherry tomato', 'src': '/static/foodstim60/cherry tomato.jpg', 'key': 'i', 'origWidth': 410, 'origHeight': 410, 'width': 410, 'height': 410, 'widthPercent': 0.45, 'rescaleHeight': False, 'trialN': 10, 'loaded': True, 'loadedTime': 3998.100000143051, 'positionName': 'RIGHT', 'positionCoords': [998.4, 335], 'bid': 0.13}]",22588.200000047684,1669838520867,shreddedwheatwithmilk,cherry tomato,0.12,0.13,0.010000000000000009,shreddedwheatwithmilk,1168.0,1169,1168.9000000953674,True,u,24272.299999952316,1684.0999999046326,1669838522552,1685,HRV,HRV_0276,2022-11-30 20:07:14
11,"[{'imgObject': {}, 'id': 'apple slices', 'src': '/static/foodstim60/apple slices.jpg', 'key': 'u', 'origWidth': 409, 'origHeight': 410, 'width': 409, 'height': 410, 'widthPercent': 0.45, 'rescaleHeight': False, 'trialN': 11, 'loaded': True, 'loadedTime': 3210.7999999523163, 'positionName': 'LEFT', 'positionCoords': [512.6, 335], 'bid': 1.88}, {'imgObject': {}, 'id': 'blueberries', 'src': '/static/foodstim60/blueberries.jpg', 'key': 'i', 'origWidth': 411, 'origHeight': 411, 'width': 411, 'height': 411, 'widthPercent': 0.45, 'rescaleHeight': False, 'trialN': 11, 'loaded': True, 'loadedTime': 3999.7999999523163, 'positionName': 'RIGHT', 'positionCoords': [998.4, 334.5], 'bid': 2.27}]",24272.799999952316,1669838522552,apple slices,blueberries,1.88,2.27,0.3900000000000001,blueberries,1091.3000001907349,1092,1092.2000000476837,True,i,25874.700000047684,1601.9000000953674,1669838524154,1602,HRV,HRV_0276,2022-11-30 20:07:14
12,"[{'imgObject': {}, 'id': 'avocado', 'src': '/static/foodstim60/avocado.jpg', 'key': 'u', 'origWidth': 409, 'origHeight': 409, 'width': 409, 'height': 409, 'widthPercent': 0.45, 'rescaleHeight': False, 'trialN': 12, 'loaded': True, 'loadedTime': 4068, 'positionName': 'LEFT', 'positionCoords': [512.6, 335.5], 'bid': 0.1}, {'imgObject': {}, 'id': 'olives', 'src': '/static/foodstim60/olives.jpg', 'key': 'i', 'origWidth': 410, 'origHeight': 410, 'width': 410, 'height': 410, 'widthPercent': 0.45, 'rescaleHeight': False, 'trialN': 12, 'loaded': True, 'loadedTime': 3007.7999999523163, 'positionName': 'RIGHT', 'positionCoords': [998.4, 335], 'bid': 0.13}]",25875.400000095367,1669838524155,avocado,olives,0.1,0.13,0.03,olives,1352.7000000476837,1353,1353.5999999046326,True,i,27736.400000095367,1861.0,1669838526016,1861,HRV,HRV_0276,2022-11-30 20:07:14
13,"[{'imgObject': {}, 'id': 'steak', 'src': '/static/foodstim60/steak.jpg', 'key': 'u', 'origWidth': 410, 'origHeight': 410, 'width': 410, 'height': 410, 'widthPercent': 0.45, 'rescaleHeight': False, 'trialN': 13, 'loaded': True, 'loadedTime': 3110.5, 'positionName': 'LEFT', 'positionCoords': [511.6, 335], 'bid': 1.81}, {'imgObject': {}, 'id': 'cherries', 'src': '/static/foodstim60/cherries.jpg', 'key': 'i', 'origWidth': 410, 'origHeight': 411, 'width': 410, 'height': 411, 'widthPercent': 0.45, 'rescaleHeight': False, 'trialN': 13, 'loaded': True, 'loadedTime': 4104.400000095367, 'positionName': 'RIGHT', 'positionCoords': [998.4, 334.5], 'bid': 1.19}]",27737.0,1669838526016,steak,cherries,1.81,1.19,-0.6200000000000001,steak,1091.4000000953674,1092,1092.2999999523163,True,u,29332.799999952316,1595.7999999523163,1669838527612,1596,HRV,HRV_0276,2022-11-30 20:07:14
14,"[{'imgObject': {}, 'id': 'burrito', 'src': '/static/foodstim60/burrito.jpg', 'key': 'u', 'origWidth': 410, 'origHeight': 410, 'width': 410, 'height': 410, 'widthPercent': 0.45, 'rescaleHeight': False, 'trialN': 14, 'loaded': True, 'loadedTime': 4139.799999952316, 'positionName': 'LEFT', 'positionCoords': [511.6, 335], 'bid': 0.12}, {'imgObject': {}, 'id': 'shreddedwheatwithmilk', 'src': '/static/foodstim60/shreddedwheatwithmilk.jpg', 'key': 'i', 'origWidth': 410, 'origHeight': 410, 'width': 410, 'height': 410, 'widthPercent': 0.45, 'rescaleHeight': False, 'trialN': 14, 'loaded': True, 'loadedTime': 3866.2999999523163, 'positionName': 'RIGHT', 'positionCoords': [998.4, 335], 'bid': 0.12}]",29333.400000095367,1669838527612,burrito,shreddedwheatwithmilk,0.12,0.12,0.0,burrito,1390.5999999046326,1392,1391.5999999046326,True,u,31233.200000047684,1899.7999999523163,1669838529512,1900,HRV,HRV_0276,2022-11-30 20:07:14
15,"[{'imgObject': {}, 'id': 'blackbeanswithrice', 'src': '/static/foodstim60/blackbeanswithrice.jpg', 'key': 'u', 'origWidth': 410, 'origHeight': 410, 'width': 410, 'height': 410, 'widthPercent': 0.45, 'rescaleHeight': False, 'trialN': 15, 'loaded': True, 'loadedTime': 4201.100000143051, 'positionName': 'LEFT', 'positionCoords': [511.6, 335], 'bid': 0.16}, {'imgObject': {}, 'id': 'salmon', 'src': '/static/foodstim60/salmon.jpg', 'key': 'i', 'origWidth': 410, 'origHeight': 409, 'width': 410, 'height': 409, 'widthPercent': 0.45, 'rescaleHeight': False, 'trialN': 15, 'loaded': True, 'loadedTime': 4283.400000095367, 'positionName': 'RIGHT', 'positionCoords': [998.4, 335.5], 'bid': 4.89}]",31233.700000047684,1669838529513,blackbeanswithrice,salmon,0.16,4.89,4.7299999999999995,salmon,1059.0,1060,1059.9000000953674,True,i,32799.90000009537,1566.2000000476837,1669838531079,1566,HRV,HRV_0276,2022-11-30 20:07:14
16,"[{'imgObject': {}, 'id': 'cantaloupe', 'src': '/static/foodstim60/cantaloupe.jpg', 'key': 'u', 'origWidth': 409, 'origHeight': 409, 'width': 409, 'height': 409, 'widthPercent': 0.45, 'rescaleHeight': False, 'trialN': 16, 'loaded': True, 'loadedTime': 4284.5, 'positionName': 'LEFT', 'positionCoords': [512.6, 335.5], 'bid': 0.17}, {'imgObject': {}, 'id': 'burrito', 'src': '/static/foodstim60/burrito.jpg', 'key': 'i', 'origWidth': 410, 'origHeight': 410, 'width': 410, 'height': 410, 'widthPercent': 0.45, 'rescaleHeight': False, 'trialN': 16, 'loaded': True, 'loadedTime': 4105.700000047684, 'positionName': 'RIGHT', 'positionCoords': [998.4, 335], 'bid': 0.12}]",32800.60000014305,1669838531080,cantaloupe,burrito,0.17,0.12,-0.05000000000000002,cantaloupe,1539.5,1540,1540.3999998569489,True,u,34849.60000014305,2049.0,1669838533129,2049,HRV,HRV_0276,2022-11-30 20:07:14
17,"[{'imgObject': {}, 'id': 'rigatoni', 'src': '/static/foodstim60/rigatoni.jpg', 'key': 'u', 'origWidth': 411, 'origHeight': 411, 'width': 411, 'height': 411, 'widthPercent': 0.45, 'rescaleHeight': False, 'trialN': 17, 'loaded': True, 'loadedTime': 4354.900000095367, 'positionName': 'LEFT', 'positionCoords': [510.6, 334.5], 'bid': 0.13}, {'imgObject': {}, 'id': 'luckycharms', 'src': '/static/foodstim60/luckycharms.jpg', 'key': 'i', 'origWidth': 410, 'origHeight': 409, 'width': 410, 'height': 409, 'widthPercent': 0.45, 'rescaleHeight': False, 'trialN': 17, 'loaded': True, 'loadedTime': 3074.7000000476837, 'positionName': 'RIGHT', 'positionCoords': [998.4, 335.5], 'bid': 0.13}]",34850.40000009537,1669838533130,rigatoni,luckycharms,0.13,0.13,0.0,rigatoni,1969.5999999046326,1970,1970.5999999046326,True,u,37332.90000009537,2482.5,1669838535612,2482,HRV,HRV_0276,2022-11-30 20:07:14
18,"[{'imgObject': {}, 'id': 'sweetpotato', 'src': '/static/foodstim60/sweetpotato.jpg', 'key': 'u', 'origWidth': 410, 'origHeight': 410, 'width': 410, 'height': 410, 'widthPercent': 0.45, 'rescaleHeight': False, 'trialN': 18, 'loaded': True, 'loadedTime': 4355.100000143051, 'positionName': 'LEFT', 'positionCoords': [511.6, 335], 'bid': 2.56}, {'imgObject': {}, 'id': 'corn cob', 'src': '/static/foodstim60/corn cob.jpg', 'key': 'i', 'origWidth': 411, 'origHeight': 411, 'width': 411, 'height': 411, 'widthPercent': 0.45, 'rescaleHeight': False, 'trialN': 18, 'loaded': True, 'loadedTime': 3378.7000000476837, 'positionName': 'RIGHT', 'positionCoords': [998.4, 334.5], 'bid': 2.35}]",37333.5,1669838535613,sweetpotato,corn cob,2.56,2.35,-0.20999999999999996,corn cob,1150.6000001430511,1151,1151.4000000953674,True,i,38989.0,1655.5,1669838537268,1655,HRV,HRV_0276,2022-11-30 20:07:14
19,"[{'imgObject': {}, 'id': 'turkey sandwich', 'src': '/static/foodstim60/turkey sandwich.jpg', 'key': 'u', 'origWidth': 409, 'origHeight': 409, 'width': 409, 'height': 409, 'widthPercent': 0.45, 'rescaleHeight': False, 'trialN': 19, 'loaded': True, 'loadedTime': 4409, 'positionName': 'LEFT', 'positionCoords': [512.6, 335.5], 'bid': 3.6}, {'imgObject': {}, 'id': 'fried eggs', 'src': '/static/foodstim60/fried eggs.jpg', 'key': 'i', 'origWidth': 410, 'origHeight': 410, 'width': 410, 'height': 410, 'widthPercent': 0.45, 'rescaleHeight': False, 'trialN': 19, 'loaded': True, 'loadedTime': 4497.700000047684, 'positionName': 'RIGHT', 'positionCoords': [998.4, 335], 'bid': 4.93}]",38989.5,1669838537269,turkey sandwich,fried eggs,3.6,4.93,1.3299999999999996,turkey sandwich,1518.5,1519,1519.5,True,u,41022.700000047684,2033.2000000476837,1669838539302,2033,HRV,HRV_0276,2022-11-30 20:07:14
20,"[{'imgObject': {}, 'id': 'roastedpotatoes', 'src': '/static/foodstim60/roastedpotatoes.jpg', 'key': 'u', 'origWidth': 409, 'origHeight': 410, 'width': 409, 'height': 410, 'widthPercent': 0.45, 'rescaleHeight': False, 'trialN': 20, 'loaded': True, 'loadedTime': 4500.299999952316, 'positionName': 'LEFT', 'positionCoords': [512.6, 335], 'bid': 0.15}, {'imgObject': {}, 'id': 'grilled chicken strips', 'src': '/static/foodstim60/grilled chicken strips.jpg', 'key': 'i', 'origWidth': 410, 'origHeight': 411, 'width': 410, 'height': 411, 'widthPercent': 0.45, 'rescaleHeight': False, 'trialN': 20, 'loaded': True, 'loadedTime': 4568.5, 'positionName': 'RIGHT', 'positionCoords': [998.4, 334.5], 'bid': 4.45}]",41023.200000047684,1669838539302,roastedpotatoes,grilled chicken strips,0.15,4.45,4.3,grilled chicken strips,1212.7999999523163,1214,1213.7000000476837,True,i,42743.0,1719.7999999523163,1669838541022,1720,HRV,HRV_0276,2022-11-30 20:07:14
21,"[{'imgObject': {}, 'id': 'Tribe humus pita', 'src': '/static/foodstim60/Tribe humus pita.jpg', 'key': 'u', 'origWidth': 411, 'origHeight': 411, 'width': 411, 'height': 411, 'widthPercent': 0.45, 'rescaleHeight': False, 'trialN': 21, 'loaded': True, 'loadedTime': 4611.700000047684, 'positionName': 'LEFT', 'positionCoords': [510.6, 334.5], 'bid': 2.8000000000000003}, {'imgObject': {}, 'id': 'hotdog w must', 'src': '/static/foodstim60/hotdog w must.jpg', 'key': 'i', 'origWidth': 409, 'origHeight': 409, 'width': 409, 'height': 409, 'widthPercent': 0.45, 'rescaleHeight': False, 'trialN': 21, 'loaded': True, 'loadedTime': 4665.5, 'positionName': 'RIGHT', 'positionCoords': [998.4, 335.5], 'bid': 0.12}]",42743.60000014305,1669838541023,Tribe humus pita,hotdog w must,2.8000000000000003,0.12,-2.68,Tribe humus pita,1141.0999999046326,1142,1142.0,True,u,44397.60000014305,1654.0,1669838542677,1654,HRV,HRV_0276,2022-11-30 20:07:14
22,"[{'imgObject': {}, 'id': 'steak', 'src': '/static/foodstim60/steak.jpg', 'key': 'u', 'origWidth': 410, 'origHeight': 410, 'width': 410, 'height': 410, 'widthPercent': 0.45, 'rescaleHeight': False, 'trialN': 22, 'loaded': True, 'loadedTime': 3110.9000000953674, 'positionName': 'LEFT', 'positionCoords': [511.6, 335], 'bid': 1.81}, {'imgObject': {}, 'id': 'blackbeanswithrice', 'src': '/static/foodstim60/blackbeanswithrice.jpg', 'key': 'i', 'origWidth': 410, 'origHeight': 410, 'width': 410, 'height': 410, 'widthPercent': 0.45, 'rescaleHeight': False, 'trialN': 22, 'loaded': True, 'loadedTime': 4194.600000143051, 'positionName': 'RIGHT', 'positionCoords': [998.4, 335], 'bid': 0.16}]",44398.0,1669838542677,steak,blackbeanswithrice,1.81,0.16,-1.6500000000000001,steak,1054.0,1055,1055.0,True,u,45957.90000009537,1559.9000000953674,1669838544237,1560,HRV,HRV_0276,2022-11-30 20:07:14
23,"[{'imgObject': {}, 'id': 'burger', 'src': '/static/foodstim60/burger.jpg', 'key': 'u', 'origWidth': 409, 'origHeight': 409, 'width': 409, 'height': 409, 'widthPercent': 0.45, 'rescaleHeight': False, 'trialN': 23, 'loaded': True, 'loadedTime': 3070.100000143051, 'positionName': 'LEFT', 'positionCoords': [512.6, 335.5], 'bid': 0.11}, {'imgObject': {}, 'id': 'edamame', 'src': '/static/foodstim60/edamame.jpg', 'key': 'i', 'origWidth': 409, 'origHeight': 410, 'width': 409, 'height': 410, 'widthPercent': 0.45, 'rescaleHeight': False, 'trialN': 23, 'loaded': True, 'loadedTime': 3616, 'positionName': 'RIGHT', 'positionCoords': [998.4, 335], 'bid': 0}]",45958.40000009537,1669838544238,burger,edamame,0.11,0.0,-0.11,burger,1365.5999999046326,1366,1366.5,True,u,47831.700000047684,1873.2999999523163,1669838546111,1873,HRV,HRV_0276,2022-11-30 20:07:14
24,"[{'imgObject': {}, 'id': 'popsicles', 'src': '/static/foodstim60/popsicles.jpg', 'key': 'u', 'origWidth': 410, 'origHeight': 410, 'width': 410, 'height': 410, 'widthPercent': 0.45, 'rescaleHeight': False, 'trialN': 24, 'loaded': True, 'loadedTime': 4666.600000143051, 'positionName': 'LEFT', 'positionCoords': [511.6, 335], 'bid': 0.11}, {'imgObject': {}, 'id': 'cocktailshrimp', 'src': '/static/foodstim60/cocktailshrimp.jpg', 'key': 'i', 'origWidth': 410, 'origHeight': 410, 'width': 410, 'height': 410, 'widthPercent': 0.45, 'rescaleHeight': False, 'trialN': 24, 'loaded': True, 'loadedTime': 4713.200000047684, 'positionName': 'RIGHT', 'positionCoords': [998.4, 335], 'bid': 0.1}]",47832.5,1669838546112,popsicles,cocktailshrimp,0.11,0.1,-0.009999999999999995,cocktailshrimp,1051.6000001430511,1052,1052.5,True,i,49390.60000014305,1558.1000001430511,1669838547670,1558,HRV,HRV_0276,2022-11-30 20:07:14
25,"[{'imgObject': {}, 'id': 'yogurt no spoon', 'src': '/static/foodstim60/yogurt no spoon.jpg', 'key': 'u', 'origWidth': 411, 'origHeight': 410, 'width': 411, 'height': 410, 'widthPercent': 0.45, 'rescaleHeight': False, 'trialN': 25, 'loaded': True, 'loadedTime': 4713.700000047684, 'positionName': 'LEFT', 'positionCoords': [510.6, 335], 'bid': 3.04}, {'imgObject': {}, 'id': 'cheerios', 'src': '/static/foodstim60/cheerios.jpg', 'key': 'i', 'origWidth': 409, 'origHeight': 410, 'width': 409, 'height': 410, 'widthPercent': 0.45, 'rescaleHeight': False, 'trialN': 25, 'loaded': True, 'loadedTime': 3084.4000000953674, 'positionName': 'RIGHT', 'positionCoords': [998.4, 335], 'bid': 0.21}]",49391.10000014305,1669838547670,yogurt no spoon,cheerios,3.04,0.21,-2.83,yogurt no spoon,1092.7999999523163,1094,1093.7999999523163,True,u,51000.299999952316,1609.1999998092651,1669838549279,1609,HRV,HRV_0276,2022-11-30 20:07:14
26,"[{'imgObject': {}, 'id': 'apple slices', 'src': '/static/foodstim60/apple slices.jpg', 'key': 'u', 'origWidth': 409, 'origHeight': 410, 'width': 409, 'height': 410, 'widthPercent': 0.45, 'rescaleHeight': False, 'trialN': 26, 'loaded': True, 'loadedTime': 3149.5, 'positionName': 'LEFT', 'positionCoords': [512.6, 335], 'bid': 1.88}, {'imgObject': {}, 'id': 'Tribe humus pita', 'src': '/static/foodstim60/Tribe humus pita.jpg', 'key': 'i', 'origWidth': 411, 'origHeight': 411, 'width': 411, 'height': 411, 'widthPercent': 0.45, 'rescaleHeight': False, 'trialN': 26, 'loaded': True, 'loadedTime': 4604, 'positionName': 'RIGHT', 'positionCoords': [998.4, 334.5], 'bid': 2.8000000000000003}]",51001.0,1669838549280,apple slices,Tribe humus pita,1.88,2.8000000000000003,0.9200000000000004,Tribe humus pita,1195.1000001430511,1196,1195.7999999523163,True,i,52709.10000014305,1708.1000001430511,1669838550988,1708,HRV,HRV_0276,2022-11-30 20:07:14
27,"[{'imgObject': {}, 'id': 'ice cream sundae 002', 'src': '/static/foodstim60/ice cream sundae 002.jpg', 'key': 'u', 'origWidth': 409, 'origHeight': 409, 'width': 409, 'height': 409, 'widthPercent': 0.45, 'rescaleHeight': False, 'trialN': 27, 'loaded': True, 'loadedTime': 2942.7000000476837, 'positionName': 'LEFT', 'positionCoords': [512.6, 335.5], 'bid': 0.2}, {'imgObject': {}, 'id': 'kiwi', 'src': '/static/foodstim60/kiwi.jpg', 'key': 'i', 'origWidth': 410, 'origHeight': 410, 'width': 410, 'height': 410, 'widthPercent': 0.45, 'rescaleHeight': False, 'trialN': 27, 'loaded': True, 'loadedTime': 4746.799999952316, 'positionName': 'RIGHT', 'positionCoords': [998.4, 335], 'bid': 2.93}]",52709.799999952316,1669838550989,ice cream sundae 002,kiwi,0.2,2.93,2.73,kiwi,1110.2000000476837,1111,1111.3000001907349,True,i,54328.90000009537,1619.1000001430511,1669838552608,1619,HRV,HRV_0276,2022-11-30 20:07:14
28,"[{'imgObject': {}, 'id': 'lox', 'src': '/static/foodstim60/lox.jpg', 'key': 'u', 'origWidth': 410, 'origHeight': 411, 'width': 410, 'height': 411, 'widthPercent': 0.45, 'rescaleHeight': False, 'trialN': 28, 'loaded': True, 'loadedTime': 3105.2999999523163, 'positionName': 'LEFT', 'positionCoords': [511.6, 334.5], 'bid': 0.13}, {'imgObject': {}, 'id': 'olives', 'src': '/static/foodstim60/olives.jpg', 'key': 'i', 'origWidth': 410, 'origHeight': 410, 'width': 410, 'height': 410, 'widthPercent': 0.45, 'rescaleHeight': False, 'trialN': 28, 'loaded': True, 'loadedTime': 3009.2000000476837, 'positionName': 'RIGHT', 'positionCoords': [998.4, 335], 'bid': 0.13}]",54329.60000014305,1669838552609,lox,olives,0.13,0.13,0.0,olives,1410.2999999523163,1411,1410.7999999523163,True,i,56246.200000047684,1916.5999999046326,1669838554525,1916,HRV,HRV_0276,2022-11-30 20:07:14
29,"[{'imgObject': {}, 'id': 'raspberries', 'src': '/static/foodstim60/raspberries.jpg', 'key': 'u', 'origWidth': 411, 'origHeight': 411, 'width': 411, 'height': 411, 'widthPercent': 0.45, 'rescaleHeight': False, 'trialN': 29, 'loaded': True, 'loadedTime': 4843.5, 'positionName': 'LEFT', 'positionCoords': [510.6, 334.5], 'bid': 2.5500000000000003}, {'imgObject': {}, 'id': 'corn cob', 'src': '/static/foodstim60/corn cob.jpg', 'key': 'i', 'origWidth': 411, 'origHeight': 411, 'width': 411, 'height': 411, 'widthPercent': 0.45, 'rescaleHeight': False, 'trialN': 29, 'loaded': True, 'loadedTime': 3428.2000000476837, 'positionName': 'RIGHT', 'positionCoords': [998.4, 334.5], 'bid': 2.35}]",56246.700000047684,1669838554526,raspberries,corn cob,2.5500000000000003,2.35,-0.20000000000000018,corn cob,1181.2000000476837,1182,1182.0999999046326,True,i,57940.799999952316,1694.0999999046326,1669838556220,1694,HRV,HRV_0276,2022-11-30 20:07:14
30,"[{'imgObject': {}, 'id': 'orange slices', 'src': '/static/foodstim60/orange slices.jpg', 'key': 'u', 'origWidth': 409, 'origHeight': 410, 'width': 409, 'height': 410, 'widthPercent': 0.45, 'rescaleHeight': False, 'trialN': 30, 'loaded': True, 'loadedTime': 4848, 'positionName': 'LEFT', 'positionCoords': [512.6, 335], 'bid': 4.28}, {'imgObject': {}, 'id': 'banana', 'src': '/static/foodstim60/banana.jpg', 'key': 'i', 'origWidth': 410, 'origHeight': 410, 'width': 410, 'height': 410, 'widthPercent': 0.45, 'rescaleHeight': False, 'trialN': 30, 'loaded': True, 'loadedTime': 4892.900000095367, 'positionName': 'RIGHT', 'positionCoords': [998.4, 335], 'bid': 0.13}]",57941.200000047684,1669838556220,orange slices,banana,4.28,0.13,-4.15,orange slices,1150.7999999523163,1152,1151.7000000476837,True,u,59599.10000014305,1657.9000000953674,1669838557878,1658,HRV,HRV_0276,2022-11-30 20:07:14
31,"[{'imgObject': {}, 'id': 'cantaloupe', 'src': '/static/foodstim60/cantaloupe.jpg', 'key': 'u', 'origWidth': 409, 'origHeight': 409, 'width': 409, 'height': 409, 'widthPercent': 0.45, 'rescaleHeight': False, 'trialN': 31, 'loaded': True, 'loadedTime': 4319.100000143051, 'positionName': 'LEFT', 'positionCoords': [512.6, 335.5], 'bid': 0.17}, {'imgObject': {}, 'id': 'hashbrowns', 'src': '/static/foodstim60/hashbrowns.jpg', 'key': 'i', 'origWidth': 411, 'origHeight': 410, 'width': 411, 'height': 410, 'widthPercent': 0.45, 'rescaleHeight': False, 'trialN': 31, 'loaded': True, 'loadedTime': 3794.9000000953674, 'positionName': 'RIGHT', 'positionCoords': [998.4, 335], 'bid': 0.2}]",59599.700000047684,1669838557879,cantaloupe,hashbrowns,0.17,0.2,0.03,cantaloupe,1644.5,1646,1646.0999999046326,True,u,61758.0,2158.2999999523163,1669838560037,2158,HRV,HRV_0276,2022-11-30 20:07:14
32,"[{'imgObject': {}, 'id': 'yogurt no spoon', 'src': '/static/foodstim60/yogurt no spoon.jpg', 'key': 'u', 'origWidth': 411, 'origHeight': 410, 'width': 411, 'height': 410, 'widthPercent': 0.45, 'rescaleHeight': False, 'trialN': 32, 'loaded': True, 'loadedTime': 4745.700000047684, 'positionName': 'LEFT', 'positionCoords': [510.6, 335], 'bid': 3.04}, {'imgObject': {}, 'id': 'pear', 'src': '/static/foodstim60/pear.jpg', 'key': 'i', 'origWidth': 411, 'origHeight': 410, 'width': 411, 'height': 410, 'widthPercent': 0.45, 'rescaleHeight': False, 'trialN': 32, 'loaded': True, 'loadedTime': 4893.100000143051, 'positionName': 'RIGHT', 'positionCoords': [998.4, 335], 'bid': 3.21}]",61758.40000009537,1669838560038,yogurt no spoon,pear,3.04,3.21,0.16999999999999993,yogurt no spoon,1237.5999999046326,1238,1238.5,True,u,63500.5,1742.0999999046326,1669838561780,1742,HRV,HRV_0276,2022-11-30 20:07:14
33,"[{'imgObject': {}, 'id': 'raisin bran w milk', 'src': '/static/foodstim60/raisin bran w milk.jpg', 'key': 'u', 'origWidth': 411, 'origHeight': 411, 'width': 411, 'height': 411, 'widthPercent': 0.45, 'rescaleHeight': False, 'trialN': 33, 'loaded': True, 'loadedTime': 4894.5, 'positionName': 'LEFT', 'positionCoords': [510.6, 334.5], 'bid': 0.08}, {'imgObject': {}, 'id': 'chickenfingers', 'src': '/static/foodstim60/chickenfingers.jpg', 'key': 'i', 'origWidth': 410, 'origHeight': 410, 'width': 410, 'height': 410, 'widthPercent': 0.45, 'rescaleHeight': False, 'trialN': 33, 'loaded': True, 'loadedTime': 3547.2000000476837, 'positionName': 'RIGHT', 'positionCoords': [998.4, 335], 'bid': 0.25}]",63501.299999952316,1669838561780,raisin bran w milk,chickenfingers,0.08,0.25,0.16999999999999998,chickenfingers,1198.7000000476837,1200,1199.6000001430511,True,i,65203.5,1702.2000000476837,1669838563483,1703,HRV,HRV_0276,2022-11-30 20:07:14
34,"[{'imgObject': {}, 'id': 'omelette', 'src': '/static/foodstim60/omelette.jpg', 'key': 'u', 'origWidth': 410, 'origHeight': 409, 'width': 410, 'height': 409, 'widthPercent': 0.45, 'rescaleHeight': False, 'trialN': 34, 'loaded': True, 'loadedTime': 4929, 'positionName': 'LEFT', 'positionCoords': [511.6, 335.5], 'bid': 4.53}, {'imgObject': {}, 'id': 'bagel and cc', 'src': '/static/foodstim60/bagel and cc.jpg', 'key': 'i', 'origWidth': 410, 'origHeight': 410, 'width': 410, 'height': 410, 'widthPercent': 0.45, 'rescaleHeight': False, 'trialN': 34, 'loaded': True, 'loadedTime': 4932.5, 'positionName': 'RIGHT', 'positionCoords': [998.4, 335], 'bid': 0.16}]",65204.0,1669838563483,omelette,bagel and cc,4.53,0.16,-4.37,omelette,1056.4000000953674,1058,1057.4000000953674,True,u,66766.79999995232,1562.7999999523163,1669838565046,1563,HRV,HRV_0276,2022-11-30 20:07:14
35,"[{'imgObject': {}, 'id': 'salmon', 'src': '/static/foodstim60/salmon.jpg', 'key': 'u', 'origWidth': 410, 'origHeight': 409, 'width': 410, 'height': 409, 'widthPercent': 0.45, 'rescaleHeight': False, 'trialN': 35, 'loaded': True, 'loadedTime': 4248.299999952316, 'positionName': 'LEFT', 'positionCoords': [511.6, 335.5], 'bid': 4.89}, {'imgObject': {}, 'id': 'sweetpotato', 'src': '/static/foodstim60/sweetpotato.jpg', 'key': 'i', 'origWidth': 410, 'origHeight': 410, 'width': 410, 'height': 410, 'widthPercent': 0.45, 'rescaleHeight': False, 'trialN': 35, 'loaded': True, 'loadedTime': 4406.600000143051, 'positionName': 'RIGHT', 'positionCoords': [998.4, 335], 'bid': 2.56}]",66767.29999995232,1669838565046,salmon,sweetpotato,4.89,2.56,-2.3299999999999996,salmon,900.6000001430511,902,901.6000001430511,True,u,68179.79999995232,1412.5,1669838566459,1413,HRV,HRV_0276,2022-11-30 20:07:14
36,"[{'imgObject': {}, 'id': 'bagel and cc', 'src': '/static/foodstim60/bagel and cc.jpg', 'key': 'u', 'origWidth': 410, 'origHeight': 410, 'width': 410, 'height': 410, 'widthPercent': 0.45, 'rescaleHeight': False, 'trialN': 36, 'loaded': True, 'loadedTime': 4932.299999952316, 'positionName': 'LEFT', 'positionCoords': [511.6, 335], 'bid': 0.16}, {'imgObject': {}, 'id': 'blackbeanswithrice', 'src': '/static/foodstim60/blackbeanswithrice.jpg', 'key': 'i', 'origWidth': 410, 'origHeight': 410, 'width': 410, 'height': 410, 'widthPercent': 0.45, 'rescaleHeight': False, 'trialN': 36, 'loaded': True, 'loadedTime': 4201.900000095367, 'positionName': 'RIGHT', 'positionCoords': [998.4, 335], 'bid': 0.16}]",68180.40000009537,1669838566459,bagel and cc,blackbeanswithrice,0.16,0.16,0.0,bagel and cc,1015.5,1017,1016.5,True,u,69709.10000014305,1528.7000000476837,1669838567988,1529,HRV,HRV_0276,2022-11-30 20:07:14
37,"[{'imgObject': {}, 'id': 'orange slices', 'src': '/static/foodstim60/orange slices.jpg', 'key': 'u', 'origWidth': 409, 'origHeight': 410, 'width': 409, 'height': 410, 'widthPercent': 0.45, 'rescaleHeight': False, 'trialN': 37, 'loaded': True, 'loadedTime': 4847.799999952316, 'positionName': 'LEFT', 'positionCoords': [512.6, 335], 'bid': 4.28}, {'imgObject': {}, 'id': 'eggsalad', 'src': '/static/foodstim60/eggsalad.jpg', 'key': 'i', 'origWidth': 410, 'origHeight': 409, 'width': 410, 'height': 409, 'widthPercent': 0.45, 'rescaleHeight': False, 'trialN': 37, 'loaded': True, 'loadedTime': 4986, 'positionName': 'RIGHT', 'positionCoords': [998.4, 335.5], 'bid': 4.42}]",69709.70000004768,1669838567989,orange slices,eggsalad,4.28,4.42,0.13999999999999968,orange slices,966.2000000476837,967,967.0999999046326,True,u,71192.79999995232,1483.0999999046326,1669838569472,1483,HRV,HRV_0276,2022-11-30 20:07:14
38,"[{'imgObject': {}, 'id': 'avocado', 'src': '/static/foodstim60/avocado.jpg', 'key': 'u', 'origWidth': 409, 'origHeight': 409, 'width': 409, 'height': 409, 'widthPercent': 0.45, 'rescaleHeight': False, 'trialN': 38, 'loaded': True, 'loadedTime': 4032.7000000476837, 'positionName': 'LEFT', 'positionCoords': [512.6, 335.5], 'bid': 0.1}, {'imgObject': {}, 'id': 'baked potato', 'src': '/static/foodstim60/baked potato.jpg', 'key': 'i', 'origWidth': 409, 'origHeight': 410, 'width': 409, 'height': 410, 'widthPercent': 0.45, 'rescaleHeight': False, 'trialN': 38, 'loaded': True, 'loadedTime': 3830.2000000476837, 'positionName': 'RIGHT', 'positionCoords': [998.4, 335], 'bid': 0.95}]",71193.29999995232,1669838569472,avocado,baked potato,0.1,0.95,0.85,baked potato,1218.9000000953674,1220,1219.8000001907349,True,i,72920.90000009537,1727.6000001430511,1669838571200,1728,HRV,HRV_0276,2022-11-30 20:07:14
39,"[{'imgObject': {}, 'id': 'raspberries', 'src': '/static/foodstim60/raspberries.jpg', 'key': 'u', 'origWidth': 411, 'origHeight': 411, 'width': 411, 'height': 411, 'widthPercent': 0.45, 'rescaleHeight': False, 'trialN': 39, 'loaded': True, 'loadedTime': 4843.700000047684, 'positionName': 'LEFT', 'positionCoords': [510.6, 334.5], 'bid': 2.5500000000000003}, {'imgObject': {}, 'id': 'sushi w_condiments', 'src': '/static/foodstim60/sushi w_condiments.jpg', 'key': 'i', 'origWidth': 410, 'origHeight': 410, 'width': 410, 'height': 410, 'widthPercent': 0.45, 'rescaleHeight': False, 'trialN': 39, 'loaded': True, 'loadedTime': 4989.600000143051, 'positionName': 'RIGHT', 'positionCoords': [998.4, 335], 'bid': 0.12}]",72921.5,1669838571201,raspberries,sushi w_condiments,2.5500000000000003,0.12,-2.43,raspberries,1074.2999999523163,1075,1075.2000000476837,True,u,74505.79999995232,1584.2999999523163,1669838572785,1584,HRV,HRV_0276,2022-11-30 20:07:14
40,"[{'imgObject': {}, 'id': 'salmon', 'src': '/static/foodstim60/salmon.jpg', 'key': 'u', 'origWidth': 410, 'origHeight': 409, 'width': 410, 'height': 409, 'widthPercent': 0.45, 'rescaleHeight': False, 'trialN': 40, 'loaded': True, 'loadedTime': 4284, 'positionName': 'LEFT', 'positionCoords': [511.6, 335.5], 'bid': 4.89}, {'imgObject': {}, 'id': 'omelette', 'src': '/static/foodstim60/omelette.jpg', 'key': 'i', 'origWidth': 410, 'origHeight': 409, 'width': 410, 'height': 409, 'widthPercent': 0.45, 'rescaleHeight': False, 'trialN': 40, 'loaded': True, 'loadedTime': 4927.5, 'positionName': 'RIGHT', 'positionCoords': [998.4, 335.5], 'bid': 4.53}]",74506.40000009537,1669838572786,salmon,omelette,4.89,4.53,-0.35999999999999943,omelette,993.5,994,994.2999999523163,True,i,76009.60000014305,1503.2000000476837,1669838574289,1503,HRV,HRV_0276,2022-11-30 20:07:14
41,"[{'imgObject': {}, 'id': 'pear', 'src': '/static/foodstim60/pear.jpg', 'key': 'u', 'origWidth': 411, 'origHeight': 410, 'width': 411, 'height': 410, 'widthPercent': 0.45, 'rescaleHeight': False, 'trialN': 41, 'loaded': True, 'loadedTime': 4894.400000095367, 'positionName': 'LEFT', 'positionCoords': [510.6, 335], 'bid': 3.21}, {'imgObject': {}, 'id': 'chickenfingers', 'src': '/static/foodstim60/chickenfingers.jpg', 'key': 'i', 'origWidth': 410, 'origHeight': 410, 'width': 410, 'height': 410, 'widthPercent': 0.45, 'rescaleHeight': False, 'trialN': 41, 'loaded': True, 'loadedTime': 3547, 'positionName': 'RIGHT', 'positionCoords': [998.4, 335], 'bid': 0.25}]",76010.10000014305,1669838574289,pear,chickenfingers,3.21,0.25,-2.96,pear,1314.1999998092651,1315,1314.7999999523163,True,u,77839.90000009537,1829.7999999523163,1669838576119,1830,HRV,HRV_0276,2022-11-30 20:07:14
42,"[{'imgObject': {}, 'id': 'fruitsalad', 'src': '/static/foodstim60/fruitsalad.jpg', 'key': 'u', 'origWidth': 410, 'origHeight': 410, 'width': 410, 'height': 410, 'widthPercent': 0.45, 'rescaleHeight': False, 'trialN': 42, 'loaded': True, 'loadedTime': 3428.9000000953674, 'positionName': 'LEFT', 'positionCoords': [511.6, 335], 'bid': 0.61}, {'imgObject': {}, 'id': 'baked potato', 'src': '/static/foodstim60/baked potato.jpg', 'key': 'i', 'origWidth': 409, 'origHeight': 410, 'width': 409, 'height': 410, 'widthPercent': 0.45, 'rescaleHeight': False, 'trialN': 42, 'loaded': True, 'loadedTime': 3864.7999999523163, 'positionName': 'RIGHT', 'positionCoords': [998.4, 335], 'bid': 0.95}]",77840.40000009537,1669838576120,fruitsalad,baked potato,0.61,0.95,0.33999999999999997,baked potato,2195.5,2196,2196.5,True,i,80543.5,2703.0999999046326,1669838578824,2704,HRV,HRV_0276,2022-11-30 20:07:14
43,"[{'imgObject': {}, 'id': 'steak', 'src': '/static/foodstim60/steak.jpg', 'key': 'u', 'origWidth': 410, 'origHeight': 410, 'width': 410, 'height': 410, 'widthPercent': 0.45, 'rescaleHeight': False, 'trialN': 43, 'loaded': True, 'loadedTime': 3111.100000143051, 'positionName': 'LEFT', 'positionCoords': [511.6, 335], 'bid': 1.81}, {'imgObject': {}, 'id': 'granola w milk', 'src': '/static/foodstim60/granola w milk.jpg', 'key': 'i', 'origWidth': 410, 'origHeight': 410, 'width': 410, 'height': 410, 'widthPercent': 0.45, 'rescaleHeight': False, 'trialN': 43, 'loaded': True, 'loadedTime': 5025.100000143051, 'positionName': 'RIGHT', 'positionCoords': [998.4, 335], 'bid': 0.11}]",80544.29999995232,1669838578825,steak,granola w milk,1.81,0.11,-1.7,steak,1227.2000000476837,1228,1227.7000000476837,True,u,82281.20000004768,1736.9000000953674,1669838580562,1737,HRV,HRV_0276,2022-11-30 20:07:14
44,"[{'imgObject': {}, 'id': 'kiwi', 'src': '/static/foodstim60/kiwi.jpg', 'key': 'u', 'origWidth': 410, 'origHeight': 410, 'width': 410, 'height': 410, 'widthPercent': 0.45, 'rescaleHeight': False, 'trialN': 44, 'loaded': True, 'loadedTime': 4747.900000095367, 'positionName': 'LEFT', 'positionCoords': [511.6, 335], 'bid': 2.93}, {'imgObject': {}, 'id': 'mac & cheese', 'src': '/static/foodstim60/mac & cheese.jpg', 'key': 'i', 'origWidth': 410, 'origHeight': 410, 'width': 410, 'height': 410, 'widthPercent': 0.45, 'rescaleHeight': False, 'trialN': 44, 'loaded': True, 'loadedTime': 5029.900000095367, 'positionName': 'RIGHT', 'positionCoords': [998.4, 335], 'bid': 0.13}]",82281.70000004768,1669838580562,kiwi,mac & cheese,2.93,0.13,-2.8000000000000003,kiwi,1186.0999999046326,1187,1186.9000000953674,True,u,83972.29999995232,1690.5999999046326,1669838582253,1691,HRV,HRV_0276,2022-11-30 20:07:14
45,"[{'imgObject': {}, 'id': 'burrito', 'src': '/static/foodstim60/burrito.jpg', 'key': 'u', 'origWidth': 410, 'origHeight': 410, 'width': 410, 'height': 410, 'widthPercent': 0.45, 'rescaleHeight': False, 'trialN': 45, 'loaded': True, 'loadedTime': 4104.5, 'positionName': 'LEFT', 'positionCoords': [511.6, 335], 'bid': 0.12}, {'imgObject': {}, 'id': 'froot loops w milk', 'src': '/static/foodstim60/froot loops w milk.jpg', 'key': 'i', 'origWidth': 410, 'origHeight': 410, 'width': 410, 'height': 410, 'widthPercent': 0.45, 'rescaleHeight': False, 'trialN': 45, 'loaded': True, 'loadedTime': 5032.600000143051, 'positionName': 'RIGHT', 'positionCoords': [998.4, 335], 'bid': 0.09}]",83972.79999995232,1669838582253,burrito,froot loops w milk,0.12,0.09,-0.03,burrito,1191.4000000953674,1193,1192.7000000476837,True,u,85674.79999995232,1702.0,1669838583955,1702,HRV,HRV_0276,2022-11-30 20:07:14
46,"[{'imgObject': {}, 'id': 'blackbeanswithrice', 'src': '/static/foodstim60/blackbeanswithrice.jpg', 'key': 'u', 'origWidth': 410, 'origHeight': 410, 'width': 410, 'height': 410, 'widthPercent': 0.45, 'rescaleHeight': False, 'trialN': 46, 'loaded': True, 'loadedTime': 4197.600000143051, 'positionName': 'LEFT', 'positionCoords': [511.6, 335], 'bid': 0.16}, {'imgObject': {}, 'id': 'roastedpotatoes', 'src': '/static/foodstim60/roastedpotatoes.jpg', 'key': 'i', 'origWidth': 409, 'origHeight': 410, 'width': 409, 'height': 410, 'widthPercent': 0.45, 'rescaleHeight': False, 'trialN': 46, 'loaded': True, 'loadedTime': 4499, 'positionName': 'RIGHT', 'positionCoords': [998.4, 335], 'bid': 0.15}]",85675.40000009537,1669838583956,blackbeanswithrice,roastedpotatoes,0.16,0.15,-0.010000000000000009,roastedpotatoes,1192.3999998569489,1193,1193.2999999523163,True,i,87379.60000014305,1704.2000000476837,1669838585660,1704,HRV,HRV_0276,2022-11-30 20:07:14
47,"[{'imgObject': {}, 'id': 'salad w chicken', 'src': '/static/foodstim60/salad w chicken.jpg', 'key': 'u', 'origWidth': 411, 'origHeight': 411, 'width': 411, 'height': 411, 'widthPercent': 0.45, 'rescaleHeight': False, 'trialN': 47, 'loaded': True, 'loadedTime': 3268.9000000953674, 'positionName': 'LEFT', 'positionCoords': [510.6, 334.5], 'bid': 4.34}, {'imgObject': {}, 'id': 'orange slices', 'src': '/static/foodstim60/orange slices.jpg', 'key': 'i', 'origWidth': 409, 'origHeight': 410, 'width': 409, 'height': 410, 'widthPercent': 0.45, 'rescaleHeight': False, 'trialN': 47, 'loaded': True, 'loadedTime': 4844.700000047684, 'positionName': 'RIGHT', 'positionCoords': [998.4, 335], 'bid': 4.28}]",87380.20000004768,1669838585661,salad w chicken,orange slices,4.34,4.28,-0.05999999999999961,salad w chicken,1784.2000000476837,1785,1785.0999999046326,True,u,89672.20000004768,2292.0,1669838587953,2292,HRV,HRV_0276,2022-11-30 20:07:14
48,"[{'imgObject': {}, 'id': 'lox', 'src': '/static/foodstim60/lox.jpg', 'key': 'u', 'origWidth': 410, 'origHeight': 411, 'width': 410, 'height': 411, 'widthPercent': 0.45, 'rescaleHeight': False, 'trialN': 48, 'loaded': True, 'loadedTime': 3104.9000000953674, 'positionName': 'LEFT', 'positionCoords': [511.6, 334.5], 'bid': 0.13}, {'imgObject': {}, 'id': 'mac & cheese', 'src': '/static/foodstim60/mac & cheese.jpg', 'key': 'i', 'origWidth': 410, 'origHeight': 410, 'width': 410, 'height': 410, 'widthPercent': 0.45, 'rescaleHeight': False, 'trialN': 48, 'loaded': True, 'loadedTime': 5027.200000047684, 'positionName': 'RIGHT', 'positionCoords': [998.4, 335], 'bid': 0.13}]",89672.79999995232,1669838587953,lox,mac & cheese,0.13,0.13,0.0,lox,1555.2000000476837,1557,1556.1000001430511,True,u,91739.60000014305,2066.800000190735,1669838590020,2067,HRV,HRV_0276,2022-11-30 20:07:14
49,"[{'imgObject': {}, 'id': 'edamame', 'src': '/static/foodstim60/edamame.jpg', 'key': 'u', 'origWidth': 409, 'origHeight': 410, 'width': 409, 'height': 410, 'widthPercent': 0.45, 'rescaleHeight': False, 'trialN': 49, 'loaded': True, 'loadedTime': 3582, 'positionName': 'LEFT', 'positionCoords': [512.6, 335], 'bid': 0}, {'imgObject': {}, 'id': 'seaweed', 'src': '/static/foodstim60/seaweed.jpg', 'key': 'i', 'origWidth': 410, 'origHeight': 410, 'width': 410, 'height': 410, 'widthPercent': 0.45, 'rescaleHeight': False, 'trialN': 49, 'loaded': True, 'loadedTime': 5035.100000143051, 'positionName': 'RIGHT', 'positionCoords': [998.4, 335], 'bid': 0.04}]",91740.20000004768,1669838590021,edamame,seaweed,0.0,0.04,0.04,edamame,1096.2999999523163,1097,1097.2000000476837,True,u,93338.5,1598.2999999523163,1669838591619,1598,HRV,HRV_0276,2022-11-30 20:07:14
50,"[{'imgObject': {}, 'id': 'granola w milk', 'src': '/static/foodstim60/granola w milk.jpg', 'key': 'u', 'origWidth': 410, 'origHeight': 410, 'width': 410, 'height': 410, 'widthPercent': 0.45, 'rescaleHeight': False, 'trialN': 50, 'loaded': True, 'loadedTime': 4990.700000047684, 'positionName': 'LEFT', 'positionCoords': [511.6, 335], 'bid': 0.11}, {'imgObject': {}, 'id': 'rigatoni', 'src': '/static/foodstim60/rigatoni.jpg', 'key': 'i', 'origWidth': 411, 'origHeight': 411, 'width': 411, 'height': 411, 'widthPercent': 0.45, 'rescaleHeight': False, 'trialN': 50, 'loaded': True, 'loadedTime': 4353.900000095367, 'positionName': 'RIGHT', 'positionCoords': [998.4, 334.5], 'bid': 0.13}]",93339.0,1669838591620,granola w milk,rigatoni,0.11,0.13,0.020000000000000004,rigatoni,1128.7999999523163,1129,1129.6000001430511,True,i,94977.0,1638.0,1669838593258,1638,HRV,HRV_0276,2022-11-30 20:07:14
51,"[{'imgObject': {}, 'id': 'fruitsalad', 'src': '/static/foodstim60/fruitsalad.jpg', 'key': 'u', 'origWidth': 410, 'origHeight': 410, 'width': 410, 'height': 410, 'widthPercent': 0.45, 'rescaleHeight': False, 'trialN': 51, 'loaded': True, 'loadedTime': 3511.100000143051, 'positionName': 'LEFT', 'positionCoords': [511.6, 335], 'bid': 0.61}, {'imgObject': {}, 'id': 'bagel plain', 'src': '/static/foodstim60/bagel plain.jpg', 'key': 'i', 'origWidth': 410, 'origHeight': 410, 'width': 410, 'height': 410, 'widthPercent': 0.45, 'rescaleHeight': False, 'trialN': 51, 'loaded': True, 'loadedTime': 5036.700000047684, 'positionName': 'RIGHT', 'positionCoords': [998.4, 335], 'bid': 0.15}]",94977.5,1669838593258,fruitsalad,bagel plain,0.61,0.15,-0.45999999999999996,fruitsalad,1554.2999999523163,1555,1555.2999999523163,True,u,97044.40000009537,2066.9000000953674,1669838595325,2067,HRV,HRV_0276,2022-11-30 20:07:14
52,"[{'imgObject': {}, 'id': 'avocado', 'src': '/static/foodstim60/avocado.jpg', 'key': 'u', 'origWidth': 409, 'origHeight': 409, 'width': 409, 'height': 409, 'widthPercent': 0.45, 'rescaleHeight': False, 'trialN': 52, 'loaded': True, 'loadedTime': 4068.5, 'positionName': 'LEFT', 'positionCoords': [512.6, 335.5], 'bid': 0.1}, {'imgObject': {}, 'id': 'sushi w_condiments', 'src': '/static/foodstim60/sushi w_condiments.jpg', 'key': 'i', 'origWidth': 410, 'origHeight': 410, 'width': 410, 'height': 410, 'widthPercent': 0.45, 'rescaleHeight': False, 'trialN': 52, 'loaded': True, 'loadedTime': 4990.400000095367, 'positionName': 'RIGHT', 'positionCoords': [998.4, 335], 'bid': 0.12}]",97044.90000009537,1669838595326,avocado,sushi w_condiments,0.1,0.12,0.01999999999999999,avocado,1550.7999999523163,1551,1551.7000000476837,True,u,99110.20000004768,2065.2999999523163,1669838597391,2065,HRV,HRV_0276,2022-11-30 20:07:14
53,"[{'imgObject': {}, 'id': 'bagel and cc', 'src': '/static/foodstim60/bagel and cc.jpg', 'key': 'u', 'origWidth': 410, 'origHeight': 410, 'width': 410, 'height': 410, 'widthPercent': 0.45, 'rescaleHeight': False, 'trialN': 53, 'loaded': True, 'loadedTime': 4930, 'positionName': 'LEFT', 'positionCoords': [511.6, 335], 'bid': 0.16}, {'imgObject': {}, 'id': 'cherries', 'src': '/static/foodstim60/cherries.jpg', 'key': 'i', 'origWidth': 410, 'origHeight': 411, 'width': 410, 'height': 411, 'widthPercent': 0.45, 'rescaleHeight': False, 'trialN': 53, 'loaded': True, 'loadedTime': 4073, 'positionName': 'RIGHT', 'positionCoords': [998.4, 334.5], 'bid': 1.19}]",99110.79999995232,1669838597391,bagel and cc,cherries,0.16,1.19,1.03,cherries,1781.6000001430511,1783,1782.4000000953674,True,i,101408.0,2297.2000000476837,1669838599689,2298,HRV,HRV_0276,2022-11-30 20:07:14
54,"[{'imgObject': {}, 'id': 'luckycharms', 'src': '/static/foodstim60/luckycharms.jpg', 'key': 'u', 'origWidth': 410, 'origHeight': 409, 'width': 410, 'height': 409, 'widthPercent': 0.45, 'rescaleHeight': False, 'trialN': 54, 'loaded': True, 'loadedTime': 3074.100000143051, 'positionName': 'LEFT', 'positionCoords': [511.6, 335.5], 'bid': 0.13}, {'imgObject': {}, 'id': 'yogurt no spoon', 'src': '/static/foodstim60/yogurt no spoon.jpg', 'key': 'i', 'origWidth': 411, 'origHeight': 410, 'width': 411, 'height': 410, 'widthPercent': 0.45, 'rescaleHeight': False, 'trialN': 54, 'loaded': True, 'loadedTime': 4745.400000095367, 'positionName': 'RIGHT', 'positionCoords': [998.4, 335], 'bid': 3.04}]",101408.40000009537,1669838599689,luckycharms,yogurt no spoon,0.13,3.04,2.91,yogurt no spoon,931.5,932,932.2999999523163,True,i,102851.5,1443.0999999046326,1669838601132,1443,HRV,HRV_0276,2022-11-30 20:07:14
55,"[{'imgObject': {}, 'id': 'avocado', 'src': '/static/foodstim60/avocado.jpg', 'key': 'u', 'origWidth': 409, 'origHeight': 409, 'width': 409, 'height': 409, 'widthPercent': 0.45, 'rescaleHeight': False, 'trialN': 55, 'loaded': True, 'loadedTime': 4034.9000000953674, 'positionName': 'LEFT', 'positionCoords': [512.6, 335.5], 'bid': 0.1}, {'imgObject': {}, 'id': 'granola w milk', 'src': '/static/foodstim60/granola w milk.jpg', 'key': 'i', 'origWidth': 410, 'origHeight': 410, 'width': 410, 'height': 410, 'widthPercent': 0.45, 'rescaleHeight': False, 'trialN': 55, 'loaded': True, 'loadedTime': 5026.799999952316, 'positionName': 'RIGHT', 'positionCoords': [998.4, 335], 'bid': 0.11}]",102851.90000009537,1669838601133,avocado,granola w milk,0.1,0.11,0.009999999999999995,avocado,1111.8999998569489,1112,1112.7000000476837,True,u,104470.79999995232,1618.8999998569489,1669838602751,1618,HRV,HRV_0276,2022-11-30 20:07:14
56,"[{'imgObject': {}, 'id': 'kiwi', 'src': '/static/foodstim60/kiwi.jpg', 'key': 'u', 'origWidth': 410, 'origHeight': 410, 'width': 410, 'height': 410, 'widthPercent': 0.45, 'rescaleHeight': False, 'trialN': 56, 'loaded': True, 'loadedTime': 4791.700000047684, 'positionName': 'LEFT', 'positionCoords': [511.6, 335], 'bid': 2.93}, {'imgObject': {}, 'id': 'Tribe humus pita', 'src': '/static/foodstim60/Tribe humus pita.jpg', 'key': 'i', 'origWidth': 411, 'origHeight': 411, 'width': 411, 'height': 411, 'widthPercent': 0.45, 'rescaleHeight': False, 'trialN': 56, 'loaded': True, 'loadedTime': 4603.299999952316, 'positionName': 'RIGHT', 'positionCoords': [998.4, 334.5], 'bid': 2.8000000000000003}]",104471.5,1669838602752,kiwi,Tribe humus pita,2.93,2.8000000000000003,-0.1299999999999999,Tribe humus pita,1468.2000000476837,1469,1469.1000001430511,True,i,106454.10000014305,1982.6000001430511,1669838604735,1983,HRV,HRV_0276,2022-11-30 20:07:14
57,"[{'imgObject': {}, 'id': 'turkeysandwich', 'src': '/static/foodstim60/turkeysandwich.jpg', 'key': 'u', 'origWidth': 409, 'origHeight': 409, 'width': 409, 'height': 409, 'widthPercent': 0.45, 'rescaleHeight': False, 'trialN': 57, 'loaded': True, 'loadedTime': 5037.400000095367, 'positionName': 'LEFT', 'positionCoords': [512.6, 335.5], 'bid': 3.86}, {'imgObject': {}, 'id': 'turkey sandwich', 'src': '/static/foodstim60/turkey sandwich.jpg', 'key': 'i', 'origWidth': 409, 'origHeight': 409, 'width': 409, 'height': 409, 'widthPercent': 0.45, 'rescaleHeight': False, 'trialN': 57, 'loaded': True, 'loadedTime': 4460.700000047684, 'positionName': 'RIGHT', 'positionCoords': [998.4, 335.5], 'bid': 3.6}]",106454.60000014305,1669838604735,turkeysandwich,turkey sandwich,3.86,3.6,-0.2599999999999998,turkey sandwich,1253.1999998092651,1254,1254.0,True,i,108213.79999995232,1759.1999998092651,1669838606494,1759,HRV,HRV_0276,2022-11-30 20:07:14
58,"[{'imgObject': {}, 'id': 'strawberries', 'src': '/static/foodstim60/strawberries.jpg', 'key': 'u', 'origWidth': 410, 'origHeight': 410, 'width': 410, 'height': 410, 'widthPercent': 0.45, 'rescaleHeight': False, 'trialN': 58, 'loaded': True, 'loadedTime': 5090.5, 'positionName': 'LEFT', 'positionCoords': [511.6, 335], 'bid': 5.9}, {'imgObject': {}, 'id': 'turkeysandwich', 'src': '/static/foodstim60/turkeysandwich.jpg', 'key': 'i', 'origWidth': 409, 'origHeight': 409, 'width': 409, 'height': 409, 'widthPercent': 0.45, 'rescaleHeight': False, 'trialN': 58, 'loaded': True, 'loadedTime': 5038.400000095367, 'positionName': 'RIGHT', 'positionCoords': [998.4, 335.5], 'bid': 3.86}]",108214.40000009537,1669838606495,strawberries,turkeysandwich,5.9,3.86,-2.0400000000000005,strawberries,1581.2999999523163,1582,1582.0999999046326,True,u,110301.0,2086.5999999046326,1669838608582,2087,HRV,HRV_0276,2022-11-30 20:07:14
59,"[{'imgObject': {}, 'id': 'fried eggs', 'src': '/static/foodstim60/fried eggs.jpg', 'key': 'u', 'origWidth': 410, 'origHeight': 410, 'width': 410, 'height': 410, 'widthPercent': 0.45, 'rescaleHeight': False, 'trialN': 59, 'loaded': True, 'loadedTime': 4498.200000047684, 'positionName': 'LEFT', 'positionCoords': [511.6, 335], 'bid': 4.93}, {'imgObject': {}, 'id': 'cantaloupe', 'src': '/static/foodstim60/cantaloupe.jpg', 'key': 'i', 'origWidth': 409, 'origHeight': 409, 'width': 409, 'height': 409, 'widthPercent': 0.45, 'rescaleHeight': False, 'trialN': 59, 'loaded': True, 'loadedTime': 4285.900000095367, 'positionName': 'RIGHT', 'positionCoords': [998.4, 335.5], 'bid': 0.17}]",110301.40000009537,1669838608582,fried eggs,cantaloupe,4.93,0.17,-4.76,fried eggs,975.5999999046326,977,976.3999998569489,True,u,111786.29999995232,1484.8999998569489,1669838610067,1485,HRV,HRV_0276,2022-11-30 20:07:14
60,"[{'imgObject': {}, 'id': 'ice cream sundae 002', 'src': '/static/foodstim60/ice cream sundae 002.jpg', 'key': 'u', 'origWidth': 409, 'origHeight': 409, 'width': 409, 'height': 409, 'widthPercent': 0.45, 'rescaleHeight': False, 'trialN': 60, 'loaded': True, 'loadedTime': 2830.7000000476837, 'positionName': 'LEFT', 'positionCoords': [512.6, 335.5], 'bid': 0.2}, {'imgObject': {}, 'id': 'cheerios', 'src': '/static/foodstim60/cheerios.jpg', 'key': 'i', 'origWidth': 409, 'origHeight': 410, 'width': 409, 'height': 410, 'widthPercent': 0.45, 'rescaleHeight': False, 'trialN': 60, 'loaded': True, 'loadedTime': 3081.7000000476837, 'positionName': 'RIGHT', 'positionCoords': [998.4, 335], 'bid': 0.21}]",111786.79999995232,1669838610067,ice cream sundae 002,cheerios,0.2,0.21,0.009999999999999981,cheerios,1800.9000000953674,1802,1801.7000000476837,True,i,114100.79999995232,2314.0,1669838612381,2314,HRV,HRV_0276,2022-11-30 20:07:14
61,"[{'imgObject': {}, 'id': 'cantaloupe', 'src': '/static/foodstim60/cantaloupe.jpg', 'key': 'u', 'origWidth': 409, 'origHeight': 409, 'width': 409, 'height': 409, 'widthPercent': 0.45, 'rescaleHeight': False, 'trialN': 61, 'loaded': True, 'loadedTime': 4285.700000047684, 'positionName': 'LEFT', 'positionCoords': [512.6, 335.5], 'bid': 0.17}, {'imgObject': {}, 'id': 'apple slices', 'src': '/static/foodstim60/apple slices.jpg', 'key': 'i', 'origWidth': 409, 'origHeight': 410, 'width': 409, 'height': 410, 'widthPercent': 0.45, 'rescaleHeight': False, 'trialN': 61, 'loaded': True, 'loadedTime': 3149.9000000953674, 'positionName': 'RIGHT', 'positionCoords': [998.4, 335], 'bid': 1.88}]",114101.29999995232,1669838612382,cantaloupe,apple slices,0.17,1.88,1.71,apple slices,950.4000000953674,951,951.3000001907349,True,i,115563.79999995232,1462.5,1669838613844,1462,HRV,HRV_0276,2022-11-30 20:07:14
62,"[{'imgObject': {}, 'id': 'Tribe humus pita', 'src': '/static/foodstim60/Tribe humus pita.jpg', 'key': 'u', 'origWidth': 411, 'origHeight': 411, 'width': 411, 'height': 411, 'widthPercent': 0.45, 'rescaleHeight': False, 'trialN': 62, 'loaded': True, 'loadedTime': 4570.700000047684, 'positionName': 'LEFT', 'positionCoords': [510.6, 334.5], 'bid': 2.8000000000000003}, {'imgObject': {}, 'id': 'strawberries', 'src': '/static/foodstim60/strawberries.jpg', 'key': 'i', 'origWidth': 410, 'origHeight': 410, 'width': 410, 'height': 410, 'widthPercent': 0.45, 'rescaleHeight': False, 'trialN': 62, 'loaded': True, 'loadedTime': 5090.200000047684, 'positionName': 'RIGHT', 'positionCoords': [998.4, 335], 'bid': 5.9}]",115564.40000009537,1669838613845,Tribe humus pita,strawberries,2.8000000000000003,5.9,3.1,Tribe humus pita,1199.2999999523163,1200,1200.2000000476837,True,u,117267.70000004768,1703.2999999523163,1669838615548,1703,HRV,HRV_0276,2022-11-30 20:07:14
63,"[{'imgObject': {}, 'id': 'granola w milk', 'src': '/static/foodstim60/granola w milk.jpg', 'key': 'u', 'origWidth': 410, 'origHeight': 410, 'width': 410, 'height': 410, 'widthPercent': 0.45, 'rescaleHeight': False, 'trialN': 63, 'loaded': True, 'loadedTime': 5025.600000143051, 'positionName': 'LEFT', 'positionCoords': [511.6, 335], 'bid': 0.11}, {'imgObject': {}, 'id': 'banana', 'src': '/static/foodstim60/banana.jpg', 'key': 'i', 'origWidth': 410, 'origHeight': 410, 'width': 410, 'height': 410, 'widthPercent': 0.45, 'rescaleHeight': False, 'trialN': 63, 'loaded': True, 'loadedTime': 4891.400000095367, 'positionName': 'RIGHT', 'positionCoords': [998.4, 335], 'bid': 0.13}]",117268.20000004768,1669838615549,granola w milk,banana,0.11,0.13,0.020000000000000004,granola w milk,1711.5,1712,1712.5,True,u,119487.60000014305,2219.4000000953674,1669838617768,2219,HRV,HRV_0276,2022-11-30 20:07:14
64,"[{'imgObject': {}, 'id': 'popsicles', 'src': '/static/foodstim60/popsicles.jpg', 'key': 'u', 'origWidth': 410, 'origHeight': 410, 'width': 410, 'height': 410, 'widthPercent': 0.45, 'rescaleHeight': False, 'trialN': 64, 'loaded': True, 'loadedTime': 4708.400000095367, 'positionName': 'LEFT', 'positionCoords': [511.6, 335], 'bid': 0.11}, {'imgObject': {}, 'id': 'sushi w_condiments', 'src': '/static/foodstim60/sushi w_condiments.jpg', 'key': 'i', 'origWidth': 410, 'origHeight': 410, 'width': 410, 'height': 410, 'widthPercent': 0.45, 'rescaleHeight': False, 'trialN': 64, 'loaded': True, 'loadedTime': 4990.5, 'positionName': 'RIGHT', 'positionCoords': [998.4, 335], 'bid': 0.12}]",119488.10000014305,1669838617769,popsicles,sushi w_condiments,0.11,0.12,0.009999999999999995,popsicles,1131.5999999046326,1132,1132.5,True,u,121130.0,1641.8999998569489,1669838619411,1642,HRV,HRV_0276,2022-11-30 20:07:14
65,"[{'imgObject': {}, 'id': 'corn cob', 'src': '/static/foodstim60/corn cob.jpg', 'key': 'u', 'origWidth': 411, 'origHeight': 411, 'width': 411, 'height': 411, 'widthPercent': 0.45, 'rescaleHeight': False, 'trialN': 65, 'loaded': True, 'loadedTime': 3379.4000000953674, 'positionName': 'LEFT', 'positionCoords': [510.6, 334.5], 'bid': 2.35}, {'imgObject': {}, 'id': 'grilled chicken strips', 'src': '/static/foodstim60/grilled chicken strips.jpg', 'key': 'i', 'origWidth': 410, 'origHeight': 411, 'width': 410, 'height': 411, 'widthPercent': 0.45, 'rescaleHeight': False, 'trialN': 65, 'loaded': True, 'loadedTime': 4538.100000143051, 'positionName': 'RIGHT', 'positionCoords': [998.4, 334.5], 'bid': 4.45}]",121130.5,1669838619411,corn cob,grilled chicken strips,2.35,4.45,2.1,grilled chicken strips,1337.7999999523163,1339,1338.6000001430511,True,i,122984.70000004768,1854.2000000476837,1669838621265,1854,HRV,HRV_0276,2022-11-30 20:07:14
66,"[{'imgObject': {}, 'id': 'raisin bran w milk', 'src': '/static/foodstim60/raisin bran w milk.jpg', 'key': 'u', 'origWidth': 411, 'origHeight': 411, 'width': 411, 'height': 411, 'widthPercent': 0.45, 'rescaleHeight': False, 'trialN': 66, 'loaded': True, 'loadedTime': 4895.600000143051, 'positionName': 'LEFT', 'positionCoords': [510.6, 334.5], 'bid': 0.08}, {'imgObject': {}, 'id': 'rigatoni', 'src': '/static/foodstim60/rigatoni.jpg', 'key': 'i', 'origWidth': 411, 'origHeight': 411, 'width': 411, 'height': 411, 'widthPercent': 0.45, 'rescaleHeight': False, 'trialN': 66, 'loaded': True, 'loadedTime': 4354.600000143051, 'positionName': 'RIGHT', 'positionCoords': [998.4, 334.5], 'bid': 0.13}]",122985.20000004768,1669838621266,raisin bran w milk,rigatoni,0.08,0.13,0.05,rigatoni,1322.5,1323,1323.4000000953674,True,i,124813.70000004768,1828.5,1669838623094,1828,HRV,HRV_0276,2022-11-30 20:07:14
67,"[{'imgObject': {}, 'id': 'veggieswithdip', 'src': '/static/foodstim60/veggieswithdip.jpg', 'key': 'u', 'origWidth': 409, 'origHeight': 409, 'width': 409, 'height': 409, 'widthPercent': 0.45, 'rescaleHeight': False, 'trialN': 67, 'loaded': True, 'loadedTime': 3107.4000000953674, 'positionName': 'LEFT', 'positionCoords': [512.6, 335.5], 'bid': 2.61}, {'imgObject': {}, 'id': 'raspberries', 'src': '/static/foodstim60/raspberries.jpg', 'key': 'i', 'origWidth': 411, 'origHeight': 411, 'width': 411, 'height': 411, 'widthPercent': 0.45, 'rescaleHeight': False, 'trialN': 67, 'loaded': True, 'loadedTime': 4841.5, 'positionName': 'RIGHT', 'positionCoords': [998.4, 334.5], 'bid': 2.5500000000000003}]",124814.20000004768,1669838623095,veggieswithdip,raspberries,2.61,2.5500000000000003,-0.05999999999999961,veggieswithdip,933.5,934,934.4000000953674,True,u,126264.20000004768,1450.0,1669838624545,1450,HRV,HRV_0276,2022-11-30 20:07:14
68,"[{'imgObject': {}, 'id': 'Grapes', 'src': '/static/foodstim60/Grapes.jpg', 'key': 'u', 'origWidth': 411, 'origHeight': 411, 'width': 411, 'height': 411, 'widthPercent': 0.45, 'rescaleHeight': False, 'trialN': 68, 'loaded': True, 'loadedTime': 3308.600000143051, 'positionName': 'LEFT', 'positionCoords': [510.6, 334.5], 'bid': 3.86}, {'imgObject': {}, 'id': 'turkey sandwich', 'src': '/static/foodstim60/turkey sandwich.jpg', 'key': 'i', 'origWidth': 409, 'origHeight': 409, 'width': 409, 'height': 409, 'widthPercent': 0.45, 'rescaleHeight': False, 'trialN': 68, 'loaded': True, 'loadedTime': 4407.100000143051, 'positionName': 'RIGHT', 'positionCoords': [998.4, 335.5], 'bid': 3.6}]",126264.70000004768,1669838624545,Grapes,turkey sandwich,3.86,3.6,-0.2599999999999998,turkey sandwich,971.0,972,971.7999999523163,True,i,127744.0,1479.2999999523163,1669838626025,1480,HRV,HRV_0276,2022-11-30 20:07:14
69,"[{'imgObject': {}, 'id': 'salmon', 'src': '/static/foodstim60/salmon.jpg', 'key': 'u', 'origWidth': 410, 'origHeight': 409, 'width': 410, 'height': 409, 'widthPercent': 0.45, 'rescaleHeight': False, 'trialN': 69, 'loaded': True, 'loadedTime': 4284.299999952316, 'positionName': 'LEFT', 'positionCoords': [511.6, 335.5], 'bid': 4.89}, {'imgObject': {}, 'id': 'strawberries', 'src': '/static/foodstim60/strawberries.jpg', 'key': 'i', 'origWidth': 410, 'origHeight': 410, 'width': 410, 'height': 410, 'widthPercent': 0.45, 'rescaleHeight': False, 'trialN': 69, 'loaded': True, 'loadedTime': 5090.5, 'positionName': 'RIGHT', 'positionCoords': [998.4, 335], 'bid': 5.9}]",127744.60000014305,1669838626025,salmon,strawberries,4.89,5.9,1.0100000000000007,salmon,899.0999999046326,900,900.0,True,u,129153.60000014305,1409.0,1669838627434,1409,HRV,HRV_0276,2022-11-30 20:07:14
70,"[{'imgObject': {}, 'id': 'ice cream sundae 002', 'src': '/static/foodstim60/ice cream sundae 002.jpg', 'key': 'u', 'origWidth': 409, 'origHeight': 409, 'width': 409, 'height': 409, 'widthPercent': 0.45, 'rescaleHeight': False, 'trialN': 70, 'loaded': True, 'loadedTime': 2943.7000000476837, 'positionName': 'LEFT', 'positionCoords': [512.6, 335.5], 'bid': 0.2}, {'imgObject': {}, 'id': 'cantaloupe', 'src': '/static/foodstim60/cantaloupe.jpg', 'key': 'i', 'origWidth': 409, 'origHeight': 409, 'width': 409, 'height': 409, 'widthPercent': 0.45, 'rescaleHeight': False, 'trialN': 70, 'loaded': True, 'loadedTime': 4318.5, 'positionName': 'RIGHT', 'positionCoords': [998.4, 335.5], 'bid': 0.17}]",129154.10000014305,1669838627435,ice cream sundae 002,cantaloupe,0.2,0.17,-0.03,cantaloupe,1177.5999999046326,1178,1178.3999998569489,True,i,130845.40000009537,1691.2999999523163,1669838629126,1691,HRV,HRV_0276,2022-11-30 20:07:14
71,"[{'imgObject': {}, 'id': 'apple slices', 'src': '/static/foodstim60/apple slices.jpg', 'key': 'u', 'origWidth': 409, 'origHeight': 410, 'width': 409, 'height': 410, 'widthPercent': 0.45, 'rescaleHeight': False, 'trialN': 71, 'loaded': True, 'loadedTime': 3211.5, 'positionName': 'LEFT', 'positionCoords': [512.6, 335], 'bid': 1.88}, {'imgObject': {}, 'id': 'cherries', 'src': '/static/foodstim60/cherries.jpg', 'key': 'i', 'origWidth': 410, 'origHeight': 411, 'width': 410, 'height': 411, 'widthPercent': 0.45, 'rescaleHeight': False, 'trialN': 71, 'loaded': True, 'loadedTime': 4068.9000000953674, 'positionName': 'RIGHT', 'positionCoords': [998.4, 334.5], 'bid': 1.19}]",130846.20000004768,1669838629127,apple slices,cherries,1.88,1.19,-0.69,apple slices,1293.5,1294,1294.2999999523163,True,u,132646.90000009537,1800.7000000476837,1669838630928,1801,HRV,HRV_0276,2022-11-30 20:07:14
72,"[{'imgObject': {}, 'id': 'cherries', 'src': '/static/foodstim60/cherries.jpg', 'key': 'u', 'origWidth': 410, 'origHeight': 411, 'width': 410, 'height': 411, 'widthPercent': 0.45, 'rescaleHeight': False, 'trialN': 72, 'loaded': True, 'loadedTime': 4071, 'positionName': 'LEFT', 'positionCoords': [511.6, 334.5], 'bid': 1.19}, {'imgObject': {}, 'id': 'eggs', 'src': '/static/foodstim60/eggs.jpg', 'key': 'i', 'origWidth': 409, 'origHeight': 409, 'width': 409, 'height': 409, 'widthPercent': 0.45, 'rescaleHeight': False, 'trialN': 72, 'loaded': True, 'loadedTime': 5091.700000047684, 'positionName': 'RIGHT', 'positionCoords': [998.4, 335.5], 'bid': 4.25}]",132647.5,1669838630928,cherries,eggs,1.19,4.25,3.06,eggs,892.7999999523163,894,893.7000000476837,True,i,134051.29999995232,1403.7999999523163,1669838632332,1404,HRV,HRV_0276,2022-11-30 20:07:14
73,"[{'imgObject': {}, 'id': 'chicken nuggets2', 'src': '/static/foodstim60/chicken nuggets2.jpg', 'key': 'u', 'origWidth': 410, 'origHeight': 409, 'width': 410, 'height': 409, 'widthPercent': 0.45, 'rescaleHeight': False, 'trialN': 73, 'loaded': True, 'loadedTime': 5129.900000095367, 'positionName': 'LEFT', 'positionCoords': [511.6, 335.5], 'bid': 0.14}, {'imgObject': {}, 'id': 'tacos', 'src': '/static/foodstim60/tacos.jpg', 'key': 'i', 'origWidth': 411, 'origHeight': 411, 'width': 411, 'height': 411, 'widthPercent': 0.45, 'rescaleHeight': False, 'trialN': 73, 'loaded': True, 'loadedTime': 3653.100000143051, 'positionName': 'RIGHT', 'positionCoords': [998.4, 334.5], 'bid': 0.11}]",134051.79999995232,1669838632332,chicken nuggets2,tacos,0.14,0.11,-0.030000000000000013,tacos,1287.8000001907349,1289,1288.6000001430511,True,i,135845.70000004768,1793.9000000953674,1669838634126,1794,HRV,HRV_0276,2022-11-30 20:07:14
74,"[{'imgObject': {}, 'id': 'edamame', 'src': '/static/foodstim60/edamame.jpg', 'key': 'u', 'origWidth': 409, 'origHeight': 410, 'width': 409, 'height': 410, 'widthPercent': 0.45, 'rescaleHeight': False, 'trialN': 74, 'loaded': True, 'loadedTime': 3582.4000000953674, 'positionName': 'LEFT', 'positionCoords': [512.6, 335], 'bid': 0}, {'imgObject': {}, 'id': 'popsicles', 'src': '/static/foodstim60/popsicles.jpg', 'key': 'i', 'origWidth': 410, 'origHeight': 410, 'width': 410, 'height': 410, 'widthPercent': 0.45, 'rescaleHeight': False, 'trialN': 74, 'loaded': True, 'loadedTime': 4665.900000095367, 'positionName': 'RIGHT', 'positionCoords': [998.4, 335], 'bid': 0.11}]",135846.10000014305,1669838634127,edamame,popsicles,0.0,0.11,0.11,edamame,1357.5999999046326,1358,1358.3999998569489,True,u,137718.90000009537,1872.7999999523163,1669838635999,1872,HRV,HRV_0276,2022-11-30 20:07:14
75,"[{'imgObject': {}, 'id': 'raisin bran w milk', 'src': '/static/foodstim60/raisin bran w milk.jpg', 'key': 'u', 'origWidth': 411, 'origHeight': 411, 'width': 411, 'height': 411, 'widthPercent': 0.45, 'rescaleHeight': False, 'trialN': 75, 'loaded': True, 'loadedTime': 4895.700000047684, 'positionName': 'LEFT', 'positionCoords': [510.6, 334.5], 'bid': 0.08}, {'imgObject': {}, 'id': 'shreddedwheatwithmilk', 'src': '/static/foodstim60/shreddedwheatwithmilk.jpg', 'key': 'i', 'origWidth': 410, 'origHeight': 410, 'width': 410, 'height': 410, 'widthPercent': 0.45, 'rescaleHeight': False, 'trialN': 75, 'loaded': True, 'loadedTime': 3868.4000000953674, 'positionName': 'RIGHT', 'positionCoords': [998.4, 335], 'bid': 0.12}]",137719.5,1669838636000,raisin bran w milk,shreddedwheatwithmilk,0.08,0.12,0.039999999999999994,shreddedwheatwithmilk,1308.2000000476837,1309,1309.0,True,i,139537.70000004768,1818.2000000476837,1669838637818,1818,HRV,HRV_0276,2022-11-30 20:07:14
76,"[{'imgObject': {}, 'id': 'fried eggs', 'src': '/static/foodstim60/fried eggs.jpg', 'key': 'u', 'origWidth': 410, 'origHeight': 410, 'width': 410, 'height': 410, 'widthPercent': 0.45, 'rescaleHeight': False, 'trialN': 76, 'loaded': True, 'loadedTime': 4463.700000047684, 'positionName': 'LEFT', 'positionCoords': [511.6, 335], 'bid': 4.93}, {'imgObject': {}, 'id': 'orange slices', 'src': '/static/foodstim60/orange slices.jpg', 'key': 'i', 'origWidth': 409, 'origHeight': 410, 'width': 409, 'height': 410, 'widthPercent': 0.45, 'rescaleHeight': False, 'trialN': 76, 'loaded': True, 'loadedTime': 4847.5, 'positionName': 'RIGHT', 'positionCoords': [998.4, 335], 'bid': 4.28}]",139538.29999995232,1669838637819,fried eggs,orange slices,4.93,4.28,-0.6499999999999995,orange slices,1593.4000000953674,1579,1594.2000000476837,True,i,141639.20000004768,2100.9000000953674,1669838639905,2086,HRV,HRV_0276,2022-11-30 20:07:14
77,"[{'imgObject': {}, 'id': 'Tribe humus pita', 'src': '/static/foodstim60/Tribe humus pita.jpg', 'key': 'u', 'origWidth': 411, 'origHeight': 411, 'width': 411, 'height': 411, 'widthPercent': 0.45, 'rescaleHeight': False, 'trialN': 77, 'loaded': True, 'loadedTime': 4572, 'positionName': 'LEFT', 'positionCoords': [510.6, 334.5], 'bid': 2.8000000000000003}, {'imgObject': {}, 'id': 'yogurt no spoon', 'src': '/static/foodstim60/yogurt no spoon.jpg', 'key': 'i', 'origWidth': 411, 'origHeight': 410, 'width': 411, 'height': 410, 'widthPercent': 0.45, 'rescaleHeight': False, 'trialN': 77, 'loaded': True, 'loadedTime': 4746.600000143051, 'positionName': 'RIGHT', 'positionCoords': [998.4, 335], 'bid': 3.04}]",141639.60000014305,1669838639906,Tribe humus pita,yogurt no spoon,2.8000000000000003,3.04,0.23999999999999977,Tribe humus pita,1204.2999999523163,1205,1205.0999999046326,True,u,143354.0,1714.3999998569489,1669838641620,1714,HRV,HRV_0276,2022-11-30 20:07:14
78,"[{'imgObject': {}, 'id': 'eggs', 'src': '/static/foodstim60/eggs.jpg', 'key': 'u', 'origWidth': 409, 'origHeight': 409, 'width': 409, 'height': 409, 'widthPercent': 0.45, 'rescaleHeight': False, 'trialN': 78, 'loaded': True, 'loadedTime': 5091.5, 'positionName': 'LEFT', 'positionCoords': [512.6, 335.5], 'bid': 4.25}, {'imgObject': {}, 'id': 'turkeysandwich', 'src': '/static/foodstim60/turkeysandwich.jpg', 'key': 'i', 'origWidth': 409, 'origHeight': 409, 'width': 409, 'height': 409, 'widthPercent': 0.45, 'rescaleHeight': False, 'trialN': 78, 'loaded': True, 'loadedTime': 5087.799999952316, 'positionName': 'RIGHT', 'positionCoords': [998.4, 335.5], 'bid': 3.86}]",143354.5,1669838641620,eggs,turkeysandwich,4.25,3.86,-0.3900000000000001,eggs,1121.7000000476837,1123,1122.6000001430511,True,u,144977.79999995232,1623.2999999523163,1669838643244,1624,HRV,HRV_0276,2022-11-30 20:07:14
79,"[{'imgObject': {}, 'id': 'mashed potato', 'src': '/static/foodstim60/mashed potato.jpg', 'key': 'u', 'origWidth': 409, 'origHeight': 409, 'width': 409, 'height': 409, 'widthPercent': 0.45, 'rescaleHeight': False, 'trialN': 79, 'loaded': True, 'loadedTime': 5132.700000047684, 'positionName': 'LEFT', 'positionCoords': [512.6, 335.5], 'bid': 0.13}, {'imgObject': {}, 'id': 'rigatoni and sauce', 'src': '/static/foodstim60/rigatoni and sauce.jpg', 'key': 'i', 'origWidth': 410, 'origHeight': 411, 'width': 410, 'height': 411, 'widthPercent': 0.45, 'rescaleHeight': False, 'trialN': 79, 'loaded': True, 'loadedTime': 3703, 'positionName': 'RIGHT', 'positionCoords': [998.4, 334.5], 'bid': 0.11}]",144978.29999995232,1669838643244,mashed potato,rigatoni and sauce,0.13,0.11,-0.020000000000000004,rigatoni and sauce,1873.4000000953674,1874,1874.2000000476837,True,i,147363.10000014305,2384.800000190735,1669838645629,2385,HRV,HRV_0276,2022-11-30 20:07:14
80,"[{'imgObject': {}, 'id': 'eggs', 'src': '/static/foodstim60/eggs.jpg', 'key': 'u', 'origWidth': 409, 'origHeight': 409, 'width': 409, 'height': 409, 'widthPercent': 0.45, 'rescaleHeight': False, 'trialN': 80, 'loaded': True, 'loadedTime': 5091.700000047684, 'positionName': 'LEFT', 'positionCoords': [512.6, 335.5], 'bid': 4.25}, {'imgObject': {}, 'id': 'raspberries', 'src': '/static/foodstim60/raspberries.jpg', 'key': 'i', 'origWidth': 411, 'origHeight': 411, 'width': 411, 'height': 411, 'widthPercent': 0.45, 'rescaleHeight': False, 'trialN': 80, 'loaded': True, 'loadedTime': 4793.799999952316, 'positionName': 'RIGHT', 'positionCoords': [998.4, 334.5], 'bid': 2.5500000000000003}]",147363.60000014305,1669838645630,eggs,raspberries,4.25,2.5500000000000003,-1.6999999999999997,eggs,1240.0,1240,1240.8999998569489,True,u,149108.79999995232,1745.1999998092651,1669838647375,1745,HRV,HRV_0276,2022-11-30 20:07:14
81,"[{'imgObject': {}, 'id': 'turkeysandwich', 'src': '/static/foodstim60/turkeysandwich.jpg', 'key': 'u', 'origWidth': 409, 'origHeight': 409, 'width': 409, 'height': 409, 'widthPercent': 0.45, 'rescaleHeight': False, 'trialN': 81, 'loaded': True, 'loadedTime': 5088.900000095367, 'positionName': 'LEFT', 'positionCoords': [512.6, 335.5], 'bid': 3.86}, {'imgObject': {}, 'id': 'grilled chicken strips', 'src': '/static/foodstim60/grilled chicken strips.jpg', 'key': 'i', 'origWidth': 410, 'origHeight': 411, 'width': 410, 'height': 411, 'widthPercent': 0.45, 'rescaleHeight': False, 'trialN': 81, 'loaded': True, 'loadedTime': 4569.100000143051, 'positionName': 'RIGHT', 'positionCoords': [998.4, 334.5], 'bid': 4.45}]",149109.40000009537,1669838647375,turkeysandwich,grilled chicken strips,3.86,4.45,0.5900000000000003,grilled chicken strips,1406.2000000476837,1408,1407.2000000476837,True,i,151022.10000014305,1912.7000000476837,1669838649288,1913,HRV,HRV_0276,2022-11-30 20:07:14
82,"[{'imgObject': {}, 'id': 'froot loops w milk', 'src': '/static/foodstim60/froot loops w milk.jpg', 'key': 'u', 'origWidth': 410, 'origHeight': 410, 'width': 410, 'height': 410, 'widthPercent': 0.45, 'rescaleHeight': False, 'trialN': 82, 'loaded': True, 'loadedTime': 5030.600000143051, 'positionName': 'LEFT', 'positionCoords': [511.6, 335], 'bid': 0.09}, {'imgObject': {}, 'id': 'raisin bran w milk', 'src': '/static/foodstim60/raisin bran w milk.jpg', 'key': 'i', 'origWidth': 411, 'origHeight': 411, 'width': 411, 'height': 411, 'widthPercent': 0.45, 'rescaleHeight': False, 'trialN': 82, 'loaded': True, 'loadedTime': 4895.700000047684, 'positionName': 'RIGHT', 'positionCoords': [998.4, 334.5], 'bid': 0.08}]",151022.60000014305,1669838649288,froot loops w milk,raisin bran w milk,0.09,0.08,-0.009999999999999995,raisin bran w milk,1181.0,1182,1181.7999999523163,True,i,152717.20000004768,1694.5999999046326,1669838650983,1695,HRV,HRV_0276,2022-11-30 20:07:14
83,"[{'imgObject': {}, 'id': 'eggs', 'src': '/static/foodstim60/eggs.jpg', 'key': 'u', 'origWidth': 409, 'origHeight': 409, 'width': 409, 'height': 409, 'widthPercent': 0.45, 'rescaleHeight': False, 'trialN': 83, 'loaded': True, 'loadedTime': 5090.700000047684, 'positionName': 'LEFT', 'positionCoords': [512.6, 335.5], 'bid': 4.25}, {'imgObject': {}, 'id': 'Grapes', 'src': '/static/foodstim60/Grapes.jpg', 'key': 'i', 'origWidth': 411, 'origHeight': 411, 'width': 411, 'height': 411, 'widthPercent': 0.45, 'rescaleHeight': False, 'trialN': 83, 'loaded': True, 'loadedTime': 3340, 'positionName': 'RIGHT', 'positionCoords': [998.4, 334.5], 'bid': 3.86}]",152717.70000004768,1669838650984,eggs,Grapes,4.25,3.86,-0.3900000000000001,eggs,1133.9000000953674,1134,1134.7999999523163,True,u,154359.40000009537,1641.7000000476837,1669838652625,1641,HRV,HRV_0276,2022-11-30 20:07:14
84,"[{'imgObject': {}, 'id': 'baked potato', 'src': '/static/foodstim60/baked potato.jpg', 'key': 'u', 'origWidth': 409, 'origHeight': 410, 'width': 409, 'height': 410, 'widthPercent': 0.45, 'rescaleHeight': False, 'trialN': 84, 'loaded': True, 'loadedTime': 3828.5, 'positionName': 'LEFT', 'positionCoords': [512.6, 335], 'bid': 0.95}, {'imgObject': {}, 'id': 'roastedpotatoes', 'src': '/static/foodstim60/roastedpotatoes.jpg', 'key': 'i', 'origWidth': 409, 'origHeight': 410, 'width': 409, 'height': 410, 'widthPercent': 0.45, 'rescaleHeight': False, 'trialN': 84, 'loaded': True, 'loadedTime': 4533, 'positionName': 'RIGHT', 'positionCoords': [998.4, 335], 'bid': 0.15}]",154359.90000009537,1669838652626,baked potato,roastedpotatoes,0.95,0.15,-0.7999999999999999,roastedpotatoes,1172.2999999523163,1173,1173.0999999046326,True,i,156041.70000004768,1681.7999999523163,1669838654308,1682,HRV,HRV_0276,2022-11-30 20:07:14
85,"[{'imgObject': {}, 'id': 'grilled chicken strips', 'src': '/static/foodstim60/grilled chicken strips.jpg', 'key': 'u', 'origWidth': 410, 'origHeight': 411, 'width': 410, 'height': 411, 'widthPercent': 0.45, 'rescaleHeight': False, 'trialN': 85, 'loaded': True, 'loadedTime': 4536.900000095367, 'positionName': 'LEFT', 'positionCoords': [511.6, 334.5], 'bid': 4.45}, {'imgObject': {}, 'id': 'eggsalad', 'src': '/static/foodstim60/eggsalad.jpg', 'key': 'i', 'origWidth': 410, 'origHeight': 409, 'width': 410, 'height': 409, 'widthPercent': 0.45, 'rescaleHeight': False, 'trialN': 85, 'loaded': True, 'loadedTime': 4985.100000143051, 'positionName': 'RIGHT', 'positionCoords': [998.4, 335.5], 'bid': 4.42}]",156042.5,1669838654308,grilled chicken strips,eggsalad,4.45,4.42,-0.03000000000000025,eggsalad,993.0,995,994.5,True,i,157539.70000004768,1497.2000000476837,1669838655806,1498,HRV,HRV_0276,2022-11-30 20:07:14
86,"[{'imgObject': {}, 'id': 'hashbrowns', 'src': '/static/foodstim60/hashbrowns.jpg', 'key': 'u', 'origWidth': 411, 'origHeight': 410, 'width': 411, 'height': 410, 'widthPercent': 0.45, 'rescaleHeight': False, 'trialN': 86, 'loaded': True, 'loadedTime': 3756.2999999523163, 'positionName': 'LEFT', 'positionCoords': [510.6, 335], 'bid': 0.2}, {'imgObject': {}, 'id': 'strawberries', 'src': '/static/foodstim60/strawberries.jpg', 'key': 'i', 'origWidth': 410, 'origHeight': 410, 'width': 410, 'height': 410, 'widthPercent': 0.45, 'rescaleHeight': False, 'trialN': 86, 'loaded': True, 'loadedTime': 5090.5, 'positionName': 'RIGHT', 'positionCoords': [998.4, 335], 'bid': 5.9}]",157540.20000004768,1669838655806,hashbrowns,strawberries,0.2,5.9,5.7,strawberries,1079.2999999523163,1080,1080.2999999523163,True,i,159134.5,1594.2999999523163,1669838657400,1594,HRV,HRV_0276,2022-11-30 20:07:14
87,"[{'imgObject': {}, 'id': 'mac & cheese', 'src': '/static/foodstim60/mac & cheese.jpg', 'key': 'u', 'origWidth': 410, 'origHeight': 410, 'width': 410, 'height': 410, 'widthPercent': 0.45, 'rescaleHeight': False, 'trialN': 87, 'loaded': True, 'loadedTime': 5028.5, 'positionName': 'LEFT', 'positionCoords': [511.6, 335], 'bid': 0.13}, {'imgObject': {}, 'id': 'hotdog w must', 'src': '/static/foodstim60/hotdog w must.jpg', 'key': 'i', 'origWidth': 409, 'origHeight': 409, 'width': 409, 'height': 409, 'widthPercent': 0.45, 'rescaleHeight': False, 'trialN': 87, 'loaded': True, 'loadedTime': 4665.600000143051, 'positionName': 'RIGHT', 'positionCoords': [998.4, 335.5], 'bid': 0.12}]",159135.0,1669838657401,mac & cheese,hotdog w must,0.13,0.12,-0.010000000000000009,mac & cheese,1468.6000001430511,1469,1469.4000000953674,True,u,161120.90000009537,1985.9000000953674,1669838659387,1986,HRV,HRV_0276,2022-11-30 20:07:14
88,"[{'imgObject': {}, 'id': 'rigatoni', 'src': '/static/foodstim60/rigatoni.jpg', 'key': 'u', 'origWidth': 411, 'origHeight': 411, 'width': 411, 'height': 411, 'widthPercent': 0.45, 'rescaleHeight': False, 'trialN': 88, 'loaded': True, 'loadedTime': 4320.799999952316, 'positionName': 'LEFT', 'positionCoords': [510.6, 334.5], 'bid': 0.13}, {'imgObject': {}, 'id': 'mashed potato', 'src': '/static/foodstim60/mashed potato.jpg', 'key': 'i', 'origWidth': 409, 'origHeight': 409, 'width': 409, 'height': 409, 'widthPercent': 0.45, 'rescaleHeight': False, 'trialN': 88, 'loaded': True, 'loadedTime': 5133.299999952316, 'positionName': 'RIGHT', 'positionCoords': [998.4, 335.5], 'bid': 0.13}]",161121.40000009537,1669838659387,rigatoni,mashed potato,0.13,0.13,0.0,rigatoni,1690.2000000476837,1691,1691.0,True,u,163324.90000009537,2203.5,1669838661591,2204,HRV,HRV_0276,2022-11-30 20:07:14
89,"[{'imgObject': {}, 'id': 'salad w chicken', 'src': '/static/foodstim60/salad w chicken.jpg', 'key': 'u', 'origWidth': 411, 'origHeight': 411, 'width': 411, 'height': 411, 'widthPercent': 0.45, 'rescaleHeight': False, 'trialN': 89, 'loaded': True, 'loadedTime': 3264.5, 'positionName': 'LEFT', 'positionCoords': [510.6, 334.5], 'bid': 4.34}, {'imgObject': {}, 'id': 'veggieswithdip', 'src': '/static/foodstim60/veggieswithdip.jpg', 'key': 'i', 'origWidth': 409, 'origHeight': 409, 'width': 409, 'height': 409, 'widthPercent': 0.45, 'rescaleHeight': False, 'trialN': 89, 'loaded': True, 'loadedTime': 3107.7999999523163, 'positionName': 'RIGHT', 'positionCoords': [998.4, 335.5], 'bid': 2.61}]",163325.20000004768,1669838661591,salad w chicken,veggieswithdip,4.34,2.61,-1.73,veggieswithdip,1446.4000000953674,1447,1447.2999999523163,True,i,165287.40000009537,1962.2000000476837,1669838663553,1962,HRV,HRV_0276,2022-11-30 20:07:14
90,"[{'imgObject': {}, 'id': 'olives', 'src': '/static/foodstim60/olives.jpg', 'key': 'u', 'origWidth': 410, 'origHeight': 410, 'width': 410, 'height': 410, 'widthPercent': 0.45, 'rescaleHeight': False, 'trialN': 90, 'loaded': True, 'loadedTime': 3062.5, 'positionName': 'LEFT', 'positionCoords': [511.6, 335], 'bid': 0.13}, {'imgObject': {}, 'id': 'hotdog w must', 'src': '/static/foodstim60/hotdog w must.jpg', 'key': 'i', 'origWidth': 409, 'origHeight': 409, 'width': 409, 'height': 409, 'widthPercent': 0.45, 'rescaleHeight': False, 'trialN': 90, 'loaded': True, 'loadedTime': 4663.299999952316, 'positionName': 'RIGHT', 'positionCoords': [998.4, 335.5], 'bid': 0.12}]",169206.0,1669838667472,olives,hotdog w must,0.13,0.12,-0.010000000000000009,olives,1717.6000001430511,1719,1718.7000000476837,True,u,171426.60000014305,2220.600000143051,1669838669692,2220,HRV,HRV_0276,2022-11-30 20:07:14
91,"[{'imgObject': {}, 'id': 'hashbrowns', 'src': '/static/foodstim60/hashbrowns.jpg', 'key': 'u', 'origWidth': 411, 'origHeight': 410, 'width': 411, 'height': 410, 'widthPercent': 0.45, 'rescaleHeight': False, 'trialN': 91, 'loaded': True, 'loadedTime': 3793, 'positionName': 'LEFT', 'positionCoords': [510.6, 335], 'bid': 0.2}, {'imgObject': {}, 'id': 'hotdog w must', 'src': '/static/foodstim60/hotdog w must.jpg', 'key': 'i', 'origWidth': 409, 'origHeight': 409, 'width': 409, 'height': 409, 'widthPercent': 0.45, 'rescaleHeight': False, 'trialN': 91, 'loaded': True, 'loadedTime': 4664.700000047684, 'positionName': 'RIGHT', 'positionCoords': [998.4, 335.5], 'bid': 0.12}]",171427.29999995232,1669838669693,hashbrowns,hotdog w must,0.2,0.12,-0.08000000000000002,hashbrowns,1232.2000000476837,1233,1233.1000001430511,True,u,173162.90000009537,1735.6000001430511,1669838671429,1736,HRV,HRV_0276,2022-11-30 20:07:14
92,"[{'imgObject': {}, 'id': 'mango', 'src': '/static/foodstim60/mango.jpg', 'key': 'u', 'origWidth': 411, 'origHeight': 411, 'width': 411, 'height': 411, 'widthPercent': 0.45, 'rescaleHeight': False, 'trialN': 92, 'loaded': True, 'loadedTime': 5136.299999952316, 'positionName': 'LEFT', 'positionCoords': [510.6, 334.5], 'bid': 0.33}, {'imgObject': {}, 'id': 'baked potato', 'src': '/static/foodstim60/baked potato.jpg', 'key': 'i', 'origWidth': 409, 'origHeight': 410, 'width': 409, 'height': 410, 'widthPercent': 0.45, 'rescaleHeight': False, 'trialN': 92, 'loaded': True, 'loadedTime': 3866, 'positionName': 'RIGHT', 'positionCoords': [998.4, 335], 'bid': 0.95}]",173163.40000009537,1669838671429,mango,baked potato,0.33,0.95,0.6199999999999999,baked potato,1136.0999999046326,1137,1137.0,True,i,174806.90000009537,1643.5,1669838673073,1644,HRV,HRV_0276,2022-11-30 20:07:14
93,"[{'imgObject': {}, 'id': 'blueberries', 'src': '/static/foodstim60/blueberries.jpg', 'key': 'u', 'origWidth': 411, 'origHeight': 411, 'width': 411, 'height': 411, 'widthPercent': 0.45, 'rescaleHeight': False, 'trialN': 93, 'loaded': True, 'loadedTime': 4000, 'positionName': 'LEFT', 'positionCoords': [510.6, 334.5], 'bid': 2.27}, {'imgObject': {}, 'id': 'kiwi', 'src': '/static/foodstim60/kiwi.jpg', 'key': 'i', 'origWidth': 410, 'origHeight': 410, 'width': 410, 'height': 410, 'widthPercent': 0.45, 'rescaleHeight': False, 'trialN': 93, 'loaded': True, 'loadedTime': 4750.5, 'positionName': 'RIGHT', 'positionCoords': [998.4, 335], 'bid': 2.93}]",174807.29999995232,1669838673073,blueberries,kiwi,2.27,2.93,0.6600000000000001,kiwi,1340.2000000476837,1341,1341.2000000476837,True,i,176657.5,1850.2000000476837,1669838674923,1850,HRV,HRV_0276,2022-11-30 20:07:14
94,"[{'imgObject': {}, 'id': 'roastedpotatoes', 'src': '/static/foodstim60/roastedpotatoes.jpg', 'key': 'u', 'origWidth': 409, 'origHeight': 410, 'width': 409, 'height': 410, 'widthPercent': 0.45, 'rescaleHeight': False, 'trialN': 94, 'loaded': True, 'loadedTime': 4534.900000095367, 'positionName': 'LEFT', 'positionCoords': [512.6, 335], 'bid': 0.15}, {'imgObject': {}, 'id': 'cheerios', 'src': '/static/foodstim60/cheerios.jpg', 'key': 'i', 'origWidth': 409, 'origHeight': 410, 'width': 409, 'height': 410, 'widthPercent': 0.45, 'rescaleHeight': False, 'trialN': 94, 'loaded': True, 'loadedTime': 3083.9000000953674, 'positionName': 'RIGHT', 'positionCoords': [998.4, 335], 'bid': 0.21}]",176658.29999995232,1669838674924,roastedpotatoes,cheerios,0.15,0.21,0.06,roastedpotatoes,1457.2000000476837,1458,1458.0,True,u,178626.10000014305,1967.8000001907349,1669838676892,1968,HRV,HRV_0276,2022-11-30 20:07:14
95,"[{'imgObject': {}, 'id': 'luckycharms', 'src': '/static/foodstim60/luckycharms.jpg', 'key': 'u', 'origWidth': 410, 'origHeight': 409, 'width': 410, 'height': 409, 'widthPercent': 0.45, 'rescaleHeight': False, 'trialN': 95, 'loaded': True, 'loadedTime': 3075.4000000953674, 'positionName': 'LEFT', 'positionCoords': [511.6, 335.5], 'bid': 0.13}, {'imgObject': {}, 'id': 'seaweed', 'src': '/static/foodstim60/seaweed.jpg', 'key': 'i', 'origWidth': 410, 'origHeight': 410, 'width': 410, 'height': 410, 'widthPercent': 0.45, 'rescaleHeight': False, 'trialN': 95, 'loaded': True, 'loadedTime': 5034.799999952316, 'positionName': 'RIGHT', 'positionCoords': [998.4, 335], 'bid': 0.04}]",178626.5,1669838676892,luckycharms,seaweed,0.13,0.04,-0.09,luckycharms,1497.6000001430511,1499,1498.5,True,u,180641.70000004768,2015.2000000476837,1669838678908,2016,HRV,HRV_0276,2022-11-30 20:07:14
96,"[{'imgObject': {}, 'id': 'raisin bran w milk', 'src': '/static/foodstim60/raisin bran w milk.jpg', 'key': 'u', 'origWidth': 411, 'origHeight': 411, 'width': 411, 'height': 411, 'widthPercent': 0.45, 'rescaleHeight': False, 'trialN': 96, 'loaded': True, 'loadedTime': 4924.700000047684, 'positionName': 'LEFT', 'positionCoords': [510.6, 334.5], 'bid': 0.08}, {'imgObject': {}, 'id': 'edamame', 'src': '/static/foodstim60/edamame.jpg', 'key': 'i', 'origWidth': 409, 'origHeight': 410, 'width': 409, 'height': 410, 'widthPercent': 0.45, 'rescaleHeight': False, 'trialN': 96, 'loaded': True, 'loadedTime': 3616.9000000953674, 'positionName': 'RIGHT', 'positionCoords': [998.4, 335], 'bid': 0}]",180642.20000004768,1669838678908,raisin bran w milk,edamame,0.08,0.0,-0.08,edamame,1209.2999999523163,1210,1210.2999999523163,True,i,182360.60000014305,1718.4000000953674,1669838680626,1718,HRV,HRV_0276,2022-11-30 20:07:14
97,"[{'imgObject': {}, 'id': 'pear', 'src': '/static/foodstim60/pear.jpg', 'key': 'u', 'origWidth': 411, 'origHeight': 410, 'width': 411, 'height': 410, 'widthPercent': 0.45, 'rescaleHeight': False, 'trialN': 97, 'loaded': True, 'loadedTime': 4894.100000143051, 'positionName': 'LEFT', 'positionCoords': [510.6, 335], 'bid': 3.21}, {'imgObject': {}, 'id': 'salmon', 'src': '/static/foodstim60/salmon.jpg', 'key': 'i', 'origWidth': 410, 'origHeight': 409, 'width': 410, 'height': 409, 'widthPercent': 0.45, 'rescaleHeight': False, 'trialN': 97, 'loaded': True, 'loadedTime': 4252.200000047684, 'positionName': 'RIGHT', 'positionCoords': [998.4, 335.5], 'bid': 4.89}]",182361.10000014305,1669838680627,pear,salmon,3.21,4.89,1.6799999999999997,salmon,1482.5999999046326,1484,1483.5,True,i,184357.20000004768,1996.0999999046326,1669838682623,1996,HRV,HRV_0276,2022-11-30 20:07:14
98,"[{'imgObject': {}, 'id': 'lox', 'src': '/static/foodstim60/lox.jpg', 'key': 'u', 'origWidth': 410, 'origHeight': 411, 'width': 410, 'height': 411, 'widthPercent': 0.45, 'rescaleHeight': False, 'trialN': 98, 'loaded': True, 'loadedTime': 3104.5, 'positionName': 'LEFT', 'positionCoords': [511.6, 334.5], 'bid': 0.13}, {'imgObject': {}, 'id': 'eggs', 'src': '/static/foodstim60/eggs.jpg', 'key': 'i', 'origWidth': 409, 'origHeight': 409, 'width': 409, 'height': 409, 'widthPercent': 0.45, 'rescaleHeight': False, 'trialN': 98, 'loaded': True, 'loadedTime': 5091.900000095367, 'positionName': 'RIGHT', 'positionCoords': [998.4, 335.5], 'bid': 4.25}]",184357.70000004768,1669838682624,lox,eggs,0.13,4.25,4.12,eggs,853.7999999523163,854,854.5999999046326,True,i,185717.60000014305,1359.9000000953674,1669838683983,1359,HRV,HRV_0276,2022-11-30 20:07:14
99,"[{'imgObject': {}, 'id': 'eggsalad', 'src': '/static/foodstim60/eggsalad.jpg', 'key': 'u', 'origWidth': 410, 'origHeight': 409, 'width': 410, 'height': 409, 'widthPercent': 0.45, 'rescaleHeight': False, 'trialN': 99, 'loaded': True, 'loadedTime': 4986.299999952316, 'positionName': 'LEFT', 'positionCoords': [511.6, 335.5], 'bid': 4.42}, {'imgObject': {}, 'id': 'Tribe humus pita', 'src': '/static/foodstim60/Tribe humus pita.jpg', 'key': 'i', 'origWidth': 411, 'origHeight': 411, 'width': 411, 'height': 411, 'widthPercent': 0.45, 'rescaleHeight': False, 'trialN': 99, 'loaded': True, 'loadedTime': 4611.5, 'positionName': 'RIGHT', 'positionCoords': [998.4, 334.5], 'bid': 2.8000000000000003}]",185718.10000014305,1669838683984,eggsalad,Tribe humus pita,4.42,2.8000000000000003,-1.6199999999999997,eggsalad,965.3999998569489,966,966.1999998092651,True,u,187191.5,1473.3999998569489,1669838685457,1473,HRV,HRV_0276,2022-11-30 20:07:14
100,"[{'imgObject': {}, 'id': 'salad w chicken', 'src': '/static/foodstim60/salad w chicken.jpg', 'key': 'u', 'origWidth': 411, 'origHeight': 411, 'width': 411, 'height': 411, 'widthPercent': 0.45, 'rescaleHeight': False, 'trialN': 100, 'loaded': True, 'loadedTime': 3213, 'positionName': 'LEFT', 'positionCoords': [510.6, 334.5], 'bid': 4.34}, {'imgObject': {}, 'id': 'chicken nuggets2', 'src': '/static/foodstim60/chicken nuggets2.jpg', 'key': 'i', 'origWidth': 410, 'origHeight': 409, 'width': 410, 'height': 409, 'widthPercent': 0.45, 'rescaleHeight': False, 'trialN': 100, 'loaded': True, 'loadedTime': 5128.900000095367, 'positionName': 'RIGHT', 'positionCoords': [998.4, 335.5], 'bid': 0.14}]",187192.0,1669838685458,salad w chicken,chicken nuggets2,4.34,0.14,-4.2,salad w chicken,1203.4000000953674,1204,1204.2000000476837,True,u,188903.0,1711.0,1669838687169,1711,HRV,HRV_0276,2022-11-30 20:07:14
101,"[{'imgObject': {}, 'id': 'grilled chicken strips', 'src': '/static/foodstim60/grilled chicken strips.jpg', 'key': 'u', 'origWidth': 410, 'origHeight': 411, 'width': 410, 'height': 411, 'widthPercent': 0.45, 'rescaleHeight': False, 'trialN': 101, 'loaded': True, 'loadedTime': 4540.200000047684, 'positionName': 'LEFT', 'positionCoords': [511.6, 334.5], 'bid': 4.45}, {'imgObject': {}, 'id': 'salad w chicken', 'src': '/static/foodstim60/salad w chicken.jpg', 'key': 'i', 'origWidth': 411, 'origHeight': 411, 'width': 411, 'height': 411, 'widthPercent': 0.45, 'rescaleHeight': False, 'trialN': 101, 'loaded': True, 'loadedTime': 3271, 'positionName': 'RIGHT', 'positionCoords': [998.4, 334.5], 'bid': 4.34}]",188903.70000004768,1669838687169,grilled chicken strips,salad w chicken,4.45,4.34,-0.11000000000000032,grilled chicken strips,1436.4000000953674,1438,1437.2000000476837,True,u,190852.0,1948.2999999523163,1669838689118,1949,HRV,HRV_0276,2022-11-30 20:07:14
102,"[{'imgObject': {}, 'id': 'omelette', 'src': '/static/foodstim60/omelette.jpg', 'key': 'u', 'origWidth': 410, 'origHeight': 409, 'width': 410, 'height': 409, 'widthPercent': 0.45, 'rescaleHeight': False, 'trialN': 102, 'loaded': True, 'loadedTime': 4925.400000095367, 'positionName': 'LEFT', 'positionCoords': [511.6, 335.5], 'bid': 4.53}, {'imgObject': {}, 'id': 'yogurt no spoon', 'src': '/static/foodstim60/yogurt no spoon.jpg', 'key': 'i', 'origWidth': 411, 'origHeight': 410, 'width': 411, 'height': 410, 'widthPercent': 0.45, 'rescaleHeight': False, 'trialN': 102, 'loaded': True, 'loadedTime': 4716, 'positionName': 'RIGHT', 'positionCoords': [998.4, 335], 'bid': 3.04}]",190852.40000009537,1669838689118,omelette,yogurt no spoon,4.53,3.04,-1.4900000000000002,omelette,1119.0,1120,1119.8999998569489,True,u,192475.90000009537,1623.5,1669838690742,1624,HRV,HRV_0276,2022-11-30 20:07:14
103,"[{'imgObject': {}, 'id': 'bagel plain', 'src': '/static/foodstim60/bagel plain.jpg', 'key': 'u', 'origWidth': 410, 'origHeight': 410, 'width': 410, 'height': 410, 'widthPercent': 0.45, 'rescaleHeight': False, 'trialN': 103, 'loaded': True, 'loadedTime': 5037, 'positionName': 'LEFT', 'positionCoords': [511.6, 335], 'bid': 0.15}, {'imgObject': {}, 'id': 'eggsalad', 'src': '/static/foodstim60/eggsalad.jpg', 'key': 'i', 'origWidth': 410, 'origHeight': 409, 'width': 410, 'height': 409, 'widthPercent': 0.45, 'rescaleHeight': False, 'trialN': 103, 'loaded': True, 'loadedTime': 4987.900000095367, 'positionName': 'RIGHT', 'positionCoords': [998.4, 335.5], 'bid': 4.42}]",192476.29999995232,1669838690742,bagel plain,eggsalad,0.15,4.42,4.27,eggsalad,911.2000000476837,912,912.0,True,i,193901.29999995232,1425.0,1669838692167,1425,HRV,HRV_0276,2022-11-30 20:07:14
104,"[{'imgObject': {}, 'id': 'raspberries', 'src': '/static/foodstim60/raspberries.jpg', 'key': 'u', 'origWidth': 411, 'origHeight': 411, 'width': 411, 'height': 411, 'widthPercent': 0.45, 'rescaleHeight': False, 'trialN': 104, 'loaded': True, 'loadedTime': 4794.700000047684, 'positionName': 'LEFT', 'positionCoords': [510.6, 334.5], 'bid': 2.5500000000000003}, {'imgObject': {}, 'id': 'pear', 'src': '/static/foodstim60/pear.jpg', 'key': 'i', 'origWidth': 411, 'origHeight': 410, 'width': 411, 'height': 410, 'widthPercent': 0.45, 'rescaleHeight': False, 'trialN': 104, 'loaded': True, 'loadedTime': 4894, 'positionName': 'RIGHT', 'positionCoords': [998.4, 335], 'bid': 3.21}]",193902.0,1669838692168,raspberries,pear,2.5500000000000003,3.21,0.6599999999999997,pear,869.4000000953674,870,870.2999999523163,True,i,195277.60000014305,1375.6000001430511,1669838693543,1375,HRV,HRV_0276,2022-11-30 20:07:14
105,"[{'imgObject': {}, 'id': 'apple slices', 'src': '/static/foodstim60/apple slices.jpg', 'key': 'u', 'origWidth': 409, 'origHeight': 410, 'width': 409, 'height': 410, 'widthPercent': 0.45, 'rescaleHeight': False, 'trialN': 105, 'loaded': True, 'loadedTime': 3149.7999999523163, 'positionName': 'LEFT', 'positionCoords': [512.6, 335], 'bid': 1.88}, {'imgObject': {}, 'id': 'tacos', 'src': '/static/foodstim60/tacos.jpg', 'key': 'i', 'origWidth': 411, 'origHeight': 411, 'width': 411, 'height': 411, 'widthPercent': 0.45, 'rescaleHeight': False, 'trialN': 105, 'loaded': True, 'loadedTime': 3653.4000000953674, 'positionName': 'RIGHT', 'positionCoords': [998.4, 334.5], 'bid': 0.11}]",195278.10000014305,1669838693544,apple slices,tacos,1.88,0.11,-1.7699999999999998,apple slices,1117.3999998569489,1118,1118.2999999523163,True,u,196911.70000004768,1633.5999999046326,1669838695177,1633,HRV,HRV_0276,2022-11-30 20:07:14
106,"[{'imgObject': {}, 'id': 'cherry tomato', 'src': '/static/foodstim60/cherry tomato.jpg', 'key': 'u', 'origWidth': 410, 'origHeight': 410, 'width': 410, 'height': 410, 'widthPercent': 0.45, 'rescaleHeight': False, 'trialN': 106, 'loaded': True, 'loadedTime': 3957.7000000476837, 'positionName': 'LEFT', 'positionCoords': [511.6, 335], 'bid': 0.13}, {'imgObject': {}, 'id': 'froot loops w milk', 'src': '/static/foodstim60/froot loops w milk.jpg', 'key': 'i', 'origWidth': 410, 'origHeight': 410, 'width': 410, 'height': 410, 'widthPercent': 0.45, 'rescaleHeight': False, 'trialN': 106, 'loaded': True, 'loadedTime': 5031.700000047684, 'positionName': 'RIGHT', 'positionCoords': [998.4, 335], 'bid': 0.09}]",196912.20000004768,1669838695178,cherry tomato,froot loops w milk,0.13,0.09,-0.04000000000000001,froot loops w milk,1147.2000000476837,1148,1148.2000000476837,True,i,198563.60000014305,1651.4000000953674,1669838696829,1651,HRV,HRV_0276,2022-11-30 20:07:14
107,"[{'imgObject': {}, 'id': 'shreddedwheatwithmilk', 'src': '/static/foodstim60/shreddedwheatwithmilk.jpg', 'key': 'u', 'origWidth': 410, 'origHeight': 410, 'width': 410, 'height': 410, 'widthPercent': 0.45, 'rescaleHeight': False, 'trialN': 107, 'loaded': True, 'loadedTime': 3899.600000143051, 'positionName': 'LEFT', 'positionCoords': [511.6, 335], 'bid': 0.12}, {'imgObject': {}, 'id': 'sweetpotato', 'src': '/static/foodstim60/sweetpotato.jpg', 'key': 'i', 'origWidth': 410, 'origHeight': 410, 'width': 410, 'height': 410, 'widthPercent': 0.45, 'rescaleHeight': False, 'trialN': 107, 'loaded': True, 'loadedTime': 4356.400000095367, 'positionName': 'RIGHT', 'positionCoords': [998.4, 335], 'bid': 2.56}]",198564.10000014305,1669838696830,shreddedwheatwithmilk,sweetpotato,0.12,2.56,2.44,sweetpotato,1239.3999998569489,1240,1240.2999999523163,True,i,200313.70000004768,1749.5999999046326,1669838698580,1750,HRV,HRV_0276,2022-11-30 20:07:14
108,"[{'imgObject': {}, 'id': 'mango', 'src': '/static/foodstim60/mango.jpg', 'key': 'u', 'origWidth': 411, 'origHeight': 411, 'width': 411, 'height': 411, 'widthPercent': 0.45, 'rescaleHeight': False, 'trialN': 108, 'loaded': True, 'loadedTime': 5133.700000047684, 'positionName': 'LEFT', 'positionCoords': [510.6, 334.5], 'bid': 0.33}, {'imgObject': {}, 'id': 'turkey sandwich', 'src': '/static/foodstim60/turkey sandwich.jpg', 'key': 'i', 'origWidth': 409, 'origHeight': 409, 'width': 409, 'height': 409, 'widthPercent': 0.45, 'rescaleHeight': False, 'trialN': 108, 'loaded': True, 'loadedTime': 4408.799999952316, 'positionName': 'RIGHT', 'positionCoords': [998.4, 335.5], 'bid': 3.6}]",200313.90000009537,1669838698580,mango,turkey sandwich,0.33,3.6,3.27,turkey sandwich,1274.0999999046326,1286,1275.0,True,i,202096.0,1782.0999999046326,1669838700373,1793,HRV,HRV_0276,2022-11-30 20:07:14
