trialN,stimuli,question,trialStartTime,trialStartTime_UNIX,stimulus1,rt,receivedResponse,rating,trialEndTime,trialDuration,stimulus1Loaded,exp,subjectId,date
0,"[{'imgObject': {}, 'id': 'cherries', 'src': '/static/foodstim60/cherries.jpg', 'key': 'NaN', 'origWidth': 410, 'origHeight': 411, 'width': 410, 'height': 411, 'widthPercent': 0.8, 'rescaleHeight': True, 'trialN': 0, 'loaded': True, 'loadedTime': 2602.199999809265, 'positionName': 'CENTER', 'positionCoords': [563, 306.5]}]",Rate how much you want to eat this food from 0 (least) to 10 (most).,3527.2999999523163,1669833507373,cherries,2717.0999999046326,True,9.8,6244.399999856949,2717.0999999046326,True,HRV,HRV_0222,2022-11-30 18:41:18
1,"[{'imgObject': {}, 'id': 'turkeysandwich', 'src': '/static/foodstim60/turkeysandwich.jpg', 'key': 'NaN', 'origWidth': 409, 'origHeight': 409, 'width': 409, 'height': 409, 'widthPercent': 0.8, 'rescaleHeight': True, 'trialN': 1, 'loaded': True, 'loadedTime': 2596.699999809265, 'positionName': 'CENTER', 'positionCoords': [563.5, 307.5]}]",Rate how much you want to eat this food from 0 (least) to 10 (most).,6250.099999904633,1669833510096,turkeysandwich,2394.4000000953674,True,0.62,8644.5,2394.4000000953674,True,HRV,HRV_0222,2022-11-30 18:41:18
2,"[{'imgObject': {}, 'id': 'rigatoni', 'src': '/static/foodstim60/rigatoni.jpg', 'key': 'NaN', 'origWidth': 411, 'origHeight': 411, 'width': 411, 'height': 411, 'widthPercent': 0.8, 'rescaleHeight': True, 'trialN': 2, 'loaded': True, 'loadedTime': 2753.5999999046326, 'positionName': 'CENTER', 'positionCoords': [562.5, 306.5]}]",Rate how much you want to eat this food from 0 (least) to 10 (most).,8647.0,1669833512493,rigatoni,1355.8999998569489,True,0.27,10002.899999856949,1355.8999998569489,True,HRV,HRV_0222,2022-11-30 18:41:18
3,"[{'imgObject': {}, 'id': 'shreddedwheatwithmilk', 'src': '/static/foodstim60/shreddedwheatwithmilk.jpg', 'key': 'NaN', 'origWidth': 410, 'origHeight': 410, 'width': 410, 'height': 410, 'widthPercent': 0.8, 'rescaleHeight': True, 'trialN': 3, 'loaded': True, 'loadedTime': 2756.5999999046326, 'positionName': 'CENTER', 'positionCoords': [563, 307]}]",Rate how much you want to eat this food from 0 (least) to 10 (most).,10006.0,1669833513852,shreddedwheatwithmilk,2159.199999809265,True,2.07,12165.199999809265,2159.199999809265,True,HRV,HRV_0222,2022-11-30 18:41:18
4,"[{'imgObject': {}, 'id': 'sushi w_condiments', 'src': '/static/foodstim60/sushi w_condiments.jpg', 'key': 'NaN', 'origWidth': 410, 'origHeight': 410, 'width': 410, 'height': 410, 'widthPercent': 0.8, 'rescaleHeight': True, 'trialN': 4, 'loaded': True, 'loadedTime': 2767.7999999523163, 'positionName': 'CENTER', 'positionCoords': [563, 307]}]",Rate how much you want to eat this food from 0 (least) to 10 (most).,12167.0,1669833516013,sushi w_condiments,2728.199999809265,True,5.63,14895.199999809265,2728.199999809265,True,HRV,HRV_0222,2022-11-30 18:41:18
5,"[{'imgObject': {}, 'id': 'luckycharms', 'src': '/static/foodstim60/luckycharms.jpg', 'key': 'NaN', 'origWidth': 410, 'origHeight': 409, 'width': 410, 'height': 409, 'widthPercent': 0.8, 'rescaleHeight': True, 'trialN': 5, 'loaded': True, 'loadedTime': 2763.5, 'positionName': 'CENTER', 'positionCoords': [563, 307.5]}]",Rate how much you want to eat this food from 0 (least) to 10 (most).,14897.399999856949,1669833518743,luckycharms,3075.4000000953674,True,0.41000000000000003,17972.799999952316,3075.4000000953674,True,HRV,HRV_0222,2022-11-30 18:41:18
6,"[{'imgObject': {}, 'id': 'sweetpotato', 'src': '/static/foodstim60/sweetpotato.jpg', 'key': 'NaN', 'origWidth': 410, 'origHeight': 410, 'width': 410, 'height': 410, 'widthPercent': 0.8, 'rescaleHeight': True, 'trialN': 6, 'loaded': True, 'loadedTime': 2664.5, 'positionName': 'CENTER', 'positionCoords': [563, 307]}]",Rate how much you want to eat this food from 0 (least) to 10 (most).,17974.799999952316,1669833521821,sweetpotato,2516.0,True,2.23,20490.799999952316,2516.0,True,HRV,HRV_0222,2022-11-30 18:41:18
7,"[{'imgObject': {}, 'id': 'salmon', 'src': '/static/foodstim60/salmon.jpg', 'key': 'NaN', 'origWidth': 410, 'origHeight': 409, 'width': 410, 'height': 409, 'widthPercent': 0.8, 'rescaleHeight': True, 'trialN': 7, 'loaded': True, 'loadedTime': 2668, 'positionName': 'CENTER', 'positionCoords': [563, 307.5]}]",Rate how much you want to eat this food from 0 (least) to 10 (most).,20492.699999809265,1669833524339,salmon,1994.2000000476837,True,0.05,22486.89999985695,1994.2000000476837,True,HRV,HRV_0222,2022-11-30 18:41:18
8,"[{'imgObject': {}, 'id': 'olives', 'src': '/static/foodstim60/olives.jpg', 'key': 'NaN', 'origWidth': 410, 'origHeight': 410, 'width': 410, 'height': 410, 'widthPercent': 0.8, 'rescaleHeight': True, 'trialN': 8, 'loaded': True, 'loadedTime': 2824.5999999046326, 'positionName': 'CENTER', 'positionCoords': [563, 307]}]",Rate how much you want to eat this food from 0 (least) to 10 (most).,22488.39999985695,1669833526335,olives,1402.2999999523163,True,0.01,23890.699999809265,1402.2999999523163,True,HRV,HRV_0222,2022-11-30 18:41:18
9,"[{'imgObject': {}, 'id': 'apple slices', 'src': '/static/foodstim60/apple slices.jpg', 'key': 'NaN', 'origWidth': 409, 'origHeight': 410, 'width': 409, 'height': 410, 'widthPercent': 0.8, 'rescaleHeight': True, 'trialN': 9, 'loaded': True, 'loadedTime': 2827, 'positionName': 'CENTER', 'positionCoords': [563.5, 307]}]",Rate how much you want to eat this food from 0 (least) to 10 (most).,23892.5,1669833527739,apple slices,2144.2999999523163,True,4.98,26036.799999952316,2144.2999999523163,True,HRV,HRV_0222,2022-11-30 18:41:18
10,"[{'imgObject': {}, 'id': 'cocktailshrimp', 'src': '/static/foodstim60/cocktailshrimp.jpg', 'key': 'NaN', 'origWidth': 410, 'origHeight': 410, 'width': 410, 'height': 410, 'widthPercent': 0.8, 'rescaleHeight': True, 'trialN': 10, 'loaded': True, 'loadedTime': 2855.399999856949, 'positionName': 'CENTER', 'positionCoords': [563, 307]}]",Rate how much you want to eat this food from 0 (least) to 10 (most).,26038.699999809265,1669833529885,cocktailshrimp,2390.4000000953674,True,5.07,28429.099999904633,2390.4000000953674,True,HRV,HRV_0222,2022-11-30 18:41:18
11,"[{'imgObject': {}, 'id': 'hashbrowns', 'src': '/static/foodstim60/hashbrowns.jpg', 'key': 'NaN', 'origWidth': 411, 'origHeight': 410, 'width': 411, 'height': 410, 'widthPercent': 0.8, 'rescaleHeight': True, 'trialN': 11, 'loaded': True, 'loadedTime': 2858.899999856949, 'positionName': 'CENTER', 'positionCoords': [562.5, 307]}]",Rate how much you want to eat this food from 0 (least) to 10 (most).,28431.199999809265,1669833532277,hashbrowns,2681.4000000953674,True,2.91,31112.599999904633,2681.4000000953674,True,HRV,HRV_0222,2022-11-30 18:41:18
12,"[{'imgObject': {}, 'id': 'rigatoni and sauce', 'src': '/static/foodstim60/rigatoni and sauce.jpg', 'key': 'NaN', 'origWidth': 410, 'origHeight': 411, 'width': 410, 'height': 411, 'widthPercent': 0.8, 'rescaleHeight': True, 'trialN': 12, 'loaded': True, 'loadedTime': 2872.899999856949, 'positionName': 'CENTER', 'positionCoords': [563, 306.5]}]",Rate how much you want to eat this food from 0 (least) to 10 (most).,31114.699999809265,1669833534960,rigatoni and sauce,2640.5,True,2.0300000000000002,33755.199999809265,2640.5,True,HRV,HRV_0222,2022-11-30 18:41:18
13,"[{'imgObject': {}, 'id': 'raisin bran w milk', 'src': '/static/foodstim60/raisin bran w milk.jpg', 'key': 'NaN', 'origWidth': 411, 'origHeight': 411, 'width': 411, 'height': 411, 'widthPercent': 0.8, 'rescaleHeight': True, 'trialN': 13, 'loaded': True, 'loadedTime': 2886, 'positionName': 'CENTER', 'positionCoords': [562.5, 306.5]}]",Rate how much you want to eat this food from 0 (least) to 10 (most).,33757.5,1669833537603,raisin bran w milk,2357.0,True,5.0,36114.5,2357.0,True,HRV,HRV_0222,2022-11-30 18:41:18
14,"[{'imgObject': {}, 'id': 'blackbeanswithrice', 'src': '/static/foodstim60/blackbeanswithrice.jpg', 'key': 'NaN', 'origWidth': 410, 'origHeight': 410, 'width': 410, 'height': 410, 'widthPercent': 0.8, 'rescaleHeight': True, 'trialN': 14, 'loaded': True, 'loadedTime': 2877.2999999523163, 'positionName': 'CENTER', 'positionCoords': [563, 307]}]",Rate how much you want to eat this food from 0 (least) to 10 (most).,36116.89999985695,1669833539962,blackbeanswithrice,2097.7000000476837,True,4.21,38214.59999990463,2097.7000000476837,True,HRV,HRV_0222,2022-11-30 18:41:18
15,"[{'imgObject': {}, 'id': 'turkey sandwich', 'src': '/static/foodstim60/turkey sandwich.jpg', 'key': 'NaN', 'origWidth': 409, 'origHeight': 409, 'width': 409, 'height': 409, 'widthPercent': 0.8, 'rescaleHeight': True, 'trialN': 15, 'loaded': True, 'loadedTime': 2892.5999999046326, 'positionName': 'CENTER', 'positionCoords': [563.5, 307.5]}]",Rate how much you want to eat this food from 0 (least) to 10 (most).,38217.09999990463,1669833542063,turkey sandwich,2601.7000000476837,True,0.74,40818.799999952316,2601.7000000476837,True,HRV,HRV_0222,2022-11-30 18:41:18
16,"[{'imgObject': {}, 'id': 'pear', 'src': '/static/foodstim60/pear.jpg', 'key': 'NaN', 'origWidth': 411, 'origHeight': 410, 'width': 411, 'height': 410, 'widthPercent': 0.8, 'rescaleHeight': True, 'trialN': 16, 'loaded': True, 'loadedTime': 2895.899999856949, 'positionName': 'CENTER', 'positionCoords': [562.5, 307]}]",Rate how much you want to eat this food from 0 (least) to 10 (most).,40821.09999990463,1669833544666,pear,3903.7999999523163,True,0.22,44724.89999985695,3903.7999999523163,True,HRV,HRV_0222,2022-11-30 18:41:18
17,"[{'imgObject': {}, 'id': 'chicken nuggets2', 'src': '/static/foodstim60/chicken nuggets2.jpg', 'key': 'NaN', 'origWidth': 410, 'origHeight': 409, 'width': 410, 'height': 409, 'widthPercent': 0.8, 'rescaleHeight': True, 'trialN': 17, 'loaded': True, 'loadedTime': 2916.5999999046326, 'positionName': 'CENTER', 'positionCoords': [563, 307.5]}]",Rate how much you want to eat this food from 0 (least) to 10 (most).,44726.89999985695,1669833548572,chicken nuggets2,2286.2999999523163,True,1.01,47013.199999809265,2286.2999999523163,True,HRV,HRV_0222,2022-11-30 18:41:18
18,"[{'imgObject': {}, 'id': 'mac & cheese', 'src': '/static/foodstim60/mac & cheese.jpg', 'key': 'NaN', 'origWidth': 410, 'origHeight': 410, 'width': 410, 'height': 410, 'widthPercent': 0.8, 'rescaleHeight': True, 'trialN': 18, 'loaded': True, 'loadedTime': 2928.899999856949, 'positionName': 'CENTER', 'positionCoords': [563, 307]}]",Rate how much you want to eat this food from 0 (least) to 10 (most).,47015.199999809265,1669833550861,mac & cheese,1457.7000000476837,True,1.92,48472.89999985695,1457.7000000476837,True,HRV,HRV_0222,2022-11-30 18:41:18
19,"[{'imgObject': {}, 'id': 'grilled chicken strips', 'src': '/static/foodstim60/grilled chicken strips.jpg', 'key': 'NaN', 'origWidth': 410, 'origHeight': 411, 'width': 410, 'height': 411, 'widthPercent': 0.8, 'rescaleHeight': True, 'trialN': 19, 'loaded': True, 'loadedTime': 2954.899999856949, 'positionName': 'CENTER', 'positionCoords': [563, 306.5]}]",Rate how much you want to eat this food from 0 (least) to 10 (most).,48475.39999985695,1669833552321,grilled chicken strips,2521.5,True,3.61,50996.89999985695,2521.5,True,HRV,HRV_0222,2022-11-30 18:41:18
20,"[{'imgObject': {}, 'id': 'edamame', 'src': '/static/foodstim60/edamame.jpg', 'key': 'NaN', 'origWidth': 409, 'origHeight': 410, 'width': 409, 'height': 410, 'widthPercent': 0.8, 'rescaleHeight': True, 'trialN': 20, 'loaded': True, 'loadedTime': 2991.899999856949, 'positionName': 'CENTER', 'positionCoords': [563.5, 307]}]",Rate how much you want to eat this food from 0 (least) to 10 (most).,50999.09999990463,1669833554845,edamame,4171.700000047684,True,8.07,55170.799999952316,4171.700000047684,True,HRV,HRV_0222,2022-11-30 18:41:18
21,"[{'imgObject': {}, 'id': 'granola w milk', 'src': '/static/foodstim60/granola w milk.jpg', 'key': 'NaN', 'origWidth': 410, 'origHeight': 410, 'width': 410, 'height': 410, 'widthPercent': 0.8, 'rescaleHeight': True, 'trialN': 21, 'loaded': True, 'loadedTime': 2979.2999999523163, 'positionName': 'CENTER', 'positionCoords': [563, 307]}]",Rate how much you want to eat this food from 0 (least) to 10 (most).,55173.699999809265,1669833559019,granola w milk,2293.5,True,0.36,57467.199999809265,2293.5,True,HRV,HRV_0222,2022-11-30 18:41:18
22,"[{'imgObject': {}, 'id': 'cantaloupe', 'src': '/static/foodstim60/cantaloupe.jpg', 'key': 'NaN', 'origWidth': 409, 'origHeight': 409, 'width': 409, 'height': 409, 'widthPercent': 0.8, 'rescaleHeight': True, 'trialN': 22, 'loaded': True, 'loadedTime': 2947.2999999523163, 'positionName': 'CENTER', 'positionCoords': [563.5, 307.5]}]",Rate how much you want to eat this food from 0 (least) to 10 (most).,57470.0,1669833561315,cantaloupe,2144.7999999523163,True,0.1,59614.799999952316,2144.7999999523163,True,HRV,HRV_0222,2022-11-30 18:41:18
23,"[{'imgObject': {}, 'id': 'cherry tomato', 'src': '/static/foodstim60/cherry tomato.jpg', 'key': 'NaN', 'origWidth': 410, 'origHeight': 410, 'width': 410, 'height': 410, 'widthPercent': 0.8, 'rescaleHeight': True, 'trialN': 23, 'loaded': True, 'loadedTime': 2987.699999809265, 'positionName': 'CENTER', 'positionCoords': [563, 307]}]",Rate how much you want to eat this food from 0 (least) to 10 (most).,59616.39999985695,1669833563462,cherry tomato,1569.2000000476837,True,0.09,61185.59999990463,1569.2000000476837,True,HRV,HRV_0222,2022-11-30 18:41:18
24,"[{'imgObject': {}, 'id': 'mashed potato', 'src': '/static/foodstim60/mashed potato.jpg', 'key': 'NaN', 'origWidth': 409, 'origHeight': 409, 'width': 409, 'height': 409, 'widthPercent': 0.8, 'rescaleHeight': True, 'trialN': 24, 'loaded': True, 'loadedTime': 2998.5, 'positionName': 'CENTER', 'positionCoords': [563.5, 307.5]}]",Rate how much you want to eat this food from 0 (least) to 10 (most).,61187.59999990463,1669833565033,mashed potato,2743.2000000476837,True,5.71,63930.799999952316,2743.2000000476837,True,HRV,HRV_0222,2022-11-30 18:41:18
25,"[{'imgObject': {}, 'id': 'bagel plain', 'src': '/static/foodstim60/bagel plain.jpg', 'key': 'NaN', 'origWidth': 410, 'origHeight': 410, 'width': 410, 'height': 410, 'widthPercent': 0.8, 'rescaleHeight': True, 'trialN': 25, 'loaded': True, 'loadedTime': 3022.399999856949, 'positionName': 'CENTER', 'positionCoords': [563, 307]}]",Rate how much you want to eat this food from 0 (least) to 10 (most).,63932.5,1669833567778,bagel plain,1954.5999999046326,True,2.66,65887.09999990463,1954.5999999046326,True,HRV,HRV_0222,2022-11-30 18:41:18
26,"[{'imgObject': {}, 'id': 'ice cream sundae 002', 'src': '/static/foodstim60/ice cream sundae 002.jpg', 'key': 'NaN', 'origWidth': 409, 'origHeight': 409, 'width': 409, 'height': 409, 'widthPercent': 0.8, 'rescaleHeight': True, 'trialN': 26, 'loaded': True, 'loadedTime': 3024.899999856949, 'positionName': 'CENTER', 'positionCoords': [563.5, 307.5]}]",Rate how much you want to eat this food from 0 (least) to 10 (most).,65889.09999990463,1669833569734,ice cream sundae 002,2650.0999999046326,True,4.29,68539.19999980927,2650.0999999046326,True,HRV,HRV_0222,2022-11-30 18:41:18
27,"[{'imgObject': {}, 'id': 'chickenfingers', 'src': '/static/foodstim60/chickenfingers.jpg', 'key': 'NaN', 'origWidth': 410, 'origHeight': 410, 'width': 410, 'height': 410, 'widthPercent': 0.8, 'rescaleHeight': True, 'trialN': 27, 'loaded': True, 'loadedTime': 3030.5999999046326, 'positionName': 'CENTER', 'positionCoords': [563, 307]}]",Rate how much you want to eat this food from 0 (least) to 10 (most).,68541.29999995232,1669833572387,chickenfingers,2237.5999999046326,True,8.25,70778.89999985695,2237.5999999046326,True,HRV,HRV_0222,2022-11-30 18:41:18
28,"[{'imgObject': {}, 'id': 'salad w chicken', 'src': '/static/foodstim60/salad w chicken.jpg', 'key': 'NaN', 'origWidth': 411, 'origHeight': 411, 'width': 411, 'height': 411, 'widthPercent': 0.8, 'rescaleHeight': True, 'trialN': 28, 'loaded': True, 'loadedTime': 3036.2999999523163, 'positionName': 'CENTER', 'positionCoords': [562.5, 306.5]}]",Rate how much you want to eat this food from 0 (least) to 10 (most).,70780.59999990463,1669833574626,salad w chicken,3376.2000000476837,True,5.82,74156.79999995232,3376.2000000476837,True,HRV,HRV_0222,2022-11-30 18:41:18
29,"[{'imgObject': {}, 'id': 'blueberries', 'src': '/static/foodstim60/blueberries.jpg', 'key': 'NaN', 'origWidth': 411, 'origHeight': 411, 'width': 411, 'height': 411, 'widthPercent': 0.8, 'rescaleHeight': True, 'trialN': 29, 'loaded': True, 'loadedTime': 3086.7999999523163, 'positionName': 'CENTER', 'positionCoords': [562.5, 306.5]}]",Rate how much you want to eat this food from 0 (least) to 10 (most).,74158.79999995232,1669833578004,blueberries,2736.0999999046326,True,5.13,76894.89999985695,2736.0999999046326,True,HRV,HRV_0222,2022-11-30 18:41:18
30,"[{'imgObject': {}, 'id': 'lox', 'src': '/static/foodstim60/lox.jpg', 'key': 'NaN', 'origWidth': 410, 'origHeight': 411, 'width': 410, 'height': 411, 'widthPercent': 0.8, 'rescaleHeight': True, 'trialN': 30, 'loaded': True, 'loadedTime': 3105.199999809265, 'positionName': 'CENTER', 'positionCoords': [563, 306.5]}]",Rate how much you want to eat this food from 0 (least) to 10 (most).,76896.79999995232,1669833580742,lox,1898.2999999523163,True,0.0,78795.09999990463,1898.2999999523163,True,HRV,HRV_0222,2022-11-30 18:41:18
31,"[{'imgObject': {}, 'id': 'Grapes', 'src': '/static/foodstim60/Grapes.jpg', 'key': 'NaN', 'origWidth': 411, 'origHeight': 411, 'width': 411, 'height': 411, 'widthPercent': 0.8, 'rescaleHeight': True, 'trialN': 31, 'loaded': True, 'loadedTime': 3110.199999809265, 'positionName': 'CENTER', 'positionCoords': [562.5, 306.5]}]",Rate how much you want to eat this food from 0 (least) to 10 (most).,78797.0,1669833582642,Grapes,1916.1999998092651,True,7.23,80713.19999980927,1916.1999998092651,True,HRV,HRV_0222,2022-11-30 18:41:18
32,"[{'imgObject': {}, 'id': 'roastedpotatoes', 'src': '/static/foodstim60/roastedpotatoes.jpg', 'key': 'NaN', 'origWidth': 409, 'origHeight': 410, 'width': 409, 'height': 410, 'widthPercent': 0.8, 'rescaleHeight': True, 'trialN': 32, 'loaded': True, 'loadedTime': 3119.0999999046326, 'positionName': 'CENTER', 'positionCoords': [563.5, 307]}]",Rate how much you want to eat this food from 0 (least) to 10 (most).,80715.19999980927,1669833584561,roastedpotatoes,3729.7000000476837,True,6.75,84444.89999985695,3729.7000000476837,True,HRV,HRV_0222,2022-11-30 18:41:18
33,"[{'imgObject': {}, 'id': 'veggieswithdip', 'src': '/static/foodstim60/veggieswithdip.jpg', 'key': 'NaN', 'origWidth': 409, 'origHeight': 409, 'width': 409, 'height': 409, 'widthPercent': 0.8, 'rescaleHeight': True, 'trialN': 33, 'loaded': True, 'loadedTime': 3137.899999856949, 'positionName': 'CENTER', 'positionCoords': [563.5, 307.5]}]",Rate how much you want to eat this food from 0 (least) to 10 (most).,84447.0,1669833588292,veggieswithdip,13064.399999856949,True,5.93,97511.39999985695,13064.399999856949,True,HRV,HRV_0222,2022-11-30 18:41:18
34,"[{'imgObject': {}, 'id': 'omelette', 'src': '/static/foodstim60/omelette.jpg', 'key': 'NaN', 'origWidth': 410, 'origHeight': 409, 'width': 410, 'height': 409, 'widthPercent': 0.8, 'rescaleHeight': True, 'trialN': 34, 'loaded': True, 'loadedTime': 3161, 'positionName': 'CENTER', 'positionCoords': [563, 307.5]}]",Rate how much you want to eat this food from 0 (least) to 10 (most).,97514.0,1669833601359,omelette,12732.699999809265,True,2.08,110246.69999980927,12732.699999809265,True,HRV,HRV_0222,2022-11-30 18:41:18
35,"[{'imgObject': {}, 'id': 'eggsalad', 'src': '/static/foodstim60/eggsalad.jpg', 'key': 'NaN', 'origWidth': 410, 'origHeight': 409, 'width': 410, 'height': 409, 'widthPercent': 0.8, 'rescaleHeight': True, 'trialN': 35, 'loaded': True, 'loadedTime': 3157.199999809265, 'positionName': 'CENTER', 'positionCoords': [563, 307.5]}]",Rate how much you want to eat this food from 0 (least) to 10 (most).,110249.69999980927,1669833614095,eggsalad,2237.300000190735,True,7.07,112487.0,2237.300000190735,True,HRV,HRV_0222,2022-11-30 18:41:18
36,"[{'imgObject': {}, 'id': 'seaweed', 'src': '/static/foodstim60/seaweed.jpg', 'key': 'NaN', 'origWidth': 410, 'origHeight': 410, 'width': 410, 'height': 410, 'widthPercent': 0.8, 'rescaleHeight': True, 'trialN': 36, 'loaded': True, 'loadedTime': 3170.5, 'positionName': 'CENTER', 'positionCoords': [563, 307]}]",Rate how much you want to eat this food from 0 (least) to 10 (most).,112489.29999995232,1669833616334,seaweed,8439.599999904633,True,0.01,120928.89999985695,8439.599999904633,True,HRV,HRV_0222,2022-11-30 18:41:18
37,"[{'imgObject': {}, 'id': 'fried eggs', 'src': '/static/foodstim60/fried eggs.jpg', 'key': 'NaN', 'origWidth': 410, 'origHeight': 410, 'width': 410, 'height': 410, 'widthPercent': 0.8, 'rescaleHeight': True, 'trialN': 37, 'loaded': True, 'loadedTime': 3184.5, 'positionName': 'CENTER', 'positionCoords': [563, 307]}]",Rate how much you want to eat this food from 0 (least) to 10 (most).,120931.09999990463,1669833624776,fried eggs,1805.5999999046326,True,6.74,122736.69999980927,1805.5999999046326,True,HRV,HRV_0222,2022-11-30 18:41:18
38,"[{'imgObject': {}, 'id': 'Tribe humus pita', 'src': '/static/foodstim60/Tribe humus pita.jpg', 'key': 'NaN', 'origWidth': 411, 'origHeight': 411, 'width': 411, 'height': 411, 'widthPercent': 0.8, 'rescaleHeight': True, 'trialN': 38, 'loaded': True, 'loadedTime': 3222.5999999046326, 'positionName': 'CENTER', 'positionCoords': [562.5, 306.5]}]",Rate how much you want to eat this food from 0 (least) to 10 (most).,122738.5,1669833626583,Tribe humus pita,2342.699999809265,True,7.13,125081.19999980927,2342.699999809265,True,HRV,HRV_0222,2022-11-30 18:41:18
39,"[{'imgObject': {}, 'id': 'raspberries', 'src': '/static/foodstim60/raspberries.jpg', 'key': 'NaN', 'origWidth': 411, 'origHeight': 411, 'width': 411, 'height': 411, 'widthPercent': 0.8, 'rescaleHeight': True, 'trialN': 39, 'loaded': True, 'loadedTime': 3253.199999809265, 'positionName': 'CENTER', 'positionCoords': [562.5, 306.5]}]",Rate how much you want to eat this food from 0 (least) to 10 (most).,125083.19999980927,1669833628928,raspberries,2023.7000000476837,True,9.1,127106.89999985695,2023.7000000476837,True,HRV,HRV_0222,2022-11-30 18:41:18
40,"[{'imgObject': {}, 'id': 'strawberries', 'src': '/static/foodstim60/strawberries.jpg', 'key': 'NaN', 'origWidth': 410, 'origHeight': 410, 'width': 410, 'height': 410, 'widthPercent': 0.8, 'rescaleHeight': True, 'trialN': 40, 'loaded': True, 'loadedTime': 3277.699999809265, 'positionName': 'CENTER', 'positionCoords': [563, 307]}]",Rate how much you want to eat this food from 0 (least) to 10 (most).,127108.59999990463,1669833630954,strawberries,1584.2999999523163,True,9.94,128692.89999985695,1584.2999999523163,True,HRV,HRV_0222,2022-11-30 18:41:18
41,"[{'imgObject': {}, 'id': 'bagel and cc', 'src': '/static/foodstim60/bagel and cc.jpg', 'key': 'NaN', 'origWidth': 410, 'origHeight': 410, 'width': 410, 'height': 410, 'widthPercent': 0.8, 'rescaleHeight': True, 'trialN': 41, 'loaded': True, 'loadedTime': 3256.0999999046326, 'positionName': 'CENTER', 'positionCoords': [563, 307]}]",Rate how much you want to eat this food from 0 (least) to 10 (most).,128695.0,1669833632540,bagel and cc,3274.0,True,6.3100000000000005,131969.0,3274.0,True,HRV,HRV_0222,2022-11-30 18:41:18
42,"[{'imgObject': {}, 'id': 'orange slices', 'src': '/static/foodstim60/orange slices.jpg', 'key': 'NaN', 'origWidth': 409, 'origHeight': 410, 'width': 409, 'height': 410, 'widthPercent': 0.8, 'rescaleHeight': True, 'trialN': 42, 'loaded': True, 'loadedTime': 3258.5, 'positionName': 'CENTER', 'positionCoords': [563.5, 307]}]",Rate how much you want to eat this food from 0 (least) to 10 (most).,131970.79999995232,1669833635816,orange slices,2506.399999856949,True,6.28,134477.19999980927,2506.399999856949,True,HRV,HRV_0222,2022-11-30 18:41:18
43,"[{'imgObject': {}, 'id': 'tacos', 'src': '/static/foodstim60/tacos.jpg', 'key': 'NaN', 'origWidth': 411, 'origHeight': 411, 'width': 411, 'height': 411, 'widthPercent': 0.8, 'rescaleHeight': True, 'trialN': 43, 'loaded': True, 'loadedTime': 3292.7999999523163, 'positionName': 'CENTER', 'positionCoords': [562.5, 306.5]}]",Rate how much you want to eat this food from 0 (least) to 10 (most).,134479.59999990463,1669833638325,tacos,2529.0999999046326,True,3.6,137008.69999980927,2529.0999999046326,True,HRV,HRV_0222,2022-11-30 18:41:18
44,"[{'imgObject': {}, 'id': 'froot loops w milk', 'src': '/static/foodstim60/froot loops w milk.jpg', 'key': 'NaN', 'origWidth': 410, 'origHeight': 410, 'width': 410, 'height': 410, 'widthPercent': 0.8, 'rescaleHeight': True, 'trialN': 44, 'loaded': True, 'loadedTime': 3299, 'positionName': 'CENTER', 'positionCoords': [563, 307]}]",Rate how much you want to eat this food from 0 (least) to 10 (most).,137010.79999995232,1669833640856,froot loops w milk,1948.0,True,5.78,138958.79999995232,1948.0,True,HRV,HRV_0222,2022-11-30 18:41:18
45,"[{'imgObject': {}, 'id': 'steak', 'src': '/static/foodstim60/steak.jpg', 'key': 'NaN', 'origWidth': 410, 'origHeight': 410, 'width': 410, 'height': 410, 'widthPercent': 0.8, 'rescaleHeight': True, 'trialN': 45, 'loaded': True, 'loadedTime': 3301.899999856949, 'positionName': 'CENTER', 'positionCoords': [563, 307]}]",Rate how much you want to eat this food from 0 (least) to 10 (most).,138961.29999995232,1669833642806,steak,2419.5,True,9.85,141380.79999995232,2419.5,True,HRV,HRV_0222,2022-11-30 18:41:18
46,"[{'imgObject': {}, 'id': 'fruitsalad', 'src': '/static/foodstim60/fruitsalad.jpg', 'key': 'NaN', 'origWidth': 410, 'origHeight': 410, 'width': 410, 'height': 410, 'widthPercent': 0.8, 'rescaleHeight': True, 'trialN': 46, 'loaded': True, 'loadedTime': 3322, 'positionName': 'CENTER', 'positionCoords': [563, 307]}]",Rate how much you want to eat this food from 0 (least) to 10 (most).,141382.89999985695,1669833645228,fruitsalad,3020.0,True,6.62,144402.89999985695,3020.0,True,HRV,HRV_0222,2022-11-30 18:41:18
47,"[{'imgObject': {}, 'id': 'hotdog w must', 'src': '/static/foodstim60/hotdog w must.jpg', 'key': 'NaN', 'origWidth': 409, 'origHeight': 409, 'width': 409, 'height': 409, 'widthPercent': 0.8, 'rescaleHeight': True, 'trialN': 47, 'loaded': True, 'loadedTime': 3329.699999809265, 'positionName': 'CENTER', 'positionCoords': [563.5, 307.5]}]",Rate how much you want to eat this food from 0 (least) to 10 (most).,144405.09999990463,1669833648250,hotdog w must,2255.7999999523163,True,3.88,146660.89999985695,2255.7999999523163,True,HRV,HRV_0222,2022-11-30 18:41:18
48,"[{'imgObject': {}, 'id': 'kiwi', 'src': '/static/foodstim60/kiwi.jpg', 'key': 'NaN', 'origWidth': 410, 'origHeight': 410, 'width': 410, 'height': 410, 'widthPercent': 0.8, 'rescaleHeight': True, 'trialN': 48, 'loaded': True, 'loadedTime': 3338.399999856949, 'positionName': 'CENTER', 'positionCoords': [563, 307]}]",Rate how much you want to eat this food from 0 (least) to 10 (most).,146663.59999990463,1669833650509,kiwi,2071.2000000476837,True,0.75,148734.79999995232,2071.2000000476837,True,HRV,HRV_0222,2022-11-30 18:41:18
49,"[{'imgObject': {}, 'id': 'eggs', 'src': '/static/foodstim60/eggs.jpg', 'key': 'NaN', 'origWidth': 409, 'origHeight': 409, 'width': 409, 'height': 409, 'widthPercent': 0.8, 'rescaleHeight': True, 'trialN': 49, 'loaded': True, 'loadedTime': 3346.0999999046326, 'positionName': 'CENTER', 'positionCoords': [563.5, 307.5]}]",Rate how much you want to eat this food from 0 (least) to 10 (most).,148736.29999995232,1669833652581,eggs,2342.7000000476837,True,6.18,151079.0,2342.7000000476837,True,HRV,HRV_0222,2022-11-30 18:41:18
50,"[{'imgObject': {}, 'id': 'banana', 'src': '/static/foodstim60/banana.jpg', 'key': 'NaN', 'origWidth': 410, 'origHeight': 410, 'width': 410, 'height': 410, 'widthPercent': 0.8, 'rescaleHeight': True, 'trialN': 50, 'loaded': True, 'loadedTime': 3391.5, 'positionName': 'CENTER', 'positionCoords': [563, 307]}]",Rate how much you want to eat this food from 0 (least) to 10 (most).,151080.39999985695,1669833654925,banana,1892.5,True,8.52,152972.89999985695,1892.5,True,HRV,HRV_0222,2022-11-30 18:41:18
51,"[{'imgObject': {}, 'id': 'burrito', 'src': '/static/foodstim60/burrito.jpg', 'key': 'NaN', 'origWidth': 410, 'origHeight': 410, 'width': 410, 'height': 410, 'widthPercent': 0.8, 'rescaleHeight': True, 'trialN': 51, 'loaded': True, 'loadedTime': 3397.2999999523163, 'positionName': 'CENTER', 'positionCoords': [563, 307]}]",Rate how much you want to eat this food from 0 (least) to 10 (most).,152974.5,1669833656821,burrito,2034.5,True,7.96,155009.0,2034.5,True,HRV,HRV_0222,2022-11-30 18:41:18
52,"[{'imgObject': {}, 'id': 'mango', 'src': '/static/foodstim60/mango.jpg', 'key': 'NaN', 'origWidth': 411, 'origHeight': 411, 'width': 411, 'height': 411, 'widthPercent': 0.8, 'rescaleHeight': True, 'trialN': 52, 'loaded': True, 'loadedTime': 3412.5999999046326, 'positionName': 'CENTER', 'positionCoords': [562.5, 306.5]}]",Rate how much you want to eat this food from 0 (least) to 10 (most).,155010.69999980927,1669833658857,mango,2460.0,True,9.07,157470.69999980927,2460.0,True,HRV,HRV_0222,2022-11-30 18:41:18
53,"[{'imgObject': {}, 'id': 'burger', 'src': '/static/foodstim60/burger.jpg', 'key': 'NaN', 'origWidth': 409, 'origHeight': 409, 'width': 409, 'height': 409, 'widthPercent': 0.8, 'rescaleHeight': True, 'trialN': 53, 'loaded': True, 'loadedTime': 3415.199999809265, 'positionName': 'CENTER', 'positionCoords': [563.5, 307.5]}]",Rate how much you want to eat this food from 0 (least) to 10 (most).,157472.39999985695,1669833661319,burger,1756.5,True,5.11,159228.89999985695,1756.5,True,HRV,HRV_0222,2022-11-30 18:41:18
54,"[{'imgObject': {}, 'id': 'baked potato', 'src': '/static/foodstim60/baked potato.jpg', 'key': 'NaN', 'origWidth': 409, 'origHeight': 410, 'width': 409, 'height': 410, 'widthPercent': 0.8, 'rescaleHeight': True, 'trialN': 54, 'loaded': True, 'loadedTime': 3469.699999809265, 'positionName': 'CENTER', 'positionCoords': [563.5, 307]}]",Rate how much you want to eat this food from 0 (least) to 10 (most).,159230.59999990463,1669833663077,baked potato,2602.2999999523163,True,6.62,161832.89999985695,2602.2999999523163,True,HRV,HRV_0222,2022-11-30 18:41:18
55,"[{'imgObject': {}, 'id': 'cheerios', 'src': '/static/foodstim60/cheerios.jpg', 'key': 'NaN', 'origWidth': 409, 'origHeight': 410, 'width': 409, 'height': 410, 'widthPercent': 0.8, 'rescaleHeight': True, 'trialN': 55, 'loaded': True, 'loadedTime': 3473.0999999046326, 'positionName': 'CENTER', 'positionCoords': [563.5, 307]}]",Rate how much you want to eat this food from 0 (least) to 10 (most).,161834.89999985695,1669833665681,cheerios,2175.9000000953674,True,6.58,164010.79999995232,2175.9000000953674,True,HRV,HRV_0222,2022-11-30 18:41:18
56,"[{'imgObject': {}, 'id': 'corn cob', 'src': '/static/foodstim60/corn cob.jpg', 'key': 'NaN', 'origWidth': 411, 'origHeight': 411, 'width': 411, 'height': 411, 'widthPercent': 0.8, 'rescaleHeight': True, 'trialN': 56, 'loaded': True, 'loadedTime': 3476.699999809265, 'positionName': 'CENTER', 'positionCoords': [562.5, 306.5]}]",Rate how much you want to eat this food from 0 (least) to 10 (most).,164013.0,1669833667859,corn cob,2594.0,True,7.73,166607.0,2594.0,True,HRV,HRV_0222,2022-11-30 18:41:18
57,"[{'imgObject': {}, 'id': 'avocado', 'src': '/static/foodstim60/avocado.jpg', 'key': 'NaN', 'origWidth': 409, 'origHeight': 409, 'width': 409, 'height': 409, 'widthPercent': 0.8, 'rescaleHeight': True, 'trialN': 57, 'loaded': True, 'loadedTime': 3478.7999999523163, 'positionName': 'CENTER', 'positionCoords': [563.5, 307.5]}]",Rate how much you want to eat this food from 0 (least) to 10 (most).,166609.0,1669833670455,avocado,2839.699999809265,True,9.8,169448.69999980927,2839.699999809265,True,HRV,HRV_0222,2022-11-30 18:41:18
58,"[{'imgObject': {}, 'id': 'popsicles', 'src': '/static/foodstim60/popsicles.jpg', 'key': 'NaN', 'origWidth': 410, 'origHeight': 410, 'width': 410, 'height': 410, 'widthPercent': 0.8, 'rescaleHeight': True, 'trialN': 58, 'loaded': True, 'loadedTime': 3517.399999856949, 'positionName': 'CENTER', 'positionCoords': [563, 307]}]",Rate how much you want to eat this food from 0 (least) to 10 (most).,169450.39999985695,1669833673297,popsicles,1402.5,True,9.89,170852.89999985695,1402.5,True,HRV,HRV_0222,2022-11-30 18:41:18
59,"[{'imgObject': {}, 'id': 'yogurt no spoon', 'src': '/static/foodstim60/yogurt no spoon.jpg', 'key': 'NaN', 'origWidth': 411, 'origHeight': 410, 'width': 411, 'height': 410, 'widthPercent': 0.8, 'rescaleHeight': True, 'trialN': 59, 'loaded': True, 'loadedTime': 3519.899999856949, 'positionName': 'CENTER', 'positionCoords': [562.5, 307]}]",Rate how much you want to eat this food from 0 (least) to 10 (most).,170854.79999995232,1669833674701,yogurt no spoon,3240.399999856949,True,7.4,174095.19999980927,3240.399999856949,True,HRV,HRV_0222,2022-11-30 18:41:18
