trialN,stimuli,trialStartTime,trialStartTime_UNIX,stimulus1,stimulus2,stimulus1Bid,stimulus2Bid,delta,selected,rt,rt_UNIX,rt_perfnow,receivedResponse,rsp,trialEndTime,trialDuration,trialEndTime_UNIX,trialDuration_UNIX,exp,subjectId,date
0,"[{'imgObject': {}, 'id': 'hotdog w must', 'src': '/static/foodstim60/hotdog w must.jpg', 'key': 'u', 'origWidth': 409, 'origHeight': 409, 'width': 409, 'height': 409, 'widthPercent': 0.45, 'rescaleHeight': False, 'trialN': 0, 'loaded': True, 'loadedTime': 3487.7999999523163, 'positionName': 'LEFT', 'positionCoords': [328.28, 307.5], 'bid': 3.78}, {'imgObject': {}, 'id': 'shreddedwheatwithmilk', 'src': '/static/foodstim60/shreddedwheatwithmilk.jpg', 'key': 'i', 'origWidth': 410, 'origHeight': 410, 'width': 410, 'height': 410, 'widthPercent': 0.45, 'rescaleHeight': False, 'trialN': 0, 'loaded': True, 'loadedTime': 3513.2999999523163, 'positionName': 'RIGHT', 'positionCoords': [798.72, 307], 'bid': 3.29}]",4900.299999952316,1669833877696,hotdog w must,shreddedwheatwithmilk,3.78,3.29,-0.48999999999999977,shreddedwheatwithmilk,1327.6000001430511,1329,1328.7000000476837,True,i,6741.700000047684,1841.4000000953674,1669833879537,1841,HRV,HRV_0222,2022-11-30 18:51:40
1,"[{'imgObject': {}, 'id': 'edamame', 'src': '/static/foodstim60/edamame.jpg', 'key': 'u', 'origWidth': 409, 'origHeight': 410, 'width': 409, 'height': 410, 'widthPercent': 0.45, 'rescaleHeight': False, 'trialN': 1, 'loaded': True, 'loadedTime': 3527.5, 'positionName': 'LEFT', 'positionCoords': [328.28, 307], 'bid': 9.1}, {'imgObject': {}, 'id': 'fried eggs', 'src': '/static/foodstim60/fried eggs.jpg', 'key': 'i', 'origWidth': 410, 'origHeight': 410, 'width': 410, 'height': 410, 'widthPercent': 0.45, 'rescaleHeight': False, 'trialN': 1, 'loaded': True, 'loadedTime': 3542.0999999046326, 'positionName': 'RIGHT', 'positionCoords': [798.72, 307], 'bid': 7.08}]",6742.599999904633,1669833879538,edamame,fried eggs,9.1,7.08,-2.0199999999999996,fried eggs,1045.5,1046,1046.3000001907349,True,i,8311.200000047684,1568.6000001430511,1669833881107,1569,HRV,HRV_0222,2022-11-30 18:51:40
2,"[{'imgObject': {}, 'id': 'eggs', 'src': '/static/foodstim60/eggs.jpg', 'key': 'u', 'origWidth': 409, 'origHeight': 409, 'width': 409, 'height': 409, 'widthPercent': 0.45, 'rescaleHeight': False, 'trialN': 2, 'loaded': True, 'loadedTime': 3550.5, 'positionName': 'LEFT', 'positionCoords': [328.28, 307.5], 'bid': 7.31}, {'imgObject': {}, 'id': 'corn cob', 'src': '/static/foodstim60/corn cob.jpg', 'key': 'i', 'origWidth': 411, 'origHeight': 411, 'width': 411, 'height': 411, 'widthPercent': 0.45, 'rescaleHeight': False, 'trialN': 2, 'loaded': True, 'loadedTime': 3576, 'positionName': 'RIGHT', 'positionCoords': [798.72, 306.5], 'bid': 7.59}]",8312.599999904633,1669833881108,eggs,corn cob,7.31,7.59,0.28000000000000025,eggs,1027.6000001430511,1029,1028.6000001430511,True,u,9848.0,1535.4000000953674,1669833882644,1536,HRV,HRV_0222,2022-11-30 18:51:40
3,"[{'imgObject': {}, 'id': 'blackbeanswithrice', 'src': '/static/foodstim60/blackbeanswithrice.jpg', 'key': 'u', 'origWidth': 410, 'origHeight': 410, 'width': 410, 'height': 410, 'widthPercent': 0.45, 'rescaleHeight': False, 'trialN': 3, 'loaded': True, 'loadedTime': 3622.2999999523163, 'positionName': 'LEFT', 'positionCoords': [327.28, 307], 'bid': 6.58}, {'imgObject': {}, 'id': 'chickenfingers', 'src': '/static/foodstim60/chickenfingers.jpg', 'key': 'i', 'origWidth': 410, 'origHeight': 410, 'width': 410, 'height': 410, 'widthPercent': 0.45, 'rescaleHeight': False, 'trialN': 3, 'loaded': True, 'loadedTime': 3661.4000000953674, 'positionName': 'RIGHT', 'positionCoords': [798.72, 307], 'bid': 8.48}]",9848.700000047684,1669833882644,blackbeanswithrice,chickenfingers,6.58,8.48,1.9000000000000004,chickenfingers,841.8999998569489,843,842.7999999523163,True,i,11197.299999952316,1348.5999999046326,1669833883993,1349,HRV,HRV_0222,2022-11-30 18:51:40
4,"[{'imgObject': {}, 'id': 'strawberries', 'src': '/static/foodstim60/strawberries.jpg', 'key': 'u', 'origWidth': 410, 'origHeight': 410, 'width': 410, 'height': 410, 'widthPercent': 0.45, 'rescaleHeight': False, 'trialN': 4, 'loaded': True, 'loadedTime': 3709.9000000953674, 'positionName': 'LEFT', 'positionCoords': [327.28, 307], 'bid': 9.92}, {'imgObject': {}, 'id': 'chickenfingers', 'src': '/static/foodstim60/chickenfingers.jpg', 'key': 'i', 'origWidth': 410, 'origHeight': 410, 'width': 410, 'height': 410, 'widthPercent': 0.45, 'rescaleHeight': False, 'trialN': 4, 'loaded': True, 'loadedTime': 3668.2999999523163, 'positionName': 'RIGHT', 'positionCoords': [798.72, 307], 'bid': 8.48}]",11198.099999904633,1669833883994,strawberries,chickenfingers,9.92,8.48,-1.4399999999999995,strawberries,909.5,910,910.2000000476837,True,u,12618.400000095367,1420.3000001907349,1669833885414,1420,HRV,HRV_0222,2022-11-30 18:51:40
5,"[{'imgObject': {}, 'id': 'mango', 'src': '/static/foodstim60/mango.jpg', 'key': 'u', 'origWidth': 411, 'origHeight': 411, 'width': 411, 'height': 411, 'widthPercent': 0.45, 'rescaleHeight': False, 'trialN': 5, 'loaded': True, 'loadedTime': 3710.2000000476837, 'positionName': 'LEFT', 'positionCoords': [326.28, 306.5], 'bid': 9.81}, {'imgObject': {}, 'id': 'cheerios', 'src': '/static/foodstim60/cheerios.jpg', 'key': 'i', 'origWidth': 409, 'origHeight': 410, 'width': 409, 'height': 410, 'widthPercent': 0.45, 'rescaleHeight': False, 'trialN': 5, 'loaded': True, 'loadedTime': 3825.2999999523163, 'positionName': 'RIGHT', 'positionCoords': [798.72, 307], 'bid': 6.94}]",12618.799999952316,1669833885414,mango,cheerios,9.81,6.94,-2.87,mango,1130.4000000953674,1132,1131.5,True,u,14256.299999952316,1637.5,1669833887052,1638,HRV,HRV_0222,2022-11-30 18:51:40
6,"[{'imgObject': {}, 'id': 'veggieswithdip', 'src': '/static/foodstim60/veggieswithdip.jpg', 'key': 'u', 'origWidth': 409, 'origHeight': 409, 'width': 409, 'height': 409, 'widthPercent': 0.45, 'rescaleHeight': False, 'trialN': 6, 'loaded': True, 'loadedTime': 3832, 'positionName': 'LEFT', 'positionCoords': [328.28, 307.5], 'bid': 6.11}, {'imgObject': {}, 'id': 'baked potato', 'src': '/static/foodstim60/baked potato.jpg', 'key': 'i', 'origWidth': 409, 'origHeight': 410, 'width': 409, 'height': 410, 'widthPercent': 0.45, 'rescaleHeight': False, 'trialN': 6, 'loaded': True, 'loadedTime': 3869.2000000476837, 'positionName': 'RIGHT', 'positionCoords': [798.72, 307], 'bid': 6.11}]",14257.099999904633,1669833887053,veggieswithdip,baked potato,6.11,6.11,0.0,baked potato,2477.9000000953674,2478,2478.4000000953674,True,i,17243.700000047684,2986.600000143051,1669833890039,2986,HRV,HRV_0222,2022-11-30 18:51:40
7,"[{'imgObject': {}, 'id': 'roastedpotatoes', 'src': '/static/foodstim60/roastedpotatoes.jpg', 'key': 'u', 'origWidth': 409, 'origHeight': 410, 'width': 409, 'height': 410, 'widthPercent': 0.45, 'rescaleHeight': False, 'trialN': 7, 'loaded': True, 'loadedTime': 3949.2999999523163, 'positionName': 'LEFT', 'positionCoords': [328.28, 307], 'bid': 7.03}, {'imgObject': {}, 'id': 'burrito', 'src': '/static/foodstim60/burrito.jpg', 'key': 'i', 'origWidth': 410, 'origHeight': 410, 'width': 410, 'height': 410, 'widthPercent': 0.45, 'rescaleHeight': False, 'trialN': 7, 'loaded': True, 'loadedTime': 3992.2999999523163, 'positionName': 'RIGHT', 'positionCoords': [798.72, 307], 'bid': 7.85}]",17245.0,1669833890041,roastedpotatoes,burrito,7.03,7.85,0.8199999999999994,roastedpotatoes,1432.2999999523163,1433,1433.0,True,u,19195.299999952316,1950.2999999523163,1669833891991,1950,HRV,HRV_0222,2022-11-30 18:51:40
8,"[{'imgObject': {}, 'id': 'shreddedwheatwithmilk', 'src': '/static/foodstim60/shreddedwheatwithmilk.jpg', 'key': 'u', 'origWidth': 410, 'origHeight': 410, 'width': 410, 'height': 410, 'widthPercent': 0.45, 'rescaleHeight': False, 'trialN': 8, 'loaded': True, 'loadedTime': 3516, 'positionName': 'LEFT', 'positionCoords': [327.28, 307], 'bid': 3.29}, {'imgObject': {}, 'id': 'veggieswithdip', 'src': '/static/foodstim60/veggieswithdip.jpg', 'key': 'i', 'origWidth': 409, 'origHeight': 409, 'width': 409, 'height': 409, 'widthPercent': 0.45, 'rescaleHeight': False, 'trialN': 8, 'loaded': True, 'loadedTime': 3868.2000000476837, 'positionName': 'RIGHT', 'positionCoords': [798.72, 307.5], 'bid': 6.11}]",19196.299999952316,1669833891992,shreddedwheatwithmilk,veggieswithdip,3.29,6.11,2.8200000000000003,veggieswithdip,1506.2999999523163,1507,1507.0,True,i,21208.599999904633,2012.2999999523163,1669833894004,2012,HRV,HRV_0222,2022-11-30 18:51:40
9,"[{'imgObject': {}, 'id': 'edamame', 'src': '/static/foodstim60/edamame.jpg', 'key': 'u', 'origWidth': 409, 'origHeight': 410, 'width': 409, 'height': 410, 'widthPercent': 0.45, 'rescaleHeight': False, 'trialN': 9, 'loaded': True, 'loadedTime': 3520.4000000953674, 'positionName': 'LEFT', 'positionCoords': [328.28, 307], 'bid': 9.1}, {'imgObject': {}, 'id': 'Tribe humus pita', 'src': '/static/foodstim60/Tribe humus pita.jpg', 'key': 'i', 'origWidth': 411, 'origHeight': 411, 'width': 411, 'height': 411, 'widthPercent': 0.45, 'rescaleHeight': False, 'trialN': 9, 'loaded': True, 'loadedTime': 4000.2999999523163, 'positionName': 'RIGHT', 'positionCoords': [798.72, 306.5], 'bid': 6.61}]",21209.400000095367,1669833894005,edamame,Tribe humus pita,9.1,6.61,-2.4899999999999993,edamame,821.0999999046326,822,821.7999999523163,True,u,22547.700000047684,1338.2999999523163,1669833895343,1338,HRV,HRV_0222,2022-11-30 18:51:40
10,"[{'imgObject': {}, 'id': 'roastedpotatoes', 'src': '/static/foodstim60/roastedpotatoes.jpg', 'key': 'u', 'origWidth': 409, 'origHeight': 410, 'width': 409, 'height': 410, 'widthPercent': 0.45, 'rescaleHeight': False, 'trialN': 10, 'loaded': True, 'loadedTime': 3950.0999999046326, 'positionName': 'LEFT', 'positionCoords': [328.28, 307], 'bid': 7.03}, {'imgObject': {}, 'id': 'turkey sandwich', 'src': '/static/foodstim60/turkey sandwich.jpg', 'key': 'i', 'origWidth': 409, 'origHeight': 409, 'width': 409, 'height': 409, 'widthPercent': 0.45, 'rescaleHeight': False, 'trialN': 10, 'loaded': True, 'loadedTime': 4050.0999999046326, 'positionName': 'RIGHT', 'positionCoords': [798.72, 307.5], 'bid': 0.62}]",22548.400000095367,1669833895344,roastedpotatoes,turkey sandwich,7.03,0.62,-6.41,roastedpotatoes,1124.0999999046326,1120,1124.7999999523163,True,u,24180.799999952316,1632.3999998569489,1669833896972,1628,HRV,HRV_0222,2022-11-30 18:51:40
11,"[{'imgObject': {}, 'id': 'cocktailshrimp', 'src': '/static/foodstim60/cocktailshrimp.jpg', 'key': 'u', 'origWidth': 410, 'origHeight': 410, 'width': 410, 'height': 410, 'widthPercent': 0.45, 'rescaleHeight': False, 'trialN': 11, 'loaded': True, 'loadedTime': 4061.2000000476837, 'positionName': 'LEFT', 'positionCoords': [327.28, 307], 'bid': 5.11}, {'imgObject': {}, 'id': 'blackbeanswithrice', 'src': '/static/foodstim60/blackbeanswithrice.jpg', 'key': 'i', 'origWidth': 410, 'origHeight': 410, 'width': 410, 'height': 410, 'widthPercent': 0.45, 'rescaleHeight': False, 'trialN': 11, 'loaded': True, 'loadedTime': 3581.5999999046326, 'positionName': 'RIGHT', 'positionCoords': [798.72, 307], 'bid': 6.58}]",24181.299999952316,1669833896972,cocktailshrimp,blackbeanswithrice,5.11,6.58,1.4699999999999998,cocktailshrimp,1737.2000000476837,1738,1738.0,True,u,26429.200000047684,2247.9000000953674,1669833899220,2248,HRV,HRV_0222,2022-11-30 18:51:40
12,"[{'imgObject': {}, 'id': 'cocktailshrimp', 'src': '/static/foodstim60/cocktailshrimp.jpg', 'key': 'u', 'origWidth': 410, 'origHeight': 410, 'width': 410, 'height': 410, 'widthPercent': 0.45, 'rescaleHeight': False, 'trialN': 12, 'loaded': True, 'loadedTime': 4062.7999999523163, 'positionName': 'LEFT', 'positionCoords': [327.28, 307], 'bid': 5.11}, {'imgObject': {}, 'id': 'steak', 'src': '/static/foodstim60/steak.jpg', 'key': 'i', 'origWidth': 410, 'origHeight': 410, 'width': 410, 'height': 410, 'widthPercent': 0.45, 'rescaleHeight': False, 'trialN': 12, 'loaded': True, 'loadedTime': 4072.5999999046326, 'positionName': 'RIGHT', 'positionCoords': [798.72, 307], 'bid': 9.92}]",26429.5,1669833899221,cocktailshrimp,steak,5.11,9.92,4.81,steak,776.2000000476837,777,777.0999999046326,True,i,27723.0,1293.5,1669833900514,1293,HRV,HRV_0222,2022-11-30 18:51:40
13,"[{'imgObject': {}, 'id': 'eggsalad', 'src': '/static/foodstim60/eggsalad.jpg', 'key': 'u', 'origWidth': 410, 'origHeight': 409, 'width': 410, 'height': 409, 'widthPercent': 0.45, 'rescaleHeight': False, 'trialN': 13, 'loaded': True, 'loadedTime': 4082.7999999523163, 'positionName': 'LEFT', 'positionCoords': [327.28, 307.5], 'bid': 2.69}, {'imgObject': {}, 'id': 'grilled chicken strips', 'src': '/static/foodstim60/grilled chicken strips.jpg', 'key': 'i', 'origWidth': 410, 'origHeight': 411, 'width': 410, 'height': 411, 'widthPercent': 0.45, 'rescaleHeight': False, 'trialN': 13, 'loaded': True, 'loadedTime': 4139.5, 'positionName': 'RIGHT', 'positionCoords': [798.72, 306.5], 'bid': 3.0500000000000003}]",27723.599999904633,1669833900515,eggsalad,grilled chicken strips,2.69,3.0500000000000003,0.3600000000000003,grilled chicken strips,3098.800000190735,3099,3099.5,True,i,31334.099999904633,3610.5,1669833904125,3610,HRV,HRV_0222,2022-11-30 18:51:40
14,"[{'imgObject': {}, 'id': 'Grapes', 'src': '/static/foodstim60/Grapes.jpg', 'key': 'u', 'origWidth': 411, 'origHeight': 411, 'width': 411, 'height': 411, 'widthPercent': 0.45, 'rescaleHeight': False, 'trialN': 14, 'loaded': True, 'loadedTime': 4179, 'positionName': 'LEFT', 'positionCoords': [326.28, 306.5], 'bid': 9.86}, {'imgObject': {}, 'id': 'mango', 'src': '/static/foodstim60/mango.jpg', 'key': 'i', 'origWidth': 411, 'origHeight': 411, 'width': 411, 'height': 411, 'widthPercent': 0.45, 'rescaleHeight': False, 'trialN': 14, 'loaded': True, 'loadedTime': 3753, 'positionName': 'RIGHT', 'positionCoords': [798.72, 306.5], 'bid': 9.81}]",31334.799999952316,1669833904126,Grapes,mango,9.86,9.81,-0.049999999999998934,Grapes,1293.2999999523163,1294,1293.9000000953674,True,u,33150.0,1815.2000000476837,1669833905941,1815,HRV,HRV_0222,2022-11-30 18:51:40
15,"[{'imgObject': {}, 'id': 'hashbrowns', 'src': '/static/foodstim60/hashbrowns.jpg', 'key': 'u', 'origWidth': 411, 'origHeight': 410, 'width': 411, 'height': 410, 'widthPercent': 0.45, 'rescaleHeight': False, 'trialN': 15, 'loaded': True, 'loadedTime': 4181.700000047684, 'positionName': 'LEFT', 'positionCoords': [326.28, 307], 'bid': 5.44}, {'imgObject': {}, 'id': 'Tribe humus pita', 'src': '/static/foodstim60/Tribe humus pita.jpg', 'key': 'i', 'origWidth': 411, 'origHeight': 411, 'width': 411, 'height': 411, 'widthPercent': 0.45, 'rescaleHeight': False, 'trialN': 15, 'loaded': True, 'loadedTime': 3992.9000000953674, 'positionName': 'RIGHT', 'positionCoords': [798.72, 306.5], 'bid': 6.61}]",33150.59999990463,1669833905942,hashbrowns,Tribe humus pita,5.44,6.61,1.17,Tribe humus pita,2103.7000000476837,2104,2104.300000190735,True,i,35760.40000009537,2609.800000190735,1669833908552,2610,HRV,HRV_0222,2022-11-30 18:51:40
16,"[{'imgObject': {}, 'id': 'ice cream sundae 002', 'src': '/static/foodstim60/ice cream sundae 002.jpg', 'key': 'u', 'origWidth': 409, 'origHeight': 409, 'width': 409, 'height': 409, 'widthPercent': 0.45, 'rescaleHeight': False, 'trialN': 16, 'loaded': True, 'loadedTime': 4196.299999952316, 'positionName': 'LEFT', 'positionCoords': [328.28, 307.5], 'bid': 3.89}, {'imgObject': {}, 'id': 'eggsalad', 'src': '/static/foodstim60/eggsalad.jpg', 'key': 'i', 'origWidth': 410, 'origHeight': 409, 'width': 410, 'height': 409, 'widthPercent': 0.45, 'rescaleHeight': False, 'trialN': 16, 'loaded': True, 'loadedTime': 4096.299999952316, 'positionName': 'RIGHT', 'positionCoords': [798.72, 307.5], 'bid': 2.69}]",35761.09999990463,1669833908552,ice cream sundae 002,eggsalad,3.89,2.69,-1.2000000000000002,eggsalad,1479.3000001907349,1480,1480.0,True,i,37758.40000009537,1997.3000001907349,1669833910550,1998,HRV,HRV_0222,2022-11-30 18:51:40
17,"[{'imgObject': {}, 'id': 'apple slices', 'src': '/static/foodstim60/apple slices.jpg', 'key': 'u', 'origWidth': 409, 'origHeight': 410, 'width': 409, 'height': 410, 'widthPercent': 0.45, 'rescaleHeight': False, 'trialN': 17, 'loaded': True, 'loadedTime': 4203.900000095367, 'positionName': 'LEFT', 'positionCoords': [328.28, 307], 'bid': 6.96}, {'imgObject': {}, 'id': 'blueberries', 'src': '/static/foodstim60/blueberries.jpg', 'key': 'i', 'origWidth': 411, 'origHeight': 411, 'width': 411, 'height': 411, 'widthPercent': 0.45, 'rescaleHeight': False, 'trialN': 17, 'loaded': True, 'loadedTime': 4226.900000095367, 'positionName': 'RIGHT', 'positionCoords': [798.72, 306.5], 'bid': 5.62}]",37759.700000047684,1669833910551,apple slices,blueberries,6.96,5.62,-1.3399999999999999,blueberries,2580.2000000476837,2581,2580.899999856949,True,i,40853.299999952316,3093.5999999046326,1669833913644,3093,HRV,HRV_0222,2022-11-30 18:51:40
18,"[{'imgObject': {}, 'id': 'orange slices', 'src': '/static/foodstim60/orange slices.jpg', 'key': 'u', 'origWidth': 409, 'origHeight': 410, 'width': 409, 'height': 410, 'widthPercent': 0.45, 'rescaleHeight': False, 'trialN': 18, 'loaded': True, 'loadedTime': 4232.099999904633, 'positionName': 'LEFT', 'positionCoords': [328.28, 307], 'bid': 7.96}, {'imgObject': {}, 'id': 'popsicles', 'src': '/static/foodstim60/popsicles.jpg', 'key': 'i', 'origWidth': 410, 'origHeight': 410, 'width': 410, 'height': 410, 'widthPercent': 0.45, 'rescaleHeight': False, 'trialN': 18, 'loaded': True, 'loadedTime': 4884.799999952316, 'positionName': 'RIGHT', 'positionCoords': [798.72, 307], 'bid': 9.86}]",40853.90000009537,1669833913645,orange slices,popsicles,7.96,9.86,1.8999999999999995,popsicles,1179,1180,1180.0,True,i,42538.90000009537,1685.0,1669833915330,1685,HRV,HRV_0222,2022-11-30 18:51:40
19,"[{'imgObject': {}, 'id': 'hotdog w must', 'src': '/static/foodstim60/hotdog w must.jpg', 'key': 'u', 'origWidth': 409, 'origHeight': 409, 'width': 409, 'height': 409, 'widthPercent': 0.45, 'rescaleHeight': False, 'trialN': 19, 'loaded': True, 'loadedTime': 3454.5999999046326, 'positionName': 'LEFT', 'positionCoords': [328.28, 307.5], 'bid': 3.78}, {'imgObject': {}, 'id': 'baked potato', 'src': '/static/foodstim60/baked potato.jpg', 'key': 'i', 'origWidth': 409, 'origHeight': 410, 'width': 409, 'height': 410, 'widthPercent': 0.45, 'rescaleHeight': False, 'trialN': 19, 'loaded': True, 'loadedTime': 3871.4000000953674, 'positionName': 'RIGHT', 'positionCoords': [798.72, 307], 'bid': 6.11}]",42539.5,1669833915331,hotdog w must,baked potato,3.78,6.11,2.3300000000000005,baked potato,1226.2999999523163,1227,1227.0,True,i,44271.799999952316,1732.2999999523163,1669833917063,1732,HRV,HRV_0222,2022-11-30 18:51:40
20,"[{'imgObject': {}, 'id': 'grilled chicken strips', 'src': '/static/foodstim60/grilled chicken strips.jpg', 'key': 'u', 'origWidth': 410, 'origHeight': 411, 'width': 410, 'height': 411, 'widthPercent': 0.45, 'rescaleHeight': False, 'trialN': 20, 'loaded': True, 'loadedTime': 4140.700000047684, 'positionName': 'LEFT', 'positionCoords': [327.28, 306.5], 'bid': 3.0500000000000003}, {'imgObject': {}, 'id': 'orange slices', 'src': '/static/foodstim60/orange slices.jpg', 'key': 'i', 'origWidth': 409, 'origHeight': 410, 'width': 409, 'height': 410, 'widthPercent': 0.45, 'rescaleHeight': False, 'trialN': 20, 'loaded': True, 'loadedTime': 4239.5, 'positionName': 'RIGHT', 'positionCoords': [798.72, 307], 'bid': 7.96}]",44272.200000047684,1669833917063,grilled chicken strips,orange slices,3.0500000000000003,7.96,4.91,orange slices,1894.5999999046326,1896,1895.3999998569489,True,i,46687.40000009537,2415.2000000476837,1669833919479,2416,HRV,HRV_0222,2022-11-30 18:51:40
21,"[{'imgObject': {}, 'id': 'grilled chicken strips', 'src': '/static/foodstim60/grilled chicken strips.jpg', 'key': 'u', 'origWidth': 410, 'origHeight': 411, 'width': 410, 'height': 411, 'widthPercent': 0.45, 'rescaleHeight': False, 'trialN': 21, 'loaded': True, 'loadedTime': 4133.400000095367, 'positionName': 'LEFT', 'positionCoords': [327.28, 306.5], 'bid': 3.0500000000000003}, {'imgObject': {}, 'id': 'rigatoni', 'src': '/static/foodstim60/rigatoni.jpg', 'key': 'i', 'origWidth': 411, 'origHeight': 411, 'width': 411, 'height': 411, 'widthPercent': 0.45, 'rescaleHeight': False, 'trialN': 21, 'loaded': True, 'loadedTime': 4292.200000047684, 'positionName': 'RIGHT', 'positionCoords': [798.72, 306.5], 'bid': 0.16}]",46687.90000009537,1669833919479,grilled chicken strips,rigatoni,3.0500000000000003,0.16,-2.89,grilled chicken strips,947.6999998092651,949,948.7999999523163,True,u,48149.90000009537,1462.0,1669833920941,1462,HRV,HRV_0222,2022-11-30 18:51:40
22,"[{'imgObject': {}, 'id': 'steak', 'src': '/static/foodstim60/steak.jpg', 'key': 'u', 'origWidth': 410, 'origHeight': 410, 'width': 410, 'height': 410, 'widthPercent': 0.45, 'rescaleHeight': False, 'trialN': 22, 'loaded': True, 'loadedTime': 4070.4000000953674, 'positionName': 'LEFT', 'positionCoords': [327.28, 307], 'bid': 9.92}, {'imgObject': {}, 'id': 'Grapes', 'src': '/static/foodstim60/Grapes.jpg', 'key': 'i', 'origWidth': 411, 'origHeight': 411, 'width': 411, 'height': 411, 'widthPercent': 0.45, 'rescaleHeight': False, 'trialN': 22, 'loaded': True, 'loadedTime': 4181.200000047684, 'positionName': 'RIGHT', 'positionCoords': [798.72, 306.5], 'bid': 9.86}]",48151.0,1669833920942,steak,Grapes,9.92,9.86,-0.0600000000000005,steak,789.2999999523163,790,790.0,True,u,49461.700000047684,1310.7000000476837,1669833922253,1311,HRV,HRV_0222,2022-11-30 18:51:40
23,"[{'imgObject': {}, 'id': 'turkeysandwich', 'src': '/static/foodstim60/turkeysandwich.jpg', 'key': 'u', 'origWidth': 409, 'origHeight': 409, 'width': 409, 'height': 409, 'widthPercent': 0.45, 'rescaleHeight': False, 'trialN': 23, 'loaded': True, 'loadedTime': 4298.099999904633, 'positionName': 'LEFT', 'positionCoords': [328.28, 307.5], 'bid': 0.03}, {'imgObject': {}, 'id': 'salmon', 'src': '/static/foodstim60/salmon.jpg', 'key': 'i', 'origWidth': 410, 'origHeight': 409, 'width': 410, 'height': 409, 'widthPercent': 0.45, 'rescaleHeight': False, 'trialN': 23, 'loaded': True, 'loadedTime': 4341, 'positionName': 'RIGHT', 'positionCoords': [798.72, 307.5], 'bid': 0.09}]",49462.09999990463,1669833922253,turkeysandwich,salmon,0.03,0.09,0.06,turkeysandwich,2083,2084,2083.7000000476837,True,u,52058.799999952316,2596.7000000476837,1669833924850,2597,HRV,HRV_0222,2022-11-30 18:51:40
24,"[{'imgObject': {}, 'id': 'olives', 'src': '/static/foodstim60/olives.jpg', 'key': 'u', 'origWidth': 410, 'origHeight': 410, 'width': 410, 'height': 410, 'widthPercent': 0.45, 'rescaleHeight': False, 'trialN': 24, 'loaded': True, 'loadedTime': 4384.099999904633, 'positionName': 'LEFT', 'positionCoords': [327.28, 307], 'bid': 0.13}, {'imgObject': {}, 'id': 'omelette', 'src': '/static/foodstim60/omelette.jpg', 'key': 'i', 'origWidth': 410, 'origHeight': 409, 'width': 410, 'height': 409, 'widthPercent': 0.45, 'rescaleHeight': False, 'trialN': 24, 'loaded': True, 'loadedTime': 4424.299999952316, 'positionName': 'RIGHT', 'positionCoords': [798.72, 307.5], 'bid': 2.57}]",52059.200000047684,1669833924850,olives,omelette,0.13,2.57,2.44,omelette,1471.2999999523163,1472,1472.0,True,i,54036.799999952316,1977.5999999046326,1669833926828,1978,HRV,HRV_0222,2022-11-30 18:51:40
25,"[{'imgObject': {}, 'id': 'pear', 'src': '/static/foodstim60/pear.jpg', 'key': 'u', 'origWidth': 411, 'origHeight': 410, 'width': 411, 'height': 410, 'widthPercent': 0.45, 'rescaleHeight': False, 'trialN': 25, 'loaded': True, 'loadedTime': 4467.700000047684, 'positionName': 'LEFT', 'positionCoords': [326.28, 307], 'bid': 0.15}, {'imgObject': {}, 'id': 'cherry tomato', 'src': '/static/foodstim60/cherry tomato.jpg', 'key': 'i', 'origWidth': 410, 'origHeight': 410, 'width': 410, 'height': 410, 'widthPercent': 0.45, 'rescaleHeight': False, 'trialN': 25, 'loaded': True, 'loadedTime': 4469.299999952316, 'positionName': 'RIGHT', 'positionCoords': [798.72, 307], 'bid': 0.13}]",54037.09999990463,1669833926828,pear,cherry tomato,0.15,0.13,-0.01999999999999999,pear,2344.800000190735,2346,2345.300000190735,True,u,56903.40000009537,2866.300000190735,1669833929694,2866,HRV,HRV_0222,2022-11-30 18:51:40
26,"[{'imgObject': {}, 'id': 'fruitsalad', 'src': '/static/foodstim60/fruitsalad.jpg', 'key': 'u', 'origWidth': 410, 'origHeight': 410, 'width': 410, 'height': 410, 'widthPercent': 0.45, 'rescaleHeight': False, 'trialN': 26, 'loaded': True, 'loadedTime': 4518.700000047684, 'positionName': 'LEFT', 'positionCoords': [327.28, 307], 'bid': 2.59}, {'imgObject': {}, 'id': 'omelette', 'src': '/static/foodstim60/omelette.jpg', 'key': 'i', 'origWidth': 410, 'origHeight': 409, 'width': 410, 'height': 409, 'widthPercent': 0.45, 'rescaleHeight': False, 'trialN': 26, 'loaded': True, 'loadedTime': 4423.900000095367, 'positionName': 'RIGHT', 'positionCoords': [798.72, 307.5], 'bid': 2.57}]",56903.799999952316,1669833929695,fruitsalad,omelette,2.59,2.57,-0.020000000000000018,fruitsalad,1441.7999999523163,1443,1442.7000000476837,True,u,58852.59999990463,1948.7999999523163,1669833931644,1949,HRV,HRV_0222,2022-11-30 18:51:40
27,"[{'imgObject': {}, 'id': 'mashed potato', 'src': '/static/foodstim60/mashed potato.jpg', 'key': 'u', 'origWidth': 409, 'origHeight': 409, 'width': 409, 'height': 409, 'widthPercent': 0.45, 'rescaleHeight': False, 'trialN': 27, 'loaded': True, 'loadedTime': 4558.799999952316, 'positionName': 'LEFT', 'positionCoords': [328.28, 307.5], 'bid': 6.18}, {'imgObject': {}, 'id': 'tacos', 'src': '/static/foodstim60/tacos.jpg', 'key': 'i', 'origWidth': 411, 'origHeight': 411, 'width': 411, 'height': 411, 'widthPercent': 0.45, 'rescaleHeight': False, 'trialN': 27, 'loaded': True, 'loadedTime': 4564.400000095367, 'positionName': 'RIGHT', 'positionCoords': [798.72, 306.5], 'bid': 4.51}]",58852.90000009537,1669833931644,mashed potato,tacos,6.18,4.51,-1.67,mashed potato,1585.2999999523163,1586,1586.0,True,u,60944.200000047684,2091.2999999523163,1669833933735,2091,HRV,HRV_0222,2022-11-30 18:51:40
28,"[{'imgObject': {}, 'id': 'turkey sandwich', 'src': '/static/foodstim60/turkey sandwich.jpg', 'key': 'u', 'origWidth': 409, 'origHeight': 409, 'width': 409, 'height': 409, 'widthPercent': 0.45, 'rescaleHeight': False, 'trialN': 28, 'loaded': True, 'loadedTime': 4050.4000000953674, 'positionName': 'LEFT', 'positionCoords': [328.28, 307.5], 'bid': 0.62}, {'imgObject': {}, 'id': 'rigatoni', 'src': '/static/foodstim60/rigatoni.jpg', 'key': 'i', 'origWidth': 411, 'origHeight': 411, 'width': 411, 'height': 411, 'widthPercent': 0.45, 'rescaleHeight': False, 'trialN': 28, 'loaded': True, 'loadedTime': 4288.5, 'positionName': 'RIGHT', 'positionCoords': [798.72, 306.5], 'bid': 0.16}]",60945.0,1669833933736,turkey sandwich,rigatoni,0.62,0.16,-0.45999999999999996,rigatoni,2547.7999999523163,2549,2549.0999999046326,True,i,64008.40000009537,3063.4000000953674,1669833936799,3063,HRV,HRV_0222,2022-11-30 18:51:40
29,"[{'imgObject': {}, 'id': 'hotdog w must', 'src': '/static/foodstim60/hotdog w must.jpg', 'key': 'u', 'origWidth': 409, 'origHeight': 409, 'width': 409, 'height': 409, 'widthPercent': 0.45, 'rescaleHeight': False, 'trialN': 29, 'loaded': True, 'loadedTime': 3342.2999999523163, 'positionName': 'LEFT', 'positionCoords': [328.28, 307.5], 'bid': 3.78}, {'imgObject': {}, 'id': 'tacos', 'src': '/static/foodstim60/tacos.jpg', 'key': 'i', 'origWidth': 411, 'origHeight': 411, 'width': 411, 'height': 411, 'widthPercent': 0.45, 'rescaleHeight': False, 'trialN': 29, 'loaded': True, 'loadedTime': 4567.599999904633, 'positionName': 'RIGHT', 'positionCoords': [798.72, 306.5], 'bid': 4.51}]",64008.700000047684,1669833936800,hotdog w must,tacos,3.78,4.51,0.73,tacos,2004,2005,2004.7999999523163,True,i,66521.29999995232,2512.5999999046326,1669833939312,2512,HRV,HRV_0222,2022-11-30 18:51:40
30,"[{'imgObject': {}, 'id': 'raisin bran w milk', 'src': '/static/foodstim60/raisin bran w milk.jpg', 'key': 'u', 'origWidth': 411, 'origHeight': 411, 'width': 411, 'height': 411, 'widthPercent': 0.45, 'rescaleHeight': False, 'trialN': 30, 'loaded': True, 'loadedTime': 4612.700000047684, 'positionName': 'LEFT', 'positionCoords': [326.28, 306.5], 'bid': 5.49}, {'imgObject': {}, 'id': 'cocktailshrimp', 'src': '/static/foodstim60/cocktailshrimp.jpg', 'key': 'i', 'origWidth': 410, 'origHeight': 410, 'width': 410, 'height': 410, 'widthPercent': 0.45, 'rescaleHeight': False, 'trialN': 30, 'loaded': True, 'loadedTime': 4056.5, 'positionName': 'RIGHT', 'positionCoords': [798.72, 307], 'bid': 5.11}]",66521.90000009537,1669833939313,raisin bran w milk,cocktailshrimp,5.49,5.11,-0.3799999999999999,raisin bran w milk,1251.6999998092651,1253,1252.5999999046326,True,u,68281.20000004768,1759.2999999523163,1669833941072,1759,HRV,HRV_0222,2022-11-30 18:51:40
31,"[{'imgObject': {}, 'id': 'orange slices', 'src': '/static/foodstim60/orange slices.jpg', 'key': 'u', 'origWidth': 409, 'origHeight': 410, 'width': 409, 'height': 410, 'widthPercent': 0.45, 'rescaleHeight': False, 'trialN': 31, 'loaded': True, 'loadedTime': 4238.5, 'positionName': 'LEFT', 'positionCoords': [328.28, 307], 'bid': 7.96}, {'imgObject': {}, 'id': 'mashed potato', 'src': '/static/foodstim60/mashed potato.jpg', 'key': 'i', 'origWidth': 409, 'origHeight': 409, 'width': 409, 'height': 409, 'widthPercent': 0.45, 'rescaleHeight': False, 'trialN': 31, 'loaded': True, 'loadedTime': 4563, 'positionName': 'RIGHT', 'positionCoords': [798.72, 307.5], 'bid': 6.18}]",68281.59999990463,1669833941073,orange slices,mashed potato,7.96,6.18,-1.7800000000000002,mashed potato,1938.4000000953674,1939,1939.3000001907349,True,i,70740.0,2458.4000000953674,1669833943531,2458,HRV,HRV_0222,2022-11-30 18:51:40
32,"[{'imgObject': {}, 'id': 'lox', 'src': '/static/foodstim60/lox.jpg', 'key': 'u', 'origWidth': 410, 'origHeight': 411, 'width': 410, 'height': 411, 'widthPercent': 0.45, 'rescaleHeight': False, 'trialN': 32, 'loaded': True, 'loadedTime': 4617.900000095367, 'positionName': 'LEFT', 'positionCoords': [327.28, 306.5], 'bid': 0.1}, {'imgObject': {}, 'id': 'seaweed', 'src': '/static/foodstim60/seaweed.jpg', 'key': 'i', 'origWidth': 410, 'origHeight': 410, 'width': 410, 'height': 410, 'widthPercent': 0.45, 'rescaleHeight': False, 'trialN': 32, 'loaded': True, 'loadedTime': 4656.5, 'positionName': 'RIGHT', 'positionCoords': [798.72, 307], 'bid': 0.11}]",70740.90000009537,1669833943532,lox,seaweed,0.1,0.11,0.009999999999999995,seaweed,1954.1999998092651,1955,1954.8999998569489,True,i,73207.5,2466.5999999046326,1669833945999,2467,HRV,HRV_0222,2022-11-30 18:51:40
33,"[{'imgObject': {}, 'id': 'lox', 'src': '/static/foodstim60/lox.jpg', 'key': 'u', 'origWidth': 410, 'origHeight': 411, 'width': 410, 'height': 411, 'widthPercent': 0.45, 'rescaleHeight': False, 'trialN': 33, 'loaded': True, 'loadedTime': 4614.700000047684, 'positionName': 'LEFT', 'positionCoords': [327.28, 306.5], 'bid': 0.1}, {'imgObject': {}, 'id': 'chicken nuggets2', 'src': '/static/foodstim60/chicken nuggets2.jpg', 'key': 'i', 'origWidth': 410, 'origHeight': 409, 'width': 410, 'height': 409, 'widthPercent': 0.45, 'rescaleHeight': False, 'trialN': 33, 'loaded': True, 'loadedTime': 4693.099999904633, 'positionName': 'RIGHT', 'positionCoords': [798.72, 307.5], 'bid': 1.51}]",73208.09999990463,1669833945999,lox,chicken nuggets2,0.1,1.51,1.41,chicken nuggets2,1135.2000000476837,1136,1136.1000001430511,True,i,74848.79999995232,1640.7000000476837,1669833947640,1641,HRV,HRV_0222,2022-11-30 18:51:40
34,"[{'imgObject': {}, 'id': 'veggieswithdip', 'src': '/static/foodstim60/veggieswithdip.jpg', 'key': 'u', 'origWidth': 409, 'origHeight': 409, 'width': 409, 'height': 409, 'widthPercent': 0.45, 'rescaleHeight': False, 'trialN': 34, 'loaded': True, 'loadedTime': 3868.4000000953674, 'positionName': 'LEFT', 'positionCoords': [328.28, 307.5], 'bid': 6.11}, {'imgObject': {}, 'id': 'yogurt no spoon', 'src': '/static/foodstim60/yogurt no spoon.jpg', 'key': 'i', 'origWidth': 411, 'origHeight': 410, 'width': 411, 'height': 410, 'widthPercent': 0.45, 'rescaleHeight': False, 'trialN': 34, 'loaded': True, 'loadedTime': 4695.900000095367, 'positionName': 'RIGHT', 'positionCoords': [798.72, 307], 'bid': 4.9}]",74849.20000004768,1669833947640,veggieswithdip,yogurt no spoon,6.11,4.9,-1.21,veggieswithdip,1963.3999998569489,1964,1964.0999999046326,True,u,77328.59999990463,2479.399999856949,1669833950120,2480,HRV,HRV_0222,2022-11-30 18:51:40
35,"[{'imgObject': {}, 'id': 'strawberries', 'src': '/static/foodstim60/strawberries.jpg', 'key': 'u', 'origWidth': 410, 'origHeight': 410, 'width': 410, 'height': 410, 'widthPercent': 0.45, 'rescaleHeight': False, 'trialN': 35, 'loaded': True, 'loadedTime': 3707.7000000476837, 'positionName': 'LEFT', 'positionCoords': [327.28, 307], 'bid': 9.92}, {'imgObject': {}, 'id': 'burrito', 'src': '/static/foodstim60/burrito.jpg', 'key': 'i', 'origWidth': 410, 'origHeight': 410, 'width': 410, 'height': 410, 'widthPercent': 0.45, 'rescaleHeight': False, 'trialN': 35, 'loaded': True, 'loadedTime': 3959.0999999046326, 'positionName': 'RIGHT', 'positionCoords': [798.72, 307], 'bid': 7.85}]",77328.90000009537,1669833950120,strawberries,burrito,9.92,7.85,-2.0700000000000003,strawberries,863.0999999046326,864,863.6999998092651,True,u,78709.59999990463,1380.6999998092651,1669833951501,1381,HRV,HRV_0222,2022-11-30 18:51:40
36,"[{'imgObject': {}, 'id': 'orange slices', 'src': '/static/foodstim60/orange slices.jpg', 'key': 'u', 'origWidth': 409, 'origHeight': 410, 'width': 409, 'height': 410, 'widthPercent': 0.45, 'rescaleHeight': False, 'trialN': 36, 'loaded': True, 'loadedTime': 4239.700000047684, 'positionName': 'LEFT', 'positionCoords': [328.28, 307], 'bid': 7.96}, {'imgObject': {}, 'id': 'avocado', 'src': '/static/foodstim60/avocado.jpg', 'key': 'i', 'origWidth': 409, 'origHeight': 409, 'width': 409, 'height': 409, 'widthPercent': 0.45, 'rescaleHeight': False, 'trialN': 36, 'loaded': True, 'loadedTime': 4744.200000047684, 'positionName': 'RIGHT', 'positionCoords': [798.72, 307.5], 'bid': 9.94}]",78710.29999995232,1669833951501,orange slices,avocado,7.96,9.94,1.9799999999999995,avocado,1303.1000001430511,1304,1303.7999999523163,True,i,80521.40000009537,1811.1000001430511,1669833953312,1811,HRV,HRV_0222,2022-11-30 18:51:40
37,"[{'imgObject': {}, 'id': 'raisin bran w milk', 'src': '/static/foodstim60/raisin bran w milk.jpg', 'key': 'u', 'origWidth': 411, 'origHeight': 411, 'width': 411, 'height': 411, 'widthPercent': 0.45, 'rescaleHeight': False, 'trialN': 37, 'loaded': True, 'loadedTime': 4608.299999952316, 'positionName': 'LEFT', 'positionCoords': [326.28, 306.5], 'bid': 5.49}, {'imgObject': {}, 'id': 'hashbrowns', 'src': '/static/foodstim60/hashbrowns.jpg', 'key': 'i', 'origWidth': 411, 'origHeight': 410, 'width': 411, 'height': 410, 'widthPercent': 0.45, 'rescaleHeight': False, 'trialN': 37, 'loaded': True, 'loadedTime': 4186, 'positionName': 'RIGHT', 'positionCoords': [798.72, 307], 'bid': 5.44}]",80521.90000009537,1669833953313,raisin bran w milk,hashbrowns,5.49,5.44,-0.04999999999999982,raisin bran w milk,2927.2999999523163,2928,2927.899999856949,True,u,83955.5,3433.5999999046326,1669833956751,3438,HRV,HRV_0222,2022-11-30 18:51:40
38,"[{'imgObject': {}, 'id': 'raisin bran w milk', 'src': '/static/foodstim60/raisin bran w milk.jpg', 'key': 'u', 'origWidth': 411, 'origHeight': 411, 'width': 411, 'height': 411, 'widthPercent': 0.45, 'rescaleHeight': False, 'trialN': 38, 'loaded': True, 'loadedTime': 4613.799999952316, 'positionName': 'LEFT', 'positionCoords': [326.28, 306.5], 'bid': 5.49}, {'imgObject': {}, 'id': 'mashed potato', 'src': '/static/foodstim60/mashed potato.jpg', 'key': 'i', 'origWidth': 409, 'origHeight': 409, 'width': 409, 'height': 409, 'widthPercent': 0.45, 'rescaleHeight': False, 'trialN': 38, 'loaded': True, 'loadedTime': 4518.900000095367, 'positionName': 'RIGHT', 'positionCoords': [798.72, 307.5], 'bid': 6.18}]",83956.0,1669833956752,raisin bran w milk,mashed potato,5.49,6.18,0.6899999999999995,mashed potato,714.2999999523163,714,714.7999999523163,True,i,85181.29999995232,1225.2999999523163,1669833957977,1225,HRV,HRV_0222,2022-11-30 18:51:40
39,"[{'imgObject': {}, 'id': 'rigatoni and sauce', 'src': '/static/foodstim60/rigatoni and sauce.jpg', 'key': 'u', 'origWidth': 410, 'origHeight': 411, 'width': 410, 'height': 411, 'widthPercent': 0.45, 'rescaleHeight': False, 'trialN': 39, 'loaded': True, 'loadedTime': 4748.400000095367, 'positionName': 'LEFT', 'positionCoords': [327.28, 306.5], 'bid': 2.76}, {'imgObject': {}, 'id': 'eggsalad', 'src': '/static/foodstim60/eggsalad.jpg', 'key': 'i', 'origWidth': 410, 'origHeight': 409, 'width': 410, 'height': 409, 'widthPercent': 0.45, 'rescaleHeight': False, 'trialN': 39, 'loaded': True, 'loadedTime': 4079.5, 'positionName': 'RIGHT', 'positionCoords': [798.72, 307.5], 'bid': 2.69}]",85181.79999995232,1669833957977,rigatoni and sauce,eggsalad,2.76,2.69,-0.06999999999999984,eggsalad,1468.5,1469,1469.0,True,i,87161.29999995232,1979.5,1669833959957,1980,HRV,HRV_0222,2022-11-30 18:51:40
40,"[{'imgObject': {}, 'id': 'kiwi', 'src': '/static/foodstim60/kiwi.jpg', 'key': 'u', 'origWidth': 410, 'origHeight': 410, 'width': 410, 'height': 410, 'widthPercent': 0.45, 'rescaleHeight': False, 'trialN': 40, 'loaded': True, 'loadedTime': 4751.5, 'positionName': 'LEFT', 'positionCoords': [327.28, 307], 'bid': 0.46}, {'imgObject': {}, 'id': 'seaweed', 'src': '/static/foodstim60/seaweed.jpg', 'key': 'i', 'origWidth': 410, 'origHeight': 410, 'width': 410, 'height': 410, 'widthPercent': 0.45, 'rescaleHeight': False, 'trialN': 40, 'loaded': True, 'loadedTime': 4656.799999952316, 'positionName': 'RIGHT', 'positionCoords': [798.72, 307], 'bid': 0.11}]",87161.70000004768,1669833959957,kiwi,seaweed,0.46,0.11,-0.35000000000000003,kiwi,1153.7999999523163,1155,1154.2999999523163,True,u,88832.09999990463,1670.3999998569489,1669833961628,1671,HRV,HRV_0222,2022-11-30 18:51:40
41,"[{'imgObject': {}, 'id': 'blackbeanswithrice', 'src': '/static/foodstim60/blackbeanswithrice.jpg', 'key': 'u', 'origWidth': 410, 'origHeight': 410, 'width': 410, 'height': 410, 'widthPercent': 0.45, 'rescaleHeight': False, 'trialN': 41, 'loaded': True, 'loadedTime': 3578.4000000953674, 'positionName': 'LEFT', 'positionCoords': [327.28, 307], 'bid': 6.58}, {'imgObject': {}, 'id': 'cherry tomato', 'src': '/static/foodstim60/cherry tomato.jpg', 'key': 'i', 'origWidth': 410, 'origHeight': 410, 'width': 410, 'height': 410, 'widthPercent': 0.45, 'rescaleHeight': False, 'trialN': 41, 'loaded': True, 'loadedTime': 4509.299999952316, 'positionName': 'RIGHT', 'positionCoords': [798.72, 307], 'bid': 0.13}]",88832.40000009537,1669833961628,blackbeanswithrice,cherry tomato,6.58,0.13,-6.45,blackbeanswithrice,1771.1999998092651,1772,1771.5999999046326,True,u,91126.5,2294.0999999046326,1669833963922,2294,HRV,HRV_0222,2022-11-30 18:51:40
42,"[{'imgObject': {}, 'id': 'fried eggs', 'src': '/static/foodstim60/fried eggs.jpg', 'key': 'u', 'origWidth': 410, 'origHeight': 410, 'width': 410, 'height': 410, 'widthPercent': 0.45, 'rescaleHeight': False, 'trialN': 42, 'loaded': True, 'loadedTime': 3531.5999999046326, 'positionName': 'LEFT', 'positionCoords': [327.28, 307], 'bid': 7.08}, {'imgObject': {}, 'id': 'roastedpotatoes', 'src': '/static/foodstim60/roastedpotatoes.jpg', 'key': 'i', 'origWidth': 409, 'origHeight': 410, 'width': 409, 'height': 410, 'widthPercent': 0.45, 'rescaleHeight': False, 'trialN': 42, 'loaded': True, 'loadedTime': 3954, 'positionName': 'RIGHT', 'positionCoords': [798.72, 307], 'bid': 7.03}]",91126.90000009537,1669833963922,fried eggs,roastedpotatoes,7.08,7.03,-0.04999999999999982,fried eggs,1283.5,1284,1283.8999998569489,True,u,92923.09999990463,1796.1999998092651,1669833965719,1797,HRV,HRV_0222,2022-11-30 18:51:40
43,"[{'imgObject': {}, 'id': 'rigatoni', 'src': '/static/foodstim60/rigatoni.jpg', 'key': 'u', 'origWidth': 411, 'origHeight': 411, 'width': 411, 'height': 411, 'widthPercent': 0.45, 'rescaleHeight': False, 'trialN': 43, 'loaded': True, 'loadedTime': 4240.200000047684, 'positionName': 'LEFT', 'positionCoords': [326.28, 306.5], 'bid': 0.16}, {'imgObject': {}, 'id': 'tacos', 'src': '/static/foodstim60/tacos.jpg', 'key': 'i', 'origWidth': 411, 'origHeight': 411, 'width': 411, 'height': 411, 'widthPercent': 0.45, 'rescaleHeight': False, 'trialN': 43, 'loaded': True, 'loadedTime': 4567, 'positionName': 'RIGHT', 'positionCoords': [798.72, 306.5], 'bid': 4.51}]",92923.40000009537,1669833965719,rigatoni,tacos,0.16,4.51,4.35,tacos,1467.7999999523163,1469,1468.5,True,i,94906.90000009537,1983.5,1669833967703,1984,HRV,HRV_0222,2022-11-30 18:51:40
44,"[{'imgObject': {}, 'id': 'luckycharms', 'src': '/static/foodstim60/luckycharms.jpg', 'key': 'u', 'origWidth': 410, 'origHeight': 409, 'width': 410, 'height': 409, 'widthPercent': 0.45, 'rescaleHeight': False, 'trialN': 44, 'loaded': True, 'loadedTime': 4761.099999904633, 'positionName': 'LEFT', 'positionCoords': [327.28, 307.5], 'bid': 0.7000000000000001}, {'imgObject': {}, 'id': 'fried eggs', 'src': '/static/foodstim60/fried eggs.jpg', 'key': 'i', 'origWidth': 410, 'origHeight': 410, 'width': 410, 'height': 410, 'widthPercent': 0.45, 'rescaleHeight': False, 'trialN': 44, 'loaded': True, 'loadedTime': 3544, 'positionName': 'RIGHT', 'positionCoords': [798.72, 307], 'bid': 7.08}]",94907.70000004768,1669833967703,luckycharms,fried eggs,0.7000000000000001,7.08,6.38,fried eggs,1035.8999998569489,1037,1036.5,True,i,96459.20000004768,1551.5,1669833969255,1552,HRV,HRV_0222,2022-11-30 18:51:40
45,"[{'imgObject': {}, 'id': 'cantaloupe', 'src': '/static/foodstim60/cantaloupe.jpg', 'key': 'u', 'origWidth': 409, 'origHeight': 409, 'width': 409, 'height': 409, 'widthPercent': 0.45, 'rescaleHeight': False, 'trialN': 45, 'loaded': True, 'loadedTime': 4765.5, 'positionName': 'LEFT', 'positionCoords': [328.28, 307.5], 'bid': 0.14}, {'imgObject': {}, 'id': 'Tribe humus pita', 'src': '/static/foodstim60/Tribe humus pita.jpg', 'key': 'i', 'origWidth': 411, 'origHeight': 411, 'width': 411, 'height': 411, 'widthPercent': 0.45, 'rescaleHeight': False, 'trialN': 45, 'loaded': True, 'loadedTime': 3998.2000000476837, 'positionName': 'RIGHT', 'positionCoords': [798.72, 306.5], 'bid': 6.61}]",96459.59999990463,1669833969255,cantaloupe,Tribe humus pita,0.14,6.61,6.470000000000001,Tribe humus pita,1727.2000000476837,1728,1727.7000000476837,True,i,98703.59999990463,2244.0,1669833971499,2244,HRV,HRV_0222,2022-11-30 18:51:40
46,"[{'imgObject': {}, 'id': 'cantaloupe', 'src': '/static/foodstim60/cantaloupe.jpg', 'key': 'u', 'origWidth': 409, 'origHeight': 409, 'width': 409, 'height': 409, 'widthPercent': 0.45, 'rescaleHeight': False, 'trialN': 46, 'loaded': True, 'loadedTime': 4762.200000047684, 'positionName': 'LEFT', 'positionCoords': [328.28, 307.5], 'bid': 0.14}, {'imgObject': {}, 'id': 'turkeysandwich', 'src': '/static/foodstim60/turkeysandwich.jpg', 'key': 'i', 'origWidth': 409, 'origHeight': 409, 'width': 409, 'height': 409, 'widthPercent': 0.45, 'rescaleHeight': False, 'trialN': 46, 'loaded': True, 'loadedTime': 4330.900000095367, 'positionName': 'RIGHT', 'positionCoords': [798.72, 307.5], 'bid': 0.03}]",98704.0,1669833971500,cantaloupe,turkeysandwich,0.14,0.03,-0.11000000000000001,turkeysandwich,2072.0999999046326,2072,2072.7999999523163,True,i,101283.29999995232,2579.2999999523163,1669833974079,2579,HRV,HRV_0222,2022-11-30 18:51:40
47,"[{'imgObject': {}, 'id': 'shreddedwheatwithmilk', 'src': '/static/foodstim60/shreddedwheatwithmilk.jpg', 'key': 'u', 'origWidth': 410, 'origHeight': 410, 'width': 410, 'height': 410, 'widthPercent': 0.45, 'rescaleHeight': False, 'trialN': 47, 'loaded': True, 'loadedTime': 3510.9000000953674, 'positionName': 'LEFT', 'positionCoords': [327.28, 307], 'bid': 3.29}, {'imgObject': {}, 'id': 'cherry tomato', 'src': '/static/foodstim60/cherry tomato.jpg', 'key': 'i', 'origWidth': 410, 'origHeight': 410, 'width': 410, 'height': 410, 'widthPercent': 0.45, 'rescaleHeight': False, 'trialN': 47, 'loaded': True, 'loadedTime': 4509.099999904633, 'positionName': 'RIGHT', 'positionCoords': [798.72, 307], 'bid': 0.13}]",101284.0,1669833974080,shreddedwheatwithmilk,cherry tomato,3.29,0.13,-3.16,NaN,NaN,NaN,,False,NaN,105318.5,4034.5,1669833978114,4034,HRV,HRV_0222,2022-11-30 18:51:40
48,"[{'imgObject': {}, 'id': 'Tribe humus pita', 'src': '/static/foodstim60/Tribe humus pita.jpg', 'key': 'u', 'origWidth': 411, 'origHeight': 411, 'width': 411, 'height': 411, 'widthPercent': 0.45, 'rescaleHeight': False, 'trialN': 48, 'loaded': True, 'loadedTime': 4000.4000000953674, 'positionName': 'LEFT', 'positionCoords': [326.28, 306.5], 'bid': 6.61}, {'imgObject': {}, 'id': 'apple slices', 'src': '/static/foodstim60/apple slices.jpg', 'key': 'i', 'origWidth': 409, 'origHeight': 410, 'width': 409, 'height': 410, 'widthPercent': 0.45, 'rescaleHeight': False, 'trialN': 48, 'loaded': True, 'loadedTime': 4212.299999952316, 'positionName': 'RIGHT', 'positionCoords': [798.72, 307], 'bid': 6.96}]",105319.59999990463,1669833978115,Tribe humus pita,apple slices,6.61,6.96,0.34999999999999964,apple slices,1401.4000000953674,1402,1401.9000000953674,True,i,107234.29999995232,1914.7000000476837,1669833980030,1915,HRV,HRV_0222,2022-11-30 18:51:40
49,"[{'imgObject': {}, 'id': 'ice cream sundae 002', 'src': '/static/foodstim60/ice cream sundae 002.jpg', 'key': 'u', 'origWidth': 409, 'origHeight': 409, 'width': 409, 'height': 409, 'widthPercent': 0.45, 'rescaleHeight': False, 'trialN': 49, 'loaded': True, 'loadedTime': 4196.599999904633, 'positionName': 'LEFT', 'positionCoords': [328.28, 307.5], 'bid': 3.89}, {'imgObject': {}, 'id': 'mango', 'src': '/static/foodstim60/mango.jpg', 'key': 'i', 'origWidth': 411, 'origHeight': 411, 'width': 411, 'height': 411, 'widthPercent': 0.45, 'rescaleHeight': False, 'trialN': 49, 'loaded': True, 'loadedTime': 3745.7999999523163, 'positionName': 'RIGHT', 'positionCoords': [798.72, 306.5], 'bid': 9.81}]",107234.90000009537,1669833980031,ice cream sundae 002,mango,3.89,9.81,5.92,mango,971.5999999046326,972,972.2999999523163,True,i,108721.79999995232,1486.8999998569489,1669833981517,1486,HRV,HRV_0222,2022-11-30 18:51:40
50,"[{'imgObject': {}, 'id': 'bagel and cc', 'src': '/static/foodstim60/bagel and cc.jpg', 'key': 'u', 'origWidth': 410, 'origHeight': 410, 'width': 410, 'height': 410, 'widthPercent': 0.45, 'rescaleHeight': False, 'trialN': 50, 'loaded': True, 'loadedTime': 4775.599999904633, 'positionName': 'LEFT', 'positionCoords': [327.28, 307], 'bid': 6.99}, {'imgObject': {}, 'id': 'apple slices', 'src': '/static/foodstim60/apple slices.jpg', 'key': 'i', 'origWidth': 409, 'origHeight': 410, 'width': 409, 'height': 410, 'widthPercent': 0.45, 'rescaleHeight': False, 'trialN': 50, 'loaded': True, 'loadedTime': 4196.900000095367, 'positionName': 'RIGHT', 'positionCoords': [798.72, 307], 'bid': 6.96}]",108722.79999995232,1669833981518,bagel and cc,apple slices,6.99,6.96,-0.03000000000000025,apple slices,1621.4000000953674,1623,1622.2000000476837,True,i,110859.40000009537,2136.600000143051,1669833983655,2137,HRV,HRV_0222,2022-11-30 18:51:40
51,"[{'imgObject': {}, 'id': 'bagel and cc', 'src': '/static/foodstim60/bagel and cc.jpg', 'key': 'u', 'origWidth': 410, 'origHeight': 410, 'width': 410, 'height': 410, 'widthPercent': 0.45, 'rescaleHeight': False, 'trialN': 51, 'loaded': True, 'loadedTime': 4776, 'positionName': 'LEFT', 'positionCoords': [327.28, 307], 'bid': 6.99}, {'imgObject': {}, 'id': 'corn cob', 'src': '/static/foodstim60/corn cob.jpg', 'key': 'i', 'origWidth': 411, 'origHeight': 411, 'width': 411, 'height': 411, 'widthPercent': 0.45, 'rescaleHeight': False, 'trialN': 51, 'loaded': True, 'loadedTime': 3555.4000000953674, 'positionName': 'RIGHT', 'positionCoords': [798.72, 306.5], 'bid': 7.59}]",110859.70000004768,1669833983655,bagel and cc,corn cob,6.99,7.59,0.5999999999999996,corn cob,924.7000000476837,926,925.5,True,i,112302.59999990463,1442.8999998569489,1669833985098,1443,HRV,HRV_0222,2022-11-30 18:51:40
52,"[{'imgObject': {}, 'id': 'bagel and cc', 'src': '/static/foodstim60/bagel and cc.jpg', 'key': 'u', 'origWidth': 410, 'origHeight': 410, 'width': 410, 'height': 410, 'widthPercent': 0.45, 'rescaleHeight': False, 'trialN': 52, 'loaded': True, 'loadedTime': 4774.599999904633, 'positionName': 'LEFT', 'positionCoords': [327.28, 307], 'bid': 6.99}, {'imgObject': {}, 'id': 'popsicles', 'src': '/static/foodstim60/popsicles.jpg', 'key': 'i', 'origWidth': 410, 'origHeight': 410, 'width': 410, 'height': 410, 'widthPercent': 0.45, 'rescaleHeight': False, 'trialN': 52, 'loaded': True, 'loadedTime': 4884.599999904633, 'positionName': 'RIGHT', 'positionCoords': [798.72, 307], 'bid': 9.86}]",112304.09999990463,1669833985100,bagel and cc,popsicles,6.99,9.86,2.869999999999999,popsicles,605,605,605.7000000476837,True,i,113421.70000004768,1117.6000001430511,1669833986217,1117,HRV,HRV_0222,2022-11-30 18:51:40
53,"[{'imgObject': {}, 'id': 'Grapes', 'src': '/static/foodstim60/Grapes.jpg', 'key': 'u', 'origWidth': 411, 'origHeight': 411, 'width': 411, 'height': 411, 'widthPercent': 0.45, 'rescaleHeight': False, 'trialN': 53, 'loaded': True, 'loadedTime': 4179.400000095367, 'positionName': 'LEFT', 'positionCoords': [326.28, 306.5], 'bid': 9.86}, {'imgObject': {}, 'id': 'tacos', 'src': '/static/foodstim60/tacos.jpg', 'key': 'i', 'origWidth': 411, 'origHeight': 411, 'width': 411, 'height': 411, 'widthPercent': 0.45, 'rescaleHeight': False, 'trialN': 53, 'loaded': True, 'loadedTime': 4568.099999904633, 'positionName': 'RIGHT', 'positionCoords': [798.72, 306.5], 'bid': 4.51}]",113422.09999990463,1669833986218,Grapes,tacos,9.86,4.51,-5.35,Grapes,1241.5,1242,1242.0,True,u,115180.09999990463,1758.0,1669833987976,1758,HRV,HRV_0222,2022-11-30 18:51:40
54,"[{'imgObject': {}, 'id': 'hashbrowns', 'src': '/static/foodstim60/hashbrowns.jpg', 'key': 'u', 'origWidth': 411, 'origHeight': 410, 'width': 411, 'height': 410, 'widthPercent': 0.45, 'rescaleHeight': False, 'trialN': 54, 'loaded': True, 'loadedTime': 4185.099999904633, 'positionName': 'LEFT', 'positionCoords': [326.28, 307], 'bid': 5.44}, {'imgObject': {}, 'id': 'strawberries', 'src': '/static/foodstim60/strawberries.jpg', 'key': 'i', 'origWidth': 410, 'origHeight': 410, 'width': 410, 'height': 410, 'widthPercent': 0.45, 'rescaleHeight': False, 'trialN': 54, 'loaded': True, 'loadedTime': 3670.5, 'positionName': 'RIGHT', 'positionCoords': [798.72, 307], 'bid': 9.92}]",115180.70000004768,1669833987976,hashbrowns,strawberries,5.44,9.92,4.4799999999999995,strawberries,833.2999999523163,834,834.0999999046326,True,i,116532.5,1351.7999999523163,1669833989328,1352,HRV,HRV_0222,2022-11-30 18:51:40
55,"[{'imgObject': {}, 'id': 'cantaloupe', 'src': '/static/foodstim60/cantaloupe.jpg', 'key': 'u', 'origWidth': 409, 'origHeight': 409, 'width': 409, 'height': 409, 'widthPercent': 0.45, 'rescaleHeight': False, 'trialN': 55, 'loaded': True, 'loadedTime': 4765, 'positionName': 'LEFT', 'positionCoords': [328.28, 307.5], 'bid': 0.14}, {'imgObject': {}, 'id': 'eggsalad', 'src': '/static/foodstim60/eggsalad.jpg', 'key': 'i', 'origWidth': 410, 'origHeight': 409, 'width': 410, 'height': 409, 'widthPercent': 0.45, 'rescaleHeight': False, 'trialN': 55, 'loaded': True, 'loadedTime': 4095.7999999523163, 'positionName': 'RIGHT', 'positionCoords': [798.72, 307.5], 'bid': 2.69}]",116532.90000009537,1669833989328,cantaloupe,eggsalad,0.14,2.69,2.55,eggsalad,1348.6999998092651,1350,1349.2999999523163,True,i,118392.0,1859.0999999046326,1669833991188,1860,HRV,HRV_0222,2022-11-30 18:51:40
56,"[{'imgObject': {}, 'id': 'hotdog w must', 'src': '/static/foodstim60/hotdog w must.jpg', 'key': 'u', 'origWidth': 409, 'origHeight': 409, 'width': 409, 'height': 409, 'widthPercent': 0.45, 'rescaleHeight': False, 'trialN': 56, 'loaded': True, 'loadedTime': 3453.7999999523163, 'positionName': 'LEFT', 'positionCoords': [328.28, 307.5], 'bid': 3.78}, {'imgObject': {}, 'id': 'fruitsalad', 'src': '/static/foodstim60/fruitsalad.jpg', 'key': 'i', 'origWidth': 410, 'origHeight': 410, 'width': 410, 'height': 410, 'widthPercent': 0.45, 'rescaleHeight': False, 'trialN': 56, 'loaded': True, 'loadedTime': 4517.799999952316, 'positionName': 'RIGHT', 'positionCoords': [798.72, 307], 'bid': 2.59}]",118392.70000004768,1669833991188,hotdog w must,fruitsalad,3.78,2.59,-1.19,fruitsalad,1446.5,1448,1447.2000000476837,True,i,120359.20000004768,1966.5,1669833993155,1967,HRV,HRV_0222,2022-11-30 18:51:40
57,"[{'imgObject': {}, 'id': 'bagel plain', 'src': '/static/foodstim60/bagel plain.jpg', 'key': 'u', 'origWidth': 410, 'origHeight': 410, 'width': 410, 'height': 410, 'widthPercent': 0.45, 'rescaleHeight': False, 'trialN': 57, 'loaded': True, 'loadedTime': 4792, 'positionName': 'LEFT', 'positionCoords': [327.28, 307], 'bid': 3.26}, {'imgObject': {}, 'id': 'rigatoni and sauce', 'src': '/static/foodstim60/rigatoni and sauce.jpg', 'key': 'i', 'origWidth': 410, 'origHeight': 411, 'width': 410, 'height': 411, 'widthPercent': 0.45, 'rescaleHeight': False, 'trialN': 57, 'loaded': True, 'loadedTime': 4750, 'positionName': 'RIGHT', 'positionCoords': [798.72, 306.5], 'bid': 2.76}]",120359.5,1669833993155,bagel plain,rigatoni and sauce,3.26,2.76,-0.5,bagel plain,1212.0999999046326,1213,1212.7000000476837,True,u,122082.0,1722.5,1669833994878,1723,HRV,HRV_0222,2022-11-30 18:51:40
58,"[{'imgObject': {}, 'id': 'veggieswithdip', 'src': '/static/foodstim60/veggieswithdip.jpg', 'key': 'u', 'origWidth': 409, 'origHeight': 409, 'width': 409, 'height': 409, 'widthPercent': 0.45, 'rescaleHeight': False, 'trialN': 58, 'loaded': True, 'loadedTime': 3867.7999999523163, 'positionName': 'LEFT', 'positionCoords': [328.28, 307.5], 'bid': 6.11}, {'imgObject': {}, 'id': 'corn cob', 'src': '/static/foodstim60/corn cob.jpg', 'key': 'i', 'origWidth': 411, 'origHeight': 411, 'width': 411, 'height': 411, 'widthPercent': 0.45, 'rescaleHeight': False, 'trialN': 58, 'loaded': True, 'loadedTime': 3577.5999999046326, 'positionName': 'RIGHT', 'positionCoords': [798.72, 306.5], 'bid': 7.59}]",122082.20000004768,1669833994878,veggieswithdip,corn cob,6.11,7.59,1.4799999999999995,veggieswithdip,1222.5,1223,1223.2000000476837,True,u,123815.90000009537,1733.7000000476837,1669833996612,1734,HRV,HRV_0222,2022-11-30 18:51:40
59,"[{'imgObject': {}, 'id': 'luckycharms', 'src': '/static/foodstim60/luckycharms.jpg', 'key': 'u', 'origWidth': 410, 'origHeight': 409, 'width': 410, 'height': 409, 'widthPercent': 0.45, 'rescaleHeight': False, 'trialN': 59, 'loaded': True, 'loadedTime': 4760.400000095367, 'positionName': 'LEFT', 'positionCoords': [327.28, 307.5], 'bid': 0.7000000000000001}, {'imgObject': {}, 'id': 'salmon', 'src': '/static/foodstim60/salmon.jpg', 'key': 'i', 'origWidth': 410, 'origHeight': 409, 'width': 410, 'height': 409, 'widthPercent': 0.45, 'rescaleHeight': False, 'trialN': 59, 'loaded': True, 'loadedTime': 4337.900000095367, 'positionName': 'RIGHT', 'positionCoords': [798.72, 307.5], 'bid': 0.09}]",123816.29999995232,1669833996612,luckycharms,salmon,0.7000000000000001,0.09,-0.6100000000000001,luckycharms,1422.2999999523163,1423,1422.7000000476837,True,u,125744.40000009537,1928.1000001430511,1669833998540,1928,HRV,HRV_0222,2022-11-30 18:51:40
60,"[{'imgObject': {}, 'id': 'edamame', 'src': '/static/foodstim60/edamame.jpg', 'key': 'u', 'origWidth': 409, 'origHeight': 410, 'width': 409, 'height': 410, 'widthPercent': 0.45, 'rescaleHeight': False, 'trialN': 60, 'loaded': True, 'loadedTime': 3528.5999999046326, 'positionName': 'LEFT', 'positionCoords': [328.28, 307], 'bid': 9.1}, {'imgObject': {}, 'id': 'hotdog w must', 'src': '/static/foodstim60/hotdog w must.jpg', 'key': 'i', 'origWidth': 409, 'origHeight': 409, 'width': 409, 'height': 409, 'widthPercent': 0.45, 'rescaleHeight': False, 'trialN': 60, 'loaded': True, 'loadedTime': 3491, 'positionName': 'RIGHT', 'positionCoords': [798.72, 307.5], 'bid': 3.78}]",125744.70000004768,1669833998540,edamame,hotdog w must,9.1,3.78,-5.32,edamame,1092.0999999046326,1094,1093.2000000476837,True,u,127346.20000004768,1601.5,1669834000142,1602,HRV,HRV_0222,2022-11-30 18:51:40
61,"[{'imgObject': {}, 'id': 'cocktailshrimp', 'src': '/static/foodstim60/cocktailshrimp.jpg', 'key': 'u', 'origWidth': 410, 'origHeight': 410, 'width': 410, 'height': 410, 'widthPercent': 0.45, 'rescaleHeight': False, 'trialN': 61, 'loaded': True, 'loadedTime': 4067.5999999046326, 'positionName': 'LEFT', 'positionCoords': [327.28, 307], 'bid': 5.11}, {'imgObject': {}, 'id': 'baked potato', 'src': '/static/foodstim60/baked potato.jpg', 'key': 'i', 'origWidth': 409, 'origHeight': 410, 'width': 409, 'height': 410, 'widthPercent': 0.45, 'rescaleHeight': False, 'trialN': 61, 'loaded': True, 'loadedTime': 3871.5999999046326, 'positionName': 'RIGHT', 'positionCoords': [798.72, 307], 'bid': 6.11}]",127346.70000004768,1669834000142,cocktailshrimp,baked potato,5.11,6.11,1.0,baked potato,1087.7000000476837,1089,1088.2999999523163,True,i,128944.20000004768,1597.5,1669834001740,1598,HRV,HRV_0222,2022-11-30 18:51:40
62,"[{'imgObject': {}, 'id': 'granola w milk', 'src': '/static/foodstim60/granola w milk.jpg', 'key': 'u', 'origWidth': 410, 'origHeight': 410, 'width': 410, 'height': 410, 'widthPercent': 0.45, 'rescaleHeight': False, 'trialN': 62, 'loaded': True, 'loadedTime': 4792.599999904633, 'positionName': 'LEFT', 'positionCoords': [327.28, 307], 'bid': 5.72}, {'imgObject': {}, 'id': 'raspberries', 'src': '/static/foodstim60/raspberries.jpg', 'key': 'i', 'origWidth': 411, 'origHeight': 411, 'width': 411, 'height': 411, 'widthPercent': 0.45, 'rescaleHeight': False, 'trialN': 62, 'loaded': True, 'loadedTime': 4796.5, 'positionName': 'RIGHT', 'positionCoords': [798.72, 306.5], 'bid': 10}]",128944.90000009537,1669834001741,granola w milk,raspberries,5.72,10.0,4.28,raspberries,1176.5,1176,1176.8999998569489,True,i,130625.70000004768,1680.7999999523163,1669834003421,1680,HRV,HRV_0222,2022-11-30 18:51:40
63,"[{'imgObject': {}, 'id': 'mango', 'src': '/static/foodstim60/mango.jpg', 'key': 'u', 'origWidth': 411, 'origHeight': 411, 'width': 411, 'height': 411, 'widthPercent': 0.45, 'rescaleHeight': False, 'trialN': 63, 'loaded': True, 'loadedTime': 3784.0999999046326, 'positionName': 'LEFT', 'positionCoords': [326.28, 306.5], 'bid': 9.81}, {'imgObject': {}, 'id': 'popsicles', 'src': '/static/foodstim60/popsicles.jpg', 'key': 'i', 'origWidth': 410, 'origHeight': 410, 'width': 410, 'height': 410, 'widthPercent': 0.45, 'rescaleHeight': False, 'trialN': 63, 'loaded': True, 'loadedTime': 4885.099999904633, 'positionName': 'RIGHT', 'positionCoords': [798.72, 307], 'bid': 9.86}]",130625.90000009537,1669834003422,mango,popsicles,9.81,9.86,0.049999999999998934,popsicles,1340.8999998569489,1341,1341.6999998092651,True,i,132482.59999990463,1856.6999998092651,1669834005278,1856,HRV,HRV_0222,2022-11-30 18:51:40
64,"[{'imgObject': {}, 'id': 'veggieswithdip', 'src': '/static/foodstim60/veggieswithdip.jpg', 'key': 'u', 'origWidth': 409, 'origHeight': 409, 'width': 409, 'height': 409, 'widthPercent': 0.45, 'rescaleHeight': False, 'trialN': 64, 'loaded': True, 'loadedTime': 3829.2999999523163, 'positionName': 'LEFT', 'positionCoords': [328.28, 307.5], 'bid': 6.11}, {'imgObject': {}, 'id': 'turkeysandwich', 'src': '/static/foodstim60/turkeysandwich.jpg', 'key': 'i', 'origWidth': 409, 'origHeight': 409, 'width': 409, 'height': 409, 'widthPercent': 0.45, 'rescaleHeight': False, 'trialN': 64, 'loaded': True, 'loadedTime': 4335.200000047684, 'positionName': 'RIGHT', 'positionCoords': [798.72, 307.5], 'bid': 0.03}]",132482.90000009537,1669834005278,veggieswithdip,turkeysandwich,6.11,0.03,-6.08,veggieswithdip,2379.2999999523163,2380,2379.699999809265,True,u,135369.0,2886.0999999046326,1669834008165,2887,HRV,HRV_0222,2022-11-30 18:51:40
65,"[{'imgObject': {}, 'id': 'Tribe humus pita', 'src': '/static/foodstim60/Tribe humus pita.jpg', 'key': 'u', 'origWidth': 411, 'origHeight': 411, 'width': 411, 'height': 411, 'widthPercent': 0.45, 'rescaleHeight': False, 'trialN': 65, 'loaded': True, 'loadedTime': 4001.0999999046326, 'positionName': 'LEFT', 'positionCoords': [326.28, 306.5], 'bid': 6.61}, {'imgObject': {}, 'id': 'sweetpotato', 'src': '/static/foodstim60/sweetpotato.jpg', 'key': 'i', 'origWidth': 410, 'origHeight': 410, 'width': 410, 'height': 410, 'widthPercent': 0.45, 'rescaleHeight': False, 'trialN': 65, 'loaded': True, 'loadedTime': 4803.799999952316, 'positionName': 'RIGHT', 'positionCoords': [798.72, 307], 'bid': 7.23}]",135369.29999995232,1669834008165,Tribe humus pita,sweetpotato,6.61,7.23,0.6200000000000001,Tribe humus pita,1789.4000000953674,1790,1790.1000001430511,True,u,137664.40000009537,2295.100000143051,1669834010460,2295,HRV,HRV_0222,2022-11-30 18:51:40
66,"[{'imgObject': {}, 'id': 'raspberries', 'src': '/static/foodstim60/raspberries.jpg', 'key': 'u', 'origWidth': 411, 'origHeight': 411, 'width': 411, 'height': 411, 'widthPercent': 0.45, 'rescaleHeight': False, 'trialN': 66, 'loaded': True, 'loadedTime': 4803.599999904633, 'positionName': 'LEFT', 'positionCoords': [326.28, 306.5], 'bid': 10}, {'imgObject': {}, 'id': 'avocado', 'src': '/static/foodstim60/avocado.jpg', 'key': 'i', 'origWidth': 409, 'origHeight': 409, 'width': 409, 'height': 409, 'widthPercent': 0.45, 'rescaleHeight': False, 'trialN': 66, 'loaded': True, 'loadedTime': 4735.299999952316, 'positionName': 'RIGHT', 'positionCoords': [798.72, 307.5], 'bid': 9.94}]",137665.0,1669834010461,raspberries,avocado,10.0,9.94,-0.0600000000000005,raspberries,1502,1503,1503.0,True,u,139672.09999990463,2007.0999999046326,1669834012468,2007,HRV,HRV_0222,2022-11-30 18:51:40
67,"[{'imgObject': {}, 'id': 'fruitsalad', 'src': '/static/foodstim60/fruitsalad.jpg', 'key': 'u', 'origWidth': 410, 'origHeight': 410, 'width': 410, 'height': 410, 'widthPercent': 0.45, 'rescaleHeight': False, 'trialN': 67, 'loaded': True, 'loadedTime': 4518.200000047684, 'positionName': 'LEFT', 'positionCoords': [327.28, 307], 'bid': 2.59}, {'imgObject': {}, 'id': 'corn cob', 'src': '/static/foodstim60/corn cob.jpg', 'key': 'i', 'origWidth': 411, 'origHeight': 411, 'width': 411, 'height': 411, 'widthPercent': 0.45, 'rescaleHeight': False, 'trialN': 67, 'loaded': True, 'loadedTime': 3575, 'positionName': 'RIGHT', 'positionCoords': [798.72, 306.5], 'bid': 7.59}]",139672.40000009537,1669834012468,fruitsalad,corn cob,2.59,7.59,5.0,fruitsalad,2955.0999999046326,2956,2955.899999856949,True,u,143140.79999995232,3468.399999856949,1669834015936,3468,HRV,HRV_0222,2022-11-30 18:51:40
68,"[{'imgObject': {}, 'id': 'froot loops w milk', 'src': '/static/foodstim60/froot loops w milk.jpg', 'key': 'u', 'origWidth': 410, 'origHeight': 410, 'width': 410, 'height': 410, 'widthPercent': 0.45, 'rescaleHeight': False, 'trialN': 68, 'loaded': True, 'loadedTime': 4811.900000095367, 'positionName': 'LEFT', 'positionCoords': [327.28, 307], 'bid': 6.11}, {'imgObject': {}, 'id': 'ice cream sundae 002', 'src': '/static/foodstim60/ice cream sundae 002.jpg', 'key': 'i', 'origWidth': 409, 'origHeight': 409, 'width': 409, 'height': 409, 'widthPercent': 0.45, 'rescaleHeight': False, 'trialN': 68, 'loaded': True, 'loadedTime': 4194, 'positionName': 'RIGHT', 'positionCoords': [798.72, 307.5], 'bid': 3.89}]",143141.70000004768,1669834015937,froot loops w milk,ice cream sundae 002,6.11,3.89,-2.22,froot loops w milk,2050.399999856949,2048,2051.2999999523163,True,u,145709.29999995232,2567.5999999046326,1669834018501,2564,HRV,HRV_0222,2022-11-30 18:51:40
69,"[{'imgObject': {}, 'id': 'sushi w_condiments', 'src': '/static/foodstim60/sushi w_condiments.jpg', 'key': 'u', 'origWidth': 410, 'origHeight': 410, 'width': 410, 'height': 410, 'widthPercent': 0.45, 'rescaleHeight': False, 'trialN': 69, 'loaded': True, 'loadedTime': 4826.900000095367, 'positionName': 'LEFT', 'positionCoords': [327.28, 307], 'bid': 7.94}, {'imgObject': {}, 'id': 'burrito', 'src': '/static/foodstim60/burrito.jpg', 'key': 'i', 'origWidth': 410, 'origHeight': 410, 'width': 410, 'height': 410, 'widthPercent': 0.45, 'rescaleHeight': False, 'trialN': 69, 'loaded': True, 'loadedTime': 3959.9000000953674, 'positionName': 'RIGHT', 'positionCoords': [798.72, 307], 'bid': 7.85}]",145710.20000004768,1669834018502,sushi w_condiments,burrito,7.94,7.85,-0.09000000000000075,sushi w_condiments,1084.3999998569489,1085,1085.0999999046326,True,u,147307.09999990463,1596.8999998569489,1669834020099,1597,HRV,HRV_0222,2022-11-30 18:51:40
70,"[{'imgObject': {}, 'id': 'cherries', 'src': '/static/foodstim60/cherries.jpg', 'key': 'u', 'origWidth': 410, 'origHeight': 411, 'width': 410, 'height': 411, 'widthPercent': 0.45, 'rescaleHeight': False, 'trialN': 70, 'loaded': True, 'loadedTime': 4830.200000047684, 'positionName': 'LEFT', 'positionCoords': [327.28, 306.5], 'bid': 9.94}, {'imgObject': {}, 'id': 'raisin bran w milk', 'src': '/static/foodstim60/raisin bran w milk.jpg', 'key': 'i', 'origWidth': 411, 'origHeight': 411, 'width': 411, 'height': 411, 'widthPercent': 0.45, 'rescaleHeight': False, 'trialN': 70, 'loaded': True, 'loadedTime': 4568.299999952316, 'positionName': 'RIGHT', 'positionCoords': [798.72, 306.5], 'bid': 5.49}]",147307.29999995232,1669834020099,cherries,raisin bran w milk,9.94,5.49,-4.449999999999999,cherries,927.2000000476837,928,927.9000000953674,True,u,148744.0,1436.7000000476837,1669834021536,1437,HRV,HRV_0222,2022-11-30 18:51:40
71,"[{'imgObject': {}, 'id': 'lox', 'src': '/static/foodstim60/lox.jpg', 'key': 'u', 'origWidth': 410, 'origHeight': 411, 'width': 410, 'height': 411, 'widthPercent': 0.45, 'rescaleHeight': False, 'trialN': 71, 'loaded': True, 'loadedTime': 4652.299999952316, 'positionName': 'LEFT', 'positionCoords': [327.28, 306.5], 'bid': 0.1}, {'imgObject': {}, 'id': 'rigatoni', 'src': '/static/foodstim60/rigatoni.jpg', 'key': 'i', 'origWidth': 411, 'origHeight': 411, 'width': 411, 'height': 411, 'widthPercent': 0.45, 'rescaleHeight': False, 'trialN': 71, 'loaded': True, 'loadedTime': 4291.799999952316, 'positionName': 'RIGHT', 'positionCoords': [798.72, 306.5], 'bid': 0.16}]",148744.40000009537,1669834021536,lox,rigatoni,0.1,0.16,0.06,rigatoni,1200.0999999046326,1201,1200.7999999523163,True,i,150460.0,1715.5999999046326,1669834023252,1716,HRV,HRV_0222,2022-11-30 18:51:40
72,"[{'imgObject': {}, 'id': 'salmon', 'src': '/static/foodstim60/salmon.jpg', 'key': 'u', 'origWidth': 410, 'origHeight': 409, 'width': 410, 'height': 409, 'widthPercent': 0.45, 'rescaleHeight': False, 'trialN': 72, 'loaded': True, 'loadedTime': 4341.299999952316, 'positionName': 'LEFT', 'positionCoords': [327.28, 307.5], 'bid': 0.09}, {'imgObject': {}, 'id': 'pear', 'src': '/static/foodstim60/pear.jpg', 'key': 'i', 'origWidth': 411, 'origHeight': 410, 'width': 411, 'height': 410, 'widthPercent': 0.45, 'rescaleHeight': False, 'trialN': 72, 'loaded': True, 'loadedTime': 4467, 'positionName': 'RIGHT', 'positionCoords': [798.72, 307], 'bid': 0.15}]",150460.40000009537,1669834023252,salmon,pear,0.09,0.15,0.06,pear,2021.0999999046326,2022,2021.6999998092651,True,i,152989.79999995232,2529.399999856949,1669834025782,2530,HRV,HRV_0222,2022-11-30 18:51:40
73,"[{'imgObject': {}, 'id': 'shreddedwheatwithmilk', 'src': '/static/foodstim60/shreddedwheatwithmilk.jpg', 'key': 'u', 'origWidth': 410, 'origHeight': 410, 'width': 410, 'height': 410, 'widthPercent': 0.45, 'rescaleHeight': False, 'trialN': 73, 'loaded': True, 'loadedTime': 3514.7999999523163, 'positionName': 'LEFT', 'positionCoords': [327.28, 307], 'bid': 3.29}, {'imgObject': {}, 'id': 'omelette', 'src': '/static/foodstim60/omelette.jpg', 'key': 'i', 'origWidth': 410, 'origHeight': 409, 'width': 410, 'height': 409, 'widthPercent': 0.45, 'rescaleHeight': False, 'trialN': 73, 'loaded': True, 'loadedTime': 4419.900000095367, 'positionName': 'RIGHT', 'positionCoords': [798.72, 307.5], 'bid': 2.57}]",152990.20000004768,1669834025782,shreddedwheatwithmilk,omelette,3.29,2.57,-0.7200000000000002,omelette,1409.3999998569489,1410,1410.0999999046326,True,i,154910.09999990463,1919.8999998569489,1669834027702,1920,HRV,HRV_0222,2022-11-30 18:51:40
74,"[{'imgObject': {}, 'id': 'salad w chicken', 'src': '/static/foodstim60/salad w chicken.jpg', 'key': 'u', 'origWidth': 411, 'origHeight': 411, 'width': 411, 'height': 411, 'widthPercent': 0.45, 'rescaleHeight': False, 'trialN': 74, 'loaded': True, 'loadedTime': 4834.599999904633, 'positionName': 'LEFT', 'positionCoords': [326.28, 306.5], 'bid': 6.5600000000000005}, {'imgObject': {}, 'id': 'blackbeanswithrice', 'src': '/static/foodstim60/blackbeanswithrice.jpg', 'key': 'i', 'origWidth': 410, 'origHeight': 410, 'width': 410, 'height': 410, 'widthPercent': 0.45, 'rescaleHeight': False, 'trialN': 74, 'loaded': True, 'loadedTime': 3620.7000000476837, 'positionName': 'RIGHT', 'positionCoords': [798.72, 307], 'bid': 6.58}]",154910.59999990463,1669834027702,salad w chicken,blackbeanswithrice,6.5600000000000005,6.58,0.019999999999999574,salad w chicken,1266.3000001907349,1267,1266.7000000476837,True,u,156693.70000004768,1783.1000001430511,1669834029485,1783,HRV,HRV_0222,2022-11-30 18:51:40
75,"[{'imgObject': {}, 'id': 'sushi w_condiments', 'src': '/static/foodstim60/sushi w_condiments.jpg', 'key': 'u', 'origWidth': 410, 'origHeight': 410, 'width': 410, 'height': 410, 'widthPercent': 0.45, 'rescaleHeight': False, 'trialN': 75, 'loaded': True, 'loadedTime': 4822.599999904633, 'positionName': 'LEFT', 'positionCoords': [327.28, 307], 'bid': 7.94}, {'imgObject': {}, 'id': 'fried eggs', 'src': '/static/foodstim60/fried eggs.jpg', 'key': 'i', 'origWidth': 410, 'origHeight': 410, 'width': 410, 'height': 410, 'widthPercent': 0.45, 'rescaleHeight': False, 'trialN': 75, 'loaded': True, 'loadedTime': 3535.7000000476837, 'positionName': 'RIGHT', 'positionCoords': [798.72, 307], 'bid': 7.08}]",156694.0,1669834029486,sushi w_condiments,fried eggs,7.94,7.08,-0.8600000000000003,sushi w_condiments,1260.7000000476837,1261,1261.4000000953674,True,u,158457.90000009537,1763.9000000953674,1669834031250,1764,HRV,HRV_0222,2022-11-30 18:51:40
76,"[{'imgObject': {}, 'id': 'raisin bran w milk', 'src': '/static/foodstim60/raisin bran w milk.jpg', 'key': 'u', 'origWidth': 411, 'origHeight': 411, 'width': 411, 'height': 411, 'widthPercent': 0.45, 'rescaleHeight': False, 'trialN': 76, 'loaded': True, 'loadedTime': 4613.400000095367, 'positionName': 'LEFT', 'positionCoords': [326.28, 306.5], 'bid': 5.49}, {'imgObject': {}, 'id': 'cheerios', 'src': '/static/foodstim60/cheerios.jpg', 'key': 'i', 'origWidth': 409, 'origHeight': 410, 'width': 409, 'height': 410, 'widthPercent': 0.45, 'rescaleHeight': False, 'trialN': 76, 'loaded': True, 'loadedTime': 3787.2000000476837, 'positionName': 'RIGHT', 'positionCoords': [798.72, 307], 'bid': 6.94}]",158458.20000004768,1669834031250,raisin bran w milk,cheerios,5.49,6.94,1.4500000000000002,cheerios,2213.2999999523163,2214,2214.0,True,i,161177.09999990463,2718.899999856949,1669834033969,2719,HRV,HRV_0222,2022-11-30 18:51:40
77,"[{'imgObject': {}, 'id': 'eggs', 'src': '/static/foodstim60/eggs.jpg', 'key': 'u', 'origWidth': 409, 'origHeight': 409, 'width': 409, 'height': 409, 'widthPercent': 0.45, 'rescaleHeight': False, 'trialN': 77, 'loaded': True, 'loadedTime': 3554.5, 'positionName': 'LEFT', 'positionCoords': [328.28, 307.5], 'bid': 7.31}, {'imgObject': {}, 'id': 'burrito', 'src': '/static/foodstim60/burrito.jpg', 'key': 'i', 'origWidth': 410, 'origHeight': 410, 'width': 410, 'height': 410, 'widthPercent': 0.45, 'rescaleHeight': False, 'trialN': 77, 'loaded': True, 'loadedTime': 3992.7000000476837, 'positionName': 'RIGHT', 'positionCoords': [798.72, 307], 'bid': 7.85}]",161177.40000009537,1669834033969,eggs,burrito,7.31,7.85,0.54,eggs,1209.7999999523163,1211,1210.3999998569489,True,u,162910.09999990463,1732.6999998092651,1669834035702,1733,HRV,HRV_0222,2022-11-30 18:51:40
78,"[{'imgObject': {}, 'id': 'avocado', 'src': '/static/foodstim60/avocado.jpg', 'key': 'u', 'origWidth': 409, 'origHeight': 409, 'width': 409, 'height': 409, 'widthPercent': 0.45, 'rescaleHeight': False, 'trialN': 78, 'loaded': True, 'loadedTime': 4743.700000047684, 'positionName': 'LEFT', 'positionCoords': [328.28, 307.5], 'bid': 9.94}, {'imgObject': {}, 'id': 'strawberries', 'src': '/static/foodstim60/strawberries.jpg', 'key': 'i', 'origWidth': 410, 'origHeight': 410, 'width': 410, 'height': 410, 'widthPercent': 0.45, 'rescaleHeight': False, 'trialN': 78, 'loaded': True, 'loadedTime': 3705.0999999046326, 'positionName': 'RIGHT', 'positionCoords': [798.72, 307], 'bid': 9.92}]",162910.5,1669834035702,avocado,strawberries,9.94,9.92,-0.019999999999999574,strawberries,714,715,714.5,True,i,164140.59999990463,1230.0999999046326,1669834036932,1230,HRV,HRV_0222,2022-11-30 18:51:40
79,"[{'imgObject': {}, 'id': 'mac & cheese', 'src': '/static/foodstim60/mac & cheese.jpg', 'key': 'u', 'origWidth': 410, 'origHeight': 410, 'width': 410, 'height': 410, 'widthPercent': 0.45, 'rescaleHeight': False, 'trialN': 79, 'loaded': True, 'loadedTime': 4838.599999904633, 'positionName': 'LEFT', 'positionCoords': [327.28, 307], 'bid': 7.29}, {'imgObject': {}, 'id': 'burger', 'src': '/static/foodstim60/burger.jpg', 'key': 'i', 'origWidth': 409, 'origHeight': 409, 'width': 409, 'height': 409, 'widthPercent': 0.45, 'rescaleHeight': False, 'trialN': 79, 'loaded': True, 'loadedTime': 4877.900000095367, 'positionName': 'RIGHT', 'positionCoords': [798.72, 307.5], 'bid': 1.97}]",164141.20000004768,1669834036933,mac & cheese,burger,7.29,1.97,-5.32,mac & cheese,1103.5999999046326,1105,1104.7000000476837,True,u,165760.5,1619.2999999523163,1669834038552,1619,HRV,HRV_0222,2022-11-30 18:51:40
80,"[{'imgObject': {}, 'id': 'baked potato', 'src': '/static/foodstim60/baked potato.jpg', 'key': 'u', 'origWidth': 409, 'origHeight': 410, 'width': 409, 'height': 410, 'widthPercent': 0.45, 'rescaleHeight': False, 'trialN': 80, 'loaded': True, 'loadedTime': 3872, 'positionName': 'LEFT', 'positionCoords': [328.28, 307], 'bid': 6.11}, {'imgObject': {}, 'id': 'salmon', 'src': '/static/foodstim60/salmon.jpg', 'key': 'i', 'origWidth': 410, 'origHeight': 409, 'width': 410, 'height': 409, 'widthPercent': 0.45, 'rescaleHeight': False, 'trialN': 80, 'loaded': True, 'loadedTime': 4340.299999952316, 'positionName': 'RIGHT', 'positionCoords': [798.72, 307.5], 'bid': 0.09}]",165761.0,1669834038553,baked potato,salmon,6.11,0.09,-6.0200000000000005,baked potato,1104.2000000476837,1105,1104.9000000953674,True,u,167369.40000009537,1608.4000000953674,1669834040161,1608,HRV,HRV_0222,2022-11-30 18:51:40
81,"[{'imgObject': {}, 'id': 'shreddedwheatwithmilk', 'src': '/static/foodstim60/shreddedwheatwithmilk.jpg', 'key': 'u', 'origWidth': 410, 'origHeight': 410, 'width': 410, 'height': 410, 'widthPercent': 0.45, 'rescaleHeight': False, 'trialN': 81, 'loaded': True, 'loadedTime': 3513.7000000476837, 'positionName': 'LEFT', 'positionCoords': [327.28, 307], 'bid': 3.29}, {'imgObject': {}, 'id': 'ice cream sundae 002', 'src': '/static/foodstim60/ice cream sundae 002.jpg', 'key': 'i', 'origWidth': 409, 'origHeight': 409, 'width': 409, 'height': 409, 'widthPercent': 0.45, 'rescaleHeight': False, 'trialN': 81, 'loaded': True, 'loadedTime': 4196.700000047684, 'positionName': 'RIGHT', 'positionCoords': [798.72, 307.5], 'bid': 3.89}]",167370.5,1669834040162,shreddedwheatwithmilk,ice cream sundae 002,3.29,3.89,0.6000000000000001,shreddedwheatwithmilk,1474.5,1475,1475.0999999046326,True,u,169367.09999990463,1996.5999999046326,1669834042159,1997,HRV,HRV_0222,2022-11-30 18:51:40
82,"[{'imgObject': {}, 'id': 'blueberries', 'src': '/static/foodstim60/blueberries.jpg', 'key': 'u', 'origWidth': 411, 'origHeight': 411, 'width': 411, 'height': 411, 'widthPercent': 0.45, 'rescaleHeight': False, 'trialN': 82, 'loaded': True, 'loadedTime': 4220, 'positionName': 'LEFT', 'positionCoords': [326.28, 306.5], 'bid': 5.62}, {'imgObject': {}, 'id': 'burger', 'src': '/static/foodstim60/burger.jpg', 'key': 'i', 'origWidth': 409, 'origHeight': 409, 'width': 409, 'height': 409, 'widthPercent': 0.45, 'rescaleHeight': False, 'trialN': 82, 'loaded': True, 'loadedTime': 4877.5, 'positionName': 'RIGHT', 'positionCoords': [798.72, 307.5], 'bid': 1.97}]",169367.5,1669834042159,blueberries,burger,5.62,1.97,-3.6500000000000004,blueberries,737.4000000953674,738,738.2000000476837,True,u,170623.5,1256.0,1669834043415,1256,HRV,HRV_0222,2022-11-30 18:51:40
83,"[{'imgObject': {}, 'id': 'eggs', 'src': '/static/foodstim60/eggs.jpg', 'key': 'u', 'origWidth': 409, 'origHeight': 409, 'width': 409, 'height': 409, 'widthPercent': 0.45, 'rescaleHeight': False, 'trialN': 83, 'loaded': True, 'loadedTime': 3545.9000000953674, 'positionName': 'LEFT', 'positionCoords': [328.28, 307.5], 'bid': 7.31}, {'imgObject': {}, 'id': 'popsicles', 'src': '/static/foodstim60/popsicles.jpg', 'key': 'i', 'origWidth': 410, 'origHeight': 410, 'width': 410, 'height': 410, 'widthPercent': 0.45, 'rescaleHeight': False, 'trialN': 83, 'loaded': True, 'loadedTime': 4884.900000095367, 'positionName': 'RIGHT', 'positionCoords': [798.72, 307], 'bid': 9.86}]",170623.79999995232,1669834043416,eggs,popsicles,7.31,9.86,2.55,popsicles,831,831,831.7999999523163,True,i,171970.09999990463,1346.2999999523163,1669834044762,1346,HRV,HRV_0222,2022-11-30 18:51:40
84,"[{'imgObject': {}, 'id': 'cherry tomato', 'src': '/static/foodstim60/cherry tomato.jpg', 'key': 'u', 'origWidth': 410, 'origHeight': 410, 'width': 410, 'height': 410, 'widthPercent': 0.45, 'rescaleHeight': False, 'trialN': 84, 'loaded': True, 'loadedTime': 4472.900000095367, 'positionName': 'LEFT', 'positionCoords': [327.28, 307], 'bid': 0.13}, {'imgObject': {}, 'id': 'fruitsalad', 'src': '/static/foodstim60/fruitsalad.jpg', 'key': 'i', 'origWidth': 410, 'origHeight': 410, 'width': 410, 'height': 410, 'widthPercent': 0.45, 'rescaleHeight': False, 'trialN': 84, 'loaded': True, 'loadedTime': 4509.599999904633, 'positionName': 'RIGHT', 'positionCoords': [798.72, 307], 'bid': 2.59}]",171970.5,1669834044762,cherry tomato,fruitsalad,0.13,2.59,2.46,fruitsalad,1487,1488,1487.5,True,i,173969.70000004768,1999.2000000476837,1669834046761,1999,HRV,HRV_0222,2022-11-30 18:51:40
85,"[{'imgObject': {}, 'id': 'omelette', 'src': '/static/foodstim60/omelette.jpg', 'key': 'u', 'origWidth': 410, 'origHeight': 409, 'width': 410, 'height': 409, 'widthPercent': 0.45, 'rescaleHeight': False, 'trialN': 85, 'loaded': True, 'loadedTime': 4425.299999952316, 'positionName': 'LEFT', 'positionCoords': [327.28, 307.5], 'bid': 2.57}, {'imgObject': {}, 'id': 'granola w milk', 'src': '/static/foodstim60/granola w milk.jpg', 'key': 'i', 'origWidth': 410, 'origHeight': 410, 'width': 410, 'height': 410, 'widthPercent': 0.45, 'rescaleHeight': False, 'trialN': 85, 'loaded': True, 'loadedTime': 4795.400000095367, 'positionName': 'RIGHT', 'positionCoords': [798.72, 307], 'bid': 5.72}]",173970.0,1669834046762,omelette,granola w milk,2.57,5.72,3.15,omelette,1085,1085,1085.7000000476837,True,u,175562.90000009537,1592.9000000953674,1669834048355,1593,HRV,HRV_0222,2022-11-30 18:51:40
86,"[{'imgObject': {}, 'id': 'blackbeanswithrice', 'src': '/static/foodstim60/blackbeanswithrice.jpg', 'key': 'u', 'origWidth': 410, 'origHeight': 410, 'width': 410, 'height': 410, 'widthPercent': 0.45, 'rescaleHeight': False, 'trialN': 86, 'loaded': True, 'loadedTime': 3619.7999999523163, 'positionName': 'LEFT', 'positionCoords': [327.28, 307], 'bid': 6.58}, {'imgObject': {}, 'id': 'granola w milk', 'src': '/static/foodstim60/granola w milk.jpg', 'key': 'i', 'origWidth': 410, 'origHeight': 410, 'width': 410, 'height': 410, 'widthPercent': 0.45, 'rescaleHeight': False, 'trialN': 86, 'loaded': True, 'loadedTime': 4795.700000047684, 'positionName': 'RIGHT', 'positionCoords': [798.72, 307], 'bid': 5.72}]",175563.40000009537,1669834048355,blackbeanswithrice,granola w milk,6.58,5.72,-0.8600000000000003,blackbeanswithrice,1449.5,1450,1450.1999998092651,True,u,177528.09999990463,1964.6999998092651,1669834050320,1965,HRV,HRV_0222,2022-11-30 18:51:40
87,"[{'imgObject': {}, 'id': 'turkey sandwich', 'src': '/static/foodstim60/turkey sandwich.jpg', 'key': 'u', 'origWidth': 409, 'origHeight': 409, 'width': 409, 'height': 409, 'widthPercent': 0.45, 'rescaleHeight': False, 'trialN': 87, 'loaded': True, 'loadedTime': 4043.2999999523163, 'positionName': 'LEFT', 'positionCoords': [328.28, 307.5], 'bid': 0.62}, {'imgObject': {}, 'id': 'olives', 'src': '/static/foodstim60/olives.jpg', 'key': 'i', 'origWidth': 410, 'origHeight': 410, 'width': 410, 'height': 410, 'widthPercent': 0.45, 'rescaleHeight': False, 'trialN': 87, 'loaded': True, 'loadedTime': 4383.700000047684, 'positionName': 'RIGHT', 'positionCoords': [798.72, 307], 'bid': 0.13}]",177528.5,1669834050320,turkey sandwich,olives,0.62,0.13,-0.49,turkey sandwich,1216.5999999046326,1218,1217.2999999523163,True,u,179254.0,1725.5,1669834052046,1726,HRV,HRV_0222,2022-11-30 18:51:40
88,"[{'imgObject': {}, 'id': 'avocado', 'src': '/static/foodstim60/avocado.jpg', 'key': 'u', 'origWidth': 409, 'origHeight': 409, 'width': 409, 'height': 409, 'widthPercent': 0.45, 'rescaleHeight': False, 'trialN': 88, 'loaded': True, 'loadedTime': 4743.299999952316, 'positionName': 'LEFT', 'positionCoords': [328.28, 307.5], 'bid': 9.94}, {'imgObject': {}, 'id': 'mango', 'src': '/static/foodstim60/mango.jpg', 'key': 'i', 'origWidth': 411, 'origHeight': 411, 'width': 411, 'height': 411, 'widthPercent': 0.45, 'rescaleHeight': False, 'trialN': 88, 'loaded': True, 'loadedTime': 3751.2000000476837, 'positionName': 'RIGHT', 'positionCoords': [798.72, 306.5], 'bid': 9.81}]",179254.29999995232,1669834052046,avocado,mango,9.94,9.81,-0.129999999999999,mango,1110.7999999523163,1112,1111.6000001430511,True,i,180871.90000009537,1617.6000001430511,1669834053664,1618,HRV,HRV_0222,2022-11-30 18:51:40
89,"[{'imgObject': {}, 'id': 'seaweed', 'src': '/static/foodstim60/seaweed.jpg', 'key': 'u', 'origWidth': 410, 'origHeight': 410, 'width': 410, 'height': 410, 'widthPercent': 0.45, 'rescaleHeight': False, 'trialN': 89, 'loaded': True, 'loadedTime': 4656.599999904633, 'positionName': 'LEFT', 'positionCoords': [327.28, 307], 'bid': 0.11}, {'imgObject': {}, 'id': 'salmon', 'src': '/static/foodstim60/salmon.jpg', 'key': 'i', 'origWidth': 410, 'origHeight': 409, 'width': 410, 'height': 409, 'widthPercent': 0.45, 'rescaleHeight': False, 'trialN': 89, 'loaded': True, 'loadedTime': 4340.400000095367, 'positionName': 'RIGHT', 'positionCoords': [798.72, 307.5], 'bid': 0.09}]",180872.20000004768,1669834053664,seaweed,salmon,0.11,0.09,-0.020000000000000004,seaweed,1961.2000000476837,1961,1961.5,True,u,183345.29999995232,2473.0999999046326,1669834056137,2473,HRV,HRV_0222,2022-11-30 18:51:40
90,"[{'imgObject': {}, 'id': 'bagel plain', 'src': '/static/foodstim60/bagel plain.jpg', 'key': 'u', 'origWidth': 410, 'origHeight': 410, 'width': 410, 'height': 410, 'widthPercent': 0.45, 'rescaleHeight': False, 'trialN': 90, 'loaded': True, 'loadedTime': 4783, 'positionName': 'LEFT', 'positionCoords': [327.28, 307], 'bid': 3.26}, {'imgObject': {}, 'id': 'burger', 'src': '/static/foodstim60/burger.jpg', 'key': 'i', 'origWidth': 409, 'origHeight': 409, 'width': 409, 'height': 409, 'widthPercent': 0.45, 'rescaleHeight': False, 'trialN': 90, 'loaded': True, 'loadedTime': 4877.799999952316, 'positionName': 'RIGHT', 'positionCoords': [798.72, 307.5], 'bid': 1.97}]",263408.7999999523,1669834136205,bagel plain,burger,3.26,1.97,-1.2899999999999998,burger,1846,1847,1847.5,True,i,265760.40000009537,2351.600000143051,1669834138556,2351,HRV,HRV_0222,2022-11-30 18:51:40
91,"[{'imgObject': {}, 'id': 'froot loops w milk', 'src': '/static/foodstim60/froot loops w milk.jpg', 'key': 'u', 'origWidth': 410, 'origHeight': 410, 'width': 410, 'height': 410, 'widthPercent': 0.45, 'rescaleHeight': False, 'trialN': 91, 'loaded': True, 'loadedTime': 4822.200000047684, 'positionName': 'LEFT', 'positionCoords': [327.28, 307], 'bid': 6.11}, {'imgObject': {}, 'id': 'salad w chicken', 'src': '/static/foodstim60/salad w chicken.jpg', 'key': 'i', 'origWidth': 411, 'origHeight': 411, 'width': 411, 'height': 411, 'widthPercent': 0.45, 'rescaleHeight': False, 'trialN': 91, 'loaded': True, 'loadedTime': 4831.799999952316, 'positionName': 'RIGHT', 'positionCoords': [798.72, 306.5], 'bid': 6.5600000000000005}]",265760.90000009537,1669834138557,froot loops w milk,salad w chicken,6.11,6.5600000000000005,0.4500000000000002,salad w chicken,1074.5,1075,1075.2999999523163,True,i,267347.90000009537,1587.0,1669834140144,1587,HRV,HRV_0222,2022-11-30 18:51:40
92,"[{'imgObject': {}, 'id': 'hashbrowns', 'src': '/static/foodstim60/hashbrowns.jpg', 'key': 'u', 'origWidth': 411, 'origHeight': 410, 'width': 411, 'height': 410, 'widthPercent': 0.45, 'rescaleHeight': False, 'trialN': 92, 'loaded': True, 'loadedTime': 4189.099999904633, 'positionName': 'LEFT', 'positionCoords': [326.28, 307], 'bid': 5.44}, {'imgObject': {}, 'id': 'yogurt no spoon', 'src': '/static/foodstim60/yogurt no spoon.jpg', 'key': 'i', 'origWidth': 411, 'origHeight': 410, 'width': 411, 'height': 410, 'widthPercent': 0.45, 'rescaleHeight': False, 'trialN': 92, 'loaded': True, 'loadedTime': 4695.700000047684, 'positionName': 'RIGHT', 'positionCoords': [798.72, 307], 'bid': 4.9}]",267348.2999999523,1669834140144,hashbrowns,yogurt no spoon,5.44,4.9,-0.54,yogurt no spoon,1219.9000000953674,1221,1220.6000001430511,True,i,269072.2000000477,1723.9000000953674,1669834141868,1724,HRV,HRV_0222,2022-11-30 18:51:40
93,"[{'imgObject': {}, 'id': 'banana', 'src': '/static/foodstim60/banana.jpg', 'key': 'u', 'origWidth': 410, 'origHeight': 410, 'width': 410, 'height': 410, 'widthPercent': 0.45, 'rescaleHeight': False, 'trialN': 93, 'loaded': True, 'loadedTime': 4880.200000047684, 'positionName': 'LEFT', 'positionCoords': [327.28, 307], 'bid': 8.24}, {'imgObject': {}, 'id': 'salad w chicken', 'src': '/static/foodstim60/salad w chicken.jpg', 'key': 'i', 'origWidth': 411, 'origHeight': 411, 'width': 411, 'height': 411, 'widthPercent': 0.45, 'rescaleHeight': False, 'trialN': 93, 'loaded': True, 'loadedTime': 4835.200000047684, 'positionName': 'RIGHT', 'positionCoords': [798.72, 306.5], 'bid': 6.5600000000000005}]",269072.7000000477,1669834141868,banana,salad w chicken,8.24,6.5600000000000005,-1.6799999999999997,salad w chicken,980.3999998569489,982,981.2000000476837,True,i,270564.2000000477,1491.5,1669834143360,1492,HRV,HRV_0222,2022-11-30 18:51:40
94,"[{'imgObject': {}, 'id': 'kiwi', 'src': '/static/foodstim60/kiwi.jpg', 'key': 'u', 'origWidth': 410, 'origHeight': 410, 'width': 410, 'height': 410, 'widthPercent': 0.45, 'rescaleHeight': False, 'trialN': 94, 'loaded': True, 'loadedTime': 4755.299999952316, 'positionName': 'LEFT', 'positionCoords': [327.28, 307], 'bid': 0.46}, {'imgObject': {}, 'id': 'bagel and cc', 'src': '/static/foodstim60/bagel and cc.jpg', 'key': 'i', 'origWidth': 410, 'origHeight': 410, 'width': 410, 'height': 410, 'widthPercent': 0.45, 'rescaleHeight': False, 'trialN': 94, 'loaded': True, 'loadedTime': 4767.5, 'positionName': 'RIGHT', 'positionCoords': [798.72, 307], 'bid': 6.99}]",270564.59999990463,1669834143360,kiwi,bagel and cc,0.46,6.99,6.53,bagel and cc,1400.9000000953674,1402,1401.6000001430511,True,i,272483.40000009537,1918.8000001907349,1669834145279,1919,HRV,HRV_0222,2022-11-30 18:51:40
95,"[{'imgObject': {}, 'id': 'seaweed', 'src': '/static/foodstim60/seaweed.jpg', 'key': 'u', 'origWidth': 410, 'origHeight': 410, 'width': 410, 'height': 410, 'widthPercent': 0.45, 'rescaleHeight': False, 'trialN': 95, 'loaded': True, 'loadedTime': 4656.200000047684, 'positionName': 'LEFT', 'positionCoords': [327.28, 307], 'bid': 0.11}, {'imgObject': {}, 'id': 'mashed potato', 'src': '/static/foodstim60/mashed potato.jpg', 'key': 'i', 'origWidth': 409, 'origHeight': 409, 'width': 409, 'height': 409, 'widthPercent': 0.45, 'rescaleHeight': False, 'trialN': 95, 'loaded': True, 'loadedTime': 4521.799999952316, 'positionName': 'RIGHT', 'positionCoords': [798.72, 307.5], 'bid': 6.18}]",272483.90000009537,1669834145280,seaweed,mashed potato,0.11,6.18,6.069999999999999,mashed potato,1124.0999999046326,1124,1124.7999999523163,True,i,274119.2000000477,1635.2999999523163,1669834146915,1635,HRV,HRV_0222,2022-11-30 18:51:40
96,"[{'imgObject': {}, 'id': 'ice cream sundae 002', 'src': '/static/foodstim60/ice cream sundae 002.jpg', 'key': 'u', 'origWidth': 409, 'origHeight': 409, 'width': 409, 'height': 409, 'widthPercent': 0.45, 'rescaleHeight': False, 'trialN': 96, 'loaded': True, 'loadedTime': 4195.099999904633, 'positionName': 'LEFT', 'positionCoords': [328.28, 307.5], 'bid': 3.89}, {'imgObject': {}, 'id': 'pear', 'src': '/static/foodstim60/pear.jpg', 'key': 'i', 'origWidth': 411, 'origHeight': 410, 'width': 411, 'height': 410, 'widthPercent': 0.45, 'rescaleHeight': False, 'trialN': 96, 'loaded': True, 'loadedTime': 4466.700000047684, 'positionName': 'RIGHT', 'positionCoords': [798.72, 307], 'bid': 0.15}]",274119.59999990463,1669834146915,ice cream sundae 002,pear,3.89,0.15,-3.74,ice cream sundae 002,2003.3000001907349,2004,2004.0,True,u,276635.0,2515.4000000953674,1669834149431,2516,HRV,HRV_0222,2022-11-30 18:51:40
97,"[{'imgObject': {}, 'id': 'chicken nuggets2', 'src': '/static/foodstim60/chicken nuggets2.jpg', 'key': 'u', 'origWidth': 410, 'origHeight': 409, 'width': 410, 'height': 409, 'widthPercent': 0.45, 'rescaleHeight': False, 'trialN': 97, 'loaded': True, 'loadedTime': 4692.099999904633, 'positionName': 'LEFT', 'positionCoords': [327.28, 307.5], 'bid': 1.51}, {'imgObject': {}, 'id': 'omelette', 'src': '/static/foodstim60/omelette.jpg', 'key': 'i', 'origWidth': 410, 'origHeight': 409, 'width': 410, 'height': 409, 'widthPercent': 0.45, 'rescaleHeight': False, 'trialN': 97, 'loaded': True, 'loadedTime': 4424.5, 'positionName': 'RIGHT', 'positionCoords': [798.72, 307.5], 'bid': 2.57}]",276635.59999990463,1669834149431,chicken nuggets2,omelette,1.51,2.57,1.0599999999999998,chicken nuggets2,1849.6000001430511,1851,1850.2000000476837,True,u,279000.40000009537,2364.800000190735,1669834151796,2365,HRV,HRV_0222,2022-11-30 18:51:40
98,"[{'imgObject': {}, 'id': 'yogurt no spoon', 'src': '/static/foodstim60/yogurt no spoon.jpg', 'key': 'u', 'origWidth': 411, 'origHeight': 410, 'width': 411, 'height': 410, 'widthPercent': 0.45, 'rescaleHeight': False, 'trialN': 98, 'loaded': True, 'loadedTime': 4696.299999952316, 'positionName': 'LEFT', 'positionCoords': [326.28, 307], 'bid': 4.9}, {'imgObject': {}, 'id': 'kiwi', 'src': '/static/foodstim60/kiwi.jpg', 'key': 'i', 'origWidth': 410, 'origHeight': 410, 'width': 410, 'height': 410, 'widthPercent': 0.45, 'rescaleHeight': False, 'trialN': 98, 'loaded': True, 'loadedTime': 4755, 'positionName': 'RIGHT', 'positionCoords': [798.72, 307], 'bid': 0.46}]",279000.7999999523,1669834151797,yogurt no spoon,kiwi,4.9,0.46,-4.44,yogurt no spoon,1560,1560,1560.5,True,u,281072.7999999523,2072.0,1669834153869,2072,HRV,HRV_0222,2022-11-30 18:51:40
99,"[{'imgObject': {}, 'id': 'steak', 'src': '/static/foodstim60/steak.jpg', 'key': 'u', 'origWidth': 410, 'origHeight': 410, 'width': 410, 'height': 410, 'widthPercent': 0.45, 'rescaleHeight': False, 'trialN': 99, 'loaded': True, 'loadedTime': 4074.2999999523163, 'positionName': 'LEFT', 'positionCoords': [327.28, 307], 'bid': 9.92}, {'imgObject': {}, 'id': 'banana', 'src': '/static/foodstim60/banana.jpg', 'key': 'i', 'origWidth': 410, 'origHeight': 410, 'width': 410, 'height': 410, 'widthPercent': 0.45, 'rescaleHeight': False, 'trialN': 99, 'loaded': True, 'loadedTime': 4880.400000095367, 'positionName': 'RIGHT', 'positionCoords': [798.72, 307], 'bid': 8.24}]",281073.2999999523,1669834153869,steak,banana,9.92,8.24,-1.6799999999999997,steak,838.7000000476837,839,839.4000000953674,True,u,282422.0,1348.7000000476837,1669834155218,1349,HRV,HRV_0222,2022-11-30 18:51:40
100,"[{'imgObject': {}, 'id': 'mac & cheese', 'src': '/static/foodstim60/mac & cheese.jpg', 'key': 'u', 'origWidth': 410, 'origHeight': 410, 'width': 410, 'height': 410, 'widthPercent': 0.45, 'rescaleHeight': False, 'trialN': 100, 'loaded': True, 'loadedTime': 4838.099999904633, 'positionName': 'LEFT', 'positionCoords': [327.28, 307], 'bid': 7.29}, {'imgObject': {}, 'id': 'avocado', 'src': '/static/foodstim60/avocado.jpg', 'key': 'i', 'origWidth': 409, 'origHeight': 409, 'width': 409, 'height': 409, 'widthPercent': 0.45, 'rescaleHeight': False, 'trialN': 100, 'loaded': True, 'loadedTime': 4743.799999952316, 'positionName': 'RIGHT', 'positionCoords': [798.72, 307.5], 'bid': 9.94}]",282422.2999999523,1669834155218,mac & cheese,avocado,7.29,9.94,2.6499999999999995,avocado,2228.2999999523163,2229,2229.100000143051,True,i,285157.40000009537,2735.100000143051,1669834157953,2735,HRV,HRV_0222,2022-11-30 18:51:40
101,"[{'imgObject': {}, 'id': 'mac & cheese', 'src': '/static/foodstim60/mac & cheese.jpg', 'key': 'u', 'origWidth': 410, 'origHeight': 410, 'width': 410, 'height': 410, 'widthPercent': 0.45, 'rescaleHeight': False, 'trialN': 101, 'loaded': True, 'loadedTime': 4837.799999952316, 'positionName': 'LEFT', 'positionCoords': [327.28, 307], 'bid': 7.29}, {'imgObject': {}, 'id': 'fried eggs', 'src': '/static/foodstim60/fried eggs.jpg', 'key': 'i', 'origWidth': 410, 'origHeight': 410, 'width': 410, 'height': 410, 'widthPercent': 0.45, 'rescaleHeight': False, 'trialN': 101, 'loaded': True, 'loadedTime': 3542.4000000953674, 'positionName': 'RIGHT', 'positionCoords': [798.72, 307], 'bid': 7.08}]",285158.09999990463,1669834157954,mac & cheese,fried eggs,7.29,7.08,-0.20999999999999996,mac & cheese,1050.3000001907349,1051,1051.0,True,u,286714.7999999523,1556.7000000476837,1669834159511,1557,HRV,HRV_0222,2022-11-30 18:51:40
102,"[{'imgObject': {}, 'id': 'steak', 'src': '/static/foodstim60/steak.jpg', 'key': 'u', 'origWidth': 410, 'origHeight': 410, 'width': 410, 'height': 410, 'widthPercent': 0.45, 'rescaleHeight': False, 'trialN': 102, 'loaded': True, 'loadedTime': 4071.5, 'positionName': 'LEFT', 'positionCoords': [327.28, 307], 'bid': 9.92}, {'imgObject': {}, 'id': 'popsicles', 'src': '/static/foodstim60/popsicles.jpg', 'key': 'i', 'origWidth': 410, 'origHeight': 410, 'width': 410, 'height': 410, 'widthPercent': 0.45, 'rescaleHeight': False, 'trialN': 102, 'loaded': True, 'loadedTime': 4884.400000095367, 'positionName': 'RIGHT', 'positionCoords': [798.72, 307], 'bid': 9.86}]",286715.40000009537,1669834159511,steak,popsicles,9.92,9.86,-0.0600000000000005,steak,1045.6999998092651,1047,1046.3999998569489,True,u,288267.09999990463,1551.6999998092651,1669834161063,1552,HRV,HRV_0222,2022-11-30 18:51:40
103,"[{'imgObject': {}, 'id': 'chicken nuggets2', 'src': '/static/foodstim60/chicken nuggets2.jpg', 'key': 'u', 'origWidth': 410, 'origHeight': 409, 'width': 410, 'height': 409, 'widthPercent': 0.45, 'rescaleHeight': False, 'trialN': 103, 'loaded': True, 'loadedTime': 4692.900000095367, 'positionName': 'LEFT', 'positionCoords': [327.28, 307.5], 'bid': 1.51}, {'imgObject': {}, 'id': 'sweetpotato', 'src': '/static/foodstim60/sweetpotato.jpg', 'key': 'i', 'origWidth': 410, 'origHeight': 410, 'width': 410, 'height': 410, 'widthPercent': 0.45, 'rescaleHeight': False, 'trialN': 103, 'loaded': True, 'loadedTime': 4806.700000047684, 'positionName': 'RIGHT', 'positionCoords': [798.72, 307], 'bid': 7.23}]",288267.90000009537,1669834161064,chicken nuggets2,sweetpotato,1.51,7.23,5.720000000000001,sweetpotato,3109.699999809265,3110,3110.399999856949,True,i,291886.2999999523,3618.399999856949,1669834164682,3618,HRV,HRV_0222,2022-11-30 18:51:40
104,"[{'imgObject': {}, 'id': 'eggs', 'src': '/static/foodstim60/eggs.jpg', 'key': 'u', 'origWidth': 409, 'origHeight': 409, 'width': 409, 'height': 409, 'widthPercent': 0.45, 'rescaleHeight': False, 'trialN': 104, 'loaded': True, 'loadedTime': 3549.2000000476837, 'positionName': 'LEFT', 'positionCoords': [328.28, 307.5], 'bid': 7.31}, {'imgObject': {}, 'id': 'apple slices', 'src': '/static/foodstim60/apple slices.jpg', 'key': 'i', 'origWidth': 409, 'origHeight': 410, 'width': 409, 'height': 410, 'widthPercent': 0.45, 'rescaleHeight': False, 'trialN': 104, 'loaded': True, 'loadedTime': 4212.5, 'positionName': 'RIGHT', 'positionCoords': [798.72, 307], 'bid': 6.96}]",291887.2999999523,1669834164683,eggs,apple slices,7.31,6.96,-0.34999999999999964,apple slices,1093.7999999523163,1095,1094.5,True,i,293502.0,1614.7000000476837,1669834166298,1615,HRV,HRV_0222,2022-11-30 18:51:40
105,"[{'imgObject': {}, 'id': 'yogurt no spoon', 'src': '/static/foodstim60/yogurt no spoon.jpg', 'key': 'u', 'origWidth': 411, 'origHeight': 410, 'width': 411, 'height': 410, 'widthPercent': 0.45, 'rescaleHeight': False, 'trialN': 105, 'loaded': True, 'loadedTime': 4693.5, 'positionName': 'LEFT', 'positionCoords': [326.28, 307], 'bid': 4.9}, {'imgObject': {}, 'id': 'cocktailshrimp', 'src': '/static/foodstim60/cocktailshrimp.jpg', 'key': 'i', 'origWidth': 410, 'origHeight': 410, 'width': 410, 'height': 410, 'widthPercent': 0.45, 'rescaleHeight': False, 'trialN': 105, 'loaded': True, 'loadedTime': 4066.4000000953674, 'positionName': 'RIGHT', 'positionCoords': [798.72, 307], 'bid': 5.11}]",293502.2999999523,1669834166298,yogurt no spoon,cocktailshrimp,4.9,5.11,0.20999999999999996,yogurt no spoon,1189.1000001430511,1190,1189.7999999523163,True,u,295204.09999990463,1701.7999999523163,1669834168000,1702,HRV,HRV_0222,2022-11-30 18:51:40
106,"[{'imgObject': {}, 'id': 'chickenfingers', 'src': '/static/foodstim60/chickenfingers.jpg', 'key': 'u', 'origWidth': 410, 'origHeight': 410, 'width': 410, 'height': 410, 'widthPercent': 0.45, 'rescaleHeight': False, 'trialN': 106, 'loaded': True, 'loadedTime': 3669.2999999523163, 'positionName': 'LEFT', 'positionCoords': [327.28, 307], 'bid': 8.48}, {'imgObject': {}, 'id': 'orange slices', 'src': '/static/foodstim60/orange slices.jpg', 'key': 'i', 'origWidth': 409, 'origHeight': 410, 'width': 409, 'height': 410, 'widthPercent': 0.45, 'rescaleHeight': False, 'trialN': 106, 'loaded': True, 'loadedTime': 4228.599999904633, 'positionName': 'RIGHT', 'positionCoords': [798.72, 307], 'bid': 7.96}]",295204.5,1669834168000,chickenfingers,orange slices,8.48,7.96,-0.5200000000000005,chickenfingers,1038.9000000953674,1040,1039.5999999046326,True,u,296765.5,1561.0,1669834169561,1561,HRV,HRV_0222,2022-11-30 18:51:40
107,"[{'imgObject': {}, 'id': 'yogurt no spoon', 'src': '/static/foodstim60/yogurt no spoon.jpg', 'key': 'u', 'origWidth': 411, 'origHeight': 410, 'width': 411, 'height': 410, 'widthPercent': 0.45, 'rescaleHeight': False, 'trialN': 107, 'loaded': True, 'loadedTime': 4696, 'positionName': 'LEFT', 'positionCoords': [326.28, 307], 'bid': 4.9}, {'imgObject': {}, 'id': 'popsicles', 'src': '/static/foodstim60/popsicles.jpg', 'key': 'i', 'origWidth': 410, 'origHeight': 410, 'width': 410, 'height': 410, 'widthPercent': 0.45, 'rescaleHeight': False, 'trialN': 107, 'loaded': True, 'loadedTime': 4882.400000095367, 'positionName': 'RIGHT', 'positionCoords': [798.72, 307], 'bid': 9.86}]",296765.90000009537,1669834169562,yogurt no spoon,popsicles,4.9,9.86,4.959999999999999,popsicles,984.7999999523163,985,985.1999998092651,True,i,298256.2999999523,1490.3999998569489,1669834171052,1490,HRV,HRV_0222,2022-11-30 18:51:40
108,"[{'imgObject': {}, 'id': 'kiwi', 'src': '/static/foodstim60/kiwi.jpg', 'key': 'u', 'origWidth': 410, 'origHeight': 410, 'width': 410, 'height': 410, 'widthPercent': 0.45, 'rescaleHeight': False, 'trialN': 108, 'loaded': True, 'loadedTime': 4756.200000047684, 'positionName': 'LEFT', 'positionCoords': [327.28, 307], 'bid': 0.46}, {'imgObject': {}, 'id': 'bagel plain', 'src': '/static/foodstim60/bagel plain.jpg', 'key': 'i', 'origWidth': 410, 'origHeight': 410, 'width': 410, 'height': 410, 'widthPercent': 0.45, 'rescaleHeight': False, 'trialN': 108, 'loaded': True, 'loadedTime': 4792.400000095367, 'positionName': 'RIGHT', 'positionCoords': [798.72, 307], 'bid': 3.26}]",298257.0,1669834171053,kiwi,bagel plain,0.46,3.26,2.8,kiwi,1181.5,1182,1182.2000000476837,True,u,299945.40000009537,1688.4000000953674,1669834172741,1688,HRV,HRV_0222,2022-11-30 18:51:40
