success,trial_type,trial_index,time_elapsed,internal_node_id,Block,TrialNumber,TrialTime,trialTimeDiff,FPS_avg,FPS_med,FPS_mode,TrialDur,winResizeTime,rt,block,button_pressed,MotCoh,MotDir,ColCoh,Color,ChoiceKey,Choice,Accuracy,RT,nFrames,FPS,PPD,missTrial,missTrialMsg,onsetDelay,fullScreenExitTime,canvCenter,TrialType,Score,BlockTrial,stimulus,button_labels,exp,subjectId,date
True,fullscreen,0,2128,0.0-0.0,0.0,1.0,,,,,,,,,,,,,,,,,,,,,,,,,,,,,,,,HRV,HRV_0222,2022-11-30 19:14:06
,wl-check-fps,1,7121,0.0-1.0,0.0,2.0,"[2824.4, 2826.8, 2838.9, 2852.4, 2868.9, 2885.7, 2905.9, 2921.7, 2940.1, 2957.3, 2970.3, 2989.5, 3004.4, 3019.7, 3035.5, 3052.5, 3069.3, 3085.8, 3103.2, 3119.3, 3136.2, 3152.9, 3169.4, 3186.1, 3203, 3219.7, 3235.4, 3252.2, 3269.3, 3285.5, 3302.8, 3320.9, 3337.1, 3353.2, 3369.2, 3389.7, 3406.3, 3421, 3436, 3454.2, 3469.6, 3489.1, 3502.8, 3520.6, 3538.2, 3553, 3569.4, 3587.1, 3603.7, 3619.4, 3638.1, 3653.2, 3670.5, 3689.6, 3703.9, 3723.6, 3739.9, 3755.5, 3770.5, 3786.9, 3802.5, 3819.8, 3836.1, 3853, 3872.1, 3888.5, 3902.9, 3919.4, 3937.3, 3952.8, 3970.4, 3989, 4002.5, 4019.6, 4038.3, 4052.9, 4069.5, 4089.5, 4104, 4119.3, 4137.1, 4154, 4170.6, 4187.8, 4204.2, 4219.7, 4238.2, 4254.1, 4270.6, 4288.6, 4304, 4320.2, 4336.1, 4352.5, 4369.8, 4386.1, 4403.8, 4419.5, 4436.2, 4452.7, 4469.5, 4486, 4502.5, 4519.6, 4536.5, 4552.7, 4569.4, 4589.1, 4602.5, 4619.9, 4636.6, 4652.9, 4670.2, 4686.6, 4702.8, 4720.6, 4740.5, 4757.4, 4772.5, 4788.7, 4805.8, 4822, 4836, 4852.4, 4869.8, 4887.4, 4902.6, 4919.8, 4935.5, 4952.1, 4969.7, 4985.9, 5002.7, 5019.3, 5036.2, 5052.8, 5069.6, 5086.2, 5102.5, 5119.3, 5136.1, 5152.7, 5169.4, 5185.8, 5202.7, 5219.2, 5236, 5252.6, 5269.5, 5286.1, 5302.4, 5319.3, 5336.1, 5352.9, 5369.2, 5386.2, 5402.4, 5419.9, 5436.8, 5453.5, 5469.3, 5486.2, 5503.6, 5519.2, 5536, 5552.9, 5569.2, 5586.2, 5603, 5619.2, 5636.1, 5652.6, 5669, 5685.7, 5702.3, 5720.2, 5735.5, 5752.7, 5769.1, 5785.9, 5802.5, 5819.2, 5835.8, 5853.5, 5871, 5888.8, 5906.2, 5919.8, 5935.3, 5952, 5968.9, 5985.5, 6002.4, 6019.1, 6035.9, 6052.5, 6069.4, 6086.8, 6102.7, 6119.3, 6136, 6152.9, 6169.8, 6186.6, 6202.6, 6219.2, 6236.1, 6252.8, 6269.4, 6286.1, 6302.7, 6319.2, 6336.8, 6352.8, 6369.2, 6386, 6403, 6419.4, 6435.9, 6453.8, 6470.4, 6490.5, 6504.5, 6520.3, 6538.7, 6556, 6570.7, 6590.9, 6603.2, 6619.6, 6638.9, 6653.1, 6673.6, 6688.8, 6705.6, 6723, 6739.8, 6753.2, 6769.6, 6787.2, 6805.9, 6820.6, 6839.7, 6853.1, 6870.4, 6888.9, 6904.2, 6920.2, 6938, 6953.3, 6970.6, 6986.2, 7003.6, 7019.1, 7035.9, 7053.2, 7068.7, 7088.2, 7102.7, 7119.4, 7136.5, 7156.2, 7171.5, 7187.3, 7202.4, 7218.8, 7235.4, 7252.1, 7269, 7285.8, 7302.5, 7319.4, 7336.3, 7353.4, 7369.7, 7385.6, 7402.7, 7419.1, 7435.7, 7452.5, 7469.2, 7485.9, 7502.6, 7519.2, 7536, 7552.5, 7569.4, 7586.1, 7602.4, 7619.3, 7635.8, 7652.4, 7669.1, 7686.1, 7702.4, 7719.2, 7735.7, 7752.5, 7769.2, 7786]","[3.8, 2.4, 12.1, 13.5, 16.5, 16.8, 20.2, 15.8, 18.4, 17.2, 13, 19.2, 14.9, 15.3, 15.8, 17, 16.8, 16.5, 17.4, 16.1, 16.9, 16.7, 16.5, 16.7, 16.9, 16.7, 15.7, 16.8, 17.1, 16.2, 17.3, 18.1, 16.2, 16.1, 16, 20.5, 16.6, 14.7, 15, 18.2, 15.4, 19.5, 13.7, 17.8, 17.6, 14.8, 16.4, 17.7, 16.6, 15.7, 18.7, 15.1, 17.3, 19.1, 14.3, 19.7, 16.3, 15.6, 15, 16.4, 15.6, 17.3, 16.3, 16.9, 19.1, 16.4, 14.4, 16.5, 17.9, 15.5, 17.6, 18.6, 13.5, 17.1, 18.7, 14.6, 16.6, 20, 14.5, 15.3, 17.8, 16.9, 16.6, 17.2, 16.4, 15.5, 18.5, 15.9, 16.5, 18, 15.4, 16.2, 15.9, 16.4, 17.3, 16.3, 17.7, 15.7, 16.7, 16.5, 16.8, 16.5, 16.5, 17.1, 16.9, 16.2, 16.7, 19.7, 13.4, 17.4, 16.7, 16.3, 17.3, 16.4, 16.2, 17.8, 19.9, 16.9, 15.1, 16.2, 17.1, 16.2, 14, 16.4, 17.4, 17.6, 15.2, 17.2, 15.7, 16.6, 17.6, 16.2, 16.8, 16.6, 16.9, 16.6, 16.8, 16.6, 16.3, 16.8, 16.8, 16.6, 16.7, 16.4, 16.9, 16.5, 16.8, 16.6, 16.9, 16.6, 16.3, 16.9, 16.8, 16.8, 16.3, 17, 16.2, 17.5, 16.9, 16.7, 15.8, 16.9, 17.4, 15.6, 16.8, 16.9, 16.3, 17, 16.8, 16.2, 16.9, 16.5, 16.4, 16.7, 16.6, 17.9, 15.3, 17.2, 16.4, 16.8, 16.6, 16.7, 16.6, 17.7, 17.5, 17.8, 17.4, 13.6, 15.5, 16.7, 16.9, 16.6, 16.9, 16.7, 16.8, 16.6, 16.9, 17.4, 15.9, 16.6, 16.7, 16.9, 16.9, 16.8, 16, 16.6, 16.9, 16.7, 16.6, 16.7, 16.6, 16.5, 17.6, 16, 16.4, 16.8, 17, 16.4, 16.5, 17.9, 16.6, 20.1, 14, 15.8, 18.4, 17.3, 14.7, 20.2, 12.3, 16.4, 19.3, 14.2, 20.5, 15.2, 16.8, 17.4, 16.8, 13.4, 16.4, 17.6, 18.7, 14.7, 19.1, 13.4, 17.3, 18.5, 15.3, 16, 17.8, 15.3, 17.3, 15.6, 17.4, 15.5, 16.8, 17.3, 15.5, 19.5, 14.5, 16.7, 17.1, 19.7, 15.3, 15.8, 15.1, 16.4, 16.6, 16.7, 16.9, 16.8, 16.7, 16.9, 16.9, 17.1, 16.3, 15.9, 17.1, 16.4, 16.6, 16.8, 16.7, 16.7, 16.7, 16.6, 16.8, 16.5, 16.9, 16.7, 16.3, 16.9, 16.5, 16.6, 16.7, 17, 16.3, 16.8, 16.5, 16.8, 16.7, 16.8]",60.0,61.0,60.0,4981.7,[],,,,,,,,,,,,,,,,,,,,,,,,,HRV,HRV_0222,2022-11-30 19:14:06
,wl-html-keyboard-response,2,18059,0.0-2.0-0.0,0.0,3.0,,,,,,,,8920.200000047684,0.0,0,,,,,,,,,,,,,,,,,,,,,,HRV,HRV_0222,2022-11-30 19:14:06
,wl-rdm,3,24560,0.0-3.0-0.0,0.0,4.0,,,,,,,[],,,,0.0,0.0,87.9,0.0,u,0.0,True,908.4000000953674,55.0,60.0,40.0,False,,3000.0,[],"[768, 512]",ColorTask_Demo,,,,,HRV,HRV_0222,2022-11-30 19:14:06
,wl-rdm,4,29226,0.0-3.0-1.0,0.0,5.0,,,,,,,[],,,,0.0,0.0,87.9,1.0,i,1.0,True,573.4000000953674,35.0,60.0,40.0,False,,2000.0,[],"[768, 512]",ColorTask_Demo,,,,,HRV,HRV_0222,2022-11-30 19:14:06
,wl-html-keyboard-response,5,33785,0.0-3.0-2.0,0.0,6.0,,,,,,,,2543.399999856949,0.0,1,,,,,,,,,,,,,,,,,,,,,,HRV,HRV_0222,2022-11-30 19:14:06
,wl-html-keyboard-response,6,44891,0.0-4.0-0.0,0.0,7.0,,,,,,,,9100.0,0.0,0,,,,,,,,,,,,,,,,,,,,,,HRV,HRV_0222,2022-11-30 19:14:06
,wl-html-keyboard-response,7,57755,0.0-5.0-0.0,0.0,8.0,,,,,,,,10843.399999856949,0.0,0,,,,,,,,,,,,,,,,,,,,,,HRV,HRV_0222,2022-11-30 19:14:06
,wl-rdm,8,59792,0.0-6.0-0.0,0.0,9.0,,,,,,,[],,,,,,87.9,0.0,u,0.0,True,725.2000000476837,44.0,60.0,40.0,False,,232.01495442640513,[],"[768, 512]",ColorTask,1.0,1.0,,,HRV,HRV_0222,2022-11-30 19:14:06
,wl-rdm,9,61808,0.0-6.1-0.1,0.0,10.0,,,,,,,[],,,,,,56.4,0.0,u,0.0,True,541.5,33.0,60.0,40.0,False,,393.2772071012519,[],"[768, 512]",ColorTask,2.0,2.0,,,HRV,HRV_0222,2022-11-30 19:14:06
,wl-rdm,10,64059,0.0-6.2-0.2,0.0,11.0,,,,,,,[],,,,,,53.2,0.0,u,0.0,True,882.7999999523163,53.0,60.0,40.0,False,,299.46042852464007,[],"[768, 512]",ColorTask,3.0,3.0,,,HRV,HRV_0222,2022-11-30 19:14:06
,wl-rdm,11,66209,0.0-6.3-0.3,0.0,12.0,,,,,,,[],,,,,,73.6,0.0,u,0.0,True,826.6000001430511,50.0,60.0,40.0,False,,249.5469613657769,[],"[768, 512]",ColorTask,4.0,4.0,,,HRV,HRV_0222,2022-11-30 19:14:06
,wl-rdm,12,68526,0.0-6.4-0.4,0.0,13.0,,,,,,,[],,,,,,53.2,1.0,u,0.0,False,989.9000000953674,60.0,60.0,40.0,False,,247.2869091442933,[],"[768, 512]",ColorTask,3.0,5.0,,,HRV,HRV_0222,2022-11-30 19:14:06
,wl-rdm,13,70692,0.0-6.5-0.5,0.0,14.0,,,,,,,[],,,,,,56.4,1.0,i,1.0,True,806.5,49.0,60.0,40.0,False,,276.1827150341944,[],"[768, 512]",ColorTask,4.0,6.0,,,HRV,HRV_0222,2022-11-30 19:14:06
,wl-rdm,14,73041,0.0-6.6-0.6,0.0,15.0,,,,,,,[],,,,,,53.2,0.0,i,1.0,False,960.6999998092651,58.0,60.0,40.0,False,,303.8954857224055,[],"[768, 512]",ColorTask,3.0,7.0,,,HRV,HRV_0222,2022-11-30 19:14:06
,wl-rdm,15,74942,0.0-6.7-0.7,0.0,16.0,,,,,,,[],,,,,,56.4,0.0,u,0.0,True,594.9000000953674,36.0,60.0,40.0,False,,219.97767839753612,[],"[768, 512]",ColorTask,4.0,8.0,,,HRV,HRV_0222,2022-11-30 19:14:06
,wl-rdm,16,76789,0.0-6.8-0.8,0.0,17.0,,,,,,,[],,,,,,50.0,0.0,u,0.0,True,506.10000014305115,31.0,60.0,40.0,False,,242.1870032602848,[],"[768, 512]",ColorTask,5.0,9.0,,,HRV,HRV_0222,2022-11-30 19:14:06
,wl-rdm,17,79240,0.0-6.9-0.9,0.0,18.0,,,,,,,[],,,,,,50.0,1.0,i,1.0,True,987.3999998569489,60.0,60.0,40.0,False,,369.79189502577117,[],"[768, 512]",ColorTask,6.0,10.0,,,HRV,HRV_0222,2022-11-30 19:14:06
,wl-rdm,18,81190,0.0-6.10-0.10,0.0,19.0,,,,,,,[],,,,,,50.0,0.0,u,0.0,True,645.9000000953674,39.0,60.0,40.0,False,,220.61819066431133,[],"[768, 512]",ColorTask,7.0,11.0,,,HRV,HRV_0222,2022-11-30 19:14:06
,wl-rdm,19,83256,0.0-6.11-0.11,0.0,20.0,,,,,,,[],,,,,,73.6,1.0,i,1.0,True,749.6000001430511,45.0,60.0,40.0,False,,248.08529946376208,[],"[768, 512]",ColorTask,8.0,12.0,,,HRV,HRV_0222,2022-11-30 19:14:06
,wl-rdm,20,85239,0.0-6.12-0.12,0.0,21.0,,,,,,,[],,,,,,87.9,1.0,i,1.0,True,529.3999996185303,32.0,60.0,40.0,False,,349.84248668252087,[],"[768, 512]",ColorTask,9.0,13.0,,,HRV,HRV_0222,2022-11-30 19:14:06
,wl-rdm,21,87273,0.0-6.13-0.13,0.0,22.0,,,,,,,[],,,,,,73.6,1.0,i,1.0,True,671.5999999046326,41.0,60.0,40.0,False,,282.29589676136203,[],"[768, 512]",ColorTask,10.0,14.0,,,HRV,HRV_0222,2022-11-30 19:14:06
,wl-rdm,22,89138,0.0-6.14-0.14,0.0,23.0,,,,,,,[],,,,,,73.6,1.0,i,1.0,True,556.1000001430511,34.0,60.0,40.0,False,,230.98806077171417,[],"[768, 512]",ColorTask,11.0,15.0,,,HRV,HRV_0222,2022-11-30 19:14:06
,wl-rdm,23,90939,0.0-6.15-0.15,0.0,24.0,,,,,,,[],,,,,,62.5,0.0,u,0.0,True,528.2999999523163,32.0,60.0,40.0,False,,203.81346973001416,[],"[768, 512]",ColorTask,12.0,16.0,,,HRV,HRV_0222,2022-11-30 19:14:06
,wl-rdm,24,92772,0.0-6.16-0.16,0.0,25.0,,,,,,,[],,,,,,73.6,1.0,u,0.0,False,521.6999998092651,32.0,60.0,40.0,False,,247.26563209988615,[],"[768, 512]",ColorTask,11.0,17.0,,,HRV,HRV_0222,2022-11-30 19:14:06
,wl-rdm,25,95122,0.0-6.17-0.17,0.0,26.0,,,,,,,[],,,,,,87.9,1.0,i,1.0,True,1043.5,63.0,60.0,40.0,False,,219.82280446890715,[],"[768, 512]",ColorTask,12.0,18.0,,,HRV,HRV_0222,2022-11-30 19:14:06
,wl-rdm,26,97305,0.0-6.18-0.18,0.0,27.0,,,,,,,[],,,,,,56.4,0.0,u,0.0,True,889.7000000476837,54.0,60.0,40.0,False,,220.88035360779904,[],"[768, 512]",ColorTask,13.0,19.0,,,HRV,HRV_0222,2022-11-30 19:14:06
,wl-rdm,27,99638,0.0-6.19-0.19,0.0,28.0,,,,,,,[],,,,,,53.2,1.0,u,0.0,False,913.3999998569489,55.0,60.0,40.0,False,,349.3913343848062,[],"[768, 512]",ColorTask,12.0,20.0,,,HRV,HRV_0222,2022-11-30 19:14:06
,wl-rdm,28,101670,0.0-6.20-0.20,0.0,29.0,,,,,,,[],,,,,,87.9,1.0,i,1.0,True,662.7000000476837,40.0,60.0,40.0,False,,308.397819043969,[],"[768, 512]",ColorTask,13.0,21.0,,,HRV,HRV_0222,2022-11-30 19:14:06
,wl-rdm,29,103821,0.0-6.21-0.21,0.0,30.0,,,,,,,[],,,,,,73.6,0.0,u,0.0,True,784.0,47.0,60.0,40.0,False,,298.5516228138993,[],"[768, 512]",ColorTask,14.0,22.0,,,HRV,HRV_0222,2022-11-30 19:14:06
,wl-rdm,30,105870,0.0-6.22-0.22,0.0,31.0,,,,,,,[],,,,,,87.9,0.0,u,0.0,True,697.7000002861023,42.0,60.0,40.0,False,,265.919475007797,[],"[768, 512]",ColorTask,15.0,23.0,,,HRV,HRV_0222,2022-11-30 19:14:06
,wl-rdm,31,108021,0.0-6.23-0.23,0.0,32.0,,,,,,,[],,,,,,87.9,0.0,u,0.0,True,688.7999999523163,42.0,60.0,40.0,False,,368.3507583277219,[],"[768, 512]",ColorTask,16.0,24.0,,,HRV,HRV_0222,2022-11-30 19:14:06
,wl-rdm,32,110270,0.0-6.24-0.24,0.0,33.0,,,,,,,[],,,,,,56.4,1.0,u,0.0,False,956.1999998092651,58.0,60.0,40.0,False,,211.72304683027582,[],"[768, 512]",ColorTask,15.0,25.0,,,HRV,HRV_0222,2022-11-30 19:14:06
,wl-rdm,33,112469,0.0-6.25-0.25,0.0,34.0,,,,,,,[],,,,,,73.6,0.0,u,0.0,True,825.7999997138977,50.0,60.0,40.0,False,,314.12121667892893,[],"[768, 512]",ColorTask,16.0,26.0,,,HRV,HRV_0222,2022-11-30 19:14:06
,wl-rdm,34,115001,0.0-6.26-0.26,0.0,35.0,,,,,,,[],,,,,,50.0,0.0,i,1.0,False,1161.7000000476837,70.0,60.0,40.0,False,,292.0554310288887,[],"[768, 512]",ColorTask,15.0,27.0,,,HRV,HRV_0222,2022-11-30 19:14:06
,wl-rdm,35,116952,0.0-6.27-0.27,0.0,36.0,,,,,,,[],,,,,,73.6,1.0,i,1.0,True,539.4000000953674,33.0,60.0,40.0,False,,329.3009444013351,[],"[768, 512]",ColorTask,16.0,28.0,,,HRV,HRV_0222,2022-11-30 19:14:06
,wl-rdm,36,118951,0.0-6.28-0.28,0.0,37.0,,,,,,,[],,,,,,62.5,0.0,u,0.0,True,572.7000000476837,35.0,60.0,40.0,False,,344.46593536024926,[],"[768, 512]",ColorTask,17.0,29.0,,,HRV,HRV_0222,2022-11-30 19:14:06
,wl-rdm,37,121168,0.0-6.29-0.29,0.0,38.0,,,,,,,[],,,,,,50.0,1.0,i,1.0,True,860.3000001907349,52.0,60.0,40.0,False,,279.3887738073379,[],"[768, 512]",ColorTask,18.0,30.0,,,HRV,HRV_0222,2022-11-30 19:14:06
,wl-rdm,38,123218,0.0-6.30-0.30,0.0,39.0,,,,,,,[],,,,,,53.2,1.0,u,0.0,False,730.7999999523163,44.0,60.0,40.0,False,,239.21416224925102,[],"[768, 512]",ColorTask,17.0,31.0,,,HRV,HRV_0222,2022-11-30 19:14:06
,wl-rdm,39,125534,0.0-6.31-0.31,0.0,40.0,,,,,,,[],,,,,,73.6,1.0,i,1.0,True,893.0,54.0,60.0,40.0,False,,347.708698569989,[],"[768, 512]",ColorTask,18.0,32.0,,,HRV,HRV_0222,2022-11-30 19:14:06
,wl-rdm,40,127550,0.0-6.32-0.32,0.0,41.0,,,,,,,[],,,,,,62.5,1.0,i,1.0,True,638.2999997138977,39.0,60.0,40.0,False,,298.792733585443,[],"[768, 512]",ColorTask,19.0,33.0,,,HRV,HRV_0222,2022-11-30 19:14:06
,wl-rdm,41,129567,0.0-6.33-0.33,0.0,42.0,,,,,,,[],,,,,,73.6,1.0,i,1.0,True,726.0,44.0,60.0,40.0,False,,215.0701077983159,[],"[768, 512]",ColorTask,20.0,34.0,,,HRV,HRV_0222,2022-11-30 19:14:06
,wl-rdm,42,131901,0.0-6.34-0.34,0.0,43.0,,,,,,,[],,,,,,73.6,0.0,u,0.0,True,877.3000001907349,53.0,60.0,40.0,False,,379.0901864185431,[],"[768, 512]",ColorTask,21.0,35.0,,,HRV,HRV_0222,2022-11-30 19:14:06
,wl-rdm,43,134200,0.0-6.35-0.35,0.0,44.0,,,,,,,[],,,,,,53.2,1.0,u,0.0,False,878.8000001907349,52.0,60.0,40.0,False,,351.1769866590473,[],"[768, 512]",ColorTask,20.0,36.0,,,HRV,HRV_0222,2022-11-30 19:14:06
,wl-rdm,44,136502,0.0-6.36-0.36,0.0,45.0,,,,,,,[],,,,,,50.0,1.0,u,0.0,False,889.3999996185303,54.0,60.0,40.0,False,,310.23162642663794,[],"[768, 512]",ColorTask,19.0,37.0,,,HRV,HRV_0222,2022-11-30 19:14:06
,wl-rdm,45,138866,0.0-6.37-0.37,0.0,46.0,,,,,,,[],,,,,,53.2,1.0,u,0.0,False,1073.7999999523163,65.0,60.0,40.0,False,,204.78255275388472,[],"[768, 512]",ColorTask,18.0,38.0,,,HRV,HRV_0222,2022-11-30 19:14:06
,wl-rdm,46,140850,0.0-6.38-0.38,0.0,47.0,,,,,,,[],,,,,,62.5,1.0,i,1.0,True,623.4000000953674,38.0,60.0,40.0,False,,288.2986442439913,[],"[768, 512]",ColorTask,19.0,39.0,,,HRV,HRV_0222,2022-11-30 19:14:06
,wl-rdm,47,142865,0.0-6.39-0.39,0.0,48.0,,,,,,,[],,,,,,62.5,1.0,i,1.0,True,658.0,40.0,60.0,40.0,False,,282.0734178597887,[],"[768, 512]",ColorTask,20.0,40.0,,,HRV,HRV_0222,2022-11-30 19:14:06
,wl-rdm,48,145000,0.0-6.40-0.40,0.0,49.0,,,,,,,[],,,,,,87.9,1.0,i,1.0,True,746.1999998092651,45.0,60.0,40.0,False,,312.32747423461353,[],"[768, 512]",ColorTask,21.0,41.0,,,HRV,HRV_0222,2022-11-30 19:14:06
,wl-rdm,49,146865,0.0-6.41-0.41,0.0,50.0,,,,,,,[],,,,,,87.9,1.0,i,1.0,True,564.1999998092651,34.0,60.0,40.0,False,,230.28585253398788,[],"[768, 512]",ColorTask,22.0,42.0,,,HRV,HRV_0222,2022-11-30 19:14:06
,wl-rdm,50,148965,0.0-6.42-0.42,0.0,51.0,,,,,,,[],,,,,,53.2,0.0,u,0.0,True,789.7000000476837,48.0,60.0,40.0,False,,222.16383637388938,[],"[768, 512]",ColorTask,23.0,43.0,,,HRV,HRV_0222,2022-11-30 19:14:06
,wl-rdm,51,151149,0.0-6.43-0.43,0.0,52.0,,,,,,,[],,,,,,62.5,0.0,u,0.0,True,739.0999999046326,45.0,60.0,40.0,False,,351.9890871793666,[],"[768, 512]",ColorTask,24.0,44.0,,,HRV,HRV_0222,2022-11-30 19:14:06
,wl-rdm,52,154048,0.0-6.44-0.44,0.0,53.0,,,,,,,[],,,,,,56.4,1.0,u,0.0,False,1591.4000000953674,96.0,60.0,40.0,False,,224.9810346721876,[],"[768, 512]",ColorTask,23.0,45.0,,,HRV,HRV_0222,2022-11-30 19:14:06
,wl-rdm,53,156598,0.0-6.45-0.45,0.0,54.0,,,,,,,[],,,,,,50.0,0.0,u,0.0,True,1123.2999999523163,68.0,60.0,40.0,False,,361.2990251983032,[],"[768, 512]",ColorTask,24.0,46.0,,,HRV,HRV_0222,2022-11-30 19:14:06
,wl-rdm,54,158798,0.0-6.46-0.46,0.0,55.0,,,,,,,[],,,,,,53.2,0.0,i,1.0,False,889.7999997138977,54.0,60.0,40.0,False,,221.56178454155022,[],"[768, 512]",ColorTask,23.0,47.0,,,HRV,HRV_0222,2022-11-30 19:14:06
,wl-rdm,55,161181,0.0-6.47-0.47,0.0,56.0,,,,,,,[],,,,,,73.6,1.0,i,1.0,True,889.9000000953674,54.0,60.0,40.0,False,,398.6042425290424,[],"[768, 512]",ColorTask,24.0,48.0,,,HRV,HRV_0222,2022-11-30 19:14:06
,wl-rdm,56,163434,0.0-6.48-0.48,0.0,57.0,,,,,,,[],,,,,,50.0,1.0,i,1.0,True,906.1999998092651,55.0,60.0,40.0,False,,255.94084645120162,[],"[768, 512]",ColorTask,25.0,49.0,,,HRV,HRV_0222,2022-11-30 19:14:06
,wl-rdm,57,165613,0.0-6.49-0.49,0.0,58.0,,,,,,,[],,,,,,87.9,1.0,i,1.0,True,739.599999666214,45.0,60.0,40.0,False,,359.1159551510136,[],"[768, 512]",ColorTask,26.0,50.0,,,HRV,HRV_0222,2022-11-30 19:14:06
,wl-rdm,58,167830,0.0-6.50-0.50,0.0,59.0,,,,,,,[],,,,,,53.2,0.0,i,1.0,False,848.3999998569489,51.0,60.0,40.0,False,,284.3570717845615,[],"[768, 512]",ColorTask,25.0,51.0,,,HRV,HRV_0222,2022-11-30 19:14:06
,wl-rdm,59,170313,0.0-6.51-0.51,0.0,60.0,,,,,,,[],,,,,,50.0,1.0,i,1.0,True,1073.3000001907349,65.0,60.0,40.0,False,,322.06591806779227,[],"[768, 512]",ColorTask,26.0,52.0,,,HRV,HRV_0222,2022-11-30 19:14:06
,wl-rdm,60,172329,0.0-6.52-0.52,0.0,61.0,,,,,,,[],,,,,,87.9,0.0,u,0.0,True,689.2000000476837,42.0,60.0,40.0,False,,250.08519811354216,[],"[768, 512]",ColorTask,27.0,53.0,,,HRV,HRV_0222,2022-11-30 19:14:06
,wl-rdm,61,174295,0.0-6.53-0.53,0.0,62.0,,,,,,,[],,,,,,56.4,0.0,u,0.0,True,527.4999997615814,32.0,60.0,40.0,False,,348.30308391953685,[],"[768, 512]",ColorTask,28.0,54.0,,,HRV,HRV_0222,2022-11-30 19:14:06
,wl-rdm,62,176514,0.0-6.54-0.54,0.0,63.0,,,,,,,[],,,,,,73.6,1.0,i,1.0,True,756.8000001907349,46.0,60.0,40.0,False,,377.5799072887438,[],"[768, 512]",ColorTask,29.0,55.0,,,HRV,HRV_0222,2022-11-30 19:14:06
,wl-rdm,63,178511,0.0-6.55-0.55,0.0,64.0,,,,,,,[],,,,,,56.4,1.0,i,1.0,True,673.3000001907349,41.0,60.0,40.0,False,,240.97667373259446,[],"[768, 512]",ColorTask,30.0,56.0,,,HRV,HRV_0222,2022-11-30 19:14:06
,wl-rdm,64,180561,0.0-6.56-0.56,0.0,65.0,,,,,,,[],,,,,,53.2,1.0,i,1.0,True,587.7000000476837,36.0,60.0,40.0,False,,370.17289286293754,[],"[768, 512]",ColorTask,31.0,57.0,,,HRV,HRV_0222,2022-11-30 19:14:06
,wl-rdm,65,182627,0.0-6.57-0.57,0.0,66.0,,,,,,,[],,,,,,53.2,0.0,u,0.0,True,709.3000001907349,43.0,60.0,40.0,False,,270.1976557104352,[],"[768, 512]",ColorTask,32.0,58.0,,,HRV,HRV_0222,2022-11-30 19:14:06
,wl-rdm,66,184710,0.0-6.58-0.58,0.0,67.0,,,,,,,[],,,,,,50.0,0.0,u,0.0,True,695.9000000953674,42.0,60.0,40.0,False,,305.997599626042,[],"[768, 512]",ColorTask,33.0,59.0,,,HRV,HRV_0222,2022-11-30 19:14:06
,wl-rdm,67,186726,0.0-6.59-0.59,0.0,68.0,,,,,,,[],,,,,,87.9,0.0,u,0.0,True,723.4000000953674,44.0,60.0,40.0,False,,225.18952453610805,[],"[768, 512]",ColorTask,34.0,60.0,,,HRV,HRV_0222,2022-11-30 19:14:06
,wl-rdm,68,188793,0.0-6.60-0.60,0.0,69.0,,,,,,,[],,,,,,73.6,0.0,u,0.0,True,639.9999997615814,39.0,60.0,40.0,False,,334.01503902422934,[],"[768, 512]",ColorTask,35.0,61.0,,,HRV,HRV_0222,2022-11-30 19:14:06
,wl-rdm,69,191193,0.0-6.61-0.61,0.0,70.0,,,,,,,[],,,,,,62.5,0.0,u,0.0,True,1127.5999999046326,68.0,60.0,40.0,False,,210.42390786068694,[],"[768, 512]",ColorTask,36.0,62.0,,,HRV,HRV_0222,2022-11-30 19:14:06
,wl-rdm,70,193126,0.0-6.62-0.62,0.0,71.0,,,,,,,[],,,,,,53.2,0.0,u,0.0,True,629.7999999523163,38.0,60.0,40.0,False,,218.7228514255722,[],"[768, 512]",ColorTask,37.0,63.0,,,HRV,HRV_0222,2022-11-30 19:14:06
,wl-rdm,71,195192,0.0-6.63-0.63,0.0,72.0,,,,,,,[],,,,,,73.6,0.0,u,0.0,True,749.5999999046326,45.0,60.0,40.0,False,,241.90563913672543,[],"[768, 512]",ColorTask,38.0,64.0,,,HRV,HRV_0222,2022-11-30 19:14:06
,wl-rdm,72,197092,0.0-6.64-0.64,0.0,73.0,,,,,,,[],,,,,,62.5,1.0,i,1.0,True,573.9000000953674,35.0,60.0,40.0,False,,246.87381158509123,[],"[768, 512]",ColorTask,39.0,65.0,,,HRV,HRV_0222,2022-11-30 19:14:06
,wl-rdm,73,198957,0.0-6.65-0.65,0.0,74.0,,,,,,,[],,,,,,50.0,1.0,i,1.0,True,524.6000001430511,32.0,60.0,40.0,False,,261.9276627100942,[],"[768, 512]",ColorTask,40.0,66.0,,,HRV,HRV_0222,2022-11-30 19:14:06
,wl-rdm,74,201241,0.0-6.66-0.66,0.0,75.0,,,,,,,[],,,,,,50.0,0.0,u,0.0,True,862.7999997138977,52.0,60.0,40.0,False,,337.2418538610995,[],"[768, 512]",ColorTask,41.0,67.0,,,HRV,HRV_0222,2022-11-30 19:14:06
,wl-rdm,75,203158,0.0-6.67-0.67,0.0,76.0,,,,,,,[],,,,,,87.9,1.0,i,1.0,True,597.5999999046326,36.0,60.0,40.0,False,,243.1034122506694,[],"[768, 512]",ColorTask,42.0,68.0,,,HRV,HRV_0222,2022-11-30 19:14:06
,wl-rdm,76,205458,0.0-6.68-0.68,0.0,77.0,,,,,,,[],,,,,,53.2,1.0,i,1.0,True,906.7999999523163,55.0,60.0,40.0,False,,309.16433900917514,[],"[768, 512]",ColorTask,43.0,69.0,,,HRV,HRV_0222,2022-11-30 19:14:06
,wl-rdm,77,207723,0.0-6.69-0.69,0.0,78.0,,,,,,,[],,,,,,73.6,0.0,u,0.0,True,883.7999999523163,53.0,60.0,40.0,False,,320.34207823159585,[],"[768, 512]",ColorTask,44.0,70.0,,,HRV,HRV_0222,2022-11-30 19:14:06
,wl-rdm,78,210407,0.0-6.70-0.70,0.0,79.0,,,,,,,[],,,,,,73.6,0.0,u,0.0,True,1257.6000001430511,76.0,60.0,40.0,False,,335.6258187294011,[],"[768, 512]",ColorTask,45.0,71.0,,,HRV,HRV_0222,2022-11-30 19:14:06
,wl-rdm,79,213307,0.0-6.71-0.71,0.0,80.0,,,,,,,[],,,,,,53.2,0.0,u,0.0,True,1525.0999999046326,92.0,60.0,40.0,False,,285.0410351722173,[],"[768, 512]",ColorTask,46.0,72.0,,,HRV,HRV_0222,2022-11-30 19:14:06
,wl-rdm,80,215556,0.0-6.72-0.72,0.0,81.0,,,,,,,[],,,,,,50.0,0.0,i,1.0,False,909.1999998092651,55.0,60.0,40.0,False,,256.4624054619483,[],"[768, 512]",ColorTask,45.0,73.0,,,HRV,HRV_0222,2022-11-30 19:14:06
,wl-rdm,81,217755,0.0-6.73-0.73,0.0,82.0,,,,,,,[],,,,,,50.0,1.0,u,0.0,False,864.0,52.0,60.0,40.0,False,,260.97083875456514,[],"[768, 512]",ColorTask,44.0,74.0,,,HRV,HRV_0222,2022-11-30 19:14:06
,wl-rdm,82,220006,0.0-6.74-0.74,0.0,83.0,,,,,,,[],,,,,,56.4,1.0,u,0.0,False,929.6000001430511,56.0,60.0,40.0,False,,250.1951873507307,[],"[768, 512]",ColorTask,43.0,75.0,,,HRV,HRV_0222,2022-11-30 19:14:06
,wl-rdm,83,222306,0.0-6.75-0.75,0.0,84.0,,,,,,,[],,,,,,56.4,0.0,i,1.0,False,992.4000000953674,60.0,60.0,40.0,False,,218.5691944555614,[],"[768, 512]",ColorTask,42.0,76.0,,,HRV,HRV_0222,2022-11-30 19:14:06
,wl-rdm,84,224672,0.0-6.76-0.76,0.0,85.0,,,,,,,[],,,,,,56.4,0.0,u,0.0,True,907.2000000476837,55.0,60.0,40.0,False,,342.07208331800985,[],"[768, 512]",ColorTask,43.0,77.0,,,HRV,HRV_0222,2022-11-30 19:14:06
,wl-rdm,85,226689,0.0-6.77-0.77,0.0,86.0,,,,,,,[],,,,,,87.9,1.0,i,1.0,True,656.2999999523163,40.0,60.0,40.0,False,,292.2832898422808,[],"[768, 512]",ColorTask,44.0,78.0,,,HRV,HRV_0222,2022-11-30 19:14:06
,wl-rdm,86,228705,0.0-6.78-0.78,0.0,87.0,,,,,,,[],,,,,,62.5,1.0,i,1.0,True,673.5,41.0,60.0,40.0,False,,252.7491595706852,[],"[768, 512]",ColorTask,45.0,79.0,,,HRV,HRV_0222,2022-11-30 19:14:06
,wl-rdm,87,230771,0.0-6.79-0.79,0.0,88.0,,,,,,,[],,,,,,62.5,0.0,i,1.0,False,648.4000000953674,39.0,60.0,40.0,False,,349.94288271229476,[],"[768, 512]",ColorTask,44.0,80.0,,,HRV,HRV_0222,2022-11-30 19:14:06
,wl-rdm,88,232988,0.0-6.80-0.80,0.0,89.0,,,,,,,[],,,,,,53.2,1.0,u,0.0,False,832.1999998092651,50.0,60.0,40.0,False,,301.3087072686603,[],"[768, 512]",ColorTask,43.0,81.0,,,HRV,HRV_0222,2022-11-30 19:14:06
,wl-rdm,89,235271,0.0-6.81-0.81,0.0,90.0,,,,,,,[],,,,,,50.0,1.0,i,1.0,True,907.7999999523163,55.0,60.0,40.0,False,,280.718756694088,[],"[768, 512]",ColorTask,44.0,82.0,,,HRV,HRV_0222,2022-11-30 19:14:06
,wl-rdm,90,237454,0.0-6.82-0.82,0.0,91.0,,,,,,,[],,,,,,62.5,1.0,i,1.0,True,773.9000000953674,47.0,60.0,40.0,False,,327.6236678945552,[],"[768, 512]",ColorTask,45.0,83.0,,,HRV,HRV_0222,2022-11-30 19:14:06
,wl-rdm,91,239554,0.0-6.83-0.83,0.0,92.0,,,,,,,[],,,,,,62.5,1.0,i,1.0,True,720.8000001907349,44.0,60.0,40.0,False,,288.7072820686264,[],"[768, 512]",ColorTask,46.0,84.0,,,HRV,HRV_0222,2022-11-30 19:14:06
,wl-rdm,92,241504,0.0-6.84-0.84,0.0,93.0,,,,,,,[],,,,,,87.9,1.0,i,1.0,True,659.1999998092651,40.0,60.0,40.0,False,,203.6665305478284,[],"[768, 512]",ColorTask,47.0,85.0,,,HRV,HRV_0222,2022-11-30 19:14:06
,wl-rdm,93,243770,0.0-6.85-0.85,0.0,94.0,,,,,,,[],,,,,,62.5,0.0,u,0.0,True,893.5999999046326,54.0,60.0,40.0,False,,296.59634821681516,[],"[768, 512]",ColorTask,48.0,86.0,,,HRV,HRV_0222,2022-11-30 19:14:06
,wl-rdm,94,245820,0.0-6.86-0.86,0.0,95.0,,,,,,,[],,,,,,87.9,0.0,u,0.0,True,762.7000000476837,46.0,60.0,40.0,False,,203.27180852764957,[],"[768, 512]",ColorTask,49.0,87.0,,,HRV,HRV_0222,2022-11-30 19:14:06
,wl-rdm,95,248303,0.0-6.87-0.87,0.0,96.0,,,,,,,[],,,,,,50.0,0.0,i,1.0,False,1120.8999998569489,68.0,60.0,40.0,False,,251.89553374673613,[],"[768, 512]",ColorTask,48.0,88.0,,,HRV,HRV_0222,2022-11-30 19:14:06
,wl-rdm,96,250353,0.0-6.88-0.88,0.0,97.0,,,,,,,[],,,,,,87.9,0.0,u,0.0,True,639.5,39.0,60.0,40.0,False,,322.29972394954837,[],"[768, 512]",ColorTask,49.0,89.0,,,HRV,HRV_0222,2022-11-30 19:14:06
,wl-rdm,97,252470,0.0-6.89-0.89,0.0,98.0,,,,,,,[],,,,,,56.4,0.0,u,0.0,True,786.8000001907349,48.0,60.0,40.0,False,,248.30047040404014,[],"[768, 512]",ColorTask,50.0,90.0,,,HRV,HRV_0222,2022-11-30 19:14:06
,wl-rdm,98,254803,0.0-6.90-0.90,0.0,99.0,,,,,,,[],,,,,,56.4,0.0,u,0.0,True,1059.5,64.0,60.0,40.0,False,,202.74133476051568,[],"[768, 512]",ColorTask,51.0,91.0,,,HRV,HRV_0222,2022-11-30 19:14:06
,wl-rdm,99,256719,0.0-6.91-0.91,0.0,100.0,,,,,,,[],,,,,,62.5,0.0,u,0.0,True,539.2999999523163,33.0,60.0,40.0,False,,267.84578798895456,[],"[768, 512]",ColorTask,52.0,92.0,,,HRV,HRV_0222,2022-11-30 19:14:06
,wl-rdm,100,258668,0.0-6.92-0.92,0.0,101.0,,,,,,,[],,,,,,56.4,1.0,i,1.0,True,495.2999999523163,30.0,60.0,40.0,False,,368.9276825285832,[],"[768, 512]",ColorTask,53.0,93.0,,,HRV,HRV_0222,2022-11-30 19:14:06
,wl-rdm,101,261001,0.0-6.93-0.93,0.0,102.0,,,,,,,[],,,,,,62.5,1.0,i,1.0,True,1030.3999998569489,62.0,60.0,40.0,False,,206.5094543019509,[],"[768, 512]",ColorTask,54.0,94.0,,,HRV,HRV_0222,2022-11-30 19:14:06
,wl-rdm,102,263234,0.0-6.94-0.94,0.0,103.0,,,,,,,[],,,,,,50.0,1.0,u,0.0,False,791.6000001430511,48.0,60.0,40.0,False,,352.38695524443096,[],"[768, 512]",ColorTask,53.0,95.0,,,HRV,HRV_0222,2022-11-30 19:14:06
,wl-rdm,103,265318,0.0-6.95-0.95,0.0,104.0,,,,,,,[],,,,,,62.5,1.0,i,1.0,True,740.5,45.0,60.0,40.0,False,,257.97149057842904,[],"[768, 512]",ColorTask,54.0,96.0,,,HRV,HRV_0222,2022-11-30 19:14:06
,wl-rdm,104,267717,0.0-6.96-0.96,0.0,105.0,,,,,,,[],,,,,,56.4,1.0,i,1.0,True,973.2999997138977,59.0,60.0,40.0,False,,341.8657725719812,[],"[768, 512]",ColorTask,55.0,97.0,,,HRV,HRV_0222,2022-11-30 19:14:06
,wl-rdm,105,270101,0.0-6.97-0.97,0.0,106.0,,,,,,,[],,,,,,56.4,1.0,i,1.0,True,956.9999997615814,58.0,60.0,40.0,False,,331.31367245583715,[],"[768, 512]",ColorTask,56.0,98.0,,,HRV,HRV_0222,2022-11-30 19:14:06
,wl-rdm,106,272367,0.0-6.98-0.98,0.0,107.0,,,,,,,[],,,,,,87.9,0.0,u,0.0,True,798.5999999046326,48.0,60.0,40.0,False,,396.25448982091837,[],"[768, 512]",ColorTask,57.0,99.0,,,HRV,HRV_0222,2022-11-30 19:14:06
,wl-rdm,107,274783,0.0-6.99-0.99,0.0,108.0,,,,,,,[],,,,,,62.5,0.0,u,0.0,True,1023.8000001907349,62.0,60.0,40.0,False,,313.9491696408039,[],"[768, 512]",ColorTask,58.0,100.0,,,HRV,HRV_0222,2022-11-30 19:14:06
,wl-rdm,108,276983,0.0-6.100-0.100,0.0,109.0,,,,,,,[],,,,,,56.4,1.0,i,1.0,True,858.3999998569489,52.0,60.0,40.0,False,,253.20582228511273,[],"[768, 512]",ColorTask,59.0,101.0,,,HRV,HRV_0222,2022-11-30 19:14:06
,wl-rdm,109,278866,0.0-6.101-0.101,0.0,110.0,,,,,,,[],,,,,,53.2,0.0,i,1.0,False,505.60000014305115,31.0,60.0,40.0,False,,307.68496334677417,[],"[768, 512]",ColorTask,58.0,102.0,,,HRV,HRV_0222,2022-11-30 19:14:06
,wl-rdm,110,280699,0.0-6.102-0.102,0.0,111.0,,,,,,,[],,,,,,50.0,0.0,u,0.0,True,515.0,31.0,60.0,40.0,False,,263.5726702062868,[],"[768, 512]",ColorTask,59.0,103.0,,,HRV,HRV_0222,2022-11-30 19:14:06
,wl-rdm,111,282599,0.0-6.103-0.103,0.0,112.0,,,,,,,[],,,,,,73.6,0.0,u,0.0,True,572.2000000476837,35.0,60.0,40.0,False,,266.9241219493251,[],"[768, 512]",ColorTask,60.0,104.0,,,HRV,HRV_0222,2022-11-30 19:14:06
,wl-rdm,112,284565,0.0-6.104-0.104,0.0,113.0,,,,,,,[],,,,,,56.4,0.0,u,0.0,True,645.5,39.0,60.0,40.0,False,,220.39048790478526,[],"[768, 512]",ColorTask,61.0,105.0,,,HRV,HRV_0222,2022-11-30 19:14:06
,wl-rdm,113,286515,0.0-6.105-0.105,0.0,114.0,,,,,,,[],,,,,,53.2,1.0,u,0.0,False,623.2999999523163,38.0,60.0,40.0,False,,266.1165987894568,[],"[768, 512]",ColorTask,60.0,106.0,,,HRV,HRV_0222,2022-11-30 19:14:06
,wl-rdm,114,288798,0.0-6.106-0.106,0.0,115.0,,,,,,,[],,,,,,87.9,0.0,u,0.0,True,857.4000000953674,52.0,60.0,40.0,False,,340.4563768320211,[],"[768, 512]",ColorTask,61.0,107.0,,,HRV,HRV_0222,2022-11-30 19:14:06
,wl-rdm,115,291032,0.0-6.107-0.107,0.0,116.0,,,,,,,[],,,,,,62.5,0.0,u,0.0,True,890.1000001430511,53.0,60.0,40.0,False,,278.80753724629255,[],"[768, 512]",ColorTask,62.0,108.0,,,HRV,HRV_0222,2022-11-30 19:14:06
,wl-html-keyboard-response,116,308147,0.0-7.0-0.0,1.0,117.0,,,,,,,,15095.799999952316,1.0,0,,,,,,,,,,,,,,,,,,,,,,HRV,HRV_0222,2022-11-30 19:14:06
,wl-rdm,117,310288,0.0-8.0-0.0,1.0,118.0,,,,,,,[],,,,,,87.9,1.0,i,1.0,True,742.1999998092651,45.0,60.0,40.0,False,,319.25186074694386,[],"[768, 512]",ColorTask,63.0,1.0,,,HRV,HRV_0222,2022-11-30 19:14:06
,wl-rdm,118,312337,0.0-8.1-0.1,1.0,119.0,,,,,,,[],,,,,,73.6,0.0,u,0.0,True,661.3999998569489,40.0,60.0,40.0,False,,294.5705912864761,[],"[768, 512]",ColorTask,64.0,2.0,,,HRV,HRV_0222,2022-11-30 19:14:06
,wl-rdm,119,314854,0.0-8.2-0.2,1.0,120.0,,,,,,,[],,,,,,56.4,0.0,i,1.0,False,1056.4999997615814,64.0,60.0,40.0,False,,374.1027249004761,[],"[768, 512]",ColorTask,63.0,3.0,,,HRV,HRV_0222,2022-11-30 19:14:06
,wl-rdm,120,317053,0.0-8.3-0.3,1.0,121.0,,,,,,,[],,,,,,73.6,0.0,u,0.0,True,793.7000000476837,48.0,60.0,40.0,False,,326.8025594850181,[],"[768, 512]",ColorTask,64.0,4.0,,,HRV,HRV_0222,2022-11-30 19:14:06
,wl-rdm,121,319303,0.0-8.4-0.4,1.0,122.0,,,,,,,[],,,,,,73.6,1.0,i,1.0,True,859.7000002861023,52.0,60.0,40.0,False,,308.2186976466712,[],"[768, 512]",ColorTask,65.0,5.0,,,HRV,HRV_0222,2022-11-30 19:14:06
,wl-rdm,122,322186,0.0-8.5-0.5,1.0,123.0,,,,,,,[],,,,,,53.2,1.0,i,1.0,True,1590.7999997138977,96.0,60.0,40.0,False,,203.3212429319125,[],"[768, 512]",ColorTask,66.0,6.0,,,HRV,HRV_0222,2022-11-30 19:14:06
,wl-rdm,123,324369,0.0-8.6-0.6,1.0,124.0,,,,,,,[],,,,,,73.6,1.0,i,1.0,True,856.3000001907349,52.0,60.0,40.0,False,,233.00096272900936,[],"[768, 512]",ColorTask,67.0,7.0,,,HRV,HRV_0222,2022-11-30 19:14:06
,wl-rdm,124,326719,0.0-8.7-0.7,1.0,125.0,,,,,,,[],,,,,,62.5,0.0,u,0.0,True,1005.5999999046326,61.0,60.0,40.0,False,,275.0593979654145,[],"[768, 512]",ColorTask,68.0,8.0,,,HRV,HRV_0222,2022-11-30 19:14:06
,wl-rdm,125,328902,0.0-8.8-0.8,1.0,126.0,,,,,,,[],,,,,,73.6,1.0,i,1.0,True,772.3999998569489,47.0,60.0,40.0,False,,319.7464783182143,[],"[768, 512]",ColorTask,69.0,9.0,,,HRV,HRV_0222,2022-11-30 19:14:06
,wl-rdm,126,331052,0.0-8.9-0.9,1.0,127.0,,,,,,,[],,,,,,50.0,1.0,i,1.0,True,710.8000001907349,43.0,60.0,40.0,False,,357.64822497231825,[],"[768, 512]",ColorTask,70.0,10.0,,,HRV,HRV_0222,2022-11-30 19:14:06
,wl-rdm,127,333119,0.0-8.10-0.10,1.0,128.0,,,,,,,[],,,,,,56.4,0.0,i,1.0,False,680.9999997615814,41.0,60.0,40.0,False,,305.5842994344099,[],"[768, 512]",ColorTask,69.0,11.0,,,HRV,HRV_0222,2022-11-30 19:14:06
,wl-rdm,128,335619,0.0-8.11-0.11,1.0,129.0,,,,,,,[],,,,,,53.2,1.0,u,0.0,False,1161.6000001430511,70.0,60.0,40.0,False,,281.9904378835769,[],"[768, 512]",ColorTask,68.0,12.0,,,HRV,HRV_0222,2022-11-30 19:14:06
,wl-rdm,129,337718,0.0-8.12-0.12,1.0,130.0,,,,,,,[],,,,,,73.6,0.0,u,0.0,True,689.0,42.0,60.0,40.0,False,,319.0345161396839,[],"[768, 512]",ColorTask,69.0,13.0,,,HRV,HRV_0222,2022-11-30 19:14:06
,wl-rdm,130,340035,0.0-8.13-0.13,1.0,131.0,,,,,,,[],,,,,,53.2,0.0,u,0.0,True,975.1000001430511,59.0,60.0,40.0,False,,272.84475185267354,[],"[768, 512]",ColorTask,70.0,14.0,,,HRV,HRV_0222,2022-11-30 19:14:06
,wl-rdm,131,342084,0.0-8.14-0.14,1.0,132.0,,,,,,,[],,,,,,56.4,0.0,u,0.0,True,738.9000000953674,45.0,60.0,40.0,False,,225.3993773764978,[],"[768, 512]",ColorTask,71.0,15.0,,,HRV,HRV_0222,2022-11-30 19:14:06
,wl-rdm,132,344001,0.0-8.15-0.15,1.0,133.0,,,,,,,[],,,,,,87.9,0.0,u,0.0,True,605.2000002861023,37.0,60.0,40.0,False,,222.1660548464199,[],"[768, 512]",ColorTask,72.0,16.0,,,HRV,HRV_0222,2022-11-30 19:14:06
,wl-rdm,133,346017,0.0-8.16-0.16,1.0,134.0,,,,,,,[],,,,,,50.0,0.0,u,0.0,True,725.6000001430511,44.0,60.0,40.0,False,,211.64375959582657,[],"[768, 512]",ColorTask,73.0,17.0,,,HRV,HRV_0222,2022-11-30 19:14:06
,wl-rdm,134,347933,0.0-8.17-0.17,1.0,135.0,,,,,,,[],,,,,,53.2,0.0,u,0.0,True,606.0999999046326,37.0,60.0,40.0,False,,206.18491894445552,[],"[768, 512]",ColorTask,74.0,18.0,,,HRV,HRV_0222,2022-11-30 19:14:06
,wl-rdm,135,349983,0.0-8.18-0.18,1.0,136.0,,,,,,,[],,,,,,73.6,1.0,i,1.0,True,722.2000000476837,44.0,60.0,40.0,False,,239.28230038998964,[],"[768, 512]",ColorTask,75.0,19.0,,,HRV,HRV_0222,2022-11-30 19:14:06
,wl-rdm,136,352000,0.0-8.19-0.19,1.0,137.0,,,,,,,[],,,,,,56.4,1.0,i,1.0,True,712.0999999046326,43.0,60.0,40.0,False,,226.77593042855898,[],"[768, 512]",ColorTask,76.0,20.0,,,HRV,HRV_0222,2022-11-30 19:14:06
,wl-rdm,137,354100,0.0-8.20-0.20,1.0,138.0,,,,,,,[],,,,,,53.2,0.0,u,0.0,True,806.5,49.0,60.0,40.0,False,,201.746297186296,[],"[768, 512]",ColorTask,77.0,21.0,,,HRV,HRV_0222,2022-11-30 19:14:06
,wl-rdm,138,356749,0.0-8.21-0.21,1.0,139.0,,,,,,,[],,,,,,62.5,0.0,i,1.0,False,1307.5,79.0,60.0,40.0,False,,270.4820832976012,[],"[768, 512]",ColorTask,76.0,22.0,,,HRV,HRV_0222,2022-11-30 19:14:06
,wl-rdm,139,359766,0.0-8.22-0.22,1.0,140.0,,,,,,,[],,,,,,62.5,1.0,u,0.0,False,1590.3000001907349,96.0,60.0,40.0,False,,342.5355663704712,[],"[768, 512]",ColorTask,75.0,23.0,,,HRV,HRV_0222,2022-11-30 19:14:06
,wl-rdm,140,362048,0.0-8.23-0.23,1.0,141.0,,,,,,,[],,,,,,62.5,0.0,u,0.0,True,998.0,60.0,60.0,40.0,False,,200.24150718711417,[],"[768, 512]",ColorTask,76.0,24.0,,,HRV,HRV_0222,2022-11-30 19:14:06
,wl-rdm,141,364233,0.0-8.24-0.24,1.0,142.0,,,,,,,[],,,,,,87.9,0.0,u,0.0,True,879.4000000953674,53.0,60.0,40.0,False,,217.73987141601282,[],"[768, 512]",ColorTask,77.0,25.0,,,HRV,HRV_0222,2022-11-30 19:14:06
,wl-rdm,142,366848,0.0-8.25-0.25,1.0,143.0,,,,,,,[],,,,,,50.0,1.0,i,1.0,True,1223.9000000953674,74.0,60.0,40.0,False,,305.86663704170275,[],"[768, 512]",ColorTask,78.0,26.0,,,HRV,HRV_0222,2022-11-30 19:14:06
,wl-rdm,143,369081,0.0-8.26-0.26,1.0,144.0,,,,,,,[],,,,,,73.6,0.0,u,0.0,True,824.3000001907349,50.0,60.0,40.0,False,,339.5988489924722,[],"[768, 512]",ColorTask,79.0,27.0,,,HRV,HRV_0222,2022-11-30 19:14:06
,wl-rdm,144,371481,0.0-8.27-0.27,1.0,145.0,,,,,,,[],,,,,,56.4,1.0,u,0.0,False,1048.0,63.0,60.0,40.0,False,,296.0412902978635,[],"[768, 512]",ColorTask,78.0,28.0,,,HRV,HRV_0222,2022-11-30 19:14:06
,wl-rdm,145,373765,0.0-8.28-0.28,1.0,146.0,,,,,,,[],,,,,,73.6,0.0,u,0.0,True,939.6999998092651,57.0,60.0,40.0,False,,270.84318776666424,[],"[768, 512]",ColorTask,79.0,29.0,,,HRV,HRV_0222,2022-11-30 19:14:06
,wl-rdm,146,376431,0.0-8.29-0.29,1.0,147.0,,,,,,,[],,,,,,56.4,0.0,u,0.0,True,1244.0,75.0,60.0,40.0,False,,345.7644742518552,[],"[768, 512]",ColorTask,80.0,30.0,,,HRV,HRV_0222,2022-11-30 19:14:06
,wl-rdm,147,378914,0.0-8.30-0.30,1.0,148.0,,,,,,,[],,,,,,50.0,0.0,u,0.0,True,1106.0,67.0,60.0,40.0,False,,315.29809792054834,[],"[768, 512]",ColorTask,81.0,31.0,,,HRV,HRV_0222,2022-11-30 19:14:06
,wl-rdm,148,380830,0.0-8.31-0.31,1.0,149.0,,,,,,,[],,,,,,62.5,1.0,i,1.0,True,622.6000001430511,38.0,60.0,40.0,False,,210.4457150545542,[],"[768, 512]",ColorTask,82.0,32.0,,,HRV,HRV_0222,2022-11-30 19:14:06
,wl-rdm,149,383229,0.0-8.32-0.32,1.0,150.0,,,,,,,[],,,,,,73.6,0.0,i,1.0,False,940.1000001430511,57.0,60.0,40.0,False,,370.1236197996549,[],"[768, 512]",ColorTask,81.0,33.0,,,HRV,HRV_0222,2022-11-30 19:14:06
,wl-rdm,150,385413,0.0-8.33-0.33,1.0,151.0,,,,,,,[],,,,,,50.0,1.0,u,0.0,False,910.2000000476837,55.0,60.0,40.0,False,,209.79425563839533,[],"[768, 512]",ColorTask,80.0,34.0,,,HRV,HRV_0222,2022-11-30 19:14:06
,wl-rdm,151,387396,0.0-8.34-0.34,1.0,152.0,,,,,,,[],,,,,,62.5,1.0,u,0.0,False,679.3999998569489,41.0,60.0,40.0,False,,246.53414087726006,[],"[768, 512]",ColorTask,79.0,35.0,,,HRV,HRV_0222,2022-11-30 19:14:06
,wl-rdm,152,389346,0.0-8.35-0.35,1.0,153.0,,,,,,,[],,,,,,87.9,1.0,i,1.0,True,631.6000001430511,38.0,60.0,40.0,False,,235.27580054516778,[],"[768, 512]",ColorTask,80.0,36.0,,,HRV,HRV_0222,2022-11-30 19:14:06
,wl-rdm,153,391163,0.0-8.36-0.36,1.0,154.0,,,,,,,[],,,,,,87.9,1.0,i,1.0,True,519.7000000476837,32.0,60.0,40.0,False,,217.90850650351555,[],"[768, 512]",ColorTask,81.0,37.0,,,HRV,HRV_0222,2022-11-30 19:14:06
,wl-rdm,154,393612,0.0-8.37-0.37,1.0,155.0,,,,,,,[],,,,,,53.2,0.0,i,1.0,False,1123.0999999046326,68.0,60.0,40.0,False,,220.5269323009365,[],"[768, 512]",ColorTask,80.0,38.0,,,HRV,HRV_0222,2022-11-30 19:14:06
,wl-rdm,155,396278,0.0-8.38-0.38,1.0,156.0,,,,,,,[],,,,,,50.0,0.0,u,0.0,True,1209.0,73.0,60.0,40.0,False,,375.90046099345307,[],"[768, 512]",ColorTask,81.0,39.0,,,HRV,HRV_0222,2022-11-30 19:14:06
,wl-rdm,156,398744,0.0-8.39-0.39,1.0,157.0,,,,,,,[],,,,,,73.6,1.0,i,1.0,True,1015.9999997615814,61.0,60.0,40.0,False,,350.74204364486025,[],"[768, 512]",ColorTask,82.0,40.0,,,HRV,HRV_0222,2022-11-30 19:14:06
,wl-rdm,157,401544,0.0-8.40-0.40,1.0,158.0,,,,,,,[],,,,,,53.2,1.0,i,1.0,True,1357.3999998569489,82.0,60.0,40.0,False,,364.1790127200521,[],"[768, 512]",ColorTask,83.0,41.0,,,HRV,HRV_0222,2022-11-30 19:14:06
,wl-rdm,158,404227,0.0-8.41-0.41,1.0,159.0,,,,,,,[],,,,,,50.0,1.0,i,1.0,True,1338.9000000953674,81.0,60.0,40.0,False,,259.7042559873196,[],"[768, 512]",ColorTask,84.0,42.0,,,HRV,HRV_0222,2022-11-30 19:14:06
,wl-rdm,159,406461,0.0-8.42-0.42,1.0,160.0,,,,,,,[],,,,,,62.5,1.0,u,0.0,False,940.2000000476837,57.0,60.0,40.0,False,,218.77912552930394,[],"[768, 512]",ColorTask,83.0,43.0,,,HRV,HRV_0222,2022-11-30 19:14:06
,wl-rdm,160,408593,0.0-8.43-0.43,1.0,161.0,,,,,,,[],,,,,,62.5,0.0,u,0.0,True,790.5999999046326,48.0,60.0,40.0,False,,254.78788418995128,[],"[768, 512]",ColorTask,84.0,44.0,,,HRV,HRV_0222,2022-11-30 19:14:06
,wl-rdm,161,411659,0.0-8.44-0.44,1.0,162.0,,,,,,,[],,,,,,53.2,0.0,u,0.0,True,1666.5,100.0,60.0,40.0,False,,324.15776715555967,[],"[768, 512]",ColorTask,85.0,45.0,,,HRV,HRV_0222,2022-11-30 19:14:06
,wl-rdm,162,414276,0.0-8.45-0.45,1.0,163.0,,,,,,,[],,,,,,50.0,1.0,u,0.0,False,1314.8000001907349,79.0,60.0,40.0,False,,249.58537985403424,[],"[768, 512]",ColorTask,84.0,46.0,,,HRV,HRV_0222,2022-11-30 19:14:06
,wl-rdm,163,416710,0.0-8.46-0.46,1.0,164.0,,,,,,,[],,,,,,53.2,1.0,u,0.0,False,992.3999998569489,60.0,60.0,40.0,False,,374.97918373567546,[],"[768, 512]",ColorTask,83.0,47.0,,,HRV,HRV_0222,2022-11-30 19:14:06
,wl-rdm,164,418926,0.0-8.47-0.47,1.0,165.0,,,,,,,[],,,,,,73.6,0.0,u,0.0,True,922.8999998569489,56.0,60.0,40.0,False,,219.56715129023738,[],"[768, 512]",ColorTask,84.0,48.0,,,HRV,HRV_0222,2022-11-30 19:14:06
,wl-rdm,165,420926,0.0-8.48-0.48,1.0,166.0,,,,,,,[],,,,,,87.9,1.0,i,1.0,True,608.0,37.0,60.0,40.0,False,,323.05860479262157,[],"[768, 512]",ColorTask,85.0,49.0,,,HRV,HRV_0222,2022-11-30 19:14:06
,wl-rdm,166,423592,0.0-8.49-0.49,1.0,167.0,,,,,,,[],,,,,,53.2,0.0,u,0.0,True,1197.1999998092651,72.0,60.0,40.0,False,,388.46855785727473,[],"[768, 512]",ColorTask,86.0,50.0,,,HRV,HRV_0222,2022-11-30 19:14:06
,wl-rdm,167,425859,0.0-8.50-0.50,1.0,168.0,,,,,,,[],,,,,,87.9,0.0,u,0.0,True,898.6000001430511,54.0,60.0,40.0,False,,290.0004536144662,[],"[768, 512]",ColorTask,87.0,51.0,,,HRV,HRV_0222,2022-11-30 19:14:06
,wl-rdm,168,428324,0.0-8.51-0.51,1.0,169.0,,,,,,,[],,,,,,50.0,1.0,i,1.0,True,1042.3999998569489,63.0,60.0,40.0,False,,354.06246387759757,[],"[768, 512]",ColorTask,88.0,52.0,,,HRV,HRV_0222,2022-11-30 19:14:06
,wl-rdm,169,430574,0.0-8.52-0.52,1.0,170.0,,,,,,,[],,,,,,87.9,0.0,u,0.0,True,825.2000000476837,50.0,60.0,40.0,False,,362.7416671218041,[],"[768, 512]",ColorTask,89.0,53.0,,,HRV,HRV_0222,2022-11-30 19:14:06
,wl-rdm,170,433391,0.0-8.53-0.53,1.0,171.0,,,,,,,[],,,,,,56.4,1.0,i,1.0,True,1421.0000002384186,86.0,60.0,40.0,False,,331.4410255877251,[],"[768, 512]",ColorTask,90.0,54.0,,,HRV,HRV_0222,2022-11-30 19:14:06
,wl-rdm,171,435874,0.0-8.54-0.54,1.0,172.0,,,,,,,[],,,,,,62.5,1.0,i,1.0,True,1194.2000000476837,72.0,60.0,40.0,False,,203.922102831773,[],"[768, 512]",ColorTask,91.0,55.0,,,HRV,HRV_0222,2022-11-30 19:14:06
,wl-rdm,172,438241,0.0-8.55-0.55,1.0,173.0,,,,,,,[],,,,,,50.0,1.0,i,1.0,True,1064.2999999523163,64.0,60.0,40.0,False,,230.7162211721727,[],"[768, 512]",ColorTask,92.0,56.0,,,HRV,HRV_0222,2022-11-30 19:14:06
,wl-rdm,173,440524,0.0-8.56-0.56,1.0,174.0,,,,,,,[],,,,,,53.2,1.0,i,1.0,True,823.9000000953674,50.0,60.0,40.0,False,,384.63141852579287,[],"[768, 512]",ColorTask,93.0,57.0,,,HRV,HRV_0222,2022-11-30 19:14:06
,wl-rdm,174,443290,0.0-8.57-0.57,1.0,175.0,,,,,,,[],,,,,,56.4,1.0,i,1.0,True,1387.8000001907349,84.0,60.0,40.0,False,,310.64988884754456,[],"[768, 512]",ColorTask,94.0,58.0,,,HRV,HRV_0222,2022-11-30 19:14:06
,wl-rdm,175,445789,0.0-8.58-0.58,1.0,176.0,,,,,,,[],,,,,,62.5,0.0,u,0.0,True,1140.2000000476837,69.0,60.0,40.0,False,,290.37197241562757,[],"[768, 512]",ColorTask,95.0,59.0,,,HRV,HRV_0222,2022-11-30 19:14:06
,wl-rdm,176,448073,0.0-8.59-0.59,1.0,177.0,,,,,,,[],,,,,,53.2,1.0,u,0.0,False,908.2999999523163,55.0,60.0,40.0,False,,295.38351687983,[],"[768, 512]",ColorTask,94.0,60.0,,,HRV,HRV_0222,2022-11-30 19:14:06
,wl-rdm,177,450389,0.0-8.60-0.60,1.0,178.0,,,,,,,[],,,,,,56.4,0.0,u,0.0,True,1028.8999998569489,62.0,60.0,40.0,False,,222.72035589277786,[],"[768, 512]",ColorTask,95.0,61.0,,,HRV,HRV_0222,2022-11-30 19:14:06
,wl-rdm,178,452355,0.0-8.61-0.61,1.0,179.0,,,,,,,[],,,,,,87.9,0.0,u,0.0,True,694.5,42.0,60.0,40.0,False,,205.11369368464986,[],"[768, 512]",ColorTask,96.0,62.0,,,HRV,HRV_0222,2022-11-30 19:14:06
,wl-rdm,179,454839,0.0-8.62-0.62,1.0,180.0,,,,,,,[],,,,,,62.5,1.0,i,1.0,True,1066.4000000953674,64.0,60.0,40.0,False,,341.03864753468315,[],"[768, 512]",ColorTask,97.0,63.0,,,HRV,HRV_0222,2022-11-30 19:14:06
,wl-rdm,180,457204,0.0-8.63-0.63,1.0,181.0,,,,,,,[],,,,,,62.5,0.0,u,0.0,True,927.3000001907349,56.0,60.0,40.0,False,,337.5426893721275,[],"[768, 512]",ColorTask,98.0,64.0,,,HRV,HRV_0222,2022-11-30 19:14:06
,wl-rdm,181,459488,0.0-8.64-0.64,1.0,182.0,,,,,,,[],,,,,,50.0,0.0,u,0.0,True,906.3999998569489,55.0,60.0,40.0,False,,288.7715453631981,[],"[768, 512]",ColorTask,99.0,65.0,,,HRV,HRV_0222,2022-11-30 19:14:06
,wl-rdm,182,461604,0.0-8.65-0.65,1.0,183.0,,,,,,,[],,,,,,87.9,0.0,u,0.0,True,720.2999999523163,44.0,60.0,40.0,False,,312.7621963067575,[],"[768, 512]",ColorTask,100.0,66.0,,,HRV,HRV_0222,2022-11-30 19:14:06
,wl-rdm,183,464487,0.0-8.66-0.66,1.0,184.0,,,,,,,[],,,,,,56.4,0.0,i,1.0,False,1456.8999998569489,88.0,60.0,40.0,False,,358.6283779923434,[],"[768, 512]",ColorTask,99.0,67.0,,,HRV,HRV_0222,2022-11-30 19:14:06
,wl-rdm,184,467053,0.0-8.67-0.67,1.0,185.0,,,,,,,[],,,,,,62.5,1.0,i,1.0,True,1216.5000002384186,73.0,60.0,40.0,False,,267.04125509344357,[],"[768, 512]",ColorTask,100.0,68.0,,,HRV,HRV_0222,2022-11-30 19:14:06
,wl-rdm,185,469637,0.0-8.68-0.68,1.0,186.0,,,,,,,[],,,,,,56.4,1.0,i,1.0,True,1236.6000001430511,75.0,60.0,40.0,False,,271.6443704974892,[],"[768, 512]",ColorTask,101.0,69.0,,,HRV,HRV_0222,2022-11-30 19:14:06
,wl-rdm,186,471603,0.0-8.69-0.69,1.0,187.0,,,,,,,[],,,,,,87.9,0.0,u,0.0,True,668.2999999523163,41.0,60.0,40.0,False,,221.79004089722508,[],"[768, 512]",ColorTask,102.0,70.0,,,HRV,HRV_0222,2022-11-30 19:14:06
,wl-rdm,187,474336,0.0-8.70-0.70,1.0,188.0,,,,,,,[],,,,,,56.4,1.0,u,0.0,False,1322.7000000476837,80.0,60.0,40.0,False,,315.6896864789994,[],"[768, 512]",ColorTask,101.0,71.0,,,HRV,HRV_0222,2022-11-30 19:14:06
,wl-rdm,188,476959,0.0-8.71-0.71,1.0,189.0,,,,,,,[],,,,,,62.5,0.0,u,0.0,True,1320.2999999523163,80.0,60.0,40.0,False,,217.33595543724215,[],"[768, 512]",ColorTask,102.0,72.0,,,HRV,HRV_0222,2022-11-30 19:14:06
,wl-rdm,189,479885,0.0-8.72-0.72,1.0,190.0,,,,,,,[],,,,,,50.0,0.0,u,0.0,True,1575.7999997138977,95.0,60.0,40.0,False,,255.64103458096622,[],"[768, 512]",ColorTask,103.0,73.0,,,HRV,HRV_0222,2022-11-30 19:14:06
,wl-rdm,190,482451,0.0-8.73-0.73,1.0,191.0,,,,,,,[],,,,,,56.4,0.0,u,0.0,True,1225.7000000476837,74.0,60.0,40.0,False,,254.78093861065472,[],"[768, 512]",ColorTask,104.0,74.0,,,HRV,HRV_0222,2022-11-30 19:14:06
,wl-rdm,191,484784,0.0-8.74-0.74,1.0,192.0,,,,,,,[],,,,,,73.6,1.0,i,1.0,True,914.9000000953674,55.0,60.0,40.0,False,,347.8901306795533,[],"[768, 512]",ColorTask,105.0,75.0,,,HRV,HRV_0222,2022-11-30 19:14:06
,wl-rdm,192,487151,0.0-8.75-0.75,1.0,193.0,,,,,,,[],,,,,,56.4,0.0,u,0.0,True,895.2999997138977,54.0,60.0,40.0,False,,399.7192278531205,[],"[768, 512]",ColorTask,106.0,76.0,,,HRV,HRV_0222,2022-11-30 19:14:06
,wl-rdm,193,489717,0.0-8.76-0.76,1.0,194.0,,,,,,,[],,,,,,53.2,1.0,i,1.0,True,1164.7999999523163,70.0,60.0,40.0,False,,338.3528035124457,[],"[768, 512]",ColorTask,107.0,77.0,,,HRV,HRV_0222,2022-11-30 19:14:06
,wl-rdm,194,492083,0.0-8.77-0.77,1.0,195.0,,,,,,,[],,,,,,56.4,1.0,u,0.0,False,1061.6999998092651,64.0,60.0,40.0,False,,241.18403775266069,[],"[768, 512]",ColorTask,106.0,78.0,,,HRV,HRV_0222,2022-11-30 19:14:06
,wl-rdm,195,494333,0.0-8.78-0.78,1.0,196.0,,,,,,,[],,,,,,73.6,0.0,u,0.0,True,791.0000002384186,48.0,60.0,40.0,False,,377.93944551563936,[],"[768, 512]",ColorTask,107.0,79.0,,,HRV,HRV_0222,2022-11-30 19:14:06
,wl-rdm,196,496316,0.0-8.79-0.79,1.0,197.0,,,,,,,[],,,,,,87.9,1.0,i,1.0,True,664.5,40.0,60.0,40.0,False,,263.70458863021514,[],"[768, 512]",ColorTask,108.0,80.0,,,HRV,HRV_0222,2022-11-30 19:14:06
,wl-rdm,197,498200,0.0-8.80-0.80,1.0,198.0,,,,,,,[],,,,,,87.9,1.0,i,1.0,True,549.7999999523163,33.0,60.0,40.0,False,,260.8967865602978,[],"[768, 512]",ColorTask,109.0,81.0,,,HRV,HRV_0222,2022-11-30 19:14:06
,wl-rdm,198,500532,0.0-8.81-0.81,1.0,199.0,,,,,,,[],,,,,,73.6,1.0,i,1.0,True,952.6999998092651,58.0,60.0,40.0,False,,314.03546932794563,[],"[768, 512]",ColorTask,110.0,82.0,,,HRV,HRV_0222,2022-11-30 19:14:06
,wl-rdm,199,502682,0.0-8.82-0.82,1.0,200.0,,,,,,,[],,,,,,62.5,1.0,u,0.0,False,810.6000001430511,49.0,60.0,40.0,False,,258.00023587028136,[],"[768, 512]",ColorTask,109.0,83.0,,,HRV,HRV_0222,2022-11-30 19:14:06
,wl-rdm,200,505082,0.0-8.83-0.83,1.0,201.0,,,,,,,[],,,,,,53.2,1.0,i,1.0,True,1012.5,61.0,60.0,40.0,False,,315.67310559348664,[],"[768, 512]",ColorTask,110.0,84.0,,,HRV,HRV_0222,2022-11-30 19:14:06
,wl-rdm,201,507249,0.0-8.84-0.84,1.0,202.0,,,,,,,[],,,,,,73.6,0.0,u,0.0,True,790.8999998569489,48.0,60.0,40.0,False,,295.42459262881124,[],"[768, 512]",ColorTask,111.0,85.0,,,HRV,HRV_0222,2022-11-30 19:14:06
,wl-rdm,202,510198,0.0-8.85-0.85,1.0,203.0,,,,,,,[],,,,,,50.0,0.0,i,1.0,False,1473.2999999523163,89.0,60.0,40.0,False,,399.8228487559318,[],"[768, 512]",ColorTask,110.0,86.0,,,HRV,HRV_0222,2022-11-30 19:14:06
,wl-rdm,203,512665,0.0-8.86-0.86,1.0,204.0,,,,,,,[],,,,,,87.9,1.0,i,1.0,True,1129.5,68.0,60.0,40.0,False,,249.8728575922066,[],"[768, 512]",ColorTask,111.0,87.0,,,HRV,HRV_0222,2022-11-30 19:14:06
,wl-rdm,204,515531,0.0-8.87-0.87,1.0,205.0,,,,,,,[],,,,,,50.0,0.0,u,0.0,True,1473.3999998569489,89.0,60.0,40.0,False,,311.5556976924652,[],"[768, 512]",ColorTask,112.0,88.0,,,HRV,HRV_0222,2022-11-30 19:14:06
,wl-rdm,205,518081,0.0-8.88-0.88,1.0,206.0,,,,,,,[],,,,,,56.4,0.0,u,0.0,True,1190.1999998092651,72.0,60.0,40.0,False,,273.6903988581501,[],"[768, 512]",ColorTask,113.0,89.0,,,HRV,HRV_0222,2022-11-30 19:14:06
,wl-rdm,206,520148,0.0-8.89-0.89,1.0,207.0,,,,,,,[],,,,,,87.9,1.0,i,1.0,True,677.9000000953674,41.0,60.0,40.0,False,,330.5659577309234,[],"[768, 512]",ColorTask,114.0,90.0,,,HRV,HRV_0222,2022-11-30 19:14:06
,wl-rdm,207,523080,0.0-8.90-0.90,1.0,208.0,,,,,,,[],,,,,,53.2,0.0,u,0.0,True,1517.4000000953674,91.0,60.0,40.0,False,,339.7017143012448,[],"[768, 512]",ColorTask,115.0,91.0,,,HRV,HRV_0222,2022-11-30 19:14:06
,wl-rdm,208,525847,0.0-8.91-0.91,1.0,209.0,,,,,,,[],,,,,,50.0,1.0,i,1.0,True,1415.8000001907349,85.0,60.0,40.0,False,,272.36734296843076,[],"[768, 512]",ColorTask,116.0,92.0,,,HRV,HRV_0222,2022-11-30 19:14:06
,wl-rdm,209,528497,0.0-8.92-0.92,1.0,210.0,,,,,,,[],,,,,,62.5,0.0,u,0.0,True,1203.8000001907349,73.0,60.0,40.0,False,,369.87307992382546,[],"[768, 512]",ColorTask,117.0,93.0,,,HRV,HRV_0222,2022-11-30 19:14:06
,wl-rdm,210,530763,0.0-8.93-0.93,1.0,211.0,,,,,,,[],,,,,,87.9,1.0,i,1.0,True,790.0999999046326,48.0,60.0,40.0,False,,399.3311188198239,[],"[768, 512]",ColorTask,118.0,94.0,,,HRV,HRV_0222,2022-11-30 19:14:06
,wl-rdm,211,533129,0.0-8.94-0.94,1.0,212.0,,,,,,,[],,,,,,56.4,1.0,i,1.0,True,942.5,57.0,60.0,40.0,False,,339.081345534099,[],"[768, 512]",ColorTask,119.0,95.0,,,HRV,HRV_0222,2022-11-30 19:14:06
,wl-rdm,212,535129,0.0-8.95-0.95,1.0,213.0,,,,,,,[],,,,,,87.9,0.0,u,0.0,True,658.9000000953674,40.0,60.0,40.0,False,,260.20198210587836,[],"[768, 512]",ColorTask,120.0,96.0,,,HRV,HRV_0222,2022-11-30 19:14:06
,wl-rdm,213,537628,0.0-8.96-0.96,1.0,214.0,,,,,,,[],,,,,,56.4,1.0,u,0.0,False,1072.5999999046326,65.0,60.0,40.0,False,,339.3238146207118,[],"[768, 512]",ColorTask,119.0,97.0,,,HRV,HRV_0222,2022-11-30 19:14:06
,wl-rdm,214,540212,0.0-8.97-0.97,1.0,215.0,,,,,,,[],,,,,,50.0,0.0,i,1.0,False,1311.7999999523163,79.0,60.0,40.0,False,,213.5382429687504,[],"[768, 512]",ColorTask,118.0,98.0,,,HRV,HRV_0222,2022-11-30 19:14:06
,wl-rdm,215,542861,0.0-8.98-0.98,1.0,216.0,,,,,,,[],,,,,,53.2,1.0,u,0.0,False,1260.9000000953674,76.0,60.0,40.0,False,,307.29496852117757,[],"[768, 512]",ColorTask,117.0,99.0,,,HRV,HRV_0222,2022-11-30 19:14:06
,wl-rdm,216,545311,0.0-8.99-0.99,1.0,217.0,,,,,,,[],,,,,,62.5,1.0,i,1.0,True,1046.9000000953674,63.0,60.0,40.0,False,,312.7727349337821,[],"[768, 512]",ColorTask,118.0,100.0,,,HRV,HRV_0222,2022-11-30 19:14:06
,wl-rdm,217,548294,0.0-8.100-0.100,1.0,218.0,,,,,,,[],,,,,,53.2,0.0,u,0.0,True,1523.7000000476837,92.0,60.0,40.0,False,,393.8489181514641,[],"[768, 512]",ColorTask,119.0,101.0,,,HRV,HRV_0222,2022-11-30 19:14:06
,wl-rdm,218,550311,0.0-8.101-0.101,1.0,219.0,,,,,,,[],,,,,,73.6,1.0,i,1.0,True,738.7999999523163,44.0,60.0,40.0,False,,209.20171742693466,[],"[768, 512]",ColorTask,120.0,102.0,,,HRV,HRV_0222,2022-11-30 19:14:06
,wl-rdm,219,552561,0.0-8.102-0.102,1.0,220.0,,,,,,,[],,,,,,73.6,1.0,i,1.0,True,931.4000000953674,56.0,60.0,40.0,False,,242.2120661472344,[],"[768, 512]",ColorTask,121.0,103.0,,,HRV,HRV_0222,2022-11-30 19:14:06
,wl-rdm,220,556594,0.0-8.103-0.103,1.0,221.0,,,,,,,[],,,,,,62.5,0.0,u,0.0,True,2777.5999999046326,167.0,60.0,40.0,False,,200.11220896313426,[],"[768, 512]",ColorTask,122.0,104.0,,,HRV,HRV_0222,2022-11-30 19:14:06
,wl-rdm,221,559642,0.0-8.104-0.104,1.0,222.0,,,,,,,[],,,,,,50.0,0.0,u,0.0,True,1696.4000000953674,102.0,60.0,40.0,False,,273.4882435712114,[],"[768, 512]",ColorTask,123.0,105.0,,,HRV,HRV_0222,2022-11-30 19:14:06
,wl-rdm,222,562226,0.0-8.105-0.105,1.0,223.0,,,,,,,[],,,,,,53.2,0.0,u,0.0,True,1256.2999999523163,76.0,60.0,40.0,False,,251.5100678088996,[],"[768, 512]",ColorTask,124.0,106.0,,,HRV,HRV_0222,2022-11-30 19:14:06
,wl-rdm,223,564226,0.0-8.106-0.106,1.0,224.0,,,,,,,[],,,,,,87.9,0.0,u,0.0,True,576.8000001907349,35.0,60.0,40.0,False,,359.30015831671113,[],"[768, 512]",ColorTask,125.0,107.0,,,HRV,HRV_0222,2022-11-30 19:14:06
,wl-rdm,224,566692,0.0-8.107-0.107,1.0,225.0,,,,,,,[],,,,,,50.0,1.0,i,1.0,True,1126.0000002384186,68.0,60.0,40.0,False,,237.91841507412556,[],"[768, 512]",ColorTask,126.0,108.0,,,HRV,HRV_0222,2022-11-30 19:14:06
,wl-html-button-response,225,569602,0.0-9.0-0.0,,,,,,,,,,2896.2999999523163,,0,,,,,,,,,,,,,,,,,,,,<h3>End of this session. Thank you!</h3><br>,['Close window'],HRV,HRV_0222,2022-11-30 19:14:06
