trialN,stimuli,trialStartTime,trialStartTime_UNIX,stimulus1,stimulus2,stimulus1Bid,stimulus2Bid,delta,selected,rt,rt_UNIX,rt_perfnow,receivedResponse,rsp,trialEndTime,trialDuration,trialEndTime_UNIX,trialDuration_UNIX,exp,subjectId,date
0,"[{'imgObject': {}, 'id': 'froot loops w milk', 'src': '/static/foodstim60/froot loops w milk.jpg', 'key': 'u', 'origWidth': 410, 'origHeight': 410, 'width': 410, 'height': 410, 'widthPercent': 0.45, 'rescaleHeight': False, 'trialN': 0, 'loaded': True, 'loadedTime': 2023.300000000745, 'positionName': 'LEFT', 'positionCoords': [492.88, 262], 'bid': 5.22}, {'imgObject': {}, 'id': 'lox', 'src': '/static/foodstim60/lox.jpg', 'key': 'i', 'origWidth': 410, 'origHeight': 411, 'width': 410, 'height': 411, 'widthPercent': 0.45, 'rescaleHeight': False, 'trialN': 0, 'loaded': True, 'loadedTime': 2031.199999999255, 'positionName': 'RIGHT', 'positionCoords': [978.12, 261.5], 'bid': 5.84}]",2214.300000000745,1669830099028,froot loops w milk,lox,5.22,5.84,0.6200000000000001,lox,1393.5,1394,1394.1000000014901,True,i,4114.60000000149,1900.300000000745,1669830100928,1900,HRV,HRV_0043,2022-11-30 17:48:39
1,"[{'imgObject': {}, 'id': 'turkeysandwich', 'src': '/static/foodstim60/turkeysandwich.jpg', 'key': 'u', 'origWidth': 409, 'origHeight': 409, 'width': 409, 'height': 409, 'widthPercent': 0.45, 'rescaleHeight': False, 'trialN': 1, 'loaded': True, 'loadedTime': 2033.300000000745, 'positionName': 'LEFT', 'positionCoords': [493.88, 262.5], 'bid': 8.57}, {'imgObject': {}, 'id': 'grilled chicken strips', 'src': '/static/foodstim60/grilled chicken strips.jpg', 'key': 'i', 'origWidth': 410, 'origHeight': 411, 'width': 410, 'height': 411, 'widthPercent': 0.45, 'rescaleHeight': False, 'trialN': 1, 'loaded': True, 'loadedTime': 2039, 'positionName': 'RIGHT', 'positionCoords': [978.12, 261.5], 'bid': 8.63}]",4114.800000000745,1669830100928,turkeysandwich,grilled chicken strips,8.57,8.63,0.0600000000000005,turkeysandwich,1697.699999999255,1698,1698.199999999255,True,u,6314.199999999255,2199.39999999851,1669830103128,2200,HRV,HRV_0043,2022-11-30 17:48:39
2,"[{'imgObject': {}, 'id': 'omelette', 'src': '/static/foodstim60/omelette.jpg', 'key': 'u', 'origWidth': 410, 'origHeight': 409, 'width': 410, 'height': 409, 'widthPercent': 0.45, 'rescaleHeight': False, 'trialN': 2, 'loaded': True, 'loadedTime': 2039.699999999255, 'positionName': 'LEFT', 'positionCoords': [492.88, 262.5], 'bid': 5.5}, {'imgObject': {}, 'id': 'fried eggs', 'src': '/static/foodstim60/fried eggs.jpg', 'key': 'i', 'origWidth': 410, 'origHeight': 410, 'width': 410, 'height': 410, 'widthPercent': 0.45, 'rescaleHeight': False, 'trialN': 2, 'loaded': True, 'loadedTime': 2047.9000000022352, 'positionName': 'RIGHT', 'positionCoords': [978.12, 262], 'bid': 5.89}]",6314.400000002235,1669830103128,omelette,fried eggs,5.5,5.89,0.3899999999999997,fried eggs,2153.39999999851,2154,2153.89999999851,True,i,8977.800000000745,2663.39999999851,1669830105791,2663,HRV,HRV_0043,2022-11-30 17:48:39
3,"[{'imgObject': {}, 'id': 'fried eggs', 'src': '/static/foodstim60/fried eggs.jpg', 'key': 'u', 'origWidth': 410, 'origHeight': 410, 'width': 410, 'height': 410, 'widthPercent': 0.45, 'rescaleHeight': False, 'trialN': 3, 'loaded': True, 'loadedTime': 2047.6000000014901, 'positionName': 'LEFT', 'positionCoords': [492.88, 262], 'bid': 5.89}, {'imgObject': {}, 'id': 'lox', 'src': '/static/foodstim60/lox.jpg', 'key': 'i', 'origWidth': 410, 'origHeight': 411, 'width': 410, 'height': 411, 'widthPercent': 0.45, 'rescaleHeight': False, 'trialN': 3, 'loaded': True, 'loadedTime': 2031.5, 'positionName': 'RIGHT', 'positionCoords': [978.12, 261.5], 'bid': 5.84}]",8977.900000002235,1669830105791,fried eggs,lox,5.89,5.84,-0.04999999999999982,lox,1048.8999999985099,1050,1049.5,True,i,10533.10000000149,1555.199999999255,1669830107346,1555,HRV,HRV_0043,2022-11-30 17:48:39
4,"[{'imgObject': {}, 'id': 'Grapes', 'src': '/static/foodstim60/Grapes.jpg', 'key': 'u', 'origWidth': 411, 'origHeight': 411, 'width': 411, 'height': 411, 'widthPercent': 0.45, 'rescaleHeight': False, 'trialN': 4, 'loaded': True, 'loadedTime': 2051.60000000149, 'positionName': 'LEFT', 'positionCoords': [491.88, 261.5], 'bid': 6.19}, {'imgObject': {}, 'id': 'orange slices', 'src': '/static/foodstim60/orange slices.jpg', 'key': 'i', 'origWidth': 409, 'origHeight': 410, 'width': 409, 'height': 410, 'widthPercent': 0.45, 'rescaleHeight': False, 'trialN': 4, 'loaded': True, 'loadedTime': 2055.5, 'positionName': 'RIGHT', 'positionCoords': [978.12, 262], 'bid': 6.01}]",10533.400000002235,1669830107347,Grapes,orange slices,6.19,6.01,-0.1800000000000006,orange slices,2119.0,2119,2119.599999997765,True,i,13164.199999999255,2630.7999999970198,1669830109978,2631,HRV,HRV_0043,2022-11-30 17:48:39
5,"[{'imgObject': {}, 'id': 'seaweed', 'src': '/static/foodstim60/seaweed.jpg', 'key': 'u', 'origWidth': 410, 'origHeight': 410, 'width': 410, 'height': 410, 'widthPercent': 0.45, 'rescaleHeight': False, 'trialN': 5, 'loaded': True, 'loadedTime': 2059.5, 'positionName': 'LEFT', 'positionCoords': [492.88, 262], 'bid': 1.91}, {'imgObject': {}, 'id': 'mango', 'src': '/static/foodstim60/mango.jpg', 'key': 'i', 'origWidth': 411, 'origHeight': 411, 'width': 411, 'height': 411, 'widthPercent': 0.45, 'rescaleHeight': False, 'trialN': 5, 'loaded': True, 'loadedTime': 2066.5, 'positionName': 'RIGHT', 'positionCoords': [978.12, 261.5], 'bid': 1.33}]",13164.400000002235,1669830109978,seaweed,mango,1.91,1.33,-0.5799999999999998,seaweed,1227.5,1228,1228.0,True,u,14905.10000000149,1740.699999999255,1669830111718,1740,HRV,HRV_0043,2022-11-30 17:48:39
6,"[{'imgObject': {}, 'id': 'apple slices', 'src': '/static/foodstim60/apple slices.jpg', 'key': 'u', 'origWidth': 409, 'origHeight': 410, 'width': 409, 'height': 410, 'widthPercent': 0.45, 'rescaleHeight': False, 'trialN': 6, 'loaded': True, 'loadedTime': 2073, 'positionName': 'LEFT', 'positionCoords': [493.88, 262], 'bid': 5.4}, {'imgObject': {}, 'id': 'cheerios', 'src': '/static/foodstim60/cheerios.jpg', 'key': 'i', 'origWidth': 409, 'origHeight': 410, 'width': 409, 'height': 410, 'widthPercent': 0.45, 'rescaleHeight': False, 'trialN': 6, 'loaded': True, 'loadedTime': 2077.300000000745, 'positionName': 'RIGHT', 'positionCoords': [978.12, 262], 'bid': 2.24}]",14905.199999999255,1669830111719,apple slices,cheerios,5.4,2.24,-3.16,apple slices,1910.0,1910,1910.5,True,u,17318.5,2413.300000000745,1669830114132,2413,HRV,HRV_0043,2022-11-30 17:48:39
7,"[{'imgObject': {}, 'id': 'yogurt no spoon', 'src': '/static/foodstim60/yogurt no spoon.jpg', 'key': 'u', 'origWidth': 411, 'origHeight': 410, 'width': 411, 'height': 410, 'widthPercent': 0.45, 'rescaleHeight': False, 'trialN': 7, 'loaded': True, 'loadedTime': 2080.5, 'positionName': 'LEFT', 'positionCoords': [491.88, 262], 'bid': 7.99}, {'imgObject': {}, 'id': 'burger', 'src': '/static/foodstim60/burger.jpg', 'key': 'i', 'origWidth': 409, 'origHeight': 409, 'width': 409, 'height': 409, 'widthPercent': 0.45, 'rescaleHeight': False, 'trialN': 7, 'loaded': True, 'loadedTime': 2084.300000000745, 'positionName': 'RIGHT', 'positionCoords': [978.12, 262.5], 'bid': 9.17}]",17318.699999999255,1669830114132,yogurt no spoon,burger,7.99,9.17,1.1799999999999997,burger,1371.2000000029802,1372,1372.0,True,i,19198.199999999255,1879.5,1669830116011,1879,HRV,HRV_0043,2022-11-30 17:48:39
8,"[{'imgObject': {}, 'id': 'fruitsalad', 'src': '/static/foodstim60/fruitsalad.jpg', 'key': 'u', 'origWidth': 410, 'origHeight': 410, 'width': 410, 'height': 410, 'widthPercent': 0.45, 'rescaleHeight': False, 'trialN': 8, 'loaded': True, 'loadedTime': 2087.699999999255, 'positionName': 'LEFT', 'positionCoords': [492.88, 262], 'bid': 7.31}, {'imgObject': {}, 'id': 'rigatoni and sauce', 'src': '/static/foodstim60/rigatoni and sauce.jpg', 'key': 'i', 'origWidth': 410, 'origHeight': 411, 'width': 410, 'height': 411, 'widthPercent': 0.45, 'rescaleHeight': False, 'trialN': 8, 'loaded': True, 'loadedTime': 2095, 'positionName': 'RIGHT', 'positionCoords': [978.12, 261.5], 'bid': 7.11}]",19198.300000000745,1669830116012,fruitsalad,rigatoni and sauce,7.31,7.11,-0.1999999999999993,fruitsalad,2094.199999999255,2095,2095.89999999851,True,u,21800.300000000745,2602.0,1669830118614,2602,HRV,HRV_0043,2022-11-30 17:48:39
9,"[{'imgObject': {}, 'id': 'ice cream sundae 002', 'src': '/static/foodstim60/ice cream sundae 002.jpg', 'key': 'u', 'origWidth': 409, 'origHeight': 409, 'width': 409, 'height': 409, 'widthPercent': 0.45, 'rescaleHeight': False, 'trialN': 9, 'loaded': True, 'loadedTime': 2101.900000002235, 'positionName': 'LEFT', 'positionCoords': [493.88, 262.5], 'bid': 6.19}, {'imgObject': {}, 'id': 'cocktailshrimp', 'src': '/static/foodstim60/cocktailshrimp.jpg', 'key': 'i', 'origWidth': 410, 'origHeight': 410, 'width': 410, 'height': 410, 'widthPercent': 0.45, 'rescaleHeight': False, 'trialN': 9, 'loaded': True, 'loadedTime': 2106, 'positionName': 'RIGHT', 'positionCoords': [978.12, 262], 'bid': 8.51}]",21800.5,1669830118614,ice cream sundae 002,cocktailshrimp,6.19,8.51,2.3199999999999994,cocktailshrimp,1546.300000000745,1547,1546.9000000022352,True,i,23862.699999999255,2062.199999999255,1669830120676,2062,HRV,HRV_0043,2022-11-30 17:48:39
10,"[{'imgObject': {}, 'id': 'Tribe humus pita', 'src': '/static/foodstim60/Tribe humus pita.jpg', 'key': 'u', 'origWidth': 411, 'origHeight': 411, 'width': 411, 'height': 411, 'widthPercent': 0.45, 'rescaleHeight': False, 'trialN': 10, 'loaded': True, 'loadedTime': 2109.900000002235, 'positionName': 'LEFT', 'positionCoords': [491.88, 261.5], 'bid': 7.42}, {'imgObject': {}, 'id': 'sushi w_condiments', 'src': '/static/foodstim60/sushi w_condiments.jpg', 'key': 'i', 'origWidth': 410, 'origHeight': 410, 'width': 410, 'height': 410, 'widthPercent': 0.45, 'rescaleHeight': False, 'trialN': 10, 'loaded': True, 'loadedTime': 2113.699999999255, 'positionName': 'RIGHT', 'positionCoords': [978.12, 262], 'bid': 8.36}]",23862.800000000745,1669830120676,Tribe humus pita,sushi w_condiments,7.42,8.36,0.9399999999999995,sushi w_condiments,2020.0,2021,2020.6000000014901,True,i,26386.5,2523.699999999255,1669830123200,2524,HRV,HRV_0043,2022-11-30 17:48:39
11,"[{'imgObject': {}, 'id': 'pear', 'src': '/static/foodstim60/pear.jpg', 'key': 'u', 'origWidth': 411, 'origHeight': 410, 'width': 411, 'height': 410, 'widthPercent': 0.45, 'rescaleHeight': False, 'trialN': 11, 'loaded': True, 'loadedTime': 2116.699999999255, 'positionName': 'LEFT', 'positionCoords': [491.88, 262], 'bid': 5.44}, {'imgObject': {}, 'id': 'turkey sandwich', 'src': '/static/foodstim60/turkey sandwich.jpg', 'key': 'i', 'origWidth': 409, 'origHeight': 409, 'width': 409, 'height': 409, 'widthPercent': 0.45, 'rescaleHeight': False, 'trialN': 11, 'loaded': True, 'loadedTime': 2117.900000002235, 'positionName': 'RIGHT', 'positionCoords': [978.12, 262.5], 'bid': 9.1}]",26386.699999999255,1669830123200,pear,turkey sandwich,5.44,9.1,3.6599999999999993,turkey sandwich,875.2000000029802,876,875.9000000022352,True,i,27771.900000002235,1385.2000000029802,1669830124585,1385,HRV,HRV_0043,2022-11-30 17:48:39
12,"[{'imgObject': {}, 'id': 'chickenfingers', 'src': '/static/foodstim60/chickenfingers.jpg', 'key': 'u', 'origWidth': 410, 'origHeight': 410, 'width': 410, 'height': 410, 'widthPercent': 0.45, 'rescaleHeight': False, 'trialN': 12, 'loaded': True, 'loadedTime': 2122, 'positionName': 'LEFT', 'positionCoords': [492.88, 262], 'bid': 9.79}, {'imgObject': {}, 'id': 'banana', 'src': '/static/foodstim60/banana.jpg', 'key': 'i', 'origWidth': 410, 'origHeight': 410, 'width': 410, 'height': 410, 'widthPercent': 0.45, 'rescaleHeight': False, 'trialN': 12, 'loaded': True, 'loadedTime': 2125.900000002235, 'positionName': 'RIGHT', 'positionCoords': [978.12, 262], 'bid': 5.57}]",27772.0,1669830124585,chickenfingers,banana,9.79,5.57,-4.219999999999999,chickenfingers,834.6999999992549,835,835.1999999992549,True,u,29109.800000000745,1337.800000000745,1669830125923,1338,HRV,HRV_0043,2022-11-30 17:48:39
13,"[{'imgObject': {}, 'id': 'salmon', 'src': '/static/foodstim60/salmon.jpg', 'key': 'u', 'origWidth': 410, 'origHeight': 409, 'width': 410, 'height': 409, 'widthPercent': 0.45, 'rescaleHeight': False, 'trialN': 13, 'loaded': True, 'loadedTime': 2129.800000000745, 'positionName': 'LEFT', 'positionCoords': [492.88, 262.5], 'bid': 9.51}, {'imgObject': {}, 'id': 'salad w chicken', 'src': '/static/foodstim60/salad w chicken.jpg', 'key': 'i', 'origWidth': 411, 'origHeight': 411, 'width': 411, 'height': 411, 'widthPercent': 0.45, 'rescaleHeight': False, 'trialN': 13, 'loaded': True, 'loadedTime': 2133.10000000149, 'positionName': 'RIGHT', 'positionCoords': [978.12, 261.5], 'bid': 9.8}]",29109.900000002235,1669830125923,salmon,salad w chicken,9.51,9.8,0.2900000000000009,salad w chicken,1256.699999999255,1258,1257.2999999970198,True,i,30880.10000000149,1770.199999999255,1669830127693,1770,HRV,HRV_0043,2022-11-30 17:48:39
14,"[{'imgObject': {}, 'id': 'banana', 'src': '/static/foodstim60/banana.jpg', 'key': 'u', 'origWidth': 410, 'origHeight': 410, 'width': 410, 'height': 410, 'widthPercent': 0.45, 'rescaleHeight': False, 'trialN': 14, 'loaded': True, 'loadedTime': 2125.900000002235, 'positionName': 'LEFT', 'positionCoords': [492.88, 262], 'bid': 5.57}, {'imgObject': {}, 'id': 'shreddedwheatwithmilk', 'src': '/static/foodstim60/shreddedwheatwithmilk.jpg', 'key': 'i', 'origWidth': 410, 'origHeight': 410, 'width': 410, 'height': 410, 'widthPercent': 0.45, 'rescaleHeight': False, 'trialN': 14, 'loaded': True, 'loadedTime': 2137.900000002235, 'positionName': 'RIGHT', 'positionCoords': [978.12, 262], 'bid': 5.5200000000000005}]",30880.199999999255,1669830127694,banana,shreddedwheatwithmilk,5.57,5.5200000000000005,-0.04999999999999982,shreddedwheatwithmilk,1354.2000000029802,1354,1354.7000000029802,True,i,32742.900000002235,1862.7000000029802,1669830129556,1862,HRV,HRV_0043,2022-11-30 17:48:39
15,"[{'imgObject': {}, 'id': 'Tribe humus pita', 'src': '/static/foodstim60/Tribe humus pita.jpg', 'key': 'u', 'origWidth': 411, 'origHeight': 411, 'width': 411, 'height': 411, 'widthPercent': 0.45, 'rescaleHeight': False, 'trialN': 15, 'loaded': True, 'loadedTime': 2109.699999999255, 'positionName': 'LEFT', 'positionCoords': [491.88, 261.5], 'bid': 7.42}, {'imgObject': {}, 'id': 'burrito', 'src': '/static/foodstim60/burrito.jpg', 'key': 'i', 'origWidth': 410, 'origHeight': 410, 'width': 410, 'height': 410, 'widthPercent': 0.45, 'rescaleHeight': False, 'trialN': 15, 'loaded': True, 'loadedTime': 2138.900000002235, 'positionName': 'RIGHT', 'positionCoords': [978.12, 262], 'bid': 7.58}]",32743.0,1669830129556,Tribe humus pita,burrito,7.42,7.58,0.16000000000000014,Tribe humus pita,1914.699999999255,1916,1915.199999999255,True,u,35161.699999999255,2418.699999999255,1669830131975,2419,HRV,HRV_0043,2022-11-30 17:48:39
16,"[{'imgObject': {}, 'id': 'blueberries', 'src': '/static/foodstim60/blueberries.jpg', 'key': 'u', 'origWidth': 411, 'origHeight': 411, 'width': 411, 'height': 411, 'widthPercent': 0.45, 'rescaleHeight': False, 'trialN': 16, 'loaded': True, 'loadedTime': 2142.199999999255, 'positionName': 'LEFT', 'positionCoords': [491.88, 261.5], 'bid': 3.92}, {'imgObject': {}, 'id': 'popsicles', 'src': '/static/foodstim60/popsicles.jpg', 'key': 'i', 'origWidth': 410, 'origHeight': 410, 'width': 410, 'height': 410, 'widthPercent': 0.45, 'rescaleHeight': False, 'trialN': 16, 'loaded': True, 'loadedTime': 2149, 'positionName': 'RIGHT', 'positionCoords': [978.12, 262], 'bid': 3.31}]",35161.900000002235,1669830131975,blueberries,popsicles,3.92,3.31,-0.6099999999999999,blueberries,897.5999999977648,898,898.0999999977648,True,u,36561.699999999255,1399.7999999970198,1669830133375,1400,HRV,HRV_0043,2022-11-30 17:48:39
17,"[{'imgObject': {}, 'id': 'yogurt no spoon', 'src': '/static/foodstim60/yogurt no spoon.jpg', 'key': 'u', 'origWidth': 411, 'origHeight': 410, 'width': 411, 'height': 410, 'widthPercent': 0.45, 'rescaleHeight': False, 'trialN': 17, 'loaded': True, 'loadedTime': 2080.300000000745, 'positionName': 'LEFT', 'positionCoords': [491.88, 262], 'bid': 7.99}, {'imgObject': {}, 'id': 'fruitsalad', 'src': '/static/foodstim60/fruitsalad.jpg', 'key': 'i', 'origWidth': 410, 'origHeight': 410, 'width': 410, 'height': 410, 'widthPercent': 0.45, 'rescaleHeight': False, 'trialN': 17, 'loaded': True, 'loadedTime': 2087.60000000149, 'positionName': 'RIGHT', 'positionCoords': [978.12, 262], 'bid': 7.31}]",36561.900000002235,1669830133375,yogurt no spoon,fruitsalad,7.99,7.31,-0.6800000000000006,yogurt no spoon,915.0,916,915.5999999977648,True,u,37992.60000000149,1430.699999999255,1669830134806,1431,HRV,HRV_0043,2022-11-30 17:48:39
18,"[{'imgObject': {}, 'id': 'cantaloupe', 'src': '/static/foodstim60/cantaloupe.jpg', 'key': 'u', 'origWidth': 409, 'origHeight': 409, 'width': 409, 'height': 409, 'widthPercent': 0.45, 'rescaleHeight': False, 'trialN': 18, 'loaded': True, 'loadedTime': 2153.10000000149, 'positionName': 'LEFT', 'positionCoords': [493.88, 262.5], 'bid': 6.640000000000001}, {'imgObject': {}, 'id': 'chicken nuggets2', 'src': '/static/foodstim60/chicken nuggets2.jpg', 'key': 'i', 'origWidth': 410, 'origHeight': 409, 'width': 410, 'height': 409, 'widthPercent': 0.45, 'rescaleHeight': False, 'trialN': 18, 'loaded': True, 'loadedTime': 2154.199999999255, 'positionName': 'RIGHT', 'positionCoords': [978.12, 262.5], 'bid': 8.82}]",37992.699999999255,1669830134806,cantaloupe,chicken nuggets2,6.640000000000001,8.82,2.1799999999999997,chicken nuggets2,1014.5,1015,1015.2000000029802,True,i,39516.900000002235,1524.2000000029802,1669830136330,1524,HRV,HRV_0043,2022-11-30 17:48:39
19,"[{'imgObject': {}, 'id': 'sweetpotato', 'src': '/static/foodstim60/sweetpotato.jpg', 'key': 'u', 'origWidth': 410, 'origHeight': 410, 'width': 410, 'height': 410, 'widthPercent': 0.45, 'rescaleHeight': False, 'trialN': 19, 'loaded': True, 'loadedTime': 2157.800000000745, 'positionName': 'LEFT', 'positionCoords': [492.88, 262], 'bid': 6.37}, {'imgObject': {}, 'id': 'omelette', 'src': '/static/foodstim60/omelette.jpg', 'key': 'i', 'origWidth': 410, 'origHeight': 409, 'width': 410, 'height': 409, 'widthPercent': 0.45, 'rescaleHeight': False, 'trialN': 19, 'loaded': True, 'loadedTime': 2043.800000000745, 'positionName': 'RIGHT', 'positionCoords': [978.12, 262.5], 'bid': 5.5}]",39517.10000000149,1669830136330,sweetpotato,omelette,6.37,5.5,-0.8700000000000001,sweetpotato,1083.0,1084,1083.5,True,u,41104.699999999255,1587.5999999977648,1669830137918,1588,HRV,HRV_0043,2022-11-30 17:48:39
20,"[{'imgObject': {}, 'id': 'grilled chicken strips', 'src': '/static/foodstim60/grilled chicken strips.jpg', 'key': 'u', 'origWidth': 410, 'origHeight': 411, 'width': 410, 'height': 411, 'widthPercent': 0.45, 'rescaleHeight': False, 'trialN': 20, 'loaded': True, 'loadedTime': 2035.800000000745, 'positionName': 'LEFT', 'positionCoords': [492.88, 261.5], 'bid': 8.63}, {'imgObject': {}, 'id': 'chickenfingers', 'src': '/static/foodstim60/chickenfingers.jpg', 'key': 'i', 'origWidth': 410, 'origHeight': 410, 'width': 410, 'height': 410, 'widthPercent': 0.45, 'rescaleHeight': False, 'trialN': 20, 'loaded': True, 'loadedTime': 2121.400000002235, 'positionName': 'RIGHT', 'positionCoords': [978.12, 262], 'bid': 9.79}]",41104.800000000745,1669830137918,grilled chicken strips,chickenfingers,8.63,9.79,1.1599999999999984,chickenfingers,1743.199999999255,1744,1743.8999999985099,True,i,43362.699999999255,2257.89999999851,1669830140176,2258,HRV,HRV_0043,2022-11-30 17:48:39
21,"[{'imgObject': {}, 'id': 'burger', 'src': '/static/foodstim60/burger.jpg', 'key': 'u', 'origWidth': 409, 'origHeight': 409, 'width': 409, 'height': 409, 'widthPercent': 0.45, 'rescaleHeight': False, 'trialN': 21, 'loaded': True, 'loadedTime': 2084.199999999255, 'positionName': 'LEFT', 'positionCoords': [493.88, 262.5], 'bid': 9.17}, {'imgObject': {}, 'id': 'turkey sandwich', 'src': '/static/foodstim60/turkey sandwich.jpg', 'key': 'i', 'origWidth': 409, 'origHeight': 409, 'width': 409, 'height': 409, 'widthPercent': 0.45, 'rescaleHeight': False, 'trialN': 21, 'loaded': True, 'loadedTime': 2121, 'positionName': 'RIGHT', 'positionCoords': [978.12, 262.5], 'bid': 9.1}]",43362.900000002235,1669830140176,burger,turkey sandwich,9.17,9.1,-0.07000000000000028,burger,1314.3999999985099,1315,1315.0,True,u,45181.199999999255,1818.2999999970198,1669830141995,1819,HRV,HRV_0043,2022-11-30 17:48:39
22,"[{'imgObject': {}, 'id': 'salmon', 'src': '/static/foodstim60/salmon.jpg', 'key': 'u', 'origWidth': 410, 'origHeight': 409, 'width': 410, 'height': 409, 'widthPercent': 0.45, 'rescaleHeight': False, 'trialN': 22, 'loaded': True, 'loadedTime': 2130.10000000149, 'positionName': 'LEFT', 'positionCoords': [492.88, 262.5], 'bid': 9.51}, {'imgObject': {}, 'id': 'shreddedwheatwithmilk', 'src': '/static/foodstim60/shreddedwheatwithmilk.jpg', 'key': 'i', 'origWidth': 410, 'origHeight': 410, 'width': 410, 'height': 410, 'widthPercent': 0.45, 'rescaleHeight': False, 'trialN': 22, 'loaded': True, 'loadedTime': 2137.800000000745, 'positionName': 'RIGHT', 'positionCoords': [978.12, 262], 'bid': 5.5200000000000005}]",45181.300000000745,1669830141995,salmon,shreddedwheatwithmilk,9.51,5.5200000000000005,-3.9899999999999993,salmon,958.3000000007451,959,958.8999999985099,True,u,46644.5,1463.199999999255,1669830143458,1463,HRV,HRV_0043,2022-11-30 17:48:39
23,"[{'imgObject': {}, 'id': 'eggs', 'src': '/static/foodstim60/eggs.jpg', 'key': 'u', 'origWidth': 409, 'origHeight': 409, 'width': 409, 'height': 409, 'widthPercent': 0.45, 'rescaleHeight': False, 'trialN': 23, 'loaded': True, 'loadedTime': 2159.10000000149, 'positionName': 'LEFT', 'positionCoords': [493.88, 262.5], 'bid': 1.82}, {'imgObject': {}, 'id': 'kiwi', 'src': '/static/foodstim60/kiwi.jpg', 'key': 'i', 'origWidth': 410, 'origHeight': 410, 'width': 410, 'height': 410, 'widthPercent': 0.45, 'rescaleHeight': False, 'trialN': 23, 'loaded': True, 'loadedTime': 2165.300000000745, 'positionName': 'RIGHT', 'positionCoords': [978.12, 262], 'bid': 1.12}]",46644.60000000149,1669830143458,eggs,kiwi,1.82,1.12,-0.7,kiwi,1840.800000000745,1841,1841.300000000745,True,i,48987.400000002235,2342.800000000745,1669830145801,2343,HRV,HRV_0043,2022-11-30 17:48:39
24,"[{'imgObject': {}, 'id': 'tacos', 'src': '/static/foodstim60/tacos.jpg', 'key': 'u', 'origWidth': 411, 'origHeight': 411, 'width': 411, 'height': 411, 'widthPercent': 0.45, 'rescaleHeight': False, 'trialN': 24, 'loaded': True, 'loadedTime': 2169.300000000745, 'positionName': 'LEFT', 'positionCoords': [491.88, 261.5], 'bid': 7.5}, {'imgObject': {}, 'id': 'corn cob', 'src': '/static/foodstim60/corn cob.jpg', 'key': 'i', 'origWidth': 411, 'origHeight': 411, 'width': 411, 'height': 411, 'widthPercent': 0.45, 'rescaleHeight': False, 'trialN': 24, 'loaded': True, 'loadedTime': 2170.199999999255, 'positionName': 'RIGHT', 'positionCoords': [978.12, 261.5], 'bid': 7.390000000000001}]",48987.60000000149,1669830145801,tacos,corn cob,7.5,7.390000000000001,-0.10999999999999943,tacos,977.0999999977648,978,977.5999999977648,True,u,50465.800000000745,1478.199999999255,1669830147279,1478,HRV,HRV_0043,2022-11-30 17:48:39
25,"[{'imgObject': {}, 'id': 'bagel plain', 'src': '/static/foodstim60/bagel plain.jpg', 'key': 'u', 'origWidth': 410, 'origHeight': 410, 'width': 410, 'height': 410, 'widthPercent': 0.45, 'rescaleHeight': False, 'trialN': 25, 'loaded': True, 'loadedTime': 2174.10000000149, 'positionName': 'LEFT', 'positionCoords': [492.88, 262], 'bid': 4.08}, {'imgObject': {}, 'id': 'baked potato', 'src': '/static/foodstim60/baked potato.jpg', 'key': 'i', 'origWidth': 409, 'origHeight': 410, 'width': 409, 'height': 410, 'widthPercent': 0.45, 'rescaleHeight': False, 'trialN': 25, 'loaded': True, 'loadedTime': 2177.60000000149, 'positionName': 'RIGHT', 'positionCoords': [978.12, 262], 'bid': 1.71}]",50465.900000002235,1669830147279,bagel plain,baked potato,4.08,1.71,-2.37,bagel plain,1366.0,1367,1366.5999999977648,True,u,52342.199999999255,1876.2999999970198,1669830149156,1877,HRV,HRV_0043,2022-11-30 17:48:39
26,"[{'imgObject': {}, 'id': 'blueberries', 'src': '/static/foodstim60/blueberries.jpg', 'key': 'u', 'origWidth': 411, 'origHeight': 411, 'width': 411, 'height': 411, 'widthPercent': 0.45, 'rescaleHeight': False, 'trialN': 26, 'loaded': True, 'loadedTime': 2146.300000000745, 'positionName': 'LEFT', 'positionCoords': [491.88, 261.5], 'bid': 3.92}, {'imgObject': {}, 'id': 'burrito', 'src': '/static/foodstim60/burrito.jpg', 'key': 'i', 'origWidth': 410, 'origHeight': 410, 'width': 410, 'height': 410, 'widthPercent': 0.45, 'rescaleHeight': False, 'trialN': 26, 'loaded': True, 'loadedTime': 2139, 'positionName': 'RIGHT', 'positionCoords': [978.12, 262], 'bid': 7.58}]",52342.400000002235,1669830149156,blueberries,burrito,3.92,7.58,3.66,burrito,1020.3999999985099,1021,1020.7999999970198,True,i,53865.60000000149,1523.199999999255,1669830150679,1523,HRV,HRV_0043,2022-11-30 17:48:39
27,"[{'imgObject': {}, 'id': 'mashed potato', 'src': '/static/foodstim60/mashed potato.jpg', 'key': 'u', 'origWidth': 409, 'origHeight': 409, 'width': 409, 'height': 409, 'widthPercent': 0.45, 'rescaleHeight': False, 'trialN': 27, 'loaded': True, 'loadedTime': 2181.300000000745, 'positionName': 'LEFT', 'positionCoords': [493.88, 262.5], 'bid': 4.17}, {'imgObject': {}, 'id': 'eggs', 'src': '/static/foodstim60/eggs.jpg', 'key': 'i', 'origWidth': 409, 'origHeight': 409, 'width': 409, 'height': 409, 'widthPercent': 0.45, 'rescaleHeight': False, 'trialN': 27, 'loaded': True, 'loadedTime': 2161.900000002235, 'positionName': 'RIGHT', 'positionCoords': [978.12, 262.5], 'bid': 1.82}]",53865.900000002235,1669830150679,mashed potato,eggs,4.17,1.82,-2.3499999999999996,mashed potato,1139.199999999255,1157,1157.0,True,u,55526.400000002235,1660.5,1669830152340,1661,HRV,HRV_0043,2022-11-30 17:48:39
28,"[{'imgObject': {}, 'id': 'blackbeanswithrice', 'src': '/static/foodstim60/blackbeanswithrice.jpg', 'key': 'u', 'origWidth': 410, 'origHeight': 410, 'width': 410, 'height': 410, 'widthPercent': 0.45, 'rescaleHeight': False, 'trialN': 28, 'loaded': True, 'loadedTime': 2182.400000002235, 'positionName': 'LEFT', 'positionCoords': [492.88, 262], 'bid': 2.42}, {'imgObject': {}, 'id': 'hashbrowns', 'src': '/static/foodstim60/hashbrowns.jpg', 'key': 'i', 'origWidth': 411, 'origHeight': 410, 'width': 411, 'height': 410, 'widthPercent': 0.45, 'rescaleHeight': False, 'trialN': 28, 'loaded': True, 'loadedTime': 2182.800000000745, 'positionName': 'RIGHT', 'positionCoords': [978.12, 262], 'bid': 2.6}]",55526.60000000149,1669830152340,blackbeanswithrice,hashbrowns,2.42,2.6,0.18000000000000016,blackbeanswithrice,1458.0,1458,1458.5999999977648,True,u,57497.900000002235,1971.300000000745,1669830154311,1971,HRV,HRV_0043,2022-11-30 17:48:39
29,"[{'imgObject': {}, 'id': 'mango', 'src': '/static/foodstim60/mango.jpg', 'key': 'u', 'origWidth': 411, 'origHeight': 411, 'width': 411, 'height': 411, 'widthPercent': 0.45, 'rescaleHeight': False, 'trialN': 29, 'loaded': True, 'loadedTime': 2066.199999999255, 'positionName': 'LEFT', 'positionCoords': [491.88, 261.5], 'bid': 1.33}, {'imgObject': {}, 'id': 'fried eggs', 'src': '/static/foodstim60/fried eggs.jpg', 'key': 'i', 'origWidth': 410, 'origHeight': 410, 'width': 410, 'height': 410, 'widthPercent': 0.45, 'rescaleHeight': False, 'trialN': 29, 'loaded': True, 'loadedTime': 2048, 'positionName': 'RIGHT', 'positionCoords': [978.12, 262], 'bid': 5.89}]",57498.0,1669830154311,mango,fried eggs,1.33,5.89,4.56,fried eggs,1061.800000000745,1062,1062.300000000745,True,i,59065.300000000745,1567.300000000745,1669830155879,1568,HRV,HRV_0043,2022-11-30 17:48:39
30,"[{'imgObject': {}, 'id': 'lox', 'src': '/static/foodstim60/lox.jpg', 'key': 'u', 'origWidth': 410, 'origHeight': 411, 'width': 410, 'height': 411, 'widthPercent': 0.45, 'rescaleHeight': False, 'trialN': 30, 'loaded': True, 'loadedTime': 2030.9000000022352, 'positionName': 'LEFT', 'positionCoords': [492.88, 261.5], 'bid': 5.84}, {'imgObject': {}, 'id': 'yogurt no spoon', 'src': '/static/foodstim60/yogurt no spoon.jpg', 'key': 'i', 'origWidth': 411, 'origHeight': 410, 'width': 411, 'height': 410, 'widthPercent': 0.45, 'rescaleHeight': False, 'trialN': 30, 'loaded': True, 'loadedTime': 2080.199999999255, 'positionName': 'RIGHT', 'positionCoords': [978.12, 262], 'bid': 7.99}]",59065.5,1669830155879,lox,yogurt no spoon,5.84,7.99,2.1500000000000004,lox,2007.6000000014901,2008,2008.4000000022352,True,u,61574.800000000745,2509.300000000745,1669830158388,2509,HRV,HRV_0043,2022-11-30 17:48:39
31,"[{'imgObject': {}, 'id': 'avocado', 'src': '/static/foodstim60/avocado.jpg', 'key': 'u', 'origWidth': 409, 'origHeight': 409, 'width': 409, 'height': 409, 'widthPercent': 0.45, 'rescaleHeight': False, 'trialN': 31, 'loaded': True, 'loadedTime': 2186.800000000745, 'positionName': 'LEFT', 'positionCoords': [493.88, 262.5], 'bid': 1.47}, {'imgObject': {}, 'id': 'Grapes', 'src': '/static/foodstim60/Grapes.jpg', 'key': 'i', 'origWidth': 411, 'origHeight': 411, 'width': 411, 'height': 411, 'widthPercent': 0.45, 'rescaleHeight': False, 'trialN': 31, 'loaded': True, 'loadedTime': 2050.800000000745, 'positionName': 'RIGHT', 'positionCoords': [978.12, 261.5], 'bid': 6.19}]",61574.900000002235,1669830158388,avocado,Grapes,1.47,6.19,4.720000000000001,Grapes,878.1999999992549,879,878.6999999992549,True,i,62960.300000000745,1385.3999999985099,1669830159774,1386,HRV,HRV_0043,2022-11-30 17:48:39
32,"[{'imgObject': {}, 'id': 'olives', 'src': '/static/foodstim60/olives.jpg', 'key': 'u', 'origWidth': 410, 'origHeight': 410, 'width': 410, 'height': 410, 'widthPercent': 0.45, 'rescaleHeight': False, 'trialN': 32, 'loaded': True, 'loadedTime': 2191.199999999255, 'positionName': 'LEFT', 'positionCoords': [492.88, 262], 'bid': 5.7}, {'imgObject': {}, 'id': 'sweetpotato', 'src': '/static/foodstim60/sweetpotato.jpg', 'key': 'i', 'origWidth': 410, 'origHeight': 410, 'width': 410, 'height': 410, 'widthPercent': 0.45, 'rescaleHeight': False, 'trialN': 32, 'loaded': True, 'loadedTime': 2158.300000000745, 'positionName': 'RIGHT', 'positionCoords': [978.12, 262], 'bid': 6.37}]",62960.400000002235,1669830159774,olives,sweetpotato,5.7,6.37,0.6699999999999999,olives,1224.5999999977648,1225,1225.199999999255,True,u,64700.0,1739.5999999977648,1669830161513,1739,HRV,HRV_0043,2022-11-30 17:48:39
33,"[{'imgObject': {}, 'id': 'blackbeanswithrice', 'src': '/static/foodstim60/blackbeanswithrice.jpg', 'key': 'u', 'origWidth': 410, 'origHeight': 410, 'width': 410, 'height': 410, 'widthPercent': 0.45, 'rescaleHeight': False, 'trialN': 33, 'loaded': True, 'loadedTime': 2182.5, 'positionName': 'LEFT', 'positionCoords': [492.88, 262], 'bid': 2.42}, {'imgObject': {}, 'id': 'avocado', 'src': '/static/foodstim60/avocado.jpg', 'key': 'i', 'origWidth': 409, 'origHeight': 409, 'width': 409, 'height': 409, 'widthPercent': 0.45, 'rescaleHeight': False, 'trialN': 33, 'loaded': True, 'loadedTime': 2187.300000000745, 'positionName': 'RIGHT', 'positionCoords': [978.12, 262.5], 'bid': 1.47}]",64700.10000000149,1669830161513,blackbeanswithrice,avocado,2.42,1.47,-0.95,avocado,2267.89999999851,2269,2268.5,True,i,67471.30000000075,2771.199999999255,1669830164285,2772,HRV,HRV_0043,2022-11-30 17:48:39
34,"[{'imgObject': {}, 'id': 'kiwi', 'src': '/static/foodstim60/kiwi.jpg', 'key': 'u', 'origWidth': 410, 'origHeight': 410, 'width': 410, 'height': 410, 'widthPercent': 0.45, 'rescaleHeight': False, 'trialN': 34, 'loaded': True, 'loadedTime': 2165.400000002235, 'positionName': 'LEFT', 'positionCoords': [492.88, 262], 'bid': 1.12}, {'imgObject': {}, 'id': 'rigatoni', 'src': '/static/foodstim60/rigatoni.jpg', 'key': 'i', 'origWidth': 411, 'origHeight': 411, 'width': 411, 'height': 411, 'widthPercent': 0.45, 'rescaleHeight': False, 'trialN': 34, 'loaded': True, 'loadedTime': 2192.10000000149, 'positionName': 'RIGHT', 'positionCoords': [978.12, 261.5], 'bid': 1.45}]",67471.5,1669830164285,kiwi,rigatoni,1.12,1.45,0.32999999999999985,kiwi,1100.800000000745,1101,1101.4000000022352,True,u,69087.69999999925,1616.199999999255,1669830165901,1616,HRV,HRV_0043,2022-11-30 17:48:39
35,"[{'imgObject': {}, 'id': 'cherries', 'src': '/static/foodstim60/cherries.jpg', 'key': 'u', 'origWidth': 410, 'origHeight': 411, 'width': 410, 'height': 411, 'widthPercent': 0.45, 'rescaleHeight': False, 'trialN': 35, 'loaded': True, 'loadedTime': 2193.10000000149, 'positionName': 'LEFT', 'positionCoords': [492.88, 261.5], 'bid': 5.64}, {'imgObject': {}, 'id': 'Grapes', 'src': '/static/foodstim60/Grapes.jpg', 'key': 'i', 'origWidth': 411, 'origHeight': 411, 'width': 411, 'height': 411, 'widthPercent': 0.45, 'rescaleHeight': False, 'trialN': 35, 'loaded': True, 'loadedTime': 2051.699999999255, 'positionName': 'RIGHT', 'positionCoords': [978.12, 261.5], 'bid': 6.19}]",69087.80000000075,1669830165901,cherries,Grapes,5.64,6.19,0.5500000000000007,cherries,1554.6000000014901,1555,1555.199999999255,True,u,71148.80000000075,2061.0,1669830167962,2061,HRV,HRV_0043,2022-11-30 17:48:39
36,"[{'imgObject': {}, 'id': 'strawberries', 'src': '/static/foodstim60/strawberries.jpg', 'key': 'u', 'origWidth': 410, 'origHeight': 410, 'width': 410, 'height': 410, 'widthPercent': 0.45, 'rescaleHeight': False, 'trialN': 36, 'loaded': True, 'loadedTime': 2194.10000000149, 'positionName': 'LEFT', 'positionCoords': [492.88, 262], 'bid': 5.29}, {'imgObject': {}, 'id': 'chicken nuggets2', 'src': '/static/foodstim60/chicken nuggets2.jpg', 'key': 'i', 'origWidth': 410, 'origHeight': 409, 'width': 410, 'height': 409, 'widthPercent': 0.45, 'rescaleHeight': False, 'trialN': 36, 'loaded': True, 'loadedTime': 2154.300000000745, 'positionName': 'RIGHT', 'positionCoords': [978.12, 262.5], 'bid': 8.82}]",71148.90000000224,1669830167962,strawberries,chicken nuggets2,5.29,8.82,3.5300000000000002,chicken nuggets2,1113.5999999977648,1114,1114.199999999255,True,i,72765.5,1616.5999999977648,1669830169579,1617,HRV,HRV_0043,2022-11-30 17:48:39
37,"[{'imgObject': {}, 'id': 'sushi w_condiments', 'src': '/static/foodstim60/sushi w_condiments.jpg', 'key': 'u', 'origWidth': 410, 'origHeight': 410, 'width': 410, 'height': 410, 'widthPercent': 0.45, 'rescaleHeight': False, 'trialN': 37, 'loaded': True, 'loadedTime': 2114.199999999255, 'positionName': 'LEFT', 'positionCoords': [492.88, 262], 'bid': 8.36}, {'imgObject': {}, 'id': 'chickenfingers', 'src': '/static/foodstim60/chickenfingers.jpg', 'key': 'i', 'origWidth': 410, 'origHeight': 410, 'width': 410, 'height': 410, 'widthPercent': 0.45, 'rescaleHeight': False, 'trialN': 37, 'loaded': True, 'loadedTime': 2124.800000000745, 'positionName': 'RIGHT', 'positionCoords': [978.12, 262], 'bid': 9.79}]",72765.69999999925,1669830169579,sushi w_condiments,chickenfingers,8.36,9.79,1.4299999999999997,chickenfingers,1049.1000000014901,1050,1049.7000000029802,True,i,74317.90000000224,1552.2000000029802,1669830171131,1552,HRV,HRV_0043,2022-11-30 17:48:39
38,"[{'imgObject': {}, 'id': 'hashbrowns', 'src': '/static/foodstim60/hashbrowns.jpg', 'key': 'u', 'origWidth': 411, 'origHeight': 410, 'width': 411, 'height': 410, 'widthPercent': 0.45, 'rescaleHeight': False, 'trialN': 38, 'loaded': True, 'loadedTime': 2183.5, 'positionName': 'LEFT', 'positionCoords': [491.88, 262], 'bid': 2.6}, {'imgObject': {}, 'id': 'eggsalad', 'src': '/static/foodstim60/eggsalad.jpg', 'key': 'i', 'origWidth': 410, 'origHeight': 409, 'width': 410, 'height': 409, 'widthPercent': 0.45, 'rescaleHeight': False, 'trialN': 38, 'loaded': True, 'loadedTime': 2197.5, 'positionName': 'RIGHT', 'positionCoords': [978.12, 262.5], 'bid': 2.32}]",74318.0,1669830171131,hashbrowns,eggsalad,2.6,2.32,-0.28000000000000025,eggsalad,1319.4000000022352,1320,1319.9000000022352,True,i,76150.69999999925,1832.699999999255,1669830172964,1833,HRV,HRV_0043,2022-11-30 17:48:39
39,"[{'imgObject': {}, 'id': 'burger', 'src': '/static/foodstim60/burger.jpg', 'key': 'u', 'origWidth': 409, 'origHeight': 409, 'width': 409, 'height': 409, 'widthPercent': 0.45, 'rescaleHeight': False, 'trialN': 39, 'loaded': True, 'loadedTime': 2084, 'positionName': 'LEFT', 'positionCoords': [493.88, 262.5], 'bid': 9.17}, {'imgObject': {}, 'id': 'omelette', 'src': '/static/foodstim60/omelette.jpg', 'key': 'i', 'origWidth': 410, 'origHeight': 409, 'width': 410, 'height': 409, 'widthPercent': 0.45, 'rescaleHeight': False, 'trialN': 39, 'loaded': True, 'loadedTime': 2043.300000000745, 'positionName': 'RIGHT', 'positionCoords': [978.12, 262.5], 'bid': 5.5}]",76150.90000000224,1669830172964,burger,omelette,9.17,5.5,-3.67,burger,914.8999999985099,916,915.5999999977648,True,u,77581.0,1430.0999999977648,1669830174394,1430,HRV,HRV_0043,2022-11-30 17:48:39
40,"[{'imgObject': {}, 'id': 'cantaloupe', 'src': '/static/foodstim60/cantaloupe.jpg', 'key': 'u', 'origWidth': 409, 'origHeight': 409, 'width': 409, 'height': 409, 'widthPercent': 0.45, 'rescaleHeight': False, 'trialN': 40, 'loaded': True, 'loadedTime': 2150.400000002235, 'positionName': 'LEFT', 'positionCoords': [493.88, 262.5], 'bid': 6.640000000000001}, {'imgObject': {}, 'id': 'bagel and cc', 'src': '/static/foodstim60/bagel and cc.jpg', 'key': 'i', 'origWidth': 410, 'origHeight': 410, 'width': 410, 'height': 410, 'widthPercent': 0.45, 'rescaleHeight': False, 'trialN': 40, 'loaded': True, 'loadedTime': 2198.5, 'positionName': 'RIGHT', 'positionCoords': [978.12, 262], 'bid': 6.4}]",77581.10000000149,1669830174394,cantaloupe,bagel and cc,6.640000000000001,6.4,-0.2400000000000002,bagel and cc,1762.199999999255,1763,1762.699999999255,True,i,79858.80000000075,2277.699999999255,1669830176672,2278,HRV,HRV_0043,2022-11-30 17:48:39
41,"[{'imgObject': {}, 'id': 'eggs', 'src': '/static/foodstim60/eggs.jpg', 'key': 'u', 'origWidth': 409, 'origHeight': 409, 'width': 409, 'height': 409, 'widthPercent': 0.45, 'rescaleHeight': False, 'trialN': 41, 'loaded': True, 'loadedTime': 2158.5, 'positionName': 'LEFT', 'positionCoords': [493.88, 262.5], 'bid': 1.82}, {'imgObject': {}, 'id': 'seaweed', 'src': '/static/foodstim60/seaweed.jpg', 'key': 'i', 'origWidth': 410, 'origHeight': 410, 'width': 410, 'height': 410, 'widthPercent': 0.45, 'rescaleHeight': False, 'trialN': 41, 'loaded': True, 'loadedTime': 2062.699999999255, 'positionName': 'RIGHT', 'positionCoords': [978.12, 262], 'bid': 1.91}]",79858.90000000224,1669830176672,eggs,seaweed,1.82,1.91,0.08999999999999986,seaweed,998.5999999977648,999,999.0999999977648,True,i,81367.19999999925,1508.2999999970198,1669830178180,1508,HRV,HRV_0043,2022-11-30 17:48:39
42,"[{'imgObject': {}, 'id': 'rigatoni and sauce', 'src': '/static/foodstim60/rigatoni and sauce.jpg', 'key': 'u', 'origWidth': 410, 'origHeight': 411, 'width': 410, 'height': 411, 'widthPercent': 0.45, 'rescaleHeight': False, 'trialN': 42, 'loaded': True, 'loadedTime': 2095.800000000745, 'positionName': 'LEFT', 'positionCoords': [492.88, 261.5], 'bid': 7.11}, {'imgObject': {}, 'id': 'mac & cheese', 'src': '/static/foodstim60/mac & cheese.jpg', 'key': 'i', 'origWidth': 410, 'origHeight': 410, 'width': 410, 'height': 410, 'widthPercent': 0.45, 'rescaleHeight': False, 'trialN': 42, 'loaded': True, 'loadedTime': 2199.300000000745, 'positionName': 'RIGHT', 'positionCoords': [978.12, 262], 'bid': 7.890000000000001}]",81367.40000000224,1669830178181,rigatoni and sauce,mac & cheese,7.11,7.890000000000001,0.7800000000000002,mac & cheese,1245.0999999977648,1245,1245.699999999255,True,i,83120.40000000224,1753.0,1669830179934,1753,HRV,HRV_0043,2022-11-30 17:48:39
43,"[{'imgObject': {}, 'id': 'hashbrowns', 'src': '/static/foodstim60/hashbrowns.jpg', 'key': 'u', 'origWidth': 411, 'origHeight': 410, 'width': 411, 'height': 410, 'widthPercent': 0.45, 'rescaleHeight': False, 'trialN': 43, 'loaded': True, 'loadedTime': 2183.400000002235, 'positionName': 'LEFT', 'positionCoords': [491.88, 262], 'bid': 2.6}, {'imgObject': {}, 'id': 'mango', 'src': '/static/foodstim60/mango.jpg', 'key': 'i', 'origWidth': 411, 'origHeight': 411, 'width': 411, 'height': 411, 'widthPercent': 0.45, 'rescaleHeight': False, 'trialN': 43, 'loaded': True, 'loadedTime': 2065.60000000149, 'positionName': 'RIGHT', 'positionCoords': [978.12, 261.5], 'bid': 1.33}]",83120.60000000149,1669830179934,hashbrowns,mango,2.6,1.33,-1.27,mango,1359.199999999255,1359,1359.5999999977648,True,i,84980.80000000075,1860.199999999255,1669830181794,1860,HRV,HRV_0043,2022-11-30 17:48:39
44,"[{'imgObject': {}, 'id': 'pear', 'src': '/static/foodstim60/pear.jpg', 'key': 'u', 'origWidth': 411, 'origHeight': 410, 'width': 411, 'height': 410, 'widthPercent': 0.45, 'rescaleHeight': False, 'trialN': 44, 'loaded': True, 'loadedTime': 2117.400000002235, 'positionName': 'LEFT', 'positionCoords': [491.88, 262], 'bid': 5.44}, {'imgObject': {}, 'id': 'lox', 'src': '/static/foodstim60/lox.jpg', 'key': 'i', 'origWidth': 410, 'origHeight': 411, 'width': 410, 'height': 411, 'widthPercent': 0.45, 'rescaleHeight': False, 'trialN': 44, 'loaded': True, 'loadedTime': 2028.699999999255, 'positionName': 'RIGHT', 'positionCoords': [978.12, 261.5], 'bid': 5.84}]",84980.90000000224,1669830181794,pear,lox,5.44,5.84,0.39999999999999947,lox,961.8999999985099,963,962.2999999970198,True,i,86458.19999999925,1477.2999999970198,1669830183271,1477,HRV,HRV_0043,2022-11-30 17:48:39
45,"[{'imgObject': {}, 'id': 'steak', 'src': '/static/foodstim60/steak.jpg', 'key': 'u', 'origWidth': 410, 'origHeight': 410, 'width': 410, 'height': 410, 'widthPercent': 0.45, 'rescaleHeight': False, 'trialN': 45, 'loaded': True, 'loadedTime': 2202.900000002235, 'positionName': 'LEFT', 'positionCoords': [492.88, 262], 'bid': 9.98}, {'imgObject': {}, 'id': 'chickenfingers', 'src': '/static/foodstim60/chickenfingers.jpg', 'key': 'i', 'origWidth': 410, 'origHeight': 410, 'width': 410, 'height': 410, 'widthPercent': 0.45, 'rescaleHeight': False, 'trialN': 45, 'loaded': True, 'loadedTime': 2122.300000000745, 'positionName': 'RIGHT', 'positionCoords': [978.12, 262], 'bid': 9.79}]",86458.30000000075,1669830183272,steak,chickenfingers,9.98,9.79,-0.19000000000000128,steak,1621.699999999255,1622,1622.199999999255,True,u,88583.10000000149,2124.800000000745,1669830185396,2124,HRV,HRV_0043,2022-11-30 17:48:39
46,"[{'imgObject': {}, 'id': 'omelette', 'src': '/static/foodstim60/omelette.jpg', 'key': 'u', 'origWidth': 410, 'origHeight': 409, 'width': 410, 'height': 409, 'widthPercent': 0.45, 'rescaleHeight': False, 'trialN': 46, 'loaded': True, 'loadedTime': 2040.5, 'positionName': 'LEFT', 'positionCoords': [492.88, 262.5], 'bid': 5.5}, {'imgObject': {}, 'id': 'banana', 'src': '/static/foodstim60/banana.jpg', 'key': 'i', 'origWidth': 410, 'origHeight': 410, 'width': 410, 'height': 410, 'widthPercent': 0.45, 'rescaleHeight': False, 'trialN': 46, 'loaded': True, 'loadedTime': 2125.699999999255, 'positionName': 'RIGHT', 'positionCoords': [978.12, 262], 'bid': 5.57}]",88583.19999999925,1669830185396,omelette,banana,5.5,5.57,0.07000000000000028,omelette,1852.7000000029802,1854,1853.4000000022352,True,u,90941.30000000075,2358.10000000149,1669830187755,2359,HRV,HRV_0043,2022-11-30 17:48:39
47,"[{'imgObject': {}, 'id': 'cantaloupe', 'src': '/static/foodstim60/cantaloupe.jpg', 'key': 'u', 'origWidth': 409, 'origHeight': 409, 'width': 409, 'height': 409, 'widthPercent': 0.45, 'rescaleHeight': False, 'trialN': 47, 'loaded': True, 'loadedTime': 2149.699999999255, 'positionName': 'LEFT', 'positionCoords': [493.88, 262.5], 'bid': 6.640000000000001}, {'imgObject': {}, 'id': 'seaweed', 'src': '/static/foodstim60/seaweed.jpg', 'key': 'i', 'origWidth': 410, 'origHeight': 410, 'width': 410, 'height': 410, 'widthPercent': 0.45, 'rescaleHeight': False, 'trialN': 47, 'loaded': True, 'loadedTime': 2058.800000000745, 'positionName': 'RIGHT', 'positionCoords': [978.12, 262], 'bid': 1.91}]",90941.5,1669830187755,cantaloupe,seaweed,6.640000000000001,1.91,-4.73,cantaloupe,1526.1000000014901,1526,1526.699999999255,True,u,92976.19999999925,2034.699999999255,1669830189789,2034,HRV,HRV_0043,2022-11-30 17:48:39
48,"[{'imgObject': {}, 'id': 'burger', 'src': '/static/foodstim60/burger.jpg', 'key': 'u', 'origWidth': 409, 'origHeight': 409, 'width': 409, 'height': 409, 'widthPercent': 0.45, 'rescaleHeight': False, 'trialN': 48, 'loaded': True, 'loadedTime': 2083.199999999255, 'positionName': 'LEFT', 'positionCoords': [493.88, 262.5], 'bid': 9.17}, {'imgObject': {}, 'id': 'corn cob', 'src': '/static/foodstim60/corn cob.jpg', 'key': 'i', 'origWidth': 411, 'origHeight': 411, 'width': 411, 'height': 411, 'widthPercent': 0.45, 'rescaleHeight': False, 'trialN': 48, 'loaded': True, 'loadedTime': 2169.5, 'positionName': 'RIGHT', 'positionCoords': [978.12, 261.5], 'bid': 7.390000000000001}]",92976.19999999925,1669830189790,burger,corn cob,9.17,7.390000000000001,-1.7799999999999994,burger,886.4000000022352,886,887.0,True,u,94375.80000000075,1399.6000000014901,1669830191189,1399,HRV,HRV_0043,2022-11-30 17:48:39
49,"[{'imgObject': {}, 'id': 'mashed potato', 'src': '/static/foodstim60/mashed potato.jpg', 'key': 'u', 'origWidth': 409, 'origHeight': 409, 'width': 409, 'height': 409, 'widthPercent': 0.45, 'rescaleHeight': False, 'trialN': 49, 'loaded': True, 'loadedTime': 2181.5, 'positionName': 'LEFT', 'positionCoords': [493.88, 262.5], 'bid': 4.17}, {'imgObject': {}, 'id': 'mango', 'src': '/static/foodstim60/mango.jpg', 'key': 'i', 'origWidth': 411, 'origHeight': 411, 'width': 411, 'height': 411, 'widthPercent': 0.45, 'rescaleHeight': False, 'trialN': 49, 'loaded': True, 'loadedTime': 2066.699999999255, 'positionName': 'RIGHT', 'positionCoords': [978.12, 261.5], 'bid': 1.33}]",94375.90000000224,1669830191189,mashed potato,mango,4.17,1.33,-2.84,mashed potato,1954.8999999985099,1956,1955.5,True,u,96842.5,2466.599999997765,1669830193656,2467,HRV,HRV_0043,2022-11-30 17:48:39
50,"[{'imgObject': {}, 'id': 'corn cob', 'src': '/static/foodstim60/corn cob.jpg', 'key': 'u', 'origWidth': 411, 'origHeight': 411, 'width': 411, 'height': 411, 'widthPercent': 0.45, 'rescaleHeight': False, 'trialN': 50, 'loaded': True, 'loadedTime': 2170.400000002235, 'positionName': 'LEFT', 'positionCoords': [491.88, 261.5], 'bid': 7.390000000000001}, {'imgObject': {}, 'id': 'veggieswithdip', 'src': '/static/foodstim60/veggieswithdip.jpg', 'key': 'i', 'origWidth': 409, 'origHeight': 409, 'width': 409, 'height': 409, 'widthPercent': 0.45, 'rescaleHeight': False, 'trialN': 50, 'loaded': True, 'loadedTime': 2204.300000000745, 'positionName': 'RIGHT', 'positionCoords': [978.12, 262.5], 'bid': 8.3}]",96842.60000000149,1669830193656,corn cob,veggieswithdip,7.390000000000001,8.3,0.9100000000000001,veggieswithdip,980.0,980,980.5,True,i,98335.60000000149,1493.0,1669830195149,1493,HRV,HRV_0043,2022-11-30 17:48:39
51,"[{'imgObject': {}, 'id': 'rigatoni', 'src': '/static/foodstim60/rigatoni.jpg', 'key': 'u', 'origWidth': 411, 'origHeight': 411, 'width': 411, 'height': 411, 'widthPercent': 0.45, 'rescaleHeight': False, 'trialN': 51, 'loaded': True, 'loadedTime': 2191.300000000745, 'positionName': 'LEFT', 'positionCoords': [491.88, 261.5], 'bid': 1.45}, {'imgObject': {}, 'id': 'popsicles', 'src': '/static/foodstim60/popsicles.jpg', 'key': 'i', 'origWidth': 410, 'origHeight': 410, 'width': 410, 'height': 410, 'widthPercent': 0.45, 'rescaleHeight': False, 'trialN': 51, 'loaded': True, 'loadedTime': 2149.10000000149, 'positionName': 'RIGHT', 'positionCoords': [978.12, 262], 'bid': 3.31}]",98335.69999999925,1669830195149,rigatoni,popsicles,1.45,3.31,1.86,popsicles,1534.300000000745,1535,1535.0,True,i,100371.90000000224,2036.2000000029802,1669830197185,2036,HRV,HRV_0043,2022-11-30 17:48:39
52,"[{'imgObject': {}, 'id': 'shreddedwheatwithmilk', 'src': '/static/foodstim60/shreddedwheatwithmilk.jpg', 'key': 'u', 'origWidth': 410, 'origHeight': 410, 'width': 410, 'height': 410, 'widthPercent': 0.45, 'rescaleHeight': False, 'trialN': 52, 'loaded': True, 'loadedTime': 2138.199999999255, 'positionName': 'LEFT', 'positionCoords': [492.88, 262], 'bid': 5.5200000000000005}, {'imgObject': {}, 'id': 'hashbrowns', 'src': '/static/foodstim60/hashbrowns.jpg', 'key': 'i', 'origWidth': 411, 'origHeight': 410, 'width': 411, 'height': 410, 'widthPercent': 0.45, 'rescaleHeight': False, 'trialN': 52, 'loaded': True, 'loadedTime': 2186, 'positionName': 'RIGHT', 'positionCoords': [978.12, 262], 'bid': 2.6}]",100371.90000000224,1669830197185,shreddedwheatwithmilk,hashbrowns,5.5200000000000005,2.6,-2.9200000000000004,shreddedwheatwithmilk,1073.0,1074,1073.5999999977648,True,u,101957.40000000224,1585.5,1669830198771,1586,HRV,HRV_0043,2022-11-30 17:48:39
53,"[{'imgObject': {}, 'id': 'banana', 'src': '/static/foodstim60/banana.jpg', 'key': 'u', 'origWidth': 410, 'origHeight': 410, 'width': 410, 'height': 410, 'widthPercent': 0.45, 'rescaleHeight': False, 'trialN': 53, 'loaded': True, 'loadedTime': 2125.699999999255, 'positionName': 'LEFT', 'positionCoords': [492.88, 262], 'bid': 5.57}, {'imgObject': {}, 'id': 'popsicles', 'src': '/static/foodstim60/popsicles.jpg', 'key': 'i', 'origWidth': 410, 'origHeight': 410, 'width': 410, 'height': 410, 'widthPercent': 0.45, 'rescaleHeight': False, 'trialN': 53, 'loaded': True, 'loadedTime': 2149.300000000745, 'positionName': 'RIGHT', 'positionCoords': [978.12, 262], 'bid': 3.31}]",101957.5,1669830198771,banana,popsicles,5.57,3.31,-2.2600000000000002,banana,1220.1000000014901,1220,1220.699999999255,True,u,103682.90000000224,1725.4000000022352,1669830200496,1725,HRV,HRV_0043,2022-11-30 17:48:39
54,"[{'imgObject': {}, 'id': 'Tribe humus pita', 'src': '/static/foodstim60/Tribe humus pita.jpg', 'key': 'u', 'origWidth': 411, 'origHeight': 411, 'width': 411, 'height': 411, 'widthPercent': 0.45, 'rescaleHeight': False, 'trialN': 54, 'loaded': True, 'loadedTime': 2112.900000002235, 'positionName': 'LEFT', 'positionCoords': [491.88, 261.5], 'bid': 7.42}, {'imgObject': {}, 'id': 'salmon', 'src': '/static/foodstim60/salmon.jpg', 'key': 'i', 'origWidth': 410, 'origHeight': 409, 'width': 410, 'height': 409, 'widthPercent': 0.45, 'rescaleHeight': False, 'trialN': 54, 'loaded': True, 'loadedTime': 2132.900000002235, 'positionName': 'RIGHT', 'positionCoords': [978.12, 262.5], 'bid': 9.51}]",103683.0,1669830200496,Tribe humus pita,salmon,7.42,9.51,2.09,salmon,980.3000000007451,981,980.8000000007451,True,i,105176.69999999925,1493.699999999255,1669830201990,1494,HRV,HRV_0043,2022-11-30 17:48:39
55,"[{'imgObject': {}, 'id': 'cherry tomato', 'src': '/static/foodstim60/cherry tomato.jpg', 'key': 'u', 'origWidth': 410, 'origHeight': 410, 'width': 410, 'height': 410, 'widthPercent': 0.45, 'rescaleHeight': False, 'trialN': 55, 'loaded': True, 'loadedTime': 2205.300000000745, 'positionName': 'LEFT', 'positionCoords': [492.88, 262], 'bid': 5.23}, {'imgObject': {}, 'id': 'eggs', 'src': '/static/foodstim60/eggs.jpg', 'key': 'i', 'origWidth': 409, 'origHeight': 409, 'width': 409, 'height': 409, 'widthPercent': 0.45, 'rescaleHeight': False, 'trialN': 55, 'loaded': True, 'loadedTime': 2161.800000000745, 'positionName': 'RIGHT', 'positionCoords': [978.12, 262.5], 'bid': 1.82}]",105176.90000000224,1669830201990,cherry tomato,eggs,5.23,1.82,-3.41,cherry tomato,896.5999999977648,898,897.3999999985099,True,u,106578.40000000224,1401.5,1669830203392,1402,HRV,HRV_0043,2022-11-30 17:48:39
56,"[{'imgObject': {}, 'id': 'cantaloupe', 'src': '/static/foodstim60/cantaloupe.jpg', 'key': 'u', 'origWidth': 409, 'origHeight': 409, 'width': 409, 'height': 409, 'widthPercent': 0.45, 'rescaleHeight': False, 'trialN': 56, 'loaded': True, 'loadedTime': 2153.199999999255, 'positionName': 'LEFT', 'positionCoords': [493.88, 262.5], 'bid': 6.640000000000001}, {'imgObject': {}, 'id': 'fruitsalad', 'src': '/static/foodstim60/fruitsalad.jpg', 'key': 'i', 'origWidth': 410, 'origHeight': 410, 'width': 410, 'height': 410, 'widthPercent': 0.45, 'rescaleHeight': False, 'trialN': 56, 'loaded': True, 'loadedTime': 2084.60000000149, 'positionName': 'RIGHT', 'positionCoords': [978.12, 262], 'bid': 7.31}]",106578.5,1669830203392,cantaloupe,fruitsalad,6.640000000000001,7.31,0.669999999999999,fruitsalad,964.1999999992549,964,964.6999999992549,True,i,108056.5,1478.0,1669830204870,1478,HRV,HRV_0043,2022-11-30 17:48:39
57,"[{'imgObject': {}, 'id': 'orange slices', 'src': '/static/foodstim60/orange slices.jpg', 'key': 'u', 'origWidth': 409, 'origHeight': 410, 'width': 409, 'height': 410, 'widthPercent': 0.45, 'rescaleHeight': False, 'trialN': 57, 'loaded': True, 'loadedTime': 2055.60000000149, 'positionName': 'LEFT', 'positionCoords': [493.88, 262], 'bid': 6.01}, {'imgObject': {}, 'id': 'ice cream sundae 002', 'src': '/static/foodstim60/ice cream sundae 002.jpg', 'key': 'i', 'origWidth': 409, 'origHeight': 409, 'width': 409, 'height': 409, 'widthPercent': 0.45, 'rescaleHeight': False, 'trialN': 57, 'loaded': True, 'loadedTime': 2101.60000000149, 'positionName': 'RIGHT', 'positionCoords': [978.12, 262.5], 'bid': 6.19}]",108056.60000000149,1669830204870,orange slices,ice cream sundae 002,6.01,6.19,0.1800000000000006,ice cream sundae 002,1601.0999999977648,1601,1601.5999999977648,True,i,110163.90000000224,2107.300000000745,1669830206977,2107,HRV,HRV_0043,2022-11-30 17:48:39
58,"[{'imgObject': {}, 'id': 'cheerios', 'src': '/static/foodstim60/cheerios.jpg', 'key': 'u', 'origWidth': 409, 'origHeight': 410, 'width': 409, 'height': 410, 'widthPercent': 0.45, 'rescaleHeight': False, 'trialN': 58, 'loaded': True, 'loadedTime': 2077.400000002235, 'positionName': 'LEFT', 'positionCoords': [493.88, 262], 'bid': 2.24}, {'imgObject': {}, 'id': 'blackbeanswithrice', 'src': '/static/foodstim60/blackbeanswithrice.jpg', 'key': 'i', 'origWidth': 410, 'origHeight': 410, 'width': 410, 'height': 410, 'widthPercent': 0.45, 'rescaleHeight': False, 'trialN': 58, 'loaded': True, 'loadedTime': 2182.699999999255, 'positionName': 'RIGHT', 'positionCoords': [978.12, 262], 'bid': 2.42}]",110164.10000000149,1669830206977,cheerios,blackbeanswithrice,2.24,2.42,0.17999999999999972,cheerios,1091.199999999255,1093,1092.800000000745,True,u,111763.90000000224,1599.800000000745,1669830208577,1600,HRV,HRV_0043,2022-11-30 17:48:39
59,"[{'imgObject': {}, 'id': 'pear', 'src': '/static/foodstim60/pear.jpg', 'key': 'u', 'origWidth': 411, 'origHeight': 410, 'width': 411, 'height': 410, 'widthPercent': 0.45, 'rescaleHeight': False, 'trialN': 59, 'loaded': True, 'loadedTime': 2117.699999999255, 'positionName': 'LEFT', 'positionCoords': [491.88, 262], 'bid': 5.44}, {'imgObject': {}, 'id': 'omelette', 'src': '/static/foodstim60/omelette.jpg', 'key': 'i', 'origWidth': 410, 'origHeight': 409, 'width': 410, 'height': 409, 'widthPercent': 0.45, 'rescaleHeight': False, 'trialN': 59, 'loaded': True, 'loadedTime': 2040.4000000022352, 'positionName': 'RIGHT', 'positionCoords': [978.12, 262.5], 'bid': 5.5}]",111764.10000000149,1669830208577,pear,omelette,5.44,5.5,0.05999999999999961,omelette,998.6999999992549,1000,999.3999999985099,True,i,113270.40000000224,1506.300000000745,1669830210084,1507,HRV,HRV_0043,2022-11-30 17:48:39
60,"[{'imgObject': {}, 'id': 'cherry tomato', 'src': '/static/foodstim60/cherry tomato.jpg', 'key': 'u', 'origWidth': 410, 'origHeight': 410, 'width': 410, 'height': 410, 'widthPercent': 0.45, 'rescaleHeight': False, 'trialN': 60, 'loaded': True, 'loadedTime': 2205, 'positionName': 'LEFT', 'positionCoords': [492.88, 262], 'bid': 5.23}, {'imgObject': {}, 'id': 'apple slices', 'src': '/static/foodstim60/apple slices.jpg', 'key': 'i', 'origWidth': 409, 'origHeight': 410, 'width': 409, 'height': 410, 'widthPercent': 0.45, 'rescaleHeight': False, 'trialN': 60, 'loaded': True, 'loadedTime': 2070.10000000149, 'positionName': 'RIGHT', 'positionCoords': [978.12, 262], 'bid': 5.4}]",113270.60000000149,1669830210084,cherry tomato,apple slices,5.23,5.4,0.16999999999999993,apple slices,2028.5,2029,2028.8999999985099,True,i,115809.19999999925,2538.599999997765,1669830212622,2538,HRV,HRV_0043,2022-11-30 17:48:39
61,"[{'imgObject': {}, 'id': 'cheerios', 'src': '/static/foodstim60/cheerios.jpg', 'key': 'u', 'origWidth': 409, 'origHeight': 410, 'width': 409, 'height': 410, 'widthPercent': 0.45, 'rescaleHeight': False, 'trialN': 61, 'loaded': True, 'loadedTime': 2074.199999999255, 'positionName': 'LEFT', 'positionCoords': [493.88, 262], 'bid': 2.24}, {'imgObject': {}, 'id': 'eggsalad', 'src': '/static/foodstim60/eggsalad.jpg', 'key': 'i', 'origWidth': 410, 'origHeight': 409, 'width': 410, 'height': 409, 'widthPercent': 0.45, 'rescaleHeight': False, 'trialN': 61, 'loaded': True, 'loadedTime': 2197.199999999255, 'positionName': 'RIGHT', 'positionCoords': [978.12, 262.5], 'bid': 2.32}]",115809.40000000224,1669830212622,cheerios,eggsalad,2.24,2.32,0.07999999999999963,cheerios,1874.5,1875,1875.0,True,u,118197.30000000075,2387.89999999851,1669830215010,2388,HRV,HRV_0043,2022-11-30 17:48:39
62,"[{'imgObject': {}, 'id': 'raisin bran w milk', 'src': '/static/foodstim60/raisin bran w milk.jpg', 'key': 'u', 'origWidth': 411, 'origHeight': 411, 'width': 411, 'height': 411, 'widthPercent': 0.45, 'rescaleHeight': False, 'trialN': 62, 'loaded': True, 'loadedTime': 2206.10000000149, 'positionName': 'LEFT', 'positionCoords': [491.88, 261.5], 'bid': 3.98}, {'imgObject': {}, 'id': 'froot loops w milk', 'src': '/static/foodstim60/froot loops w milk.jpg', 'key': 'i', 'origWidth': 410, 'origHeight': 410, 'width': 410, 'height': 410, 'widthPercent': 0.45, 'rescaleHeight': False, 'trialN': 62, 'loaded': True, 'loadedTime': 2027.5, 'positionName': 'RIGHT', 'positionCoords': [978.12, 262], 'bid': 5.22}]",118197.5,1669830215011,raisin bran w milk,froot loops w milk,3.98,5.22,1.2399999999999998,raisin bran w milk,1427.9000000022352,1428,1428.5,True,u,120138.30000000075,1940.800000000745,1669830216951,1940,HRV,HRV_0043,2022-11-30 17:48:39
63,"[{'imgObject': {}, 'id': 'chicken nuggets2', 'src': '/static/foodstim60/chicken nuggets2.jpg', 'key': 'u', 'origWidth': 410, 'origHeight': 409, 'width': 410, 'height': 409, 'widthPercent': 0.45, 'rescaleHeight': False, 'trialN': 63, 'loaded': True, 'loadedTime': 2154.199999999255, 'positionName': 'LEFT', 'positionCoords': [492.88, 262.5], 'bid': 8.82}, {'imgObject': {}, 'id': 'turkey sandwich', 'src': '/static/foodstim60/turkey sandwich.jpg', 'key': 'i', 'origWidth': 409, 'origHeight': 409, 'width': 409, 'height': 409, 'widthPercent': 0.45, 'rescaleHeight': False, 'trialN': 63, 'loaded': True, 'loadedTime': 2118.5, 'positionName': 'RIGHT', 'positionCoords': [978.12, 262.5], 'bid': 9.1}]",120138.40000000224,1669830216951,chicken nuggets2,turkey sandwich,8.82,9.1,0.27999999999999936,turkey sandwich,1197.0,1198,1197.5,True,i,121848.60000000149,1710.199999999255,1669830218662,1711,HRV,HRV_0043,2022-11-30 17:48:39
64,"[{'imgObject': {}, 'id': 'mango', 'src': '/static/foodstim60/mango.jpg', 'key': 'u', 'origWidth': 411, 'origHeight': 411, 'width': 411, 'height': 411, 'widthPercent': 0.45, 'rescaleHeight': False, 'trialN': 64, 'loaded': True, 'loadedTime': 2066.5, 'positionName': 'LEFT', 'positionCoords': [491.88, 261.5], 'bid': 1.33}, {'imgObject': {}, 'id': 'kiwi', 'src': '/static/foodstim60/kiwi.jpg', 'key': 'i', 'origWidth': 410, 'origHeight': 410, 'width': 410, 'height': 410, 'widthPercent': 0.45, 'rescaleHeight': False, 'trialN': 64, 'loaded': True, 'loadedTime': 2164.60000000149, 'positionName': 'RIGHT', 'positionCoords': [978.12, 262], 'bid': 1.12}]",121848.69999999925,1669830218662,mango,kiwi,1.33,1.12,-0.20999999999999996,mango,1196.7000000029802,1197,1197.300000000745,True,u,123555.10000000149,1706.4000000022352,1669830220368,1706,HRV,HRV_0043,2022-11-30 17:48:39
65,"[{'imgObject': {}, 'id': 'turkey sandwich', 'src': '/static/foodstim60/turkey sandwich.jpg', 'key': 'u', 'origWidth': 409, 'origHeight': 409, 'width': 409, 'height': 409, 'widthPercent': 0.45, 'rescaleHeight': False, 'trialN': 65, 'loaded': True, 'loadedTime': 2121.400000002235, 'positionName': 'LEFT', 'positionCoords': [493.88, 262.5], 'bid': 9.1}, {'imgObject': {}, 'id': 'fruitsalad', 'src': '/static/foodstim60/fruitsalad.jpg', 'key': 'i', 'origWidth': 410, 'origHeight': 410, 'width': 410, 'height': 410, 'widthPercent': 0.45, 'rescaleHeight': False, 'trialN': 65, 'loaded': True, 'loadedTime': 2087.199999999255, 'positionName': 'RIGHT', 'positionCoords': [978.12, 262], 'bid': 7.31}]",123555.19999999925,1669830220368,turkey sandwich,fruitsalad,9.1,7.31,-1.79,turkey sandwich,840.3000000007451,841,840.8000000007451,True,u,124910.69999999925,1355.5,1669830221724,1356,HRV,HRV_0043,2022-11-30 17:48:39
66,"[{'imgObject': {}, 'id': 'tacos', 'src': '/static/foodstim60/tacos.jpg', 'key': 'u', 'origWidth': 411, 'origHeight': 411, 'width': 411, 'height': 411, 'widthPercent': 0.45, 'rescaleHeight': False, 'trialN': 66, 'loaded': True, 'loadedTime': 2165.800000000745, 'positionName': 'LEFT', 'positionCoords': [491.88, 261.5], 'bid': 7.5}, {'imgObject': {}, 'id': 'popsicles', 'src': '/static/foodstim60/popsicles.jpg', 'key': 'i', 'origWidth': 410, 'origHeight': 410, 'width': 410, 'height': 410, 'widthPercent': 0.45, 'rescaleHeight': False, 'trialN': 66, 'loaded': True, 'loadedTime': 2149.400000002235, 'positionName': 'RIGHT', 'positionCoords': [978.12, 262], 'bid': 3.31}]",124910.80000000075,1669830221724,tacos,popsicles,7.5,3.31,-4.1899999999999995,tacos,812.0,812,812.5,True,u,126234.80000000075,1324.0,1669830223048,1324,HRV,HRV_0043,2022-11-30 17:48:39
67,"[{'imgObject': {}, 'id': 'Grapes', 'src': '/static/foodstim60/Grapes.jpg', 'key': 'u', 'origWidth': 411, 'origHeight': 411, 'width': 411, 'height': 411, 'widthPercent': 0.45, 'rescaleHeight': False, 'trialN': 67, 'loaded': True, 'loadedTime': 2054.60000000149, 'positionName': 'LEFT', 'positionCoords': [491.88, 261.5], 'bid': 6.19}, {'imgObject': {}, 'id': 'sweetpotato', 'src': '/static/foodstim60/sweetpotato.jpg', 'key': 'i', 'origWidth': 410, 'origHeight': 410, 'width': 410, 'height': 410, 'widthPercent': 0.45, 'rescaleHeight': False, 'trialN': 67, 'loaded': True, 'loadedTime': 2158.10000000149, 'positionName': 'RIGHT', 'positionCoords': [978.12, 262], 'bid': 6.37}]",126234.90000000224,1669830223048,Grapes,sweetpotato,6.19,6.37,0.17999999999999972,sweetpotato,852.8999999985099,854,853.5999999977648,True,i,127602.80000000075,1367.8999999985099,1669830224416,1368,HRV,HRV_0043,2022-11-30 17:48:39
68,"[{'imgObject': {}, 'id': 'steak', 'src': '/static/foodstim60/steak.jpg', 'key': 'u', 'origWidth': 410, 'origHeight': 410, 'width': 410, 'height': 410, 'widthPercent': 0.45, 'rescaleHeight': False, 'trialN': 68, 'loaded': True, 'loadedTime': 2202.10000000149, 'positionName': 'LEFT', 'positionCoords': [492.88, 262], 'bid': 9.98}, {'imgObject': {}, 'id': 'roastedpotatoes', 'src': '/static/foodstim60/roastedpotatoes.jpg', 'key': 'i', 'origWidth': 409, 'origHeight': 410, 'width': 409, 'height': 410, 'widthPercent': 0.45, 'rescaleHeight': False, 'trialN': 68, 'loaded': True, 'loadedTime': 2206.800000000745, 'positionName': 'RIGHT', 'positionCoords': [978.12, 262], 'bid': 9}]",127602.90000000224,1669830224416,steak,roastedpotatoes,9.98,9.0,-0.9800000000000004,steak,865.0999999977648,866,865.6999999992549,True,u,128972.90000000224,1370.0,1669830225786,1370,HRV,HRV_0043,2022-11-30 17:48:39
69,"[{'imgObject': {}, 'id': 'turkeysandwich', 'src': '/static/foodstim60/turkeysandwich.jpg', 'key': 'u', 'origWidth': 409, 'origHeight': 409, 'width': 409, 'height': 409, 'widthPercent': 0.45, 'rescaleHeight': False, 'trialN': 69, 'loaded': True, 'loadedTime': 2033, 'positionName': 'LEFT', 'positionCoords': [493.88, 262.5], 'bid': 8.57}, {'imgObject': {}, 'id': 'steak', 'src': '/static/foodstim60/steak.jpg', 'key': 'i', 'origWidth': 410, 'origHeight': 410, 'width': 410, 'height': 410, 'widthPercent': 0.45, 'rescaleHeight': False, 'trialN': 69, 'loaded': True, 'loadedTime': 2203, 'positionName': 'RIGHT', 'positionCoords': [978.12, 262], 'bid': 9.98}]",128973.0,1669830225786,turkeysandwich,steak,8.57,9.98,1.4100000000000001,steak,934.9000000022352,935,935.5,True,i,130418.90000000224,1445.9000000022352,1669830227232,1446,HRV,HRV_0043,2022-11-30 17:48:39
70,"[{'imgObject': {}, 'id': 'steak', 'src': '/static/foodstim60/steak.jpg', 'key': 'u', 'origWidth': 410, 'origHeight': 410, 'width': 410, 'height': 410, 'widthPercent': 0.45, 'rescaleHeight': False, 'trialN': 70, 'loaded': True, 'loadedTime': 2203.10000000149, 'positionName': 'LEFT', 'positionCoords': [492.88, 262], 'bid': 9.98}, {'imgObject': {}, 'id': 'mac & cheese', 'src': '/static/foodstim60/mac & cheese.jpg', 'key': 'i', 'origWidth': 410, 'origHeight': 410, 'width': 410, 'height': 410, 'widthPercent': 0.45, 'rescaleHeight': False, 'trialN': 70, 'loaded': True, 'loadedTime': 2199.60000000149, 'positionName': 'RIGHT', 'positionCoords': [978.12, 262], 'bid': 7.890000000000001}]",130419.0,1669830227232,steak,mac & cheese,9.98,7.890000000000001,-2.09,steak,861.1999999992549,862,861.6999999992549,True,u,131788.69999999925,1369.699999999255,1669830228602,1370,HRV,HRV_0043,2022-11-30 17:48:39
71,"[{'imgObject': {}, 'id': 'baked potato', 'src': '/static/foodstim60/baked potato.jpg', 'key': 'u', 'origWidth': 409, 'origHeight': 410, 'width': 409, 'height': 410, 'widthPercent': 0.45, 'rescaleHeight': False, 'trialN': 71, 'loaded': True, 'loadedTime': 2177.699999999255, 'positionName': 'LEFT', 'positionCoords': [493.88, 262], 'bid': 1.71}, {'imgObject': {}, 'id': 'seaweed', 'src': '/static/foodstim60/seaweed.jpg', 'key': 'i', 'origWidth': 410, 'origHeight': 410, 'width': 410, 'height': 410, 'widthPercent': 0.45, 'rescaleHeight': False, 'trialN': 71, 'loaded': True, 'loadedTime': 2062.300000000745, 'positionName': 'RIGHT', 'positionCoords': [978.12, 262], 'bid': 1.91}]",131788.80000000075,1669830228602,baked potato,seaweed,1.71,1.91,0.19999999999999996,seaweed,1584.300000000745,1585,1584.8999999985099,True,i,133883.19999999925,2094.39999999851,1669830230696,2094,HRV,HRV_0043,2022-11-30 17:48:39
72,"[{'imgObject': {}, 'id': 'steak', 'src': '/static/foodstim60/steak.jpg', 'key': 'u', 'origWidth': 410, 'origHeight': 410, 'width': 410, 'height': 410, 'widthPercent': 0.45, 'rescaleHeight': False, 'trialN': 72, 'loaded': True, 'loadedTime': 2203.10000000149, 'positionName': 'LEFT', 'positionCoords': [492.88, 262], 'bid': 9.98}, {'imgObject': {}, 'id': 'olives', 'src': '/static/foodstim60/olives.jpg', 'key': 'i', 'origWidth': 410, 'origHeight': 410, 'width': 410, 'height': 410, 'widthPercent': 0.45, 'rescaleHeight': False, 'trialN': 72, 'loaded': True, 'loadedTime': 2187.300000000745, 'positionName': 'RIGHT', 'positionCoords': [978.12, 262], 'bid': 5.7}]",133883.30000000075,1669830230696,steak,olives,9.98,5.7,-4.28,steak,817.1000000014901,818,817.6999999992549,True,u,135206.80000000075,1323.5,1669830232020,1324,HRV,HRV_0043,2022-11-30 17:48:39
73,"[{'imgObject': {}, 'id': 'hotdog w must', 'src': '/static/foodstim60/hotdog w must.jpg', 'key': 'u', 'origWidth': 409, 'origHeight': 409, 'width': 409, 'height': 409, 'widthPercent': 0.45, 'rescaleHeight': False, 'trialN': 73, 'loaded': True, 'loadedTime': 2207.900000002235, 'positionName': 'LEFT', 'positionCoords': [493.88, 262.5], 'bid': 8.59}, {'imgObject': {}, 'id': 'corn cob', 'src': '/static/foodstim60/corn cob.jpg', 'key': 'i', 'origWidth': 411, 'origHeight': 411, 'width': 411, 'height': 411, 'widthPercent': 0.45, 'rescaleHeight': False, 'trialN': 73, 'loaded': True, 'loadedTime': 2170.10000000149, 'positionName': 'RIGHT', 'positionCoords': [978.12, 261.5], 'bid': 7.390000000000001}]",135206.90000000224,1669830232020,hotdog w must,corn cob,8.59,7.390000000000001,-1.1999999999999993,hotdog w must,892.2999999970198,893,892.7999999970198,True,u,136608.69999999925,1401.7999999970198,1669830233422,1402,HRV,HRV_0043,2022-11-30 17:48:39
74,"[{'imgObject': {}, 'id': 'strawberries', 'src': '/static/foodstim60/strawberries.jpg', 'key': 'u', 'origWidth': 410, 'origHeight': 410, 'width': 410, 'height': 410, 'widthPercent': 0.45, 'rescaleHeight': False, 'trialN': 74, 'loaded': True, 'loadedTime': 2193.199999999255, 'positionName': 'LEFT', 'positionCoords': [492.88, 262], 'bid': 5.29}, {'imgObject': {}, 'id': 'apple slices', 'src': '/static/foodstim60/apple slices.jpg', 'key': 'i', 'origWidth': 409, 'origHeight': 410, 'width': 409, 'height': 410, 'widthPercent': 0.45, 'rescaleHeight': False, 'trialN': 74, 'loaded': True, 'loadedTime': 2069.300000000745, 'positionName': 'RIGHT', 'positionCoords': [978.12, 262], 'bid': 5.4}]",136608.69999999925,1669830233422,strawberries,apple slices,5.29,5.4,0.11000000000000032,apple slices,1753.1000000014901,1754,1753.800000000745,True,i,138869.69999999925,2261.0,1669830235683,2261,HRV,HRV_0043,2022-11-30 17:48:39
75,"[{'imgObject': {}, 'id': 'avocado', 'src': '/static/foodstim60/avocado.jpg', 'key': 'u', 'origWidth': 409, 'origHeight': 409, 'width': 409, 'height': 409, 'widthPercent': 0.45, 'rescaleHeight': False, 'trialN': 75, 'loaded': True, 'loadedTime': 2186.900000002235, 'positionName': 'LEFT', 'positionCoords': [493.88, 262.5], 'bid': 1.47}, {'imgObject': {}, 'id': 'raisin bran w milk', 'src': '/static/foodstim60/raisin bran w milk.jpg', 'key': 'i', 'origWidth': 411, 'origHeight': 411, 'width': 411, 'height': 411, 'widthPercent': 0.45, 'rescaleHeight': False, 'trialN': 75, 'loaded': True, 'loadedTime': 2206.10000000149, 'positionName': 'RIGHT', 'positionCoords': [978.12, 261.5], 'bid': 3.98}]",138869.80000000075,1669830235683,avocado,raisin bran w milk,1.47,3.98,2.51,raisin bran w milk,960.3999999985099,961,961.0,True,i,140331.69999999925,1461.8999999985099,1669830237145,1462,HRV,HRV_0043,2022-11-30 17:48:39
76,"[{'imgObject': {}, 'id': 'veggieswithdip', 'src': '/static/foodstim60/veggieswithdip.jpg', 'key': 'u', 'origWidth': 409, 'origHeight': 409, 'width': 409, 'height': 409, 'widthPercent': 0.45, 'rescaleHeight': False, 'trialN': 76, 'loaded': True, 'loadedTime': 2204.199999999255, 'positionName': 'LEFT', 'positionCoords': [493.88, 262.5], 'bid': 8.3}, {'imgObject': {}, 'id': 'mashed potato', 'src': '/static/foodstim60/mashed potato.jpg', 'key': 'i', 'origWidth': 409, 'origHeight': 409, 'width': 409, 'height': 409, 'widthPercent': 0.45, 'rescaleHeight': False, 'trialN': 76, 'loaded': True, 'loadedTime': 2178.10000000149, 'positionName': 'RIGHT', 'positionCoords': [978.12, 262.5], 'bid': 4.17}]",140331.80000000075,1669830237145,veggieswithdip,mashed potato,8.3,4.17,-4.130000000000001,veggieswithdip,2131.199999999255,2132,2131.699999999255,True,u,142964.19999999925,2632.39999999851,1669830239777,2632,HRV,HRV_0043,2022-11-30 17:48:39
77,"[{'imgObject': {}, 'id': 'cherry tomato', 'src': '/static/foodstim60/cherry tomato.jpg', 'key': 'u', 'origWidth': 410, 'origHeight': 410, 'width': 410, 'height': 410, 'widthPercent': 0.45, 'rescaleHeight': False, 'trialN': 77, 'loaded': True, 'loadedTime': 2205.10000000149, 'positionName': 'LEFT', 'positionCoords': [492.88, 262], 'bid': 5.23}, {'imgObject': {}, 'id': 'fried eggs', 'src': '/static/foodstim60/fried eggs.jpg', 'key': 'i', 'origWidth': 410, 'origHeight': 410, 'width': 410, 'height': 410, 'widthPercent': 0.45, 'rescaleHeight': False, 'trialN': 77, 'loaded': True, 'loadedTime': 2047.800000000745, 'positionName': 'RIGHT', 'positionCoords': [978.12, 262], 'bid': 5.89}]",142964.40000000224,1669830239777,cherry tomato,fried eggs,5.23,5.89,0.6599999999999993,fried eggs,1298.5999999977648,1300,1299.5999999977648,True,i,144764.80000000075,1800.3999999985099,1669830241578,1801,HRV,HRV_0043,2022-11-30 17:48:39
78,"[{'imgObject': {}, 'id': 'luckycharms', 'src': '/static/foodstim60/luckycharms.jpg', 'key': 'u', 'origWidth': 410, 'origHeight': 409, 'width': 410, 'height': 409, 'widthPercent': 0.45, 'rescaleHeight': False, 'trialN': 78, 'loaded': True, 'loadedTime': 2208.800000000745, 'positionName': 'LEFT', 'positionCoords': [492.88, 262.5], 'bid': 4.72}, {'imgObject': {}, 'id': 'turkeysandwich', 'src': '/static/foodstim60/turkeysandwich.jpg', 'key': 'i', 'origWidth': 409, 'origHeight': 409, 'width': 409, 'height': 409, 'widthPercent': 0.45, 'rescaleHeight': False, 'trialN': 78, 'loaded': True, 'loadedTime': 2031.800000000745, 'positionName': 'RIGHT', 'positionCoords': [978.12, 262.5], 'bid': 8.57}]",144764.90000000224,1669830241578,luckycharms,turkeysandwich,4.72,8.57,3.8500000000000005,turkeysandwich,1005.8999999985099,1006,1006.3999999985099,True,i,146280.40000000224,1515.5,1669830243093,1515,HRV,HRV_0043,2022-11-30 17:48:39
79,"[{'imgObject': {}, 'id': 'cherry tomato', 'src': '/static/foodstim60/cherry tomato.jpg', 'key': 'u', 'origWidth': 410, 'origHeight': 410, 'width': 410, 'height': 410, 'widthPercent': 0.45, 'rescaleHeight': False, 'trialN': 79, 'loaded': True, 'loadedTime': 2205.199999999255, 'positionName': 'LEFT', 'positionCoords': [492.88, 262], 'bid': 5.23}, {'imgObject': {}, 'id': 'froot loops w milk', 'src': '/static/foodstim60/froot loops w milk.jpg', 'key': 'i', 'origWidth': 410, 'origHeight': 410, 'width': 410, 'height': 410, 'widthPercent': 0.45, 'rescaleHeight': False, 'trialN': 79, 'loaded': True, 'loadedTime': 2022.300000000745, 'positionName': 'RIGHT', 'positionCoords': [978.12, 262], 'bid': 5.22}]",146280.5,1669830243094,cherry tomato,froot loops w milk,5.23,5.22,-0.010000000000000675,froot loops w milk,1920.1000000014901,1920,1920.9000000022352,True,i,148711.90000000224,2431.400000002235,1669830245525,2431,HRV,HRV_0043,2022-11-30 17:48:39
80,"[{'imgObject': {}, 'id': 'Tribe humus pita', 'src': '/static/foodstim60/Tribe humus pita.jpg', 'key': 'u', 'origWidth': 411, 'origHeight': 411, 'width': 411, 'height': 411, 'widthPercent': 0.45, 'rescaleHeight': False, 'trialN': 80, 'loaded': True, 'loadedTime': 2110.10000000149, 'positionName': 'LEFT', 'positionCoords': [491.88, 261.5], 'bid': 7.42}, {'imgObject': {}, 'id': 'corn cob', 'src': '/static/foodstim60/corn cob.jpg', 'key': 'i', 'origWidth': 411, 'origHeight': 411, 'width': 411, 'height': 411, 'widthPercent': 0.45, 'rescaleHeight': False, 'trialN': 80, 'loaded': True, 'loadedTime': 2170.300000000745, 'positionName': 'RIGHT', 'positionCoords': [978.12, 261.5], 'bid': 7.390000000000001}]",148712.0,1669830245525,Tribe humus pita,corn cob,7.42,7.390000000000001,-0.02999999999999936,Tribe humus pita,928.6000000014901,929,929.1000000014901,True,u,150141.90000000224,1429.9000000022352,1669830246955,1430,HRV,HRV_0043,2022-11-30 17:48:39
81,"[{'imgObject': {}, 'id': 'luckycharms', 'src': '/static/foodstim60/luckycharms.jpg', 'key': 'u', 'origWidth': 410, 'origHeight': 409, 'width': 410, 'height': 409, 'widthPercent': 0.45, 'rescaleHeight': False, 'trialN': 81, 'loaded': True, 'loadedTime': 2208.699999999255, 'positionName': 'LEFT', 'positionCoords': [492.88, 262.5], 'bid': 4.72}, {'imgObject': {}, 'id': 'granola w milk', 'src': '/static/foodstim60/granola w milk.jpg', 'key': 'i', 'origWidth': 410, 'origHeight': 410, 'width': 410, 'height': 410, 'widthPercent': 0.45, 'rescaleHeight': False, 'trialN': 81, 'loaded': True, 'loadedTime': 2209.800000000745, 'positionName': 'RIGHT', 'positionCoords': [978.12, 262], 'bid': 4.28}]",150141.90000000224,1669830246955,luckycharms,granola w milk,4.72,4.28,-0.4399999999999995,granola w milk,1343.699999999255,1344,1344.2999999970198,True,i,151995.90000000224,1854.0,1669830248809,1854,HRV,HRV_0043,2022-11-30 17:48:39
82,"[{'imgObject': {}, 'id': 'blueberries', 'src': '/static/foodstim60/blueberries.jpg', 'key': 'u', 'origWidth': 411, 'origHeight': 411, 'width': 411, 'height': 411, 'widthPercent': 0.45, 'rescaleHeight': False, 'trialN': 82, 'loaded': True, 'loadedTime': 2146, 'positionName': 'LEFT', 'positionCoords': [491.88, 261.5], 'bid': 3.92}, {'imgObject': {}, 'id': 'bagel plain', 'src': '/static/foodstim60/bagel plain.jpg', 'key': 'i', 'origWidth': 410, 'origHeight': 410, 'width': 410, 'height': 410, 'widthPercent': 0.45, 'rescaleHeight': False, 'trialN': 82, 'loaded': True, 'loadedTime': 2173.300000000745, 'positionName': 'RIGHT', 'positionCoords': [978.12, 262], 'bid': 4.08}]",151995.90000000224,1669830248809,blueberries,bagel plain,3.92,4.08,0.16000000000000014,blueberries,1312.3999999985099,1313,1313.0,True,u,153820.80000000075,1824.8999999985099,1669830250634,1825,HRV,HRV_0043,2022-11-30 17:48:39
83,"[{'imgObject': {}, 'id': 'tacos', 'src': '/static/foodstim60/tacos.jpg', 'key': 'u', 'origWidth': 411, 'origHeight': 411, 'width': 411, 'height': 411, 'widthPercent': 0.45, 'rescaleHeight': False, 'trialN': 83, 'loaded': True, 'loadedTime': 2169.199999999255, 'positionName': 'LEFT', 'positionCoords': [491.88, 261.5], 'bid': 7.5}, {'imgObject': {}, 'id': 'burrito', 'src': '/static/foodstim60/burrito.jpg', 'key': 'i', 'origWidth': 410, 'origHeight': 410, 'width': 410, 'height': 410, 'widthPercent': 0.45, 'rescaleHeight': False, 'trialN': 83, 'loaded': True, 'loadedTime': 2138.300000000745, 'positionName': 'RIGHT', 'positionCoords': [978.12, 262], 'bid': 7.58}]",153821.0,1669830250634,tacos,burrito,7.5,7.58,0.08000000000000007,burrito,1602.0,1603,1602.800000000745,True,i,155931.40000000224,2110.400000002235,1669830252744,2110,HRV,HRV_0043,2022-11-30 17:48:39
84,"[{'imgObject': {}, 'id': 'salad w chicken', 'src': '/static/foodstim60/salad w chicken.jpg', 'key': 'u', 'origWidth': 411, 'origHeight': 411, 'width': 411, 'height': 411, 'widthPercent': 0.45, 'rescaleHeight': False, 'trialN': 84, 'loaded': True, 'loadedTime': 2134.300000000745, 'positionName': 'LEFT', 'positionCoords': [491.88, 261.5], 'bid': 9.8}, {'imgObject': {}, 'id': 'chicken nuggets2', 'src': '/static/foodstim60/chicken nuggets2.jpg', 'key': 'i', 'origWidth': 410, 'origHeight': 409, 'width': 410, 'height': 409, 'widthPercent': 0.45, 'rescaleHeight': False, 'trialN': 84, 'loaded': True, 'loadedTime': 2156.900000002235, 'positionName': 'RIGHT', 'positionCoords': [978.12, 262.5], 'bid': 8.82}]",155931.5,1669830252745,salad w chicken,chicken nuggets2,9.8,8.82,-0.9800000000000004,salad w chicken,999.3000000007451,999,999.9000000022352,True,u,157439.5,1508.0,1669830254253,1508,HRV,HRV_0043,2022-11-30 17:48:39
85,"[{'imgObject': {}, 'id': 'popsicles', 'src': '/static/foodstim60/popsicles.jpg', 'key': 'u', 'origWidth': 410, 'origHeight': 410, 'width': 410, 'height': 410, 'widthPercent': 0.45, 'rescaleHeight': False, 'trialN': 85, 'loaded': True, 'loadedTime': 2146.300000000745, 'positionName': 'LEFT', 'positionCoords': [492.88, 262], 'bid': 3.31}, {'imgObject': {}, 'id': 'raspberries', 'src': '/static/foodstim60/raspberries.jpg', 'key': 'i', 'origWidth': 411, 'origHeight': 411, 'width': 411, 'height': 411, 'widthPercent': 0.45, 'rescaleHeight': False, 'trialN': 85, 'loaded': True, 'loadedTime': 2212.800000000745, 'positionName': 'RIGHT', 'positionCoords': [978.12, 261.5], 'bid': 4.55}]",157439.6000000015,1669830254253,popsicles,raspberries,3.31,4.55,1.2399999999999998,raspberries,1066.199999999255,1067,1066.8999999985099,True,i,159008.1000000015,1568.5,1669830255821,1568,HRV,HRV_0043,2022-11-30 17:48:39
86,"[{'imgObject': {}, 'id': 'Grapes', 'src': '/static/foodstim60/Grapes.jpg', 'key': 'u', 'origWidth': 411, 'origHeight': 411, 'width': 411, 'height': 411, 'widthPercent': 0.45, 'rescaleHeight': False, 'trialN': 86, 'loaded': True, 'loadedTime': 2051.800000000745, 'positionName': 'LEFT', 'positionCoords': [491.88, 261.5], 'bid': 6.19}, {'imgObject': {}, 'id': 'pear', 'src': '/static/foodstim60/pear.jpg', 'key': 'i', 'origWidth': 411, 'origHeight': 410, 'width': 411, 'height': 410, 'widthPercent': 0.45, 'rescaleHeight': False, 'trialN': 86, 'loaded': True, 'loadedTime': 2117.5, 'positionName': 'RIGHT', 'positionCoords': [978.12, 262], 'bid': 5.44}]",159008.19999999925,1669830255821,Grapes,pear,6.19,5.44,-0.75,Grapes,1117.6000000014901,1118,1118.2000000029802,True,u,160628.1000000015,1619.9000000022352,1669830257441,1620,HRV,HRV_0043,2022-11-30 17:48:39
87,"[{'imgObject': {}, 'id': 'raspberries', 'src': '/static/foodstim60/raspberries.jpg', 'key': 'u', 'origWidth': 411, 'origHeight': 411, 'width': 411, 'height': 411, 'widthPercent': 0.45, 'rescaleHeight': False, 'trialN': 87, 'loaded': True, 'loadedTime': 2212.60000000149, 'positionName': 'LEFT', 'positionCoords': [491.88, 261.5], 'bid': 4.55}, {'imgObject': {}, 'id': 'cocktailshrimp', 'src': '/static/foodstim60/cocktailshrimp.jpg', 'key': 'i', 'origWidth': 410, 'origHeight': 410, 'width': 410, 'height': 410, 'widthPercent': 0.45, 'rescaleHeight': False, 'trialN': 87, 'loaded': True, 'loadedTime': 2106.300000000745, 'positionName': 'RIGHT', 'positionCoords': [978.12, 262], 'bid': 8.51}]",160628.19999999925,1669830257441,raspberries,cocktailshrimp,4.55,8.51,3.96,cocktailshrimp,870.1000000014901,871,870.6000000014901,True,i,162013.0,1384.800000000745,1669830258826,1385,HRV,HRV_0043,2022-11-30 17:48:39
88,"[{'imgObject': {}, 'id': 'avocado', 'src': '/static/foodstim60/avocado.jpg', 'key': 'u', 'origWidth': 409, 'origHeight': 409, 'width': 409, 'height': 409, 'widthPercent': 0.45, 'rescaleHeight': False, 'trialN': 88, 'loaded': True, 'loadedTime': 2187.10000000149, 'positionName': 'LEFT', 'positionCoords': [493.88, 262.5], 'bid': 1.47}, {'imgObject': {}, 'id': 'luckycharms', 'src': '/static/foodstim60/luckycharms.jpg', 'key': 'i', 'origWidth': 410, 'origHeight': 409, 'width': 410, 'height': 409, 'widthPercent': 0.45, 'rescaleHeight': False, 'trialN': 88, 'loaded': True, 'loadedTime': 2209, 'positionName': 'RIGHT', 'positionCoords': [978.12, 262.5], 'bid': 4.72}]",162013.19999999925,1669830258826,avocado,luckycharms,1.47,4.72,3.25,luckycharms,1532.6000000014901,1533,1533.2000000029802,True,i,164048.90000000224,2035.7000000029802,1669830260862,2036,HRV,HRV_0043,2022-11-30 17:48:39
89,"[{'imgObject': {}, 'id': 'blackbeanswithrice', 'src': '/static/foodstim60/blackbeanswithrice.jpg', 'key': 'u', 'origWidth': 410, 'origHeight': 410, 'width': 410, 'height': 410, 'widthPercent': 0.45, 'rescaleHeight': False, 'trialN': 89, 'loaded': True, 'loadedTime': 2181.699999999255, 'positionName': 'LEFT', 'positionCoords': [492.88, 262], 'bid': 2.42}, {'imgObject': {}, 'id': 'omelette', 'src': '/static/foodstim60/omelette.jpg', 'key': 'i', 'origWidth': 410, 'origHeight': 409, 'width': 410, 'height': 409, 'widthPercent': 0.45, 'rescaleHeight': False, 'trialN': 89, 'loaded': True, 'loadedTime': 2043.6000000014901, 'positionName': 'RIGHT', 'positionCoords': [978.12, 262.5], 'bid': 5.5}]",164049.1000000015,1669830260862,blackbeanswithrice,omelette,2.42,5.5,3.08,omelette,981.6999999992549,982,982.3000000007451,True,i,165543.69999999925,1494.5999999977648,1669830262357,1495,HRV,HRV_0043,2022-11-30 17:48:39
90,"[{'imgObject': {}, 'id': 'strawberries', 'src': '/static/foodstim60/strawberries.jpg', 'key': 'u', 'origWidth': 410, 'origHeight': 410, 'width': 410, 'height': 410, 'widthPercent': 0.45, 'rescaleHeight': False, 'trialN': 90, 'loaded': True, 'loadedTime': 2193.900000002235, 'positionName': 'LEFT', 'positionCoords': [492.88, 262], 'bid': 5.29}, {'imgObject': {}, 'id': 'froot loops w milk', 'src': '/static/foodstim60/froot loops w milk.jpg', 'key': 'i', 'origWidth': 410, 'origHeight': 410, 'width': 410, 'height': 410, 'widthPercent': 0.45, 'rescaleHeight': False, 'trialN': 90, 'loaded': True, 'loadedTime': 2023.1000000014901, 'positionName': 'RIGHT', 'positionCoords': [978.12, 262], 'bid': 5.22}]",167979.19999999925,1669830264792,strawberries,froot loops w milk,5.29,5.22,-0.07000000000000028,froot loops w milk,2265.2000000029802,2266,2265.7000000029802,True,i,170753.40000000224,2774.2000000029802,1669830267566,2774,HRV,HRV_0043,2022-11-30 17:48:39
91,"[{'imgObject': {}, 'id': 'mashed potato', 'src': '/static/foodstim60/mashed potato.jpg', 'key': 'u', 'origWidth': 409, 'origHeight': 409, 'width': 409, 'height': 409, 'widthPercent': 0.45, 'rescaleHeight': False, 'trialN': 91, 'loaded': True, 'loadedTime': 2178.699999999255, 'positionName': 'LEFT', 'positionCoords': [493.88, 262.5], 'bid': 4.17}, {'imgObject': {}, 'id': 'raspberries', 'src': '/static/foodstim60/raspberries.jpg', 'key': 'i', 'origWidth': 411, 'origHeight': 411, 'width': 411, 'height': 411, 'widthPercent': 0.45, 'rescaleHeight': False, 'trialN': 91, 'loaded': True, 'loadedTime': 2212.900000002235, 'positionName': 'RIGHT', 'positionCoords': [978.12, 261.5], 'bid': 4.55}]",170753.6000000015,1669830267567,mashed potato,raspberries,4.17,4.55,0.3799999999999999,raspberries,1875.300000000745,1876,1876.0,True,i,173137.90000000224,2384.300000000745,1669830269951,2384,HRV,HRV_0043,2022-11-30 17:48:39
92,"[{'imgObject': {}, 'id': 'ice cream sundae 002', 'src': '/static/foodstim60/ice cream sundae 002.jpg', 'key': 'u', 'origWidth': 409, 'origHeight': 409, 'width': 409, 'height': 409, 'widthPercent': 0.45, 'rescaleHeight': False, 'trialN': 92, 'loaded': True, 'loadedTime': 2101.699999999255, 'positionName': 'LEFT', 'positionCoords': [493.88, 262.5], 'bid': 6.19}, {'imgObject': {}, 'id': 'banana', 'src': '/static/foodstim60/banana.jpg', 'key': 'i', 'origWidth': 410, 'origHeight': 410, 'width': 410, 'height': 410, 'widthPercent': 0.45, 'rescaleHeight': False, 'trialN': 92, 'loaded': True, 'loadedTime': 2128.800000000745, 'positionName': 'RIGHT', 'positionCoords': [978.12, 262], 'bid': 5.57}]",173138.0,1669830269951,ice cream sundae 002,banana,6.19,5.57,-0.6200000000000001,ice cream sundae 002,848.9000000022352,850,849.6000000014901,True,u,174493.5,1355.5,1669830271306,1355,HRV,HRV_0043,2022-11-30 17:48:39
93,"[{'imgObject': {}, 'id': 'mac & cheese', 'src': '/static/foodstim60/mac & cheese.jpg', 'key': 'u', 'origWidth': 410, 'origHeight': 410, 'width': 410, 'height': 410, 'widthPercent': 0.45, 'rescaleHeight': False, 'trialN': 93, 'loaded': True, 'loadedTime': 2199.300000000745, 'positionName': 'LEFT', 'positionCoords': [492.88, 262], 'bid': 7.890000000000001}, {'imgObject': {}, 'id': 'yogurt no spoon', 'src': '/static/foodstim60/yogurt no spoon.jpg', 'key': 'i', 'origWidth': 411, 'origHeight': 410, 'width': 411, 'height': 410, 'widthPercent': 0.45, 'rescaleHeight': False, 'trialN': 93, 'loaded': True, 'loadedTime': 2077.60000000149, 'positionName': 'RIGHT', 'positionCoords': [978.12, 262], 'bid': 7.99}]",174493.5,1669830271307,mac & cheese,yogurt no spoon,7.890000000000001,7.99,0.09999999999999964,mac & cheese,853.3000000007451,853,853.8000000007451,True,u,175847.80000000075,1354.300000000745,1669830272661,1354,HRV,HRV_0043,2022-11-30 17:48:39
94,"[{'imgObject': {}, 'id': 'lox', 'src': '/static/foodstim60/lox.jpg', 'key': 'u', 'origWidth': 410, 'origHeight': 411, 'width': 410, 'height': 411, 'widthPercent': 0.45, 'rescaleHeight': False, 'trialN': 94, 'loaded': True, 'loadedTime': 2028.1000000014901, 'positionName': 'LEFT', 'positionCoords': [492.88, 261.5], 'bid': 5.84}, {'imgObject': {}, 'id': 'kiwi', 'src': '/static/foodstim60/kiwi.jpg', 'key': 'i', 'origWidth': 410, 'origHeight': 410, 'width': 410, 'height': 410, 'widthPercent': 0.45, 'rescaleHeight': False, 'trialN': 94, 'loaded': True, 'loadedTime': 2165.5, 'positionName': 'RIGHT', 'positionCoords': [978.12, 262], 'bid': 1.12}]",175847.90000000224,1669830272661,lox,kiwi,5.84,1.12,-4.72,lox,793.0,793,793.5,True,u,177142.40000000224,1294.5,1669830273955,1294,HRV,HRV_0043,2022-11-30 17:48:39
95,"[{'imgObject': {}, 'id': 'rigatoni and sauce', 'src': '/static/foodstim60/rigatoni and sauce.jpg', 'key': 'u', 'origWidth': 410, 'origHeight': 411, 'width': 410, 'height': 411, 'widthPercent': 0.45, 'rescaleHeight': False, 'trialN': 95, 'loaded': True, 'loadedTime': 2096.699999999255, 'positionName': 'LEFT', 'positionCoords': [492.88, 261.5], 'bid': 7.11}, {'imgObject': {}, 'id': 'cheerios', 'src': '/static/foodstim60/cheerios.jpg', 'key': 'i', 'origWidth': 409, 'origHeight': 410, 'width': 409, 'height': 410, 'widthPercent': 0.45, 'rescaleHeight': False, 'trialN': 95, 'loaded': True, 'loadedTime': 2076.800000000745, 'positionName': 'RIGHT', 'positionCoords': [978.12, 262], 'bid': 2.24}]",177142.5,1669830273956,rigatoni and sauce,cheerios,7.11,2.24,-4.87,rigatoni and sauce,1140.800000000745,1141,1141.300000000745,True,u,178789.90000000224,1647.4000000022352,1669830275603,1647,HRV,HRV_0043,2022-11-30 17:48:39
96,"[{'imgObject': {}, 'id': 'cocktailshrimp', 'src': '/static/foodstim60/cocktailshrimp.jpg', 'key': 'u', 'origWidth': 410, 'origHeight': 410, 'width': 410, 'height': 410, 'widthPercent': 0.45, 'rescaleHeight': False, 'trialN': 96, 'loaded': True, 'loadedTime': 2105.199999999255, 'positionName': 'LEFT', 'positionCoords': [492.88, 262], 'bid': 8.51}, {'imgObject': {}, 'id': 'salad w chicken', 'src': '/static/foodstim60/salad w chicken.jpg', 'key': 'i', 'origWidth': 411, 'origHeight': 411, 'width': 411, 'height': 411, 'widthPercent': 0.45, 'rescaleHeight': False, 'trialN': 96, 'loaded': True, 'loadedTime': 2137.10000000149, 'positionName': 'RIGHT', 'positionCoords': [978.12, 261.5], 'bid': 9.8}]",178790.0,1669830275603,cocktailshrimp,salad w chicken,8.51,9.8,1.290000000000001,salad w chicken,955.6999999992549,957,956.6000000014901,True,i,180250.90000000224,1460.9000000022352,1669830277064,1461,HRV,HRV_0043,2022-11-30 17:48:39
97,"[{'imgObject': {}, 'id': 'grilled chicken strips', 'src': '/static/foodstim60/grilled chicken strips.jpg', 'key': 'u', 'origWidth': 410, 'origHeight': 411, 'width': 410, 'height': 411, 'widthPercent': 0.45, 'rescaleHeight': False, 'trialN': 97, 'loaded': True, 'loadedTime': 2035.6000000014901, 'positionName': 'LEFT', 'positionCoords': [492.88, 261.5], 'bid': 8.63}, {'imgObject': {}, 'id': 'cherry tomato', 'src': '/static/foodstim60/cherry tomato.jpg', 'key': 'i', 'origWidth': 410, 'origHeight': 410, 'width': 410, 'height': 410, 'widthPercent': 0.45, 'rescaleHeight': False, 'trialN': 97, 'loaded': True, 'loadedTime': 2205.10000000149, 'positionName': 'RIGHT', 'positionCoords': [978.12, 262], 'bid': 5.23}]",180251.1000000015,1669830277064,grilled chicken strips,cherry tomato,8.63,5.23,-3.4000000000000004,grilled chicken strips,824.3999999985099,847,847.3000000007451,True,u,181605.5,1354.3999999985099,1669830278419,1355,HRV,HRV_0043,2022-11-30 17:48:39
98,"[{'imgObject': {}, 'id': 'rigatoni', 'src': '/static/foodstim60/rigatoni.jpg', 'key': 'u', 'origWidth': 411, 'origHeight': 411, 'width': 411, 'height': 411, 'widthPercent': 0.45, 'rescaleHeight': False, 'trialN': 98, 'loaded': True, 'loadedTime': 2191.900000002235, 'positionName': 'LEFT', 'positionCoords': [491.88, 261.5], 'bid': 1.45}, {'imgObject': {}, 'id': 'granola w milk', 'src': '/static/foodstim60/granola w milk.jpg', 'key': 'i', 'origWidth': 410, 'origHeight': 410, 'width': 410, 'height': 410, 'widthPercent': 0.45, 'rescaleHeight': False, 'trialN': 98, 'loaded': True, 'loadedTime': 2209.699999999255, 'positionName': 'RIGHT', 'positionCoords': [978.12, 262], 'bid': 4.28}]",181605.69999999925,1669830278419,rigatoni,granola w milk,1.45,4.28,2.83,granola w milk,862.6000000014901,863,863.0,True,i,182973.80000000075,1368.1000000014901,1669830279787,1368,HRV,HRV_0043,2022-11-30 17:48:39
99,"[{'imgObject': {}, 'id': 'chickenfingers', 'src': '/static/foodstim60/chickenfingers.jpg', 'key': 'u', 'origWidth': 410, 'origHeight': 410, 'width': 410, 'height': 410, 'widthPercent': 0.45, 'rescaleHeight': False, 'trialN': 99, 'loaded': True, 'loadedTime': 2122.10000000149, 'positionName': 'LEFT', 'positionCoords': [492.88, 262], 'bid': 9.79}, {'imgObject': {}, 'id': 'salmon', 'src': '/static/foodstim60/salmon.jpg', 'key': 'i', 'origWidth': 410, 'origHeight': 409, 'width': 410, 'height': 409, 'widthPercent': 0.45, 'rescaleHeight': False, 'trialN': 99, 'loaded': True, 'loadedTime': 2129.800000000745, 'positionName': 'RIGHT', 'positionCoords': [978.12, 262.5], 'bid': 9.51}]",182973.90000000224,1669830279787,chickenfingers,salmon,9.79,9.51,-0.27999999999999936,chickenfingers,799.5999999977648,800,800.0999999977648,True,u,184283.90000000224,1310.0,1669830281097,1310,HRV,HRV_0043,2022-11-30 17:48:39
100,"[{'imgObject': {}, 'id': 'Tribe humus pita', 'src': '/static/foodstim60/Tribe humus pita.jpg', 'key': 'u', 'origWidth': 411, 'origHeight': 411, 'width': 411, 'height': 411, 'widthPercent': 0.45, 'rescaleHeight': False, 'trialN': 100, 'loaded': True, 'loadedTime': 2109, 'positionName': 'LEFT', 'positionCoords': [491.88, 261.5], 'bid': 7.42}, {'imgObject': {}, 'id': 'hashbrowns', 'src': '/static/foodstim60/hashbrowns.jpg', 'key': 'i', 'origWidth': 411, 'origHeight': 410, 'width': 411, 'height': 410, 'widthPercent': 0.45, 'rescaleHeight': False, 'trialN': 100, 'loaded': True, 'loadedTime': 2186.10000000149, 'positionName': 'RIGHT', 'positionCoords': [978.12, 262], 'bid': 2.6}]",184284.0,1669830281097,Tribe humus pita,hashbrowns,7.42,2.6,-4.82,Tribe humus pita,974.3000000007451,975,974.8000000007451,True,u,185760.69999999925,1476.699999999255,1669830282574,1477,HRV,HRV_0043,2022-11-30 17:48:39
101,"[{'imgObject': {}, 'id': 'luckycharms', 'src': '/static/foodstim60/luckycharms.jpg', 'key': 'u', 'origWidth': 410, 'origHeight': 409, 'width': 410, 'height': 409, 'widthPercent': 0.45, 'rescaleHeight': False, 'trialN': 101, 'loaded': True, 'loadedTime': 2209.10000000149, 'positionName': 'LEFT', 'positionCoords': [492.88, 262.5], 'bid': 4.72}, {'imgObject': {}, 'id': 'blueberries', 'src': '/static/foodstim60/blueberries.jpg', 'key': 'i', 'origWidth': 411, 'origHeight': 411, 'width': 411, 'height': 411, 'widthPercent': 0.45, 'rescaleHeight': False, 'trialN': 101, 'loaded': True, 'loadedTime': 2142.900000002235, 'positionName': 'RIGHT', 'positionCoords': [978.12, 261.5], 'bid': 3.92}]",185760.80000000075,1669830282574,luckycharms,blueberries,4.72,3.92,-0.7999999999999998,luckycharms,847.6999999992549,848,848.1999999992549,True,u,187114.6000000015,1353.800000000745,1669830283928,1354,HRV,HRV_0043,2022-11-30 17:48:39
102,"[{'imgObject': {}, 'id': 'baked potato', 'src': '/static/foodstim60/baked potato.jpg', 'key': 'u', 'origWidth': 409, 'origHeight': 410, 'width': 409, 'height': 410, 'widthPercent': 0.45, 'rescaleHeight': False, 'trialN': 102, 'loaded': True, 'loadedTime': 2174.400000002235, 'positionName': 'LEFT', 'positionCoords': [493.88, 262], 'bid': 1.71}, {'imgObject': {}, 'id': 'froot loops w milk', 'src': '/static/foodstim60/froot loops w milk.jpg', 'key': 'i', 'origWidth': 410, 'origHeight': 410, 'width': 410, 'height': 410, 'widthPercent': 0.45, 'rescaleHeight': False, 'trialN': 102, 'loaded': True, 'loadedTime': 2027.9000000022352, 'positionName': 'RIGHT', 'positionCoords': [978.12, 262], 'bid': 5.22}]",187114.80000000075,1669830283928,baked potato,froot loops w milk,1.71,5.22,3.51,froot loops w milk,933.6000000014901,934,934.1999999992549,True,i,188563.90000000224,1449.1000000014901,1669830285377,1449,HRV,HRV_0043,2022-11-30 17:48:39
103,"[{'imgObject': {}, 'id': 'turkey sandwich', 'src': '/static/foodstim60/turkey sandwich.jpg', 'key': 'u', 'origWidth': 409, 'origHeight': 409, 'width': 409, 'height': 409, 'widthPercent': 0.45, 'rescaleHeight': False, 'trialN': 103, 'loaded': True, 'loadedTime': 2121.10000000149, 'positionName': 'LEFT', 'positionCoords': [493.88, 262.5], 'bid': 9.1}, {'imgObject': {}, 'id': 'mac & cheese', 'src': '/static/foodstim60/mac & cheese.jpg', 'key': 'i', 'origWidth': 410, 'origHeight': 410, 'width': 410, 'height': 410, 'widthPercent': 0.45, 'rescaleHeight': False, 'trialN': 103, 'loaded': True, 'loadedTime': 2199.5, 'positionName': 'RIGHT', 'positionCoords': [978.12, 262], 'bid': 7.890000000000001}]",188564.0,1669830285377,turkey sandwich,mac & cheese,9.1,7.890000000000001,-1.209999999999999,turkey sandwich,857.0,858,857.6000000014901,True,u,189934.80000000075,1370.800000000745,1669830286748,1371,HRV,HRV_0043,2022-11-30 17:48:39
104,"[{'imgObject': {}, 'id': 'apple slices', 'src': '/static/foodstim60/apple slices.jpg', 'key': 'u', 'origWidth': 409, 'origHeight': 410, 'width': 409, 'height': 410, 'widthPercent': 0.45, 'rescaleHeight': False, 'trialN': 104, 'loaded': True, 'loadedTime': 2072.800000000745, 'positionName': 'LEFT', 'positionCoords': [493.88, 262], 'bid': 5.4}, {'imgObject': {}, 'id': 'ice cream sundae 002', 'src': '/static/foodstim60/ice cream sundae 002.jpg', 'key': 'i', 'origWidth': 409, 'origHeight': 409, 'width': 409, 'height': 409, 'widthPercent': 0.45, 'rescaleHeight': False, 'trialN': 104, 'loaded': True, 'loadedTime': 2102.60000000149, 'positionName': 'RIGHT', 'positionCoords': [978.12, 262.5], 'bid': 6.19}]",189934.90000000224,1669830286748,apple slices,ice cream sundae 002,5.4,6.19,0.79,ice cream sundae 002,1106.199999999255,1107,1106.5999999977648,True,i,191552.90000000224,1618.0,1669830288366,1618,HRV,HRV_0043,2022-11-30 17:48:39
105,"[{'imgObject': {}, 'id': 'roastedpotatoes', 'src': '/static/foodstim60/roastedpotatoes.jpg', 'key': 'u', 'origWidth': 409, 'origHeight': 410, 'width': 409, 'height': 410, 'widthPercent': 0.45, 'rescaleHeight': False, 'trialN': 105, 'loaded': True, 'loadedTime': 2206.300000000745, 'positionName': 'LEFT', 'positionCoords': [493.88, 262], 'bid': 9}, {'imgObject': {}, 'id': 'burrito', 'src': '/static/foodstim60/burrito.jpg', 'key': 'i', 'origWidth': 410, 'origHeight': 410, 'width': 410, 'height': 410, 'widthPercent': 0.45, 'rescaleHeight': False, 'trialN': 105, 'loaded': True, 'loadedTime': 2142, 'positionName': 'RIGHT', 'positionCoords': [978.12, 262], 'bid': 7.58}]",191552.90000000224,1669830288366,roastedpotatoes,burrito,9.0,7.58,-1.42,roastedpotatoes,883.0999999977648,884,883.5999999977648,True,u,192939.5,1386.5999999977648,1669830289753,1387,HRV,HRV_0043,2022-11-30 17:48:39
106,"[{'imgObject': {}, 'id': 'rigatoni and sauce', 'src': '/static/foodstim60/rigatoni and sauce.jpg', 'key': 'u', 'origWidth': 410, 'origHeight': 411, 'width': 410, 'height': 411, 'widthPercent': 0.45, 'rescaleHeight': False, 'trialN': 106, 'loaded': True, 'loadedTime': 2096, 'positionName': 'LEFT', 'positionCoords': [492.88, 261.5], 'bid': 7.11}, {'imgObject': {}, 'id': 'bagel and cc', 'src': '/static/foodstim60/bagel and cc.jpg', 'key': 'i', 'origWidth': 410, 'origHeight': 410, 'width': 410, 'height': 410, 'widthPercent': 0.45, 'rescaleHeight': False, 'trialN': 106, 'loaded': True, 'loadedTime': 2198.400000002235, 'positionName': 'RIGHT', 'positionCoords': [978.12, 262], 'bid': 6.4}]",192939.69999999925,1669830289753,rigatoni and sauce,bagel and cc,7.11,6.4,-0.71,rigatoni and sauce,959.6000000014901,960,960.2000000029802,True,u,194401.90000000224,1462.2000000029802,1669830291215,1462,HRV,HRV_0043,2022-11-30 17:48:39
107,"[{'imgObject': {}, 'id': 'bagel and cc', 'src': '/static/foodstim60/bagel and cc.jpg', 'key': 'u', 'origWidth': 410, 'origHeight': 410, 'width': 410, 'height': 410, 'widthPercent': 0.45, 'rescaleHeight': False, 'trialN': 107, 'loaded': True, 'loadedTime': 2198.5, 'positionName': 'LEFT', 'positionCoords': [492.88, 262], 'bid': 6.4}, {'imgObject': {}, 'id': 'shreddedwheatwithmilk', 'src': '/static/foodstim60/shreddedwheatwithmilk.jpg', 'key': 'i', 'origWidth': 410, 'origHeight': 410, 'width': 410, 'height': 410, 'widthPercent': 0.45, 'rescaleHeight': False, 'trialN': 107, 'loaded': True, 'loadedTime': 2138, 'positionName': 'RIGHT', 'positionCoords': [978.12, 262], 'bid': 5.5200000000000005}]",194402.1000000015,1669830291215,bagel and cc,shreddedwheatwithmilk,6.4,5.5200000000000005,-0.8799999999999999,bagel and cc,1273.8999999985099,1275,1274.3999999985099,True,u,196187.90000000224,1785.800000000745,1669830293001,1786,HRV,HRV_0043,2022-11-30 17:48:39
108,"[{'imgObject': {}, 'id': 'chicken nuggets2', 'src': '/static/foodstim60/chicken nuggets2.jpg', 'key': 'u', 'origWidth': 410, 'origHeight': 409, 'width': 410, 'height': 409, 'widthPercent': 0.45, 'rescaleHeight': False, 'trialN': 108, 'loaded': True, 'loadedTime': 2153.300000000745, 'positionName': 'LEFT', 'positionCoords': [492.88, 262.5], 'bid': 8.82}, {'imgObject': {}, 'id': 'roastedpotatoes', 'src': '/static/foodstim60/roastedpotatoes.jpg', 'key': 'i', 'origWidth': 409, 'origHeight': 410, 'width': 409, 'height': 410, 'widthPercent': 0.45, 'rescaleHeight': False, 'trialN': 108, 'loaded': True, 'loadedTime': 2207, 'positionName': 'RIGHT', 'positionCoords': [978.12, 262], 'bid': 9}]",196188.0,1669830293001,chicken nuggets2,roastedpotatoes,8.82,9.0,0.17999999999999972,roastedpotatoes,1063.0,1064,1063.6000000014901,True,i,197757.1000000015,1569.1000000014901,1669830294570,1569,HRV,HRV_0043,2022-11-30 17:48:39
