success,trial_type,trial_index,time_elapsed,internal_node_id,Block,TrialNumber,TrialTime,trialTimeDiff,FPS_avg,FPS_med,FPS_mode,TrialDur,winResizeTime,rt,block,button_pressed,MotCoh,MotDir,ColCoh,Color,ChoiceKey,Choice,Accuracy,RT,nFrames,FPS,PPD,missTrial,missTrialMsg,onsetDelay,fullScreenExitTime,canvCenter,TrialType,Score,BlockTrial,stimulus,button_labels,exp,subjectId,date
True,fullscreen,0,3004,0.0-0.0,0.0,1.0,,,,,,,,,,,,,,,,,,,,,,,,,,,,,,,,HRV,HRV_0043,2022-11-30 17:58:24
,wl-check-fps,1,7996,0.0-1.0,0.0,2.0,"[5216.8, 5222.3, 5239, 5255.6, 5272.2, 5289.1, 5305.6, 5322.3, 5338.9, 5355.7, 5372.2, 5389, 5405.6, 5422.3, 5438.9, 5455.6, 5472.3, 5488.9, 5505.7, 5522.3, 5539.1, 5555.8, 5572.5, 5589.1, 5605.8, 5622.5, 5639, 5655.7, 5672.5, 5689, 5705.8, 5722.3, 5739, 5755.7, 5772.3, 5789.1, 5805.7, 5822.5, 5839, 5855.6, 5872.4, 5889, 5905.7, 5922.4, 5939, 5955.8, 5972.4, 5989, 6005.8, 6022.4, 6039, 6055.7, 6072.3, 6089, 6105.7, 6122.4, 6139, 6155.7, 6172.6, 6189.1, 6205.7, 6222.5, 6239, 6255.6, 6272.4, 6288.9, 6305.8, 6322.4, 6339, 6355.7, 6372.4, 6389, 6405.7, 6422.5, 6439, 6455.6, 6472.3, 6488.9, 6505.7, 6522.4, 6539, 6555.8, 6572.4, 6589, 6605.6, 6622.4, 6638.9, 6655.9, 6672.5, 6688.9, 6705.7, 6722.4, 6739, 6755.7, 6772.4, 6789, 6805.8, 6822.4, 6838.9, 6855.7, 6872.4, 6889, 6905.8, 6922.5, 6939, 6955.7, 6972.4, 6989, 7005.7, 7022.4, 7039, 7055.8, 7072.4, 7089.1, 7105.7, 7122.4, 7139, 7155.7, 7172.4, 7189.1, 7205.7, 7222.6, 7239, 7255.7, 7272.3, 7288.9, 7305.7, 7322.5, 7339.1, 7355.7, 7372.4, 7389, 7405.7, 7422.5, 7439, 7455.6, 7472.4, 7489, 7505.7, 7522.4, 7539, 7555.8, 7572.4, 7589.1, 7605.8, 7622.4, 7639, 7655.6, 7672.4, 7689.1, 7705.7, 7722.4, 7739.1, 7755.7, 7772.5, 7789, 7805.8, 7822.3, 7839.1, 7855.8, 7872.5, 7889.1, 7905.8, 7922.5, 7939.1, 7955.8, 7972.4, 7989.1, 8005.8, 8022.5, 8039.1, 8055.8, 8072.5, 8089.1, 8105.8, 8122.4, 8139.1, 8155.7, 8172.4, 8189.1, 8205.8, 8222.4, 8239.1, 8255.8, 8272.5, 8289.1, 8305.8, 8322.4, 8339.1, 8355.8, 8372.3, 8389.1, 8405.8, 8422.4, 8439.1, 8455.8, 8472.4, 8489.1, 8505.8, 8522.6, 8539.1, 8555.8, 8572.5, 8589.2, 8605.7, 8622.5, 8639.3, 8655.8, 8672.6, 8689.2, 8705.8, 8722.4, 8739.1, 8755.7, 8772.4, 8789.1, 8805.8, 8822.6, 8839.2, 8855.8, 8872.5, 8889.2, 8905.9, 8922.5, 8939.1, 8955.7, 8972.5, 8989.1, 9005.8, 9022.6, 9039.1, 9055.7, 9072.5, 9089, 9105.8, 9122.4, 9139.1, 9155.9, 9172.6, 9189.1, 9205.8, 9222.6, 9239.1, 9255.8, 9272.6, 9289.1, 9305.8, 9322.6, 9339.2, 9356, 9372.7, 9389.2, 9405.9, 9422.5, 9439.1, 9455.9, 9472.5, 9489.3, 9505.8, 9522.6, 9539.2, 9555.7, 9572.5, 9589.1, 9605.8, 9622.6, 9639.3, 9655.9, 9672.5, 9689.3, 9705.8, 9722.5, 9739.1, 9755.9, 9772.4, 9789.2, 9805.9, 9822.4, 9839.2, 9855.8, 9872.5, 9889.1, 9905.8, 9922.5, 9939.2, 9955.9, 9972.5, 9989, 10005.8, 10022.6, 10039.2, 10055.8, 10072.7, 10089.1, 10105.9, 10122.4, 10139.2, 10155.9, 10172.6, 10189.2]","[0.8, 5.5, 16.7, 16.6, 16.6, 16.9, 16.5, 16.7, 16.6, 16.8, 16.5, 16.8, 16.6, 16.7, 16.6, 16.7, 16.7, 16.6, 16.8, 16.6, 16.8, 16.7, 16.7, 16.6, 16.7, 16.7, 16.5, 16.7, 16.8, 16.5, 16.8, 16.5, 16.7, 16.7, 16.6, 16.8, 16.6, 16.8, 16.5, 16.6, 16.8, 16.6, 16.7, 16.7, 16.6, 16.8, 16.6, 16.6, 16.8, 16.6, 16.6, 16.7, 16.6, 16.7, 16.7, 16.7, 16.6, 16.7, 16.9, 16.5, 16.6, 16.8, 16.5, 16.6, 16.8, 16.5, 16.9, 16.6, 16.6, 16.7, 16.7, 16.6, 16.7, 16.8, 16.5, 16.6, 16.7, 16.6, 16.8, 16.7, 16.6, 16.8, 16.6, 16.6, 16.6, 16.8, 16.5, 17, 16.6, 16.4, 16.8, 16.7, 16.6, 16.7, 16.7, 16.6, 16.8, 16.6, 16.5, 16.8, 16.7, 16.6, 16.8, 16.7, 16.5, 16.7, 16.7, 16.6, 16.7, 16.7, 16.6, 16.8, 16.6, 16.7, 16.6, 16.7, 16.6, 16.7, 16.7, 16.7, 16.6, 16.9, 16.4, 16.7, 16.6, 16.6, 16.8, 16.8, 16.6, 16.6, 16.7, 16.6, 16.7, 16.8, 16.5, 16.6, 16.8, 16.6, 16.7, 16.7, 16.6, 16.8, 16.6, 16.7, 16.7, 16.6, 16.6, 16.6, 16.8, 16.7, 16.6, 16.7, 16.7, 16.6, 16.8, 16.5, 16.8, 16.5, 16.8, 16.7, 16.7, 16.6, 16.7, 16.7, 16.6, 16.7, 16.6, 16.7, 16.7, 16.7, 16.6, 16.7, 16.7, 16.6, 16.7, 16.6, 16.7, 16.6, 16.7, 16.7, 16.7, 16.6, 16.7, 16.7, 16.7, 16.6, 16.7, 16.6, 16.7, 16.7, 16.5, 16.8, 16.7, 16.6, 16.7, 16.7, 16.6, 16.7, 16.7, 16.8, 16.5, 16.7, 16.7, 16.7, 16.5, 16.8, 16.8, 16.5, 16.8, 16.6, 16.6, 16.6, 16.7, 16.6, 16.7, 16.7, 16.7, 16.8, 16.6, 16.6, 16.7, 16.7, 16.7, 16.6, 16.6, 16.6, 16.8, 16.6, 16.7, 16.8, 16.5, 16.6, 16.8, 16.5, 16.8, 16.6, 16.7, 16.8, 16.7, 16.5, 16.7, 16.8, 16.5, 16.7, 16.8, 16.5, 16.7, 16.8, 16.6, 16.8, 16.7, 16.5, 16.7, 16.6, 16.6, 16.8, 16.6, 16.8, 16.5, 16.8, 16.6, 16.5, 16.8, 16.6, 16.7, 16.8, 16.7, 16.6, 16.6, 16.8, 16.5, 16.7, 16.6, 16.8, 16.5, 16.8, 16.7, 16.5, 16.8, 16.6, 16.7, 16.6, 16.7, 16.7, 16.7, 16.7, 16.6, 16.5, 16.8, 16.8, 16.6, 16.6, 16.9, 16.4, 16.8, 16.5, 16.8, 16.7, 16.7, 16.6]",60.0,60.0,60.0,4989.8,[],,,,,,,,,,,,,,,,,,,,,,,,,HRV,HRV_0043,2022-11-30 17:58:24
,wl-html-keyboard-response,2,22351,0.0-2.0-0.0,0.0,3.0,,,,,,,,12350.20000000298,0.0,0,,,,,,,,,,,,,,,,,,,,,,HRV,HRV_0043,2022-11-30 17:58:24
,wl-rdm,3,31230,0.0-3.0-0.0,0.0,4.0,,,,,,,[],,,,0.0,0.0,87.9,0.0,u,0.0,True,3294.39999999851,198.0,60.0,40.0,False,,3000.0,[],"[940.5, 467]",ColorTask_Demo,,,,,HRV,HRV_0043,2022-11-30 17:58:24
,wl-rdm,4,37146,0.0-3.0-1.0,0.0,5.0,,,,,,,[],,,,0.0,0.0,87.9,1.0,i,1.0,True,1839.2999999970198,111.0,60.0,40.0,False,,2000.0,[],"[940.5, 467]",ColorTask_Demo,,,,,HRV,HRV_0043,2022-11-30 17:58:24
,wl-html-keyboard-response,5,42498,0.0-3.0-2.0,0.0,6.0,,,,,,,,3348.5,0.0,1,,,,,,,,,,,,,,,,,,,,,,HRV,HRV_0043,2022-11-30 17:58:24
,wl-html-keyboard-response,6,52785,0.0-4.0-0.0,0.0,7.0,,,,,,,,8284.199999999255,0.0,0,,,,,,,,,,,,,,,,,,,,,,HRV,HRV_0043,2022-11-30 17:58:24
,wl-html-keyboard-response,7,67562,0.0-5.0-0.0,0.0,8.0,,,,,,,,12776.099999997765,0.0,0,,,,,,,,,,,,,,,,,,,,,,HRV,HRV_0043,2022-11-30 17:58:24
,wl-rdm,8,71081,0.0-6.0-0.0,0.0,9.0,,,,,,,[],,,,,,50.0,1.0,i,1.0,True,2239.5,135.0,60.0,40.0,False,,200.79126558205834,[],"[940.5, 467]",ColorTask,1.0,1.0,,,HRV,HRV_0043,2022-11-30 17:58:24
,wl-rdm,9,73848,0.0-6.1-0.1,0.0,10.0,,,,,,,[],,,,,,56.4,0.0,u,0.0,True,1339.5,81.0,60.0,40.0,False,,340.4351625080876,[],"[940.5, 467]",ColorTask,2.0,2.0,,,HRV,HRV_0043,2022-11-30 17:58:24
,wl-rdm,10,76515,0.0-6.2-0.2,0.0,11.0,,,,,,,[],,,,,,56.4,1.0,i,1.0,True,1380.2999999970198,83.0,60.0,40.0,False,,214.62770874593784,[],"[940.5, 467]",ColorTask,3.0,3.0,,,HRV,HRV_0043,2022-11-30 17:58:24
,wl-rdm,11,79132,0.0-6.3-0.3,0.0,12.0,,,,,,,[],,,,,,62.5,1.0,i,1.0,True,1194.0,72.0,60.0,40.0,False,,334.06222800485926,[],"[940.5, 467]",ColorTask,4.0,4.0,,,HRV,HRV_0043,2022-11-30 17:58:24
,wl-rdm,12,81498,0.0-6.4-0.4,0.0,13.0,,,,,,,[],,,,,,62.5,0.0,u,0.0,True,1082.3999999985099,65.0,60.0,40.0,False,,215.1823812021988,[],"[940.5, 467]",ColorTask,5.0,5.0,,,HRV,HRV_0043,2022-11-30 17:58:24
,wl-rdm,13,83915,0.0-6.5-0.5,0.0,14.0,,,,,,,[],,,,,,62.5,0.0,u,0.0,True,1102.5,67.0,60.0,40.0,False,,234.66515023281593,[],"[940.5, 467]",ColorTask,6.0,6.0,,,HRV,HRV_0043,2022-11-30 17:58:24
,wl-rdm,14,86332,0.0-6.6-0.6,0.0,15.0,,,,,,,[],,,,,,62.5,0.0,u,0.0,True,977.8999999985099,59.0,60.0,40.0,False,,357.3871762920475,[],"[940.5, 467]",ColorTask,7.0,7.0,,,HRV,HRV_0043,2022-11-30 17:58:24
,wl-rdm,15,88649,0.0-6.7-0.7,0.0,16.0,,,,,,,[],,,,,,56.4,1.0,u,0.0,False,949.6999999992549,57.0,60.0,40.0,False,,315.88216683749727,[],"[940.5, 467]",ColorTask,6.0,8.0,,,HRV,HRV_0043,2022-11-30 17:58:24
,wl-rdm,16,90882,0.0-6.8-0.8,0.0,17.0,,,,,,,[],,,,,,73.6,0.0,u,0.0,True,921.6999999992549,56.0,60.0,40.0,False,,219.2612626032076,[],"[940.5, 467]",ColorTask,7.0,9.0,,,HRV,HRV_0043,2022-11-30 17:58:24
,wl-rdm,17,93382,0.0-6.9-0.9,0.0,18.0,,,,,,,[],,,,,,56.4,1.0,i,1.0,True,1075.2999999970198,65.0,60.0,40.0,False,,352.19564020762476,[],"[940.5, 467]",ColorTask,8.0,10.0,,,HRV,HRV_0043,2022-11-30 17:58:24
,wl-rdm,18,95833,0.0-6.10-0.10,0.0,19.0,,,,,,,[],,,,,,62.5,1.0,i,1.0,True,1021.6000000014901,62.0,60.0,40.0,False,,336.5184387625502,[],"[940.5, 467]",ColorTask,9.0,11.0,,,HRV,HRV_0043,2022-11-30 17:58:24
,wl-rdm,19,98083,0.0-6.11-0.11,0.0,20.0,,,,,,,[],,,,,,87.9,1.0,i,1.0,True,860.5,52.0,60.0,40.0,False,,320.32453662875935,[],"[940.5, 467]",ColorTask,10.0,12.0,,,HRV,HRV_0043,2022-11-30 17:58:24
,wl-rdm,20,100316,0.0-6.12-0.12,0.0,21.0,,,,,,,[],,,,,,73.6,1.0,i,1.0,True,871.6999999992549,53.0,60.0,40.0,False,,295.6143529682754,[],"[940.5, 467]",ColorTask,11.0,13.0,,,HRV,HRV_0043,2022-11-30 17:58:24
,wl-rdm,21,102300,0.0-6.13-0.13,0.0,22.0,,,,,,,[],,,,,,87.9,0.0,u,0.0,True,691.0,42.0,60.0,40.0,False,,224.6059757081632,[],"[940.5, 467]",ColorTask,12.0,14.0,,,HRV,HRV_0043,2022-11-30 17:58:24
,wl-rdm,22,104816,0.0-6.14-0.14,0.0,23.0,,,,,,,[],,,,,,53.2,0.0,u,0.0,True,1088.5,66.0,60.0,40.0,False,,350.15200756700125,[],"[940.5, 467]",ColorTask,13.0,15.0,,,HRV,HRV_0043,2022-11-30 17:58:24
,wl-rdm,23,107133,0.0-6.15-0.15,0.0,24.0,,,,,,,[],,,,,,50.0,0.0,i,1.0,False,1000.8999999985099,61.0,60.0,40.0,False,,217.4252059752083,[],"[940.5, 467]",ColorTask,12.0,16.0,,,HRV,HRV_0043,2022-11-30 17:58:24
,wl-rdm,24,109716,0.0-6.16-0.16,0.0,25.0,,,,,,,[],,,,,,53.2,0.0,i,1.0,False,1143.0,69.0,60.0,40.0,False,,382.8374456597172,[],"[940.5, 467]",ColorTask,11.0,17.0,,,HRV,HRV_0043,2022-11-30 17:58:24
,wl-rdm,25,112367,0.0-6.17-0.17,0.0,26.0,,,,,,,[],,,,,,62.5,1.0,i,1.0,True,1208.3999999985099,73.0,60.0,40.0,False,,362.3929766408942,[],"[940.5, 467]",ColorTask,12.0,18.0,,,HRV,HRV_0043,2022-11-30 17:58:24
,wl-rdm,26,114817,0.0-6.18-0.18,0.0,27.0,,,,,,,[],,,,,,53.2,1.0,i,1.0,True,1161.0,70.0,60.0,40.0,False,,213.35630013405822,[],"[940.5, 467]",ColorTask,13.0,19.0,,,HRV,HRV_0043,2022-11-30 17:58:24
,wl-rdm,27,117133,0.0-6.19-0.19,0.0,28.0,,,,,,,[],,,,,,87.9,0.0,u,0.0,True,878.3999999985099,53.0,60.0,40.0,False,,351.34150210597556,[],"[940.5, 467]",ColorTask,14.0,20.0,,,HRV,HRV_0043,2022-11-30 17:58:24
,wl-rdm,28,119784,0.0-6.20-0.20,0.0,29.0,,,,,,,[],,,,,,50.0,1.0,i,1.0,True,1217.699999999255,74.0,60.0,40.0,False,,357.3097657645858,[],"[940.5, 467]",ColorTask,15.0,21.0,,,HRV,HRV_0043,2022-11-30 17:58:24
,wl-rdm,29,122117,0.0-6.21-0.21,0.0,30.0,,,,,,,[],,,,,,62.5,1.0,u,0.0,False,1006.8000000007451,61.0,60.0,40.0,False,,255.50138893984052,[],"[940.5, 467]",ColorTask,14.0,22.0,,,HRV,HRV_0043,2022-11-30 17:58:24
,wl-rdm,30,124434,0.0-6.22-0.22,0.0,31.0,,,,,,,[],,,,,,50.0,1.0,i,1.0,True,956.6999999992549,58.0,60.0,40.0,False,,297.61474810122564,[],"[940.5, 467]",ColorTask,15.0,23.0,,,HRV,HRV_0043,2022-11-30 17:58:24
,wl-rdm,31,126784,0.0-6.23-0.23,0.0,32.0,,,,,,,[],,,,,,56.4,0.0,u,0.0,True,1030.5999999977648,62.0,60.0,40.0,False,,249.65551328715273,[],"[940.5, 467]",ColorTask,16.0,24.0,,,HRV,HRV_0043,2022-11-30 17:58:24
,wl-rdm,32,129401,0.0-6.24-0.24,0.0,33.0,,,,,,,[],,,,,,53.2,0.0,i,1.0,False,1263.0,76.0,60.0,40.0,False,,289.5807529328448,[],"[940.5, 467]",ColorTask,15.0,25.0,,,HRV,HRV_0043,2022-11-30 17:58:24
,wl-rdm,33,131967,0.0-6.25-0.25,0.0,34.0,,,,,,,[],,,,,,73.6,0.0,u,0.0,True,1206.0,73.0,60.0,40.0,False,,282.3871791486905,[],"[940.5, 467]",ColorTask,16.0,26.0,,,HRV,HRV_0043,2022-11-30 17:58:24
,wl-rdm,34,134234,0.0-6.26-0.26,0.0,35.0,,,,,,,[],,,,,,73.6,0.0,u,0.0,True,977.1999999992549,59.0,60.0,40.0,False,,210.3917016274014,[],"[940.5, 467]",ColorTask,17.0,27.0,,,HRV,HRV_0043,2022-11-30 17:58:24
,wl-rdm,35,136234,0.0-6.27-0.27,0.0,36.0,,,,,,,[],,,,,,87.9,0.0,u,0.0,True,720.0000000037253,44.0,60.0,40.0,False,,205.8138518783797,[],"[940.5, 467]",ColorTask,18.0,28.0,,,HRV,HRV_0043,2022-11-30 17:58:24
,wl-rdm,36,138651,0.0-6.28-0.28,0.0,37.0,,,,,,,[],,,,,,56.4,1.0,i,1.0,True,976.7999999970198,59.0,60.0,40.0,False,,377.3472609866258,[],"[940.5, 467]",ColorTask,19.0,29.0,,,HRV,HRV_0043,2022-11-30 17:58:24
,wl-rdm,37,140835,0.0-6.29-0.29,0.0,38.0,,,,,,,[],,,,,,87.9,0.0,u,0.0,True,819.8000000007451,50.0,60.0,40.0,False,,279.2247044430314,[],"[940.5, 467]",ColorTask,20.0,30.0,,,HRV,HRV_0043,2022-11-30 17:58:24
,wl-rdm,38,142901,0.0-6.30-0.30,0.0,39.0,,,,,,,[],,,,,,87.9,1.0,i,1.0,True,696.4999999962747,42.0,60.0,40.0,False,,298.0801001295458,[],"[940.5, 467]",ColorTask,21.0,31.0,,,HRV,HRV_0043,2022-11-30 17:58:24
,wl-rdm,39,145484,0.0-6.31-0.31,0.0,40.0,,,,,,,[],,,,,,53.2,0.0,i,1.0,False,1249.7999999970198,75.0,60.0,40.0,False,,276.6082676025634,[],"[940.5, 467]",ColorTask,20.0,32.0,,,HRV,HRV_0043,2022-11-30 17:58:24
,wl-rdm,40,147784,0.0-6.32-0.32,0.0,41.0,,,,,,,[],,,,,,53.2,1.0,i,1.0,True,1027.8999999985099,62.0,60.0,40.0,False,,209.1277858287691,[],"[940.5, 467]",ColorTask,21.0,33.0,,,HRV,HRV_0043,2022-11-30 17:58:24
,wl-rdm,41,149868,0.0-6.33-0.33,0.0,42.0,,,,,,,[],,,,,,50.0,0.0,u,0.0,True,737.5999999977648,45.0,60.0,40.0,False,,279.24805962641443,[],"[940.5, 467]",ColorTask,22.0,34.0,,,HRV,HRV_0043,2022-11-30 17:58:24
,wl-rdm,42,151968,0.0-6.34-0.34,0.0,43.0,,,,,,,[],,,,,,62.5,0.0,u,0.0,True,732.0,44.0,60.0,40.0,False,,295.7812285074597,[],"[940.5, 467]",ColorTask,23.0,35.0,,,HRV,HRV_0043,2022-11-30 17:58:24
,wl-rdm,43,153918,0.0-6.35-0.35,0.0,44.0,,,,,,,[],,,,,,87.9,0.0,u,0.0,True,654.3999999985099,40.0,60.0,40.0,False,,224.99828018661836,[],"[940.5, 467]",ColorTask,24.0,36.0,,,HRV,HRV_0043,2022-11-30 17:58:24
,wl-rdm,44,156518,0.0-6.36-0.36,0.0,45.0,,,,,,,[],,,,,,62.5,1.0,i,1.0,True,1170.7999999970198,71.0,60.0,40.0,False,,338.6342191388502,[],"[940.5, 467]",ColorTask,25.0,37.0,,,HRV,HRV_0043,2022-11-30 17:58:24
,wl-rdm,45,158902,0.0-6.37-0.37,0.0,46.0,,,,,,,[],,,,,,62.5,0.0,u,0.0,True,1003.6000000014901,61.0,60.0,40.0,False,,284.45995187672264,[],"[940.5, 467]",ColorTask,26.0,38.0,,,HRV,HRV_0043,2022-11-30 17:58:24
,wl-rdm,46,161285,0.0-6.38-0.38,0.0,47.0,,,,,,,[],,,,,,56.4,1.0,i,1.0,True,971.6999999992549,59.0,60.0,40.0,False,,319.11980011800057,[],"[940.5, 467]",ColorTask,27.0,39.0,,,HRV,HRV_0043,2022-11-30 17:58:24
,wl-rdm,47,163635,0.0-6.39-0.39,0.0,48.0,,,,,,,[],,,,,,56.4,0.0,i,1.0,False,951.1000000014901,58.0,60.0,40.0,False,,325.43473830708894,[],"[940.5, 467]",ColorTask,26.0,40.0,,,HRV,HRV_0043,2022-11-30 17:58:24
,wl-rdm,48,165902,0.0-6.40-0.40,0.0,49.0,,,,,,,[],,,,,,50.0,0.0,u,0.0,True,889.8999999985099,54.0,60.0,40.0,False,,312.15532290379565,[],"[940.5, 467]",ColorTask,27.0,41.0,,,HRV,HRV_0043,2022-11-30 17:58:24
,wl-rdm,49,168335,0.0-6.41-0.41,0.0,50.0,,,,,,,[],,,,,,56.4,1.0,i,1.0,True,1037.0,63.0,60.0,40.0,False,,321.52269487537944,[],"[940.5, 467]",ColorTask,28.0,42.0,,,HRV,HRV_0043,2022-11-30 17:58:24
,wl-rdm,50,170502,0.0-6.42-0.42,0.0,51.0,,,,,,,[],,,,,,73.6,0.0,u,0.0,True,880.1000000014901,53.0,60.0,40.0,False,,208.31060189156992,[],"[940.5, 467]",ColorTask,29.0,43.0,,,HRV,HRV_0043,2022-11-30 17:58:24
,wl-rdm,51,172819,0.0-6.43-0.43,0.0,52.0,,,,,,,[],,,,,,56.4,1.0,i,1.0,True,897.2000000029802,54.0,60.0,40.0,False,,338.50638343955745,[],"[940.5, 467]",ColorTask,30.0,44.0,,,HRV,HRV_0043,2022-11-30 17:58:24
,wl-rdm,52,175169,0.0-6.44-0.44,0.0,53.0,,,,,,,[],,,,,,53.2,1.0,i,1.0,True,1066.6000000014901,64.0,60.0,40.0,False,,205.66236365923285,[],"[940.5, 467]",ColorTask,31.0,45.0,,,HRV,HRV_0043,2022-11-30 17:58:24
,wl-rdm,53,177519,0.0-6.45-0.45,0.0,54.0,,,,,,,[],,,,,,50.0,0.0,i,1.0,False,982.6000000014901,59.0,60.0,40.0,False,,288.53076297843825,[],"[940.5, 467]",ColorTask,30.0,46.0,,,HRV,HRV_0043,2022-11-30 17:58:24
,wl-rdm,54,179969,0.0-6.46-0.46,0.0,55.0,,,,,,,[],,,,,,62.5,1.0,i,1.0,True,1135.4000000022352,69.0,60.0,40.0,False,,245.0939779254714,[],"[940.5, 467]",ColorTask,31.0,47.0,,,HRV,HRV_0043,2022-11-30 17:58:24
,wl-rdm,55,182503,0.0-6.47-0.47,0.0,56.0,,,,,,,[],,,,,,50.0,1.0,i,1.0,True,1211.0,73.0,60.0,40.0,False,,263.9490144685289,[],"[940.5, 467]",ColorTask,32.0,48.0,,,HRV,HRV_0043,2022-11-30 17:58:24
,wl-rdm,56,184719,0.0-6.48-0.48,0.0,57.0,,,,,,,[],,,,,,50.0,0.0,u,0.0,True,882.6999999992549,53.0,60.0,40.0,False,,255.44336559671927,[],"[940.5, 467]",ColorTask,33.0,49.0,,,HRV,HRV_0043,2022-11-30 17:58:24
,wl-rdm,57,187286,0.0-6.49-0.49,0.0,58.0,,,,,,,[],,,,,,53.2,1.0,u,0.0,False,1231.4000000022352,74.0,60.0,40.0,False,,255.89126171816542,[],"[940.5, 467]",ColorTask,32.0,50.0,,,HRV,HRV_0043,2022-11-30 17:58:24
,wl-rdm,58,189370,0.0-6.50-0.50,0.0,59.0,,,,,,,[],,,,,,53.2,0.0,i,1.0,False,773.7000000029802,47.0,60.0,40.0,False,,223.4494940359187,[],"[940.5, 467]",ColorTask,31.0,51.0,,,HRV,HRV_0043,2022-11-30 17:58:24
,wl-rdm,59,191670,0.0-6.51-0.51,0.0,60.0,,,,,,,[],,,,,,73.6,1.0,i,1.0,True,917.6999999992549,56.0,60.0,40.0,False,,311.365904578743,[],"[940.5, 467]",ColorTask,32.0,52.0,,,HRV,HRV_0043,2022-11-30 17:58:24
,wl-rdm,60,193953,0.0-6.52-0.52,0.0,61.0,,,,,,,[],,,,,,73.6,0.0,u,0.0,True,990.7999999970198,60.0,60.0,40.0,False,,206.430795737405,[],"[940.5, 467]",ColorTask,33.0,53.0,,,HRV,HRV_0043,2022-11-30 17:58:24
,wl-rdm,61,196503,0.0-6.53-0.53,0.0,62.0,,,,,,,[],,,,,,56.4,0.0,u,0.0,True,1189.1000000014901,72.0,60.0,40.0,False,,296.08014721084083,[],"[940.5, 467]",ColorTask,34.0,54.0,,,HRV,HRV_0043,2022-11-30 17:58:24
,wl-rdm,62,198837,0.0-6.54-0.54,0.0,63.0,,,,,,,[],,,,,,73.6,0.0,u,0.0,True,1039.1000000014901,63.0,60.0,40.0,False,,214.62021526470568,[],"[940.5, 467]",ColorTask,35.0,55.0,,,HRV,HRV_0043,2022-11-30 17:58:24
,wl-rdm,63,201203,0.0-6.55-0.55,0.0,64.0,,,,,,,[],,,,,,53.2,1.0,i,1.0,True,957.5,58.0,60.0,40.0,False,,333.817047293627,[],"[940.5, 467]",ColorTask,36.0,56.0,,,HRV,HRV_0043,2022-11-30 17:58:24
,wl-rdm,64,203670,0.0-6.56-0.56,0.0,65.0,,,,,,,[],,,,,,56.4,0.0,i,1.0,False,1083.0999999977648,65.0,60.0,40.0,False,,316.9729001059483,[],"[940.5, 467]",ColorTask,35.0,57.0,,,HRV,HRV_0043,2022-11-30 17:58:24
,wl-rdm,65,206054,0.0-6.57-0.57,0.0,66.0,,,,,,,[],,,,,,73.6,1.0,i,1.0,True,978.5999999977648,59.0,60.0,40.0,False,,321.1642646060989,[],"[940.5, 467]",ColorTask,36.0,58.0,,,HRV,HRV_0043,2022-11-30 17:58:24
,wl-rdm,66,208554,0.0-6.58-0.58,0.0,67.0,,,,,,,[],,,,,,62.5,0.0,u,0.0,True,1094.300000000745,66.0,60.0,40.0,False,,323.1326518138794,[],"[940.5, 467]",ColorTask,37.0,59.0,,,HRV,HRV_0043,2022-11-30 17:58:24
,wl-rdm,67,210854,0.0-6.59-0.59,0.0,68.0,,,,,,,[],,,,,,62.5,0.0,u,0.0,True,921.1999999992549,56.0,60.0,40.0,False,,285.86712331457863,[],"[940.5, 467]",ColorTask,38.0,60.0,,,HRV,HRV_0043,2022-11-30 17:58:24
,wl-rdm,68,213604,0.0-6.60-0.60,0.0,69.0,,,,,,,[],,,,,,50.0,1.0,i,1.0,True,1480.300000000745,89.0,60.0,40.0,False,,211.21664776689278,[],"[940.5, 467]",ColorTask,39.0,61.0,,,HRV,HRV_0043,2022-11-30 17:58:24
,wl-rdm,69,215988,0.0-6.61-0.61,0.0,70.0,,,,,,,[],,,,,,56.4,0.0,i,1.0,False,967.3000000007451,59.0,60.0,40.0,False,,321.6092242675362,[],"[940.5, 467]",ColorTask,38.0,62.0,,,HRV,HRV_0043,2022-11-30 17:58:24
,wl-rdm,70,218104,0.0-6.62-0.62,0.0,71.0,,,,,,,[],,,,,,87.9,1.0,i,1.0,True,820.8999999985099,50.0,60.0,40.0,False,,233.1321484940726,[],"[940.5, 467]",ColorTask,39.0,63.0,,,HRV,HRV_0043,2022-11-30 17:58:24
,wl-rdm,71,220371,0.0-6.63-0.63,0.0,72.0,,,,,,,[],,,,,,62.5,1.0,i,1.0,True,811.2000000029802,49.0,60.0,40.0,False,,398.2968565877119,[],"[940.5, 467]",ColorTask,40.0,64.0,,,HRV,HRV_0043,2022-11-30 17:58:24
,wl-rdm,72,222605,0.0-6.64-0.64,0.0,73.0,,,,,,,[],,,,,,73.6,1.0,i,1.0,True,789.8000000007451,48.0,60.0,40.0,False,,377.60997623396696,[],"[940.5, 467]",ColorTask,41.0,65.0,,,HRV,HRV_0043,2022-11-30 17:58:24
,wl-rdm,73,224971,0.0-6.65-0.65,0.0,74.0,,,,,,,[],,,,,,56.4,1.0,u,0.0,False,1000.7999999970198,61.0,60.0,40.0,False,,286.08567725274116,[],"[940.5, 467]",ColorTask,40.0,66.0,,,HRV,HRV_0043,2022-11-30 17:58:24
,wl-rdm,74,227105,0.0-6.66-0.66,0.0,75.0,,,,,,,[],,,,,,53.2,0.0,i,1.0,False,754.5,46.0,60.0,40.0,False,,307.30264779130835,[],"[940.5, 467]",ColorTask,39.0,67.0,,,HRV,HRV_0043,2022-11-30 17:58:24
,wl-rdm,75,229055,0.0-6.67-0.67,0.0,76.0,,,,,,,[],,,,,,62.5,1.0,i,1.0,True,609.5,37.0,60.0,40.0,False,,251.91725741730374,[],"[940.5, 467]",ColorTask,40.0,68.0,,,HRV,HRV_0043,2022-11-30 17:58:24
,wl-rdm,76,231105,0.0-6.68-0.68,0.0,77.0,,,,,,,[],,,,,,50.0,1.0,i,1.0,True,682.7000000029802,41.0,60.0,40.0,False,,300.7937703720548,[],"[940.5, 467]",ColorTask,41.0,69.0,,,HRV,HRV_0043,2022-11-30 17:58:24
,wl-rdm,77,233172,0.0-6.69-0.69,0.0,78.0,,,,,,,[],,,,,,87.9,1.0,i,1.0,True,621.0999999977648,38.0,60.0,40.0,False,,361.3695144029218,[],"[940.5, 467]",ColorTask,42.0,70.0,,,HRV,HRV_0043,2022-11-30 17:58:24
,wl-rdm,78,235488,0.0-6.70-0.70,0.0,79.0,,,,,,,[],,,,,,53.2,1.0,i,1.0,True,994.3000000007451,60.0,60.0,40.0,False,,244.91576838982152,[],"[940.5, 467]",ColorTask,43.0,71.0,,,HRV,HRV_0043,2022-11-30 17:58:24
,wl-rdm,79,237672,0.0-6.71-0.71,0.0,80.0,,,,,,,[],,,,,,50.0,0.0,u,0.0,True,895.3999999985099,54.0,60.0,40.0,False,,230.83482655465204,[],"[940.5, 467]",ColorTask,44.0,72.0,,,HRV,HRV_0043,2022-11-30 17:58:24
,wl-rdm,80,240205,0.0-6.72-0.72,0.0,81.0,,,,,,,[],,,,,,56.4,0.0,u,0.0,True,1199.3999999985099,72.0,60.0,40.0,False,,251.5825809537071,[],"[940.5, 467]",ColorTask,45.0,73.0,,,HRV,HRV_0043,2022-11-30 17:58:24
,wl-rdm,81,242272,0.0-6.73-0.73,0.0,82.0,,,,,,,[],,,,,,50.0,1.0,u,0.0,False,719.3999999985099,44.0,60.0,40.0,False,,252.5162157860616,[],"[940.5, 467]",ColorTask,44.0,74.0,,,HRV,HRV_0043,2022-11-30 17:58:24
,wl-rdm,82,244222,0.0-6.74-0.74,0.0,83.0,,,,,,,[],,,,,,73.6,1.0,i,1.0,True,666.0,40.0,60.0,40.0,False,,222.2347333686966,[],"[940.5, 467]",ColorTask,45.0,75.0,,,HRV,HRV_0043,2022-11-30 17:58:24
,wl-rdm,83,246522,0.0-6.75-0.75,0.0,84.0,,,,,,,[],,,,,,53.2,0.0,u,0.0,True,1003.6999999992549,61.0,60.0,40.0,False,,221.17179196666737,[],"[940.5, 467]",ColorTask,46.0,76.0,,,HRV,HRV_0043,2022-11-30 17:58:24
,wl-rdm,84,248789,0.0-6.76-0.76,0.0,85.0,,,,,,,[],,,,,,73.6,1.0,i,1.0,True,970.8999999985099,59.0,60.0,40.0,False,,209.3715519910987,[],"[940.5, 467]",ColorTask,47.0,77.0,,,HRV,HRV_0043,2022-11-30 17:58:24
,wl-rdm,85,251056,0.0-6.77-0.77,0.0,86.0,,,,,,,[],,,,,,53.2,1.0,i,1.0,True,910.6000000014901,55.0,60.0,40.0,False,,282.49030251575095,[],"[940.5, 467]",ColorTask,48.0,78.0,,,HRV,HRV_0043,2022-11-30 17:58:24
,wl-rdm,86,252989,0.0-6.78-0.78,0.0,87.0,,,,,,,[],,,,,,87.9,0.0,u,0.0,True,652.2999999970198,40.0,60.0,40.0,False,,205.25038045864082,[],"[940.5, 467]",ColorTask,49.0,79.0,,,HRV,HRV_0043,2022-11-30 17:58:24
,wl-rdm,87,255223,0.0-6.79-0.79,0.0,88.0,,,,,,,[],,,,,,53.2,0.0,u,0.0,True,894.6999999992549,54.0,60.0,40.0,False,,268.7071335152961,[],"[940.5, 467]",ColorTask,50.0,80.0,,,HRV,HRV_0043,2022-11-30 17:58:24
,wl-rdm,88,257223,0.0-6.80-0.80,0.0,89.0,,,,,,,[],,,,,,73.6,0.0,u,0.0,True,698.1999999992549,42.0,60.0,40.0,False,,221.9814770216776,[],"[940.5, 467]",ColorTask,51.0,81.0,,,HRV,HRV_0043,2022-11-30 17:58:24
,wl-rdm,89,259206,0.0-6.81-0.81,0.0,90.0,,,,,,,[],,,,,,53.2,0.0,u,0.0,True,615.5,37.0,60.0,40.0,False,,290.9217844038532,[],"[940.5, 467]",ColorTask,52.0,82.0,,,HRV,HRV_0043,2022-11-30 17:58:24
,wl-rdm,90,261656,0.0-6.82-0.82,0.0,91.0,,,,,,,[],,,,,,56.4,0.0,u,0.0,True,1167.7000000029802,71.0,60.0,40.0,False,,211.20258719018634,[],"[940.5, 467]",ColorTask,53.0,83.0,,,HRV,HRV_0043,2022-11-30 17:58:24
,wl-rdm,91,263806,0.0-6.83-0.83,0.0,92.0,,,,,,,[],,,,,,73.6,1.0,i,1.0,True,768.2000000029802,47.0,60.0,40.0,False,,313.41534753042765,[],"[940.5, 467]",ColorTask,54.0,84.0,,,HRV,HRV_0043,2022-11-30 17:58:24
,wl-rdm,92,265873,0.0-6.84-0.84,0.0,93.0,,,,,,,[],,,,,,87.9,1.0,i,1.0,True,588.0999999977648,36.0,60.0,40.0,False,,395.9101918271625,[],"[940.5, 467]",ColorTask,55.0,85.0,,,HRV,HRV_0043,2022-11-30 17:58:24
,wl-rdm,93,268206,0.0-6.85-0.85,0.0,94.0,,,,,,,[],,,,,,87.9,0.0,u,0.0,True,877.1999999992549,53.0,60.0,40.0,False,,395.37003466234614,[],"[940.5, 467]",ColorTask,56.0,86.0,,,HRV,HRV_0043,2022-11-30 17:58:24
,wl-rdm,94,270090,0.0-6.86-0.86,0.0,95.0,,,,,,,[],,,,,,73.6,0.0,u,0.0,True,567.6999999992549,35.0,60.0,40.0,False,,240.5717421942393,[],"[940.5, 467]",ColorTask,57.0,87.0,,,HRV,HRV_0043,2022-11-30 17:58:24
,wl-rdm,95,272090,0.0-6.87-0.87,0.0,96.0,,,,,,,[],,,,,,87.9,1.0,i,1.0,True,642.5999999977648,39.0,60.0,40.0,False,,279.11154294259177,[],"[940.5, 467]",ColorTask,58.0,88.0,,,HRV,HRV_0043,2022-11-30 17:58:24
,wl-rdm,96,274107,0.0-6.88-0.88,0.0,97.0,,,,,,,[],,,,,,50.0,0.0,u,0.0,True,672.6000000014901,41.0,60.0,40.0,False,,262.85618049040283,[],"[940.5, 467]",ColorTask,59.0,89.0,,,HRV,HRV_0043,2022-11-30 17:58:24
,wl-rdm,97,276157,0.0-6.89-0.89,0.0,98.0,,,,,,,[],,,,,,87.9,0.0,u,0.0,True,642.7999999970198,39.0,60.0,40.0,False,,333.3165858073699,[],"[940.5, 467]",ColorTask,60.0,90.0,,,HRV,HRV_0043,2022-11-30 17:58:24
,wl-rdm,98,278107,0.0-6.90-0.90,0.0,99.0,,,,,,,[],,,,,,73.6,1.0,i,1.0,True,627.5999999977648,38.0,60.0,40.0,False,,243.1853543103187,[],"[940.5, 467]",ColorTask,61.0,91.0,,,HRV,HRV_0043,2022-11-30 17:58:24
,wl-rdm,99,279940,0.0-6.91-0.91,0.0,100.0,,,,,,,[],,,,,,87.9,1.0,i,1.0,True,555.5,34.0,60.0,40.0,False,,201.9293199324926,[],"[940.5, 467]",ColorTask,62.0,92.0,,,HRV,HRV_0043,2022-11-30 17:58:24
,wl-rdm,100,281957,0.0-6.92-0.92,0.0,101.0,,,,,,,[],,,,,,87.9,1.0,i,1.0,True,575.1000000014901,35.0,60.0,40.0,False,,363.1035181609989,[],"[940.5, 467]",ColorTask,63.0,93.0,,,HRV,HRV_0043,2022-11-30 17:58:24
,wl-rdm,101,284290,0.0-6.93-0.93,0.0,102.0,,,,,,,[],,,,,,50.0,1.0,i,1.0,True,963.8999999985099,58.0,60.0,40.0,False,,311.7017534203154,[],"[940.5, 467]",ColorTask,64.0,94.0,,,HRV,HRV_0043,2022-11-30 17:58:24
,wl-rdm,102,286307,0.0-6.94-0.94,0.0,103.0,,,,,,,[],,,,,,53.2,1.0,i,1.0,True,722.6000000014901,44.0,60.0,40.0,False,,218.5158577830278,[],"[940.5, 467]",ColorTask,65.0,95.0,,,HRV,HRV_0043,2022-11-30 17:58:24
,wl-rdm,103,288324,0.0-6.95-0.95,0.0,104.0,,,,,,,[],,,,,,53.2,1.0,i,1.0,True,675.3000000007451,41.0,60.0,40.0,False,,259.3905091265526,[],"[940.5, 467]",ColorTask,66.0,96.0,,,HRV,HRV_0043,2022-11-30 17:58:24
,wl-rdm,104,290707,0.0-6.96-0.96,0.0,105.0,,,,,,,[],,,,,,50.0,1.0,i,1.0,True,1084.0999999977648,66.0,60.0,40.0,False,,200.48782992252043,[],"[940.5, 467]",ColorTask,67.0,97.0,,,HRV,HRV_0043,2022-11-30 17:58:24
,wl-rdm,105,292858,0.0-6.97-0.97,0.0,106.0,,,,,,,[],,,,,,62.5,1.0,i,1.0,True,747.5,45.0,60.0,40.0,False,,320.954629699948,[],"[940.5, 467]",ColorTask,68.0,98.0,,,HRV,HRV_0043,2022-11-30 17:58:24
,wl-rdm,106,295024,0.0-6.98-0.98,0.0,107.0,,,,,,,[],,,,,,73.6,0.0,u,0.0,True,745.7000000029802,45.0,60.0,40.0,False,,364.90464414025564,[],"[940.5, 467]",ColorTask,69.0,99.0,,,HRV,HRV_0043,2022-11-30 17:58:24
,wl-rdm,107,296958,0.0-6.99-0.99,0.0,108.0,,,,,,,[],,,,,,87.9,1.0,i,1.0,True,598.5,36.0,60.0,40.0,False,,261.2345149456397,[],"[940.5, 467]",ColorTask,70.0,100.0,,,HRV,HRV_0043,2022-11-30 17:58:24
,wl-rdm,108,298908,0.0-6.100-0.100,0.0,109.0,,,,,,,[],,,,,,62.5,0.0,u,0.0,True,655.6000000014901,40.0,60.0,40.0,False,,218.43670217928707,[],"[940.5, 467]",ColorTask,71.0,101.0,,,HRV,HRV_0043,2022-11-30 17:58:24
,wl-rdm,109,300991,0.0-6.101-0.101,0.0,110.0,,,,,,,[],,,,,,87.9,0.0,u,0.0,True,626.7000000029802,38.0,60.0,40.0,False,,375.85205545504374,[],"[940.5, 467]",ColorTask,72.0,102.0,,,HRV,HRV_0043,2022-11-30 17:58:24
,wl-rdm,110,303191,0.0-6.102-0.102,0.0,111.0,,,,,,,[],,,,,,56.4,1.0,i,1.0,True,914.0000000037253,55.0,60.0,40.0,False,,222.40861741053263,[],"[940.5, 467]",ColorTask,73.0,103.0,,,HRV,HRV_0043,2022-11-30 17:58:24
,wl-rdm,111,305175,0.0-6.103-0.103,0.0,112.0,,,,,,,[],,,,,,73.6,1.0,i,1.0,True,577.5,35.0,60.0,40.0,False,,329.9052748293741,[],"[940.5, 467]",ColorTask,74.0,104.0,,,HRV,HRV_0043,2022-11-30 17:58:24
,wl-rdm,112,307275,0.0-6.104-0.104,0.0,113.0,,,,,,,[],,,,,,50.0,0.0,u,0.0,True,675.6000000014901,41.0,60.0,40.0,False,,361.77436888689317,[],"[940.5, 467]",ColorTask,75.0,105.0,,,HRV,HRV_0043,2022-11-30 17:58:24
,wl-rdm,113,309345,0.0-6.105-0.105,0.0,114.0,,,,,,,[],,,,,,56.4,0.0,u,0.0,True,689.7000000029802,42.0,60.0,40.0,False,,290.4441613558738,[],"[940.5, 467]",ColorTask,76.0,106.0,,,HRV,HRV_0043,2022-11-30 17:58:24
,wl-rdm,114,311475,0.0-6.106-0.106,0.0,115.0,,,,,,,[],,,,,,50.0,0.0,i,1.0,False,710.4000000022352,43.0,60.0,40.0,False,,335.4013026499302,[],"[940.5, 467]",ColorTask,75.0,107.0,,,HRV,HRV_0043,2022-11-30 17:58:24
,wl-rdm,115,313792,0.0-6.107-0.107,0.0,116.0,,,,,,,[],,,,,,62.5,0.0,u,0.0,True,954.6999999992549,58.0,60.0,40.0,False,,275.2732137380052,[],"[940.5, 467]",ColorTask,76.0,108.0,,,HRV,HRV_0043,2022-11-30 17:58:24
,wl-html-keyboard-response,116,321885,0.0-7.0-0.0,1.0,117.0,,,,,,,,6090.29999999702,1.0,0,,,,,,,,,,,,,,,,,,,,,,HRV,HRV_0043,2022-11-30 17:58:24
,wl-rdm,117,324325,0.0-8.0-0.0,1.0,118.0,,,,,,,[],,,,,,50.0,0.0,i,1.0,False,1040.2999999970198,63.0,60.0,40.0,False,,345.17536127668234,[],"[940.5, 467]",ColorTask,75.0,1.0,,,HRV,HRV_0043,2022-11-30 17:58:24
,wl-rdm,118,326609,0.0-8.1-0.1,1.0,119.0,,,,,,,[],,,,,,62.5,0.0,u,0.0,True,828.8000000007451,50.0,60.0,40.0,False,,380.1003591737074,[],"[940.5, 467]",ColorTask,76.0,2.0,,,HRV,HRV_0043,2022-11-30 17:58:24
,wl-rdm,119,328625,0.0-8.2-0.2,1.0,120.0,,,,,,,[],,,,,,62.5,0.0,u,0.0,True,705.0,43.0,60.0,40.0,False,,225.62503223002363,[],"[940.5, 467]",ColorTask,77.0,3.0,,,HRV,HRV_0043,2022-11-30 17:58:24
,wl-rdm,120,330676,0.0-8.3-0.3,1.0,121.0,,,,,,,[],,,,,,56.4,1.0,u,0.0,False,675.1999999992549,41.0,60.0,40.0,False,,300.8832507604572,[],"[940.5, 467]",ColorTask,76.0,4.0,,,HRV,HRV_0043,2022-11-30 17:58:24
,wl-rdm,121,332742,0.0-8.4-0.4,1.0,122.0,,,,,,,[],,,,,,56.4,1.0,i,1.0,True,647.8000000007451,39.0,60.0,40.0,False,,336.18101700756836,[],"[940.5, 467]",ColorTask,77.0,5.0,,,HRV,HRV_0043,2022-11-30 17:58:24
,wl-rdm,122,334743,0.0-8.5-0.5,1.0,123.0,,,,,,,[],,,,,,87.9,0.0,u,0.0,True,674.8000000007451,41.0,60.0,40.0,False,,248.50813201486878,[],"[940.5, 467]",ColorTask,78.0,6.0,,,HRV,HRV_0043,2022-11-30 17:58:24
,wl-rdm,123,336943,0.0-8.6-0.6,1.0,124.0,,,,,,,[],,,,,,50.0,1.0,u,0.0,False,812.0,49.0,60.0,40.0,False,,319.73891592616815,[],"[940.5, 467]",ColorTask,77.0,7.0,,,HRV,HRV_0043,2022-11-30 17:58:24
,wl-rdm,124,339443,0.0-8.7-0.7,1.0,125.0,,,,,,,[],,,,,,62.5,0.0,u,0.0,True,1209.3999999985099,73.0,60.0,40.0,False,,220.16566651593774,[],"[940.5, 467]",ColorTask,78.0,8.0,,,HRV,HRV_0043,2022-11-30 17:58:24
,wl-rdm,125,341626,0.0-8.8-0.8,1.0,126.0,,,,,,,[],,,,,,62.5,0.0,u,0.0,True,841.8000000007451,51.0,60.0,40.0,False,,270.5112177035701,[],"[940.5, 467]",ColorTask,79.0,9.0,,,HRV,HRV_0043,2022-11-30 17:58:24
,wl-rdm,126,343909,0.0-8.9-0.9,1.0,127.0,,,,,,,[],,,,,,56.4,0.0,u,0.0,True,981.0,59.0,60.0,40.0,False,,233.06345938098178,[],"[940.5, 467]",ColorTask,80.0,10.0,,,HRV,HRV_0043,2022-11-30 17:58:24
,wl-rdm,127,346243,0.0-8.10-0.10,1.0,128.0,,,,,,,[],,,,,,53.2,0.0,u,0.0,True,887.6999999992549,54.0,60.0,40.0,False,,380.89986535459707,[],"[940.5, 467]",ColorTask,81.0,11.0,,,HRV,HRV_0043,2022-11-30 17:58:24
,wl-rdm,128,348210,0.0-8.11-0.11,1.0,129.0,,,,,,,[],,,,,,87.9,1.0,i,1.0,True,669.1999999992549,41.0,60.0,40.0,False,,223.9784380003991,[],"[940.5, 467]",ColorTask,82.0,12.0,,,HRV,HRV_0043,2022-11-30 17:58:24
,wl-rdm,129,350543,0.0-8.12-0.12,1.0,130.0,,,,,,,[],,,,,,53.2,1.0,u,0.0,False,935.8000000007451,57.0,60.0,40.0,False,,322.42485091658557,[],"[940.5, 467]",ColorTask,81.0,13.0,,,HRV,HRV_0043,2022-11-30 17:58:24
,wl-rdm,130,352493,0.0-8.13-0.13,1.0,131.0,,,,,,,[],,,,,,87.9,1.0,i,1.0,True,643.1999999992549,39.0,60.0,40.0,False,,218.8304048137075,[],"[940.5, 467]",ColorTask,82.0,14.0,,,HRV,HRV_0043,2022-11-30 17:58:24
,wl-rdm,131,354577,0.0-8.14-0.14,1.0,132.0,,,,,,,[],,,,,,62.5,1.0,u,0.0,False,658.5000000037253,40.0,60.0,40.0,False,,361.62845591661824,[],"[940.5, 467]",ColorTask,81.0,15.0,,,HRV,HRV_0043,2022-11-30 17:58:24
,wl-rdm,132,356827,0.0-8.15-0.15,1.0,133.0,,,,,,,[],,,,,,50.0,1.0,u,0.0,False,911.8000000007451,55.0,60.0,40.0,False,,258.8992408966772,[],"[940.5, 467]",ColorTask,80.0,16.0,,,HRV,HRV_0043,2022-11-30 17:58:24
,wl-rdm,133,358827,0.0-8.16-0.16,1.0,134.0,,,,,,,[],,,,,,87.9,0.0,u,0.0,True,654.6000000014901,40.0,60.0,40.0,False,,280.41542033598506,[],"[940.5, 467]",ColorTask,81.0,17.0,,,HRV,HRV_0043,2022-11-30 17:58:24
,wl-rdm,134,360827,0.0-8.17-0.17,1.0,135.0,,,,,,,[],,,,,,87.9,0.0,u,0.0,True,673.8000000007451,41.0,60.0,40.0,False,,250.0450025640563,[],"[940.5, 467]",ColorTask,82.0,18.0,,,HRV,HRV_0043,2022-11-30 17:58:24
,wl-rdm,135,363377,0.0-8.18-0.18,1.0,136.0,,,,,,,[],,,,,,56.4,0.0,i,1.0,False,1131.800000000745,68.0,60.0,40.0,False,,354.89667520303533,[],"[940.5, 467]",ColorTask,81.0,19.0,,,HRV,HRV_0043,2022-11-30 17:58:24
,wl-rdm,136,365794,0.0-8.19-0.19,1.0,137.0,,,,,,,[],,,,,,73.6,1.0,i,1.0,True,988.8999999985099,60.0,60.0,40.0,False,,359.05633234256686,[],"[940.5, 467]",ColorTask,82.0,20.0,,,HRV,HRV_0043,2022-11-30 17:58:24
,wl-rdm,137,368244,0.0-8.20-0.20,1.0,138.0,,,,,,,[],,,,,,50.0,0.0,i,1.0,False,1008.5999999977648,61.0,60.0,40.0,False,,380.21284672141485,[],"[940.5, 467]",ColorTask,81.0,21.0,,,HRV,HRV_0043,2022-11-30 17:58:24
,wl-rdm,138,370494,0.0-8.21-0.21,1.0,139.0,,,,,,,[],,,,,,56.4,1.0,u,0.0,False,869.7999999970198,53.0,60.0,40.0,False,,297.8999177443395,[],"[940.5, 467]",ColorTask,80.0,22.0,,,HRV,HRV_0043,2022-11-30 17:58:24
,wl-rdm,139,372811,0.0-8.22-0.22,1.0,140.0,,,,,,,[],,,,,,53.2,0.0,u,0.0,True,1003.3999999985099,61.0,60.0,40.0,False,,220.71594348086197,[],"[940.5, 467]",ColorTask,81.0,23.0,,,HRV,HRV_0043,2022-11-30 17:58:24
,wl-rdm,140,375094,0.0-8.23-0.23,1.0,141.0,,,,,,,[],,,,,,56.4,1.0,i,1.0,True,981.5999999977648,59.0,60.0,40.0,False,,219.27160183697703,[],"[940.5, 467]",ColorTask,82.0,24.0,,,HRV,HRV_0043,2022-11-30 17:58:24
,wl-rdm,141,377078,0.0-8.24-0.24,1.0,142.0,,,,,,,[],,,,,,73.6,0.0,u,0.0,True,637.6000000014901,39.0,60.0,40.0,False,,270.3259840791269,[],"[940.5, 467]",ColorTask,83.0,25.0,,,HRV,HRV_0043,2022-11-30 17:58:24
,wl-rdm,142,379111,0.0-8.25-0.25,1.0,143.0,,,,,,,[],,,,,,87.9,1.0,i,1.0,True,649.0,39.0,60.0,40.0,False,,324.37290604779855,[],"[940.5, 467]",ColorTask,84.0,26.0,,,HRV,HRV_0043,2022-11-30 17:58:24
,wl-rdm,143,381361,0.0-8.26-0.26,1.0,144.0,,,,,,,[],,,,,,56.4,0.0,u,0.0,True,886.6000000014901,54.0,60.0,40.0,False,,269.3291340180541,[],"[940.5, 467]",ColorTask,85.0,27.0,,,HRV,HRV_0043,2022-11-30 17:58:24
,wl-rdm,144,383611,0.0-8.27-0.27,1.0,145.0,,,,,,,[],,,,,,62.5,1.0,i,1.0,True,876.3999999985099,53.0,60.0,40.0,False,,303.02607462104055,[],"[940.5, 467]",ColorTask,86.0,28.0,,,HRV,HRV_0043,2022-11-30 17:58:24
,wl-rdm,145,385745,0.0-8.28-0.28,1.0,146.0,,,,,,,[],,,,,,56.4,0.0,u,0.0,True,796.5999999977648,48.0,60.0,40.0,False,,269.7455236352675,[],"[940.5, 467]",ColorTask,87.0,29.0,,,HRV,HRV_0043,2022-11-30 17:58:24
,wl-rdm,146,387728,0.0-8.29-0.29,1.0,147.0,,,,,,,[],,,,,,50.0,0.0,i,1.0,False,676.0999999977648,41.0,60.0,40.0,False,,237.01492268617488,[],"[940.5, 467]",ColorTask,86.0,30.0,,,HRV,HRV_0043,2022-11-30 17:58:24
,wl-rdm,147,390095,0.0-8.30-0.30,1.0,148.0,,,,,,,[],,,,,,53.2,0.0,u,0.0,True,984.5,60.0,60.0,40.0,False,,290.55351748805424,[],"[940.5, 467]",ColorTask,87.0,31.0,,,HRV,HRV_0043,2022-11-30 17:58:24
,wl-rdm,148,392145,0.0-8.31-0.31,1.0,149.0,,,,,,,[],,,,,,62.5,0.0,u,0.0,True,737.0999999977648,45.0,60.0,40.0,False,,232.72095013650772,[],"[940.5, 467]",ColorTask,88.0,32.0,,,HRV,HRV_0043,2022-11-30 17:58:24
,wl-rdm,149,394195,0.0-8.32-0.32,1.0,150.0,,,,,,,[],,,,,,73.6,1.0,i,1.0,True,673.6000000014901,41.0,60.0,40.0,False,,314.00044083399473,[],"[940.5, 467]",ColorTask,89.0,33.0,,,HRV,HRV_0043,2022-11-30 17:58:24
,wl-rdm,150,396229,0.0-8.33-0.33,1.0,151.0,,,,,,,[],,,,,,73.6,1.0,i,1.0,True,681.9999999962747,41.0,60.0,40.0,False,,272.63429453993183,[],"[940.5, 467]",ColorTask,90.0,34.0,,,HRV,HRV_0043,2022-11-30 17:58:24
,wl-rdm,151,398362,0.0-8.34-0.34,1.0,152.0,,,,,,,[],,,,,,50.0,1.0,i,1.0,True,852.5999999977648,52.0,60.0,40.0,False,,200.2859505641176,[],"[940.5, 467]",ColorTask,91.0,35.0,,,HRV,HRV_0043,2022-11-30 17:58:24
,wl-rdm,152,400745,0.0-8.35-0.35,1.0,153.0,,,,,,,[],,,,,,62.5,1.0,u,0.0,False,1041.0,63.0,60.0,40.0,False,,259.0420630448891,[],"[940.5, 467]",ColorTask,90.0,36.0,,,HRV,HRV_0043,2022-11-30 17:58:24
,wl-rdm,153,402896,0.0-8.36-0.36,1.0,154.0,,,,,,,[],,,,,,53.2,0.0,i,1.0,False,808.2999999970198,49.0,60.0,40.0,False,,252.71187358061354,[],"[940.5, 467]",ColorTask,89.0,37.0,,,HRV,HRV_0043,2022-11-30 17:58:24
,wl-rdm,154,405262,0.0-8.37-0.37,1.0,155.0,,,,,,,[],,,,,,53.2,1.0,u,0.0,False,986.6000000014901,60.0,60.0,40.0,False,,309.8308420680454,[],"[940.5, 467]",ColorTask,88.0,38.0,,,HRV,HRV_0043,2022-11-30 17:58:24
,wl-rdm,155,407329,0.0-8.38-0.38,1.0,156.0,,,,,,,[],,,,,,56.4,0.0,u,0.0,True,640.7000000029802,39.0,60.0,40.0,False,,338.5577371022181,[],"[940.5, 467]",ColorTask,89.0,39.0,,,HRV,HRV_0043,2022-11-30 17:58:24
,wl-rdm,156,409629,0.0-8.39-0.39,1.0,157.0,,,,,,,[],,,,,,56.4,1.0,u,0.0,False,918.8999999985099,56.0,60.0,40.0,False,,314.97573833959467,[],"[940.5, 467]",ColorTask,88.0,40.0,,,HRV,HRV_0043,2022-11-30 17:58:24
,wl-rdm,157,411746,0.0-8.40-0.40,1.0,158.0,,,,,,,[],,,,,,62.5,1.0,i,1.0,True,766.1999999992549,46.0,60.0,40.0,False,,274.34075942797944,[],"[940.5, 467]",ColorTask,89.0,41.0,,,HRV,HRV_0043,2022-11-30 17:58:24
,wl-rdm,158,413679,0.0-8.41-0.41,1.0,159.0,,,,,,,[],,,,,,87.9,1.0,i,1.0,True,635.3999999985099,39.0,60.0,40.0,False,,207.98421524810243,[],"[940.5, 467]",ColorTask,90.0,42.0,,,HRV,HRV_0043,2022-11-30 17:58:24
,wl-rdm,159,416029,0.0-8.42-0.42,1.0,160.0,,,,,,,[],,,,,,56.4,1.0,i,1.0,True,1057.199999999255,64.0,60.0,40.0,False,,203.14754546782152,[],"[940.5, 467]",ColorTask,91.0,43.0,,,HRV,HRV_0043,2022-11-30 17:58:24
,wl-rdm,160,418363,0.0-8.43-0.43,1.0,161.0,,,,,,,[],,,,,,62.5,1.0,i,1.0,True,914.5,55.0,60.0,40.0,False,,336.51637581670104,[],"[940.5, 467]",ColorTask,92.0,44.0,,,HRV,HRV_0043,2022-11-30 17:58:24
,wl-rdm,161,420330,0.0-8.44-0.44,1.0,162.0,,,,,,,[],,,,,,87.9,0.0,u,0.0,True,678.6000000014901,41.0,60.0,40.0,False,,203.10866222252568,[],"[940.5, 467]",ColorTask,93.0,45.0,,,HRV,HRV_0043,2022-11-30 17:58:24
,wl-rdm,162,422746,0.0-8.45-0.45,1.0,163.0,,,,,,,[],,,,,,53.2,0.0,u,0.0,True,1123.6000000014901,68.0,60.0,40.0,False,,207.4343715966713,[],"[940.5, 467]",ColorTask,94.0,46.0,,,HRV,HRV_0043,2022-11-30 17:58:24
,wl-rdm,163,424963,0.0-8.46-0.46,1.0,164.0,,,,,,,[],,,,,,50.0,0.0,u,0.0,True,790.1000000014901,48.0,60.0,40.0,False,,334.82099764887346,[],"[940.5, 467]",ColorTask,95.0,47.0,,,HRV,HRV_0043,2022-11-30 17:58:24
,wl-rdm,164,427330,0.0-8.47-0.47,1.0,165.0,,,,,,,[],,,,,,53.2,0.0,i,1.0,False,885.7999999970198,54.0,60.0,40.0,False,,398.25915106857303,[],"[940.5, 467]",ColorTask,94.0,48.0,,,HRV,HRV_0043,2022-11-30 17:58:24
,wl-rdm,165,429663,0.0-8.48-0.48,1.0,166.0,,,,,,,[],,,,,,50.0,0.0,u,0.0,True,992.5,60.0,60.0,40.0,False,,250.21002885570843,[],"[940.5, 467]",ColorTask,95.0,49.0,,,HRV,HRV_0043,2022-11-30 17:58:24
,wl-rdm,166,431847,0.0-8.49-0.49,1.0,167.0,,,,,,,[],,,,,,73.6,1.0,i,1.0,True,914.1000000014901,55.0,60.0,40.0,False,,210.19210481321102,[],"[940.5, 467]",ColorTask,96.0,50.0,,,HRV,HRV_0043,2022-11-30 17:58:24
,wl-rdm,167,434064,0.0-8.50-0.50,1.0,168.0,,,,,,,[],,,,,,73.6,0.0,u,0.0,True,835.8999999985099,51.0,60.0,40.0,False,,304.5394156260891,[],"[940.5, 467]",ColorTask,97.0,51.0,,,HRV,HRV_0043,2022-11-30 17:58:24
,wl-rdm,168,436014,0.0-8.51-0.51,1.0,169.0,,,,,,,[],,,,,,62.5,0.0,u,0.0,True,649.5,39.0,60.0,40.0,False,,239.25752615826246,[],"[940.5, 467]",ColorTask,98.0,52.0,,,HRV,HRV_0043,2022-11-30 17:58:24
,wl-rdm,169,438014,0.0-8.52-0.52,1.0,170.0,,,,,,,[],,,,,,87.9,0.0,u,0.0,True,696.4000000022352,42.0,60.0,40.0,False,,230.5712274693221,[],"[940.5, 467]",ColorTask,99.0,53.0,,,HRV,HRV_0043,2022-11-30 17:58:24
,wl-rdm,170,439997,0.0-8.53-0.53,1.0,171.0,,,,,,,[],,,,,,87.9,1.0,i,1.0,True,609.6000000014901,37.0,60.0,40.0,False,,284.31233884157956,[],"[940.5, 467]",ColorTask,100.0,54.0,,,HRV,HRV_0043,2022-11-30 17:58:24
,wl-rdm,171,441897,0.0-8.54-0.54,1.0,172.0,,,,,,,[],,,,,,87.9,0.0,u,0.0,True,622.0999999977648,38.0,60.0,40.0,False,,201.95210069919796,[],"[940.5, 467]",ColorTask,101.0,55.0,,,HRV,HRV_0043,2022-11-30 17:58:24
,wl-rdm,172,444264,0.0-8.55-0.55,1.0,173.0,,,,,,,[],,,,,,62.5,1.0,i,1.0,True,995.1000000014901,60.0,60.0,40.0,False,,283.3109323122052,[],"[940.5, 467]",ColorTask,102.0,56.0,,,HRV,HRV_0043,2022-11-30 17:58:24
,wl-rdm,173,446381,0.0-8.56-0.56,1.0,174.0,,,,,,,[],,,,,,73.6,1.0,i,1.0,True,692.6999999992549,42.0,60.0,40.0,False,,336.17905961999577,[],"[940.5, 467]",ColorTask,103.0,57.0,,,HRV,HRV_0043,2022-11-30 17:58:24
,wl-rdm,174,448797,0.0-8.57-0.57,1.0,175.0,,,,,,,[],,,,,,53.2,1.0,i,1.0,True,1023.3999999985099,62.0,60.0,40.0,False,,330.5075166592594,[],"[940.5, 467]",ColorTask,104.0,58.0,,,HRV,HRV_0043,2022-11-30 17:58:24
,wl-rdm,175,451114,0.0-8.58-0.58,1.0,176.0,,,,,,,[],,,,,,53.2,1.0,u,0.0,False,968.3000000007451,59.0,60.0,40.0,False,,265.7098063312699,[],"[940.5, 467]",ColorTask,103.0,59.0,,,HRV,HRV_0043,2022-11-30 17:58:24
,wl-rdm,176,453364,0.0-8.59-0.59,1.0,177.0,,,,,,,[],,,,,,53.2,1.0,i,1.0,True,908.0999999977648,55.0,60.0,40.0,False,,283.07793702525015,[],"[940.5, 467]",ColorTask,104.0,60.0,,,HRV,HRV_0043,2022-11-30 17:58:24
,wl-rdm,177,455398,0.0-8.60-0.60,1.0,178.0,,,,,,,[],,,,,,50.0,0.0,i,1.0,False,738.8000000007451,45.0,60.0,40.0,False,,217.88948849183495,[],"[940.5, 467]",ColorTask,103.0,61.0,,,HRV,HRV_0043,2022-11-30 17:58:24
,wl-rdm,178,457748,0.0-8.61-0.61,1.0,179.0,,,,,,,[],,,,,,73.6,0.0,u,0.0,True,911.1999999992549,55.0,60.0,40.0,False,,380.1722389043375,[],"[940.5, 467]",ColorTask,104.0,62.0,,,HRV,HRV_0043,2022-11-30 17:58:24
,wl-rdm,179,459948,0.0-8.62-0.62,1.0,180.0,,,,,,,[],,,,,,87.9,0.0,u,0.0,True,799.6999999992549,48.0,60.0,40.0,False,,340.5916215199951,[],"[940.5, 467]",ColorTask,105.0,63.0,,,HRV,HRV_0043,2022-11-30 17:58:24
,wl-rdm,180,462181,0.0-8.63-0.63,1.0,181.0,,,,,,,[],,,,,,50.0,1.0,i,1.0,True,762.1000000014901,46.0,60.0,40.0,False,,384.79942200898057,[],"[940.5, 467]",ColorTask,106.0,64.0,,,HRV,HRV_0043,2022-11-30 17:58:24
,wl-rdm,181,464615,0.0-8.64-0.64,1.0,182.0,,,,,,,[],,,,,,53.2,0.0,u,0.0,True,1102.8999999985099,67.0,60.0,40.0,False,,263.4738165647279,[],"[940.5, 467]",ColorTask,107.0,65.0,,,HRV,HRV_0043,2022-11-30 17:58:24
,wl-rdm,182,466598,0.0-8.65-0.65,1.0,183.0,,,,,,,[],,,,,,87.9,1.0,i,1.0,True,661.3000000007451,40.0,60.0,40.0,False,,263.41441639748194,[],"[940.5, 467]",ColorTask,108.0,66.0,,,HRV,HRV_0043,2022-11-30 17:58:24
,wl-rdm,183,468665,0.0-8.66-0.66,1.0,184.0,,,,,,,[],,,,,,73.6,0.0,u,0.0,True,640.2000000029802,39.0,60.0,40.0,False,,333.3297585040641,[],"[940.5, 467]",ColorTask,109.0,67.0,,,HRV,HRV_0043,2022-11-30 17:58:24
,wl-rdm,184,470598,0.0-8.67-0.67,1.0,185.0,,,,,,,[],,,,,,73.6,1.0,i,1.0,True,608.6000000014901,37.0,60.0,40.0,False,,234.82136197595116,[],"[940.5, 467]",ColorTask,110.0,68.0,,,HRV,HRV_0043,2022-11-30 17:58:24
,wl-rdm,185,472848,0.0-8.68-0.68,1.0,186.0,,,,,,,[],,,,,,62.5,0.0,u,0.0,True,851.9000000022352,52.0,60.0,40.0,False,,308.6674544755533,[],"[940.5, 467]",ColorTask,111.0,69.0,,,HRV,HRV_0043,2022-11-30 17:58:24
,wl-rdm,186,475232,0.0-8.69-0.69,1.0,187.0,,,,,,,[],,,,,,50.0,1.0,i,1.0,True,1075.800000000745,65.0,60.0,40.0,False,,241.7240759635912,[],"[940.5, 467]",ColorTask,112.0,70.0,,,HRV,HRV_0043,2022-11-30 17:58:24
,wl-rdm,187,477415,0.0-8.70-0.70,1.0,188.0,,,,,,,[],,,,,,50.0,1.0,i,1.0,True,857.5999999977648,52.0,60.0,40.0,False,,244.2173829116003,[],"[940.5, 467]",ColorTask,113.0,71.0,,,HRV,HRV_0043,2022-11-30 17:58:24
,wl-rdm,188,479549,0.0-8.71-0.71,1.0,189.0,,,,,,,[],,,,,,73.6,1.0,i,1.0,True,779.1999999992549,47.0,60.0,40.0,False,,283.5825292852738,[],"[940.5, 467]",ColorTask,114.0,72.0,,,HRV,HRV_0043,2022-11-30 17:58:24
,wl-rdm,189,481649,0.0-8.72-0.72,1.0,190.0,,,,,,,[],,,,,,73.6,0.0,u,0.0,True,688.5999999977648,42.0,60.0,40.0,False,,321.8928618801407,[],"[940.5, 467]",ColorTask,115.0,73.0,,,HRV,HRV_0043,2022-11-30 17:58:24
,wl-rdm,190,483649,0.0-8.73-0.73,1.0,191.0,,,,,,,[],,,,,,56.4,1.0,i,1.0,True,597.5,36.0,60.0,40.0,False,,342.36561171986625,[],"[940.5, 467]",ColorTask,116.0,74.0,,,HRV,HRV_0043,2022-11-30 17:58:24
,wl-rdm,191,485749,0.0-8.74-0.74,1.0,192.0,,,,,,,[],,,,,,53.2,1.0,i,1.0,True,684.3999999985099,42.0,60.0,40.0,False,,324.28935206179983,[],"[940.5, 467]",ColorTask,117.0,75.0,,,HRV,HRV_0043,2022-11-30 17:58:24
,wl-rdm,192,487766,0.0-8.75-0.75,1.0,193.0,,,,,,,[],,,,,,62.5,1.0,i,1.0,True,675.3000000044703,41.0,60.0,40.0,False,,260.2276983111801,[],"[940.5, 467]",ColorTask,118.0,76.0,,,HRV,HRV_0043,2022-11-30 17:58:24
,wl-rdm,193,489849,0.0-8.76-0.76,1.0,194.0,,,,,,,[],,,,,,53.2,1.0,i,1.0,True,751.9000000022352,46.0,60.0,40.0,False,,258.0679306482773,[],"[940.5, 467]",ColorTask,119.0,77.0,,,HRV,HRV_0043,2022-11-30 17:58:24
,wl-rdm,194,492266,0.0-8.77-0.77,1.0,195.0,,,,,,,[],,,,,,56.4,1.0,u,0.0,False,1051.8999999985099,64.0,60.0,40.0,False,,299.48082088056896,[],"[940.5, 467]",ColorTask,118.0,78.0,,,HRV,HRV_0043,2022-11-30 17:58:24
,wl-rdm,195,494616,0.0-8.78-0.78,1.0,196.0,,,,,,,[],,,,,,50.0,1.0,i,1.0,True,976.1999999992549,59.0,60.0,40.0,False,,293.70583256301086,[],"[940.5, 467]",ColorTask,119.0,79.0,,,HRV,HRV_0043,2022-11-30 17:58:24
,wl-rdm,196,496933,0.0-8.79-0.79,1.0,197.0,,,,,,,[],,,,,,56.4,1.0,u,0.0,False,902.8000000007451,55.0,60.0,40.0,False,,346.38853063736804,[],"[940.5, 467]",ColorTask,118.0,80.0,,,HRV,HRV_0043,2022-11-30 17:58:24
,wl-rdm,197,498933,0.0-8.80-0.80,1.0,198.0,,,,,,,[],,,,,,87.9,0.0,u,0.0,True,701.7999999970198,43.0,60.0,40.0,False,,201.0217403616838,[],"[940.5, 467]",ColorTask,119.0,81.0,,,HRV,HRV_0043,2022-11-30 17:58:24
,wl-rdm,198,501266,0.0-8.81-0.81,1.0,199.0,,,,,,,[],,,,,,73.6,1.0,i,1.0,True,985.7999999970198,60.0,60.0,40.0,False,,254.00256750198633,[],"[940.5, 467]",ColorTask,120.0,82.0,,,HRV,HRV_0043,2022-11-30 17:58:24
,wl-rdm,199,503450,0.0-8.82-0.82,1.0,200.0,,,,,,,[],,,,,,87.9,1.0,i,1.0,True,857.1000000014901,52.0,60.0,40.0,False,,261.70939910480814,[],"[940.5, 467]",ColorTask,121.0,83.0,,,HRV,HRV_0043,2022-11-30 17:58:24
,wl-rdm,200,505717,0.0-8.83-0.83,1.0,201.0,,,,,,,[],,,,,,50.0,0.0,u,0.0,True,956.9000000022352,58.0,60.0,40.0,False,,221.74657260642957,[],"[940.5, 467]",ColorTask,122.0,84.0,,,HRV,HRV_0043,2022-11-30 17:58:24
,wl-rdm,201,507767,0.0-8.84-0.84,1.0,202.0,,,,,,,[],,,,,,87.9,0.0,u,0.0,True,705.5,43.0,60.0,40.0,False,,280.661347727268,[],"[940.5, 467]",ColorTask,123.0,85.0,,,HRV,HRV_0043,2022-11-30 17:58:24
,wl-rdm,202,510067,0.0-8.85-0.85,1.0,203.0,,,,,,,[],,,,,,53.2,1.0,i,1.0,True,950.8000000007451,58.0,60.0,40.0,False,,251.38831372384547,[],"[940.5, 467]",ColorTask,124.0,86.0,,,HRV,HRV_0043,2022-11-30 17:58:24
,wl-rdm,203,512333,0.0-8.86-0.86,1.0,204.0,,,,,,,[],,,,,,56.4,0.0,u,0.0,True,955.1999999992549,58.0,60.0,40.0,False,,225.19894412417466,[],"[940.5, 467]",ColorTask,125.0,87.0,,,HRV,HRV_0043,2022-11-30 17:58:24
,wl-rdm,204,514584,0.0-8.87-0.87,1.0,205.0,,,,,,,[],,,,,,62.5,0.0,u,0.0,True,872.0,53.0,60.0,40.0,False,,290.8110724519695,[],"[940.5, 467]",ColorTask,126.0,88.0,,,HRV,HRV_0043,2022-11-30 17:58:24
,wl-rdm,205,516700,0.0-8.88-0.88,1.0,206.0,,,,,,,[],,,,,,73.6,1.0,i,1.0,True,753.2000000029802,46.0,60.0,40.0,False,,276.26723953239576,[],"[940.5, 467]",ColorTask,127.0,89.0,,,HRV,HRV_0043,2022-11-30 17:58:24
,wl-rdm,206,518951,0.0-8.89-0.89,1.0,207.0,,,,,,,[],,,,,,50.0,1.0,u,0.0,False,869.6000000014901,53.0,60.0,40.0,False,,297.5375452135549,[],"[940.5, 467]",ColorTask,126.0,90.0,,,HRV,HRV_0043,2022-11-30 17:58:24
,wl-rdm,207,521201,0.0-8.90-0.90,1.0,208.0,,,,,,,[],,,,,,62.5,0.0,u,0.0,True,886.0999999977648,54.0,60.0,40.0,False,,273.6412059897391,[],"[940.5, 467]",ColorTask,127.0,91.0,,,HRV,HRV_0043,2022-11-30 17:58:24
,wl-rdm,208,523401,0.0-8.91-0.91,1.0,209.0,,,,,,,[],,,,,,62.5,1.0,i,1.0,True,874.4000000022352,53.0,60.0,40.0,False,,237.1133629546349,[],"[940.5, 467]",ColorTask,128.0,92.0,,,HRV,HRV_0043,2022-11-30 17:58:24
,wl-rdm,209,525901,0.0-8.92-0.92,1.0,210.0,,,,,,,[],,,,,,50.0,1.0,u,0.0,False,1045.1000000014901,63.0,60.0,40.0,False,,398.4902090852774,[],"[940.5, 467]",ColorTask,127.0,93.0,,,HRV,HRV_0043,2022-11-30 17:58:24
,wl-rdm,210,528251,0.0-8.93-0.93,1.0,211.0,,,,,,,[],,,,,,73.6,0.0,u,0.0,True,901.5,55.0,60.0,40.0,False,,378.1131062051304,[],"[940.5, 467]",ColorTask,128.0,94.0,,,HRV,HRV_0043,2022-11-30 17:58:24
,wl-rdm,211,530934,0.0-8.94-0.94,1.0,212.0,,,,,,,[],,,,,,50.0,0.0,u,0.0,True,1394.8999999985099,84.0,60.0,40.0,False,,207.21685470701993,[],"[940.5, 467]",ColorTask,129.0,95.0,,,HRV,HRV_0043,2022-11-30 17:58:24
,wl-rdm,212,533151,0.0-8.95-0.95,1.0,213.0,,,,,,,[],,,,,,56.4,0.0,u,0.0,True,750.6999999992549,46.0,60.0,40.0,False,,382.8628665363482,[],"[940.5, 467]",ColorTask,130.0,96.0,,,HRV,HRV_0043,2022-11-30 17:58:24
,wl-rdm,213,535668,0.0-8.96-0.96,1.0,214.0,,,,,,,[],,,,,,53.2,0.0,i,1.0,False,1063.1000000014901,64.0,60.0,40.0,False,,380.94443295725176,[],"[940.5, 467]",ColorTask,129.0,97.0,,,HRV,HRV_0043,2022-11-30 17:58:24
,wl-rdm,214,537518,0.0-8.97-0.97,1.0,215.0,,,,,,,[],,,,,,87.9,1.0,i,1.0,True,577.2000000029802,35.0,60.0,40.0,False,,208.17901419497653,[],"[940.5, 467]",ColorTask,130.0,98.0,,,HRV,HRV_0043,2022-11-30 17:58:24
,wl-rdm,215,539985,0.0-8.98-0.98,1.0,216.0,,,,,,,[],,,,,,56.4,0.0,i,1.0,False,1023.2999999970198,62.0,60.0,40.0,False,,363.17938595545974,[],"[940.5, 467]",ColorTask,129.0,99.0,,,HRV,HRV_0043,2022-11-30 17:58:24
,wl-rdm,216,542451,0.0-8.99-0.99,1.0,217.0,,,,,,,[],,,,,,73.6,0.0,u,0.0,True,1031.300000000745,62.0,60.0,40.0,False,,362.5100059771374,[],"[940.5, 467]",ColorTask,130.0,100.0,,,HRV,HRV_0043,2022-11-30 17:58:24
,wl-rdm,217,544518,0.0-8.100-0.100,1.0,218.0,,,,,,,[],,,,,,73.6,0.0,u,0.0,True,735.1999999992549,45.0,60.0,40.0,False,,243.25816695288762,[],"[940.5, 467]",ColorTask,131.0,101.0,,,HRV,HRV_0043,2022-11-30 17:58:24
,wl-rdm,218,546435,0.0-8.101-0.101,1.0,219.0,,,,,,,[],,,,,,53.2,0.0,u,0.0,True,620.7000000029802,38.0,60.0,40.0,False,,221.09322925975366,[],"[940.5, 467]",ColorTask,132.0,102.0,,,HRV,HRV_0043,2022-11-30 17:58:24
,wl-rdm,219,548452,0.0-8.102-0.102,1.0,220.0,,,,,,,[],,,,,,73.6,0.0,u,0.0,True,695.0,42.0,60.0,40.0,False,,253.28924120356857,[],"[940.5, 467]",ColorTask,133.0,103.0,,,HRV,HRV_0043,2022-11-30 17:58:24
,wl-rdm,220,550552,0.0-8.103-0.103,1.0,221.0,,,,,,,[],,,,,,56.4,0.0,u,0.0,True,737.5999999977648,45.0,60.0,40.0,False,,284.7325936201426,[],"[940.5, 467]",ColorTask,134.0,104.0,,,HRV,HRV_0043,2022-11-30 17:58:24
,wl-rdm,221,552502,0.0-8.104-0.104,1.0,222.0,,,,,,,[],,,,,,50.0,0.0,u,0.0,True,628.0999999977648,38.0,60.0,40.0,False,,260.9289548873084,[],"[940.5, 467]",ColorTask,135.0,105.0,,,HRV,HRV_0043,2022-11-30 17:58:24
,wl-rdm,222,554519,0.0-8.105-0.105,1.0,223.0,,,,,,,[],,,,,,62.5,1.0,i,1.0,True,703.9000000022352,43.0,60.0,40.0,False,,228.33477969105255,[],"[940.5, 467]",ColorTask,136.0,106.0,,,HRV,HRV_0043,2022-11-30 17:58:24
,wl-rdm,223,556569,0.0-8.106-0.106,1.0,224.0,,,,,,,[],,,,,,53.2,1.0,i,1.0,True,694.9000000022352,42.0,60.0,40.0,False,,278.4835424035987,[],"[940.5, 467]",ColorTask,137.0,107.0,,,HRV,HRV_0043,2022-11-30 17:58:24
,wl-rdm,224,558552,0.0-8.107-0.107,1.0,225.0,,,,,,,[],,,,,,87.9,1.0,i,1.0,True,574.5,35.0,60.0,40.0,False,,328.39747650750667,[],"[940.5, 467]",ColorTask,138.0,108.0,,,HRV,HRV_0043,2022-11-30 17:58:24
,wl-html-button-response,225,562243,0.0-9.0-0.0,,,,,,,,,,3689.300000000745,,0,,,,,,,,,,,,,,,,,,,,<h3>End of this session. Thank you!</h3><br>,['Close window'],HRV,HRV_0043,2022-11-30 17:58:24
