trialN,stimuli,question,trialStartTime,trialStartTime_UNIX,stimulus1,rt,receivedResponse,rating,trialEndTime,trialDuration,stimulus1Loaded,exp,subjectId,date
0,"[{'imgObject': {}, 'id': 'mango', 'src': '/static/foodstim60/mango.jpg', 'key': 'NaN', 'origWidth': 411, 'origHeight': 411, 'width': 411, 'height': 411, 'widthPercent': 0.8, 'rescaleHeight': True, 'trialN': 0, 'loaded': True, 'loadedTime': 2497.300000011921, 'positionName': 'CENTER', 'positionCoords': [514.5, 244.5]}]",Rate how much you want to eat this food from 0 (least) to 10 (most).,2542.800000011921,1669832816150,mango,2147.099999964237,True,9.63,4689.899999976158,2147.099999964237,True,HRV,HRV_0185,2022-11-30 18:28:37
1,"[{'imgObject': {}, 'id': 'eggs', 'src': '/static/foodstim60/eggs.jpg', 'key': 'NaN', 'origWidth': 409, 'origHeight': 409, 'width': 409, 'height': 409, 'widthPercent': 0.8, 'rescaleHeight': True, 'trialN': 1, 'loaded': True, 'loadedTime': 2498, 'positionName': 'CENTER', 'positionCoords': [515.5, 245.5]}]",Rate how much you want to eat this food from 0 (least) to 10 (most).,4710.199999988079,1669832818317,eggs,1366.0,True,9.84,6076.199999988079,1366.0,True,HRV,HRV_0185,2022-11-30 18:28:37
2,"[{'imgObject': {}, 'id': 'mashed potato', 'src': '/static/foodstim60/mashed potato.jpg', 'key': 'NaN', 'origWidth': 409, 'origHeight': 409, 'width': 409, 'height': 409, 'widthPercent': 0.8, 'rescaleHeight': True, 'trialN': 2, 'loaded': True, 'loadedTime': 2498.199999988079, 'positionName': 'CENTER', 'positionCoords': [515.5, 245.5]}]",Rate how much you want to eat this food from 0 (least) to 10 (most).,6102.5,1669832819709,mashed potato,1401.5,True,9.8,7504.0,1401.5,True,HRV,HRV_0185,2022-11-30 18:28:37
3,"[{'imgObject': {}, 'id': 'blackbeanswithrice', 'src': '/static/foodstim60/blackbeanswithrice.jpg', 'key': 'NaN', 'origWidth': 410, 'origHeight': 410, 'width': 410, 'height': 410, 'widthPercent': 0.8, 'rescaleHeight': True, 'trialN': 3, 'loaded': True, 'loadedTime': 2498.300000011921, 'positionName': 'CENTER', 'positionCoords': [515, 245]}]",Rate how much you want to eat this food from 0 (least) to 10 (most).,7528.0,1669832821135,blackbeanswithrice,1489.5,True,9.9,9017.5,1489.5,True,HRV,HRV_0185,2022-11-30 18:28:37
4,"[{'imgObject': {}, 'id': 'turkey sandwich', 'src': '/static/foodstim60/turkey sandwich.jpg', 'key': 'NaN', 'origWidth': 409, 'origHeight': 409, 'width': 409, 'height': 409, 'widthPercent': 0.8, 'rescaleHeight': True, 'trialN': 4, 'loaded': True, 'loadedTime': 2499.199999988079, 'positionName': 'CENTER', 'positionCoords': [515.5, 245.5]}]",Rate how much you want to eat this food from 0 (least) to 10 (most).,9036.5,1669832822643,turkey sandwich,1415.800000011921,True,9.88,10452.300000011921,1415.800000011921,True,HRV,HRV_0185,2022-11-30 18:28:37
5,"[{'imgObject': {}, 'id': 'hashbrowns', 'src': '/static/foodstim60/hashbrowns.jpg', 'key': 'NaN', 'origWidth': 411, 'origHeight': 410, 'width': 411, 'height': 410, 'widthPercent': 0.8, 'rescaleHeight': True, 'trialN': 5, 'loaded': True, 'loadedTime': 2499.699999988079, 'positionName': 'CENTER', 'positionCoords': [514.5, 245]}]",Rate how much you want to eat this food from 0 (least) to 10 (most).,10466.5,1669832824073,hashbrowns,1698.8999999761581,True,9.870000000000001,12165.399999976158,1698.8999999761581,True,HRV,HRV_0185,2022-11-30 18:28:37
6,"[{'imgObject': {}, 'id': 'Grapes', 'src': '/static/foodstim60/Grapes.jpg', 'key': 'NaN', 'origWidth': 411, 'origHeight': 411, 'width': 411, 'height': 411, 'widthPercent': 0.8, 'rescaleHeight': True, 'trialN': 6, 'loaded': True, 'loadedTime': 2500.300000011921, 'positionName': 'CENTER', 'positionCoords': [514.5, 244.5]}]",Rate how much you want to eat this food from 0 (least) to 10 (most).,12178.800000011921,1669832825786,Grapes,1269.5,True,9.9,13448.300000011921,1269.5,True,HRV,HRV_0185,2022-11-30 18:28:37
7,"[{'imgObject': {}, 'id': 'chickenfingers', 'src': '/static/foodstim60/chickenfingers.jpg', 'key': 'NaN', 'origWidth': 410, 'origHeight': 410, 'width': 410, 'height': 410, 'widthPercent': 0.8, 'rescaleHeight': True, 'trialN': 7, 'loaded': True, 'loadedTime': 2501, 'positionName': 'CENTER', 'positionCoords': [515, 245]}]",Rate how much you want to eat this food from 0 (least) to 10 (most).,13466.0,1669832827073,chickenfingers,1416.0999999642372,True,9.84,14882.099999964237,1416.0999999642372,True,HRV,HRV_0185,2022-11-30 18:28:37
8,"[{'imgObject': {}, 'id': 'popsicles', 'src': '/static/foodstim60/popsicles.jpg', 'key': 'NaN', 'origWidth': 410, 'origHeight': 410, 'width': 410, 'height': 410, 'widthPercent': 0.8, 'rescaleHeight': True, 'trialN': 8, 'loaded': True, 'loadedTime': 2501.399999976158, 'positionName': 'CENTER', 'positionCoords': [515, 245]}]",Rate how much you want to eat this food from 0 (least) to 10 (most).,14895.599999964237,1669832828502,popsicles,1780.5,True,1.26,16676.099999964237,1780.5,True,HRV,HRV_0185,2022-11-30 18:28:37
9,"[{'imgObject': {}, 'id': 'pear', 'src': '/static/foodstim60/pear.jpg', 'key': 'NaN', 'origWidth': 411, 'origHeight': 410, 'width': 411, 'height': 410, 'widthPercent': 0.8, 'rescaleHeight': True, 'trialN': 9, 'loaded': True, 'loadedTime': 2502.099999964237, 'positionName': 'CENTER', 'positionCoords': [514.5, 245]}]",Rate how much you want to eat this food from 0 (least) to 10 (most).,16695.0,1669832830302,pear,1414.8999999761581,True,9.69,18109.899999976158,1414.8999999761581,True,HRV,HRV_0185,2022-11-30 18:28:37
10,"[{'imgObject': {}, 'id': 'lox', 'src': '/static/foodstim60/lox.jpg', 'key': 'NaN', 'origWidth': 410, 'origHeight': 411, 'width': 410, 'height': 411, 'widthPercent': 0.8, 'rescaleHeight': True, 'trialN': 10, 'loaded': True, 'loadedTime': 2502.599999964237, 'positionName': 'CENTER', 'positionCoords': [515, 244.5]}]",Rate how much you want to eat this food from 0 (least) to 10 (most).,18136.599999964237,1669832831743,lox,2316.400000035763,True,2.95,20453.0,2316.400000035763,True,HRV,HRV_0185,2022-11-30 18:28:37
11,"[{'imgObject': {}, 'id': 'rigatoni', 'src': '/static/foodstim60/rigatoni.jpg', 'key': 'NaN', 'origWidth': 411, 'origHeight': 411, 'width': 411, 'height': 411, 'widthPercent': 0.8, 'rescaleHeight': True, 'trialN': 11, 'loaded': True, 'loadedTime': 2503.199999988079, 'positionName': 'CENTER', 'positionCoords': [514.5, 244.5]}]",Rate how much you want to eat this food from 0 (least) to 10 (most).,20478.5,1669832834085,rigatoni,1639.8999999761581,True,5.87,22118.399999976158,1639.8999999761581,True,HRV,HRV_0185,2022-11-30 18:28:37
12,"[{'imgObject': {}, 'id': 'olives', 'src': '/static/foodstim60/olives.jpg', 'key': 'NaN', 'origWidth': 410, 'origHeight': 410, 'width': 410, 'height': 410, 'widthPercent': 0.8, 'rescaleHeight': True, 'trialN': 12, 'loaded': True, 'loadedTime': 2503.899999976158, 'positionName': 'CENTER', 'positionCoords': [515, 245]}]",Rate how much you want to eat this food from 0 (least) to 10 (most).,22141.19999998808,1669832835748,olives,1539.300000011921,True,5.9,23680.5,1539.300000011921,True,HRV,HRV_0185,2022-11-30 18:28:37
13,"[{'imgObject': {}, 'id': 'salad w chicken', 'src': '/static/foodstim60/salad w chicken.jpg', 'key': 'NaN', 'origWidth': 411, 'origHeight': 411, 'width': 411, 'height': 411, 'widthPercent': 0.8, 'rescaleHeight': True, 'trialN': 13, 'loaded': True, 'loadedTime': 2504.5, 'positionName': 'CENTER', 'positionCoords': [514.5, 244.5]}]",Rate how much you want to eat this food from 0 (least) to 10 (most).,23698.099999964237,1669832837305,salad w chicken,1895.800000011921,True,9.86,25593.899999976158,1895.800000011921,True,HRV,HRV_0185,2022-11-30 18:28:37
14,"[{'imgObject': {}, 'id': 'edamame', 'src': '/static/foodstim60/edamame.jpg', 'key': 'NaN', 'origWidth': 409, 'origHeight': 410, 'width': 409, 'height': 410, 'widthPercent': 0.8, 'rescaleHeight': True, 'trialN': 14, 'loaded': True, 'loadedTime': 2504.899999976158, 'positionName': 'CENTER', 'positionCoords': [515.5, 245]}]",Rate how much you want to eat this food from 0 (least) to 10 (most).,25608.19999998808,1669832839215,edamame,1658.300000011921,True,6.2,27266.5,1658.300000011921,True,HRV,HRV_0185,2022-11-30 18:28:37
15,"[{'imgObject': {}, 'id': 'raisin bran w milk', 'src': '/static/foodstim60/raisin bran w milk.jpg', 'key': 'NaN', 'origWidth': 411, 'origHeight': 411, 'width': 411, 'height': 411, 'widthPercent': 0.8, 'rescaleHeight': True, 'trialN': 15, 'loaded': True, 'loadedTime': 2505.399999976158, 'positionName': 'CENTER', 'positionCoords': [514.5, 244.5]}]",Rate how much you want to eat this food from 0 (least) to 10 (most).,27293.30000001192,1669832840900,raisin bran w milk,2052.599999964237,True,9.81,29345.899999976158,2052.599999964237,True,HRV,HRV_0185,2022-11-30 18:28:37
16,"[{'imgObject': {}, 'id': 'blueberries', 'src': '/static/foodstim60/blueberries.jpg', 'key': 'NaN', 'origWidth': 411, 'origHeight': 411, 'width': 411, 'height': 411, 'widthPercent': 0.8, 'rescaleHeight': True, 'trialN': 16, 'loaded': True, 'loadedTime': 2505.599999964237, 'positionName': 'CENTER', 'positionCoords': [514.5, 244.5]}]",Rate how much you want to eat this food from 0 (least) to 10 (most).,29359.0,1669832842965,blueberries,1190.300000011921,True,9.93,30549.30000001192,1190.300000011921,True,HRV,HRV_0185,2022-11-30 18:28:37
17,"[{'imgObject': {}, 'id': 'shreddedwheatwithmilk', 'src': '/static/foodstim60/shreddedwheatwithmilk.jpg', 'key': 'NaN', 'origWidth': 410, 'origHeight': 410, 'width': 410, 'height': 410, 'widthPercent': 0.8, 'rescaleHeight': True, 'trialN': 17, 'loaded': True, 'loadedTime': 2513.699999988079, 'positionName': 'CENTER', 'positionCoords': [515, 245]}]",Rate how much you want to eat this food from 0 (least) to 10 (most).,30575.30000001192,1669832844182,shreddedwheatwithmilk,1735.699999988079,True,9.91,32311.0,1735.699999988079,True,HRV,HRV_0185,2022-11-30 18:28:37
18,"[{'imgObject': {}, 'id': 'turkeysandwich', 'src': '/static/foodstim60/turkeysandwich.jpg', 'key': 'NaN', 'origWidth': 409, 'origHeight': 409, 'width': 409, 'height': 409, 'widthPercent': 0.8, 'rescaleHeight': True, 'trialN': 18, 'loaded': True, 'loadedTime': 2514.199999988079, 'positionName': 'CENTER', 'positionCoords': [515.5, 245.5]}]",Rate how much you want to eat this food from 0 (least) to 10 (most).,32334.599999964237,1669832845941,turkeysandwich,1928.7000000476837,True,9.870000000000001,34263.30000001192,1928.7000000476837,True,HRV,HRV_0185,2022-11-30 18:28:37
19,"[{'imgObject': {}, 'id': 'cantaloupe', 'src': '/static/foodstim60/cantaloupe.jpg', 'key': 'NaN', 'origWidth': 409, 'origHeight': 409, 'width': 409, 'height': 409, 'widthPercent': 0.8, 'rescaleHeight': True, 'trialN': 19, 'loaded': True, 'loadedTime': 2514.5, 'positionName': 'CENTER', 'positionCoords': [515.5, 245.5]}]",Rate how much you want to eat this food from 0 (least) to 10 (most).,34279.0,1669832847885,cantaloupe,1721.3999999761581,True,9.870000000000001,36000.39999997616,1721.3999999761581,True,HRV,HRV_0185,2022-11-30 18:28:37
20,"[{'imgObject': {}, 'id': 'kiwi', 'src': '/static/foodstim60/kiwi.jpg', 'key': 'NaN', 'origWidth': 410, 'origHeight': 410, 'width': 410, 'height': 410, 'widthPercent': 0.8, 'rescaleHeight': True, 'trialN': 20, 'loaded': True, 'loadedTime': 2514.599999964237, 'positionName': 'CENTER', 'positionCoords': [515, 245]}]",Rate how much you want to eat this food from 0 (least) to 10 (most).,36017.19999998808,1669832849623,kiwi,1353.800000011921,True,9.870000000000001,37371.0,1353.800000011921,True,HRV,HRV_0185,2022-11-30 18:28:37
21,"[{'imgObject': {}, 'id': 'roastedpotatoes', 'src': '/static/foodstim60/roastedpotatoes.jpg', 'key': 'NaN', 'origWidth': 409, 'origHeight': 410, 'width': 409, 'height': 410, 'widthPercent': 0.8, 'rescaleHeight': True, 'trialN': 21, 'loaded': True, 'loadedTime': 2514.899999976158, 'positionName': 'CENTER', 'positionCoords': [515.5, 245]}]",Rate how much you want to eat this food from 0 (least) to 10 (most).,37394.30000001192,1669832851001,roastedpotatoes,1418.5,True,9.88,38812.80000001192,1418.5,True,HRV,HRV_0185,2022-11-30 18:28:37
22,"[{'imgObject': {}, 'id': 'burger', 'src': '/static/foodstim60/burger.jpg', 'key': 'NaN', 'origWidth': 409, 'origHeight': 409, 'width': 409, 'height': 409, 'widthPercent': 0.8, 'rescaleHeight': True, 'trialN': 22, 'loaded': True, 'loadedTime': 2515.199999988079, 'positionName': 'CENTER', 'positionCoords': [515.5, 245.5]}]",Rate how much you want to eat this food from 0 (least) to 10 (most).,38826.59999996424,1669832852433,burger,1325.800000011921,True,9.9,40152.39999997616,1325.800000011921,True,HRV,HRV_0185,2022-11-30 18:28:37
23,"[{'imgObject': {}, 'id': 'bagel and cc', 'src': '/static/foodstim60/bagel and cc.jpg', 'key': 'NaN', 'origWidth': 410, 'origHeight': 410, 'width': 410, 'height': 410, 'widthPercent': 0.8, 'rescaleHeight': True, 'trialN': 23, 'loaded': True, 'loadedTime': 2525.800000011921, 'positionName': 'CENTER', 'positionCoords': [515, 245]}]",Rate how much you want to eat this food from 0 (least) to 10 (most).,40166.59999996424,1669832853773,bagel and cc,1427.4000000357628,True,9.870000000000001,41594.0,1427.4000000357628,True,HRV,HRV_0185,2022-11-30 18:28:37
24,"[{'imgObject': {}, 'id': 'Tribe humus pita', 'src': '/static/foodstim60/Tribe humus pita.jpg', 'key': 'NaN', 'origWidth': 411, 'origHeight': 411, 'width': 411, 'height': 411, 'widthPercent': 0.8, 'rescaleHeight': True, 'trialN': 24, 'loaded': True, 'loadedTime': 2526.300000011921, 'positionName': 'CENTER', 'positionCoords': [514.5, 244.5]}]",Rate how much you want to eat this food from 0 (least) to 10 (most).,41610.09999996424,1669832855216,Tribe humus pita,1474.6000000238419,True,9.84,43084.69999998808,1474.6000000238419,True,HRV,HRV_0185,2022-11-30 18:28:37
25,"[{'imgObject': {}, 'id': 'froot loops w milk', 'src': '/static/foodstim60/froot loops w milk.jpg', 'key': 'NaN', 'origWidth': 410, 'origHeight': 410, 'width': 410, 'height': 410, 'widthPercent': 0.8, 'rescaleHeight': True, 'trialN': 25, 'loaded': True, 'loadedTime': 2526.599999964237, 'positionName': 'CENTER', 'positionCoords': [515, 245]}]",Rate how much you want to eat this food from 0 (least) to 10 (most).,43097.89999997616,1669832856704,froot loops w milk,2489.900000035763,True,9.84,45587.80000001192,2489.900000035763,True,HRV,HRV_0185,2022-11-30 18:28:37
26,"[{'imgObject': {}, 'id': 'corn cob', 'src': '/static/foodstim60/corn cob.jpg', 'key': 'NaN', 'origWidth': 411, 'origHeight': 411, 'width': 411, 'height': 411, 'widthPercent': 0.8, 'rescaleHeight': True, 'trialN': 26, 'loaded': True, 'loadedTime': 2526.899999976158, 'positionName': 'CENTER', 'positionCoords': [514.5, 244.5]}]",Rate how much you want to eat this food from 0 (least) to 10 (most).,45610.0,1669832859216,corn cob,1635.5,True,9.88,47245.5,1635.5,True,HRV,HRV_0185,2022-11-30 18:28:37
27,"[{'imgObject': {}, 'id': 'fruitsalad', 'src': '/static/foodstim60/fruitsalad.jpg', 'key': 'NaN', 'origWidth': 410, 'origHeight': 410, 'width': 410, 'height': 410, 'widthPercent': 0.8, 'rescaleHeight': True, 'trialN': 27, 'loaded': True, 'loadedTime': 2527.199999988079, 'positionName': 'CENTER', 'positionCoords': [515, 245]}]",Rate how much you want to eat this food from 0 (least) to 10 (most).,47265.30000001192,1669832860871,fruitsalad,1302.0999999642372,True,9.91,48567.39999997616,1302.0999999642372,True,HRV,HRV_0185,2022-11-30 18:28:37
28,"[{'imgObject': {}, 'id': 'cocktailshrimp', 'src': '/static/foodstim60/cocktailshrimp.jpg', 'key': 'NaN', 'origWidth': 410, 'origHeight': 410, 'width': 410, 'height': 410, 'widthPercent': 0.8, 'rescaleHeight': True, 'trialN': 28, 'loaded': True, 'loadedTime': 2527.399999976158, 'positionName': 'CENTER', 'positionCoords': [515, 245]}]",Rate how much you want to eat this food from 0 (least) to 10 (most).,48584.69999998808,1669832862191,cocktailshrimp,1504.3999999761581,True,9.83,50089.09999996424,1504.3999999761581,True,HRV,HRV_0185,2022-11-30 18:28:37
29,"[{'imgObject': {}, 'id': 'apple slices', 'src': '/static/foodstim60/apple slices.jpg', 'key': 'NaN', 'origWidth': 409, 'origHeight': 410, 'width': 409, 'height': 410, 'widthPercent': 0.8, 'rescaleHeight': True, 'trialN': 29, 'loaded': True, 'loadedTime': 2527.699999988079, 'positionName': 'CENTER', 'positionCoords': [515.5, 245]}]",Rate how much you want to eat this food from 0 (least) to 10 (most).,50103.09999996424,1669832863709,apple slices,1396.800000011921,True,9.870000000000001,51499.89999997616,1396.800000011921,True,HRV,HRV_0185,2022-11-30 18:28:37
30,"[{'imgObject': {}, 'id': 'baked potato', 'src': '/static/foodstim60/baked potato.jpg', 'key': 'NaN', 'origWidth': 409, 'origHeight': 410, 'width': 409, 'height': 410, 'widthPercent': 0.8, 'rescaleHeight': True, 'trialN': 30, 'loaded': True, 'loadedTime': 2528.099999964237, 'positionName': 'CENTER', 'positionCoords': [515.5, 245]}]",Rate how much you want to eat this food from 0 (least) to 10 (most).,51521.69999998808,1669832865128,baked potato,1660.3999999761581,True,9.83,53182.09999996424,1660.3999999761581,True,HRV,HRV_0185,2022-11-30 18:28:37
31,"[{'imgObject': {}, 'id': 'avocado', 'src': '/static/foodstim60/avocado.jpg', 'key': 'NaN', 'origWidth': 409, 'origHeight': 409, 'width': 409, 'height': 409, 'widthPercent': 0.8, 'rescaleHeight': True, 'trialN': 31, 'loaded': True, 'loadedTime': 2528.5, 'positionName': 'CENTER', 'positionCoords': [515.5, 245.5]}]",Rate how much you want to eat this food from 0 (least) to 10 (most).,53195.69999998808,1669832866802,avocado,1826.5,True,9.84,55022.19999998808,1826.5,True,HRV,HRV_0185,2022-11-30 18:28:37
32,"[{'imgObject': {}, 'id': 'chicken nuggets2', 'src': '/static/foodstim60/chicken nuggets2.jpg', 'key': 'NaN', 'origWidth': 410, 'origHeight': 409, 'width': 410, 'height': 409, 'widthPercent': 0.8, 'rescaleHeight': True, 'trialN': 32, 'loaded': True, 'loadedTime': 2528.899999976158, 'positionName': 'CENTER', 'positionCoords': [515, 245.5]}]",Rate how much you want to eat this food from 0 (least) to 10 (most).,55035.19999998808,1669832868641,chicken nuggets2,1491.699999988079,True,9.870000000000001,56526.89999997616,1491.699999988079,True,HRV,HRV_0185,2022-11-30 18:28:37
33,"[{'imgObject': {}, 'id': 'cherry tomato', 'src': '/static/foodstim60/cherry tomato.jpg', 'key': 'NaN', 'origWidth': 410, 'origHeight': 410, 'width': 410, 'height': 410, 'widthPercent': 0.8, 'rescaleHeight': True, 'trialN': 33, 'loaded': True, 'loadedTime': 2532.300000011921, 'positionName': 'CENTER', 'positionCoords': [515, 245]}]",Rate how much you want to eat this food from 0 (least) to 10 (most).,56537.19999998808,1669832870143,cherry tomato,1385.800000011921,True,9.86,57923.0,1385.800000011921,True,HRV,HRV_0185,2022-11-30 18:28:37
34,"[{'imgObject': {}, 'id': 'grilled chicken strips', 'src': '/static/foodstim60/grilled chicken strips.jpg', 'key': 'NaN', 'origWidth': 410, 'origHeight': 411, 'width': 410, 'height': 411, 'widthPercent': 0.8, 'rescaleHeight': True, 'trialN': 34, 'loaded': True, 'loadedTime': 2532.599999964237, 'positionName': 'CENTER', 'positionCoords': [515, 244.5]}]",Rate how much you want to eat this food from 0 (least) to 10 (most).,57934.89999997616,1669832871541,grilled chicken strips,1351.1000000238419,True,9.93,59286.0,1351.1000000238419,True,HRV,HRV_0185,2022-11-30 18:28:37
35,"[{'imgObject': {}, 'id': 'bagel plain', 'src': '/static/foodstim60/bagel plain.jpg', 'key': 'NaN', 'origWidth': 410, 'origHeight': 410, 'width': 410, 'height': 410, 'widthPercent': 0.8, 'rescaleHeight': True, 'trialN': 35, 'loaded': True, 'loadedTime': 2533, 'positionName': 'CENTER', 'positionCoords': [515, 245]}]",Rate how much you want to eat this food from 0 (least) to 10 (most).,59306.09999996424,1669832872912,bagel plain,1319.0,True,7.9,60625.09999996424,1319.0,True,HRV,HRV_0185,2022-11-30 18:28:37
36,"[{'imgObject': {}, 'id': 'banana', 'src': '/static/foodstim60/banana.jpg', 'key': 'NaN', 'origWidth': 410, 'origHeight': 410, 'width': 410, 'height': 410, 'widthPercent': 0.8, 'rescaleHeight': True, 'trialN': 36, 'loaded': True, 'loadedTime': 2533.300000011921, 'positionName': 'CENTER', 'positionCoords': [515, 245]}]",Rate how much you want to eat this food from 0 (least) to 10 (most).,60650.0,1669832874256,banana,2078.699999988079,True,9.86,62728.69999998808,2078.699999988079,True,HRV,HRV_0185,2022-11-30 18:28:37
37,"[{'imgObject': {}, 'id': 'steak', 'src': '/static/foodstim60/steak.jpg', 'key': 'NaN', 'origWidth': 410, 'origHeight': 410, 'width': 410, 'height': 410, 'widthPercent': 0.8, 'rescaleHeight': True, 'trialN': 37, 'loaded': True, 'loadedTime': 2533.599999964237, 'positionName': 'CENTER', 'positionCoords': [515, 245]}]",Rate how much you want to eat this food from 0 (least) to 10 (most).,62741.69999998808,1669832876348,steak,1771.199999988079,True,5.45,64512.89999997616,1771.199999988079,True,HRV,HRV_0185,2022-11-30 18:28:37
38,"[{'imgObject': {}, 'id': 'mac & cheese', 'src': '/static/foodstim60/mac & cheese.jpg', 'key': 'NaN', 'origWidth': 410, 'origHeight': 410, 'width': 410, 'height': 410, 'widthPercent': 0.8, 'rescaleHeight': True, 'trialN': 38, 'loaded': True, 'loadedTime': 2533.899999976158, 'positionName': 'CENTER', 'positionCoords': [515, 245]}]",Rate how much you want to eat this food from 0 (least) to 10 (most).,64535.19999998808,1669832878141,mac & cheese,1635.0,True,6.79,66170.19999998808,1635.0,True,HRV,HRV_0185,2022-11-30 18:28:37
39,"[{'imgObject': {}, 'id': 'orange slices', 'src': '/static/foodstim60/orange slices.jpg', 'key': 'NaN', 'origWidth': 409, 'origHeight': 410, 'width': 409, 'height': 410, 'widthPercent': 0.8, 'rescaleHeight': True, 'trialN': 39, 'loaded': True, 'loadedTime': 2534.199999988079, 'positionName': 'CENTER', 'positionCoords': [515.5, 245]}]",Rate how much you want to eat this food from 0 (least) to 10 (most).,66185.5,1669832879791,orange slices,2034.300000011921,True,9.88,68219.80000001192,2034.300000011921,True,HRV,HRV_0185,2022-11-30 18:28:37
40,"[{'imgObject': {}, 'id': 'fried eggs', 'src': '/static/foodstim60/fried eggs.jpg', 'key': 'NaN', 'origWidth': 410, 'origHeight': 410, 'width': 410, 'height': 410, 'widthPercent': 0.8, 'rescaleHeight': True, 'trialN': 40, 'loaded': True, 'loadedTime': 2534.5, 'positionName': 'CENTER', 'positionCoords': [515, 245]}]",Rate how much you want to eat this food from 0 (least) to 10 (most).,68246.5,1669832881852,fried eggs,1630.3999999761581,True,9.88,69876.89999997616,1630.3999999761581,True,HRV,HRV_0185,2022-11-30 18:28:37
41,"[{'imgObject': {}, 'id': 'hotdog w must', 'src': '/static/foodstim60/hotdog w must.jpg', 'key': 'NaN', 'origWidth': 409, 'origHeight': 409, 'width': 409, 'height': 409, 'widthPercent': 0.8, 'rescaleHeight': True, 'trialN': 41, 'loaded': True, 'loadedTime': 2534.800000011921, 'positionName': 'CENTER', 'positionCoords': [515.5, 245.5]}]",Rate how much you want to eat this food from 0 (least) to 10 (most).,69891.89999997616,1669832883498,hotdog w must,3619.699999988079,True,9.870000000000001,73511.59999996424,3619.699999988079,True,HRV,HRV_0185,2022-11-30 18:28:37
42,"[{'imgObject': {}, 'id': 'strawberries', 'src': '/static/foodstim60/strawberries.jpg', 'key': 'NaN', 'origWidth': 410, 'origHeight': 410, 'width': 410, 'height': 410, 'widthPercent': 0.8, 'rescaleHeight': True, 'trialN': 42, 'loaded': True, 'loadedTime': 2535.099999964237, 'positionName': 'CENTER', 'positionCoords': [515, 245]}]",Rate how much you want to eat this food from 0 (least) to 10 (most).,73532.89999997616,1669832887139,strawberries,1708.0,True,9.86,75240.89999997616,1708.0,True,HRV,HRV_0185,2022-11-30 18:28:37
43,"[{'imgObject': {}, 'id': 'sweetpotato', 'src': '/static/foodstim60/sweetpotato.jpg', 'key': 'NaN', 'origWidth': 410, 'origHeight': 410, 'width': 410, 'height': 410, 'widthPercent': 0.8, 'rescaleHeight': True, 'trialN': 43, 'loaded': True, 'loadedTime': 2535.300000011921, 'positionName': 'CENTER', 'positionCoords': [515, 245]}]",Rate how much you want to eat this food from 0 (least) to 10 (most).,75257.19999998808,1669832888863,sweetpotato,1592.199999988079,True,9.870000000000001,76849.39999997616,1592.199999988079,True,HRV,HRV_0185,2022-11-30 18:28:37
44,"[{'imgObject': {}, 'id': 'rigatoni and sauce', 'src': '/static/foodstim60/rigatoni and sauce.jpg', 'key': 'NaN', 'origWidth': 410, 'origHeight': 411, 'width': 410, 'height': 411, 'widthPercent': 0.8, 'rescaleHeight': True, 'trialN': 44, 'loaded': True, 'loadedTime': 2535.699999988079, 'positionName': 'CENTER', 'positionCoords': [515, 244.5]}]",Rate how much you want to eat this food from 0 (least) to 10 (most).,76868.30000001192,1669832890474,rigatoni and sauce,1320.7999999523163,True,9.870000000000001,78189.09999996424,1320.7999999523163,True,HRV,HRV_0185,2022-11-30 18:28:37
45,"[{'imgObject': {}, 'id': 'cheerios', 'src': '/static/foodstim60/cheerios.jpg', 'key': 'NaN', 'origWidth': 409, 'origHeight': 410, 'width': 409, 'height': 410, 'widthPercent': 0.8, 'rescaleHeight': True, 'trialN': 45, 'loaded': True, 'loadedTime': 2536.099999964237, 'positionName': 'CENTER', 'positionCoords': [515.5, 245]}]",Rate how much you want to eat this food from 0 (least) to 10 (most).,78202.19999998808,1669832891808,cheerios,1620.300000011921,True,9.870000000000001,79822.5,1620.300000011921,True,HRV,HRV_0185,2022-11-30 18:28:37
46,"[{'imgObject': {}, 'id': 'tacos', 'src': '/static/foodstim60/tacos.jpg', 'key': 'NaN', 'origWidth': 411, 'origHeight': 411, 'width': 411, 'height': 411, 'widthPercent': 0.8, 'rescaleHeight': True, 'trialN': 46, 'loaded': True, 'loadedTime': 2536.300000011921, 'positionName': 'CENTER', 'positionCoords': [514.5, 244.5]}]",Rate how much you want to eat this food from 0 (least) to 10 (most).,79832.80000001192,1669832893438,tacos,1496.699999988079,True,9.870000000000001,81329.5,1496.699999988079,True,HRV,HRV_0185,2022-11-30 18:28:37
47,"[{'imgObject': {}, 'id': 'cherries', 'src': '/static/foodstim60/cherries.jpg', 'key': 'NaN', 'origWidth': 410, 'origHeight': 411, 'width': 410, 'height': 411, 'widthPercent': 0.8, 'rescaleHeight': True, 'trialN': 47, 'loaded': True, 'loadedTime': 2537.099999964237, 'positionName': 'CENTER', 'positionCoords': [515, 244.5]}]",Rate how much you want to eat this food from 0 (least) to 10 (most).,81346.30000001192,1669832894952,cherries,1782.7999999523163,True,9.81,83129.09999996424,1782.7999999523163,True,HRV,HRV_0185,2022-11-30 18:28:37
48,"[{'imgObject': {}, 'id': 'ice cream sundae 002', 'src': '/static/foodstim60/ice cream sundae 002.jpg', 'key': 'NaN', 'origWidth': 409, 'origHeight': 409, 'width': 409, 'height': 409, 'widthPercent': 0.8, 'rescaleHeight': True, 'trialN': 48, 'loaded': True, 'loadedTime': 2537.5, 'positionName': 'CENTER', 'positionCoords': [515.5, 245.5]}]",Rate how much you want to eat this food from 0 (least) to 10 (most).,83146.0,1669832896751,ice cream sundae 002,2391.099999964237,True,1.16,85537.09999996424,2391.099999964237,True,HRV,HRV_0185,2022-11-30 18:28:37
49,"[{'imgObject': {}, 'id': 'seaweed', 'src': '/static/foodstim60/seaweed.jpg', 'key': 'NaN', 'origWidth': 410, 'origHeight': 410, 'width': 410, 'height': 410, 'widthPercent': 0.8, 'rescaleHeight': True, 'trialN': 49, 'loaded': True, 'loadedTime': 2537.699999988079, 'positionName': 'CENTER', 'positionCoords': [515, 245]}]",Rate how much you want to eat this food from 0 (least) to 10 (most).,85560.5,1669832899166,seaweed,1785.800000011921,True,8.72,87346.30000001192,1785.800000011921,True,HRV,HRV_0185,2022-11-30 18:28:37
50,"[{'imgObject': {}, 'id': 'raspberries', 'src': '/static/foodstim60/raspberries.jpg', 'key': 'NaN', 'origWidth': 411, 'origHeight': 411, 'width': 411, 'height': 411, 'widthPercent': 0.8, 'rescaleHeight': True, 'trialN': 50, 'loaded': True, 'loadedTime': 2538.099999964237, 'positionName': 'CENTER', 'positionCoords': [514.5, 244.5]}]",Rate how much you want to eat this food from 0 (least) to 10 (most).,87372.69999998808,1669832900978,raspberries,1997.1000000238419,True,9.83,89369.80000001192,1997.1000000238419,True,HRV,HRV_0185,2022-11-30 18:28:37
51,"[{'imgObject': {}, 'id': 'sushi w_condiments', 'src': '/static/foodstim60/sushi w_condiments.jpg', 'key': 'NaN', 'origWidth': 410, 'origHeight': 410, 'width': 410, 'height': 410, 'widthPercent': 0.8, 'rescaleHeight': True, 'trialN': 51, 'loaded': True, 'loadedTime': 2538.300000011921, 'positionName': 'CENTER', 'positionCoords': [515, 245]}]",Rate how much you want to eat this food from 0 (least) to 10 (most).,89388.30000001192,1669832902994,sushi w_condiments,1471.7999999523163,True,9.91,90860.09999996424,1471.7999999523163,True,HRV,HRV_0185,2022-11-30 18:28:37
52,"[{'imgObject': {}, 'id': 'yogurt no spoon', 'src': '/static/foodstim60/yogurt no spoon.jpg', 'key': 'NaN', 'origWidth': 411, 'origHeight': 410, 'width': 411, 'height': 410, 'widthPercent': 0.8, 'rescaleHeight': True, 'trialN': 52, 'loaded': True, 'loadedTime': 2538.5, 'positionName': 'CENTER', 'positionCoords': [514.5, 245]}]",Rate how much you want to eat this food from 0 (least) to 10 (most).,90881.39999997616,1669832904487,yogurt no spoon,1341.300000011921,True,9.34,92222.69999998808,1341.300000011921,True,HRV,HRV_0185,2022-11-30 18:28:37
53,"[{'imgObject': {}, 'id': 'luckycharms', 'src': '/static/foodstim60/luckycharms.jpg', 'key': 'NaN', 'origWidth': 410, 'origHeight': 409, 'width': 410, 'height': 409, 'widthPercent': 0.8, 'rescaleHeight': True, 'trialN': 53, 'loaded': True, 'loadedTime': 2538.699999988079, 'positionName': 'CENTER', 'positionCoords': [515, 245.5]}]",Rate how much you want to eat this food from 0 (least) to 10 (most).,92247.0,1669832905852,luckycharms,1187.800000011921,True,9.790000000000001,93434.80000001192,1187.800000011921,True,HRV,HRV_0185,2022-11-30 18:28:37
54,"[{'imgObject': {}, 'id': 'veggieswithdip', 'src': '/static/foodstim60/veggieswithdip.jpg', 'key': 'NaN', 'origWidth': 409, 'origHeight': 409, 'width': 409, 'height': 409, 'widthPercent': 0.8, 'rescaleHeight': True, 'trialN': 54, 'loaded': True, 'loadedTime': 2541.099999964237, 'positionName': 'CENTER', 'positionCoords': [515.5, 245.5]}]",Rate how much you want to eat this food from 0 (least) to 10 (most).,93445.69999998808,1669832907051,veggieswithdip,1853.6000000238419,True,9.84,95299.30000001192,1853.6000000238419,True,HRV,HRV_0185,2022-11-30 18:28:37
55,"[{'imgObject': {}, 'id': 'salmon', 'src': '/static/foodstim60/salmon.jpg', 'key': 'NaN', 'origWidth': 410, 'origHeight': 409, 'width': 410, 'height': 409, 'widthPercent': 0.8, 'rescaleHeight': True, 'trialN': 55, 'loaded': True, 'loadedTime': 2541.800000011921, 'positionName': 'CENTER', 'positionCoords': [515, 245.5]}]",Rate how much you want to eat this food from 0 (least) to 10 (most).,95320.19999998808,1669832908926,salmon,1452.800000011921,True,9.870000000000001,96773.0,1452.800000011921,True,HRV,HRV_0185,2022-11-30 18:28:37
56,"[{'imgObject': {}, 'id': 'granola w milk', 'src': '/static/foodstim60/granola w milk.jpg', 'key': 'NaN', 'origWidth': 410, 'origHeight': 410, 'width': 410, 'height': 410, 'widthPercent': 0.8, 'rescaleHeight': True, 'trialN': 56, 'loaded': True, 'loadedTime': 2541.899999976158, 'positionName': 'CENTER', 'positionCoords': [515, 245]}]",Rate how much you want to eat this food from 0 (least) to 10 (most).,96785.59999996424,1669832910391,granola w milk,1717.0,True,9.88,98502.59999996424,1717.0,True,HRV,HRV_0185,2022-11-30 18:28:37
57,"[{'imgObject': {}, 'id': 'burrito', 'src': '/static/foodstim60/burrito.jpg', 'key': 'NaN', 'origWidth': 410, 'origHeight': 410, 'width': 410, 'height': 410, 'widthPercent': 0.8, 'rescaleHeight': True, 'trialN': 57, 'loaded': True, 'loadedTime': 2542.199999988079, 'positionName': 'CENTER', 'positionCoords': [515, 245]}]",Rate how much you want to eat this food from 0 (least) to 10 (most).,98523.59999996424,1669832912129,burrito,1157.300000011921,True,8.01,99680.89999997616,1157.300000011921,True,HRV,HRV_0185,2022-11-30 18:28:37
58,"[{'imgObject': {}, 'id': 'omelette', 'src': '/static/foodstim60/omelette.jpg', 'key': 'NaN', 'origWidth': 410, 'origHeight': 409, 'width': 410, 'height': 409, 'widthPercent': 0.8, 'rescaleHeight': True, 'trialN': 58, 'loaded': True, 'loadedTime': 2542.300000011921, 'positionName': 'CENTER', 'positionCoords': [515, 245.5]}]",Rate how much you want to eat this food from 0 (least) to 10 (most).,99694.0,1669832913299,omelette,1478.3999999761581,True,9.83,101172.39999997616,1478.3999999761581,True,HRV,HRV_0185,2022-11-30 18:28:37
59,"[{'imgObject': {}, 'id': 'eggsalad', 'src': '/static/foodstim60/eggsalad.jpg', 'key': 'NaN', 'origWidth': 410, 'origHeight': 409, 'width': 410, 'height': 409, 'widthPercent': 0.8, 'rescaleHeight': True, 'trialN': 59, 'loaded': True, 'loadedTime': 2542.399999976158, 'positionName': 'CENTER', 'positionCoords': [515, 245.5]}]",Rate how much you want to eat this food from 0 (least) to 10 (most).,101196.30000001192,1669832914802,eggsalad,1952.199999988079,True,9.02,103148.5,1952.199999988079,True,HRV,HRV_0185,2022-11-30 18:28:37
