success,trial_type,trial_index,time_elapsed,internal_node_id,Block,TrialNumber,TrialTime,trialTimeDiff,FPS_avg,FPS_med,FPS_mode,TrialDur,winResizeTime,rt,block,button_pressed,MotCoh,MotDir,ColCoh,Color,ChoiceKey,Choice,Accuracy,RT,nFrames,FPS,PPD,missTrial,missTrialMsg,onsetDelay,fullScreenExitTime,canvCenter,TrialType,Score,BlockTrial,stimulus,button_labels,exp,subjectId,date
True,fullscreen,0,2669,0.0-0.0,0.0,1.0,,,,,,,,,,,,,,,,,,,,,,,,,,,,,,,,HRV,HRV_0185,2022-11-30 18:44:15
,wl-check-fps,1,7660,0.0-1.0,0.0,2.0,"[3404.4, 3406.6, 3424.8, 3440.5, 3457.2, 3474.2, 3491, 3508.2, 3523.6, 3540.9, 3558.2, 3574.4, 3590.8, 3607.4, 3624.3, 3641.5, 3656.9, 3675, 3691.1, 3707.9, 3724.4, 3740.3, 3758.3, 3774.4, 3791.1, 3807.2, 3824.2, 3840.3, 3857.7, 3874, 3890.1, 3908.2, 3923.3, 3939.8, 3957.9, 3973.9, 3990.2, 4006.9, 4023.6, 4040.9, 4056.8, 4073.9, 4090.6, 4107.9, 4123.7, 4141.1, 4156.5, 4174.1, 4190.3, 4207.1, 4222.9, 4239.9, 4257.1, 4273.9, 4289.9, 4307.2, 4324.9, 4341.6, 4357.1, 4374.2, 4390.2, 4407.1, 4423.8, 4439.2, 4456.9, 4474.1, 4491.3, 4507.1, 4523.5, 4540.7, 4557.1, 4574, 4590.8, 4607.1, 4623.8, 4639.9, 4657.1, 4673.9, 4690.2, 4707.4, 4722.6, 4740.8, 4757.2, 4774, 4790.4, 4807.3, 4824.3, 4840.1, 4856.7, 4873.1, 4890, 4906.4, 4924.5, 4940.5, 4957.4, 4974.1, 4990.1, 5006.9, 5023.1, 5040.8, 5056.6, 5073, 5090.3, 5105.8, 5123.7, 5140.5, 5156.6, 5173.5, 5190.1, 5206.1, 5223.5, 5239.9, 5256.6, 5272.7, 5289.8, 5307.2, 5322.6, 5339.9, 5357.4, 5373.2, 5389.4, 5406.7, 5423.7, 5440.5, 5456.5, 5473.1, 5490.3, 5506.4, 5523.7, 5540.5, 5556, 5573.4, 5590.4, 5607.5, 5623.5, 5639.6, 5656, 5673.7, 5689.6, 5706.3, 5723.1, 5740.8, 5756.4, 5773.2, 5788.8, 5805.7, 5822.3, 5840.2, 5857.6, 5873, 5888.6, 5906.4, 5923.3, 5939.5, 5956.3, 5972.5, 5990.2, 6005.9, 6022.2, 6039.3, 6055.8, 6073.8, 6088.2, 6105.3, 6122.9, 6140, 6155.9, 6173, 6189.1, 6206.8, 6222.7, 6239.6, 6256.3, 6272.4, 6288.8, 6305.1, 6322.4, 6338.2, 6356.6, 6372.5, 6389.4, 6406.6, 6422.3, 6439.7, 6455.8, 6472, 6488.6, 6505.7, 6522.3, 6539.5, 6555.8, 6572.7, 6589.5, 6606.2, 6621.4, 6639.5, 6654.9, 6672.4, 6689.5, 6705.9, 6722.1, 6739.7, 6755.4, 6773.1, 6788.9, 6806, 6822.2, 6839.7, 6856.3, 6872.8, 6889.4, 6906.3, 6921.9, 6938.8, 6955.9, 6973.1, 6989, 7005.1, 7023, 7038.6, 7056.3, 7071.6, 7088.9, 7104.8, 7122.2, 7138.5, 7156.3, 7170.9, 7188, 7205.5, 7222.5, 7238.6, 7255.5, 7272.7, 7287.8, 7304.7, 7321.9, 7338.1, 7354.7, 7371.2, 7387.7, 7404.7, 7422.5, 7439, 7456.2, 7472, 7488.5, 7506.4, 7520.7, 7538.4, 7554.3, 7571.6, 7587.6, 7605.3, 7622, 7638.5, 7655.7, 7672.2, 7688.1, 7705.6, 7721, 7739.1, 7754.9, 7771.5, 7788.2, 7805.3, 7822, 7837.4, 7855, 7871.8, 7888.2, 7904.5, 7921.3, 7938.5, 7954.5, 7970.3, 7989, 8005, 8021.9, 8038.4, 8054.4, 8072.6, 8088.2, 8104.1, 8120.6, 8138.4, 8155, 8170.9, 8195, 8204.7, 8221.5, 8237.9, 8255.3, 8270.6, 8288.1, 8305.8, 8320.6, 8338.3, 8354.5, 8370.2]","[1.9, 2.2, 18.2, 15.7, 16.7, 17, 16.8, 17.2, 15.4, 17.3, 17.3, 16.2, 16.4, 16.6, 16.9, 17.2, 15.4, 18.1, 16.1, 16.8, 16.5, 15.9, 18, 16.1, 16.7, 16.1, 17, 16.1, 17.4, 16.3, 16.1, 18.1, 15.1, 16.5, 18.1, 16, 16.3, 16.7, 16.7, 17.3, 15.9, 17.1, 16.7, 17.3, 15.8, 17.4, 15.4, 17.6, 16.2, 16.8, 15.8, 17, 17.2, 16.8, 16, 17.3, 17.7, 16.7, 15.5, 17.1, 16, 16.9, 16.7, 15.4, 17.7, 17.2, 17.2, 15.8, 16.4, 17.2, 16.4, 16.9, 16.8, 16.3, 16.7, 16.1, 17.2, 16.8, 16.3, 17.2, 15.2, 18.2, 16.4, 16.8, 16.4, 16.9, 17, 15.8, 16.6, 16.4, 16.9, 16.4, 18.1, 16, 16.9, 16.7, 16, 16.8, 16.2, 17.7, 15.8, 16.4, 17.3, 15.5, 17.9, 16.8, 16.1, 16.9, 16.6, 16, 17.4, 16.4, 16.7, 16.1, 17.1, 17.4, 15.4, 17.3, 17.5, 15.8, 16.2, 17.3, 17, 16.8, 16, 16.6, 17.2, 16.1, 17.3, 16.8, 15.5, 17.4, 17, 17.1, 16, 16.1, 16.4, 17.7, 15.9, 16.7, 16.8, 17.7, 15.6, 16.8, 15.6, 16.9, 16.6, 17.9, 17.4, 15.4, 15.6, 17.8, 16.9, 16.2, 16.8, 16.2, 17.7, 15.7, 16.3, 17.1, 16.5, 18, 14.4, 17.1, 17.6, 17.1, 15.9, 17.1, 16.1, 17.7, 15.9, 16.9, 16.7, 16.1, 16.4, 16.3, 17.3, 15.8, 18.4, 15.9, 16.9, 17.2, 15.7, 17.4, 16.1, 16.2, 16.6, 17.1, 16.6, 17.2, 16.3, 16.9, 16.8, 16.7, 15.2, 18.1, 15.4, 17.5, 17.1, 16.4, 16.2, 17.6, 15.7, 17.7, 15.8, 17.1, 16.2, 17.5, 16.6, 16.5, 16.6, 16.9, 15.6, 16.9, 17.1, 17.2, 15.9, 16.1, 17.9, 15.6, 17.7, 15.3, 17.3, 15.9, 17.4, 16.3, 17.8, 14.6, 17.1, 17.5, 17, 16.1, 16.9, 17.2, 15.1, 16.9, 17.2, 16.2, 16.6, 16.5, 16.5, 17, 17.8, 16.5, 17.2, 15.8, 16.5, 17.9, 14.3, 17.7, 15.9, 17.3, 16, 17.7, 16.7, 16.5, 17.2, 16.5, 15.9, 17.5, 15.4, 18.1, 15.8, 16.6, 16.7, 17.1, 16.7, 15.4, 17.6, 16.8, 16.4, 16.3, 16.8, 17.2, 16, 15.8, 18.7, 16, 16.9, 16.5, 16, 18.2, 15.6, 15.9, 16.5, 17.8, 16.6, 15.9, 24.1, 9.7, 16.8, 16.4, 17.4, 15.3, 17.5, 17.7, 14.8, 17.7, 16.2, 15.7]",60.0,65.0,60.0,4985.6,[],,,,,,,,,,,,,,,,,,,,,,,,,HRV,HRV_0185,2022-11-30 18:44:15
,wl-html-keyboard-response,2,27621,0.0-2.0-0.0,0.0,3.0,,,,,,,,17950.69999998808,0.0,0,,,,,,,,,,,,,,,,,,,,,,HRV,HRV_0185,2022-11-30 18:44:15
,wl-rdm,3,36571,0.0-3.0-0.0,0.0,4.0,,,,,,,[],,,,0.0,0.0,87.9,0.0,u,0.0,True,1188.6000000238419,72.0,60.0,40.0,False,too_early ,3000.0,[],"[720, 450]",ColorTask_Demo,,,,,HRV,HRV_0185,2022-11-30 18:44:15
,wl-rdm,4,41252,0.0-3.0-1.0,0.0,5.0,,,,,,,[],,,,0.0,0.0,87.9,1.0,i,1.0,True,594.5000000596046,36.0,60.0,40.0,False,,2000.0,[],"[720, 450]",ColorTask_Demo,,,,,HRV,HRV_0185,2022-11-30 18:44:15
,wl-html-keyboard-response,5,46989,0.0-3.0-2.0,0.0,6.0,,,,,,,,3724.699999988079,0.0,1,,,,,,,,,,,,,,,,,,,,,,HRV,HRV_0185,2022-11-30 18:44:15
,wl-html-keyboard-response,6,60404,0.0-4.0-0.0,0.0,7.0,,,,,,,,11408.599999964237,0.0,0,,,,,,,,,,,,,,,,,,,,,,HRV,HRV_0185,2022-11-30 18:44:15
,wl-html-keyboard-response,7,79891,0.0-5.0-0.0,0.0,8.0,,,,,,,,17477.899999976158,0.0,0,,,,,,,,,,,,,,,,,,,,,,HRV,HRV_0185,2022-11-30 18:44:15
,wl-rdm,8,82091,0.0-6.0-0.0,0.0,9.0,,,,,,,[],,,,,,62.5,1.0,u,0.0,False,777.1000000238419,47.0,60.0,40.0,False,,354.92537847529934,[],"[720, 450]",ColorTask,-1.0,1.0,,,HRV,HRV_0185,2022-11-30 18:44:15
,wl-rdm,9,84639,0.0-6.1-0.1,0.0,10.0,,,,,,,[],,,,,,62.5,0.0,u,0.0,True,1193.1000000238419,72.0,60.0,40.0,False,,274.1601575525835,[],"[720, 450]",ColorTask,0.0,2.0,,,HRV,HRV_0185,2022-11-30 18:44:15
,wl-rdm,10,87069,0.0-6.2-0.2,0.0,11.0,,,,,,,[],,,,,,62.5,1.0,u,0.0,False,995.1000000238419,60.0,60.0,40.0,False,,361.2234878710799,[],"[720, 450]",ColorTask,-1.0,3.0,,,HRV,HRV_0185,2022-11-30 18:44:15
,wl-rdm,11,89186,0.0-6.3-0.3,0.0,12.0,,,,,,,[],,,,,,73.6,1.0,i,1.0,True,660.1999999880791,40.0,60.0,40.0,False,,381.601061384784,[],"[720, 450]",ColorTask,0.0,4.0,,,HRV,HRV_0185,2022-11-30 18:44:15
,wl-rdm,12,91301,0.0-6.4-0.4,0.0,13.0,,,,,,,[],,,,,,50.0,0.0,i,1.0,False,793.3999999165535,48.0,60.0,40.0,False,,235.4336442360614,[],"[720, 450]",ColorTask,-1.0,5.0,,,HRV,HRV_0185,2022-11-30 18:44:15
,wl-rdm,13,93266,0.0-6.5-0.5,0.0,14.0,,,,,,,[],,,,,,73.6,0.0,u,0.0,True,677.3000000119209,41.0,60.0,40.0,False,,215.59675186663299,[],"[720, 450]",ColorTask,0.0,6.0,,,HRV,HRV_0185,2022-11-30 18:44:15
,wl-rdm,14,95381,0.0-6.6-0.6,0.0,15.0,,,,,,,[],,,,,,87.9,0.0,u,0.0,True,770.6000000238419,47.0,60.0,40.0,False,,281.4202980152389,[],"[720, 450]",ColorTask,1.0,7.0,,,HRV,HRV_0185,2022-11-30 18:44:15
,wl-rdm,15,97880,0.0-6.7-0.7,0.0,16.0,,,,,,,[],,,,,,53.2,0.0,i,1.0,False,1226.2000000476837,74.0,60.0,40.0,False,,212.54548930698337,[],"[720, 450]",ColorTask,0.0,8.0,,,HRV,HRV_0185,2022-11-30 18:44:15
,wl-rdm,16,100361,0.0-6.8-0.8,0.0,17.0,,,,,,,[],,,,,,50.0,1.0,u,0.0,False,1127.800000011921,68.0,60.0,40.0,False,,297.1027490437699,[],"[720, 450]",ColorTask,-1.0,9.0,,,HRV,HRV_0185,2022-11-30 18:44:15
,wl-rdm,17,102675,0.0-6.9-0.9,0.0,18.0,,,,,,,[],,,,,,53.2,1.0,i,1.0,True,1005.3000000119209,61.0,60.0,40.0,False,,248.9092100576445,[],"[720, 450]",ColorTask,0.0,10.0,,,HRV,HRV_0185,2022-11-30 18:44:15
,wl-rdm,18,104642,0.0-6.10-0.10,0.0,19.0,,,,,,,[],,,,,,62.5,1.0,i,1.0,True,693.6000000238419,42.0,60.0,40.0,False,,204.4692106373065,[],"[720, 450]",ColorTask,1.0,11.0,,,HRV,HRV_0185,2022-11-30 18:44:15
,wl-rdm,19,106639,0.0-6.11-0.11,0.0,20.0,,,,,,,[],,,,,,87.9,1.0,i,1.0,True,672.7999999523163,41.0,60.0,40.0,False,,258.13101421439455,[],"[720, 450]",ColorTask,2.0,12.0,,,HRV,HRV_0185,2022-11-30 18:44:15
,wl-rdm,20,108871,0.0-6.12-0.12,0.0,21.0,,,,,,,[],,,,,,56.4,0.0,i,1.0,False,913.1999999880791,55.0,60.0,40.0,False,,243.19017467963909,[],"[720, 450]",ColorTask,1.0,13.0,,,HRV,HRV_0185,2022-11-30 18:44:15
,wl-rdm,21,111104,0.0-6.13-0.13,0.0,22.0,,,,,,,[],,,,,,56.4,0.0,i,1.0,False,961.7999999523163,58.0,60.0,40.0,False,,202.90782829897853,[],"[720, 450]",ColorTask,0.0,14.0,,,HRV,HRV_0185,2022-11-30 18:44:15
,wl-rdm,22,113252,0.0-6.14-0.14,0.0,23.0,,,,,,,[],,,,,,56.4,0.0,i,1.0,False,860.6999999880791,53.0,60.0,40.0,False,,224.14427981306605,[],"[720, 450]",ColorTask,-1.0,15.0,,,HRV,HRV_0185,2022-11-30 18:44:15
,wl-rdm,23,115301,0.0-6.15-0.15,0.0,24.0,,,,,,,[],,,,,,87.9,1.0,u,0.0,False,728.9999999403954,44.0,60.0,40.0,False,,237.94731555458534,[],"[720, 450]",ColorTask,-2.0,16.0,,,HRV,HRV_0185,2022-11-30 18:44:15
,wl-rdm,24,117532,0.0-6.16-0.16,0.0,25.0,,,,,,,[],,,,,,50.0,1.0,i,1.0,True,812.1000000238419,49.0,60.0,40.0,False,,363.48780183620204,[],"[720, 450]",ColorTask,-1.0,17.0,,,HRV,HRV_0185,2022-11-30 18:44:15
,wl-rdm,25,119748,0.0-6.17-0.17,0.0,26.0,,,,,,,[],,,,,,73.6,1.0,i,1.0,True,760.0,46.0,60.0,40.0,False,,397.4750427521926,[],"[720, 450]",ColorTask,0.0,18.0,,,HRV,HRV_0185,2022-11-30 18:44:15
,wl-rdm,26,122047,0.0-6.18-0.18,0.0,27.0,,,,,,,[],,,,,,56.4,0.0,i,1.0,False,853.8999999761581,52.0,60.0,40.0,False,,380.28943936362106,[],"[720, 450]",ColorTask,-1.0,19.0,,,HRV,HRV_0185,2022-11-30 18:44:15
,wl-rdm,27,124478,0.0-6.19-0.19,0.0,28.0,,,,,,,[],,,,,,62.5,1.0,i,1.0,True,961.4000000357628,58.0,60.0,40.0,False,,395.43492576982976,[],"[720, 450]",ColorTask,0.0,20.0,,,HRV,HRV_0185,2022-11-30 18:44:15
,wl-rdm,28,126676,0.0-6.20-0.20,0.0,29.0,,,,,,,[],,,,,,62.5,1.0,i,1.0,True,824.8999999761581,50.0,60.0,40.0,False,,283.4068480624488,[],"[720, 450]",ColorTask,1.0,21.0,,,HRV,HRV_0185,2022-11-30 18:44:15
,wl-rdm,29,129024,0.0-6.21-0.21,0.0,30.0,,,,,,,[],,,,,,73.6,1.0,i,1.0,True,901.3000000119209,55.0,60.0,40.0,False,,358.0104859710965,[],"[720, 450]",ColorTask,2.0,22.0,,,HRV,HRV_0185,2022-11-30 18:44:15
,wl-rdm,30,131124,0.0-6.22-0.22,0.0,31.0,,,,,,,[],,,,,,53.2,0.0,i,1.0,False,809.0000000596046,49.0,60.0,40.0,False,,217.27805609666433,[],"[720, 450]",ColorTask,1.0,23.0,,,HRV,HRV_0185,2022-11-30 18:44:15
,wl-rdm,31,133188,0.0-6.23-0.23,0.0,32.0,,,,,,,[],,,,,,73.6,1.0,i,1.0,True,674.4000000357628,41.0,60.0,40.0,False,,329.6421940700727,[],"[720, 450]",ColorTask,2.0,24.0,,,HRV,HRV_0185,2022-11-30 18:44:15
,wl-rdm,32,135470,0.0-6.24-0.24,0.0,33.0,,,,,,,[],,,,,,62.5,0.0,u,0.0,True,884.2999999523163,54.0,60.0,40.0,False,,311.5342383738118,[],"[720, 450]",ColorTask,3.0,25.0,,,HRV,HRV_0185,2022-11-30 18:44:15
,wl-rdm,33,137502,0.0-6.25-0.25,0.0,34.0,,,,,,,[],,,,,,50.0,1.0,i,1.0,True,706.6000000238419,43.0,60.0,40.0,False,,249.80697371268826,[],"[720, 450]",ColorTask,4.0,26.0,,,HRV,HRV_0185,2022-11-30 18:44:15
,wl-rdm,34,139784,0.0-6.26-0.26,0.0,35.0,,,,,,,[],,,,,,50.0,0.0,i,1.0,False,912.8999999761581,55.0,60.0,40.0,False,,299.67860448553273,[],"[720, 450]",ColorTask,3.0,27.0,,,HRV,HRV_0185,2022-11-30 18:44:15
,wl-rdm,35,142450,0.0-6.27-0.27,0.0,36.0,,,,,,,[],,,,,,50.0,0.0,u,0.0,True,1289.6000000238419,78.0,60.0,40.0,False,,286.3545538069938,[],"[720, 450]",ColorTask,4.0,28.0,,,HRV,HRV_0185,2022-11-30 18:44:15
,wl-rdm,36,145230,0.0-6.28-0.28,0.0,37.0,,,,,,,[],,,,,,62.5,1.0,i,1.0,True,1454.800000011921,88.0,60.0,40.0,False,,261.51234043509834,[],"[720, 450]",ColorTask,5.0,29.0,,,HRV,HRV_0185,2022-11-30 18:44:15
,wl-rdm,37,147312,0.0-6.29-0.29,0.0,38.0,,,,,,,[],,,,,,73.6,1.0,i,1.0,True,733.3000000119209,45.0,60.0,40.0,False,,252.1740895175639,[],"[720, 450]",ColorTask,6.0,30.0,,,HRV,HRV_0185,2022-11-30 18:44:15
,wl-rdm,38,149577,0.0-6.30-0.30,0.0,39.0,,,,,,,[],,,,,,53.2,0.0,i,1.0,False,955.3000000715256,58.0,60.0,40.0,False,,239.99036208621717,[],"[720, 450]",ColorTask,5.0,31.0,,,HRV,HRV_0185,2022-11-30 18:44:15
,wl-rdm,39,151811,0.0-6.31-0.31,0.0,40.0,,,,,,,[],,,,,,87.9,1.0,i,1.0,True,892.3999999761581,54.0,60.0,40.0,False,,262.60679205491255,[],"[720, 450]",ColorTask,6.0,32.0,,,HRV,HRV_0185,2022-11-30 18:44:15
,wl-rdm,40,154058,0.0-6.32-0.32,0.0,41.0,,,,,,,[],,,,,,53.2,1.0,i,1.0,True,957.1999999880791,58.0,60.0,40.0,False,,210.9655732958039,[],"[720, 450]",ColorTask,7.0,33.0,,,HRV,HRV_0185,2022-11-30 18:44:15
,wl-rdm,41,156157,0.0-6.33-0.33,0.0,42.0,,,,,,,[],,,,,,56.4,1.0,i,1.0,True,809.5,49.0,60.0,40.0,False,,215.45632244707517,[],"[720, 450]",ColorTask,8.0,34.0,,,HRV,HRV_0185,2022-11-30 18:44:15
,wl-rdm,42,158421,0.0-6.34-0.34,0.0,43.0,,,,,,,[],,,,,,53.2,0.0,i,1.0,False,829.2999999523163,50.0,60.0,40.0,False,,367.5444216028927,[],"[720, 450]",ColorTask,7.0,35.0,,,HRV,HRV_0185,2022-11-30 18:44:15
,wl-rdm,43,160619,0.0-6.35-0.35,0.0,44.0,,,,,,,[],,,,,,50.0,1.0,i,1.0,True,844.7000000476837,51.0,60.0,40.0,False,,272.9808294916027,[],"[720, 450]",ColorTask,8.0,36.0,,,HRV,HRV_0185,2022-11-30 18:44:15
,wl-rdm,44,162802,0.0-6.36-0.36,0.0,45.0,,,,,,,[],,,,,,62.5,1.0,i,1.0,True,804.1999999880791,49.0,60.0,40.0,False,,295.54943838140366,[],"[720, 450]",ColorTask,9.0,37.0,,,HRV,HRV_0185,2022-11-30 18:44:15
,wl-rdm,45,164850,0.0-6.37-0.37,0.0,46.0,,,,,,,[],,,,,,50.0,1.0,i,1.0,True,679.6999999880791,41.0,60.0,40.0,False,,296.79663830998845,[],"[720, 450]",ColorTask,10.0,38.0,,,HRV,HRV_0185,2022-11-30 18:44:15
,wl-rdm,46,166899,0.0-6.38-0.38,0.0,47.0,,,,,,,[],,,,,,53.2,0.0,i,1.0,False,624.5000000596046,38.0,60.0,40.0,False,,334.8963429103253,[],"[720, 450]",ColorTask,9.0,39.0,,,HRV,HRV_0185,2022-11-30 18:44:15
,wl-rdm,47,169180,0.0-6.39-0.39,0.0,48.0,,,,,,,[],,,,,,62.5,0.0,i,1.0,False,875.6999999880791,53.0,60.0,40.0,False,,324.165769204537,[],"[720, 450]",ColorTask,8.0,40.0,,,HRV,HRV_0185,2022-11-30 18:44:15
,wl-rdm,48,171130,0.0-6.40-0.40,0.0,49.0,,,,,,,[],,,,,,62.5,0.0,u,0.0,True,656.6000000238419,40.0,60.0,40.0,False,,219.3706151194153,[],"[720, 450]",ColorTask,9.0,41.0,,,HRV,HRV_0185,2022-11-30 18:44:15
,wl-rdm,49,173361,0.0-6.41-0.41,0.0,50.0,,,,,,,[],,,,,,50.0,0.0,u,0.0,True,780.7999999523163,48.0,60.0,40.0,False,,384.6817926753016,[],"[720, 450]",ColorTask,10.0,42.0,,,HRV,HRV_0185,2022-11-30 18:44:15
,wl-rdm,50,175959,0.0-6.42-0.42,0.0,51.0,,,,,,,[],,,,,,53.2,0.0,i,1.0,False,1247.2000000476837,75.0,60.0,40.0,False,,288.5685779025704,[],"[720, 450]",ColorTask,9.0,43.0,,,HRV,HRV_0185,2022-11-30 18:44:15
,wl-rdm,51,177991,0.0-6.43-0.43,0.0,52.0,,,,,,,[],,,,,,56.4,1.0,u,0.0,False,727.3000000119209,44.0,60.0,40.0,False,,228.03693069677183,[],"[720, 450]",ColorTask,8.0,44.0,,,HRV,HRV_0185,2022-11-30 18:44:15
,wl-rdm,52,180085,0.0-6.44-0.44,0.0,53.0,,,,,,,[],,,,,,73.6,1.0,i,1.0,True,728.6000000238419,44.0,60.0,40.0,False,,290.76007516186246,[],"[720, 450]",ColorTask,9.0,45.0,,,HRV,HRV_0185,2022-11-30 18:44:15
,wl-rdm,53,182106,0.0-6.45-0.45,0.0,54.0,,,,,,,[],,,,,,53.2,1.0,i,1.0,True,626.8000000119209,38.0,60.0,40.0,False,,323.8754580286359,[],"[720, 450]",ColorTask,10.0,46.0,,,HRV,HRV_0185,2022-11-30 18:44:15
,wl-rdm,54,184238,0.0-6.46-0.46,0.0,55.0,,,,,,,[],,,,,,87.9,1.0,i,1.0,True,823.5999999642372,50.0,60.0,40.0,False,,233.64033951169182,[],"[720, 450]",ColorTask,11.0,47.0,,,HRV,HRV_0185,2022-11-30 18:44:15
,wl-rdm,55,186219,0.0-6.47-0.47,0.0,56.0,,,,,,,[],,,,,,53.2,1.0,i,1.0,True,638.6000000238419,39.0,60.0,40.0,False,,261.0814762697979,[],"[720, 450]",ColorTask,12.0,48.0,,,HRV,HRV_0185,2022-11-30 18:44:15
,wl-rdm,56,188251,0.0-6.48-0.48,0.0,57.0,,,,,,,[],,,,,,87.9,1.0,i,1.0,True,643.1999999880791,39.0,60.0,40.0,False,,318.0541114432141,[],"[720, 450]",ColorTask,13.0,49.0,,,HRV,HRV_0185,2022-11-30 18:44:15
,wl-rdm,57,190533,0.0-6.49-0.49,0.0,58.0,,,,,,,[],,,,,,50.0,1.0,i,1.0,True,917.8000000119209,56.0,60.0,40.0,False,,297.32864804828637,[],"[720, 450]",ColorTask,14.0,50.0,,,HRV,HRV_0185,2022-11-30 18:44:15
,wl-rdm,58,192648,0.0-6.50-0.50,0.0,59.0,,,,,,,[],,,,,,87.9,0.0,u,0.0,True,840.1000000238419,50.0,60.0,40.0,False,,205.7335229348967,[],"[720, 450]",ColorTask,15.0,51.0,,,HRV,HRV_0185,2022-11-30 18:44:15
,wl-rdm,59,194830,0.0-6.51-0.51,0.0,60.0,,,,,,,[],,,,,,53.2,1.0,i,1.0,True,790.8000000715256,48.0,60.0,40.0,False,,312.8696027548639,[],"[720, 450]",ColorTask,16.0,52.0,,,HRV,HRV_0185,2022-11-30 18:44:15
,wl-rdm,60,197229,0.0-6.52-0.52,0.0,61.0,,,,,,,[],,,,,,62.5,0.0,i,1.0,False,1014.1999999880791,61.0,60.0,40.0,False,,314.84031797611897,[],"[720, 450]",ColorTask,15.0,53.0,,,HRV,HRV_0185,2022-11-30 18:44:15
,wl-rdm,61,200526,0.0-6.53-0.53,0.0,62.0,,,,,,,[],,,,,,73.6,0.0,u,0.0,True,1825.0999999642372,110.0,60.0,40.0,False,,399.2553990472047,[],"[720, 450]",ColorTask,16.0,54.0,,,HRV,HRV_0185,2022-11-30 18:44:15
,wl-rdm,62,203109,0.0-6.54-0.54,0.0,63.0,,,,,,,[],,,,,,56.4,0.0,u,0.0,True,1116.3999999761581,68.0,60.0,40.0,False,,376.9753491283791,[],"[720, 450]",ColorTask,17.0,55.0,,,HRV,HRV_0185,2022-11-30 18:44:15
,wl-rdm,63,205573,0.0-6.55-0.55,0.0,64.0,,,,,,,[],,,,,,50.0,1.0,u,0.0,False,1025.0999999642372,62.0,60.0,40.0,False,,366.1985983689191,[],"[720, 450]",ColorTask,16.0,56.0,,,HRV,HRV_0185,2022-11-30 18:44:15
,wl-rdm,64,207588,0.0-6.56-0.56,0.0,65.0,,,,,,,[],,,,,,87.9,1.0,i,1.0,True,679.5999999642372,41.0,60.0,40.0,False,,265.2052802967878,[],"[720, 450]",ColorTask,17.0,57.0,,,HRV,HRV_0185,2022-11-30 18:44:15
,wl-rdm,65,209437,0.0-6.57-0.57,0.0,66.0,,,,,,,[],,,,,,87.9,1.0,i,1.0,True,505.30000001192093,31.0,60.0,40.0,False,,257.5750768799207,[],"[720, 450]",ColorTask,18.0,58.0,,,HRV,HRV_0185,2022-11-30 18:44:15
,wl-rdm,66,211219,0.0-6.58-0.58,0.0,67.0,,,,,,,[],,,,,,56.4,0.0,i,1.0,False,506.0,31.0,60.0,40.0,False,,208.65191422748097,[],"[720, 450]",ColorTask,17.0,59.0,,,HRV,HRV_0185,2022-11-30 18:44:15
,wl-rdm,67,213485,0.0-6.59-0.59,0.0,68.0,,,,,,,[],,,,,,73.6,0.0,u,0.0,True,892.3999999165535,54.0,60.0,40.0,False,,282.9753111245345,[],"[720, 450]",ColorTask,18.0,60.0,,,HRV,HRV_0185,2022-11-30 18:44:15
,wl-rdm,68,215965,0.0-6.60-0.60,0.0,69.0,,,,,,,[],,,,,,53.2,0.0,u,0.0,True,1146.5,69.0,60.0,40.0,False,,260.2875696268526,[],"[720, 450]",ColorTask,19.0,61.0,,,HRV,HRV_0185,2022-11-30 18:44:15
,wl-rdm,69,218247,0.0-6.61-0.61,0.0,70.0,,,,,,,[],,,,,,73.6,1.0,i,1.0,True,904.0000000596046,55.0,60.0,40.0,False,,284.7347578809331,[],"[720, 450]",ColorTask,20.0,62.0,,,HRV,HRV_0185,2022-11-30 18:44:15
,wl-rdm,70,220262,0.0-6.62-0.62,0.0,71.0,,,,,,,[],,,,,,87.9,0.0,u,0.0,True,669.8000000119209,41.0,60.0,40.0,False,,255.22895336179485,[],"[720, 450]",ColorTask,21.0,63.0,,,HRV,HRV_0185,2022-11-30 18:44:15
,wl-rdm,71,222327,0.0-6.63-0.63,0.0,72.0,,,,,,,[],,,,,,73.6,0.0,u,0.0,True,792.8999999761581,48.0,60.0,40.0,False,,208.36333553978807,[],"[720, 450]",ColorTask,22.0,64.0,,,HRV,HRV_0185,2022-11-30 18:44:15
,wl-rdm,72,224043,0.0-6.64-0.64,0.0,73.0,,,,,,,[],,,,,,56.4,1.0,i,1.0,True,429.10000002384186,26.0,60.0,40.0,False,,221.6305266625743,[],"[720, 450]",ColorTask,23.0,65.0,,,HRV,HRV_0185,2022-11-30 18:44:15
,wl-rdm,73,226008,0.0-6.65-0.65,0.0,74.0,,,,,,,[],,,,,,73.6,0.0,u,0.0,True,571.1999999880791,35.0,60.0,40.0,False,,325.65241121435093,[],"[720, 450]",ColorTask,24.0,66.0,,,HRV,HRV_0185,2022-11-30 18:44:15
,wl-rdm,74,227957,0.0-6.66-0.66,0.0,75.0,,,,,,,[],,,,,,73.6,0.0,i,1.0,False,487.3000000715256,30.0,60.0,40.0,False,,382.0452389952193,[],"[720, 450]",ColorTask,23.0,67.0,,,HRV,HRV_0185,2022-11-30 18:44:15
,wl-rdm,75,230008,0.0-6.67-0.67,0.0,76.0,,,,,,,[],,,,,,62.5,0.0,i,1.0,False,731.5,44.0,60.0,40.0,False,,265.5434920288971,[],"[720, 450]",ColorTask,22.0,68.0,,,HRV,HRV_0185,2022-11-30 18:44:15
,wl-rdm,76,231988,0.0-6.68-0.68,0.0,77.0,,,,,,,[],,,,,,56.4,0.0,i,1.0,False,547.8999999761581,33.0,60.0,40.0,False,,374.68706438077294,[],"[720, 450]",ColorTask,21.0,69.0,,,HRV,HRV_0185,2022-11-30 18:44:15
,wl-rdm,77,234270,0.0-6.69-0.69,0.0,78.0,,,,,,,[],,,,,,73.6,0.0,u,0.0,True,841.9000000357628,51.0,60.0,40.0,False,,358.5585478612911,[],"[720, 450]",ColorTask,22.0,70.0,,,HRV,HRV_0185,2022-11-30 18:44:15
,wl-rdm,78,236502,0.0-6.70-0.70,0.0,79.0,,,,,,,[],,,,,,87.9,0.0,u,0.0,True,876.6000000238419,53.0,60.0,40.0,False,,271.8995821952991,[],"[720, 450]",ColorTask,23.0,71.0,,,HRV,HRV_0185,2022-11-30 18:44:15
,wl-rdm,79,238634,0.0-6.71-0.71,0.0,80.0,,,,,,,[],,,,,,53.2,0.0,u,0.0,True,818.1000000238419,50.0,60.0,40.0,False,,222.93737083921923,[],"[720, 450]",ColorTask,24.0,72.0,,,HRV,HRV_0185,2022-11-30 18:44:15
,wl-rdm,80,240716,0.0-6.72-0.72,0.0,81.0,,,,,,,[],,,,,,56.4,1.0,u,0.0,False,652.0999999642372,40.0,60.0,40.0,False,,336.49286043099914,[],"[720, 450]",ColorTask,23.0,73.0,,,HRV,HRV_0185,2022-11-30 18:44:15
,wl-rdm,81,242831,0.0-6.73-0.73,0.0,82.0,,,,,,,[],,,,,,73.6,0.0,u,0.0,True,725.3000000715256,44.0,60.0,40.0,False,,298.582364300722,[],"[720, 450]",ColorTask,24.0,74.0,,,HRV,HRV_0185,2022-11-30 18:44:15
,wl-rdm,82,244696,0.0-6.74-0.74,0.0,83.0,,,,,,,[],,,,,,87.9,1.0,i,1.0,True,585.6999999880791,36.0,60.0,40.0,False,,200.42797874609533,[],"[720, 450]",ColorTask,25.0,75.0,,,HRV,HRV_0185,2022-11-30 18:44:15
,wl-rdm,83,246694,0.0-6.75-0.75,0.0,84.0,,,,,,,[],,,,,,53.2,1.0,u,0.0,False,599.9000000357628,37.0,60.0,40.0,False,,309.2561643998457,[],"[720, 450]",ColorTask,24.0,76.0,,,HRV,HRV_0185,2022-11-30 18:44:15
,wl-rdm,84,248794,0.0-6.76-0.76,0.0,85.0,,,,,,,[],,,,,,62.5,0.0,i,1.0,False,680.8000000119209,41.0,60.0,40.0,False,,337.3284752449865,[],"[720, 450]",ColorTask,23.0,77.0,,,HRV,HRV_0185,2022-11-30 18:44:15
,wl-rdm,85,250926,0.0-6.77-0.77,0.0,86.0,,,,,,,[],,,,,,56.4,1.0,i,1.0,True,654.8999999761581,40.0,60.0,40.0,False,,398.401447745225,[],"[720, 450]",ColorTask,24.0,78.0,,,HRV,HRV_0185,2022-11-30 18:44:15
,wl-rdm,86,252957,0.0-6.78-0.78,0.0,87.0,,,,,,,[],,,,,,53.2,1.0,i,1.0,True,674.0999999642372,41.0,60.0,40.0,False,,271.0940554559663,[],"[720, 450]",ColorTask,25.0,79.0,,,HRV,HRV_0185,2022-11-30 18:44:15
,wl-rdm,87,255240,0.0-6.79-0.79,0.0,88.0,,,,,,,[],,,,,,87.9,0.0,u,0.0,True,946.0,58.0,60.0,40.0,False,,260.60673976892906,[],"[720, 450]",ColorTask,26.0,80.0,,,HRV,HRV_0185,2022-11-30 18:44:15
,wl-rdm,88,257472,0.0-6.80-0.80,0.0,89.0,,,,,,,[],,,,,,50.0,0.0,u,0.0,True,954.5,58.0,60.0,40.0,False,,216.92181392755015,[],"[720, 450]",ColorTask,27.0,81.0,,,HRV,HRV_0185,2022-11-30 18:44:15
,wl-rdm,89,259753,0.0-6.81-0.81,0.0,90.0,,,,,,,[],,,,,,62.5,0.0,u,0.0,True,926.0,56.0,60.0,40.0,False,,291.2133803109922,[],"[720, 450]",ColorTask,28.0,82.0,,,HRV,HRV_0185,2022-11-30 18:44:15
,wl-rdm,90,261868,0.0-6.82-0.82,0.0,91.0,,,,,,,[],,,,,,73.6,1.0,i,1.0,True,813.7000000476837,49.0,60.0,40.0,False,,245.69073485879215,[],"[720, 450]",ColorTask,29.0,83.0,,,HRV,HRV_0185,2022-11-30 18:44:15
,wl-rdm,91,263933,0.0-6.83-0.83,0.0,92.0,,,,,,,[],,,,,,87.9,0.0,u,0.0,True,634.6999999880791,39.0,60.0,40.0,False,,346.99348849196315,[],"[720, 450]",ColorTask,30.0,84.0,,,HRV,HRV_0185,2022-11-30 18:44:15
,wl-rdm,92,266197,0.0-6.84-0.84,0.0,93.0,,,,,,,[],,,,,,53.2,0.0,u,0.0,True,867.1000000238419,53.0,60.0,40.0,False,,307.45500762634964,[],"[720, 450]",ColorTask,31.0,85.0,,,HRV,HRV_0185,2022-11-30 18:44:15
,wl-rdm,93,268380,0.0-6.85-0.85,0.0,94.0,,,,,,,[],,,,,,50.0,0.0,u,0.0,True,886.8000000119209,54.0,60.0,40.0,False,,213.70911848629814,[],"[720, 450]",ColorTask,32.0,86.0,,,HRV,HRV_0185,2022-11-30 18:44:15
,wl-rdm,94,270478,0.0-6.86-0.86,0.0,95.0,,,,,,,[],,,,,,73.6,0.0,i,1.0,False,821.7000000476837,50.0,60.0,40.0,False,,207.9718503036999,[],"[720, 450]",ColorTask,31.0,87.0,,,HRV,HRV_0185,2022-11-30 18:44:15
,wl-rdm,95,272643,0.0-6.87-0.87,0.0,96.0,,,,,,,[],,,,,,62.5,0.0,u,0.0,True,838.8000000119209,51.0,60.0,40.0,False,,242.01427489588593,[],"[720, 450]",ColorTask,32.0,88.0,,,HRV,HRV_0185,2022-11-30 18:44:15
,wl-rdm,96,274809,0.0-6.88-0.88,0.0,97.0,,,,,,,[],,,,,,73.6,1.0,i,1.0,True,871.5000000596046,53.0,60.0,40.0,False,,222.23828595077862,[],"[720, 450]",ColorTask,33.0,89.0,,,HRV,HRV_0185,2022-11-30 18:44:15
,wl-rdm,97,276908,0.0-6.89-0.89,0.0,98.0,,,,,,,[],,,,,,50.0,0.0,i,1.0,False,738.5000000596046,45.0,60.0,40.0,False,,274.4095546124648,[],"[720, 450]",ColorTask,32.0,90.0,,,HRV,HRV_0185,2022-11-30 18:44:15
,wl-rdm,98,278823,0.0-6.90-0.90,0.0,99.0,,,,,,,[],,,,,,56.4,0.0,i,1.0,False,642.1999999880791,39.0,60.0,40.0,False,,211.80532492783126,[],"[720, 450]",ColorTask,31.0,91.0,,,HRV,HRV_0185,2022-11-30 18:44:15
,wl-rdm,99,281172,0.0-6.91-0.91,0.0,100.0,,,,,,,[],,,,,,56.4,1.0,i,1.0,True,1010.5,61.0,60.0,40.0,False,,250.55649277938267,[],"[720, 450]",ColorTask,32.0,92.0,,,HRV,HRV_0185,2022-11-30 18:44:15
,wl-rdm,100,283437,0.0-6.92-0.92,0.0,101.0,,,,,,,[],,,,,,50.0,1.0,u,0.0,False,974.8000000119209,59.0,60.0,40.0,False,,232.21539370413555,[],"[720, 450]",ColorTask,31.0,93.0,,,HRV,HRV_0185,2022-11-30 18:44:15
,wl-rdm,101,285685,0.0-6.93-0.93,0.0,102.0,,,,,,,[],,,,,,53.2,1.0,i,1.0,True,865.8000000715256,52.0,60.0,40.0,False,,305.6865716758069,[],"[720, 450]",ColorTask,32.0,94.0,,,HRV,HRV_0185,2022-11-30 18:44:15
,wl-rdm,102,287468,0.0-6.94-0.94,0.0,103.0,,,,,,,[],,,,,,56.4,1.0,i,1.0,True,510.10000002384186,31.0,60.0,40.0,False,,209.9787177384441,[],"[720, 450]",ColorTask,33.0,95.0,,,HRV,HRV_0185,2022-11-30 18:44:15
,wl-rdm,103,289433,0.0-6.95-0.95,0.0,104.0,,,,,,,[],,,,,,53.2,1.0,i,1.0,True,628.0,38.0,60.0,40.0,False,,271.41044917995225,[],"[720, 450]",ColorTask,34.0,96.0,,,HRV,HRV_0185,2022-11-30 18:44:15
,wl-rdm,104,291465,0.0-6.96-0.96,0.0,105.0,,,,,,,[],,,,,,62.5,1.0,i,1.0,True,605.1999999880791,37.0,60.0,40.0,False,,343.6711979006012,[],"[720, 450]",ColorTask,35.0,97.0,,,HRV,HRV_0185,2022-11-30 18:44:15
,wl-rdm,105,293429,0.0-6.97-0.97,0.0,106.0,,,,,,,[],,,,,,87.9,0.0,u,0.0,True,625.6999999880791,38.0,60.0,40.0,False,,281.065263118063,[],"[720, 450]",ColorTask,36.0,98.0,,,HRV,HRV_0185,2022-11-30 18:44:15
,wl-rdm,106,295478,0.0-6.98-0.98,0.0,107.0,,,,,,,[],,,,,,87.9,0.0,u,0.0,True,691.3000000119209,42.0,60.0,40.0,False,,271.35887062091456,[],"[720, 450]",ColorTask,37.0,99.0,,,HRV,HRV_0185,2022-11-30 18:44:15
,wl-rdm,107,297609,0.0-6.99-0.99,0.0,108.0,,,,,,,[],,,,,,62.5,1.0,i,1.0,True,842.3000000119209,50.0,60.0,40.0,False,,206.9274349315976,[],"[720, 450]",ColorTask,38.0,100.0,,,HRV,HRV_0185,2022-11-30 18:44:15
,wl-rdm,108,299576,0.0-6.100-0.100,0.0,109.0,,,,,,,[],,,,,,50.0,0.0,u,0.0,True,530.3999999761581,32.0,60.0,40.0,False,,366.7475924305751,[],"[720, 450]",ColorTask,39.0,101.0,,,HRV,HRV_0185,2022-11-30 18:44:15
,wl-rdm,109,301723,0.0-6.101-0.101,0.0,110.0,,,,,,,[],,,,,,87.9,1.0,i,1.0,True,803.6000000238419,49.0,60.0,40.0,False,,265.87797278276594,[],"[720, 450]",ColorTask,40.0,102.0,,,HRV,HRV_0185,2022-11-30 18:44:15
,wl-rdm,110,303740,0.0-6.102-0.102,0.0,111.0,,,,,,,[],,,,,,87.9,0.0,u,0.0,True,663.2999999523163,40.0,60.0,40.0,False,,294.4123508807556,[],"[720, 450]",ColorTask,41.0,103.0,,,HRV,HRV_0185,2022-11-30 18:44:15
,wl-rdm,111,305854,0.0-6.103-0.103,0.0,112.0,,,,,,,[],,,,,,50.0,1.0,i,1.0,True,767.3000000119209,44.0,60.0,40.0,False,,279.04251653399666,[],"[720, 450]",ColorTask,42.0,104.0,,,HRV,HRV_0185,2022-11-30 18:44:15
,wl-rdm,112,307886,0.0-6.104-0.104,0.0,113.0,,,,,,,[],,,,,,56.4,1.0,i,1.0,True,708.7000000476837,43.0,60.0,40.0,False,,260.60050333304434,[],"[720, 450]",ColorTask,43.0,105.0,,,HRV,HRV_0185,2022-11-30 18:44:15
,wl-rdm,113,309703,0.0-6.105-0.105,0.0,114.0,,,,,,,[],,,,,,50.0,0.0,i,1.0,False,483.60000002384186,29.0,60.0,40.0,False,,256.61620702255044,[],"[720, 450]",ColorTask,42.0,106.0,,,HRV,HRV_0185,2022-11-30 18:44:15
,wl-rdm,114,311517,0.0-6.106-0.106,0.0,115.0,,,,,,,[],,,,,,56.4,1.0,u,0.0,False,478.0,29.0,60.0,40.0,False,,280.83092980798466,[],"[720, 450]",ColorTask,41.0,107.0,,,HRV,HRV_0185,2022-11-30 18:44:15
,wl-rdm,115,313449,0.0-6.107-0.107,0.0,116.0,,,,,,,[],,,,,,56.4,0.0,i,1.0,False,486.5,30.0,60.0,40.0,False,,363.9276218232536,[],"[720, 450]",ColorTask,40.0,108.0,,,HRV,HRV_0185,2022-11-30 18:44:15
,wl-html-keyboard-response,116,328519,0.0-7.0-0.0,1.0,117.0,,,,,,,,13063.899999976158,1.0,0,,,,,,,,,,,,,,,,,,,,,,HRV,HRV_0185,2022-11-30 18:44:15
,wl-rdm,117,330704,0.0-8.0-0.0,1.0,118.0,,,,,,,[],,,,,,87.9,1.0,i,1.0,True,869.2000000476837,53.0,60.0,40.0,False,,244.8879756946501,[],"[720, 450]",ColorTask,41.0,1.0,,,HRV,HRV_0185,2022-11-30 18:44:15
,wl-rdm,118,332736,0.0-8.1-0.1,1.0,119.0,,,,,,,[],,,,,,87.9,0.0,u,0.0,True,592.5,36.0,60.0,40.0,False,,353.52860475416037,[],"[720, 450]",ColorTask,42.0,2.0,,,HRV,HRV_0185,2022-11-30 18:44:15
,wl-rdm,119,334951,0.0-8.2-0.2,1.0,120.0,,,,,,,[],,,,,,62.5,0.0,u,0.0,True,931.8000000119209,56.0,60.0,40.0,False,,207.1802687536408,[],"[720, 450]",ColorTask,43.0,3.0,,,HRV,HRV_0185,2022-11-30 18:44:15
,wl-rdm,120,337200,0.0-8.3-0.3,1.0,121.0,,,,,,,[],,,,,,87.9,0.0,u,0.0,True,825.3000000119209,50.0,60.0,40.0,False,,334.76095127233293,[],"[720, 450]",ColorTask,44.0,4.0,,,HRV,HRV_0185,2022-11-30 18:44:15
,wl-rdm,121,339215,0.0-8.4-0.4,1.0,122.0,,,,,,,[],,,,,,56.4,1.0,i,1.0,True,644.4000000357628,39.0,60.0,40.0,False,,288.2703093197668,[],"[720, 450]",ColorTask,45.0,5.0,,,HRV,HRV_0185,2022-11-30 18:44:15
,wl-rdm,122,341364,0.0-8.5-0.5,1.0,123.0,,,,,,,[],,,,,,56.4,0.0,i,1.0,False,720.8000000715256,44.0,60.0,40.0,False,,337.31920238599207,[],"[720, 450]",ColorTask,44.0,6.0,,,HRV,HRV_0185,2022-11-30 18:44:15
,wl-rdm,123,343528,0.0-8.6-0.6,1.0,124.0,,,,,,,[],,,,,,53.2,0.0,i,1.0,False,732.4999999403954,44.0,60.0,40.0,False,,361.9934026417338,[],"[720, 450]",ColorTask,43.0,7.0,,,HRV,HRV_0185,2022-11-30 18:44:15
,wl-rdm,124,345544,0.0-8.7-0.7,1.0,125.0,,,,,,,[],,,,,,87.9,1.0,u,0.0,False,537.1999999880791,33.0,60.0,40.0,False,,395.8909178272774,[],"[720, 450]",ColorTask,42.0,8.0,,,HRV,HRV_0185,2022-11-30 18:44:15
,wl-rdm,125,348027,0.0-8.8-0.8,1.0,126.0,,,,,,,[],,,,,,53.2,0.0,u,0.0,True,1024.6000000238419,62.0,60.0,40.0,False,,387.74403265939395,[],"[720, 450]",ColorTask,43.0,9.0,,,HRV,HRV_0185,2022-11-30 18:44:15
,wl-rdm,126,350674,0.0-8.9-0.9,1.0,127.0,,,,,,,[],,,,,,62.5,0.0,i,1.0,False,1269.699999988079,77.0,60.0,40.0,False,,288.04710193925484,[],"[720, 450]",ColorTask,42.0,10.0,,,HRV,HRV_0185,2022-11-30 18:44:15
,wl-rdm,127,352972,0.0-8.10-0.10,1.0,128.0,,,,,,,[],,,,,,62.5,1.0,i,1.0,True,841.6999999880791,51.0,60.0,40.0,False,,366.710048080704,[],"[720, 450]",ColorTask,43.0,11.0,,,HRV,HRV_0185,2022-11-30 18:44:15
,wl-rdm,128,355005,0.0-8.11-0.11,1.0,129.0,,,,,,,[],,,,,,50.0,0.0,i,1.0,False,743.5999999642372,45.0,60.0,40.0,False,,203.13577223295383,[],"[720, 450]",ColorTask,42.0,12.0,,,HRV,HRV_0185,2022-11-30 18:44:15
,wl-rdm,129,357220,0.0-8.12-0.12,1.0,130.0,,,,,,,[],,,,,,53.2,0.0,i,1.0,False,843.5999999642372,51.0,60.0,40.0,False,,287.1372185523293,[],"[720, 450]",ColorTask,41.0,13.0,,,HRV,HRV_0185,2022-11-30 18:44:15
,wl-rdm,130,359185,0.0-8.13-0.13,1.0,131.0,,,,,,,[],,,,,,73.6,0.0,u,0.0,True,664.5,40.0,60.0,40.0,False,,218.6178810939728,[],"[720, 450]",ColorTask,42.0,14.0,,,HRV,HRV_0185,2022-11-30 18:44:15
,wl-rdm,131,361334,0.0-8.14-0.14,1.0,132.0,,,,,,,[],,,,,,62.5,1.0,i,1.0,True,689.5999999642372,42.0,60.0,40.0,False,,370.8297582559302,[],"[720, 450]",ColorTask,43.0,15.0,,,HRV,HRV_0185,2022-11-30 18:44:15
,wl-rdm,132,363531,0.0-8.15-0.15,1.0,133.0,,,,,,,[],,,,,,87.9,0.0,u,0.0,True,872.5,53.0,60.0,40.0,False,,240.68040700167722,[],"[720, 450]",ColorTask,44.0,16.0,,,HRV,HRV_0185,2022-11-30 18:44:15
,wl-rdm,133,365780,0.0-8.16-0.16,1.0,134.0,,,,,,,[],,,,,,56.4,0.0,i,1.0,False,885.7000000476837,54.0,60.0,40.0,False,,278.34038557342797,[],"[720, 450]",ColorTask,43.0,17.0,,,HRV,HRV_0185,2022-11-30 18:44:15
,wl-rdm,134,367795,0.0-8.17-0.17,1.0,135.0,,,,,,,[],,,,,,73.6,0.0,u,0.0,True,722.8999999761581,44.0,60.0,40.0,False,,214.80041328139262,[],"[720, 450]",ColorTask,44.0,18.0,,,HRV,HRV_0185,2022-11-30 18:44:15
,wl-rdm,135,369844,0.0-8.18-0.18,1.0,136.0,,,,,,,[],,,,,,53.2,1.0,i,1.0,True,724.0,44.0,60.0,40.0,False,,246.7555297153468,[],"[720, 450]",ColorTask,45.0,19.0,,,HRV,HRV_0185,2022-11-30 18:44:15
,wl-rdm,136,372243,0.0-8.19-0.19,1.0,137.0,,,,,,,[],,,,,,56.4,0.0,u,0.0,True,988.3000000119209,60.0,60.0,40.0,False,,334.8995662252804,[],"[720, 450]",ColorTask,46.0,20.0,,,HRV,HRV_0185,2022-11-30 18:44:15
,wl-rdm,137,374359,0.0-8.20-0.20,1.0,138.0,,,,,,,[],,,,,,87.9,0.0,u,0.0,True,688.8000000119209,42.0,60.0,40.0,False,,342.50497576776866,[],"[720, 450]",ColorTask,47.0,21.0,,,HRV,HRV_0185,2022-11-30 18:44:15
,wl-rdm,138,376590,0.0-8.21-0.21,1.0,139.0,,,,,,,[],,,,,,50.0,0.0,i,1.0,False,909.6999999880791,55.0,60.0,40.0,False,,251.8607572406207,[],"[720, 450]",ColorTask,46.0,22.0,,,HRV,HRV_0185,2022-11-30 18:44:15
,wl-rdm,139,378921,0.0-8.22-0.22,1.0,140.0,,,,,,,[],,,,,,62.5,0.0,u,0.0,True,1005.9000000357628,61.0,60.0,40.0,False,,248.66324831720146,[],"[720, 450]",ColorTask,47.0,23.0,,,HRV,HRV_0185,2022-11-30 18:44:15
,wl-rdm,140,381038,0.0-8.23-0.23,1.0,141.0,,,,,,,[],,,,,,50.0,0.0,i,1.0,False,819.8000000715256,50.0,60.0,40.0,False,,201.91498225771937,[],"[720, 450]",ColorTask,46.0,24.0,,,HRV,HRV_0185,2022-11-30 18:44:15
,wl-rdm,141,383469,0.0-8.24-0.24,1.0,142.0,,,,,,,[],,,,,,73.6,0.0,u,0.0,True,1105.1000000238419,67.0,60.0,40.0,False,,240.0416683957858,[],"[720, 450]",ColorTask,47.0,25.0,,,HRV,HRV_0185,2022-11-30 18:44:15
,wl-rdm,142,385768,0.0-8.25-0.25,1.0,143.0,,,,,,,[],,,,,,56.4,1.0,i,1.0,True,994.5,60.0,60.0,40.0,False,,244.52485497630548,[],"[720, 450]",ColorTask,48.0,26.0,,,HRV,HRV_0185,2022-11-30 18:44:15
,wl-rdm,143,388515,0.0-8.26-0.26,1.0,144.0,,,,,,,[],,,,,,56.4,0.0,u,0.0,True,1283.1000000238419,78.0,60.0,40.0,False,,391.1475704307111,[],"[720, 450]",ColorTask,49.0,27.0,,,HRV,HRV_0185,2022-11-30 18:44:15
,wl-rdm,144,390863,0.0-8.27-0.27,1.0,145.0,,,,,,,[],,,,,,53.2,0.0,i,1.0,False,1046.7000000476837,63.0,60.0,40.0,False,,218.53114322283483,[],"[720, 450]",ColorTask,48.0,28.0,,,HRV,HRV_0185,2022-11-30 18:44:15
,wl-rdm,145,393161,0.0-8.28-0.28,1.0,146.0,,,,,,,[],,,,,,62.5,1.0,i,1.0,True,903.9999999403954,55.0,60.0,40.0,False,,324.0683500770864,[],"[720, 450]",ColorTask,49.0,29.0,,,HRV,HRV_0185,2022-11-30 18:44:15
,wl-rdm,146,395211,0.0-8.29-0.29,1.0,147.0,,,,,,,[],,,,,,87.9,1.0,i,1.0,True,773.1000000238419,47.0,60.0,40.0,False,,214.51026120444297,[],"[720, 450]",ColorTask,50.0,30.0,,,HRV,HRV_0185,2022-11-30 18:44:15
,wl-rdm,147,397209,0.0-8.30-0.30,1.0,148.0,,,,,,,[],,,,,,87.9,1.0,i,1.0,True,679.7000000476837,41.0,60.0,40.0,False,,253.06869140653,[],"[720, 450]",ColorTask,51.0,31.0,,,HRV,HRV_0185,2022-11-30 18:44:15
,wl-rdm,148,399491,0.0-8.31-0.31,1.0,149.0,,,,,,,[],,,,,,56.4,1.0,i,1.0,True,838.3000000119209,51.0,60.0,40.0,False,,358.56597292266133,[],"[720, 450]",ColorTask,52.0,32.0,,,HRV,HRV_0185,2022-11-30 18:44:15
,wl-rdm,149,401740,0.0-8.32-0.32,1.0,150.0,,,,,,,[],,,,,,53.2,1.0,i,1.0,True,944.0999999642372,57.0,60.0,40.0,False,,243.89360805562245,[],"[720, 450]",ColorTask,53.0,33.0,,,HRV,HRV_0185,2022-11-30 18:44:15
,wl-rdm,150,403906,0.0-8.33-0.33,1.0,151.0,,,,,,,[],,,,,,87.9,1.0,i,1.0,True,876.4000000357628,53.0,60.0,40.0,False,,201.56932335759137,[],"[720, 450]",ColorTask,54.0,34.0,,,HRV,HRV_0185,2022-11-30 18:44:15
,wl-rdm,151,406054,0.0-8.34-0.34,1.0,152.0,,,,,,,[],,,,,,87.9,0.0,u,0.0,True,798.5,48.0,60.0,40.0,False,,288.59650795520776,[],"[720, 450]",ColorTask,55.0,35.0,,,HRV,HRV_0185,2022-11-30 18:44:15
,wl-rdm,152,408335,0.0-8.35-0.35,1.0,153.0,,,,,,,[],,,,,,53.2,1.0,i,1.0,True,908.8000000119209,55.0,60.0,40.0,False,,288.73422888127925,[],"[720, 450]",ColorTask,56.0,36.0,,,HRV,HRV_0185,2022-11-30 18:44:15
,wl-rdm,153,410650,0.0-8.36-0.36,1.0,154.0,,,,,,,[],,,,,,53.2,0.0,i,1.0,False,981.0999999642372,59.0,60.0,40.0,False,,254.96804957866797,[],"[720, 450]",ColorTask,55.0,37.0,,,HRV,HRV_0185,2022-11-30 18:44:15
,wl-rdm,154,412782,0.0-8.37-0.37,1.0,155.0,,,,,,,[],,,,,,50.0,0.0,i,1.0,False,801.0000000596046,49.0,60.0,40.0,False,,252.27503037863846,[],"[720, 450]",ColorTask,54.0,38.0,,,HRV,HRV_0185,2022-11-30 18:44:15
,wl-rdm,155,414964,0.0-8.38-0.38,1.0,156.0,,,,,,,[],,,,,,87.9,0.0,u,0.0,True,842.5,51.0,60.0,40.0,False,,258.79754405960995,[],"[720, 450]",ColorTask,55.0,39.0,,,HRV,HRV_0185,2022-11-30 18:44:15
,wl-rdm,156,417327,0.0-8.39-0.39,1.0,157.0,,,,,,,[],,,,,,62.5,0.0,u,0.0,True,1021.7000000476837,62.0,60.0,40.0,False,,249.4203328754547,[],"[720, 450]",ColorTask,56.0,40.0,,,HRV,HRV_0185,2022-11-30 18:44:15
,wl-rdm,157,419477,0.0-8.40-0.40,1.0,158.0,,,,,,,[],,,,,,56.4,1.0,i,1.0,True,854.1000000238419,52.0,60.0,40.0,False,,217.9865344653145,[],"[720, 450]",ColorTask,57.0,41.0,,,HRV,HRV_0185,2022-11-30 18:44:15
,wl-rdm,158,421493,0.0-8.41-0.41,1.0,159.0,,,,,,,[],,,,,,73.6,1.0,i,1.0,True,646.9000000357628,39.0,60.0,40.0,False,,304.8473457811915,[],"[720, 450]",ColorTask,58.0,42.0,,,HRV,HRV_0185,2022-11-30 18:44:15
,wl-rdm,159,423608,0.0-8.42-0.42,1.0,160.0,,,,,,,[],,,,,,87.9,0.0,u,0.0,True,711.3000000119209,43.0,60.0,40.0,False,,320.0633623316064,[],"[720, 450]",ColorTask,59.0,43.0,,,HRV,HRV_0185,2022-11-30 18:44:15
,wl-rdm,160,425622,0.0-8.43-0.43,1.0,161.0,,,,,,,[],,,,,,73.6,1.0,i,1.0,True,647.8000000119209,39.0,60.0,40.0,False,,287.7108337539785,[],"[720, 450]",ColorTask,60.0,44.0,,,HRV,HRV_0185,2022-11-30 18:44:15
,wl-rdm,161,427722,0.0-8.44-0.44,1.0,162.0,,,,,,,[],,,,,,87.9,1.0,i,1.0,True,765.1999999284744,46.0,60.0,40.0,False,,282.5455814272602,[],"[720, 450]",ColorTask,61.0,45.0,,,HRV,HRV_0185,2022-11-30 18:44:15
,wl-rdm,162,429937,0.0-8.45-0.45,1.0,163.0,,,,,,,[],,,,,,53.2,0.0,i,1.0,False,822.9000000357628,50.0,60.0,40.0,False,,322.5009853470225,[],"[720, 450]",ColorTask,60.0,46.0,,,HRV,HRV_0185,2022-11-30 18:44:15
,wl-rdm,163,431969,0.0-8.46-0.46,1.0,164.0,,,,,,,[],,,,,,73.6,0.0,u,0.0,True,728.0999999642372,44.0,60.0,40.0,False,,220.56445513878256,[],"[720, 450]",ColorTask,61.0,47.0,,,HRV,HRV_0185,2022-11-30 18:44:15
,wl-rdm,164,434201,0.0-8.47-0.47,1.0,165.0,,,,,,,[],,,,,,62.5,0.0,u,0.0,True,793.0,48.0,60.0,40.0,False,,367.51302021139213,[],"[720, 450]",ColorTask,62.0,48.0,,,HRV,HRV_0185,2022-11-30 18:44:15
,wl-rdm,165,436383,0.0-8.48-0.48,1.0,166.0,,,,,,,[],,,,,,53.2,0.0,i,1.0,False,723.0,44.0,60.0,40.0,False,,371.3161814129901,[],"[720, 450]",ColorTask,61.0,49.0,,,HRV,HRV_0185,2022-11-30 18:44:15
,wl-rdm,166,438563,0.0-8.49-0.49,1.0,167.0,,,,,,,[],,,,,,87.9,0.0,u,0.0,True,711.1000000238419,43.0,60.0,40.0,False,,396.3709428496771,[],"[720, 450]",ColorTask,62.0,50.0,,,HRV,HRV_0185,2022-11-30 18:44:15
,wl-rdm,167,440846,0.0-8.50-0.50,1.0,168.0,,,,,,,[],,,,,,56.4,0.0,i,1.0,False,843.5999999642372,51.0,60.0,40.0,False,,360.02574952619625,[],"[720, 450]",ColorTask,61.0,51.0,,,HRV,HRV_0185,2022-11-30 18:44:15
,wl-rdm,168,443145,0.0-8.51-0.51,1.0,169.0,,,,,,,[],,,,,,62.5,0.0,u,0.0,True,838.6000000238419,51.0,60.0,40.0,False,,376.1919759787969,[],"[720, 450]",ColorTask,62.0,52.0,,,HRV,HRV_0185,2022-11-30 18:44:15
,wl-rdm,169,445192,0.0-8.52-0.52,1.0,170.0,,,,,,,[],,,,,,62.5,1.0,i,1.0,True,669.6000000238419,41.0,60.0,40.0,False,,286.1414220359792,[],"[720, 450]",ColorTask,63.0,53.0,,,HRV,HRV_0185,2022-11-30 18:44:15
,wl-rdm,170,447309,0.0-8.53-0.53,1.0,171.0,,,,,,,[],,,,,,87.9,0.0,u,0.0,True,717.5999999642372,44.0,60.0,40.0,False,,305.3452621143636,[],"[720, 450]",ColorTask,64.0,54.0,,,HRV,HRV_0185,2022-11-30 18:44:15
,wl-rdm,171,449456,0.0-8.54-0.54,1.0,172.0,,,,,,,[],,,,,,73.6,1.0,i,1.0,True,802.0,49.0,60.0,40.0,False,,250.12822797597744,[],"[720, 450]",ColorTask,65.0,55.0,,,HRV,HRV_0185,2022-11-30 18:44:15
,wl-rdm,172,451588,0.0-8.55-0.55,1.0,173.0,,,,,,,[],,,,,,56.4,0.0,i,1.0,False,842.8000000119209,51.0,60.0,40.0,False,,202.2578616479338,[],"[720, 450]",ColorTask,64.0,56.0,,,HRV,HRV_0185,2022-11-30 18:44:15
,wl-rdm,173,453586,0.0-8.56-0.56,1.0,174.0,,,,,,,[],,,,,,50.0,0.0,u,0.0,True,637.5999999642372,39.0,60.0,40.0,False,,270.9287635490049,[],"[720, 450]",ColorTask,65.0,57.0,,,HRV,HRV_0185,2022-11-30 18:44:15
,wl-rdm,174,456135,0.0-8.57-0.57,1.0,175.0,,,,,,,[],,,,,,50.0,1.0,i,1.0,True,1254.8999999165535,76.0,60.0,40.0,False,,200.56249279052295,[],"[720, 450]",ColorTask,66.0,58.0,,,HRV,HRV_0185,2022-11-30 18:44:15
,wl-rdm,175,458418,0.0-8.58-0.58,1.0,176.0,,,,,,,[],,,,,,53.2,1.0,u,0.0,False,936.9000000357628,57.0,60.0,40.0,False,,271.33859421377315,[],"[720, 450]",ColorTask,65.0,59.0,,,HRV,HRV_0185,2022-11-30 18:44:15
,wl-rdm,176,460649,0.0-8.59-0.59,1.0,177.0,,,,,,,[],,,,,,73.6,0.0,u,0.0,True,891.8000000119209,54.0,60.0,40.0,False,,276.7475728477541,[],"[720, 450]",ColorTask,66.0,60.0,,,HRV,HRV_0185,2022-11-30 18:44:15
,wl-rdm,177,462715,0.0-8.60-0.60,1.0,178.0,,,,,,,[],,,,,,53.2,1.0,i,1.0,True,623.5000000596046,38.0,60.0,40.0,False,,356.50562072813034,[],"[720, 450]",ColorTask,67.0,61.0,,,HRV,HRV_0185,2022-11-30 18:44:15
,wl-rdm,178,465330,0.0-8.61-0.61,1.0,179.0,,,,,,,[],,,,,,53.2,0.0,u,0.0,True,1155.6000000238419,70.0,60.0,40.0,False,,382.3109496172427,[],"[720, 450]",ColorTask,68.0,62.0,,,HRV,HRV_0185,2022-11-30 18:44:15
,wl-rdm,179,467260,0.0-8.62-0.62,1.0,180.0,,,,,,,[],,,,,,50.0,1.0,i,1.0,True,575.5,35.0,60.0,40.0,False,,292.90876364734106,[],"[720, 450]",ColorTask,69.0,63.0,,,HRV,HRV_0185,2022-11-30 18:44:15
,wl-rdm,180,469443,0.0-8.63-0.63,1.0,181.0,,,,,,,[],,,,,,56.4,0.0,u,0.0,True,762.9000000357628,46.0,60.0,40.0,False,,362.7907921019429,[],"[720, 450]",ColorTask,70.0,64.0,,,HRV,HRV_0185,2022-11-30 18:44:15
,wl-rdm,181,471642,0.0-8.64-0.64,1.0,182.0,,,,,,,[],,,,,,56.4,1.0,i,1.0,True,781.6999999880791,47.0,60.0,40.0,False,,351.0931545509943,[],"[720, 450]",ColorTask,71.0,65.0,,,HRV,HRV_0185,2022-11-30 18:44:15
,wl-rdm,182,473957,0.0-8.65-0.65,1.0,183.0,,,,,,,[],,,,,,56.4,1.0,u,0.0,False,1020.1000000238419,62.0,60.0,40.0,False,,213.96692147132373,[],"[720, 450]",ColorTask,70.0,66.0,,,HRV,HRV_0185,2022-11-30 18:44:15
,wl-rdm,183,476055,0.0-8.66-0.66,1.0,184.0,,,,,,,[],,,,,,62.5,1.0,i,1.0,True,649.8999999761581,40.0,60.0,40.0,False,,372.18205235540904,[],"[720, 450]",ColorTask,71.0,67.0,,,HRV,HRV_0185,2022-11-30 18:44:15
,wl-rdm,184,478253,0.0-8.67-0.67,1.0,185.0,,,,,,,[],,,,,,73.6,0.0,u,0.0,True,819.3000000119209,50.0,60.0,40.0,False,,287.74219848235435,[],"[720, 450]",ColorTask,72.0,68.0,,,HRV,HRV_0185,2022-11-30 18:44:15
,wl-rdm,185,480370,0.0-8.68-0.68,1.0,186.0,,,,,,,[],,,,,,56.4,0.0,u,0.0,True,794.7999999523163,48.0,60.0,40.0,False,,257.66637097137846,[],"[720, 450]",ColorTask,73.0,69.0,,,HRV,HRV_0185,2022-11-30 18:44:15
,wl-rdm,186,482534,0.0-8.69-0.69,1.0,187.0,,,,,,,[],,,,,,62.5,1.0,i,1.0,True,847.7999999523163,51.0,60.0,40.0,False,,247.5381999825582,[],"[720, 450]",ColorTask,74.0,70.0,,,HRV,HRV_0185,2022-11-30 18:44:15
,wl-rdm,187,484650,0.0-8.70-0.70,1.0,188.0,,,,,,,[],,,,,,53.2,0.0,i,1.0,False,777.5,47.0,60.0,40.0,False,,264.9724553595752,[],"[720, 450]",ColorTask,73.0,71.0,,,HRV,HRV_0185,2022-11-30 18:44:15
,wl-rdm,188,486732,0.0-8.71-0.71,1.0,189.0,,,,,,,[],,,,,,73.6,0.0,u,0.0,True,808.8000000119209,49.0,60.0,40.0,False,,211.45610487916497,[],"[720, 450]",ColorTask,74.0,72.0,,,HRV,HRV_0185,2022-11-30 18:44:15
,wl-rdm,189,488713,0.0-8.72-0.72,1.0,190.0,,,,,,,[],,,,,,87.9,1.0,i,1.0,True,710.6999999880791,43.0,60.0,40.0,False,,202.46105822956682,[],"[720, 450]",ColorTask,75.0,73.0,,,HRV,HRV_0185,2022-11-30 18:44:15
,wl-rdm,190,491012,0.0-8.73-0.73,1.0,191.0,,,,,,,[],,,,,,56.4,1.0,i,1.0,True,882.8999999761581,54.0,60.0,40.0,False,,337.47874952046146,[],"[720, 450]",ColorTask,76.0,74.0,,,HRV,HRV_0185,2022-11-30 18:44:15
,wl-rdm,191,493260,0.0-8.74-0.74,1.0,192.0,,,,,,,[],,,,,,62.5,1.0,i,1.0,True,834.9999999403954,51.0,60.0,40.0,False,,327.6316554707451,[],"[720, 450]",ColorTask,77.0,75.0,,,HRV,HRV_0185,2022-11-30 18:44:15
,wl-rdm,192,495826,0.0-8.75-0.75,1.0,193.0,,,,,,,[],,,,,,56.4,1.0,i,1.0,True,1164.4999999403954,70.0,60.0,40.0,False,,328.24725839349617,[],"[720, 450]",ColorTask,78.0,76.0,,,HRV,HRV_0185,2022-11-30 18:44:15
,wl-rdm,193,497941,0.0-8.76-0.76,1.0,194.0,,,,,,,[],,,,,,73.6,1.0,i,1.0,True,765.2999999523163,46.0,60.0,40.0,False,,281.7317098331736,[],"[720, 450]",ColorTask,79.0,77.0,,,HRV,HRV_0185,2022-11-30 18:44:15
,wl-rdm,194,500272,0.0-8.77-0.77,1.0,195.0,,,,,,,[],,,,,,62.5,0.0,u,0.0,True,958.0,58.0,60.0,40.0,False,,297.1953971023996,[],"[720, 450]",ColorTask,80.0,78.0,,,HRV,HRV_0185,2022-11-30 18:44:15
,wl-rdm,195,502603,0.0-8.78-0.78,1.0,196.0,,,,,,,[],,,,,,56.4,0.0,u,0.0,True,943.0,57.0,60.0,40.0,False,,326.7050929442193,[],"[720, 450]",ColorTask,81.0,79.0,,,HRV,HRV_0185,2022-11-30 18:44:15
,wl-rdm,196,504785,0.0-8.79-0.79,1.0,197.0,,,,,,,[],,,,,,50.0,1.0,u,0.0,False,810.8999999761581,49.0,60.0,40.0,False,,313.54133946272214,[],"[720, 450]",ColorTask,80.0,80.0,,,HRV,HRV_0185,2022-11-30 18:44:15
,wl-rdm,197,507085,0.0-8.80-0.80,1.0,198.0,,,,,,,[],,,,,,50.0,1.0,u,0.0,False,1011.5,61.0,60.0,40.0,False,,229.2420206307046,[],"[720, 450]",ColorTask,79.0,81.0,,,HRV,HRV_0185,2022-11-30 18:44:15
,wl-rdm,198,509266,0.0-8.81-0.81,1.0,199.0,,,,,,,[],,,,,,50.0,0.0,i,1.0,False,840.8000000119209,51.0,60.0,40.0,False,,278.47345825715274,[],"[720, 450]",ColorTask,78.0,82.0,,,HRV,HRV_0185,2022-11-30 18:44:15
,wl-rdm,199,511398,0.0-8.82-0.82,1.0,200.0,,,,,,,[],,,,,,53.2,1.0,u,0.0,False,838.1999999880791,51.0,60.0,40.0,False,,232.7419426855165,[],"[720, 450]",ColorTask,77.0,83.0,,,HRV,HRV_0185,2022-11-30 18:44:15
,wl-rdm,200,514045,0.0-8.83-0.83,1.0,201.0,,,,,,,[],,,,,,50.0,1.0,i,1.0,True,1292.3999999761581,78.0,60.0,40.0,False,,273.8018911915839,[],"[720, 450]",ColorTask,78.0,84.0,,,HRV,HRV_0185,2022-11-30 18:44:15
,wl-rdm,201,516378,0.0-8.84-0.84,1.0,202.0,,,,,,,[],,,,,,73.6,0.0,u,0.0,True,936.1000000238419,57.0,60.0,40.0,False,,302.38899535107254,[],"[720, 450]",ColorTask,79.0,85.0,,,HRV,HRV_0185,2022-11-30 18:44:15
,wl-rdm,202,518358,0.0-8.85-0.85,1.0,203.0,,,,,,,[],,,,,,62.5,1.0,i,1.0,True,672.4000000953674,41.0,60.0,40.0,False,,227.11765376310038,[],"[720, 450]",ColorTask,80.0,86.0,,,HRV,HRV_0185,2022-11-30 18:44:15
,wl-rdm,203,520460,0.0-8.86-0.86,1.0,204.0,,,,,,,[],,,,,,73.6,1.0,i,1.0,True,807.3999999761581,49.0,60.0,40.0,False,,218.72590528928112,[],"[720, 450]",ColorTask,81.0,87.0,,,HRV,HRV_0185,2022-11-30 18:44:15
,wl-rdm,204,522891,0.0-8.87-0.87,1.0,205.0,,,,,,,[],,,,,,50.0,0.0,i,1.0,False,999.1999999880791,60.0,60.0,40.0,False,,372.075214427575,[],"[720, 450]",ColorTask,80.0,88.0,,,HRV,HRV_0185,2022-11-30 18:44:15
,wl-rdm,205,524873,0.0-8.88-0.88,1.0,206.0,,,,,,,[],,,,,,73.6,1.0,i,1.0,True,680.5999999642372,41.0,60.0,40.0,False,,229.1297360262811,[],"[720, 450]",ColorTask,81.0,89.0,,,HRV,HRV_0185,2022-11-30 18:44:15
,wl-rdm,206,526887,0.0-8.89-0.89,1.0,207.0,,,,,,,[],,,,,,87.9,1.0,i,1.0,True,711.0000000596046,43.0,60.0,40.0,False,,227.90650239591807,[],"[720, 450]",ColorTask,82.0,90.0,,,HRV,HRV_0185,2022-11-30 18:44:15
,wl-rdm,207,529335,0.0-8.90-0.90,1.0,208.0,,,,,,,[],,,,,,62.5,0.0,u,0.0,True,987.6999999880791,60.0,60.0,40.0,False,,376.13782746513243,[],"[720, 450]",ColorTask,83.0,91.0,,,HRV,HRV_0185,2022-11-30 18:44:15
,wl-rdm,208,531767,0.0-8.91-0.91,1.0,209.0,,,,,,,[],,,,,,56.4,1.0,u,0.0,False,1125.5999999642372,68.0,60.0,40.0,False,,242.08963500877155,[],"[720, 450]",ColorTask,82.0,92.0,,,HRV,HRV_0185,2022-11-30 18:44:15
,wl-rdm,209,533849,0.0-8.92-0.92,1.0,210.0,,,,,,,[],,,,,,50.0,1.0,i,1.0,True,788.0000000596046,48.0,60.0,40.0,False,,201.58544291117715,[],"[720, 450]",ColorTask,83.0,93.0,,,HRV,HRV_0185,2022-11-30 18:44:15
,wl-rdm,210,535915,0.0-8.93-0.93,1.0,211.0,,,,,,,[],,,,,,53.2,1.0,i,1.0,True,774.8999999761581,47.0,60.0,40.0,False,,207.98305302010417,[],"[720, 450]",ColorTask,84.0,94.0,,,HRV,HRV_0185,2022-11-30 18:44:15
,wl-rdm,211,537947,0.0-8.94-0.94,1.0,212.0,,,,,,,[],,,,,,87.9,1.0,i,1.0,True,654.9999999403954,40.0,60.0,40.0,False,,305.61493414682496,[],"[720, 450]",ColorTask,85.0,95.0,,,HRV,HRV_0185,2022-11-30 18:44:15
,wl-rdm,212,539894,0.0-8.95-0.95,1.0,213.0,,,,,,,[],,,,,,73.6,1.0,i,1.0,True,605.6000000238419,37.0,60.0,40.0,False,,278.26388677001876,[],"[720, 450]",ColorTask,86.0,96.0,,,HRV,HRV_0185,2022-11-30 18:44:15
,wl-rdm,213,541962,0.0-8.96-0.96,1.0,214.0,,,,,,,[],,,,,,73.6,0.0,u,0.0,True,742.1000000238419,45.0,60.0,40.0,False,,246.8687158571773,[],"[720, 450]",ColorTask,87.0,97.0,,,HRV,HRV_0185,2022-11-30 18:44:15
,wl-rdm,214,544258,0.0-8.97-0.97,1.0,215.0,,,,,,,[],,,,,,50.0,0.0,u,0.0,True,887.1999999880791,54.0,60.0,40.0,False,,340.7973278198941,[],"[720, 450]",ColorTask,88.0,98.0,,,HRV,HRV_0185,2022-11-30 18:44:15
,wl-rdm,215,546475,0.0-8.98-0.98,1.0,216.0,,,,,,,[],,,,,,62.5,1.0,u,0.0,False,859.7000000476837,52.0,60.0,40.0,False,,296.64468158793494,[],"[720, 450]",ColorTask,87.0,99.0,,,HRV,HRV_0185,2022-11-30 18:44:15
,wl-rdm,216,548572,0.0-8.99-0.99,1.0,217.0,,,,,,,[],,,,,,53.2,1.0,i,1.0,True,624.8999999761581,38.0,60.0,40.0,False,,398.25352305374554,[],"[720, 450]",ColorTask,88.0,100.0,,,HRV,HRV_0185,2022-11-30 18:44:15
,wl-rdm,217,550788,0.0-8.100-0.100,1.0,218.0,,,,,,,[],,,,,,53.2,1.0,i,1.0,True,768.3999999761581,47.0,60.0,40.0,False,,351.97873736844457,[],"[720, 450]",ColorTask,89.0,101.0,,,HRV,HRV_0185,2022-11-30 18:44:15
,wl-rdm,218,553103,0.0-8.101-0.101,1.0,219.0,,,,,,,[],,,,,,50.0,1.0,u,0.0,False,893.4999999403954,54.0,60.0,40.0,False,,353.986484521339,[],"[720, 450]",ColorTask,88.0,102.0,,,HRV,HRV_0185,2022-11-30 18:44:15
,wl-rdm,219,555484,0.0-8.102-0.102,1.0,220.0,,,,,,,[],,,,,,50.0,1.0,u,0.0,False,1002.1999999880791,61.0,60.0,40.0,False,,294.5542042467444,[],"[720, 450]",ColorTask,87.0,103.0,,,HRV,HRV_0185,2022-11-30 18:44:15
,wl-rdm,220,557434,0.0-8.103-0.103,1.0,221.0,,,,,,,[],,,,,,73.6,1.0,i,1.0,True,602.9000000357628,37.0,60.0,40.0,False,,265.9017001643467,[],"[720, 450]",ColorTask,88.0,104.0,,,HRV,HRV_0185,2022-11-30 18:44:15
,wl-rdm,221,559465,0.0-8.104-0.104,1.0,222.0,,,,,,,[],,,,,,73.6,1.0,i,1.0,True,703.8999999761581,43.0,60.0,40.0,False,,234.09517714765613,[],"[720, 450]",ColorTask,89.0,105.0,,,HRV,HRV_0185,2022-11-30 18:44:15
,wl-rdm,222,561715,0.0-8.105-0.105,1.0,223.0,,,,,,,[],,,,,,50.0,1.0,i,1.0,True,946.1999999880791,57.0,60.0,40.0,False,,227.80566102832304,[],"[720, 450]",ColorTask,90.0,106.0,,,HRV,HRV_0185,2022-11-30 18:44:15
,wl-rdm,223,563880,0.0-8.106-0.106,1.0,224.0,,,,,,,[],,,,,,62.5,0.0,u,0.0,True,854.2000000476837,52.0,60.0,40.0,False,,242.10211220320474,[],"[720, 450]",ColorTask,91.0,107.0,,,HRV,HRV_0185,2022-11-30 18:44:15
,wl-rdm,224,566277,0.0-8.107-0.107,1.0,225.0,,,,,,,[],,,,,,50.0,0.0,i,1.0,False,1055.6000000238419,63.0,60.0,40.0,False,,258.27256211776495,[],"[720, 450]",ColorTask,90.0,108.0,,,HRV,HRV_0185,2022-11-30 18:44:15
,wl-html-button-response,225,568564,0.0-9.0-0.0,,,,,,,,,,2280.900000035763,,0,,,,,,,,,,,,,,,,,,,,<h3>End of this session. Thank you!</h3><br>,['Close window'],HRV,HRV_0185,2022-11-30 18:44:15
