trialN,stimuli,trialStartTime,trialStartTime_UNIX,stimulus1,stimulus2,stimulus1Bid,stimulus2Bid,delta,selected,rt,rt_UNIX,rt_perfnow,receivedResponse,rsp,trialEndTime,trialDuration,trialEndTime_UNIX,trialDuration_UNIX,exp,subjectId,date
0,"[{'imgObject': {}, 'id': 'burger', 'src': '/static/foodstim60/burger.jpg', 'key': 'u', 'origWidth': 409, 'origHeight': 409, 'width': 409, 'height': 409, 'widthPercent': 0.45, 'rescaleHeight': False, 'trialN': 0, 'loaded': True, 'loadedTime': 2671.400000035763, 'positionName': 'LEFT', 'positionCoords': [282.2, 245.5], 'bid': 9.9}, {'imgObject': {}, 'id': 'froot loops w milk', 'src': '/static/foodstim60/froot loops w milk.jpg', 'key': 'i', 'origWidth': 410, 'origHeight': 410, 'width': 410, 'height': 410, 'widthPercent': 0.45, 'rescaleHeight': False, 'trialN': 0, 'loaded': True, 'loadedTime': 2677.400000035763, 'positionName': 'RIGHT', 'positionCoords': [748.8, 245], 'bid': 9.84}]",3040.600000023842,1669832975548,burger,froot loops w milk,9.9,9.84,-0.0600000000000005,burger,876.1999999880791,886,885.8999999761581,True,u,4432.600000023842,1392.0,1669832976940,1392,HRV,HRV_0185,2022-11-30 18:34:39
1,"[{'imgObject': {}, 'id': 'rigatoni', 'src': '/static/foodstim60/rigatoni.jpg', 'key': 'u', 'origWidth': 411, 'origHeight': 411, 'width': 411, 'height': 411, 'widthPercent': 0.45, 'rescaleHeight': False, 'trialN': 1, 'loaded': True, 'loadedTime': 2680.600000023842, 'positionName': 'LEFT', 'positionCoords': [280.2, 244.5], 'bid': 5.87}, {'imgObject': {}, 'id': 'edamame', 'src': '/static/foodstim60/edamame.jpg', 'key': 'i', 'origWidth': 409, 'origHeight': 410, 'width': 409, 'height': 410, 'widthPercent': 0.45, 'rescaleHeight': False, 'trialN': 1, 'loaded': True, 'loadedTime': 2687.699999988079, 'positionName': 'RIGHT', 'positionCoords': [748.8, 245], 'bid': 6.2}]",4432.900000035763,1669832976940,rigatoni,edamame,5.87,6.2,0.33000000000000007,rigatoni,1301.0999999642372,1310,1310.199999988079,True,u,6243.5,1810.5999999642372,1669832978751,1811,HRV,HRV_0185,2022-11-30 18:34:39
2,"[{'imgObject': {}, 'id': 'burrito', 'src': '/static/foodstim60/burrito.jpg', 'key': 'u', 'origWidth': 410, 'origHeight': 410, 'width': 410, 'height': 410, 'widthPercent': 0.45, 'rescaleHeight': False, 'trialN': 2, 'loaded': True, 'loadedTime': 2700.600000023842, 'positionName': 'LEFT', 'positionCoords': [281.2, 245], 'bid': 8.01}, {'imgObject': {}, 'id': 'eggsalad', 'src': '/static/foodstim60/eggsalad.jpg', 'key': 'i', 'origWidth': 410, 'origHeight': 409, 'width': 410, 'height': 409, 'widthPercent': 0.45, 'rescaleHeight': False, 'trialN': 2, 'loaded': True, 'loadedTime': 2703.900000035763, 'positionName': 'RIGHT', 'positionCoords': [748.8, 245.5], 'bid': 9.02}]",6243.800000011921,1669832978751,burrito,eggsalad,8.01,9.02,1.0099999999999998,burrito,980.1999999880791,989,988.8999999761581,True,u,7737.900000035763,1494.1000000238419,1669832980245,1494,HRV,HRV_0185,2022-11-30 18:34:39
3,"[{'imgObject': {}, 'id': 'cocktailshrimp', 'src': '/static/foodstim60/cocktailshrimp.jpg', 'key': 'u', 'origWidth': 410, 'origHeight': 410, 'width': 410, 'height': 410, 'widthPercent': 0.45, 'rescaleHeight': False, 'trialN': 3, 'loaded': True, 'loadedTime': 2733.199999988079, 'positionName': 'LEFT', 'positionCoords': [281.2, 245], 'bid': 9.83}, {'imgObject': {}, 'id': 'corn cob', 'src': '/static/foodstim60/corn cob.jpg', 'key': 'i', 'origWidth': 411, 'origHeight': 411, 'width': 411, 'height': 411, 'widthPercent': 0.45, 'rescaleHeight': False, 'trialN': 3, 'loaded': True, 'loadedTime': 2735.5, 'positionName': 'RIGHT', 'positionCoords': [748.8, 244.5], 'bid': 9.88}]",7738.199999988079,1669832980245,cocktailshrimp,corn cob,9.83,9.88,0.05000000000000071,cocktailshrimp,775.3000000119209,785,784.3000000119209,True,u,9025.199999988079,1287.0,1669832981532,1287,HRV,HRV_0185,2022-11-30 18:34:39
4,"[{'imgObject': {}, 'id': 'bagel plain', 'src': '/static/foodstim60/bagel plain.jpg', 'key': 'u', 'origWidth': 410, 'origHeight': 410, 'width': 410, 'height': 410, 'widthPercent': 0.45, 'rescaleHeight': False, 'trialN': 4, 'loaded': True, 'loadedTime': 2753.800000011921, 'positionName': 'LEFT', 'positionCoords': [281.2, 245], 'bid': 7.9}, {'imgObject': {}, 'id': 'cherries', 'src': '/static/foodstim60/cherries.jpg', 'key': 'i', 'origWidth': 410, 'origHeight': 411, 'width': 410, 'height': 411, 'widthPercent': 0.45, 'rescaleHeight': False, 'trialN': 4, 'loaded': True, 'loadedTime': 2739.100000023842, 'positionName': 'RIGHT', 'positionCoords': [748.8, 244.5], 'bid': 9.81}]",9025.5,1669832981533,bagel plain,cherries,7.9,9.81,1.9100000000000001,cherries,645.0,651,651.6000000238419,True,i,10177.800000011921,1152.300000011921,1669832982685,1152,HRV,HRV_0185,2022-11-30 18:34:39
5,"[{'imgObject': {}, 'id': 'kiwi', 'src': '/static/foodstim60/kiwi.jpg', 'key': 'u', 'origWidth': 410, 'origHeight': 410, 'width': 410, 'height': 410, 'widthPercent': 0.45, 'rescaleHeight': False, 'trialN': 5, 'loaded': True, 'loadedTime': 2747.199999988079, 'positionName': 'LEFT', 'positionCoords': [281.2, 245], 'bid': 9.87}, {'imgObject': {}, 'id': 'mac & cheese', 'src': '/static/foodstim60/mac & cheese.jpg', 'key': 'i', 'origWidth': 410, 'origHeight': 410, 'width': 410, 'height': 410, 'widthPercent': 0.45, 'rescaleHeight': False, 'trialN': 5, 'loaded': True, 'loadedTime': 2741.600000023842, 'positionName': 'RIGHT', 'positionCoords': [748.8, 245], 'bid': 6.79}]",10178.0,1669832982685,kiwi,mac & cheese,9.87,6.79,-3.079999999999999,kiwi,765.0,775,774.8000000119209,True,u,11457.5,1279.5,1669832983964,1279,HRV,HRV_0185,2022-11-30 18:34:39
6,"[{'imgObject': {}, 'id': 'kiwi', 'src': '/static/foodstim60/kiwi.jpg', 'key': 'u', 'origWidth': 410, 'origHeight': 410, 'width': 410, 'height': 410, 'widthPercent': 0.45, 'rescaleHeight': False, 'trialN': 6, 'loaded': True, 'loadedTime': 2741.800000011921, 'positionName': 'LEFT', 'positionCoords': [281.2, 245], 'bid': 9.87}, {'imgObject': {}, 'id': 'eggs', 'src': '/static/foodstim60/eggs.jpg', 'key': 'i', 'origWidth': 409, 'origHeight': 409, 'width': 409, 'height': 409, 'widthPercent': 0.45, 'rescaleHeight': False, 'trialN': 6, 'loaded': True, 'loadedTime': 2774.800000011921, 'positionName': 'RIGHT', 'positionCoords': [748.8, 245.5], 'bid': 9.84}]",11457.900000035763,1669832983965,kiwi,eggs,9.87,9.84,-0.02999999999999936,eggs,827.5,835,835.5999999642372,True,i,12801.100000023842,1343.199999988079,1669832985308,1343,HRV,HRV_0185,2022-11-30 18:34:39
7,"[{'imgObject': {}, 'id': 'rigatoni', 'src': '/static/foodstim60/rigatoni.jpg', 'key': 'u', 'origWidth': 411, 'origHeight': 411, 'width': 411, 'height': 411, 'widthPercent': 0.45, 'rescaleHeight': False, 'trialN': 7, 'loaded': True, 'loadedTime': 2684, 'positionName': 'LEFT', 'positionCoords': [280.2, 244.5], 'bid': 5.87}, {'imgObject': {}, 'id': 'omelette', 'src': '/static/foodstim60/omelette.jpg', 'key': 'i', 'origWidth': 410, 'origHeight': 409, 'width': 410, 'height': 409, 'widthPercent': 0.45, 'rescaleHeight': False, 'trialN': 7, 'loaded': True, 'loadedTime': 2776.900000035763, 'positionName': 'RIGHT', 'positionCoords': [748.8, 245.5], 'bid': 9.83}]",12801.300000011921,1669832985308,rigatoni,omelette,5.87,9.83,3.96,omelette,1036.5,1045,1044.800000011921,True,i,14353.300000011921,1552.0,1669832986860,1552,HRV,HRV_0185,2022-11-30 18:34:39
8,"[{'imgObject': {}, 'id': 'shreddedwheatwithmilk', 'src': '/static/foodstim60/shreddedwheatwithmilk.jpg', 'key': 'u', 'origWidth': 410, 'origHeight': 410, 'width': 410, 'height': 410, 'widthPercent': 0.45, 'rescaleHeight': False, 'trialN': 8, 'loaded': True, 'loadedTime': 2785.199999988079, 'positionName': 'LEFT', 'positionCoords': [281.2, 245], 'bid': 9.91}, {'imgObject': {}, 'id': 'sweetpotato', 'src': '/static/foodstim60/sweetpotato.jpg', 'key': 'i', 'origWidth': 410, 'origHeight': 410, 'width': 410, 'height': 410, 'widthPercent': 0.45, 'rescaleHeight': False, 'trialN': 8, 'loaded': True, 'loadedTime': 2796, 'positionName': 'RIGHT', 'positionCoords': [748.8, 245], 'bid': 9.87}]",14353.699999988079,1669832986861,shreddedwheatwithmilk,sweetpotato,9.91,9.87,-0.040000000000000924,shreddedwheatwithmilk,1288.7000000476837,1298,1298.6000000238419,True,u,16163.300000011921,1809.6000000238419,1669832988670,1809,HRV,HRV_0185,2022-11-30 18:34:39
9,"[{'imgObject': {}, 'id': 'luckycharms', 'src': '/static/foodstim60/luckycharms.jpg', 'key': 'u', 'origWidth': 410, 'origHeight': 409, 'width': 410, 'height': 409, 'widthPercent': 0.45, 'rescaleHeight': False, 'trialN': 9, 'loaded': True, 'loadedTime': 2804.400000035763, 'positionName': 'LEFT', 'positionCoords': [281.2, 245.5], 'bid': 9.79}, {'imgObject': {}, 'id': 'ice cream sundae 002', 'src': '/static/foodstim60/ice cream sundae 002.jpg', 'key': 'i', 'origWidth': 409, 'origHeight': 409, 'width': 409, 'height': 409, 'widthPercent': 0.45, 'rescaleHeight': False, 'trialN': 9, 'loaded': True, 'loadedTime': 2801.199999988079, 'positionName': 'RIGHT', 'positionCoords': [748.8, 245.5], 'bid': 1.16}]",16163.600000023842,1669832988671,luckycharms,ice cream sundae 002,9.79,1.16,-8.629999999999999,luckycharms,1043.3999999761581,1052,1052.8999999761581,True,u,17721.5,1557.8999999761581,1669832990228,1557,HRV,HRV_0185,2022-11-30 18:34:39
10,"[{'imgObject': {}, 'id': 'pear', 'src': '/static/foodstim60/pear.jpg', 'key': 'u', 'origWidth': 411, 'origHeight': 410, 'width': 411, 'height': 410, 'widthPercent': 0.45, 'rescaleHeight': False, 'trialN': 10, 'loaded': True, 'loadedTime': 2882.300000011921, 'positionName': 'LEFT', 'positionCoords': [280.2, 245], 'bid': 9.69}, {'imgObject': {}, 'id': 'cocktailshrimp', 'src': '/static/foodstim60/cocktailshrimp.jpg', 'key': 'i', 'origWidth': 410, 'origHeight': 410, 'width': 410, 'height': 410, 'widthPercent': 0.45, 'rescaleHeight': False, 'trialN': 10, 'loaded': True, 'loadedTime': 2727.699999988079, 'positionName': 'RIGHT', 'positionCoords': [748.8, 245], 'bid': 9.83}]",17722.0,1669832990229,pear,cocktailshrimp,9.69,9.83,0.14000000000000057,cocktailshrimp,798.0,808,807.8000000119209,True,i,19033.80000001192,1311.800000011921,1669832991541,1312,HRV,HRV_0185,2022-11-30 18:34:39
11,"[{'imgObject': {}, 'id': 'mango', 'src': '/static/foodstim60/mango.jpg', 'key': 'u', 'origWidth': 411, 'origHeight': 411, 'width': 411, 'height': 411, 'widthPercent': 0.45, 'rescaleHeight': False, 'trialN': 11, 'loaded': True, 'loadedTime': 2803.300000011921, 'positionName': 'LEFT', 'positionCoords': [280.2, 244.5], 'bid': 9.63}, {'imgObject': {}, 'id': 'omelette', 'src': '/static/foodstim60/omelette.jpg', 'key': 'i', 'origWidth': 410, 'origHeight': 409, 'width': 410, 'height': 409, 'widthPercent': 0.45, 'rescaleHeight': False, 'trialN': 11, 'loaded': True, 'loadedTime': 2777.100000023842, 'positionName': 'RIGHT', 'positionCoords': [748.8, 245.5], 'bid': 9.83}]",19034.100000023842,1669832991541,mango,omelette,9.63,9.83,0.1999999999999993,omelette,1247.8999999761581,1257,1256.8999999761581,True,i,20792.900000035763,1758.800000011921,1669832993300,1759,HRV,HRV_0185,2022-11-30 18:34:39
12,"[{'imgObject': {}, 'id': 'rigatoni', 'src': '/static/foodstim60/rigatoni.jpg', 'key': 'u', 'origWidth': 411, 'origHeight': 411, 'width': 411, 'height': 411, 'widthPercent': 0.45, 'rescaleHeight': False, 'trialN': 12, 'loaded': True, 'loadedTime': 2686.800000011921, 'positionName': 'LEFT', 'positionCoords': [280.2, 244.5], 'bid': 5.87}, {'imgObject': {}, 'id': 'seaweed', 'src': '/static/foodstim60/seaweed.jpg', 'key': 'i', 'origWidth': 410, 'origHeight': 410, 'width': 410, 'height': 410, 'widthPercent': 0.45, 'rescaleHeight': False, 'trialN': 12, 'loaded': True, 'loadedTime': 2942.800000011921, 'positionName': 'RIGHT', 'positionCoords': [748.8, 245], 'bid': 8.72}]",20793.400000035763,1669832993300,rigatoni,seaweed,5.87,8.72,2.8500000000000005,seaweed,1589.2999999523163,1599,1599.0999999642372,True,i,22897.19999998808,2103.7999999523163,1669832995404,2104,HRV,HRV_0185,2022-11-30 18:34:39
13,"[{'imgObject': {}, 'id': 'orange slices', 'src': '/static/foodstim60/orange slices.jpg', 'key': 'u', 'origWidth': 409, 'origHeight': 410, 'width': 409, 'height': 410, 'widthPercent': 0.45, 'rescaleHeight': False, 'trialN': 13, 'loaded': True, 'loadedTime': 2944.5, 'positionName': 'LEFT', 'positionCoords': [282.2, 245], 'bid': 9.88}, {'imgObject': {}, 'id': 'banana', 'src': '/static/foodstim60/banana.jpg', 'key': 'i', 'origWidth': 410, 'origHeight': 410, 'width': 410, 'height': 410, 'widthPercent': 0.45, 'rescaleHeight': False, 'trialN': 13, 'loaded': True, 'loadedTime': 2945.699999988079, 'positionName': 'RIGHT', 'positionCoords': [748.8, 245], 'bid': 9.86}]",22897.5,1669832995404,orange slices,banana,9.88,9.86,-0.02000000000000135,orange slices,932.3000000119209,941,941.1000000238419,True,u,24345.900000035763,1448.4000000357628,1669832996853,1449,HRV,HRV_0185,2022-11-30 18:34:39
14,"[{'imgObject': {}, 'id': 'sushi w_condiments', 'src': '/static/foodstim60/sushi w_condiments.jpg', 'key': 'u', 'origWidth': 410, 'origHeight': 410, 'width': 410, 'height': 410, 'widthPercent': 0.45, 'rescaleHeight': False, 'trialN': 14, 'loaded': True, 'loadedTime': 2946.900000035763, 'positionName': 'LEFT', 'positionCoords': [281.2, 245], 'bid': 9.91}, {'imgObject': {}, 'id': 'Grapes', 'src': '/static/foodstim60/Grapes.jpg', 'key': 'i', 'origWidth': 411, 'origHeight': 411, 'width': 411, 'height': 411, 'widthPercent': 0.45, 'rescaleHeight': False, 'trialN': 14, 'loaded': True, 'loadedTime': 2949.199999988079, 'positionName': 'RIGHT', 'positionCoords': [748.8, 244.5], 'bid': 9.9}]",24346.19999998808,1669832996853,sushi w_condiments,Grapes,9.91,9.9,-0.009999999999999787,sushi w_condiments,1288.0,1299,1299.300000011921,True,u,26146.0,1799.800000011921,1669832998653,1800,HRV,HRV_0185,2022-11-30 18:34:39
15,"[{'imgObject': {}, 'id': 'apple slices', 'src': '/static/foodstim60/apple slices.jpg', 'key': 'u', 'origWidth': 409, 'origHeight': 410, 'width': 409, 'height': 410, 'widthPercent': 0.45, 'rescaleHeight': False, 'trialN': 15, 'loaded': True, 'loadedTime': 2949.199999988079, 'positionName': 'LEFT', 'positionCoords': [282.2, 245], 'bid': 9.87}, {'imgObject': {}, 'id': 'cantaloupe', 'src': '/static/foodstim60/cantaloupe.jpg', 'key': 'i', 'origWidth': 409, 'origHeight': 409, 'width': 409, 'height': 409, 'widthPercent': 0.45, 'rescaleHeight': False, 'trialN': 15, 'loaded': True, 'loadedTime': 2951.199999988079, 'positionName': 'RIGHT', 'positionCoords': [748.8, 245.5], 'bid': 9.87}]",26146.400000035763,1669832998653,apple slices,cantaloupe,9.87,9.87,0.0,cantaloupe,1564.2999999523163,1573,1572.8999999761581,True,i,28225.69999998808,2079.2999999523163,1669833000732,2079,HRV,HRV_0185,2022-11-30 18:34:39
16,"[{'imgObject': {}, 'id': 'eggs', 'src': '/static/foodstim60/eggs.jpg', 'key': 'u', 'origWidth': 409, 'origHeight': 409, 'width': 409, 'height': 409, 'widthPercent': 0.45, 'rescaleHeight': False, 'trialN': 16, 'loaded': True, 'loadedTime': 2775.400000035763, 'positionName': 'LEFT', 'positionCoords': [282.2, 245.5], 'bid': 9.84}, {'imgObject': {}, 'id': 'yogurt no spoon', 'src': '/static/foodstim60/yogurt no spoon.jpg', 'key': 'i', 'origWidth': 411, 'origHeight': 410, 'width': 411, 'height': 410, 'widthPercent': 0.45, 'rescaleHeight': False, 'trialN': 16, 'loaded': True, 'loadedTime': 2952.699999988079, 'positionName': 'RIGHT', 'positionCoords': [748.8, 245], 'bid': 9.34}]",28226.0,1669833000733,eggs,yogurt no spoon,9.84,9.34,-0.5,eggs,1164.199999988079,1173,1172.800000011921,True,u,29904.400000035763,1678.4000000357628,1669833002411,1678,HRV,HRV_0185,2022-11-30 18:34:39
17,"[{'imgObject': {}, 'id': 'lox', 'src': '/static/foodstim60/lox.jpg', 'key': 'u', 'origWidth': 410, 'origHeight': 411, 'width': 410, 'height': 411, 'widthPercent': 0.45, 'rescaleHeight': False, 'trialN': 17, 'loaded': True, 'loadedTime': 2953.900000035763, 'positionName': 'LEFT', 'positionCoords': [281.2, 244.5], 'bid': 2.95}, {'imgObject': {}, 'id': 'steak', 'src': '/static/foodstim60/steak.jpg', 'key': 'i', 'origWidth': 410, 'origHeight': 410, 'width': 410, 'height': 410, 'widthPercent': 0.45, 'rescaleHeight': False, 'trialN': 17, 'loaded': True, 'loadedTime': 2955.400000035763, 'positionName': 'RIGHT', 'positionCoords': [748.8, 245], 'bid': 5.45}]",29904.80000001192,1669833002411,lox,steak,2.95,5.45,2.5,steak,833.8000000119209,842,841.5,True,i,31250.0,1345.199999988079,1669833003757,1346,HRV,HRV_0185,2022-11-30 18:34:39
18,"[{'imgObject': {}, 'id': 'cocktailshrimp', 'src': '/static/foodstim60/cocktailshrimp.jpg', 'key': 'u', 'origWidth': 410, 'origHeight': 410, 'width': 410, 'height': 410, 'widthPercent': 0.45, 'rescaleHeight': False, 'trialN': 18, 'loaded': True, 'loadedTime': 2727.800000011921, 'positionName': 'LEFT', 'positionCoords': [281.2, 245], 'bid': 9.83}, {'imgObject': {}, 'id': 'olives', 'src': '/static/foodstim60/olives.jpg', 'key': 'i', 'origWidth': 410, 'origHeight': 410, 'width': 410, 'height': 410, 'widthPercent': 0.45, 'rescaleHeight': False, 'trialN': 18, 'loaded': True, 'loadedTime': 2956, 'positionName': 'RIGHT', 'positionCoords': [748.8, 245], 'bid': 5.9}]",31250.400000035763,1669833003757,cocktailshrimp,olives,9.83,5.9,-3.9299999999999997,cocktailshrimp,745.2999999523163,754,753.6999999880791,True,u,32505.80000001192,1255.3999999761581,1669833005012,1255,HRV,HRV_0185,2022-11-30 18:34:39
19,"[{'imgObject': {}, 'id': 'orange slices', 'src': '/static/foodstim60/orange slices.jpg', 'key': 'u', 'origWidth': 409, 'origHeight': 410, 'width': 409, 'height': 410, 'widthPercent': 0.45, 'rescaleHeight': False, 'trialN': 19, 'loaded': True, 'loadedTime': 2945.300000011921, 'positionName': 'LEFT', 'positionCoords': [282.2, 245], 'bid': 9.88}, {'imgObject': {}, 'id': 'bagel and cc', 'src': '/static/foodstim60/bagel and cc.jpg', 'key': 'i', 'origWidth': 410, 'origHeight': 410, 'width': 410, 'height': 410, 'widthPercent': 0.45, 'rescaleHeight': False, 'trialN': 19, 'loaded': True, 'loadedTime': 2958.100000023842, 'positionName': 'RIGHT', 'positionCoords': [748.8, 245], 'bid': 9.87}]",32506.100000023842,1669833005013,orange slices,bagel and cc,9.88,9.87,-0.010000000000001563,bagel and cc,842.5,852,852.3000000119209,True,i,33865.90000003576,1359.800000011921,1669833006372,1359,HRV,HRV_0185,2022-11-30 18:34:39
20,"[{'imgObject': {}, 'id': 'lox', 'src': '/static/foodstim60/lox.jpg', 'key': 'u', 'origWidth': 410, 'origHeight': 411, 'width': 410, 'height': 411, 'widthPercent': 0.45, 'rescaleHeight': False, 'trialN': 20, 'loaded': True, 'loadedTime': 2954, 'positionName': 'LEFT', 'positionCoords': [281.2, 244.5], 'bid': 2.95}, {'imgObject': {}, 'id': 'raisin bran w milk', 'src': '/static/foodstim60/raisin bran w milk.jpg', 'key': 'i', 'origWidth': 411, 'origHeight': 411, 'width': 411, 'height': 411, 'widthPercent': 0.45, 'rescaleHeight': False, 'trialN': 20, 'loaded': True, 'loadedTime': 2958.699999988079, 'positionName': 'RIGHT', 'positionCoords': [748.8, 244.5], 'bid': 9.81}]",33866.19999998808,1669833006373,lox,raisin bran w milk,2.95,9.81,6.86,raisin bran w milk,901.5,908,908.4000000357628,True,i,35281.69999998808,1415.5,1669833007788,1415,HRV,HRV_0185,2022-11-30 18:34:39
21,"[{'imgObject': {}, 'id': 'apple slices', 'src': '/static/foodstim60/apple slices.jpg', 'key': 'u', 'origWidth': 409, 'origHeight': 410, 'width': 409, 'height': 410, 'widthPercent': 0.45, 'rescaleHeight': False, 'trialN': 21, 'loaded': True, 'loadedTime': 2950.100000023842, 'positionName': 'LEFT', 'positionCoords': [282.2, 245], 'bid': 9.87}, {'imgObject': {}, 'id': 'yogurt no spoon', 'src': '/static/foodstim60/yogurt no spoon.jpg', 'key': 'i', 'origWidth': 411, 'origHeight': 410, 'width': 411, 'height': 410, 'widthPercent': 0.45, 'rescaleHeight': False, 'trialN': 21, 'loaded': True, 'loadedTime': 2952.699999988079, 'positionName': 'RIGHT', 'positionCoords': [748.8, 245], 'bid': 9.34}]",35282.10000002384,1669833007789,apple slices,yogurt no spoon,9.87,9.34,-0.5299999999999994,apple slices,1311.0999999642372,1320,1320.3999999761581,True,u,37104.30000001192,1822.199999988079,1669833009611,1822,HRV,HRV_0185,2022-11-30 18:34:39
22,"[{'imgObject': {}, 'id': 'sweetpotato', 'src': '/static/foodstim60/sweetpotato.jpg', 'key': 'u', 'origWidth': 410, 'origHeight': 410, 'width': 410, 'height': 410, 'widthPercent': 0.45, 'rescaleHeight': False, 'trialN': 22, 'loaded': True, 'loadedTime': 2795.699999988079, 'positionName': 'LEFT', 'positionCoords': [281.2, 245], 'bid': 9.87}, {'imgObject': {}, 'id': 'rigatoni and sauce', 'src': '/static/foodstim60/rigatoni and sauce.jpg', 'key': 'i', 'origWidth': 410, 'origHeight': 411, 'width': 410, 'height': 411, 'widthPercent': 0.45, 'rescaleHeight': False, 'trialN': 22, 'loaded': True, 'loadedTime': 2961.199999988079, 'positionName': 'RIGHT', 'positionCoords': [748.8, 244.5], 'bid': 9.87}]",37104.69999998808,1669833009611,sweetpotato,rigatoni and sauce,9.87,9.87,0.0,sweetpotato,1014.9000000357628,1023,1022.3000000119209,True,u,38632.60000002384,1527.9000000357628,1669833011139,1528,HRV,HRV_0185,2022-11-30 18:34:39
23,"[{'imgObject': {}, 'id': 'Tribe humus pita', 'src': '/static/foodstim60/Tribe humus pita.jpg', 'key': 'u', 'origWidth': 411, 'origHeight': 411, 'width': 411, 'height': 411, 'widthPercent': 0.45, 'rescaleHeight': False, 'trialN': 23, 'loaded': True, 'loadedTime': 2962.800000011921, 'positionName': 'LEFT', 'positionCoords': [280.2, 244.5], 'bid': 9.84}, {'imgObject': {}, 'id': 'chicken nuggets2', 'src': '/static/foodstim60/chicken nuggets2.jpg', 'key': 'i', 'origWidth': 410, 'origHeight': 409, 'width': 410, 'height': 409, 'widthPercent': 0.45, 'rescaleHeight': False, 'trialN': 23, 'loaded': True, 'loadedTime': 2962.900000035763, 'positionName': 'RIGHT', 'positionCoords': [748.8, 245.5], 'bid': 9.87}]",38632.80000001192,1669833011139,Tribe humus pita,chicken nuggets2,9.84,9.87,0.02999999999999936,chicken nuggets2,2023.300000011921,2032,2032.1000000238419,True,i,41170.10000002384,2537.300000011921,1669833013677,2538,HRV,HRV_0185,2022-11-30 18:34:39
24,"[{'imgObject': {}, 'id': 'hotdog w must', 'src': '/static/foodstim60/hotdog w must.jpg', 'key': 'u', 'origWidth': 409, 'origHeight': 409, 'width': 409, 'height': 409, 'widthPercent': 0.45, 'rescaleHeight': False, 'trialN': 24, 'loaded': True, 'loadedTime': 2965.300000011921, 'positionName': 'LEFT', 'positionCoords': [282.2, 245.5], 'bid': 9.87}, {'imgObject': {}, 'id': 'sweetpotato', 'src': '/static/foodstim60/sweetpotato.jpg', 'key': 'i', 'origWidth': 410, 'origHeight': 410, 'width': 410, 'height': 410, 'widthPercent': 0.45, 'rescaleHeight': False, 'trialN': 24, 'loaded': True, 'loadedTime': 2792.199999988079, 'positionName': 'RIGHT', 'positionCoords': [748.8, 245], 'bid': 9.87}]",41170.40000003576,1669833013677,hotdog w must,sweetpotato,9.87,9.87,0.0,sweetpotato,1311.199999988079,1321,1320.7999999523163,True,i,42992.10000002384,1821.699999988079,1669833015499,1822,HRV,HRV_0185,2022-11-30 18:34:39
25,"[{'imgObject': {}, 'id': 'orange slices', 'src': '/static/foodstim60/orange slices.jpg', 'key': 'u', 'origWidth': 409, 'origHeight': 410, 'width': 409, 'height': 410, 'widthPercent': 0.45, 'rescaleHeight': False, 'trialN': 25, 'loaded': True, 'loadedTime': 2944.900000035763, 'positionName': 'LEFT', 'positionCoords': [282.2, 245], 'bid': 9.88}, {'imgObject': {}, 'id': 'sweetpotato', 'src': '/static/foodstim60/sweetpotato.jpg', 'key': 'i', 'origWidth': 410, 'origHeight': 410, 'width': 410, 'height': 410, 'widthPercent': 0.45, 'rescaleHeight': False, 'trialN': 25, 'loaded': True, 'loadedTime': 2793.300000011921, 'positionName': 'RIGHT', 'positionCoords': [748.8, 245], 'bid': 9.87}]",42992.19999998808,1669833015499,orange slices,sweetpotato,9.88,9.87,-0.010000000000001563,orange slices,1115.800000011921,1125,1125.300000011921,True,u,44625.30000001192,1633.1000000238419,1669833017132,1633,HRV,HRV_0185,2022-11-30 18:34:39
26,"[{'imgObject': {}, 'id': 'mac & cheese', 'src': '/static/foodstim60/mac & cheese.jpg', 'key': 'u', 'origWidth': 410, 'origHeight': 410, 'width': 410, 'height': 410, 'widthPercent': 0.45, 'rescaleHeight': False, 'trialN': 26, 'loaded': True, 'loadedTime': 2741.400000035763, 'positionName': 'LEFT', 'positionCoords': [281.2, 245], 'bid': 6.79}, {'imgObject': {}, 'id': 'baked potato', 'src': '/static/foodstim60/baked potato.jpg', 'key': 'i', 'origWidth': 409, 'origHeight': 410, 'width': 409, 'height': 410, 'widthPercent': 0.45, 'rescaleHeight': False, 'trialN': 26, 'loaded': True, 'loadedTime': 2965.699999988079, 'positionName': 'RIGHT', 'positionCoords': [748.8, 245], 'bid': 9.83}]",44625.60000002384,1669833017132,mac & cheese,baked potato,6.79,9.83,3.04,baked potato,1263.0999999642372,1298,1297.8999999761581,True,i,46424.80000001192,1799.199999988079,1669833018931,1799,HRV,HRV_0185,2022-11-30 18:34:39
27,"[{'imgObject': {}, 'id': 'granola w milk', 'src': '/static/foodstim60/granola w milk.jpg', 'key': 'u', 'origWidth': 410, 'origHeight': 410, 'width': 410, 'height': 410, 'widthPercent': 0.45, 'rescaleHeight': False, 'trialN': 27, 'loaded': True, 'loadedTime': 2967.600000023842, 'positionName': 'LEFT', 'positionCoords': [281.2, 245], 'bid': 9.88}, {'imgObject': {}, 'id': 'sweetpotato', 'src': '/static/foodstim60/sweetpotato.jpg', 'key': 'i', 'origWidth': 410, 'origHeight': 410, 'width': 410, 'height': 410, 'widthPercent': 0.45, 'rescaleHeight': False, 'trialN': 27, 'loaded': True, 'loadedTime': 2795.300000011921, 'positionName': 'RIGHT', 'positionCoords': [748.8, 245], 'bid': 9.87}]",46425.0,1669833018931,granola w milk,sweetpotato,9.88,9.87,-0.010000000000001563,granola w milk,862.6999999880791,874,873.5,True,u,47801.0,1376.0,1669833020307,1376,HRV,HRV_0185,2022-11-30 18:34:39
28,"[{'imgObject': {}, 'id': 'eggsalad', 'src': '/static/foodstim60/eggsalad.jpg', 'key': 'u', 'origWidth': 410, 'origHeight': 409, 'width': 410, 'height': 409, 'widthPercent': 0.45, 'rescaleHeight': False, 'trialN': 28, 'loaded': True, 'loadedTime': 2703.600000023842, 'positionName': 'LEFT', 'positionCoords': [281.2, 245.5], 'bid': 9.02}, {'imgObject': {}, 'id': 'olives', 'src': '/static/foodstim60/olives.jpg', 'key': 'i', 'origWidth': 410, 'origHeight': 410, 'width': 410, 'height': 410, 'widthPercent': 0.45, 'rescaleHeight': False, 'trialN': 28, 'loaded': True, 'loadedTime': 2956.900000035763, 'positionName': 'RIGHT', 'positionCoords': [748.8, 245], 'bid': 5.9}]",47801.10000002384,1669833020307,eggsalad,olives,9.02,5.9,-3.119999999999999,eggsalad,1295.5,1302,1301.5999999642372,True,u,49610.10000002384,1809.0,1669833022116,1809,HRV,HRV_0185,2022-11-30 18:34:39
29,"[{'imgObject': {}, 'id': 'eggs', 'src': '/static/foodstim60/eggs.jpg', 'key': 'u', 'origWidth': 409, 'origHeight': 409, 'width': 409, 'height': 409, 'widthPercent': 0.45, 'rescaleHeight': False, 'trialN': 29, 'loaded': True, 'loadedTime': 2774, 'positionName': 'LEFT', 'positionCoords': [282.2, 245.5], 'bid': 9.84}, {'imgObject': {}, 'id': 'tacos', 'src': '/static/foodstim60/tacos.jpg', 'key': 'i', 'origWidth': 411, 'origHeight': 411, 'width': 411, 'height': 411, 'widthPercent': 0.45, 'rescaleHeight': False, 'trialN': 29, 'loaded': True, 'loadedTime': 2968.800000011921, 'positionName': 'RIGHT', 'positionCoords': [748.8, 244.5], 'bid': 9.87}]",49610.40000003576,1669833022117,eggs,tacos,9.84,9.87,0.02999999999999936,tacos,905.7999999523163,915,915.7999999523163,True,i,51033.60000002384,1423.199999988079,1669833023540,1423,HRV,HRV_0185,2022-11-30 18:34:39
30,"[{'imgObject': {}, 'id': 'chicken nuggets2', 'src': '/static/foodstim60/chicken nuggets2.jpg', 'key': 'u', 'origWidth': 410, 'origHeight': 409, 'width': 410, 'height': 409, 'widthPercent': 0.45, 'rescaleHeight': False, 'trialN': 30, 'loaded': True, 'loadedTime': 2964, 'positionName': 'LEFT', 'positionCoords': [281.2, 245.5], 'bid': 9.87}, {'imgObject': {}, 'id': 'cantaloupe', 'src': '/static/foodstim60/cantaloupe.jpg', 'key': 'i', 'origWidth': 409, 'origHeight': 409, 'width': 409, 'height': 409, 'widthPercent': 0.45, 'rescaleHeight': False, 'trialN': 30, 'loaded': True, 'loadedTime': 2950.5, 'positionName': 'RIGHT', 'positionCoords': [748.8, 245.5], 'bid': 9.87}]",51033.90000003576,1669833023540,chicken nuggets2,cantaloupe,9.87,9.87,0.0,chicken nuggets2,890.0,899,898.5,True,u,52440.69999998808,1406.7999999523163,1669833024947,1407,HRV,HRV_0185,2022-11-30 18:34:39
31,"[{'imgObject': {}, 'id': 'veggieswithdip', 'src': '/static/foodstim60/veggieswithdip.jpg', 'key': 'u', 'origWidth': 409, 'origHeight': 409, 'width': 409, 'height': 409, 'widthPercent': 0.45, 'rescaleHeight': False, 'trialN': 31, 'loaded': True, 'loadedTime': 2969.900000035763, 'positionName': 'LEFT', 'positionCoords': [282.2, 245.5], 'bid': 9.84}, {'imgObject': {}, 'id': 'shreddedwheatwithmilk', 'src': '/static/foodstim60/shreddedwheatwithmilk.jpg', 'key': 'i', 'origWidth': 410, 'origHeight': 410, 'width': 410, 'height': 410, 'widthPercent': 0.45, 'rescaleHeight': False, 'trialN': 31, 'loaded': True, 'loadedTime': 2785.100000023842, 'positionName': 'RIGHT', 'positionCoords': [748.8, 245], 'bid': 9.91}]",52441.10000002384,1669833024947,veggieswithdip,shreddedwheatwithmilk,9.84,9.91,0.07000000000000028,shreddedwheatwithmilk,1216.699999988079,1226,1225.3999999761581,True,i,54169.69999998808,1728.5999999642372,1669833026676,1729,HRV,HRV_0185,2022-11-30 18:34:39
32,"[{'imgObject': {}, 'id': 'raspberries', 'src': '/static/foodstim60/raspberries.jpg', 'key': 'u', 'origWidth': 411, 'origHeight': 411, 'width': 411, 'height': 411, 'widthPercent': 0.45, 'rescaleHeight': False, 'trialN': 32, 'loaded': True, 'loadedTime': 2970.400000035763, 'positionName': 'LEFT', 'positionCoords': [280.2, 244.5], 'bid': 9.83}, {'imgObject': {}, 'id': 'strawberries', 'src': '/static/foodstim60/strawberries.jpg', 'key': 'i', 'origWidth': 410, 'origHeight': 410, 'width': 410, 'height': 410, 'widthPercent': 0.45, 'rescaleHeight': False, 'trialN': 32, 'loaded': True, 'loadedTime': 2973, 'positionName': 'RIGHT', 'positionCoords': [748.8, 245], 'bid': 9.86}]",54170.10000002384,1669833026676,raspberries,strawberries,9.83,9.86,0.02999999999999936,strawberries,1036.5999999642372,1046,1046.0,True,i,55720.40000003576,1550.300000011921,1669833028227,1551,HRV,HRV_0185,2022-11-30 18:34:39
33,"[{'imgObject': {}, 'id': 'omelette', 'src': '/static/foodstim60/omelette.jpg', 'key': 'u', 'origWidth': 410, 'origHeight': 409, 'width': 410, 'height': 409, 'widthPercent': 0.45, 'rescaleHeight': False, 'trialN': 33, 'loaded': True, 'loadedTime': 2775.900000035763, 'positionName': 'LEFT', 'positionCoords': [281.2, 245.5], 'bid': 9.83}, {'imgObject': {}, 'id': 'turkey sandwich', 'src': '/static/foodstim60/turkey sandwich.jpg', 'key': 'i', 'origWidth': 409, 'origHeight': 409, 'width': 409, 'height': 409, 'widthPercent': 0.45, 'rescaleHeight': False, 'trialN': 33, 'loaded': True, 'loadedTime': 2974, 'positionName': 'RIGHT', 'positionCoords': [748.8, 245.5], 'bid': 9.88}]",55720.60000002384,1669833028227,omelette,turkey sandwich,9.83,9.88,0.05000000000000071,turkey sandwich,1318.300000011921,1327,1327.3999999761581,True,i,57554.40000003576,1833.800000011921,1669833030061,1834,HRV,HRV_0185,2022-11-30 18:34:39
34,"[{'imgObject': {}, 'id': 'avocado', 'src': '/static/foodstim60/avocado.jpg', 'key': 'u', 'origWidth': 409, 'origHeight': 409, 'width': 409, 'height': 409, 'widthPercent': 0.45, 'rescaleHeight': False, 'trialN': 34, 'loaded': True, 'loadedTime': 2975.100000023842, 'positionName': 'LEFT', 'positionCoords': [282.2, 245.5], 'bid': 9.84}, {'imgObject': {}, 'id': 'eggs', 'src': '/static/foodstim60/eggs.jpg', 'key': 'i', 'origWidth': 409, 'origHeight': 409, 'width': 409, 'height': 409, 'widthPercent': 0.45, 'rescaleHeight': False, 'trialN': 34, 'loaded': True, 'loadedTime': 2775.699999988079, 'positionName': 'RIGHT', 'positionCoords': [748.8, 245.5], 'bid': 9.84}]",57554.69999998808,1669833030061,avocado,eggs,9.84,9.84,0.0,eggs,1398.2000000476837,1406,1406.0,True,i,59464.30000001192,1909.6000000238419,1669833031970,1909,HRV,HRV_0185,2022-11-30 18:34:39
35,"[{'imgObject': {}, 'id': 'blackbeanswithrice', 'src': '/static/foodstim60/blackbeanswithrice.jpg', 'key': 'u', 'origWidth': 410, 'origHeight': 410, 'width': 410, 'height': 410, 'widthPercent': 0.45, 'rescaleHeight': False, 'trialN': 35, 'loaded': True, 'loadedTime': 2984.100000023842, 'positionName': 'LEFT', 'positionCoords': [281.2, 245], 'bid': 9.9}, {'imgObject': {}, 'id': 'Grapes', 'src': '/static/foodstim60/Grapes.jpg', 'key': 'i', 'origWidth': 411, 'origHeight': 411, 'width': 411, 'height': 411, 'widthPercent': 0.45, 'rescaleHeight': False, 'trialN': 35, 'loaded': True, 'loadedTime': 2949.199999988079, 'positionName': 'RIGHT', 'positionCoords': [748.8, 244.5], 'bid': 9.9}]",59464.60000002384,1669833031971,blackbeanswithrice,Grapes,9.9,9.9,0.0,blackbeanswithrice,862.1999999880791,870,870.5,True,u,60842.0,1377.3999999761581,1669833033348,1377,HRV,HRV_0185,2022-11-30 18:34:39
36,"[{'imgObject': {}, 'id': 'fruitsalad', 'src': '/static/foodstim60/fruitsalad.jpg', 'key': 'u', 'origWidth': 410, 'origHeight': 410, 'width': 410, 'height': 410, 'widthPercent': 0.45, 'rescaleHeight': False, 'trialN': 36, 'loaded': True, 'loadedTime': 2984.199999988079, 'positionName': 'LEFT', 'positionCoords': [281.2, 245], 'bid': 9.91}, {'imgObject': {}, 'id': 'eggs', 'src': '/static/foodstim60/eggs.jpg', 'key': 'i', 'origWidth': 409, 'origHeight': 409, 'width': 409, 'height': 409, 'widthPercent': 0.45, 'rescaleHeight': False, 'trialN': 36, 'loaded': True, 'loadedTime': 2775.199999988079, 'positionName': 'RIGHT', 'positionCoords': [748.8, 245.5], 'bid': 9.84}]",60842.40000003576,1669833033348,fruitsalad,eggs,9.91,9.84,-0.07000000000000028,eggs,1585.2999999523163,1595,1594.199999988079,True,i,62937.40000003576,2095.0,1669833035443,2095,HRV,HRV_0185,2022-11-30 18:34:39
37,"[{'imgObject': {}, 'id': 'hashbrowns', 'src': '/static/foodstim60/hashbrowns.jpg', 'key': 'u', 'origWidth': 411, 'origHeight': 410, 'width': 411, 'height': 410, 'widthPercent': 0.45, 'rescaleHeight': False, 'trialN': 37, 'loaded': True, 'loadedTime': 2992.699999988079, 'positionName': 'LEFT', 'positionCoords': [280.2, 245], 'bid': 9.87}, {'imgObject': {}, 'id': 'grilled chicken strips', 'src': '/static/foodstim60/grilled chicken strips.jpg', 'key': 'i', 'origWidth': 410, 'origHeight': 411, 'width': 410, 'height': 411, 'widthPercent': 0.45, 'rescaleHeight': False, 'trialN': 37, 'loaded': True, 'loadedTime': 3009.300000011921, 'positionName': 'RIGHT', 'positionCoords': [748.8, 244.5], 'bid': 9.93}]",62937.69999998808,1669833035444,hashbrowns,grilled chicken strips,9.87,9.93,0.0600000000000005,grilled chicken strips,1969.1000000238419,1977,1977.4000000357628,True,i,65416.80000001192,2479.100000023842,1669833037923,2479,HRV,HRV_0185,2022-11-30 18:34:39
38,"[{'imgObject': {}, 'id': 'cheerios', 'src': '/static/foodstim60/cheerios.jpg', 'key': 'u', 'origWidth': 409, 'origHeight': 410, 'width': 409, 'height': 410, 'widthPercent': 0.45, 'rescaleHeight': False, 'trialN': 38, 'loaded': True, 'loadedTime': 3009.5, 'positionName': 'LEFT', 'positionCoords': [282.2, 245], 'bid': 9.87}, {'imgObject': {}, 'id': 'burger', 'src': '/static/foodstim60/burger.jpg', 'key': 'i', 'origWidth': 409, 'origHeight': 409, 'width': 409, 'height': 409, 'widthPercent': 0.45, 'rescaleHeight': False, 'trialN': 38, 'loaded': True, 'loadedTime': 2671.199999988079, 'positionName': 'RIGHT', 'positionCoords': [748.8, 245.5], 'bid': 9.9}]",65417.10000002384,1669833037923,cheerios,burger,9.87,9.9,0.030000000000001137,burger,1045.5999999642372,1055,1054.5,True,i,66977.30000001192,1560.199999988079,1669833039483,1560,HRV,HRV_0185,2022-11-30 18:34:39
39,"[{'imgObject': {}, 'id': 'blueberries', 'src': '/static/foodstim60/blueberries.jpg', 'key': 'u', 'origWidth': 411, 'origHeight': 411, 'width': 411, 'height': 411, 'widthPercent': 0.45, 'rescaleHeight': False, 'trialN': 39, 'loaded': True, 'loadedTime': 3031.100000023842, 'positionName': 'LEFT', 'positionCoords': [280.2, 244.5], 'bid': 9.93}, {'imgObject': {}, 'id': 'hotdog w must', 'src': '/static/foodstim60/hotdog w must.jpg', 'key': 'i', 'origWidth': 409, 'origHeight': 409, 'width': 409, 'height': 409, 'widthPercent': 0.45, 'rescaleHeight': False, 'trialN': 39, 'loaded': True, 'loadedTime': 2965.5, 'positionName': 'RIGHT', 'positionCoords': [748.8, 245.5], 'bid': 9.87}]",66977.69999998808,1669833039484,blueberries,hotdog w must,9.93,9.87,-0.0600000000000005,hotdog w must,766.9000000357628,775,775.8000000119209,True,i,68258.10000002384,1280.4000000357628,1669833040764,1280,HRV,HRV_0185,2022-11-30 18:34:39
40,"[{'imgObject': {}, 'id': 'corn cob', 'src': '/static/foodstim60/corn cob.jpg', 'key': 'u', 'origWidth': 411, 'origHeight': 411, 'width': 411, 'height': 411, 'widthPercent': 0.45, 'rescaleHeight': False, 'trialN': 40, 'loaded': True, 'loadedTime': 2735.199999988079, 'positionName': 'LEFT', 'positionCoords': [280.2, 244.5], 'bid': 9.88}, {'imgObject': {}, 'id': 'roastedpotatoes', 'src': '/static/foodstim60/roastedpotatoes.jpg', 'key': 'i', 'origWidth': 409, 'origHeight': 410, 'width': 409, 'height': 410, 'widthPercent': 0.45, 'rescaleHeight': False, 'trialN': 40, 'loaded': True, 'loadedTime': 3032.199999988079, 'positionName': 'RIGHT', 'positionCoords': [748.8, 245], 'bid': 9.88}]",68258.5,1669833040764,corn cob,roastedpotatoes,9.88,9.88,0.0,roastedpotatoes,1466.4000000357628,1477,1476.800000011921,True,i,70241.30000001192,1982.800000011921,1669833042747,1983,HRV,HRV_0185,2022-11-30 18:34:39
41,"[{'imgObject': {}, 'id': 'bagel and cc', 'src': '/static/foodstim60/bagel and cc.jpg', 'key': 'u', 'origWidth': 410, 'origHeight': 410, 'width': 410, 'height': 410, 'widthPercent': 0.45, 'rescaleHeight': False, 'trialN': 41, 'loaded': True, 'loadedTime': 2958.300000011921, 'positionName': 'LEFT', 'positionCoords': [281.2, 245], 'bid': 9.87}, {'imgObject': {}, 'id': 'hashbrowns', 'src': '/static/foodstim60/hashbrowns.jpg', 'key': 'i', 'origWidth': 411, 'origHeight': 410, 'width': 411, 'height': 410, 'widthPercent': 0.45, 'rescaleHeight': False, 'trialN': 41, 'loaded': True, 'loadedTime': 2992.600000023842, 'positionName': 'RIGHT', 'positionCoords': [748.8, 245], 'bid': 9.87}]",70241.60000002384,1669833042748,bagel and cc,hashbrowns,9.87,9.87,0.0,bagel and cc,1170.8999999761581,1179,1179.800000011921,True,u,71922.5,1680.8999999761581,1669833044428,1680,HRV,HRV_0185,2022-11-30 18:34:39
42,"[{'imgObject': {}, 'id': 'cocktailshrimp', 'src': '/static/foodstim60/cocktailshrimp.jpg', 'key': 'u', 'origWidth': 410, 'origHeight': 410, 'width': 410, 'height': 410, 'widthPercent': 0.45, 'rescaleHeight': False, 'trialN': 42, 'loaded': True, 'loadedTime': 2727.900000035763, 'positionName': 'LEFT', 'positionCoords': [281.2, 245], 'bid': 9.83}, {'imgObject': {}, 'id': 'raspberries', 'src': '/static/foodstim60/raspberries.jpg', 'key': 'i', 'origWidth': 411, 'origHeight': 411, 'width': 411, 'height': 411, 'widthPercent': 0.45, 'rescaleHeight': False, 'trialN': 42, 'loaded': True, 'loadedTime': 2971.100000023842, 'positionName': 'RIGHT', 'positionCoords': [748.8, 244.5], 'bid': 9.83}]",71922.80000001192,1669833044429,cocktailshrimp,raspberries,9.83,9.83,0.0,cocktailshrimp,1016.6999999880791,1023,1023.8000000119209,True,u,73448.90000003576,1526.1000000238419,1669833045955,1526,HRV,HRV_0185,2022-11-30 18:34:39
43,"[{'imgObject': {}, 'id': 'rigatoni', 'src': '/static/foodstim60/rigatoni.jpg', 'key': 'u', 'origWidth': 411, 'origHeight': 411, 'width': 411, 'height': 411, 'widthPercent': 0.45, 'rescaleHeight': False, 'trialN': 43, 'loaded': True, 'loadedTime': 2687, 'positionName': 'LEFT', 'positionCoords': [280.2, 244.5], 'bid': 5.87}, {'imgObject': {}, 'id': 'pear', 'src': '/static/foodstim60/pear.jpg', 'key': 'i', 'origWidth': 411, 'origHeight': 410, 'width': 411, 'height': 410, 'widthPercent': 0.45, 'rescaleHeight': False, 'trialN': 43, 'loaded': True, 'loadedTime': 2883.199999988079, 'positionName': 'RIGHT', 'positionCoords': [748.8, 245], 'bid': 9.69}]",73449.19999998808,1669833045955,rigatoni,pear,5.87,9.69,3.8199999999999994,pear,1051.6000000238419,1059,1058.9000000357628,True,i,75010.19999998808,1561.0,1669833047516,1561,HRV,HRV_0185,2022-11-30 18:34:39
44,"[{'imgObject': {}, 'id': 'yogurt no spoon', 'src': '/static/foodstim60/yogurt no spoon.jpg', 'key': 'u', 'origWidth': 411, 'origHeight': 410, 'width': 411, 'height': 410, 'widthPercent': 0.45, 'rescaleHeight': False, 'trialN': 44, 'loaded': True, 'loadedTime': 2953, 'positionName': 'LEFT', 'positionCoords': [280.2, 245], 'bid': 9.34}, {'imgObject': {}, 'id': 'mango', 'src': '/static/foodstim60/mango.jpg', 'key': 'i', 'origWidth': 411, 'origHeight': 411, 'width': 411, 'height': 411, 'widthPercent': 0.45, 'rescaleHeight': False, 'trialN': 44, 'loaded': True, 'loadedTime': 2802, 'positionName': 'RIGHT', 'positionCoords': [748.8, 244.5], 'bid': 9.63}]",75010.40000003576,1669833047516,yogurt no spoon,mango,9.34,9.63,0.2900000000000009,yogurt no spoon,954.3999999761581,964,963.6999999880791,True,u,76483.0,1472.5999999642372,1669833048989,1473,HRV,HRV_0185,2022-11-30 18:34:39
45,"[{'imgObject': {}, 'id': 'cherry tomato', 'src': '/static/foodstim60/cherry tomato.jpg', 'key': 'u', 'origWidth': 410, 'origHeight': 410, 'width': 410, 'height': 410, 'widthPercent': 0.45, 'rescaleHeight': False, 'trialN': 45, 'loaded': True, 'loadedTime': 3033.900000035763, 'positionName': 'LEFT', 'positionCoords': [281.2, 245], 'bid': 9.86}, {'imgObject': {}, 'id': 'froot loops w milk', 'src': '/static/foodstim60/froot loops w milk.jpg', 'key': 'i', 'origWidth': 410, 'origHeight': 410, 'width': 410, 'height': 410, 'widthPercent': 0.45, 'rescaleHeight': False, 'trialN': 45, 'loaded': True, 'loadedTime': 2679.100000023842, 'positionName': 'RIGHT', 'positionCoords': [748.8, 245], 'bid': 9.84}]",76483.30000001192,1669833048989,cherry tomato,froot loops w milk,9.86,9.84,-0.019999999999999574,cherry tomato,936.8999999761581,947,946.6999999880791,True,u,77937.19999998808,1453.8999999761581,1669833050443,1454,HRV,HRV_0185,2022-11-30 18:34:39
46,"[{'imgObject': {}, 'id': 'cherries', 'src': '/static/foodstim60/cherries.jpg', 'key': 'u', 'origWidth': 410, 'origHeight': 411, 'width': 410, 'height': 411, 'widthPercent': 0.45, 'rescaleHeight': False, 'trialN': 46, 'loaded': True, 'loadedTime': 2738.800000011921, 'positionName': 'LEFT', 'positionCoords': [281.2, 244.5], 'bid': 9.81}, {'imgObject': {}, 'id': 'omelette', 'src': '/static/foodstim60/omelette.jpg', 'key': 'i', 'origWidth': 410, 'origHeight': 409, 'width': 410, 'height': 409, 'widthPercent': 0.45, 'rescaleHeight': False, 'trialN': 46, 'loaded': True, 'loadedTime': 2777.100000023842, 'positionName': 'RIGHT', 'positionCoords': [748.8, 245.5], 'bid': 9.83}]",77937.5,1669833050443,cherries,omelette,9.81,9.83,0.019999999999999574,cherries,1220.300000011921,1229,1228.699999988079,True,u,79673.80000001192,1736.300000011921,1669833052180,1737,HRV,HRV_0185,2022-11-30 18:34:39
47,"[{'imgObject': {}, 'id': 'sushi w_condiments', 'src': '/static/foodstim60/sushi w_condiments.jpg', 'key': 'u', 'origWidth': 410, 'origHeight': 410, 'width': 410, 'height': 410, 'widthPercent': 0.45, 'rescaleHeight': False, 'trialN': 47, 'loaded': True, 'loadedTime': 2948, 'positionName': 'LEFT', 'positionCoords': [281.2, 245], 'bid': 9.91}, {'imgObject': {}, 'id': 'turkey sandwich', 'src': '/static/foodstim60/turkey sandwich.jpg', 'key': 'i', 'origWidth': 409, 'origHeight': 409, 'width': 409, 'height': 409, 'widthPercent': 0.45, 'rescaleHeight': False, 'trialN': 47, 'loaded': True, 'loadedTime': 2974.100000023842, 'positionName': 'RIGHT', 'positionCoords': [748.8, 245.5], 'bid': 9.88}]",79674.19999998808,1669833052180,sushi w_condiments,turkey sandwich,9.91,9.88,-0.02999999999999936,turkey sandwich,749.7000000476837,758,758.2000000476837,True,i,80938.90000003576,1264.7000000476837,1669833053445,1265,HRV,HRV_0185,2022-11-30 18:34:39
48,"[{'imgObject': {}, 'id': 'bagel plain', 'src': '/static/foodstim60/bagel plain.jpg', 'key': 'u', 'origWidth': 410, 'origHeight': 410, 'width': 410, 'height': 410, 'widthPercent': 0.45, 'rescaleHeight': False, 'trialN': 48, 'loaded': True, 'loadedTime': 2754.699999988079, 'positionName': 'LEFT', 'positionCoords': [281.2, 245], 'bid': 7.9}, {'imgObject': {}, 'id': 'chicken nuggets2', 'src': '/static/foodstim60/chicken nuggets2.jpg', 'key': 'i', 'origWidth': 410, 'origHeight': 409, 'width': 410, 'height': 409, 'widthPercent': 0.45, 'rescaleHeight': False, 'trialN': 48, 'loaded': True, 'loadedTime': 2963.900000035763, 'positionName': 'RIGHT', 'positionCoords': [748.8, 245.5], 'bid': 9.87}]",80939.19999998808,1669833053445,bagel plain,chicken nuggets2,7.9,9.87,1.9699999999999989,chicken nuggets2,1501.800000011921,1511,1510.6000000238419,True,i,82953.40000003576,2014.2000000476837,1669833055459,2014,HRV,HRV_0185,2022-11-30 18:34:39
49,"[{'imgObject': {}, 'id': 'fruitsalad', 'src': '/static/foodstim60/fruitsalad.jpg', 'key': 'u', 'origWidth': 410, 'origHeight': 410, 'width': 410, 'height': 410, 'widthPercent': 0.45, 'rescaleHeight': False, 'trialN': 49, 'loaded': True, 'loadedTime': 2989.900000035763, 'positionName': 'LEFT', 'positionCoords': [281.2, 245], 'bid': 9.91}, {'imgObject': {}, 'id': 'orange slices', 'src': '/static/foodstim60/orange slices.jpg', 'key': 'i', 'origWidth': 409, 'origHeight': 410, 'width': 409, 'height': 410, 'widthPercent': 0.45, 'rescaleHeight': False, 'trialN': 49, 'loaded': True, 'loadedTime': 2943.100000023842, 'positionName': 'RIGHT', 'positionCoords': [748.8, 245], 'bid': 9.88}]",82953.69999998808,1669833055459,fruitsalad,orange slices,9.91,9.88,-0.02999999999999936,orange slices,1036.9000000357628,1046,1045.6000000238419,True,i,84499.60000002384,1545.9000000357628,1669833057005,1546,HRV,HRV_0185,2022-11-30 18:34:39
50,"[{'imgObject': {}, 'id': 'chickenfingers', 'src': '/static/foodstim60/chickenfingers.jpg', 'key': 'u', 'origWidth': 410, 'origHeight': 410, 'width': 410, 'height': 410, 'widthPercent': 0.45, 'rescaleHeight': False, 'trialN': 50, 'loaded': True, 'loadedTime': 3033.100000023842, 'positionName': 'LEFT', 'positionCoords': [281.2, 245], 'bid': 9.84}, {'imgObject': {}, 'id': 'raisin bran w milk', 'src': '/static/foodstim60/raisin bran w milk.jpg', 'key': 'i', 'origWidth': 411, 'origHeight': 411, 'width': 411, 'height': 411, 'widthPercent': 0.45, 'rescaleHeight': False, 'trialN': 50, 'loaded': True, 'loadedTime': 2959.600000023842, 'positionName': 'RIGHT', 'positionCoords': [748.8, 244.5], 'bid': 9.81}]",84500.0,1669833057006,chickenfingers,raisin bran w milk,9.84,9.81,-0.02999999999999936,chickenfingers,820.1000000238419,829,829.3000000119209,True,u,85834.10000002384,1334.1000000238419,1669833058340,1334,HRV,HRV_0185,2022-11-30 18:34:39
51,"[{'imgObject': {}, 'id': 'granola w milk', 'src': '/static/foodstim60/granola w milk.jpg', 'key': 'u', 'origWidth': 410, 'origHeight': 410, 'width': 410, 'height': 410, 'widthPercent': 0.45, 'rescaleHeight': False, 'trialN': 51, 'loaded': True, 'loadedTime': 2967.199999988079, 'positionName': 'LEFT', 'positionCoords': [281.2, 245], 'bid': 9.88}, {'imgObject': {}, 'id': 'fruitsalad', 'src': '/static/foodstim60/fruitsalad.jpg', 'key': 'i', 'origWidth': 410, 'origHeight': 410, 'width': 410, 'height': 410, 'widthPercent': 0.45, 'rescaleHeight': False, 'trialN': 51, 'loaded': True, 'loadedTime': 2988.400000035763, 'positionName': 'RIGHT', 'positionCoords': [748.8, 245], 'bid': 9.91}]",85834.40000003576,1669833058340,granola w milk,fruitsalad,9.88,9.91,0.02999999999999936,granola w milk,1360.199999988079,1369,1369.2999999523163,True,u,87704.80000001192,1870.3999999761581,1669833060210,1870,HRV,HRV_0185,2022-11-30 18:34:39
52,"[{'imgObject': {}, 'id': 'bagel and cc', 'src': '/static/foodstim60/bagel and cc.jpg', 'key': 'u', 'origWidth': 410, 'origHeight': 410, 'width': 410, 'height': 410, 'widthPercent': 0.45, 'rescaleHeight': False, 'trialN': 52, 'loaded': True, 'loadedTime': 2957.300000011921, 'positionName': 'LEFT', 'positionCoords': [281.2, 245], 'bid': 9.87}, {'imgObject': {}, 'id': 'cheerios', 'src': '/static/foodstim60/cheerios.jpg', 'key': 'i', 'origWidth': 409, 'origHeight': 410, 'width': 409, 'height': 410, 'widthPercent': 0.45, 'rescaleHeight': False, 'trialN': 52, 'loaded': True, 'loadedTime': 3010.5, 'positionName': 'RIGHT', 'positionCoords': [748.8, 245], 'bid': 9.87}]",87705.0,1669833060211,bagel and cc,cheerios,9.87,9.87,0.0,bagel and cc,750.1000000238419,760,760.9000000357628,True,u,88969.80000001192,1264.800000011921,1669833061475,1264,HRV,HRV_0185,2022-11-30 18:34:39
53,"[{'imgObject': {}, 'id': 'apple slices', 'src': '/static/foodstim60/apple slices.jpg', 'key': 'u', 'origWidth': 409, 'origHeight': 410, 'width': 409, 'height': 410, 'widthPercent': 0.45, 'rescaleHeight': False, 'trialN': 53, 'loaded': True, 'loadedTime': 2950.400000035763, 'positionName': 'LEFT', 'positionCoords': [282.2, 245], 'bid': 9.87}, {'imgObject': {}, 'id': 'fruitsalad', 'src': '/static/foodstim60/fruitsalad.jpg', 'key': 'i', 'origWidth': 410, 'origHeight': 410, 'width': 410, 'height': 410, 'widthPercent': 0.45, 'rescaleHeight': False, 'trialN': 53, 'loaded': True, 'loadedTime': 2990.100000023842, 'positionName': 'RIGHT', 'positionCoords': [748.8, 245], 'bid': 9.91}]",88970.19999998808,1669833061476,apple slices,fruitsalad,9.87,9.91,0.040000000000000924,fruitsalad,800.3000000119209,808,808.7000000476837,True,i,90281.40000003576,1311.2000000476837,1669833062787,1311,HRV,HRV_0185,2022-11-30 18:34:39
54,"[{'imgObject': {}, 'id': 'lox', 'src': '/static/foodstim60/lox.jpg', 'key': 'u', 'origWidth': 410, 'origHeight': 411, 'width': 410, 'height': 411, 'widthPercent': 0.45, 'rescaleHeight': False, 'trialN': 54, 'loaded': True, 'loadedTime': 2953.100000023842, 'positionName': 'LEFT', 'positionCoords': [281.2, 244.5], 'bid': 2.95}, {'imgObject': {}, 'id': 'ice cream sundae 002', 'src': '/static/foodstim60/ice cream sundae 002.jpg', 'key': 'i', 'origWidth': 409, 'origHeight': 409, 'width': 409, 'height': 409, 'widthPercent': 0.45, 'rescaleHeight': False, 'trialN': 54, 'loaded': True, 'loadedTime': 2801.400000035763, 'positionName': 'RIGHT', 'positionCoords': [748.8, 245.5], 'bid': 1.16}]",90281.69999998808,1669833062787,lox,ice cream sundae 002,2.95,1.16,-1.7900000000000003,lox,2022.2000000476837,2032,2031.5,True,u,92819.10000002384,2537.400000035763,1669833065325,2538,HRV,HRV_0185,2022-11-30 18:34:39
55,"[{'imgObject': {}, 'id': 'chickenfingers', 'src': '/static/foodstim60/chickenfingers.jpg', 'key': 'u', 'origWidth': 410, 'origHeight': 410, 'width': 410, 'height': 410, 'widthPercent': 0.45, 'rescaleHeight': False, 'trialN': 55, 'loaded': True, 'loadedTime': 3033, 'positionName': 'LEFT', 'positionCoords': [281.2, 245], 'bid': 9.84}, {'imgObject': {}, 'id': 'raspberries', 'src': '/static/foodstim60/raspberries.jpg', 'key': 'i', 'origWidth': 411, 'origHeight': 411, 'width': 411, 'height': 411, 'widthPercent': 0.45, 'rescaleHeight': False, 'trialN': 55, 'loaded': True, 'loadedTime': 2971.300000011921, 'positionName': 'RIGHT', 'positionCoords': [748.8, 244.5], 'bid': 9.83}]",92819.40000003576,1669833065325,chickenfingers,raspberries,9.84,9.83,-0.009999999999999787,chickenfingers,1107.5,1115,1114.5999999642372,True,u,94444.0,1624.5999999642372,1669833066950,1625,HRV,HRV_0185,2022-11-30 18:34:39
56,"[{'imgObject': {}, 'id': 'cocktailshrimp', 'src': '/static/foodstim60/cocktailshrimp.jpg', 'key': 'u', 'origWidth': 410, 'origHeight': 410, 'width': 410, 'height': 410, 'widthPercent': 0.45, 'rescaleHeight': False, 'trialN': 56, 'loaded': True, 'loadedTime': 2727.900000035763, 'positionName': 'LEFT', 'positionCoords': [281.2, 245], 'bid': 9.83}, {'imgObject': {}, 'id': 'cherry tomato', 'src': '/static/foodstim60/cherry tomato.jpg', 'key': 'i', 'origWidth': 410, 'origHeight': 410, 'width': 410, 'height': 410, 'widthPercent': 0.45, 'rescaleHeight': False, 'trialN': 56, 'loaded': True, 'loadedTime': 3034, 'positionName': 'RIGHT', 'positionCoords': [748.8, 245], 'bid': 9.86}]",94444.30000001192,1669833066950,cocktailshrimp,cherry tomato,9.83,9.86,0.02999999999999936,cocktailshrimp,1410.300000011921,1418,1418.6000000238419,True,u,96370.30000001192,1926.0,1669833068876,1926,HRV,HRV_0185,2022-11-30 18:34:39
57,"[{'imgObject': {}, 'id': 'lox', 'src': '/static/foodstim60/lox.jpg', 'key': 'u', 'origWidth': 410, 'origHeight': 411, 'width': 410, 'height': 411, 'widthPercent': 0.45, 'rescaleHeight': False, 'trialN': 57, 'loaded': True, 'loadedTime': 2954.100000023842, 'positionName': 'LEFT', 'positionCoords': [281.2, 244.5], 'bid': 2.95}, {'imgObject': {}, 'id': 'banana', 'src': '/static/foodstim60/banana.jpg', 'key': 'i', 'origWidth': 410, 'origHeight': 410, 'width': 410, 'height': 410, 'widthPercent': 0.45, 'rescaleHeight': False, 'trialN': 57, 'loaded': True, 'loadedTime': 2946.300000011921, 'positionName': 'RIGHT', 'positionCoords': [748.8, 245], 'bid': 9.86}]",96370.69999998808,1669833068876,lox,banana,2.95,9.86,6.909999999999999,banana,855.0,865,864.6000000238419,True,i,97738.0,1367.300000011921,1669833070243,1367,HRV,HRV_0185,2022-11-30 18:34:39
58,"[{'imgObject': {}, 'id': 'steak', 'src': '/static/foodstim60/steak.jpg', 'key': 'u', 'origWidth': 410, 'origHeight': 410, 'width': 410, 'height': 410, 'widthPercent': 0.45, 'rescaleHeight': False, 'trialN': 58, 'loaded': True, 'loadedTime': 2954.199999988079, 'positionName': 'LEFT', 'positionCoords': [281.2, 245], 'bid': 5.45}, {'imgObject': {}, 'id': 'popsicles', 'src': '/static/foodstim60/popsicles.jpg', 'key': 'i', 'origWidth': 410, 'origHeight': 410, 'width': 410, 'height': 410, 'widthPercent': 0.45, 'rescaleHeight': False, 'trialN': 58, 'loaded': True, 'loadedTime': 3035.100000023842, 'positionName': 'RIGHT', 'positionCoords': [748.8, 245], 'bid': 1.26}]",97738.30000001192,1669833070244,steak,popsicles,5.45,1.26,-4.19,steak,1012.1999999880791,1021,1021.5,True,u,99265.69999998808,1527.3999999761581,1669833071771,1527,HRV,HRV_0185,2022-11-30 18:34:39
59,"[{'imgObject': {}, 'id': 'avocado', 'src': '/static/foodstim60/avocado.jpg', 'key': 'u', 'origWidth': 409, 'origHeight': 409, 'width': 409, 'height': 409, 'widthPercent': 0.45, 'rescaleHeight': False, 'trialN': 59, 'loaded': True, 'loadedTime': 2975.100000023842, 'positionName': 'LEFT', 'positionCoords': [282.2, 245.5], 'bid': 9.84}, {'imgObject': {}, 'id': 'turkeysandwich', 'src': '/static/foodstim60/turkeysandwich.jpg', 'key': 'i', 'origWidth': 409, 'origHeight': 409, 'width': 409, 'height': 409, 'widthPercent': 0.45, 'rescaleHeight': False, 'trialN': 59, 'loaded': True, 'loadedTime': 3036.300000011921, 'positionName': 'RIGHT', 'positionCoords': [748.8, 245.5], 'bid': 9.87}]",99266.0,1669833071771,avocado,turkeysandwich,9.84,9.87,0.02999999999999936,turkeysandwich,708.8000000119209,718,718.0,True,i,100491.0,1225.0,1669833072996,1225,HRV,HRV_0185,2022-11-30 18:34:39
60,"[{'imgObject': {}, 'id': 'blackbeanswithrice', 'src': '/static/foodstim60/blackbeanswithrice.jpg', 'key': 'u', 'origWidth': 410, 'origHeight': 410, 'width': 410, 'height': 410, 'widthPercent': 0.45, 'rescaleHeight': False, 'trialN': 60, 'loaded': True, 'loadedTime': 2984.100000023842, 'positionName': 'LEFT', 'positionCoords': [281.2, 245], 'bid': 9.9}, {'imgObject': {}, 'id': 'baked potato', 'src': '/static/foodstim60/baked potato.jpg', 'key': 'i', 'origWidth': 409, 'origHeight': 410, 'width': 409, 'height': 410, 'widthPercent': 0.45, 'rescaleHeight': False, 'trialN': 60, 'loaded': True, 'loadedTime': 2966.5, 'positionName': 'RIGHT', 'positionCoords': [748.8, 245], 'bid': 9.83}]",100491.19999998808,1669833072997,blackbeanswithrice,baked potato,9.9,9.83,-0.07000000000000028,blackbeanswithrice,963.8000000119209,972,972.7000000476837,True,u,101968.80000001192,1477.6000000238419,1669833074474,1477,HRV,HRV_0185,2022-11-30 18:34:39
61,"[{'imgObject': {}, 'id': 'cantaloupe', 'src': '/static/foodstim60/cantaloupe.jpg', 'key': 'u', 'origWidth': 409, 'origHeight': 409, 'width': 409, 'height': 409, 'widthPercent': 0.45, 'rescaleHeight': False, 'trialN': 61, 'loaded': True, 'loadedTime': 2951.400000035763, 'positionName': 'LEFT', 'positionCoords': [282.2, 245.5], 'bid': 9.87}, {'imgObject': {}, 'id': 'veggieswithdip', 'src': '/static/foodstim60/veggieswithdip.jpg', 'key': 'i', 'origWidth': 409, 'origHeight': 409, 'width': 409, 'height': 409, 'widthPercent': 0.45, 'rescaleHeight': False, 'trialN': 61, 'loaded': True, 'loadedTime': 2970, 'positionName': 'RIGHT', 'positionCoords': [748.8, 245.5], 'bid': 9.84}]",101969.0,1669833074474,cantaloupe,veggieswithdip,9.87,9.84,-0.02999999999999936,veggieswithdip,1249.699999988079,1259,1258.6000000238419,True,i,103729.90000003576,1760.9000000357628,1669833076235,1761,HRV,HRV_0185,2022-11-30 18:34:39
62,"[{'imgObject': {}, 'id': 'bagel and cc', 'src': '/static/foodstim60/bagel and cc.jpg', 'key': 'u', 'origWidth': 410, 'origHeight': 410, 'width': 410, 'height': 410, 'widthPercent': 0.45, 'rescaleHeight': False, 'trialN': 62, 'loaded': True, 'loadedTime': 2958.100000023842, 'positionName': 'LEFT', 'positionCoords': [281.2, 245], 'bid': 9.87}, {'imgObject': {}, 'id': 'cherry tomato', 'src': '/static/foodstim60/cherry tomato.jpg', 'key': 'i', 'origWidth': 410, 'origHeight': 410, 'width': 410, 'height': 410, 'widthPercent': 0.45, 'rescaleHeight': False, 'trialN': 62, 'loaded': True, 'loadedTime': 3034, 'positionName': 'RIGHT', 'positionCoords': [748.8, 245], 'bid': 9.86}]",103730.10000002384,1669833076235,bagel and cc,cherry tomato,9.87,9.86,-0.009999999999999787,bagel and cc,1359.8999999761581,1369,1369.0,True,u,105602.30000001192,1872.199999988079,1669833078108,1873,HRV,HRV_0185,2022-11-30 18:34:39
63,"[{'imgObject': {}, 'id': 'corn cob', 'src': '/static/foodstim60/corn cob.jpg', 'key': 'u', 'origWidth': 411, 'origHeight': 411, 'width': 411, 'height': 411, 'widthPercent': 0.45, 'rescaleHeight': False, 'trialN': 63, 'loaded': True, 'loadedTime': 2733.900000035763, 'positionName': 'LEFT', 'positionCoords': [280.2, 244.5], 'bid': 9.88}, {'imgObject': {}, 'id': 'granola w milk', 'src': '/static/foodstim60/granola w milk.jpg', 'key': 'i', 'origWidth': 410, 'origHeight': 410, 'width': 410, 'height': 410, 'widthPercent': 0.45, 'rescaleHeight': False, 'trialN': 63, 'loaded': True, 'loadedTime': 2966.699999988079, 'positionName': 'RIGHT', 'positionCoords': [748.8, 245], 'bid': 9.88}]",105602.60000002384,1669833078108,corn cob,granola w milk,9.88,9.88,0.0,granola w milk,1312.300000011921,1321,1321.0,True,i,107425.90000003576,1823.300000011921,1669833079931,1823,HRV,HRV_0185,2022-11-30 18:34:39
64,"[{'imgObject': {}, 'id': 'Grapes', 'src': '/static/foodstim60/Grapes.jpg', 'key': 'u', 'origWidth': 411, 'origHeight': 411, 'width': 411, 'height': 411, 'widthPercent': 0.45, 'rescaleHeight': False, 'trialN': 64, 'loaded': True, 'loadedTime': 2949, 'positionName': 'LEFT', 'positionCoords': [280.2, 244.5], 'bid': 9.9}, {'imgObject': {}, 'id': 'hotdog w must', 'src': '/static/foodstim60/hotdog w must.jpg', 'key': 'i', 'origWidth': 409, 'origHeight': 409, 'width': 409, 'height': 409, 'widthPercent': 0.45, 'rescaleHeight': False, 'trialN': 64, 'loaded': True, 'loadedTime': 2965.600000023842, 'positionName': 'RIGHT', 'positionCoords': [748.8, 245.5], 'bid': 9.87}]",107426.19999998808,1669833079931,Grapes,hotdog w must,9.9,9.87,-0.030000000000001137,hotdog w must,1050.9000000357628,1060,1060.0,True,i,108992.19999998808,1566.0,1669833081498,1567,HRV,HRV_0185,2022-11-30 18:34:39
65,"[{'imgObject': {}, 'id': 'burger', 'src': '/static/foodstim60/burger.jpg', 'key': 'u', 'origWidth': 409, 'origHeight': 409, 'width': 409, 'height': 409, 'widthPercent': 0.45, 'rescaleHeight': False, 'trialN': 65, 'loaded': True, 'loadedTime': 2671.400000035763, 'positionName': 'LEFT', 'positionCoords': [282.2, 245.5], 'bid': 9.9}, {'imgObject': {}, 'id': 'roastedpotatoes', 'src': '/static/foodstim60/roastedpotatoes.jpg', 'key': 'i', 'origWidth': 409, 'origHeight': 410, 'width': 409, 'height': 410, 'widthPercent': 0.45, 'rescaleHeight': False, 'trialN': 65, 'loaded': True, 'loadedTime': 3032.100000023842, 'positionName': 'RIGHT', 'positionCoords': [748.8, 245], 'bid': 9.88}]",108992.60000002384,1669833081498,burger,roastedpotatoes,9.9,9.88,-0.019999999999999574,burger,686.8000000119209,696,696.0,True,u,110194.19999998808,1201.5999999642372,1669833082699,1201,HRV,HRV_0185,2022-11-30 18:34:39
66,"[{'imgObject': {}, 'id': 'luckycharms', 'src': '/static/foodstim60/luckycharms.jpg', 'key': 'u', 'origWidth': 410, 'origHeight': 409, 'width': 410, 'height': 409, 'widthPercent': 0.45, 'rescaleHeight': False, 'trialN': 66, 'loaded': True, 'loadedTime': 2882.100000023842, 'positionName': 'LEFT', 'positionCoords': [281.2, 245.5], 'bid': 9.79}, {'imgObject': {}, 'id': 'olives', 'src': '/static/foodstim60/olives.jpg', 'key': 'i', 'origWidth': 410, 'origHeight': 410, 'width': 410, 'height': 410, 'widthPercent': 0.45, 'rescaleHeight': False, 'trialN': 66, 'loaded': True, 'loadedTime': 2956.800000011921, 'positionName': 'RIGHT', 'positionCoords': [748.8, 245], 'bid': 5.9}]",110194.60000002384,1669833082700,luckycharms,olives,9.79,5.9,-3.889999999999999,luckycharms,3039.300000011921,3048,3048.399999976158,True,u,113745.30000001192,3550.699999988079,1669833086250,3550,HRV,HRV_0185,2022-11-30 18:34:39
67,"[{'imgObject': {}, 'id': 'omelette', 'src': '/static/foodstim60/omelette.jpg', 'key': 'u', 'origWidth': 410, 'origHeight': 409, 'width': 410, 'height': 409, 'widthPercent': 0.45, 'rescaleHeight': False, 'trialN': 67, 'loaded': True, 'loadedTime': 2777.300000011921, 'positionName': 'LEFT', 'positionCoords': [281.2, 245.5], 'bid': 9.83}, {'imgObject': {}, 'id': 'raisin bran w milk', 'src': '/static/foodstim60/raisin bran w milk.jpg', 'key': 'i', 'origWidth': 411, 'origHeight': 411, 'width': 411, 'height': 411, 'widthPercent': 0.45, 'rescaleHeight': False, 'trialN': 67, 'loaded': True, 'loadedTime': 2959.5, 'positionName': 'RIGHT', 'positionCoords': [748.8, 244.5], 'bid': 9.81}]",113745.5,1669833086251,omelette,raisin bran w milk,9.83,9.81,-0.019999999999999574,raisin bran w milk,820.1000000238419,829,829.3000000119209,True,i,115080.90000003576,1335.4000000357628,1669833087586,1335,HRV,HRV_0185,2022-11-30 18:34:39
68,"[{'imgObject': {}, 'id': 'pear', 'src': '/static/foodstim60/pear.jpg', 'key': 'u', 'origWidth': 411, 'origHeight': 410, 'width': 411, 'height': 410, 'widthPercent': 0.45, 'rescaleHeight': False, 'trialN': 68, 'loaded': True, 'loadedTime': 2883.400000035763, 'positionName': 'LEFT', 'positionCoords': [280.2, 245], 'bid': 9.69}, {'imgObject': {}, 'id': 'salad w chicken', 'src': '/static/foodstim60/salad w chicken.jpg', 'key': 'i', 'origWidth': 411, 'origHeight': 411, 'width': 411, 'height': 411, 'widthPercent': 0.45, 'rescaleHeight': False, 'trialN': 68, 'loaded': True, 'loadedTime': 3037.699999988079, 'positionName': 'RIGHT', 'positionCoords': [748.8, 244.5], 'bid': 9.86}]",115081.30000001192,1669833087586,pear,salad w chicken,9.69,9.86,0.16999999999999993,salad w chicken,1047.199999988079,1057,1056.800000011921,True,i,116640.90000003576,1559.6000000238419,1669833089146,1560,HRV,HRV_0185,2022-11-30 18:34:39
69,"[{'imgObject': {}, 'id': 'bagel plain', 'src': '/static/foodstim60/bagel plain.jpg', 'key': 'u', 'origWidth': 410, 'origHeight': 410, 'width': 410, 'height': 410, 'widthPercent': 0.45, 'rescaleHeight': False, 'trialN': 69, 'loaded': True, 'loadedTime': 2755.199999988079, 'positionName': 'LEFT', 'positionCoords': [281.2, 245], 'bid': 7.9}, {'imgObject': {}, 'id': 'chickenfingers', 'src': '/static/foodstim60/chickenfingers.jpg', 'key': 'i', 'origWidth': 410, 'origHeight': 410, 'width': 410, 'height': 410, 'widthPercent': 0.45, 'rescaleHeight': False, 'trialN': 69, 'loaded': True, 'loadedTime': 3033.199999988079, 'positionName': 'RIGHT', 'positionCoords': [748.8, 245], 'bid': 9.84}]",116641.19999998808,1669833089146,bagel plain,chickenfingers,7.9,9.84,1.9399999999999995,chickenfingers,1064.1000000238419,1072,1071.9000000357628,True,i,118217.40000003576,1576.2000000476837,1669833090723,1577,HRV,HRV_0185,2022-11-30 18:34:39
70,"[{'imgObject': {}, 'id': 'popsicles', 'src': '/static/foodstim60/popsicles.jpg', 'key': 'u', 'origWidth': 410, 'origHeight': 410, 'width': 410, 'height': 410, 'widthPercent': 0.45, 'rescaleHeight': False, 'trialN': 70, 'loaded': True, 'loadedTime': 3035.199999988079, 'positionName': 'LEFT', 'positionCoords': [281.2, 245], 'bid': 1.26}, {'imgObject': {}, 'id': 'strawberries', 'src': '/static/foodstim60/strawberries.jpg', 'key': 'i', 'origWidth': 410, 'origHeight': 410, 'width': 410, 'height': 410, 'widthPercent': 0.45, 'rescaleHeight': False, 'trialN': 70, 'loaded': True, 'loadedTime': 2971.900000035763, 'positionName': 'RIGHT', 'positionCoords': [748.8, 245], 'bid': 9.86}]",118217.69999998808,1669833090723,popsicles,strawberries,1.26,9.86,8.6,strawberries,791.9000000357628,801,801.5,True,i,119522.5,1304.800000011921,1669833092028,1305,HRV,HRV_0185,2022-11-30 18:34:39
71,"[{'imgObject': {}, 'id': 'hashbrowns', 'src': '/static/foodstim60/hashbrowns.jpg', 'key': 'u', 'origWidth': 411, 'origHeight': 410, 'width': 411, 'height': 410, 'widthPercent': 0.45, 'rescaleHeight': False, 'trialN': 71, 'loaded': True, 'loadedTime': 2992.400000035763, 'positionName': 'LEFT', 'positionCoords': [280.2, 245], 'bid': 9.87}, {'imgObject': {}, 'id': 'fried eggs', 'src': '/static/foodstim60/fried eggs.jpg', 'key': 'i', 'origWidth': 410, 'origHeight': 410, 'width': 410, 'height': 410, 'widthPercent': 0.45, 'rescaleHeight': False, 'trialN': 71, 'loaded': True, 'loadedTime': 3038.600000023842, 'positionName': 'RIGHT', 'positionCoords': [748.8, 245], 'bid': 9.88}]",119522.80000001192,1669833092028,hashbrowns,fried eggs,9.87,9.88,0.010000000000001563,fried eggs,1085.699999988079,1090,1090.199999988079,True,i,121122.30000001192,1599.5,1669833093627,1599,HRV,HRV_0185,2022-11-30 18:34:39
72,"[{'imgObject': {}, 'id': 'pear', 'src': '/static/foodstim60/pear.jpg', 'key': 'u', 'origWidth': 411, 'origHeight': 410, 'width': 411, 'height': 410, 'widthPercent': 0.45, 'rescaleHeight': False, 'trialN': 72, 'loaded': True, 'loadedTime': 2883.100000023842, 'positionName': 'LEFT', 'positionCoords': [280.2, 245], 'bid': 9.69}, {'imgObject': {}, 'id': 'hashbrowns', 'src': '/static/foodstim60/hashbrowns.jpg', 'key': 'i', 'origWidth': 411, 'origHeight': 410, 'width': 411, 'height': 410, 'widthPercent': 0.45, 'rescaleHeight': False, 'trialN': 72, 'loaded': True, 'loadedTime': 2991.100000023842, 'positionName': 'RIGHT', 'positionCoords': [748.8, 245], 'bid': 9.87}]",121122.60000002384,1669833093628,pear,hashbrowns,9.69,9.87,0.17999999999999972,hashbrowns,1918.5999999642372,1927,1927.5999999642372,True,i,123551.90000003576,2429.300000011921,1669833096057,2429,HRV,HRV_0185,2022-11-30 18:34:39
73,"[{'imgObject': {}, 'id': 'olives', 'src': '/static/foodstim60/olives.jpg', 'key': 'u', 'origWidth': 410, 'origHeight': 410, 'width': 410, 'height': 410, 'widthPercent': 0.45, 'rescaleHeight': False, 'trialN': 73, 'loaded': True, 'loadedTime': 2957, 'positionName': 'LEFT', 'positionCoords': [281.2, 245], 'bid': 5.9}, {'imgObject': {}, 'id': 'turkeysandwich', 'src': '/static/foodstim60/turkeysandwich.jpg', 'key': 'i', 'origWidth': 409, 'origHeight': 409, 'width': 409, 'height': 409, 'widthPercent': 0.45, 'rescaleHeight': False, 'trialN': 73, 'loaded': True, 'loadedTime': 3035.400000035763, 'positionName': 'RIGHT', 'positionCoords': [748.8, 245.5], 'bid': 9.87}]",123552.10000002384,1669833096057,olives,turkeysandwich,5.9,9.87,3.969999999999999,turkeysandwich,790.0999999642372,799,798.5,True,i,124857.40000003576,1305.300000011921,1669833097362,1305,HRV,HRV_0185,2022-11-30 18:34:39
74,"[{'imgObject': {}, 'id': 'mac & cheese', 'src': '/static/foodstim60/mac & cheese.jpg', 'key': 'u', 'origWidth': 410, 'origHeight': 410, 'width': 410, 'height': 410, 'widthPercent': 0.45, 'rescaleHeight': False, 'trialN': 74, 'loaded': True, 'loadedTime': 2740.900000035763, 'positionName': 'LEFT', 'positionCoords': [281.2, 245], 'bid': 6.79}, {'imgObject': {}, 'id': 'edamame', 'src': '/static/foodstim60/edamame.jpg', 'key': 'i', 'origWidth': 409, 'origHeight': 410, 'width': 409, 'height': 410, 'widthPercent': 0.45, 'rescaleHeight': False, 'trialN': 74, 'loaded': True, 'loadedTime': 2692.400000035763, 'positionName': 'RIGHT', 'positionCoords': [748.8, 245], 'bid': 6.2}]",124857.69999998808,1669833097363,mac & cheese,edamame,6.79,6.2,-0.5899999999999999,edamame,1827.300000011921,1837,1837.4000000357628,True,i,127201.19999998808,2343.5,1669833099706,2343,HRV,HRV_0185,2022-11-30 18:34:39
75,"[{'imgObject': {}, 'id': 'mango', 'src': '/static/foodstim60/mango.jpg', 'key': 'u', 'origWidth': 411, 'origHeight': 411, 'width': 411, 'height': 411, 'widthPercent': 0.45, 'rescaleHeight': False, 'trialN': 75, 'loaded': True, 'loadedTime': 2802.900000035763, 'positionName': 'LEFT', 'positionCoords': [280.2, 244.5], 'bid': 9.63}, {'imgObject': {}, 'id': 'Tribe humus pita', 'src': '/static/foodstim60/Tribe humus pita.jpg', 'key': 'i', 'origWidth': 411, 'origHeight': 411, 'width': 411, 'height': 411, 'widthPercent': 0.45, 'rescaleHeight': False, 'trialN': 75, 'loaded': True, 'loadedTime': 2962.900000035763, 'positionName': 'RIGHT', 'positionCoords': [748.8, 244.5], 'bid': 9.84}]",127201.5,1669833099706,mango,Tribe humus pita,9.63,9.84,0.20999999999999908,Tribe humus pita,748.9000000357628,754,753.9000000357628,True,i,128456.5,1255.0,1669833100961,1255,HRV,HRV_0185,2022-11-30 18:34:39
76,"[{'imgObject': {}, 'id': 'salad w chicken', 'src': '/static/foodstim60/salad w chicken.jpg', 'key': 'u', 'origWidth': 411, 'origHeight': 411, 'width': 411, 'height': 411, 'widthPercent': 0.45, 'rescaleHeight': False, 'trialN': 76, 'loaded': True, 'loadedTime': 3037.800000011921, 'positionName': 'LEFT', 'positionCoords': [280.2, 244.5], 'bid': 9.86}, {'imgObject': {}, 'id': 'Tribe humus pita', 'src': '/static/foodstim60/Tribe humus pita.jpg', 'key': 'i', 'origWidth': 411, 'origHeight': 411, 'width': 411, 'height': 411, 'widthPercent': 0.45, 'rescaleHeight': False, 'trialN': 76, 'loaded': True, 'loadedTime': 2962.600000023842, 'positionName': 'RIGHT', 'positionCoords': [748.8, 244.5], 'bid': 9.84}]",128456.80000001192,1669833100962,salad w chicken,Tribe humus pita,9.86,9.84,-0.019999999999999574,salad w chicken,715.1000000238419,724,724.5,True,u,129688.90000003576,1232.1000000238419,1669833102194,1232,HRV,HRV_0185,2022-11-30 18:34:39
77,"[{'imgObject': {}, 'id': 'cheerios', 'src': '/static/foodstim60/cheerios.jpg', 'key': 'u', 'origWidth': 409, 'origHeight': 410, 'width': 409, 'height': 410, 'widthPercent': 0.45, 'rescaleHeight': False, 'trialN': 77, 'loaded': True, 'loadedTime': 3010.400000035763, 'positionName': 'LEFT', 'positionCoords': [282.2, 245], 'bid': 9.87}, {'imgObject': {}, 'id': 'kiwi', 'src': '/static/foodstim60/kiwi.jpg', 'key': 'i', 'origWidth': 410, 'origHeight': 410, 'width': 410, 'height': 410, 'widthPercent': 0.45, 'rescaleHeight': False, 'trialN': 77, 'loaded': True, 'loadedTime': 2747.5, 'positionName': 'RIGHT', 'positionCoords': [748.8, 245], 'bid': 9.87}]",129689.0,1669833102194,cheerios,kiwi,9.87,9.87,0.0,kiwi,974.8000000119209,984,984.3000000119209,True,i,131177.80000001192,1488.800000011921,1669833103683,1489,HRV,HRV_0185,2022-11-30 18:34:39
78,"[{'imgObject': {}, 'id': 'salmon', 'src': '/static/foodstim60/salmon.jpg', 'key': 'u', 'origWidth': 410, 'origHeight': 409, 'width': 410, 'height': 409, 'widthPercent': 0.45, 'rescaleHeight': False, 'trialN': 78, 'loaded': True, 'loadedTime': 3039.600000023842, 'positionName': 'LEFT', 'positionCoords': [281.2, 245.5], 'bid': 9.87}, {'imgObject': {}, 'id': 'froot loops w milk', 'src': '/static/foodstim60/froot loops w milk.jpg', 'key': 'i', 'origWidth': 410, 'origHeight': 410, 'width': 410, 'height': 410, 'widthPercent': 0.45, 'rescaleHeight': False, 'trialN': 78, 'loaded': True, 'loadedTime': 2678.5, 'positionName': 'RIGHT', 'positionCoords': [748.8, 245], 'bid': 9.84}]",131178.19999998808,1669833103683,salmon,froot loops w milk,9.87,9.84,-0.02999999999999936,salmon,1083.6000000238419,1093,1093.1000000238419,True,u,132777.5,1599.300000011921,1669833105282,1599,HRV,HRV_0185,2022-11-30 18:34:39
79,"[{'imgObject': {}, 'id': 'cherry tomato', 'src': '/static/foodstim60/cherry tomato.jpg', 'key': 'u', 'origWidth': 410, 'origHeight': 410, 'width': 410, 'height': 410, 'widthPercent': 0.45, 'rescaleHeight': False, 'trialN': 79, 'loaded': True, 'loadedTime': 3033.199999988079, 'positionName': 'LEFT', 'positionCoords': [281.2, 245], 'bid': 9.86}, {'imgObject': {}, 'id': 'Tribe humus pita', 'src': '/static/foodstim60/Tribe humus pita.jpg', 'key': 'i', 'origWidth': 411, 'origHeight': 411, 'width': 411, 'height': 411, 'widthPercent': 0.45, 'rescaleHeight': False, 'trialN': 79, 'loaded': True, 'loadedTime': 2962.5, 'positionName': 'RIGHT', 'positionCoords': [748.8, 244.5], 'bid': 9.84}]",132777.90000003576,1669833105283,cherry tomato,Tribe humus pita,9.86,9.84,-0.019999999999999574,Tribe humus pita,689.6999999880791,698,698.0999999642372,True,i,133977.80000001192,1199.8999999761581,1669833106483,1200,HRV,HRV_0185,2022-11-30 18:34:39
80,"[{'imgObject': {}, 'id': 'shreddedwheatwithmilk', 'src': '/static/foodstim60/shreddedwheatwithmilk.jpg', 'key': 'u', 'origWidth': 410, 'origHeight': 410, 'width': 410, 'height': 410, 'widthPercent': 0.45, 'rescaleHeight': False, 'trialN': 80, 'loaded': True, 'loadedTime': 2785.400000035763, 'positionName': 'LEFT', 'positionCoords': [281.2, 245], 'bid': 9.91}, {'imgObject': {}, 'id': 'fried eggs', 'src': '/static/foodstim60/fried eggs.jpg', 'key': 'i', 'origWidth': 410, 'origHeight': 410, 'width': 410, 'height': 410, 'widthPercent': 0.45, 'rescaleHeight': False, 'trialN': 80, 'loaded': True, 'loadedTime': 3038.5, 'positionName': 'RIGHT', 'positionCoords': [748.8, 245], 'bid': 9.88}]",133978.19999998808,1669833106483,shreddedwheatwithmilk,fried eggs,9.91,9.88,-0.02999999999999936,fried eggs,796.6000000238419,806,805.5,True,i,135289.30000001192,1311.1000000238419,1669833107794,1311,HRV,HRV_0185,2022-11-30 18:34:39
81,"[{'imgObject': {}, 'id': 'sushi w_condiments', 'src': '/static/foodstim60/sushi w_condiments.jpg', 'key': 'u', 'origWidth': 410, 'origHeight': 410, 'width': 410, 'height': 410, 'widthPercent': 0.45, 'rescaleHeight': False, 'trialN': 81, 'loaded': True, 'loadedTime': 2947.699999988079, 'positionName': 'LEFT', 'positionCoords': [281.2, 245], 'bid': 9.91}, {'imgObject': {}, 'id': 'rigatoni and sauce', 'src': '/static/foodstim60/rigatoni and sauce.jpg', 'key': 'i', 'origWidth': 410, 'origHeight': 411, 'width': 410, 'height': 411, 'widthPercent': 0.45, 'rescaleHeight': False, 'trialN': 81, 'loaded': True, 'loadedTime': 2961.300000011921, 'positionName': 'RIGHT', 'positionCoords': [748.8, 244.5], 'bid': 9.87}]",135289.60000002384,1669833107795,sushi w_condiments,rigatoni and sauce,9.91,9.87,-0.040000000000000924,sushi w_condiments,770.5,779,779.3000000119209,True,u,136577.69999998808,1288.0999999642372,1669833109082,1287,HRV,HRV_0185,2022-11-30 18:34:39
82,"[{'imgObject': {}, 'id': 'cherries', 'src': '/static/foodstim60/cherries.jpg', 'key': 'u', 'origWidth': 410, 'origHeight': 411, 'width': 410, 'height': 411, 'widthPercent': 0.45, 'rescaleHeight': False, 'trialN': 82, 'loaded': True, 'loadedTime': 2737.900000035763, 'positionName': 'LEFT', 'positionCoords': [281.2, 244.5], 'bid': 9.81}, {'imgObject': {}, 'id': 'mashed potato', 'src': '/static/foodstim60/mashed potato.jpg', 'key': 'i', 'origWidth': 409, 'origHeight': 409, 'width': 409, 'height': 409, 'widthPercent': 0.45, 'rescaleHeight': False, 'trialN': 82, 'loaded': True, 'loadedTime': 3039.699999988079, 'positionName': 'RIGHT', 'positionCoords': [748.8, 245.5], 'bid': 9.8}]",136578.0,1669833109083,cherries,mashed potato,9.81,9.8,-0.009999999999999787,mashed potato,891.9000000357628,901,901.1999999880791,True,i,137984.5,1406.5,1669833110489,1406,HRV,HRV_0185,2022-11-30 18:34:39
83,"[{'imgObject': {}, 'id': 'mac & cheese', 'src': '/static/foodstim60/mac & cheese.jpg', 'key': 'u', 'origWidth': 410, 'origHeight': 410, 'width': 410, 'height': 410, 'widthPercent': 0.45, 'rescaleHeight': False, 'trialN': 83, 'loaded': True, 'loadedTime': 2741.100000023842, 'positionName': 'LEFT', 'positionCoords': [281.2, 245], 'bid': 6.79}, {'imgObject': {}, 'id': 'raisin bran w milk', 'src': '/static/foodstim60/raisin bran w milk.jpg', 'key': 'i', 'origWidth': 411, 'origHeight': 411, 'width': 411, 'height': 411, 'widthPercent': 0.45, 'rescaleHeight': False, 'trialN': 83, 'loaded': True, 'loadedTime': 2959.600000023842, 'positionName': 'RIGHT', 'positionCoords': [748.8, 244.5], 'bid': 9.81}]",137984.80000001192,1669833110490,mac & cheese,raisin bran w milk,6.79,9.81,3.0200000000000005,raisin bran w milk,1239.0,1248,1248.6000000238419,True,i,139736.30000001192,1751.5,1669833112241,1751,HRV,HRV_0185,2022-11-30 18:34:39
84,"[{'imgObject': {}, 'id': 'chickenfingers', 'src': '/static/foodstim60/chickenfingers.jpg', 'key': 'u', 'origWidth': 410, 'origHeight': 410, 'width': 410, 'height': 410, 'widthPercent': 0.45, 'rescaleHeight': False, 'trialN': 84, 'loaded': True, 'loadedTime': 3032.900000035763, 'positionName': 'LEFT', 'positionCoords': [281.2, 245], 'bid': 9.84}, {'imgObject': {}, 'id': 'Grapes', 'src': '/static/foodstim60/Grapes.jpg', 'key': 'i', 'origWidth': 411, 'origHeight': 411, 'width': 411, 'height': 411, 'widthPercent': 0.45, 'rescaleHeight': False, 'trialN': 84, 'loaded': True, 'loadedTime': 2949.100000023842, 'positionName': 'RIGHT', 'positionCoords': [748.8, 244.5], 'bid': 9.9}]",139736.60000002384,1669833112241,chickenfingers,Grapes,9.84,9.9,0.0600000000000005,chickenfingers,1212.300000011921,1221,1220.800000011921,True,u,141466.0,1729.3999999761581,1669833113971,1730,HRV,HRV_0185,2022-11-30 18:34:39
85,"[{'imgObject': {}, 'id': 'hashbrowns', 'src': '/static/foodstim60/hashbrowns.jpg', 'key': 'u', 'origWidth': 411, 'origHeight': 410, 'width': 411, 'height': 410, 'widthPercent': 0.45, 'rescaleHeight': False, 'trialN': 85, 'loaded': True, 'loadedTime': 2992.800000011921, 'positionName': 'LEFT', 'positionCoords': [280.2, 245], 'bid': 9.87}, {'imgObject': {}, 'id': 'chicken nuggets2', 'src': '/static/foodstim60/chicken nuggets2.jpg', 'key': 'i', 'origWidth': 410, 'origHeight': 409, 'width': 410, 'height': 409, 'widthPercent': 0.45, 'rescaleHeight': False, 'trialN': 85, 'loaded': True, 'loadedTime': 2963.800000011921, 'positionName': 'RIGHT', 'positionCoords': [748.8, 245.5], 'bid': 9.87}]",141466.19999998808,1669833113971,hashbrowns,chicken nuggets2,9.87,9.87,0.0,chicken nuggets2,691.7000000476837,699,699.4000000357628,True,i,142665.80000001192,1199.6000000238419,1669833115171,1200,HRV,HRV_0185,2022-11-30 18:34:39
86,"[{'imgObject': {}, 'id': 'seaweed', 'src': '/static/foodstim60/seaweed.jpg', 'key': 'u', 'origWidth': 410, 'origHeight': 410, 'width': 410, 'height': 410, 'widthPercent': 0.45, 'rescaleHeight': False, 'trialN': 86, 'loaded': True, 'loadedTime': 2942.800000011921, 'positionName': 'LEFT', 'positionCoords': [281.2, 245], 'bid': 8.72}, {'imgObject': {}, 'id': 'eggsalad', 'src': '/static/foodstim60/eggsalad.jpg', 'key': 'i', 'origWidth': 410, 'origHeight': 409, 'width': 410, 'height': 409, 'widthPercent': 0.45, 'rescaleHeight': False, 'trialN': 86, 'loaded': True, 'loadedTime': 2702.300000011921, 'positionName': 'RIGHT', 'positionCoords': [748.8, 245.5], 'bid': 9.02}]",142666.10000002384,1669833115171,seaweed,eggsalad,8.72,9.02,0.29999999999999893,eggsalad,1655.300000011921,1663,1662.8999999761581,True,i,144833.90000003576,2167.800000011921,1669833117339,2168,HRV,HRV_0185,2022-11-30 18:34:39
87,"[{'imgObject': {}, 'id': 'cheerios', 'src': '/static/foodstim60/cheerios.jpg', 'key': 'u', 'origWidth': 409, 'origHeight': 410, 'width': 409, 'height': 410, 'widthPercent': 0.45, 'rescaleHeight': False, 'trialN': 87, 'loaded': True, 'loadedTime': 3010.600000023842, 'positionName': 'LEFT', 'positionCoords': [282.2, 245], 'bid': 9.87}, {'imgObject': {}, 'id': 'salad w chicken', 'src': '/static/foodstim60/salad w chicken.jpg', 'key': 'i', 'origWidth': 411, 'origHeight': 411, 'width': 411, 'height': 411, 'widthPercent': 0.45, 'rescaleHeight': False, 'trialN': 87, 'loaded': True, 'loadedTime': 3037.699999988079, 'positionName': 'RIGHT', 'positionCoords': [748.8, 244.5], 'bid': 9.86}]",144834.30000001192,1669833117339,cheerios,salad w chicken,9.87,9.86,-0.009999999999999787,salad w chicken,804.1999999880791,815,815.3999999761581,True,i,146154.0,1319.699999988079,1669833118659,1320,HRV,HRV_0185,2022-11-30 18:34:39
88,"[{'imgObject': {}, 'id': 'mashed potato', 'src': '/static/foodstim60/mashed potato.jpg', 'key': 'u', 'origWidth': 409, 'origHeight': 409, 'width': 409, 'height': 409, 'widthPercent': 0.45, 'rescaleHeight': False, 'trialN': 88, 'loaded': True, 'loadedTime': 3040.199999988079, 'positionName': 'LEFT', 'positionCoords': [282.2, 245.5], 'bid': 9.8}, {'imgObject': {}, 'id': 'fried eggs', 'src': '/static/foodstim60/fried eggs.jpg', 'key': 'i', 'origWidth': 410, 'origHeight': 410, 'width': 410, 'height': 410, 'widthPercent': 0.45, 'rescaleHeight': False, 'trialN': 88, 'loaded': True, 'loadedTime': 3038.600000023842, 'positionName': 'RIGHT', 'positionCoords': [748.8, 245], 'bid': 9.88}]",146154.40000003576,1669833118659,mashed potato,fried eggs,9.8,9.88,0.08000000000000007,mashed potato,1218.699999988079,1228,1228.0999999642372,True,u,147884.30000001192,1729.8999999761581,1669833120389,1730,HRV,HRV_0185,2022-11-30 18:34:39
89,"[{'imgObject': {}, 'id': 'eggsalad', 'src': '/static/foodstim60/eggsalad.jpg', 'key': 'u', 'origWidth': 410, 'origHeight': 409, 'width': 410, 'height': 409, 'widthPercent': 0.45, 'rescaleHeight': False, 'trialN': 89, 'loaded': True, 'loadedTime': 2703.300000011921, 'positionName': 'LEFT', 'positionCoords': [281.2, 245.5], 'bid': 9.02}, {'imgObject': {}, 'id': 'veggieswithdip', 'src': '/static/foodstim60/veggieswithdip.jpg', 'key': 'i', 'origWidth': 409, 'origHeight': 409, 'width': 409, 'height': 409, 'widthPercent': 0.45, 'rescaleHeight': False, 'trialN': 89, 'loaded': True, 'loadedTime': 2969.800000011921, 'positionName': 'RIGHT', 'positionCoords': [748.8, 245.5], 'bid': 9.84}]",147884.60000002384,1669833120389,eggsalad,veggieswithdip,9.02,9.84,0.8200000000000003,veggieswithdip,898.1999999880791,907,906.8999999761581,True,i,149297.80000001192,1413.199999988079,1669833121802,1413,HRV,HRV_0185,2022-11-30 18:34:39
90,"[{'imgObject': {}, 'id': 'sushi w_condiments', 'src': '/static/foodstim60/sushi w_condiments.jpg', 'key': 'u', 'origWidth': 410, 'origHeight': 410, 'width': 410, 'height': 410, 'widthPercent': 0.45, 'rescaleHeight': False, 'trialN': 90, 'loaded': True, 'loadedTime': 2947.600000023842, 'positionName': 'LEFT', 'positionCoords': [281.2, 245], 'bid': 9.91}, {'imgObject': {}, 'id': 'burger', 'src': '/static/foodstim60/burger.jpg', 'key': 'i', 'origWidth': 409, 'origHeight': 409, 'width': 409, 'height': 409, 'widthPercent': 0.45, 'rescaleHeight': False, 'trialN': 90, 'loaded': True, 'loadedTime': 2670.300000011921, 'positionName': 'RIGHT', 'positionCoords': [748.8, 245.5], 'bid': 9.9}]",151377.90000003576,1669833123882,sushi w_condiments,burger,9.91,9.9,-0.009999999999999787,sushi w_condiments,863.3999999761581,873,872.0,True,u,152753.19999998808,1375.2999999523163,1669833125258,1376,HRV,HRV_0185,2022-11-30 18:34:39
91,"[{'imgObject': {}, 'id': 'blueberries', 'src': '/static/foodstim60/blueberries.jpg', 'key': 'u', 'origWidth': 411, 'origHeight': 411, 'width': 411, 'height': 411, 'widthPercent': 0.45, 'rescaleHeight': False, 'trialN': 91, 'loaded': True, 'loadedTime': 3030.5, 'positionName': 'LEFT', 'positionCoords': [280.2, 244.5], 'bid': 9.93}, {'imgObject': {}, 'id': 'roastedpotatoes', 'src': '/static/foodstim60/roastedpotatoes.jpg', 'key': 'i', 'origWidth': 409, 'origHeight': 410, 'width': 409, 'height': 410, 'widthPercent': 0.45, 'rescaleHeight': False, 'trialN': 91, 'loaded': True, 'loadedTime': 3031.900000035763, 'positionName': 'RIGHT', 'positionCoords': [748.8, 245], 'bid': 9.88}]",152753.69999998808,1669833125258,blueberries,roastedpotatoes,9.93,9.88,-0.049999999999998934,blueberries,1558.2000000476837,1567,1567.2000000476837,True,u,154826.10000002384,2072.400000035763,1669833127331,2073,HRV,HRV_0185,2022-11-30 18:34:39
92,"[{'imgObject': {}, 'id': 'grilled chicken strips', 'src': '/static/foodstim60/grilled chicken strips.jpg', 'key': 'u', 'origWidth': 410, 'origHeight': 411, 'width': 410, 'height': 411, 'widthPercent': 0.45, 'rescaleHeight': False, 'trialN': 92, 'loaded': True, 'loadedTime': 2992.900000035763, 'positionName': 'LEFT', 'positionCoords': [281.2, 244.5], 'bid': 9.93}, {'imgObject': {}, 'id': 'Grapes', 'src': '/static/foodstim60/Grapes.jpg', 'key': 'i', 'origWidth': 411, 'origHeight': 411, 'width': 411, 'height': 411, 'widthPercent': 0.45, 'rescaleHeight': False, 'trialN': 92, 'loaded': True, 'loadedTime': 2948.100000023842, 'positionName': 'RIGHT', 'positionCoords': [748.8, 244.5], 'bid': 9.9}]",154826.5,1669833127331,grilled chicken strips,Grapes,9.93,9.9,-0.02999999999999936,grilled chicken strips,1244.4000000357628,1252,1251.699999988079,True,u,156579.90000003576,1753.4000000357628,1669833129084,1753,HRV,HRV_0185,2022-11-30 18:34:39
93,"[{'imgObject': {}, 'id': 'apple slices', 'src': '/static/foodstim60/apple slices.jpg', 'key': 'u', 'origWidth': 409, 'origHeight': 410, 'width': 409, 'height': 410, 'widthPercent': 0.45, 'rescaleHeight': False, 'trialN': 93, 'loaded': True, 'loadedTime': 2949.900000035763, 'positionName': 'LEFT', 'positionCoords': [282.2, 245], 'bid': 9.87}, {'imgObject': {}, 'id': 'rigatoni and sauce', 'src': '/static/foodstim60/rigatoni and sauce.jpg', 'key': 'i', 'origWidth': 410, 'origHeight': 411, 'width': 410, 'height': 411, 'widthPercent': 0.45, 'rescaleHeight': False, 'trialN': 93, 'loaded': True, 'loadedTime': 2960.900000035763, 'positionName': 'RIGHT', 'positionCoords': [748.8, 244.5], 'bid': 9.87}]",156580.19999998808,1669833129085,apple slices,rigatoni and sauce,9.87,9.87,0.0,rigatoni and sauce,2003.5,2011,2011.6000000238419,True,i,159096.5,2516.300000011921,1669833131601,2516,HRV,HRV_0185,2022-11-30 18:34:39
94,"[{'imgObject': {}, 'id': 'salmon', 'src': '/static/foodstim60/salmon.jpg', 'key': 'u', 'origWidth': 410, 'origHeight': 409, 'width': 410, 'height': 409, 'widthPercent': 0.45, 'rescaleHeight': False, 'trialN': 94, 'loaded': True, 'loadedTime': 3039.5, 'positionName': 'LEFT', 'positionCoords': [281.2, 245.5], 'bid': 9.87}, {'imgObject': {}, 'id': 'rigatoni', 'src': '/static/foodstim60/rigatoni.jpg', 'key': 'i', 'origWidth': 411, 'origHeight': 411, 'width': 411, 'height': 411, 'widthPercent': 0.45, 'rescaleHeight': False, 'trialN': 94, 'loaded': True, 'loadedTime': 2679.600000023842, 'positionName': 'RIGHT', 'positionCoords': [748.8, 244.5], 'bid': 5.87}]",159096.80000001192,1669833131601,salmon,rigatoni,9.87,5.87,-3.999999999999999,salmon,691.0,699,698.8000000119209,True,u,160298.19999998808,1201.3999999761581,1669833132803,1202,HRV,HRV_0185,2022-11-30 18:34:39
95,"[{'imgObject': {}, 'id': 'pear', 'src': '/static/foodstim60/pear.jpg', 'key': 'u', 'origWidth': 411, 'origHeight': 410, 'width': 411, 'height': 410, 'widthPercent': 0.45, 'rescaleHeight': False, 'trialN': 95, 'loaded': True, 'loadedTime': 2883.400000035763, 'positionName': 'LEFT', 'positionCoords': [280.2, 245], 'bid': 9.69}, {'imgObject': {}, 'id': 'yogurt no spoon', 'src': '/static/foodstim60/yogurt no spoon.jpg', 'key': 'i', 'origWidth': 411, 'origHeight': 410, 'width': 411, 'height': 410, 'widthPercent': 0.45, 'rescaleHeight': False, 'trialN': 95, 'loaded': True, 'loadedTime': 2951.800000011921, 'positionName': 'RIGHT', 'positionCoords': [748.8, 245], 'bid': 9.34}]",160298.60000002384,1669833132803,pear,yogurt no spoon,9.69,9.34,-0.34999999999999964,yogurt no spoon,1492.5999999642372,1501,1500.699999988079,True,i,162304.90000003576,2006.300000011921,1669833134809,2006,HRV,HRV_0185,2022-11-30 18:34:39
96,"[{'imgObject': {}, 'id': 'burrito', 'src': '/static/foodstim60/burrito.jpg', 'key': 'u', 'origWidth': 410, 'origHeight': 410, 'width': 410, 'height': 410, 'widthPercent': 0.45, 'rescaleHeight': False, 'trialN': 96, 'loaded': True, 'loadedTime': 2700.800000011921, 'positionName': 'LEFT', 'positionCoords': [281.2, 245], 'bid': 8.01}, {'imgObject': {}, 'id': 'steak', 'src': '/static/foodstim60/steak.jpg', 'key': 'i', 'origWidth': 410, 'origHeight': 410, 'width': 410, 'height': 410, 'widthPercent': 0.45, 'rescaleHeight': False, 'trialN': 96, 'loaded': True, 'loadedTime': 2955.300000011921, 'positionName': 'RIGHT', 'positionCoords': [748.8, 245], 'bid': 5.45}]",162305.10000002384,1669833134810,burrito,steak,8.01,5.45,-2.5599999999999996,burrito,1955.800000011921,1965,1965.5999999642372,True,u,164777.19999998808,2472.099999964237,1669833137282,2472,HRV,HRV_0185,2022-11-30 18:34:39
97,"[{'imgObject': {}, 'id': 'granola w milk', 'src': '/static/foodstim60/granola w milk.jpg', 'key': 'u', 'origWidth': 410, 'origHeight': 410, 'width': 410, 'height': 410, 'widthPercent': 0.45, 'rescaleHeight': False, 'trialN': 97, 'loaded': True, 'loadedTime': 2967.600000023842, 'positionName': 'LEFT', 'positionCoords': [281.2, 245], 'bid': 9.88}, {'imgObject': {}, 'id': 'cantaloupe', 'src': '/static/foodstim60/cantaloupe.jpg', 'key': 'i', 'origWidth': 409, 'origHeight': 409, 'width': 409, 'height': 409, 'widthPercent': 0.45, 'rescaleHeight': False, 'trialN': 97, 'loaded': True, 'loadedTime': 2951.199999988079, 'positionName': 'RIGHT', 'positionCoords': [748.8, 245.5], 'bid': 9.87}]",164777.5,1669833137282,granola w milk,cantaloupe,9.88,9.87,-0.010000000000001563,cantaloupe,2163.199999988079,2172,2171.800000011921,True,i,167458.60000002384,2681.100000023842,1669833139963,2681,HRV,HRV_0185,2022-11-30 18:34:39
98,"[{'imgObject': {}, 'id': 'froot loops w milk', 'src': '/static/foodstim60/froot loops w milk.jpg', 'key': 'u', 'origWidth': 410, 'origHeight': 410, 'width': 410, 'height': 410, 'widthPercent': 0.45, 'rescaleHeight': False, 'trialN': 98, 'loaded': True, 'loadedTime': 2678.199999988079, 'positionName': 'LEFT', 'positionCoords': [281.2, 245], 'bid': 9.84}, {'imgObject': {}, 'id': 'avocado', 'src': '/static/foodstim60/avocado.jpg', 'key': 'i', 'origWidth': 409, 'origHeight': 409, 'width': 409, 'height': 409, 'widthPercent': 0.45, 'rescaleHeight': False, 'trialN': 98, 'loaded': True, 'loadedTime': 2974.199999988079, 'positionName': 'RIGHT', 'positionCoords': [748.8, 245.5], 'bid': 9.84}]",167459.0,1669833139963,froot loops w milk,avocado,9.84,9.84,0.0,avocado,1223.4000000357628,1233,1233.1000000238419,True,i,169200.60000002384,1741.6000000238419,1669833141705,1742,HRV,HRV_0185,2022-11-30 18:34:39
99,"[{'imgObject': {}, 'id': 'roastedpotatoes', 'src': '/static/foodstim60/roastedpotatoes.jpg', 'key': 'u', 'origWidth': 409, 'origHeight': 410, 'width': 409, 'height': 410, 'widthPercent': 0.45, 'rescaleHeight': False, 'trialN': 99, 'loaded': True, 'loadedTime': 3032.199999988079, 'positionName': 'LEFT', 'positionCoords': [282.2, 245], 'bid': 9.88}, {'imgObject': {}, 'id': 'cherries', 'src': '/static/foodstim60/cherries.jpg', 'key': 'i', 'origWidth': 410, 'origHeight': 411, 'width': 410, 'height': 411, 'widthPercent': 0.45, 'rescaleHeight': False, 'trialN': 99, 'loaded': True, 'loadedTime': 2739.300000011921, 'positionName': 'RIGHT', 'positionCoords': [748.8, 244.5], 'bid': 9.81}]",169200.90000003576,1669833141705,roastedpotatoes,cherries,9.88,9.81,-0.07000000000000028,cherries,964.5,972,971.3999999761581,True,i,170682.60000002384,1481.699999988079,1669833143187,1482,HRV,HRV_0185,2022-11-30 18:34:39
100,"[{'imgObject': {}, 'id': 'steak', 'src': '/static/foodstim60/steak.jpg', 'key': 'u', 'origWidth': 410, 'origHeight': 410, 'width': 410, 'height': 410, 'widthPercent': 0.45, 'rescaleHeight': False, 'trialN': 100, 'loaded': True, 'loadedTime': 2955.199999988079, 'positionName': 'LEFT', 'positionCoords': [281.2, 245], 'bid': 5.45}, {'imgObject': {}, 'id': 'mango', 'src': '/static/foodstim60/mango.jpg', 'key': 'i', 'origWidth': 411, 'origHeight': 411, 'width': 411, 'height': 411, 'widthPercent': 0.45, 'rescaleHeight': False, 'trialN': 100, 'loaded': True, 'loadedTime': 2802.699999988079, 'positionName': 'RIGHT', 'positionCoords': [748.8, 244.5], 'bid': 9.63}]",170682.90000003576,1669833143187,steak,mango,5.45,9.63,4.180000000000001,mango,1114.5999999642372,1123,1123.0999999642372,True,i,172313.30000001192,1630.3999999761581,1669833144818,1631,HRV,HRV_0185,2022-11-30 18:34:39
101,"[{'imgObject': {}, 'id': 'baked potato', 'src': '/static/foodstim60/baked potato.jpg', 'key': 'u', 'origWidth': 409, 'origHeight': 410, 'width': 409, 'height': 410, 'widthPercent': 0.45, 'rescaleHeight': False, 'trialN': 101, 'loaded': True, 'loadedTime': 2966.199999988079, 'positionName': 'LEFT', 'positionCoords': [282.2, 245], 'bid': 9.83}, {'imgObject': {}, 'id': 'banana', 'src': '/static/foodstim60/banana.jpg', 'key': 'i', 'origWidth': 410, 'origHeight': 410, 'width': 410, 'height': 410, 'widthPercent': 0.45, 'rescaleHeight': False, 'trialN': 101, 'loaded': True, 'loadedTime': 2946.5, 'positionName': 'RIGHT', 'positionCoords': [748.8, 245], 'bid': 9.86}]",172313.60000002384,1669833144818,baked potato,banana,9.83,9.86,0.02999999999999936,baked potato,2053.699999988079,2063,2062.800000011921,True,u,174882.5,2568.899999976158,1669833147387,2569,HRV,HRV_0185,2022-11-30 18:34:39
102,"[{'imgObject': {}, 'id': 'corn cob', 'src': '/static/foodstim60/corn cob.jpg', 'key': 'u', 'origWidth': 411, 'origHeight': 411, 'width': 411, 'height': 411, 'widthPercent': 0.45, 'rescaleHeight': False, 'trialN': 102, 'loaded': True, 'loadedTime': 2735.600000023842, 'positionName': 'LEFT', 'positionCoords': [280.2, 244.5], 'bid': 9.88}, {'imgObject': {}, 'id': 'rigatoni and sauce', 'src': '/static/foodstim60/rigatoni and sauce.jpg', 'key': 'i', 'origWidth': 410, 'origHeight': 411, 'width': 410, 'height': 411, 'widthPercent': 0.45, 'rescaleHeight': False, 'trialN': 102, 'loaded': True, 'loadedTime': 2961, 'positionName': 'RIGHT', 'positionCoords': [748.8, 244.5], 'bid': 9.87}]",174882.69999998808,1669833147387,corn cob,rigatoni and sauce,9.88,9.87,-0.010000000000001563,rigatoni and sauce,1427.800000011921,1437,1437.1000000238419,True,i,176825.19999998808,1942.5,1669833149329,1942,HRV,HRV_0185,2022-11-30 18:34:39
103,"[{'imgObject': {}, 'id': 'sushi w_condiments', 'src': '/static/foodstim60/sushi w_condiments.jpg', 'key': 'u', 'origWidth': 410, 'origHeight': 410, 'width': 410, 'height': 410, 'widthPercent': 0.45, 'rescaleHeight': False, 'trialN': 103, 'loaded': True, 'loadedTime': 2947.800000011921, 'positionName': 'LEFT', 'positionCoords': [281.2, 245], 'bid': 9.91}, {'imgObject': {}, 'id': 'avocado', 'src': '/static/foodstim60/avocado.jpg', 'key': 'i', 'origWidth': 409, 'origHeight': 409, 'width': 409, 'height': 409, 'widthPercent': 0.45, 'rescaleHeight': False, 'trialN': 103, 'loaded': True, 'loadedTime': 2975, 'positionName': 'RIGHT', 'positionCoords': [748.8, 245.5], 'bid': 9.84}]",176825.60000002384,1669833149330,sushi w_condiments,avocado,9.91,9.84,-0.07000000000000028,sushi w_condiments,784.6999999880791,794,794.0999999642372,True,u,178121.10000002384,1295.5,1669833150625,1295,HRV,HRV_0185,2022-11-30 18:34:39
104,"[{'imgObject': {}, 'id': 'mashed potato', 'src': '/static/foodstim60/mashed potato.jpg', 'key': 'u', 'origWidth': 409, 'origHeight': 409, 'width': 409, 'height': 409, 'widthPercent': 0.45, 'rescaleHeight': False, 'trialN': 104, 'loaded': True, 'loadedTime': 3040.300000011921, 'positionName': 'LEFT', 'positionCoords': [282.2, 245.5], 'bid': 9.8}, {'imgObject': {}, 'id': 'popsicles', 'src': '/static/foodstim60/popsicles.jpg', 'key': 'i', 'origWidth': 410, 'origHeight': 410, 'width': 410, 'height': 410, 'widthPercent': 0.45, 'rescaleHeight': False, 'trialN': 104, 'loaded': True, 'loadedTime': 3034.100000023842, 'positionName': 'RIGHT', 'positionCoords': [748.8, 245], 'bid': 1.26}]",178121.19999998808,1669833150625,mashed potato,popsicles,9.8,1.26,-8.540000000000001,mashed potato,1220.2000000476837,1230,1229.4000000357628,True,u,179857.80000001192,1736.6000000238419,1669833152362,1737,HRV,HRV_0185,2022-11-30 18:34:39
105,"[{'imgObject': {}, 'id': 'popsicles', 'src': '/static/foodstim60/popsicles.jpg', 'key': 'u', 'origWidth': 410, 'origHeight': 410, 'width': 410, 'height': 410, 'widthPercent': 0.45, 'rescaleHeight': False, 'trialN': 105, 'loaded': True, 'loadedTime': 3035.300000011921, 'positionName': 'LEFT', 'positionCoords': [281.2, 245], 'bid': 1.26}, {'imgObject': {}, 'id': 'mac & cheese', 'src': '/static/foodstim60/mac & cheese.jpg', 'key': 'i', 'origWidth': 410, 'origHeight': 410, 'width': 410, 'height': 410, 'widthPercent': 0.45, 'rescaleHeight': False, 'trialN': 105, 'loaded': True, 'loadedTime': 2740.900000035763, 'positionName': 'RIGHT', 'positionCoords': [748.8, 245], 'bid': 6.79}]",179858.0,1669833152362,popsicles,mac & cheese,1.26,6.79,5.53,mac & cheese,1217.800000011921,1228,1227.6000000238419,True,i,181593.40000003576,1735.4000000357628,1669833154097,1735,HRV,HRV_0185,2022-11-30 18:34:39
106,"[{'imgObject': {}, 'id': 'fruitsalad', 'src': '/static/foodstim60/fruitsalad.jpg', 'key': 'u', 'origWidth': 410, 'origHeight': 410, 'width': 410, 'height': 410, 'widthPercent': 0.45, 'rescaleHeight': False, 'trialN': 106, 'loaded': True, 'loadedTime': 2988.400000035763, 'positionName': 'LEFT', 'positionCoords': [281.2, 245], 'bid': 9.91}, {'imgObject': {}, 'id': 'shreddedwheatwithmilk', 'src': '/static/foodstim60/shreddedwheatwithmilk.jpg', 'key': 'i', 'origWidth': 410, 'origHeight': 410, 'width': 410, 'height': 410, 'widthPercent': 0.45, 'rescaleHeight': False, 'trialN': 106, 'loaded': True, 'loadedTime': 2785.300000011921, 'positionName': 'RIGHT', 'positionCoords': [748.8, 245], 'bid': 9.91}]",181593.69999998808,1669833154098,fruitsalad,shreddedwheatwithmilk,9.91,9.91,0.0,fruitsalad,773.4000000357628,782,782.1000000238419,True,u,182882.69999998808,1289.0,1669833155387,1289,HRV,HRV_0185,2022-11-30 18:34:39
107,"[{'imgObject': {}, 'id': 'olives', 'src': '/static/foodstim60/olives.jpg', 'key': 'u', 'origWidth': 410, 'origHeight': 410, 'width': 410, 'height': 410, 'widthPercent': 0.45, 'rescaleHeight': False, 'trialN': 107, 'loaded': True, 'loadedTime': 2956.800000011921, 'positionName': 'LEFT', 'positionCoords': [281.2, 245], 'bid': 5.9}, {'imgObject': {}, 'id': 'mac & cheese', 'src': '/static/foodstim60/mac & cheese.jpg', 'key': 'i', 'origWidth': 410, 'origHeight': 410, 'width': 410, 'height': 410, 'widthPercent': 0.45, 'rescaleHeight': False, 'trialN': 107, 'loaded': True, 'loadedTime': 2740.100000023842, 'positionName': 'RIGHT', 'positionCoords': [748.8, 245], 'bid': 6.79}]",182882.90000003576,1669833155387,olives,mac & cheese,5.9,6.79,0.8899999999999997,mac & cheese,1257.5999999642372,1265,1264.7999999523163,True,i,184649.60000002384,1766.699999988079,1669833157154,1767,HRV,HRV_0185,2022-11-30 18:34:39
108,"[{'imgObject': {}, 'id': 'edamame', 'src': '/static/foodstim60/edamame.jpg', 'key': 'u', 'origWidth': 409, 'origHeight': 410, 'width': 409, 'height': 410, 'widthPercent': 0.45, 'rescaleHeight': False, 'trialN': 108, 'loaded': True, 'loadedTime': 2691.900000035763, 'positionName': 'LEFT', 'positionCoords': [282.2, 245], 'bid': 6.2}, {'imgObject': {}, 'id': 'ice cream sundae 002', 'src': '/static/foodstim60/ice cream sundae 002.jpg', 'key': 'i', 'origWidth': 409, 'origHeight': 409, 'width': 409, 'height': 409, 'widthPercent': 0.45, 'rescaleHeight': False, 'trialN': 108, 'loaded': True, 'loadedTime': 2799.800000011921, 'positionName': 'RIGHT', 'positionCoords': [748.8, 245.5], 'bid': 1.16}]",184649.80000001192,1669833157154,edamame,ice cream sundae 002,6.2,1.16,-5.04,edamame,1503.8999999761581,1514,1514.199999988079,True,u,186665.90000003576,2016.1000000238419,1669833159170,2016,HRV,HRV_0185,2022-11-30 18:34:39
