trialN,stimuli,question,trialStartTime,trialStartTime_UNIX,stimulus1,rt,receivedResponse,rating,trialEndTime,trialDuration,stimulus1Loaded,exp,subjectId,date
0,"[{'imgObject': {}, 'id': 'mashed potato', 'src': '/static/foodstim60/mashed potato.jpg', 'key': 'NaN', 'origWidth': 409, 'origHeight': 409, 'width': 409, 'height': 409, 'widthPercent': 0.8, 'rescaleHeight': True, 'trialN': 0, 'loaded': True, 'loadedTime': 2805.5, 'positionName': 'CENTER', 'positionCoords': [554.5, 222.5]}]",Rate how much you want to eat this food from 0 (least) to 10 (most).,4018.899999999441,1669829873956,mashed potato,4931.700000000186,True,2.02,8950.599999999627,4931.700000000186,True,HRV,HRV_0124,2022-11-30 17:40:15
1,"[{'imgObject': {}, 'id': 'chicken nuggets2', 'src': '/static/foodstim60/chicken nuggets2.jpg', 'key': 'NaN', 'origWidth': 410, 'origHeight': 409, 'width': 410, 'height': 409, 'widthPercent': 0.8, 'rescaleHeight': True, 'trialN': 1, 'loaded': True, 'loadedTime': 2838.2999999998137, 'positionName': 'CENTER', 'positionCoords': [554, 222.5]}]",Rate how much you want to eat this food from 0 (least) to 10 (most).,8952.799999999814,1669829878890,chicken nuggets2,2813.9000000003725,True,5.0200000000000005,11766.700000000186,2813.9000000003725,True,HRV,HRV_0124,2022-11-30 17:40:15
2,"[{'imgObject': {}, 'id': 'sweetpotato', 'src': '/static/foodstim60/sweetpotato.jpg', 'key': 'NaN', 'origWidth': 410, 'origHeight': 410, 'width': 410, 'height': 410, 'widthPercent': 0.8, 'rescaleHeight': True, 'trialN': 2, 'loaded': True, 'loadedTime': 2841.7999999998137, 'positionName': 'CENTER', 'positionCoords': [554, 222]}]",Rate how much you want to eat this food from 0 (least) to 10 (most).,11767.599999999627,1669829881704,sweetpotato,1967.2000000001863,True,5.01,13734.799999999814,1967.2000000001863,True,HRV,HRV_0124,2022-11-30 17:40:15
3,"[{'imgObject': {}, 'id': 'cocktailshrimp', 'src': '/static/foodstim60/cocktailshrimp.jpg', 'key': 'NaN', 'origWidth': 410, 'origHeight': 410, 'width': 410, 'height': 410, 'widthPercent': 0.8, 'rescaleHeight': True, 'trialN': 3, 'loaded': True, 'loadedTime': 2863, 'positionName': 'CENTER', 'positionCoords': [554, 222]}]",Rate how much you want to eat this food from 0 (least) to 10 (most).,13735.599999999627,1669829883672,cocktailshrimp,2119.2000000001863,True,6.93,15854.799999999814,2119.2000000001863,True,HRV,HRV_0124,2022-11-30 17:40:15
4,"[{'imgObject': {}, 'id': 'fruitsalad', 'src': '/static/foodstim60/fruitsalad.jpg', 'key': 'NaN', 'origWidth': 410, 'origHeight': 410, 'width': 410, 'height': 410, 'widthPercent': 0.8, 'rescaleHeight': True, 'trialN': 4, 'loaded': True, 'loadedTime': 2883.899999999441, 'positionName': 'CENTER', 'positionCoords': [554, 222]}]",Rate how much you want to eat this food from 0 (least) to 10 (most).,15855.599999999627,1669829885792,fruitsalad,1775.1000000005588,True,8.63,17630.700000000186,1775.1000000005588,True,HRV,HRV_0124,2022-11-30 17:40:15
5,"[{'imgObject': {}, 'id': 'corn cob', 'src': '/static/foodstim60/corn cob.jpg', 'key': 'NaN', 'origWidth': 411, 'origHeight': 411, 'width': 411, 'height': 411, 'widthPercent': 0.8, 'rescaleHeight': True, 'trialN': 5, 'loaded': True, 'loadedTime': 2910.5999999996275, 'positionName': 'CENTER', 'positionCoords': [553.5, 221.5]}]",Rate how much you want to eat this food from 0 (least) to 10 (most).,17631.599999999627,1669829887568,corn cob,1527.0,True,6.23,19158.599999999627,1527.0,True,HRV,HRV_0124,2022-11-30 17:40:15
6,"[{'imgObject': {}, 'id': 'cherry tomato', 'src': '/static/foodstim60/cherry tomato.jpg', 'key': 'NaN', 'origWidth': 410, 'origHeight': 410, 'width': 410, 'height': 410, 'widthPercent': 0.8, 'rescaleHeight': True, 'trialN': 6, 'loaded': True, 'loadedTime': 2893.399999999441, 'positionName': 'CENTER', 'positionCoords': [554, 222]}]",Rate how much you want to eat this food from 0 (least) to 10 (most).,19159.39999999944,1669829889096,cherry tomato,1831.4000000003725,True,4.09,20990.799999999814,1831.4000000003725,True,HRV,HRV_0124,2022-11-30 17:40:15
7,"[{'imgObject': {}, 'id': 'yogurt no spoon', 'src': '/static/foodstim60/yogurt no spoon.jpg', 'key': 'NaN', 'origWidth': 411, 'origHeight': 410, 'width': 411, 'height': 410, 'widthPercent': 0.8, 'rescaleHeight': True, 'trialN': 7, 'loaded': True, 'loadedTime': 2923, 'positionName': 'CENTER', 'positionCoords': [553.5, 222]}]",Rate how much you want to eat this food from 0 (least) to 10 (most).,20991.599999999627,1669829890928,yogurt no spoon,1767.1000000005588,True,1.85,22758.700000000186,1767.1000000005588,True,HRV,HRV_0124,2022-11-30 17:40:15
8,"[{'imgObject': {}, 'id': 'Tribe humus pita', 'src': '/static/foodstim60/Tribe humus pita.jpg', 'key': 'NaN', 'origWidth': 411, 'origHeight': 411, 'width': 411, 'height': 411, 'widthPercent': 0.8, 'rescaleHeight': True, 'trialN': 8, 'loaded': True, 'loadedTime': 2949.399999999441, 'positionName': 'CENTER', 'positionCoords': [553.5, 221.5]}]",Rate how much you want to eat this food from 0 (least) to 10 (most).,22759.700000000186,1669829892696,Tribe humus pita,2511.0999999996275,True,5.0600000000000005,25270.799999999814,2511.0999999996275,True,HRV,HRV_0124,2022-11-30 17:40:15
9,"[{'imgObject': {}, 'id': 'salad w chicken', 'src': '/static/foodstim60/salad w chicken.jpg', 'key': 'NaN', 'origWidth': 411, 'origHeight': 411, 'width': 411, 'height': 411, 'widthPercent': 0.8, 'rescaleHeight': True, 'trialN': 9, 'loaded': True, 'loadedTime': 2992.399999999441, 'positionName': 'CENTER', 'positionCoords': [553.5, 221.5]}]",Rate how much you want to eat this food from 0 (least) to 10 (most).,25271.700000000186,1669829895208,salad w chicken,3319.0999999996275,True,7.33,28590.799999999814,3319.0999999996275,True,HRV,HRV_0124,2022-11-30 17:40:15
10,"[{'imgObject': {}, 'id': 'pear', 'src': '/static/foodstim60/pear.jpg', 'key': 'NaN', 'origWidth': 411, 'origHeight': 410, 'width': 411, 'height': 410, 'widthPercent': 0.8, 'rescaleHeight': True, 'trialN': 10, 'loaded': True, 'loadedTime': 2981.7999999998137, 'positionName': 'CENTER', 'positionCoords': [553.5, 222]}]",Rate how much you want to eat this food from 0 (least) to 10 (most).,28591.599999999627,1669829898528,pear,2271.100000000559,True,5.83,30862.700000000186,2271.100000000559,True,HRV,HRV_0124,2022-11-30 17:40:15
11,"[{'imgObject': {}, 'id': 'roastedpotatoes', 'src': '/static/foodstim60/roastedpotatoes.jpg', 'key': 'NaN', 'origWidth': 409, 'origHeight': 410, 'width': 409, 'height': 410, 'widthPercent': 0.8, 'rescaleHeight': True, 'trialN': 11, 'loaded': True, 'loadedTime': 3008, 'positionName': 'CENTER', 'positionCoords': [554.5, 222]}]",Rate how much you want to eat this food from 0 (least) to 10 (most).,30863.799999999814,1669829900801,roastedpotatoes,1654.7000000001863,True,3.77,32518.5,1654.7000000001863,True,HRV,HRV_0124,2022-11-30 17:40:15
12,"[{'imgObject': {}, 'id': 'turkey sandwich', 'src': '/static/foodstim60/turkey sandwich.jpg', 'key': 'NaN', 'origWidth': 409, 'origHeight': 409, 'width': 409, 'height': 409, 'widthPercent': 0.8, 'rescaleHeight': True, 'trialN': 12, 'loaded': True, 'loadedTime': 3025.5999999996275, 'positionName': 'CENTER', 'positionCoords': [554.5, 222.5]}]",Rate how much you want to eat this food from 0 (least) to 10 (most).,32519.39999999944,1669829902456,turkey sandwich,2991.4000000003725,True,6.17,35510.799999999814,2991.4000000003725,True,HRV,HRV_0124,2022-11-30 17:40:15
13,"[{'imgObject': {}, 'id': 'edamame', 'src': '/static/foodstim60/edamame.jpg', 'key': 'NaN', 'origWidth': 409, 'origHeight': 410, 'width': 409, 'height': 410, 'widthPercent': 0.8, 'rescaleHeight': True, 'trialN': 13, 'loaded': True, 'loadedTime': 3043.899999999441, 'positionName': 'CENTER', 'positionCoords': [554.5, 222]}]",Rate how much you want to eat this food from 0 (least) to 10 (most).,35511.700000000186,1669829905448,edamame,3022.899999999441,True,4.23,38534.59999999963,3022.899999999441,True,HRV,HRV_0124,2022-11-30 17:40:15
14,"[{'imgObject': {}, 'id': 'orange slices', 'src': '/static/foodstim60/orange slices.jpg', 'key': 'NaN', 'origWidth': 409, 'origHeight': 410, 'width': 409, 'height': 410, 'widthPercent': 0.8, 'rescaleHeight': True, 'trialN': 14, 'loaded': True, 'loadedTime': 3072.5, 'positionName': 'CENTER', 'positionCoords': [554.5, 222]}]",Rate how much you want to eat this food from 0 (least) to 10 (most).,38535.59999999963,1669829908472,orange slices,2431.100000000559,True,5.01,40966.700000000186,2431.100000000559,True,HRV,HRV_0124,2022-11-30 17:40:15
15,"[{'imgObject': {}, 'id': 'raisin bran w milk', 'src': '/static/foodstim60/raisin bran w milk.jpg', 'key': 'NaN', 'origWidth': 411, 'origHeight': 411, 'width': 411, 'height': 411, 'widthPercent': 0.8, 'rescaleHeight': True, 'trialN': 15, 'loaded': True, 'loadedTime': 3091.7999999998137, 'positionName': 'CENTER', 'positionCoords': [553.5, 221.5]}]",Rate how much you want to eat this food from 0 (least) to 10 (most).,40967.799999999814,1669829910905,raisin bran w milk,2135.0,True,3.89,43102.799999999814,2135.0,True,HRV,HRV_0124,2022-11-30 17:40:15
16,"[{'imgObject': {}, 'id': 'rigatoni and sauce', 'src': '/static/foodstim60/rigatoni and sauce.jpg', 'key': 'NaN', 'origWidth': 410, 'origHeight': 411, 'width': 410, 'height': 411, 'widthPercent': 0.8, 'rescaleHeight': True, 'trialN': 16, 'loaded': True, 'loadedTime': 3112.2999999998137, 'positionName': 'CENTER', 'positionCoords': [554, 221.5]}]",Rate how much you want to eat this food from 0 (least) to 10 (most).,43104.0,1669829913041,rigatoni and sauce,1902.7999999998137,True,7.21,45006.799999999814,1902.7999999998137,True,HRV,HRV_0124,2022-11-30 17:40:15
17,"[{'imgObject': {}, 'id': 'burger', 'src': '/static/foodstim60/burger.jpg', 'key': 'NaN', 'origWidth': 409, 'origHeight': 409, 'width': 409, 'height': 409, 'widthPercent': 0.8, 'rescaleHeight': True, 'trialN': 17, 'loaded': True, 'loadedTime': 3132.399999999441, 'positionName': 'CENTER', 'positionCoords': [554.5, 222.5]}]",Rate how much you want to eat this food from 0 (least) to 10 (most).,45007.799999999814,1669829914945,burger,2478.9000000003725,True,5.64,47486.700000000186,2478.9000000003725,True,HRV,HRV_0124,2022-11-30 17:40:15
18,"[{'imgObject': {}, 'id': 'eggs', 'src': '/static/foodstim60/eggs.jpg', 'key': 'NaN', 'origWidth': 409, 'origHeight': 409, 'width': 409, 'height': 409, 'widthPercent': 0.8, 'rescaleHeight': True, 'trialN': 18, 'loaded': True, 'loadedTime': 3168.2999999998137, 'positionName': 'CENTER', 'positionCoords': [554.5, 222.5]}]",Rate how much you want to eat this food from 0 (least) to 10 (most).,47487.799999999814,1669829917425,eggs,2726.9000000003725,True,2.79,50214.700000000186,2726.9000000003725,True,HRV,HRV_0124,2022-11-30 17:40:15
19,"[{'imgObject': {}, 'id': 'tacos', 'src': '/static/foodstim60/tacos.jpg', 'key': 'NaN', 'origWidth': 411, 'origHeight': 411, 'width': 411, 'height': 411, 'widthPercent': 0.8, 'rescaleHeight': True, 'trialN': 19, 'loaded': True, 'loadedTime': 3177.5999999996275, 'positionName': 'CENTER', 'positionCoords': [553.5, 221.5]}]",Rate how much you want to eat this food from 0 (least) to 10 (most).,50215.799999999814,1669829920150,tacos,1799.4000000003725,True,5.03,52015.200000000186,1799.4000000003725,True,HRV,HRV_0124,2022-11-30 17:40:15
20,"[{'imgObject': {}, 'id': 'hashbrowns', 'src': '/static/foodstim60/hashbrowns.jpg', 'key': 'NaN', 'origWidth': 411, 'origHeight': 410, 'width': 411, 'height': 410, 'widthPercent': 0.8, 'rescaleHeight': True, 'trialN': 20, 'loaded': True, 'loadedTime': 3201.0999999996275, 'positionName': 'CENTER', 'positionCoords': [553.5, 222]}]",Rate how much you want to eat this food from 0 (least) to 10 (most).,52015.89999999944,1669829921950,hashbrowns,1478.800000000745,True,3.5500000000000003,53494.700000000186,1478.800000000745,True,HRV,HRV_0124,2022-11-30 17:40:15
21,"[{'imgObject': {}, 'id': 'seaweed', 'src': '/static/foodstim60/seaweed.jpg', 'key': 'NaN', 'origWidth': 410, 'origHeight': 410, 'width': 410, 'height': 410, 'widthPercent': 0.8, 'rescaleHeight': True, 'trialN': 21, 'loaded': True, 'loadedTime': 3222.7000000001863, 'positionName': 'CENTER', 'positionCoords': [554, 222]}]",Rate how much you want to eat this food from 0 (least) to 10 (most).,53495.5,1669829923430,seaweed,5663.299999999814,True,4.32,59158.799999999814,5663.299999999814,True,HRV,HRV_0124,2022-11-30 17:40:15
22,"[{'imgObject': {}, 'id': 'olives', 'src': '/static/foodstim60/olives.jpg', 'key': 'NaN', 'origWidth': 410, 'origHeight': 410, 'width': 410, 'height': 410, 'widthPercent': 0.8, 'rescaleHeight': True, 'trialN': 22, 'loaded': True, 'loadedTime': 3243.399999999441, 'positionName': 'CENTER', 'positionCoords': [554, 222]}]",Rate how much you want to eat this food from 0 (least) to 10 (most).,59159.59999999963,1669829929094,olives,1503.1000000005588,True,3.64,60662.700000000186,1503.1000000005588,True,HRV,HRV_0124,2022-11-30 17:40:15
23,"[{'imgObject': {}, 'id': 'banana', 'src': '/static/foodstim60/banana.jpg', 'key': 'NaN', 'origWidth': 410, 'origHeight': 410, 'width': 410, 'height': 410, 'widthPercent': 0.8, 'rescaleHeight': True, 'trialN': 23, 'loaded': True, 'loadedTime': 3263.0999999996275, 'positionName': 'CENTER', 'positionCoords': [554, 222]}]",Rate how much you want to eat this food from 0 (least) to 10 (most).,60663.5,1669829930598,banana,1391.2000000001863,True,6.96,62054.700000000186,1391.2000000001863,True,HRV,HRV_0124,2022-11-30 17:40:15
24,"[{'imgObject': {}, 'id': 'avocado', 'src': '/static/foodstim60/avocado.jpg', 'key': 'NaN', 'origWidth': 409, 'origHeight': 409, 'width': 409, 'height': 409, 'widthPercent': 0.8, 'rescaleHeight': True, 'trialN': 24, 'loaded': True, 'loadedTime': 3296.399999999441, 'positionName': 'CENTER', 'positionCoords': [554.5, 222.5]}]",Rate how much you want to eat this food from 0 (least) to 10 (most).,62055.59999999963,1669829931990,avocado,1559.1000000005588,True,3.14,63614.700000000186,1559.1000000005588,True,HRV,HRV_0124,2022-11-30 17:40:15
25,"[{'imgObject': {}, 'id': 'luckycharms', 'src': '/static/foodstim60/luckycharms.jpg', 'key': 'NaN', 'origWidth': 410, 'origHeight': 409, 'width': 410, 'height': 409, 'widthPercent': 0.8, 'rescaleHeight': True, 'trialN': 25, 'loaded': True, 'loadedTime': 3343.5999999996275, 'positionName': 'CENTER', 'positionCoords': [554, 222.5]}]",Rate how much you want to eat this food from 0 (least) to 10 (most).,63615.5,1669829933550,luckycharms,3199.2999999998137,True,5.68,66814.79999999981,3199.2999999998137,True,HRV,HRV_0124,2022-11-30 17:40:15
26,"[{'imgObject': {}, 'id': 'burrito', 'src': '/static/foodstim60/burrito.jpg', 'key': 'NaN', 'origWidth': 410, 'origHeight': 410, 'width': 410, 'height': 410, 'widthPercent': 0.8, 'rescaleHeight': True, 'trialN': 26, 'loaded': True, 'loadedTime': 3339, 'positionName': 'CENTER', 'positionCoords': [554, 222]}]",Rate how much you want to eat this food from 0 (least) to 10 (most).,66815.70000000019,1669829936750,burrito,1694.8999999994412,True,5.71,68510.59999999963,1694.8999999994412,True,HRV,HRV_0124,2022-11-30 17:40:15
27,"[{'imgObject': {}, 'id': 'turkeysandwich', 'src': '/static/foodstim60/turkeysandwich.jpg', 'key': 'NaN', 'origWidth': 409, 'origHeight': 409, 'width': 409, 'height': 409, 'widthPercent': 0.8, 'rescaleHeight': True, 'trialN': 27, 'loaded': True, 'loadedTime': 3357, 'positionName': 'CENTER', 'positionCoords': [554.5, 222.5]}]",Rate how much you want to eat this food from 0 (least) to 10 (most).,68511.39999999944,1669829938445,turkeysandwich,1327.300000000745,True,5.72,69838.70000000019,1327.300000000745,True,HRV,HRV_0124,2022-11-30 17:40:15
28,"[{'imgObject': {}, 'id': 'ice cream sundae 002', 'src': '/static/foodstim60/ice cream sundae 002.jpg', 'key': 'NaN', 'origWidth': 409, 'origHeight': 409, 'width': 409, 'height': 409, 'widthPercent': 0.8, 'rescaleHeight': True, 'trialN': 28, 'loaded': True, 'loadedTime': 3414.7000000001863, 'positionName': 'CENTER', 'positionCoords': [554.5, 222.5]}]",Rate how much you want to eat this food from 0 (least) to 10 (most).,69839.59999999963,1669829939774,ice cream sundae 002,1431.1000000005588,True,3.0700000000000003,71270.70000000019,1431.1000000005588,True,HRV,HRV_0124,2022-11-30 17:40:15
29,"[{'imgObject': {}, 'id': 'cheerios', 'src': '/static/foodstim60/cheerios.jpg', 'key': 'NaN', 'origWidth': 409, 'origHeight': 410, 'width': 409, 'height': 410, 'widthPercent': 0.8, 'rescaleHeight': True, 'trialN': 29, 'loaded': True, 'loadedTime': 3398.2000000001863, 'positionName': 'CENTER', 'positionCoords': [554.5, 222]}]",Rate how much you want to eat this food from 0 (least) to 10 (most).,71271.59999999963,1669829941206,cheerios,2183.0,True,4.97,73454.59999999963,2183.0,True,HRV,HRV_0124,2022-11-30 17:40:15
30,"[{'imgObject': {}, 'id': 'omelette', 'src': '/static/foodstim60/omelette.jpg', 'key': 'NaN', 'origWidth': 410, 'origHeight': 409, 'width': 410, 'height': 409, 'widthPercent': 0.8, 'rescaleHeight': True, 'trialN': 30, 'loaded': True, 'loadedTime': 3417.7999999998137, 'positionName': 'CENTER', 'positionCoords': [554, 222.5]}]",Rate how much you want to eat this food from 0 (least) to 10 (most).,73455.5,1669829943389,omelette,2447.7999999998137,True,3.47,75903.29999999981,2447.7999999998137,True,HRV,HRV_0124,2022-11-30 17:40:15
31,"[{'imgObject': {}, 'id': 'baked potato', 'src': '/static/foodstim60/baked potato.jpg', 'key': 'NaN', 'origWidth': 409, 'origHeight': 410, 'width': 409, 'height': 410, 'widthPercent': 0.8, 'rescaleHeight': True, 'trialN': 31, 'loaded': True, 'loadedTime': 3441.7000000001863, 'positionName': 'CENTER', 'positionCoords': [554.5, 222]}]",Rate how much you want to eat this food from 0 (least) to 10 (most).,75904.39999999944,1669829945838,baked potato,2006.300000000745,True,4.97,77910.70000000019,2006.300000000745,True,HRV,HRV_0124,2022-11-30 17:40:15
32,"[{'imgObject': {}, 'id': 'sushi w_condiments', 'src': '/static/foodstim60/sushi w_condiments.jpg', 'key': 'NaN', 'origWidth': 410, 'origHeight': 410, 'width': 410, 'height': 410, 'widthPercent': 0.8, 'rescaleHeight': True, 'trialN': 32, 'loaded': True, 'loadedTime': 3461.2999999998137, 'positionName': 'CENTER', 'positionCoords': [554, 222]}]",Rate how much you want to eat this food from 0 (least) to 10 (most).,77911.59999999963,1669829947846,sushi w_condiments,2263.100000000559,True,0.7000000000000001,80174.70000000019,2263.100000000559,True,HRV,HRV_0124,2022-11-30 17:40:15
33,"[{'imgObject': {}, 'id': 'lox', 'src': '/static/foodstim60/lox.jpg', 'key': 'NaN', 'origWidth': 410, 'origHeight': 411, 'width': 410, 'height': 411, 'widthPercent': 0.8, 'rescaleHeight': True, 'trialN': 33, 'loaded': True, 'loadedTime': 3485.399999999441, 'positionName': 'CENTER', 'positionCoords': [554, 221.5]}]",Rate how much you want to eat this food from 0 (least) to 10 (most).,80175.79999999981,1669829950110,lox,2111.0999999996275,True,0.65,82286.89999999944,2111.0999999996275,True,HRV,HRV_0124,2022-11-30 17:40:15
34,"[{'imgObject': {}, 'id': 'hotdog w must', 'src': '/static/foodstim60/hotdog w must.jpg', 'key': 'NaN', 'origWidth': 409, 'origHeight': 409, 'width': 409, 'height': 409, 'widthPercent': 0.8, 'rescaleHeight': True, 'trialN': 34, 'loaded': True, 'loadedTime': 3502.2000000001863, 'positionName': 'CENTER', 'positionCoords': [554.5, 222.5]}]",Rate how much you want to eat this food from 0 (least) to 10 (most).,82288.0,1669829952222,hotdog w must,2822.5,True,6.17,85110.5,2822.5,True,HRV,HRV_0124,2022-11-30 17:40:15
35,"[{'imgObject': {}, 'id': 'chickenfingers', 'src': '/static/foodstim60/chickenfingers.jpg', 'key': 'NaN', 'origWidth': 410, 'origHeight': 410, 'width': 410, 'height': 410, 'widthPercent': 0.8, 'rescaleHeight': True, 'trialN': 35, 'loaded': True, 'loadedTime': 3524.399999999441, 'positionName': 'CENTER', 'positionCoords': [554, 222]}]",Rate how much you want to eat this food from 0 (least) to 10 (most).,85111.5,1669829955045,chickenfingers,1471.0999999996275,True,5.88,86582.59999999963,1471.0999999996275,True,HRV,HRV_0124,2022-11-30 17:40:15
36,"[{'imgObject': {}, 'id': 'raspberries', 'src': '/static/foodstim60/raspberries.jpg', 'key': 'NaN', 'origWidth': 411, 'origHeight': 411, 'width': 411, 'height': 411, 'widthPercent': 0.8, 'rescaleHeight': True, 'trialN': 36, 'loaded': True, 'loadedTime': 3565.899999999441, 'positionName': 'CENTER', 'positionCoords': [553.5, 221.5]}]",Rate how much you want to eat this food from 0 (least) to 10 (most).,86583.79999999981,1669829956518,raspberries,2038.9000000003725,True,5.32,88622.70000000019,2038.9000000003725,True,HRV,HRV_0124,2022-11-30 17:40:15
37,"[{'imgObject': {}, 'id': 'popsicles', 'src': '/static/foodstim60/popsicles.jpg', 'key': 'NaN', 'origWidth': 410, 'origHeight': 410, 'width': 410, 'height': 410, 'widthPercent': 0.8, 'rescaleHeight': True, 'trialN': 37, 'loaded': True, 'loadedTime': 3575.0999999996275, 'positionName': 'CENTER', 'positionCoords': [554, 222]}]",Rate how much you want to eat this food from 0 (least) to 10 (most).,88623.79999999981,1669829958558,popsicles,1791.2999999998137,True,3.15,90415.09999999963,1791.2999999998137,True,HRV,HRV_0124,2022-11-30 17:40:15
38,"[{'imgObject': {}, 'id': 'grilled chicken strips', 'src': '/static/foodstim60/grilled chicken strips.jpg', 'key': 'NaN', 'origWidth': 410, 'origHeight': 411, 'width': 410, 'height': 411, 'widthPercent': 0.8, 'rescaleHeight': True, 'trialN': 38, 'loaded': True, 'loadedTime': 3589.7000000001863, 'positionName': 'CENTER', 'positionCoords': [554, 221.5]}]",Rate how much you want to eat this food from 0 (least) to 10 (most).,90416.39999999944,1669829960350,grilled chicken strips,2334.300000000745,True,5.79,92750.70000000019,2334.300000000745,True,HRV,HRV_0124,2022-11-30 17:40:15
39,"[{'imgObject': {}, 'id': 'strawberries', 'src': '/static/foodstim60/strawberries.jpg', 'key': 'NaN', 'origWidth': 410, 'origHeight': 410, 'width': 410, 'height': 410, 'widthPercent': 0.8, 'rescaleHeight': True, 'trialN': 39, 'loaded': True, 'loadedTime': 3607.2999999998137, 'positionName': 'CENTER', 'positionCoords': [554, 222]}]",Rate how much you want to eat this food from 0 (least) to 10 (most).,92751.59999999963,1669829962686,strawberries,2303.100000000559,True,4.89,95054.70000000019,2303.100000000559,True,HRV,HRV_0124,2022-11-30 17:40:15
40,"[{'imgObject': {}, 'id': 'steak', 'src': '/static/foodstim60/steak.jpg', 'key': 'NaN', 'origWidth': 410, 'origHeight': 410, 'width': 410, 'height': 410, 'widthPercent': 0.8, 'rescaleHeight': True, 'trialN': 40, 'loaded': True, 'loadedTime': 3630.399999999441, 'positionName': 'CENTER', 'positionCoords': [554, 222]}]",Rate how much you want to eat this food from 0 (least) to 10 (most).,95055.39999999944,1669829964989,steak,1703.300000000745,True,5.83,96758.70000000019,1703.300000000745,True,HRV,HRV_0124,2022-11-30 17:40:15
41,"[{'imgObject': {}, 'id': 'rigatoni', 'src': '/static/foodstim60/rigatoni.jpg', 'key': 'NaN', 'origWidth': 411, 'origHeight': 411, 'width': 411, 'height': 411, 'widthPercent': 0.8, 'rescaleHeight': True, 'trialN': 41, 'loaded': True, 'loadedTime': 3661.5999999996275, 'positionName': 'CENTER', 'positionCoords': [553.5, 221.5]}]",Rate how much you want to eat this food from 0 (least) to 10 (most).,96759.5,1669829966694,rigatoni,1535.2000000001863,True,5.86,98294.70000000019,1535.2000000001863,True,HRV,HRV_0124,2022-11-30 17:40:15
42,"[{'imgObject': {}, 'id': 'salmon', 'src': '/static/foodstim60/salmon.jpg', 'key': 'NaN', 'origWidth': 410, 'origHeight': 409, 'width': 410, 'height': 409, 'widthPercent': 0.8, 'rescaleHeight': True, 'trialN': 42, 'loaded': True, 'loadedTime': 3676.5, 'positionName': 'CENTER', 'positionCoords': [554, 222.5]}]",Rate how much you want to eat this food from 0 (least) to 10 (most).,98295.39999999944,1669829968229,salmon,1999.300000000745,True,2.68,100294.70000000019,1999.300000000745,True,HRV,HRV_0124,2022-11-30 17:40:15
43,"[{'imgObject': {}, 'id': 'fried eggs', 'src': '/static/foodstim60/fried eggs.jpg', 'key': 'NaN', 'origWidth': 410, 'origHeight': 410, 'width': 410, 'height': 410, 'widthPercent': 0.8, 'rescaleHeight': True, 'trialN': 43, 'loaded': True, 'loadedTime': 3691.2000000001863, 'positionName': 'CENTER', 'positionCoords': [554, 222]}]",Rate how much you want to eat this food from 0 (least) to 10 (most).,100295.5,1669829970229,fried eggs,2055.2999999998137,True,5.05,102350.79999999981,2055.2999999998137,True,HRV,HRV_0124,2022-11-30 17:40:15
44,"[{'imgObject': {}, 'id': 'froot loops w milk', 'src': '/static/foodstim60/froot loops w milk.jpg', 'key': 'NaN', 'origWidth': 410, 'origHeight': 410, 'width': 410, 'height': 410, 'widthPercent': 0.8, 'rescaleHeight': True, 'trialN': 44, 'loaded': True, 'loadedTime': 3715.7000000001863, 'positionName': 'CENTER', 'positionCoords': [554, 222]}]",Rate how much you want to eat this food from 0 (least) to 10 (most).,102351.59999999963,1669829972286,froot loops w milk,1647.1000000005588,True,6.58,103998.70000000019,1647.1000000005588,True,HRV,HRV_0124,2022-11-30 17:40:15
45,"[{'imgObject': {}, 'id': 'eggsalad', 'src': '/static/foodstim60/eggsalad.jpg', 'key': 'NaN', 'origWidth': 410, 'origHeight': 409, 'width': 410, 'height': 409, 'widthPercent': 0.8, 'rescaleHeight': True, 'trialN': 45, 'loaded': True, 'loadedTime': 3731.899999999441, 'positionName': 'CENTER', 'positionCoords': [554, 222.5]}]",Rate how much you want to eat this food from 0 (least) to 10 (most).,103999.59999999963,1669829973934,eggsalad,1447.2000000001863,True,3.48,105446.79999999981,1447.2000000001863,True,HRV,HRV_0124,2022-11-30 17:40:15
46,"[{'imgObject': {}, 'id': 'mac & cheese', 'src': '/static/foodstim60/mac & cheese.jpg', 'key': 'NaN', 'origWidth': 410, 'origHeight': 410, 'width': 410, 'height': 410, 'widthPercent': 0.8, 'rescaleHeight': True, 'trialN': 46, 'loaded': True, 'loadedTime': 3755.0999999996275, 'positionName': 'CENTER', 'positionCoords': [554, 222]}]",Rate how much you want to eat this food from 0 (least) to 10 (most).,105447.59999999963,1669829975382,mac & cheese,2023.1000000005588,True,9.05,107470.70000000019,2023.1000000005588,True,HRV,HRV_0124,2022-11-30 17:40:15
47,"[{'imgObject': {}, 'id': 'blackbeanswithrice', 'src': '/static/foodstim60/blackbeanswithrice.jpg', 'key': 'NaN', 'origWidth': 410, 'origHeight': 410, 'width': 410, 'height': 410, 'widthPercent': 0.8, 'rescaleHeight': True, 'trialN': 47, 'loaded': True, 'loadedTime': 3778.5999999996275, 'positionName': 'CENTER', 'positionCoords': [554, 222]}]",Rate how much you want to eat this food from 0 (least) to 10 (most).,107471.59999999963,1669829977406,blackbeanswithrice,2230.9000000003725,True,6.51,109702.5,2230.9000000003725,True,HRV,HRV_0124,2022-11-30 17:40:15
48,"[{'imgObject': {}, 'id': 'bagel and cc', 'src': '/static/foodstim60/bagel and cc.jpg', 'key': 'NaN', 'origWidth': 410, 'origHeight': 410, 'width': 410, 'height': 410, 'widthPercent': 0.8, 'rescaleHeight': True, 'trialN': 48, 'loaded': True, 'loadedTime': 3802.2000000001863, 'positionName': 'CENTER', 'positionCoords': [554, 222]}]",Rate how much you want to eat this food from 0 (least) to 10 (most).,109703.29999999981,1669829979635,bagel and cc,6191.4000000003725,True,3.48,115894.70000000019,6191.4000000003725,True,HRV,HRV_0124,2022-11-30 17:40:15
49,"[{'imgObject': {}, 'id': 'bagel plain', 'src': '/static/foodstim60/bagel plain.jpg', 'key': 'NaN', 'origWidth': 410, 'origHeight': 410, 'width': 410, 'height': 410, 'widthPercent': 0.8, 'rescaleHeight': True, 'trialN': 49, 'loaded': True, 'loadedTime': 3820.399999999441, 'positionName': 'CENTER', 'positionCoords': [554, 222]}]",Rate how much you want to eat this food from 0 (least) to 10 (most).,115895.70000000019,1669829985827,bagel plain,1287.0999999996275,True,3.5300000000000002,117182.79999999981,1287.0999999996275,True,HRV,HRV_0124,2022-11-30 17:40:15
50,"[{'imgObject': {}, 'id': 'cantaloupe', 'src': '/static/foodstim60/cantaloupe.jpg', 'key': 'NaN', 'origWidth': 409, 'origHeight': 409, 'width': 409, 'height': 409, 'widthPercent': 0.8, 'rescaleHeight': True, 'trialN': 50, 'loaded': True, 'loadedTime': 3836.0999999996275, 'positionName': 'CENTER', 'positionCoords': [554.5, 222.5]}]",Rate how much you want to eat this food from 0 (least) to 10 (most).,117183.70000000019,1669829987115,cantaloupe,1743.0,True,6.43,118926.70000000019,1743.0,True,HRV,HRV_0124,2022-11-30 17:40:15
51,"[{'imgObject': {}, 'id': 'shreddedwheatwithmilk', 'src': '/static/foodstim60/shreddedwheatwithmilk.jpg', 'key': 'NaN', 'origWidth': 410, 'origHeight': 410, 'width': 410, 'height': 410, 'widthPercent': 0.8, 'rescaleHeight': True, 'trialN': 51, 'loaded': True, 'loadedTime': 3863.899999999441, 'positionName': 'CENTER', 'positionCoords': [554, 222]}]",Rate how much you want to eat this food from 0 (least) to 10 (most).,118927.70000000019,1669829988859,shreddedwheatwithmilk,2207.0,True,5.3100000000000005,121134.70000000019,2207.0,True,HRV,HRV_0124,2022-11-30 17:40:15
52,"[{'imgObject': {}, 'id': 'apple slices', 'src': '/static/foodstim60/apple slices.jpg', 'key': 'NaN', 'origWidth': 409, 'origHeight': 410, 'width': 409, 'height': 410, 'widthPercent': 0.8, 'rescaleHeight': True, 'trialN': 52, 'loaded': True, 'loadedTime': 3881.0999999996275, 'positionName': 'CENTER', 'positionCoords': [554.5, 222]}]",Rate how much you want to eat this food from 0 (least) to 10 (most).,121135.70000000019,1669829991067,apple slices,4287.0,True,5.5200000000000005,125422.70000000019,4287.0,True,HRV,HRV_0124,2022-11-30 17:40:15
53,"[{'imgObject': {}, 'id': 'Grapes', 'src': '/static/foodstim60/Grapes.jpg', 'key': 'NaN', 'origWidth': 411, 'origHeight': 411, 'width': 411, 'height': 411, 'widthPercent': 0.8, 'rescaleHeight': True, 'trialN': 53, 'loaded': True, 'loadedTime': 3906.2000000001863, 'positionName': 'CENTER', 'positionCoords': [553.5, 221.5]}]",Rate how much you want to eat this food from 0 (least) to 10 (most).,125423.79999999981,1669829995355,Grapes,1518.9000000003725,True,5.68,126942.70000000019,1518.9000000003725,True,HRV,HRV_0124,2022-11-30 17:40:15
54,"[{'imgObject': {}, 'id': 'granola w milk', 'src': '/static/foodstim60/granola w milk.jpg', 'key': 'NaN', 'origWidth': 410, 'origHeight': 410, 'width': 410, 'height': 410, 'widthPercent': 0.8, 'rescaleHeight': True, 'trialN': 54, 'loaded': True, 'loadedTime': 3915.5, 'positionName': 'CENTER', 'positionCoords': [554, 222]}]",Rate how much you want to eat this food from 0 (least) to 10 (most).,126943.79999999981,1669829996875,granola w milk,1622.9000000003725,True,3.89,128566.70000000019,1622.9000000003725,True,HRV,HRV_0124,2022-11-30 17:40:15
55,"[{'imgObject': {}, 'id': 'veggieswithdip', 'src': '/static/foodstim60/veggieswithdip.jpg', 'key': 'NaN', 'origWidth': 409, 'origHeight': 409, 'width': 409, 'height': 409, 'widthPercent': 0.8, 'rescaleHeight': True, 'trialN': 55, 'loaded': True, 'loadedTime': 3937, 'positionName': 'CENTER', 'positionCoords': [554.5, 222.5]}]",Rate how much you want to eat this food from 0 (least) to 10 (most).,128567.70000000019,1669829998499,veggieswithdip,3023.0,True,4.98,131590.7000000002,3023.0,True,HRV,HRV_0124,2022-11-30 17:40:15
56,"[{'imgObject': {}, 'id': 'blueberries', 'src': '/static/foodstim60/blueberries.jpg', 'key': 'NaN', 'origWidth': 411, 'origHeight': 411, 'width': 411, 'height': 411, 'widthPercent': 0.8, 'rescaleHeight': True, 'trialN': 56, 'loaded': True, 'loadedTime': 3957.7999999998137, 'positionName': 'CENTER', 'positionCoords': [553.5, 221.5]}]",Rate how much you want to eat this food from 0 (least) to 10 (most).,131592.0,1669830001523,blueberries,1590.7000000001863,True,5.97,133182.7000000002,1590.7000000001863,True,HRV,HRV_0124,2022-11-30 17:40:15
57,"[{'imgObject': {}, 'id': 'mango', 'src': '/static/foodstim60/mango.jpg', 'key': 'NaN', 'origWidth': 411, 'origHeight': 411, 'width': 411, 'height': 411, 'widthPercent': 0.8, 'rescaleHeight': True, 'trialN': 57, 'loaded': True, 'loadedTime': 3979, 'positionName': 'CENTER', 'positionCoords': [553.5, 221.5]}]",Rate how much you want to eat this food from 0 (least) to 10 (most).,133183.7999999998,1669830003115,mango,2583.5999999996275,True,5.4,135767.39999999944,2583.5999999996275,True,HRV,HRV_0124,2022-11-30 17:40:15
58,"[{'imgObject': {}, 'id': 'cherries', 'src': '/static/foodstim60/cherries.jpg', 'key': 'NaN', 'origWidth': 410, 'origHeight': 411, 'width': 410, 'height': 411, 'widthPercent': 0.8, 'rescaleHeight': True, 'trialN': 58, 'loaded': True, 'loadedTime': 4009.2999999998137, 'positionName': 'CENTER', 'positionCoords': [554, 221.5]}]",Rate how much you want to eat this food from 0 (least) to 10 (most).,135768.5,1669830005700,cherries,7605.899999999441,True,5.0,143374.39999999944,7605.899999999441,True,HRV,HRV_0124,2022-11-30 17:40:15
59,"[{'imgObject': {}, 'id': 'kiwi', 'src': '/static/foodstim60/kiwi.jpg', 'key': 'NaN', 'origWidth': 410, 'origHeight': 410, 'width': 410, 'height': 410, 'widthPercent': 0.8, 'rescaleHeight': True, 'trialN': 59, 'loaded': True, 'loadedTime': 4018.5, 'positionName': 'CENTER', 'positionCoords': [554, 222]}]",Rate how much you want to eat this food from 0 (least) to 10 (most).,143375.2000000002,1669830013307,kiwi,1864.0,True,3.31,145239.2000000002,1864.0,True,HRV,HRV_0124,2022-11-30 17:40:15
