trialN,stimuli,trialStartTime,trialStartTime_UNIX,stimulus1,stimulus2,stimulus1Bid,stimulus2Bid,delta,selected,rt,rt_UNIX,rt_perfnow,receivedResponse,rsp,trialEndTime,trialDuration,trialEndTime_UNIX,trialDuration_UNIX,exp,subjectId,date
0,"[{'imgObject': {}, 'id': 'veggieswithdip', 'src': '/static/foodstim60/veggieswithdip.jpg', 'key': 'u', 'origWidth': 409, 'origHeight': 409, 'width': 409, 'height': 409, 'widthPercent': 0.45, 'rescaleHeight': False, 'trialN': 0, 'loaded': True, 'loadedTime': 4148.300000000745, 'positionName': 'LEFT', 'positionCoords': [232.28, 171.5], 'bid': 4.03}, {'imgObject': {}, 'id': 'raspberries', 'src': '/static/foodstim60/raspberries.jpg', 'key': 'i', 'origWidth': 411, 'origHeight': 411, 'width': 411, 'height': 411, 'widthPercent': 0.45, 'rescaleHeight': False, 'trialN': 0, 'loaded': True, 'loadedTime': 4167.700000000186, 'positionName': 'RIGHT', 'positionCoords': [694.72, 170.5], 'bid': 5.32}]",4368.4000000003725,1669830245937,veggieswithdip,raspberries,4.03,5.32,1.29,raspberries,1246.4000000003725,1246,1246.7999999998137,True,i,6119.200000000186,1750.7999999998137,1669830247687,1750,HRV,HRV_0124,2022-11-30 17:50:23
1,"[{'imgObject': {}, 'id': 'rigatoni and sauce', 'src': '/static/foodstim60/rigatoni and sauce.jpg', 'key': 'u', 'origWidth': 410, 'origHeight': 411, 'width': 410, 'height': 411, 'widthPercent': 0.45, 'rescaleHeight': False, 'trialN': 1, 'loaded': True, 'loadedTime': 4176.300000000745, 'positionName': 'LEFT', 'positionCoords': [231.28, 170.5], 'bid': 6.8100000000000005}, {'imgObject': {}, 'id': 'steak', 'src': '/static/foodstim60/steak.jpg', 'key': 'i', 'origWidth': 410, 'origHeight': 410, 'width': 410, 'height': 410, 'widthPercent': 0.45, 'rescaleHeight': False, 'trialN': 1, 'loaded': True, 'loadedTime': 4183.800000000745, 'positionName': 'RIGHT', 'positionCoords': [694.72, 171], 'bid': 6.25}]",6119.4000000003725,1669830247687,rigatoni and sauce,steak,6.8100000000000005,6.25,-0.5600000000000005,rigatoni and sauce,1543.2999999998137,1544,1543.5,True,u,8185.300000000745,2065.9000000003725,1669830249753,2066,HRV,HRV_0124,2022-11-30 17:50:23
2,"[{'imgObject': {}, 'id': 'edamame', 'src': '/static/foodstim60/edamame.jpg', 'key': 'u', 'origWidth': 409, 'origHeight': 410, 'width': 409, 'height': 410, 'widthPercent': 0.45, 'rescaleHeight': False, 'trialN': 2, 'loaded': True, 'loadedTime': 4191.200000000186, 'positionName': 'LEFT', 'positionCoords': [232.28, 171], 'bid': 4.14}, {'imgObject': {}, 'id': 'shreddedwheatwithmilk', 'src': '/static/foodstim60/shreddedwheatwithmilk.jpg', 'key': 'i', 'origWidth': 410, 'origHeight': 410, 'width': 410, 'height': 410, 'widthPercent': 0.45, 'rescaleHeight': False, 'trialN': 2, 'loaded': True, 'loadedTime': 4197.700000000186, 'positionName': 'RIGHT', 'positionCoords': [694.72, 171], 'bid': 4.88}]",8185.4000000003725,1669830249753,edamame,shreddedwheatwithmilk,4.14,4.88,0.7400000000000002,shreddedwheatwithmilk,1638.2999999998137,1639,1638.5,True,i,10341.0,2155.5999999996275,1669830251909,2156,HRV,HRV_0124,2022-11-30 17:50:23
3,"[{'imgObject': {}, 'id': 'hashbrowns', 'src': '/static/foodstim60/hashbrowns.jpg', 'key': 'u', 'origWidth': 411, 'origHeight': 410, 'width': 411, 'height': 410, 'widthPercent': 0.45, 'rescaleHeight': False, 'trialN': 3, 'loaded': True, 'loadedTime': 4203.800000000745, 'positionName': 'LEFT', 'positionCoords': [230.28, 171], 'bid': 4.49}, {'imgObject': {}, 'id': 'Tribe humus pita', 'src': '/static/foodstim60/Tribe humus pita.jpg', 'key': 'i', 'origWidth': 411, 'origHeight': 411, 'width': 411, 'height': 411, 'widthPercent': 0.45, 'rescaleHeight': False, 'trialN': 3, 'loaded': True, 'loadedTime': 4210.800000000745, 'positionName': 'RIGHT', 'positionCoords': [694.72, 170.5], 'bid': 3.15}]",10341.100000000559,1669830251909,hashbrowns,Tribe humus pita,4.49,3.15,-1.3400000000000003,hashbrowns,1441.5,1442,1441.7999999998137,True,u,12291.800000000745,1950.7000000001863,1669830253860,1951,HRV,HRV_0124,2022-11-30 17:50:23
4,"[{'imgObject': {}, 'id': 'raisin bran w milk', 'src': '/static/foodstim60/raisin bran w milk.jpg', 'key': 'u', 'origWidth': 411, 'origHeight': 411, 'width': 411, 'height': 411, 'widthPercent': 0.45, 'rescaleHeight': False, 'trialN': 4, 'loaded': True, 'loadedTime': 4219.300000000745, 'positionName': 'LEFT', 'positionCoords': [230.28, 170.5], 'bid': 4.26}, {'imgObject': {}, 'id': 'bagel and cc', 'src': '/static/foodstim60/bagel and cc.jpg', 'key': 'i', 'origWidth': 410, 'origHeight': 410, 'width': 410, 'height': 410, 'widthPercent': 0.45, 'rescaleHeight': False, 'trialN': 4, 'loaded': True, 'loadedTime': 4225, 'positionName': 'RIGHT', 'positionCoords': [694.72, 171], 'bid': 4.34}]",12292.0,1669830253860,raisin bran w milk,bagel and cc,4.26,4.34,0.08000000000000007,raisin bran w milk,1458.800000000745,1459,1458.9000000003725,True,u,14260.800000000745,1968.800000000745,1669830255829,1969,HRV,HRV_0124,2022-11-30 17:50:23
5,"[{'imgObject': {}, 'id': 'luckycharms', 'src': '/static/foodstim60/luckycharms.jpg', 'key': 'u', 'origWidth': 410, 'origHeight': 409, 'width': 410, 'height': 409, 'widthPercent': 0.45, 'rescaleHeight': False, 'trialN': 5, 'loaded': True, 'loadedTime': 4230.200000000186, 'positionName': 'LEFT', 'positionCoords': [231.28, 171.5], 'bid': 5.9}, {'imgObject': {}, 'id': 'bagel and cc', 'src': '/static/foodstim60/bagel and cc.jpg', 'key': 'i', 'origWidth': 410, 'origHeight': 410, 'width': 410, 'height': 410, 'widthPercent': 0.45, 'rescaleHeight': False, 'trialN': 5, 'loaded': True, 'loadedTime': 4229.9000000003725, 'positionName': 'RIGHT', 'positionCoords': [694.72, 171], 'bid': 4.34}]",14261.100000000559,1669830255829,luckycharms,bagel and cc,5.9,4.34,-1.5600000000000005,luckycharms,897.7000000001863,898,897.8999999994412,True,u,15671.700000000186,1410.5999999996275,1669830257240,1411,HRV,HRV_0124,2022-11-30 17:50:23
6,"[{'imgObject': {}, 'id': 'baked potato', 'src': '/static/foodstim60/baked potato.jpg', 'key': 'u', 'origWidth': 409, 'origHeight': 410, 'width': 409, 'height': 410, 'widthPercent': 0.45, 'rescaleHeight': False, 'trialN': 6, 'loaded': True, 'loadedTime': 4238, 'positionName': 'LEFT', 'positionCoords': [232.28, 171], 'bid': 6.04}, {'imgObject': {}, 'id': 'ice cream sundae 002', 'src': '/static/foodstim60/ice cream sundae 002.jpg', 'key': 'i', 'origWidth': 409, 'origHeight': 409, 'width': 409, 'height': 409, 'widthPercent': 0.45, 'rescaleHeight': False, 'trialN': 6, 'loaded': True, 'loadedTime': 4243.800000000745, 'positionName': 'RIGHT', 'positionCoords': [694.72, 171.5], 'bid': 4.9}]",15671.900000000373,1669830257240,baked potato,ice cream sundae 002,6.04,4.9,-1.1399999999999997,baked potato,1358.9000000003725,1359,1359.2000000001863,True,u,17546.200000000186,1874.2999999998137,1669830259114,1874,HRV,HRV_0124,2022-11-30 17:50:23
7,"[{'imgObject': {}, 'id': 'cherry tomato', 'src': '/static/foodstim60/cherry tomato.jpg', 'key': 'u', 'origWidth': 410, 'origHeight': 410, 'width': 410, 'height': 410, 'widthPercent': 0.45, 'rescaleHeight': False, 'trialN': 7, 'loaded': True, 'loadedTime': 4251.4000000003725, 'positionName': 'LEFT', 'positionCoords': [231.28, 171], 'bid': 5.0200000000000005}, {'imgObject': {}, 'id': 'eggs', 'src': '/static/foodstim60/eggs.jpg', 'key': 'i', 'origWidth': 409, 'origHeight': 409, 'width': 409, 'height': 409, 'widthPercent': 0.45, 'rescaleHeight': False, 'trialN': 7, 'loaded': True, 'loadedTime': 4258.9000000003725, 'positionName': 'RIGHT', 'positionCoords': [694.72, 171.5], 'bid': 5.0200000000000005}]",17546.5,1669830259115,cherry tomato,eggs,5.0200000000000005,5.0200000000000005,0.0,cherry tomato,1237.7000000001863,1238,1237.9000000003725,True,u,19298.0,1751.5,1669830260866,1751,HRV,HRV_0124,2022-11-30 17:50:23
8,"[{'imgObject': {}, 'id': 'rigatoni', 'src': '/static/foodstim60/rigatoni.jpg', 'key': 'u', 'origWidth': 411, 'origHeight': 411, 'width': 411, 'height': 411, 'widthPercent': 0.45, 'rescaleHeight': False, 'trialN': 8, 'loaded': True, 'loadedTime': 4265.100000000559, 'positionName': 'LEFT', 'positionCoords': [230.28, 170.5], 'bid': 6.08}, {'imgObject': {}, 'id': 'blueberries', 'src': '/static/foodstim60/blueberries.jpg', 'key': 'i', 'origWidth': 411, 'origHeight': 411, 'width': 411, 'height': 411, 'widthPercent': 0.45, 'rescaleHeight': False, 'trialN': 8, 'loaded': True, 'loadedTime': 4270.600000000559, 'positionName': 'RIGHT', 'positionCoords': [694.72, 170.5], 'bid': 5.92}]",19298.10000000056,1669830260866,rigatoni,blueberries,6.08,5.92,-0.16000000000000014,rigatoni,1452.7000000001863,1453,1453.0,True,u,21268.400000000373,1970.2999999998137,1669830262836,1970,HRV,HRV_0124,2022-11-30 17:50:23
9,"[{'imgObject': {}, 'id': 'baked potato', 'src': '/static/foodstim60/baked potato.jpg', 'key': 'u', 'origWidth': 409, 'origHeight': 410, 'width': 409, 'height': 410, 'widthPercent': 0.45, 'rescaleHeight': False, 'trialN': 9, 'loaded': True, 'loadedTime': 4237.700000000186, 'positionName': 'LEFT', 'positionCoords': [232.28, 171], 'bid': 6.04}, {'imgObject': {}, 'id': 'rigatoni and sauce', 'src': '/static/foodstim60/rigatoni and sauce.jpg', 'key': 'i', 'origWidth': 410, 'origHeight': 411, 'width': 410, 'height': 411, 'widthPercent': 0.45, 'rescaleHeight': False, 'trialN': 9, 'loaded': True, 'loadedTime': 4175.700000000186, 'positionName': 'RIGHT', 'positionCoords': [694.72, 170.5], 'bid': 6.8100000000000005}]",21268.5,1669830262837,baked potato,rigatoni and sauce,6.04,6.8100000000000005,0.7700000000000005,rigatoni and sauce,770.4000000003725,770,770.6000000005588,True,i,22551.300000000745,1282.800000000745,1669830264119,1282,HRV,HRV_0124,2022-11-30 17:50:23
10,"[{'imgObject': {}, 'id': 'sushi w_condiments', 'src': '/static/foodstim60/sushi w_condiments.jpg', 'key': 'u', 'origWidth': 410, 'origHeight': 410, 'width': 410, 'height': 410, 'widthPercent': 0.45, 'rescaleHeight': False, 'trialN': 10, 'loaded': True, 'loadedTime': 4276.300000000745, 'positionName': 'LEFT', 'positionCoords': [231.28, 171], 'bid': 0.48}, {'imgObject': {}, 'id': 'granola w milk', 'src': '/static/foodstim60/granola w milk.jpg', 'key': 'i', 'origWidth': 410, 'origHeight': 410, 'width': 410, 'height': 410, 'widthPercent': 0.45, 'rescaleHeight': False, 'trialN': 10, 'loaded': True, 'loadedTime': 4283.5, 'positionName': 'RIGHT', 'positionCoords': [694.72, 171], 'bid': 3.78}]",22551.5,1669830264120,sushi w_condiments,granola w milk,0.48,3.78,3.3,granola w milk,1711.2000000001863,1711,1711.5,True,i,24767.5,2216.0,1669830266335,2215,HRV,HRV_0124,2022-11-30 17:50:23
11,"[{'imgObject': {}, 'id': 'lox', 'src': '/static/foodstim60/lox.jpg', 'key': 'u', 'origWidth': 410, 'origHeight': 411, 'width': 410, 'height': 411, 'widthPercent': 0.45, 'rescaleHeight': False, 'trialN': 11, 'loaded': True, 'loadedTime': 4204.9000000003725, 'positionName': 'LEFT', 'positionCoords': [231.28, 170.5], 'bid': 3.47}, {'imgObject': {}, 'id': 'Tribe humus pita', 'src': '/static/foodstim60/Tribe humus pita.jpg', 'key': 'i', 'origWidth': 411, 'origHeight': 411, 'width': 411, 'height': 411, 'widthPercent': 0.45, 'rescaleHeight': False, 'trialN': 11, 'loaded': True, 'loadedTime': 4210.9000000003725, 'positionName': 'RIGHT', 'positionCoords': [694.72, 170.5], 'bid': 3.15}]",24767.60000000056,1669830266336,lox,Tribe humus pita,3.47,3.15,-0.3200000000000003,Tribe humus pita,1990.7999999998137,1991,1991.0999999996275,True,i,27272.200000000186,2504.5999999996275,1669830268840,2504,HRV,HRV_0124,2022-11-30 17:50:23
12,"[{'imgObject': {}, 'id': 'turkey sandwich', 'src': '/static/foodstim60/turkey sandwich.jpg', 'key': 'u', 'origWidth': 409, 'origHeight': 409, 'width': 409, 'height': 409, 'widthPercent': 0.45, 'rescaleHeight': False, 'trialN': 12, 'loaded': True, 'loadedTime': 4217.800000000745, 'positionName': 'LEFT', 'positionCoords': [232.28, 171.5], 'bid': 5.83}, {'imgObject': {}, 'id': 'mac & cheese', 'src': '/static/foodstim60/mac & cheese.jpg', 'key': 'i', 'origWidth': 410, 'origHeight': 410, 'width': 410, 'height': 410, 'widthPercent': 0.45, 'rescaleHeight': False, 'trialN': 12, 'loaded': True, 'loadedTime': 4251.200000000186, 'positionName': 'RIGHT', 'positionCoords': [694.72, 171], 'bid': 9.16}]",27272.300000000745,1669830268840,turkey sandwich,mac & cheese,5.83,9.16,3.33,mac & cheese,734.5,735,734.6999999992549,True,i,28522.400000000373,1250.0999999996275,1669830270090,1250,HRV,HRV_0124,2022-11-30 17:50:23
13,"[{'imgObject': {}, 'id': 'luckycharms', 'src': '/static/foodstim60/luckycharms.jpg', 'key': 'u', 'origWidth': 410, 'origHeight': 409, 'width': 410, 'height': 409, 'widthPercent': 0.45, 'rescaleHeight': False, 'trialN': 13, 'loaded': True, 'loadedTime': 4231.100000000559, 'positionName': 'LEFT', 'positionCoords': [231.28, 171.5], 'bid': 5.9}, {'imgObject': {}, 'id': 'fruitsalad', 'src': '/static/foodstim60/fruitsalad.jpg', 'key': 'i', 'origWidth': 410, 'origHeight': 410, 'width': 410, 'height': 410, 'widthPercent': 0.45, 'rescaleHeight': False, 'trialN': 13, 'loaded': True, 'loadedTime': 4257.5, 'positionName': 'RIGHT', 'positionCoords': [694.72, 171], 'bid': 5.89}]",28522.5,1669830270091,luckycharms,fruitsalad,5.9,5.89,-0.010000000000000675,luckycharms,836.2000000001863,836,836.4000000003725,True,u,29867.900000000373,1345.4000000003725,1669830271436,1345,HRV,HRV_0124,2022-11-30 17:50:23
14,"[{'imgObject': {}, 'id': 'fried eggs', 'src': '/static/foodstim60/fried eggs.jpg', 'key': 'u', 'origWidth': 410, 'origHeight': 410, 'width': 410, 'height': 410, 'widthPercent': 0.45, 'rescaleHeight': False, 'trialN': 14, 'loaded': True, 'loadedTime': 4264.9000000003725, 'positionName': 'LEFT', 'positionCoords': [231.28, 171], 'bid': 4.93}, {'imgObject': {}, 'id': 'cherry tomato', 'src': '/static/foodstim60/cherry tomato.jpg', 'key': 'i', 'origWidth': 410, 'origHeight': 410, 'width': 410, 'height': 410, 'widthPercent': 0.45, 'rescaleHeight': False, 'trialN': 14, 'loaded': True, 'loadedTime': 4252, 'positionName': 'RIGHT', 'positionCoords': [694.72, 171], 'bid': 5.0200000000000005}]",29868.10000000056,1669830271436,fried eggs,cherry tomato,4.93,5.0200000000000005,0.09000000000000075,cherry tomato,1826.7000000001863,1827,1826.7999999998137,True,i,32201.400000000373,2333.2999999998137,1669830273769,2333,HRV,HRV_0124,2022-11-30 17:50:23
15,"[{'imgObject': {}, 'id': 'omelette', 'src': '/static/foodstim60/omelette.jpg', 'key': 'u', 'origWidth': 410, 'origHeight': 409, 'width': 410, 'height': 409, 'widthPercent': 0.45, 'rescaleHeight': False, 'trialN': 15, 'loaded': True, 'loadedTime': 4277.5, 'positionName': 'LEFT', 'positionCoords': [231.28, 171.5], 'bid': 4.6000000000000005}, {'imgObject': {}, 'id': 'veggieswithdip', 'src': '/static/foodstim60/veggieswithdip.jpg', 'key': 'i', 'origWidth': 409, 'origHeight': 409, 'width': 409, 'height': 409, 'widthPercent': 0.45, 'rescaleHeight': False, 'trialN': 15, 'loaded': True, 'loadedTime': 4148.700000000186, 'positionName': 'RIGHT', 'positionCoords': [694.72, 171.5], 'bid': 4.03}]",32201.60000000056,1669830273770,omelette,veggieswithdip,4.6000000000000005,4.03,-0.5700000000000003,omelette,1581.2000000001863,1581,1581.5,True,u,34293.60000000056,2092.0,1669830275862,2092,HRV,HRV_0124,2022-11-30 17:50:23
16,"[{'imgObject': {}, 'id': 'granola w milk', 'src': '/static/foodstim60/granola w milk.jpg', 'key': 'u', 'origWidth': 410, 'origHeight': 410, 'width': 410, 'height': 410, 'widthPercent': 0.45, 'rescaleHeight': False, 'trialN': 16, 'loaded': True, 'loadedTime': 4283.700000000186, 'positionName': 'LEFT', 'positionCoords': [231.28, 171], 'bid': 3.78}, {'imgObject': {}, 'id': 'cherries', 'src': '/static/foodstim60/cherries.jpg', 'key': 'i', 'origWidth': 410, 'origHeight': 411, 'width': 410, 'height': 411, 'widthPercent': 0.45, 'rescaleHeight': False, 'trialN': 16, 'loaded': True, 'loadedTime': 4283.9000000003725, 'positionName': 'RIGHT', 'positionCoords': [694.72, 170.5], 'bid': 3.78}]",34293.60000000056,1669830275862,granola w milk,cherries,3.78,3.78,0.0,granola w milk,1313.2000000001863,1313,1313.3999999994412,True,u,36111.10000000056,1817.5,1669830277679,1817,HRV,HRV_0124,2022-11-30 17:50:23
17,"[{'imgObject': {}, 'id': 'roastedpotatoes', 'src': '/static/foodstim60/roastedpotatoes.jpg', 'key': 'u', 'origWidth': 409, 'origHeight': 410, 'width': 409, 'height': 410, 'widthPercent': 0.45, 'rescaleHeight': False, 'trialN': 17, 'loaded': True, 'loadedTime': 4287.9000000003725, 'positionName': 'LEFT', 'positionCoords': [232.28, 171], 'bid': 5.54}, {'imgObject': {}, 'id': 'froot loops w milk', 'src': '/static/foodstim60/froot loops w milk.jpg', 'key': 'i', 'origWidth': 410, 'origHeight': 410, 'width': 410, 'height': 410, 'widthPercent': 0.45, 'rescaleHeight': False, 'trialN': 17, 'loaded': True, 'loadedTime': 4288.200000000186, 'positionName': 'RIGHT', 'positionCoords': [694.72, 171], 'bid': 5.54}]",36111.200000000186,1669830277679,roastedpotatoes,froot loops w milk,5.54,5.54,0.0,froot loops w milk,1095.5,1096,1095.7999999998137,True,i,37718.10000000056,1606.9000000003725,1669830279283,1604,HRV,HRV_0124,2022-11-30 17:50:23
18,"[{'imgObject': {}, 'id': 'tacos', 'src': '/static/foodstim60/tacos.jpg', 'key': 'u', 'origWidth': 411, 'origHeight': 411, 'width': 411, 'height': 411, 'widthPercent': 0.45, 'rescaleHeight': False, 'trialN': 18, 'loaded': True, 'loadedTime': 4291.5, 'positionName': 'LEFT', 'positionCoords': [230.28, 170.5], 'bid': 5.7700000000000005}, {'imgObject': {}, 'id': 'banana', 'src': '/static/foodstim60/banana.jpg', 'key': 'i', 'origWidth': 410, 'origHeight': 410, 'width': 410, 'height': 410, 'widthPercent': 0.45, 'rescaleHeight': False, 'trialN': 18, 'loaded': True, 'loadedTime': 4296.9000000003725, 'positionName': 'RIGHT', 'positionCoords': [694.72, 171], 'bid': 5.79}]",37718.300000000745,1669830279284,tacos,banana,5.7700000000000005,5.79,0.019999999999999574,banana,1280.3999999994412,1280,1280.5999999996275,True,i,39516.10000000056,1797.7999999998137,1669830281081,1797,HRV,HRV_0124,2022-11-30 17:50:23
19,"[{'imgObject': {}, 'id': 'kiwi', 'src': '/static/foodstim60/kiwi.jpg', 'key': 'u', 'origWidth': 410, 'origHeight': 410, 'width': 410, 'height': 410, 'widthPercent': 0.45, 'rescaleHeight': False, 'trialN': 19, 'loaded': True, 'loadedTime': 4297.9000000003725, 'positionName': 'LEFT', 'positionCoords': [231.28, 171], 'bid': 3.5500000000000003}, {'imgObject': {}, 'id': 'sushi w_condiments', 'src': '/static/foodstim60/sushi w_condiments.jpg', 'key': 'i', 'origWidth': 410, 'origHeight': 410, 'width': 410, 'height': 410, 'widthPercent': 0.45, 'rescaleHeight': False, 'trialN': 19, 'loaded': True, 'loadedTime': 4277.300000000745, 'positionName': 'RIGHT', 'positionCoords': [694.72, 171], 'bid': 0.48}]",39516.200000000186,1669830281081,kiwi,sushi w_condiments,3.5500000000000003,0.48,-3.0700000000000003,kiwi,1562.5,1563,1562.7999999998137,True,u,41595.300000000745,2079.100000000559,1669830283161,2080,HRV,HRV_0124,2022-11-30 17:50:23
20,"[{'imgObject': {}, 'id': 'ice cream sundae 002', 'src': '/static/foodstim60/ice cream sundae 002.jpg', 'key': 'u', 'origWidth': 409, 'origHeight': 409, 'width': 409, 'height': 409, 'widthPercent': 0.45, 'rescaleHeight': False, 'trialN': 20, 'loaded': True, 'loadedTime': 4243.9000000003725, 'positionName': 'LEFT', 'positionCoords': [232.28, 171.5], 'bid': 4.9}, {'imgObject': {}, 'id': 'seaweed', 'src': '/static/foodstim60/seaweed.jpg', 'key': 'i', 'origWidth': 410, 'origHeight': 410, 'width': 410, 'height': 410, 'widthPercent': 0.45, 'rescaleHeight': False, 'trialN': 20, 'loaded': True, 'loadedTime': 4298.9000000003725, 'positionName': 'RIGHT', 'positionCoords': [694.72, 171], 'bid': 3.56}]",41595.5,1669830283161,ice cream sundae 002,seaweed,4.9,3.56,-1.3400000000000003,ice cream sundae 002,1827.300000000745,1827,1827.5,True,u,43932.90000000037,2337.4000000003725,1669830285498,2337,HRV,HRV_0124,2022-11-30 17:50:23
21,"[{'imgObject': {}, 'id': 'salmon', 'src': '/static/foodstim60/salmon.jpg', 'key': 'u', 'origWidth': 410, 'origHeight': 409, 'width': 410, 'height': 409, 'widthPercent': 0.45, 'rescaleHeight': False, 'trialN': 21, 'loaded': True, 'loadedTime': 4305.5, 'positionName': 'LEFT', 'positionCoords': [231.28, 171.5], 'bid': 3.65}, {'imgObject': {}, 'id': 'orange slices', 'src': '/static/foodstim60/orange slices.jpg', 'key': 'i', 'origWidth': 409, 'origHeight': 410, 'width': 409, 'height': 410, 'widthPercent': 0.45, 'rescaleHeight': False, 'trialN': 21, 'loaded': True, 'loadedTime': 4310.800000000745, 'positionName': 'RIGHT', 'positionCoords': [694.72, 171], 'bid': 5.71}]",43933.10000000056,1669830285498,salmon,orange slices,3.65,5.71,2.06,orange slices,1153.7000000001863,1154,1154.0,True,i,45599.60000000056,1666.5,1669830287165,1667,HRV,HRV_0124,2022-11-30 17:50:23
22,"[{'imgObject': {}, 'id': 'eggsalad', 'src': '/static/foodstim60/eggsalad.jpg', 'key': 'u', 'origWidth': 410, 'origHeight': 409, 'width': 410, 'height': 409, 'widthPercent': 0.45, 'rescaleHeight': False, 'trialN': 22, 'loaded': True, 'loadedTime': 4311.700000000186, 'positionName': 'LEFT', 'positionCoords': [231.28, 171.5], 'bid': 3.68}, {'imgObject': {}, 'id': 'strawberries', 'src': '/static/foodstim60/strawberries.jpg', 'key': 'i', 'origWidth': 410, 'origHeight': 410, 'width': 410, 'height': 410, 'widthPercent': 0.45, 'rescaleHeight': False, 'trialN': 22, 'loaded': True, 'loadedTime': 4317, 'positionName': 'RIGHT', 'positionCoords': [694.72, 171], 'bid': 5.75}]",45599.800000000745,1669830287165,eggsalad,strawberries,3.68,5.75,2.07,strawberries,1030.699999999255,1031,1030.8999999994412,True,i,47147.700000000186,1547.8999999994412,1669830288713,1548,HRV,HRV_0124,2022-11-30 17:50:23
23,"[{'imgObject': {}, 'id': 'rigatoni and sauce', 'src': '/static/foodstim60/rigatoni and sauce.jpg', 'key': 'u', 'origWidth': 410, 'origHeight': 411, 'width': 410, 'height': 411, 'widthPercent': 0.45, 'rescaleHeight': False, 'trialN': 23, 'loaded': True, 'loadedTime': 4168.600000000559, 'positionName': 'LEFT', 'positionCoords': [231.28, 170.5], 'bid': 6.8100000000000005}, {'imgObject': {}, 'id': 'cantaloupe', 'src': '/static/foodstim60/cantaloupe.jpg', 'key': 'i', 'origWidth': 409, 'origHeight': 409, 'width': 409, 'height': 409, 'widthPercent': 0.45, 'rescaleHeight': False, 'trialN': 23, 'loaded': True, 'loadedTime': 4318.5, 'positionName': 'RIGHT', 'positionCoords': [694.72, 171.5], 'bid': 5.8}]",47147.800000000745,1669830288713,rigatoni and sauce,cantaloupe,6.8100000000000005,5.8,-1.0100000000000007,rigatoni and sauce,827.0,827,827.1999999992549,True,u,48488.200000000186,1340.3999999994412,1669830290053,1340,HRV,HRV_0124,2022-11-30 17:50:23
24,"[{'imgObject': {}, 'id': 'Grapes', 'src': '/static/foodstim60/Grapes.jpg', 'key': 'u', 'origWidth': 411, 'origHeight': 411, 'width': 411, 'height': 411, 'widthPercent': 0.45, 'rescaleHeight': False, 'trialN': 24, 'loaded': True, 'loadedTime': 4324.300000000745, 'positionName': 'LEFT', 'positionCoords': [230.28, 170.5], 'bid': 5.67}, {'imgObject': {}, 'id': 'burrito', 'src': '/static/foodstim60/burrito.jpg', 'key': 'i', 'origWidth': 410, 'origHeight': 410, 'width': 410, 'height': 410, 'widthPercent': 0.45, 'rescaleHeight': False, 'trialN': 24, 'loaded': True, 'loadedTime': 4325.4000000003725, 'positionName': 'RIGHT', 'positionCoords': [694.72, 171], 'bid': 5.68}]",48488.200000000186,1669830290053,Grapes,burrito,5.67,5.68,0.009999999999999787,Grapes,1134.5,1135,1134.7000000001863,True,u,50140.10000000056,1651.9000000003725,1669830291705,1652,HRV,HRV_0124,2022-11-30 17:50:23
25,"[{'imgObject': {}, 'id': 'Tribe humus pita', 'src': '/static/foodstim60/Tribe humus pita.jpg', 'key': 'u', 'origWidth': 411, 'origHeight': 411, 'width': 411, 'height': 411, 'widthPercent': 0.45, 'rescaleHeight': False, 'trialN': 25, 'loaded': True, 'loadedTime': 4209.9000000003725, 'positionName': 'LEFT', 'positionCoords': [230.28, 170.5], 'bid': 3.15}, {'imgObject': {}, 'id': 'granola w milk', 'src': '/static/foodstim60/granola w milk.jpg', 'key': 'i', 'origWidth': 410, 'origHeight': 410, 'width': 410, 'height': 410, 'widthPercent': 0.45, 'rescaleHeight': False, 'trialN': 25, 'loaded': True, 'loadedTime': 4283.600000000559, 'positionName': 'RIGHT', 'positionCoords': [694.72, 171], 'bid': 3.78}]",50140.40000000037,1669830291706,Tribe humus pita,granola w milk,3.15,3.78,0.6299999999999999,granola w milk,1138.2999999998137,1138,1138.5,True,i,51792.0,1651.5999999996275,1669830293357,1651,HRV,HRV_0124,2022-11-30 17:50:23
26,"[{'imgObject': {}, 'id': 'froot loops w milk', 'src': '/static/foodstim60/froot loops w milk.jpg', 'key': 'u', 'origWidth': 410, 'origHeight': 410, 'width': 410, 'height': 410, 'widthPercent': 0.45, 'rescaleHeight': False, 'trialN': 26, 'loaded': True, 'loadedTime': 4290.300000000745, 'positionName': 'LEFT', 'positionCoords': [231.28, 171], 'bid': 5.54}, {'imgObject': {}, 'id': 'pear', 'src': '/static/foodstim60/pear.jpg', 'key': 'i', 'origWidth': 411, 'origHeight': 410, 'width': 411, 'height': 410, 'widthPercent': 0.45, 'rescaleHeight': False, 'trialN': 26, 'loaded': True, 'loadedTime': 4326, 'positionName': 'RIGHT', 'positionCoords': [694.72, 171], 'bid': 5.61}]",51792.10000000056,1669830293357,froot loops w milk,pear,5.54,5.61,0.07000000000000028,froot loops w milk,1534.3999999994412,1535,1534.5999999996275,True,u,53840.40000000037,2048.2999999998137,1669830295406,2049,HRV,HRV_0124,2022-11-30 17:50:23
27,"[{'imgObject': {}, 'id': 'cherries', 'src': '/static/foodstim60/cherries.jpg', 'key': 'u', 'origWidth': 410, 'origHeight': 411, 'width': 410, 'height': 411, 'widthPercent': 0.45, 'rescaleHeight': False, 'trialN': 27, 'loaded': True, 'loadedTime': 4284.800000000745, 'positionName': 'LEFT', 'positionCoords': [231.28, 170.5], 'bid': 3.78}, {'imgObject': {}, 'id': 'eggsalad', 'src': '/static/foodstim60/eggsalad.jpg', 'key': 'i', 'origWidth': 410, 'origHeight': 409, 'width': 410, 'height': 409, 'widthPercent': 0.45, 'rescaleHeight': False, 'trialN': 27, 'loaded': True, 'loadedTime': 4311.800000000745, 'positionName': 'RIGHT', 'positionCoords': [694.72, 171.5], 'bid': 3.68}]",53840.60000000056,1669830295406,cherries,eggsalad,3.78,3.68,-0.09999999999999964,eggsalad,1902.2000000001863,1902,1902.5,True,i,56255.700000000186,2415.0999999996275,1669830297821,2415,HRV,HRV_0124,2022-11-30 17:50:23
28,"[{'imgObject': {}, 'id': 'lox', 'src': '/static/foodstim60/lox.jpg', 'key': 'u', 'origWidth': 410, 'origHeight': 411, 'width': 410, 'height': 411, 'widthPercent': 0.45, 'rescaleHeight': False, 'trialN': 28, 'loaded': True, 'loadedTime': 4205, 'positionName': 'LEFT', 'positionCoords': [231.28, 170.5], 'bid': 3.47}, {'imgObject': {}, 'id': 'omelette', 'src': '/static/foodstim60/omelette.jpg', 'key': 'i', 'origWidth': 410, 'origHeight': 409, 'width': 410, 'height': 409, 'widthPercent': 0.45, 'rescaleHeight': False, 'trialN': 28, 'loaded': True, 'loadedTime': 4282.700000000186, 'positionName': 'RIGHT', 'positionCoords': [694.72, 171.5], 'bid': 4.6000000000000005}]",56255.90000000037,1669830297821,lox,omelette,3.47,4.6000000000000005,1.1300000000000003,omelette,1166.7000000001863,1167,1167.0,True,i,57936.200000000186,1680.2999999998137,1669830299501,1680,HRV,HRV_0124,2022-11-30 17:50:23
29,"[{'imgObject': {}, 'id': 'kiwi', 'src': '/static/foodstim60/kiwi.jpg', 'key': 'u', 'origWidth': 410, 'origHeight': 410, 'width': 410, 'height': 410, 'widthPercent': 0.45, 'rescaleHeight': False, 'trialN': 29, 'loaded': True, 'loadedTime': 4298.5, 'positionName': 'LEFT', 'positionCoords': [231.28, 171], 'bid': 3.5500000000000003}, {'imgObject': {}, 'id': 'seaweed', 'src': '/static/foodstim60/seaweed.jpg', 'key': 'i', 'origWidth': 410, 'origHeight': 410, 'width': 410, 'height': 410, 'widthPercent': 0.45, 'rescaleHeight': False, 'trialN': 29, 'loaded': True, 'loadedTime': 4304.100000000559, 'positionName': 'RIGHT', 'positionCoords': [694.72, 171], 'bid': 3.56}]",57936.40000000037,1669830299502,kiwi,seaweed,3.5500000000000003,3.56,0.009999999999999787,kiwi,1310.4000000003725,1310,1310.5999999996275,True,u,59750.40000000037,1814.0,1669830301316,1814,HRV,HRV_0124,2022-11-30 17:50:23
30,"[{'imgObject': {}, 'id': 'eggsalad', 'src': '/static/foodstim60/eggsalad.jpg', 'key': 'u', 'origWidth': 410, 'origHeight': 409, 'width': 410, 'height': 409, 'widthPercent': 0.45, 'rescaleHeight': False, 'trialN': 30, 'loaded': True, 'loadedTime': 4310.800000000745, 'positionName': 'LEFT', 'positionCoords': [231.28, 171.5], 'bid': 3.68}, {'imgObject': {}, 'id': 'mashed potato', 'src': '/static/foodstim60/mashed potato.jpg', 'key': 'i', 'origWidth': 409, 'origHeight': 409, 'width': 409, 'height': 409, 'widthPercent': 0.45, 'rescaleHeight': False, 'trialN': 30, 'loaded': True, 'loadedTime': 4331, 'positionName': 'RIGHT', 'positionCoords': [694.72, 171.5], 'bid': 2.98}]",59750.60000000056,1669830301316,eggsalad,mashed potato,3.68,2.98,-0.7000000000000002,eggsalad,1992.0999999996275,1992,1992.2999999998137,True,u,62248.5,2497.899999999441,1669830303814,2498,HRV,HRV_0124,2022-11-30 17:50:23
31,"[{'imgObject': {}, 'id': 'hashbrowns', 'src': '/static/foodstim60/hashbrowns.jpg', 'key': 'u', 'origWidth': 411, 'origHeight': 410, 'width': 411, 'height': 410, 'widthPercent': 0.45, 'rescaleHeight': False, 'trialN': 31, 'loaded': True, 'loadedTime': 4198.100000000559, 'positionName': 'LEFT', 'positionCoords': [230.28, 171], 'bid': 4.49}, {'imgObject': {}, 'id': 'bagel plain', 'src': '/static/foodstim60/bagel plain.jpg', 'key': 'i', 'origWidth': 410, 'origHeight': 410, 'width': 410, 'height': 410, 'widthPercent': 0.45, 'rescaleHeight': False, 'trialN': 31, 'loaded': True, 'loadedTime': 4332.100000000559, 'positionName': 'RIGHT', 'positionCoords': [694.72, 171], 'bid': 3.9}]",62248.700000000186,1669830303814,hashbrowns,bagel plain,4.49,3.9,-0.5900000000000003,hashbrowns,1782.1000000005588,1782,1782.2000000001863,True,u,64536.5,2287.7999999998137,1669830306102,2288,HRV,HRV_0124,2022-11-30 17:50:23
32,"[{'imgObject': {}, 'id': 'shreddedwheatwithmilk', 'src': '/static/foodstim60/shreddedwheatwithmilk.jpg', 'key': 'u', 'origWidth': 410, 'origHeight': 410, 'width': 410, 'height': 410, 'widthPercent': 0.45, 'rescaleHeight': False, 'trialN': 32, 'loaded': True, 'loadedTime': 4197.9000000003725, 'positionName': 'LEFT', 'positionCoords': [231.28, 171], 'bid': 4.88}, {'imgObject': {}, 'id': 'omelette', 'src': '/static/foodstim60/omelette.jpg', 'key': 'i', 'origWidth': 410, 'origHeight': 409, 'width': 410, 'height': 409, 'widthPercent': 0.45, 'rescaleHeight': False, 'trialN': 32, 'loaded': True, 'loadedTime': 4282.700000000186, 'positionName': 'RIGHT', 'positionCoords': [694.72, 171.5], 'bid': 4.6000000000000005}]",64536.60000000056,1669830306102,shreddedwheatwithmilk,omelette,4.88,4.6000000000000005,-0.27999999999999936,omelette,1726.2999999998137,1726,1726.5,True,i,66769.40000000037,2232.7999999998137,1669830308335,2233,HRV,HRV_0124,2022-11-30 17:50:23
33,"[{'imgObject': {}, 'id': 'sweetpotato', 'src': '/static/foodstim60/sweetpotato.jpg', 'key': 'u', 'origWidth': 410, 'origHeight': 410, 'width': 410, 'height': 410, 'widthPercent': 0.45, 'rescaleHeight': False, 'trialN': 33, 'loaded': True, 'loadedTime': 4333, 'positionName': 'LEFT', 'positionCoords': [231.28, 171], 'bid': 5.47}, {'imgObject': {}, 'id': 'salad w chicken', 'src': '/static/foodstim60/salad w chicken.jpg', 'key': 'i', 'origWidth': 411, 'origHeight': 411, 'width': 411, 'height': 411, 'widthPercent': 0.45, 'rescaleHeight': False, 'trialN': 33, 'loaded': True, 'loadedTime': 4339.600000000559, 'positionName': 'RIGHT', 'positionCoords': [694.72, 170.5], 'bid': 5.46}]",66769.5,1669830308335,sweetpotato,salad w chicken,5.47,5.46,-0.009999999999999787,salad w chicken,1869.2000000001863,1869,1869.4000000003725,True,i,69148.80000000075,2379.300000000745,1669830310714,2379,HRV,HRV_0124,2022-11-30 17:50:23
34,"[{'imgObject': {}, 'id': 'salad w chicken', 'src': '/static/foodstim60/salad w chicken.jpg', 'key': 'u', 'origWidth': 411, 'origHeight': 411, 'width': 411, 'height': 411, 'widthPercent': 0.45, 'rescaleHeight': False, 'trialN': 34, 'loaded': True, 'loadedTime': 4339.600000000559, 'positionName': 'LEFT', 'positionCoords': [230.28, 170.5], 'bid': 5.46}, {'imgObject': {}, 'id': 'fried eggs', 'src': '/static/foodstim60/fried eggs.jpg', 'key': 'i', 'origWidth': 410, 'origHeight': 410, 'width': 410, 'height': 410, 'widthPercent': 0.45, 'rescaleHeight': False, 'trialN': 34, 'loaded': True, 'loadedTime': 4264.5, 'positionName': 'RIGHT', 'positionCoords': [694.72, 171], 'bid': 4.93}]",69149.0,1669830310714,salad w chicken,fried eggs,5.46,4.93,-0.5300000000000002,salad w chicken,1641.6000000005588,1642,1641.9000000003725,True,u,71305.5,2156.5,1669830312871,2157,HRV,HRV_0124,2022-11-30 17:50:23
35,"[{'imgObject': {}, 'id': 'salmon', 'src': '/static/foodstim60/salmon.jpg', 'key': 'u', 'origWidth': 410, 'origHeight': 409, 'width': 410, 'height': 409, 'widthPercent': 0.45, 'rescaleHeight': False, 'trialN': 35, 'loaded': True, 'loadedTime': 4305.200000000186, 'positionName': 'LEFT', 'positionCoords': [231.28, 171.5], 'bid': 3.65}, {'imgObject': {}, 'id': 'eggsalad', 'src': '/static/foodstim60/eggsalad.jpg', 'key': 'i', 'origWidth': 410, 'origHeight': 409, 'width': 410, 'height': 409, 'widthPercent': 0.45, 'rescaleHeight': False, 'trialN': 35, 'loaded': True, 'loadedTime': 4312, 'positionName': 'RIGHT', 'positionCoords': [694.72, 171.5], 'bid': 3.68}]",71305.60000000056,1669830312871,salmon,eggsalad,3.65,3.68,0.03000000000000025,eggsalad,1973.0999999996275,1973,1973.3999999994412,True,i,73792.0,2486.399999999441,1669830315357,2486,HRV,HRV_0124,2022-11-30 17:50:23
36,"[{'imgObject': {}, 'id': 'cheerios', 'src': '/static/foodstim60/cheerios.jpg', 'key': 'u', 'origWidth': 409, 'origHeight': 410, 'width': 409, 'height': 410, 'widthPercent': 0.45, 'rescaleHeight': False, 'trialN': 36, 'loaded': True, 'loadedTime': 4339.700000000186, 'positionName': 'LEFT', 'positionCoords': [232.28, 171], 'bid': 4.93}, {'imgObject': {}, 'id': 'grilled chicken strips', 'src': '/static/foodstim60/grilled chicken strips.jpg', 'key': 'i', 'origWidth': 410, 'origHeight': 411, 'width': 410, 'height': 411, 'widthPercent': 0.45, 'rescaleHeight': False, 'trialN': 36, 'loaded': True, 'loadedTime': 4345.100000000559, 'positionName': 'RIGHT', 'positionCoords': [694.72, 170.5], 'bid': 6.19}]",73792.10000000056,1669830315357,cheerios,grilled chicken strips,4.93,6.19,1.2600000000000007,grilled chicken strips,1462.5999999996275,1463,1462.7999999998137,True,i,75763.5,1971.3999999994412,1669830317329,1972,HRV,HRV_0124,2022-11-30 17:50:23
37,"[{'imgObject': {}, 'id': 'salmon', 'src': '/static/foodstim60/salmon.jpg', 'key': 'u', 'origWidth': 410, 'origHeight': 409, 'width': 410, 'height': 409, 'widthPercent': 0.45, 'rescaleHeight': False, 'trialN': 37, 'loaded': True, 'loadedTime': 4305.100000000559, 'positionName': 'LEFT', 'positionCoords': [231.28, 171.5], 'bid': 3.65}, {'imgObject': {}, 'id': 'granola w milk', 'src': '/static/foodstim60/granola w milk.jpg', 'key': 'i', 'origWidth': 410, 'origHeight': 410, 'width': 410, 'height': 410, 'widthPercent': 0.45, 'rescaleHeight': False, 'trialN': 37, 'loaded': True, 'loadedTime': 4283.600000000559, 'positionName': 'RIGHT', 'positionCoords': [694.72, 171], 'bid': 3.78}]",75763.60000000056,1669830317329,salmon,granola w milk,3.65,3.78,0.1299999999999999,granola w milk,1171.2000000001863,1171,1171.5,True,i,77452.10000000056,1688.5,1669830319017,1688,HRV,HRV_0124,2022-11-30 17:50:23
38,"[{'imgObject': {}, 'id': 'hashbrowns', 'src': '/static/foodstim60/hashbrowns.jpg', 'key': 'u', 'origWidth': 411, 'origHeight': 410, 'width': 411, 'height': 410, 'widthPercent': 0.45, 'rescaleHeight': False, 'trialN': 38, 'loaded': True, 'loadedTime': 4199, 'positionName': 'LEFT', 'positionCoords': [230.28, 171], 'bid': 4.49}, {'imgObject': {}, 'id': 'bagel and cc', 'src': '/static/foodstim60/bagel and cc.jpg', 'key': 'i', 'origWidth': 410, 'origHeight': 410, 'width': 410, 'height': 410, 'widthPercent': 0.45, 'rescaleHeight': False, 'trialN': 38, 'loaded': True, 'loadedTime': 4230.100000000559, 'positionName': 'RIGHT', 'positionCoords': [694.72, 171], 'bid': 4.34}]",77452.20000000019,1669830319017,hashbrowns,bagel and cc,4.49,4.34,-0.15000000000000036,hashbrowns,1202.4000000003725,1203,1202.7000000001863,True,u,79171.40000000037,1719.2000000001863,1669830320737,1720,HRV,HRV_0124,2022-11-30 17:50:23
39,"[{'imgObject': {}, 'id': 'popsicles', 'src': '/static/foodstim60/popsicles.jpg', 'key': 'u', 'origWidth': 410, 'origHeight': 410, 'width': 410, 'height': 410, 'widthPercent': 0.45, 'rescaleHeight': False, 'trialN': 39, 'loaded': True, 'loadedTime': 4368.100000000559, 'positionName': 'LEFT', 'positionCoords': [231.28, 171], 'bid': 4.43}, {'imgObject': {}, 'id': 'mashed potato', 'src': '/static/foodstim60/mashed potato.jpg', 'key': 'i', 'origWidth': 409, 'origHeight': 409, 'width': 409, 'height': 409, 'widthPercent': 0.45, 'rescaleHeight': False, 'trialN': 39, 'loaded': True, 'loadedTime': 4330.800000000745, 'positionName': 'RIGHT', 'positionCoords': [694.72, 171.5], 'bid': 2.98}]",79171.5,1669830320737,popsicles,mashed potato,4.43,2.98,-1.4499999999999997,mashed potato,1787.300000000745,1787,1787.5,True,i,81469.80000000075,2298.300000000745,1669830323035,2298,HRV,HRV_0124,2022-11-30 17:50:23
40,"[{'imgObject': {}, 'id': 'steak', 'src': '/static/foodstim60/steak.jpg', 'key': 'u', 'origWidth': 410, 'origHeight': 410, 'width': 410, 'height': 410, 'widthPercent': 0.45, 'rescaleHeight': False, 'trialN': 40, 'loaded': True, 'loadedTime': 4183.200000000186, 'positionName': 'LEFT', 'positionCoords': [231.28, 171], 'bid': 6.25}, {'imgObject': {}, 'id': 'fruitsalad', 'src': '/static/foodstim60/fruitsalad.jpg', 'key': 'i', 'origWidth': 410, 'origHeight': 410, 'width': 410, 'height': 410, 'widthPercent': 0.45, 'rescaleHeight': False, 'trialN': 40, 'loaded': True, 'loadedTime': 4257.800000000745, 'positionName': 'RIGHT', 'positionCoords': [694.72, 171], 'bid': 5.89}]",81470.10000000056,1669830323035,steak,fruitsalad,6.25,5.89,-0.3600000000000003,steak,1992.7000000001863,1993,1992.8999999994412,True,u,83971.80000000075,2501.7000000001863,1669830325537,2502,HRV,HRV_0124,2022-11-30 17:50:23
41,"[{'imgObject': {}, 'id': 'rigatoni', 'src': '/static/foodstim60/rigatoni.jpg', 'key': 'u', 'origWidth': 411, 'origHeight': 411, 'width': 411, 'height': 411, 'widthPercent': 0.45, 'rescaleHeight': False, 'trialN': 41, 'loaded': True, 'loadedTime': 4270.600000000559, 'positionName': 'LEFT', 'positionCoords': [230.28, 170.5], 'bid': 6.08}, {'imgObject': {}, 'id': 'turkey sandwich', 'src': '/static/foodstim60/turkey sandwich.jpg', 'key': 'i', 'origWidth': 409, 'origHeight': 409, 'width': 409, 'height': 409, 'widthPercent': 0.45, 'rescaleHeight': False, 'trialN': 41, 'loaded': True, 'loadedTime': 4211.5, 'positionName': 'RIGHT', 'positionCoords': [694.72, 171.5], 'bid': 5.83}]",83972.0,1669830325537,rigatoni,turkey sandwich,6.08,5.83,-0.25,rigatoni,1722.5,1723,1722.7000000001863,True,u,86200.70000000019,2228.7000000001863,1669830327766,2229,HRV,HRV_0124,2022-11-30 17:50:23
42,"[{'imgObject': {}, 'id': 'chickenfingers', 'src': '/static/foodstim60/chickenfingers.jpg', 'key': 'u', 'origWidth': 410, 'origHeight': 410, 'width': 410, 'height': 410, 'widthPercent': 0.45, 'rescaleHeight': False, 'trialN': 42, 'loaded': True, 'loadedTime': 4346.4000000003725, 'positionName': 'LEFT', 'positionCoords': [231.28, 171], 'bid': 5.83}, {'imgObject': {}, 'id': 'turkey sandwich', 'src': '/static/foodstim60/turkey sandwich.jpg', 'key': 'i', 'origWidth': 409, 'origHeight': 409, 'width': 409, 'height': 409, 'widthPercent': 0.45, 'rescaleHeight': False, 'trialN': 42, 'loaded': True, 'loadedTime': 4218, 'positionName': 'RIGHT', 'positionCoords': [694.72, 171.5], 'bid': 5.83}]",86200.80000000075,1669830327766,chickenfingers,turkey sandwich,5.83,5.83,0.0,turkey sandwich,1437.7999999998137,1438,1438.0999999996275,True,i,88153.80000000075,1953.0,1669830329719,1953,HRV,HRV_0124,2022-11-30 17:50:23
43,"[{'imgObject': {}, 'id': 'baked potato', 'src': '/static/foodstim60/baked potato.jpg', 'key': 'u', 'origWidth': 409, 'origHeight': 410, 'width': 409, 'height': 410, 'widthPercent': 0.45, 'rescaleHeight': False, 'trialN': 43, 'loaded': True, 'loadedTime': 4238.200000000186, 'positionName': 'LEFT', 'positionCoords': [232.28, 171], 'bid': 6.04}, {'imgObject': {}, 'id': 'hotdog w must', 'src': '/static/foodstim60/hotdog w must.jpg', 'key': 'i', 'origWidth': 409, 'origHeight': 409, 'width': 409, 'height': 409, 'widthPercent': 0.45, 'rescaleHeight': False, 'trialN': 43, 'loaded': True, 'loadedTime': 4347.800000000745, 'positionName': 'RIGHT', 'positionCoords': [694.72, 171.5], 'bid': 5.79}]",88153.90000000037,1669830329719,baked potato,hotdog w must,6.04,5.79,-0.25,hotdog w must,1260.7000000001863,1261,1261.0,True,i,89929.80000000075,1775.9000000003725,1669830331495,1776,HRV,HRV_0124,2022-11-30 17:50:23
44,"[{'imgObject': {}, 'id': 'corn cob', 'src': '/static/foodstim60/corn cob.jpg', 'key': 'u', 'origWidth': 411, 'origHeight': 411, 'width': 411, 'height': 411, 'widthPercent': 0.45, 'rescaleHeight': False, 'trialN': 44, 'loaded': True, 'loadedTime': 4347.9000000003725, 'positionName': 'LEFT', 'positionCoords': [230.28, 170.5], 'bid': 5.6000000000000005}, {'imgObject': {}, 'id': 'roastedpotatoes', 'src': '/static/foodstim60/roastedpotatoes.jpg', 'key': 'i', 'origWidth': 409, 'origHeight': 410, 'width': 409, 'height': 410, 'widthPercent': 0.45, 'rescaleHeight': False, 'trialN': 44, 'loaded': True, 'loadedTime': 4287.5, 'positionName': 'RIGHT', 'positionCoords': [694.72, 171], 'bid': 5.54}]",89929.90000000037,1669830331495,corn cob,roastedpotatoes,5.6000000000000005,5.54,-0.0600000000000005,corn cob,957.0,957,957.2000000001863,True,u,91399.90000000037,1470.0,1669830332965,1470,HRV,HRV_0124,2022-11-30 17:50:23
45,"[{'imgObject': {}, 'id': 'apple slices', 'src': '/static/foodstim60/apple slices.jpg', 'key': 'u', 'origWidth': 409, 'origHeight': 410, 'width': 409, 'height': 410, 'widthPercent': 0.45, 'rescaleHeight': False, 'trialN': 45, 'loaded': True, 'loadedTime': 4354.300000000745, 'positionName': 'LEFT', 'positionCoords': [232.28, 171], 'bid': 5.23}, {'imgObject': {}, 'id': 'bagel plain', 'src': '/static/foodstim60/bagel plain.jpg', 'key': 'i', 'origWidth': 410, 'origHeight': 410, 'width': 410, 'height': 410, 'widthPercent': 0.45, 'rescaleHeight': False, 'trialN': 45, 'loaded': True, 'loadedTime': 4331.200000000186, 'positionName': 'RIGHT', 'positionCoords': [694.72, 171], 'bid': 3.9}]",91399.90000000037,1669830332965,apple slices,bagel plain,5.23,3.9,-1.3300000000000005,apple slices,974.9000000003725,975,975.0999999996275,True,u,92890.70000000019,1490.7999999998137,1669830334456,1491,HRV,HRV_0124,2022-11-30 17:50:23
46,"[{'imgObject': {}, 'id': 'hashbrowns', 'src': '/static/foodstim60/hashbrowns.jpg', 'key': 'u', 'origWidth': 411, 'origHeight': 410, 'width': 411, 'height': 410, 'widthPercent': 0.45, 'rescaleHeight': False, 'trialN': 46, 'loaded': True, 'loadedTime': 4198.9000000003725, 'positionName': 'LEFT', 'positionCoords': [230.28, 171], 'bid': 4.49}, {'imgObject': {}, 'id': 'eggsalad', 'src': '/static/foodstim60/eggsalad.jpg', 'key': 'i', 'origWidth': 410, 'origHeight': 409, 'width': 410, 'height': 409, 'widthPercent': 0.45, 'rescaleHeight': False, 'trialN': 46, 'loaded': True, 'loadedTime': 4312, 'positionName': 'RIGHT', 'positionCoords': [694.72, 171.5], 'bid': 3.68}]",92890.90000000037,1669830334456,hashbrowns,eggsalad,4.49,3.68,-0.81,hashbrowns,915.7999999998137,916,916.0999999996275,True,u,94325.80000000075,1434.9000000003725,1669830335891,1435,HRV,HRV_0124,2022-11-30 17:50:23
47,"[{'imgObject': {}, 'id': 'popsicles', 'src': '/static/foodstim60/popsicles.jpg', 'key': 'u', 'origWidth': 410, 'origHeight': 410, 'width': 410, 'height': 410, 'widthPercent': 0.45, 'rescaleHeight': False, 'trialN': 47, 'loaded': True, 'loadedTime': 4368.100000000559, 'positionName': 'LEFT', 'positionCoords': [231.28, 171], 'bid': 4.43}, {'imgObject': {}, 'id': 'yogurt no spoon', 'src': '/static/foodstim60/yogurt no spoon.jpg', 'key': 'i', 'origWidth': 411, 'origHeight': 410, 'width': 411, 'height': 410, 'widthPercent': 0.45, 'rescaleHeight': False, 'trialN': 47, 'loaded': True, 'loadedTime': 4355.800000000745, 'positionName': 'RIGHT', 'positionCoords': [694.72, 171], 'bid': 3.82}]",94325.90000000037,1669830335891,popsicles,yogurt no spoon,4.43,3.82,-0.6099999999999999,popsicles,2152.7999999998137,2153,2153.0,True,u,96986.90000000037,2661.0,1669830338552,2661,HRV,HRV_0124,2022-11-30 17:50:23
48,"[{'imgObject': {}, 'id': 'burger', 'src': '/static/foodstim60/burger.jpg', 'key': 'u', 'origWidth': 409, 'origHeight': 409, 'width': 409, 'height': 409, 'widthPercent': 0.45, 'rescaleHeight': False, 'trialN': 48, 'loaded': True, 'loadedTime': 4356.600000000559, 'positionName': 'LEFT', 'positionCoords': [232.28, 171.5], 'bid': 6.05}, {'imgObject': {}, 'id': 'baked potato', 'src': '/static/foodstim60/baked potato.jpg', 'key': 'i', 'origWidth': 409, 'origHeight': 410, 'width': 409, 'height': 410, 'widthPercent': 0.45, 'rescaleHeight': False, 'trialN': 48, 'loaded': True, 'loadedTime': 4236.600000000559, 'positionName': 'RIGHT', 'positionCoords': [694.72, 171], 'bid': 6.04}]",96987.10000000056,1669830338552,burger,baked potato,6.05,6.04,-0.009999999999999787,burger,1787.7999999998137,1774,1787.8999999994412,True,u,99280.0,2292.899999999441,1669830340830,2278,HRV,HRV_0124,2022-11-30 17:50:23
49,"[{'imgObject': {}, 'id': 'cherry tomato', 'src': '/static/foodstim60/cherry tomato.jpg', 'key': 'u', 'origWidth': 410, 'origHeight': 410, 'width': 410, 'height': 410, 'widthPercent': 0.45, 'rescaleHeight': False, 'trialN': 49, 'loaded': True, 'loadedTime': 4252.200000000186, 'positionName': 'LEFT', 'positionCoords': [231.28, 171], 'bid': 5.0200000000000005}, {'imgObject': {}, 'id': 'steak', 'src': '/static/foodstim60/steak.jpg', 'key': 'i', 'origWidth': 410, 'origHeight': 410, 'width': 410, 'height': 410, 'widthPercent': 0.45, 'rescaleHeight': False, 'trialN': 49, 'loaded': True, 'loadedTime': 4183.5, 'positionName': 'RIGHT', 'positionCoords': [694.72, 171], 'bid': 6.25}]",99280.10000000056,1669830340831,cherry tomato,steak,5.0200000000000005,6.25,1.2299999999999995,steak,918.5999999996275,918,918.8999999994412,True,i,100713.60000000056,1433.5,1669830342264,1433,HRV,HRV_0124,2022-11-30 17:50:23
50,"[{'imgObject': {}, 'id': 'yogurt no spoon', 'src': '/static/foodstim60/yogurt no spoon.jpg', 'key': 'u', 'origWidth': 411, 'origHeight': 410, 'width': 411, 'height': 410, 'widthPercent': 0.45, 'rescaleHeight': False, 'trialN': 50, 'loaded': True, 'loadedTime': 4356, 'positionName': 'LEFT', 'positionCoords': [230.28, 171], 'bid': 3.82}, {'imgObject': {}, 'id': 'eggs', 'src': '/static/foodstim60/eggs.jpg', 'key': 'i', 'origWidth': 409, 'origHeight': 409, 'width': 409, 'height': 409, 'widthPercent': 0.45, 'rescaleHeight': False, 'trialN': 50, 'loaded': True, 'loadedTime': 4259, 'positionName': 'RIGHT', 'positionCoords': [694.72, 171.5], 'bid': 5.0200000000000005}]",100713.70000000019,1669830342264,yogurt no spoon,eggs,3.82,5.0200000000000005,1.2000000000000006,yogurt no spoon,1437.0,1437,1437.2999999998137,True,u,102663.70000000019,1950.0,1669830344214,1950,HRV,HRV_0124,2022-11-30 17:50:23
51,"[{'imgObject': {}, 'id': 'olives', 'src': '/static/foodstim60/olives.jpg', 'key': 'u', 'origWidth': 410, 'origHeight': 410, 'width': 410, 'height': 410, 'widthPercent': 0.45, 'rescaleHeight': False, 'trialN': 51, 'loaded': True, 'loadedTime': 4357.5, 'positionName': 'LEFT', 'positionCoords': [231.28, 171], 'bid': 2.76}, {'imgObject': {}, 'id': 'raisin bran w milk', 'src': '/static/foodstim60/raisin bran w milk.jpg', 'key': 'i', 'origWidth': 411, 'origHeight': 411, 'width': 411, 'height': 411, 'widthPercent': 0.45, 'rescaleHeight': False, 'trialN': 51, 'loaded': True, 'loadedTime': 4219.100000000559, 'positionName': 'RIGHT', 'positionCoords': [694.72, 170.5], 'bid': 4.26}]",102663.70000000019,1669830344214,olives,raisin bran w milk,2.76,4.26,1.5,raisin bran w milk,1135.1000000005588,1135,1135.2000000001863,True,i,104310.20000000019,1646.5,1669830345861,1647,HRV,HRV_0124,2022-11-30 17:50:23
52,"[{'imgObject': {}, 'id': 'cocktailshrimp', 'src': '/static/foodstim60/cocktailshrimp.jpg', 'key': 'u', 'origWidth': 410, 'origHeight': 410, 'width': 410, 'height': 410, 'widthPercent': 0.45, 'rescaleHeight': False, 'trialN': 52, 'loaded': True, 'loadedTime': 4358.200000000186, 'positionName': 'LEFT', 'positionCoords': [231.28, 171], 'bid': 6.5600000000000005}, {'imgObject': {}, 'id': 'mac & cheese', 'src': '/static/foodstim60/mac & cheese.jpg', 'key': 'i', 'origWidth': 410, 'origHeight': 410, 'width': 410, 'height': 410, 'widthPercent': 0.45, 'rescaleHeight': False, 'trialN': 52, 'loaded': True, 'loadedTime': 4245.4000000003725, 'positionName': 'RIGHT', 'positionCoords': [694.72, 171], 'bid': 9.16}]",104310.40000000037,1669830345861,cocktailshrimp,mac & cheese,6.5600000000000005,9.16,2.5999999999999996,mac & cheese,688.2000000001863,688,688.5,True,i,105502.70000000019,1192.2999999998137,1669830347053,1192,HRV,HRV_0124,2022-11-30 17:50:23
53,"[{'imgObject': {}, 'id': 'turkeysandwich', 'src': '/static/foodstim60/turkeysandwich.jpg', 'key': 'u', 'origWidth': 409, 'origHeight': 409, 'width': 409, 'height': 409, 'widthPercent': 0.45, 'rescaleHeight': False, 'trialN': 53, 'loaded': True, 'loadedTime': 4358.800000000745, 'positionName': 'LEFT', 'positionCoords': [232.28, 171.5], 'bid': 6}, {'imgObject': {}, 'id': 'hashbrowns', 'src': '/static/foodstim60/hashbrowns.jpg', 'key': 'i', 'origWidth': 411, 'origHeight': 410, 'width': 411, 'height': 410, 'widthPercent': 0.45, 'rescaleHeight': False, 'trialN': 53, 'loaded': True, 'loadedTime': 4203.600000000559, 'positionName': 'RIGHT', 'positionCoords': [694.72, 171], 'bid': 4.49}]",105502.90000000037,1669830347053,turkeysandwich,hashbrowns,6.0,4.49,-1.5099999999999998,turkeysandwich,1583.7999999998137,1584,1584.0,True,u,107599.70000000019,2096.7999999998137,1669830349150,2097,HRV,HRV_0124,2022-11-30 17:50:23
54,"[{'imgObject': {}, 'id': 'bagel plain', 'src': '/static/foodstim60/bagel plain.jpg', 'key': 'u', 'origWidth': 410, 'origHeight': 410, 'width': 410, 'height': 410, 'widthPercent': 0.45, 'rescaleHeight': False, 'trialN': 54, 'loaded': True, 'loadedTime': 4332, 'positionName': 'LEFT', 'positionCoords': [231.28, 171], 'bid': 3.9}, {'imgObject': {}, 'id': 'edamame', 'src': '/static/foodstim60/edamame.jpg', 'key': 'i', 'origWidth': 409, 'origHeight': 410, 'width': 409, 'height': 410, 'widthPercent': 0.45, 'rescaleHeight': False, 'trialN': 54, 'loaded': True, 'loadedTime': 4190.700000000186, 'positionName': 'RIGHT', 'positionCoords': [694.72, 171], 'bid': 4.14}]",107599.80000000075,1669830349150,bagel plain,edamame,3.9,4.14,0.23999999999999977,bagel plain,1118.8999999994412,1119,1119.0999999996275,True,u,109224.80000000075,1625.0,1669830350775,1625,HRV,HRV_0124,2022-11-30 17:50:23
55,"[{'imgObject': {}, 'id': 'roastedpotatoes', 'src': '/static/foodstim60/roastedpotatoes.jpg', 'key': 'u', 'origWidth': 409, 'origHeight': 410, 'width': 409, 'height': 410, 'widthPercent': 0.45, 'rescaleHeight': False, 'trialN': 55, 'loaded': True, 'loadedTime': 4286.9000000003725, 'positionName': 'LEFT', 'positionCoords': [232.28, 171], 'bid': 5.54}, {'imgObject': {}, 'id': 'cherry tomato', 'src': '/static/foodstim60/cherry tomato.jpg', 'key': 'i', 'origWidth': 410, 'origHeight': 410, 'width': 410, 'height': 410, 'widthPercent': 0.45, 'rescaleHeight': False, 'trialN': 55, 'loaded': True, 'loadedTime': 4252.300000000745, 'positionName': 'RIGHT', 'positionCoords': [694.72, 171], 'bid': 5.0200000000000005}]",109225.0,1669830350775,roastedpotatoes,cherry tomato,5.54,5.0200000000000005,-0.5199999999999996,roastedpotatoes,1477.9000000003725,1479,1478.0,True,u,111210.80000000075,1985.800000000745,1669830352761,1986,HRV,HRV_0124,2022-11-30 17:50:23
56,"[{'imgObject': {}, 'id': 'blackbeanswithrice', 'src': '/static/foodstim60/blackbeanswithrice.jpg', 'key': 'u', 'origWidth': 410, 'origHeight': 410, 'width': 410, 'height': 410, 'widthPercent': 0.45, 'rescaleHeight': False, 'trialN': 56, 'loaded': True, 'loadedTime': 4359.700000000186, 'positionName': 'LEFT', 'positionCoords': [231.28, 171], 'bid': 6.01}, {'imgObject': {}, 'id': 'chicken nuggets2', 'src': '/static/foodstim60/chicken nuggets2.jpg', 'key': 'i', 'origWidth': 410, 'origHeight': 409, 'width': 410, 'height': 409, 'widthPercent': 0.45, 'rescaleHeight': False, 'trialN': 56, 'loaded': True, 'loadedTime': 4364.300000000745, 'positionName': 'RIGHT', 'positionCoords': [694.72, 171.5], 'bid': 6.0200000000000005}]",111210.90000000037,1669830352761,blackbeanswithrice,chicken nuggets2,6.01,6.0200000000000005,0.010000000000000675,blackbeanswithrice,1419.9000000003725,1420,1420.0999999996275,True,u,113135.30000000075,1924.4000000003725,1669830354686,1925,HRV,HRV_0124,2022-11-30 17:50:23
57,"[{'imgObject': {}, 'id': 'cherries', 'src': '/static/foodstim60/cherries.jpg', 'key': 'u', 'origWidth': 410, 'origHeight': 411, 'width': 410, 'height': 411, 'widthPercent': 0.45, 'rescaleHeight': False, 'trialN': 57, 'loaded': True, 'loadedTime': 4285.600000000559, 'positionName': 'LEFT', 'positionCoords': [231.28, 170.5], 'bid': 3.78}, {'imgObject': {}, 'id': 'banana', 'src': '/static/foodstim60/banana.jpg', 'key': 'i', 'origWidth': 410, 'origHeight': 410, 'width': 410, 'height': 410, 'widthPercent': 0.45, 'rescaleHeight': False, 'trialN': 57, 'loaded': True, 'loadedTime': 4297.9000000003725, 'positionName': 'RIGHT', 'positionCoords': [694.72, 171], 'bid': 5.79}]",113135.40000000037,1669830354686,cherries,banana,3.78,5.79,2.0100000000000002,banana,855.2999999998137,855,855.5999999996275,True,i,114506.60000000056,1371.2000000001863,1669830356057,1371,HRV,HRV_0124,2022-11-30 17:50:23
58,"[{'imgObject': {}, 'id': 'orange slices', 'src': '/static/foodstim60/orange slices.jpg', 'key': 'u', 'origWidth': 409, 'origHeight': 410, 'width': 409, 'height': 410, 'widthPercent': 0.45, 'rescaleHeight': False, 'trialN': 58, 'loaded': True, 'loadedTime': 4310.5, 'positionName': 'LEFT', 'positionCoords': [232.28, 171], 'bid': 5.71}, {'imgObject': {}, 'id': 'burger', 'src': '/static/foodstim60/burger.jpg', 'key': 'i', 'origWidth': 409, 'origHeight': 409, 'width': 409, 'height': 409, 'widthPercent': 0.45, 'rescaleHeight': False, 'trialN': 58, 'loaded': True, 'loadedTime': 4356.700000000186, 'positionName': 'RIGHT', 'positionCoords': [694.72, 171.5], 'bid': 6.05}]",114506.80000000075,1669830356057,orange slices,burger,5.71,6.05,0.33999999999999986,orange slices,1995.8999999994412,1997,1996.199999999255,True,u,117017.5,2510.699999999255,1669830358568,2511,HRV,HRV_0124,2022-11-30 17:50:23
59,"[{'imgObject': {}, 'id': 'luckycharms', 'src': '/static/foodstim60/luckycharms.jpg', 'key': 'u', 'origWidth': 410, 'origHeight': 409, 'width': 410, 'height': 409, 'widthPercent': 0.45, 'rescaleHeight': False, 'trialN': 59, 'loaded': True, 'loadedTime': 4231.4000000003725, 'positionName': 'LEFT', 'positionCoords': [231.28, 171.5], 'bid': 5.9}, {'imgObject': {}, 'id': 'banana', 'src': '/static/foodstim60/banana.jpg', 'key': 'i', 'origWidth': 410, 'origHeight': 410, 'width': 410, 'height': 410, 'widthPercent': 0.45, 'rescaleHeight': False, 'trialN': 59, 'loaded': True, 'loadedTime': 4297.700000000186, 'positionName': 'RIGHT', 'positionCoords': [694.72, 171], 'bid': 5.79}]",117017.60000000056,1669830358568,luckycharms,banana,5.9,5.79,-0.11000000000000032,luckycharms,805.0999999996275,805,805.2999999998137,True,u,118327.5,1309.8999999994412,1669830359878,1310,HRV,HRV_0124,2022-11-30 17:50:23
60,"[{'imgObject': {}, 'id': 'cheerios', 'src': '/static/foodstim60/cheerios.jpg', 'key': 'u', 'origWidth': 409, 'origHeight': 410, 'width': 409, 'height': 410, 'widthPercent': 0.45, 'rescaleHeight': False, 'trialN': 60, 'loaded': True, 'loadedTime': 4340.4000000003725, 'positionName': 'LEFT', 'positionCoords': [232.28, 171], 'bid': 4.93}, {'imgObject': {}, 'id': 'granola w milk', 'src': '/static/foodstim60/granola w milk.jpg', 'key': 'i', 'origWidth': 410, 'origHeight': 410, 'width': 410, 'height': 410, 'widthPercent': 0.45, 'rescaleHeight': False, 'trialN': 60, 'loaded': True, 'loadedTime': 4282.800000000745, 'positionName': 'RIGHT', 'positionCoords': [694.72, 171], 'bid': 3.78}]",118327.60000000056,1669830359878,cheerios,granola w milk,4.93,3.78,-1.15,cheerios,1862.8999999994412,1863,1863.0999999996275,True,u,120696.10000000056,2368.5,1669830362247,2369,HRV,HRV_0124,2022-11-30 17:50:23
61,"[{'imgObject': {}, 'id': 'rigatoni and sauce', 'src': '/static/foodstim60/rigatoni and sauce.jpg', 'key': 'u', 'origWidth': 410, 'origHeight': 411, 'width': 410, 'height': 411, 'widthPercent': 0.45, 'rescaleHeight': False, 'trialN': 61, 'loaded': True, 'loadedTime': 4175.100000000559, 'positionName': 'LEFT', 'positionCoords': [231.28, 170.5], 'bid': 6.8100000000000005}, {'imgObject': {}, 'id': 'blueberries', 'src': '/static/foodstim60/blueberries.jpg', 'key': 'i', 'origWidth': 411, 'origHeight': 411, 'width': 411, 'height': 411, 'widthPercent': 0.45, 'rescaleHeight': False, 'trialN': 61, 'loaded': True, 'loadedTime': 4271.200000000186, 'positionName': 'RIGHT', 'positionCoords': [694.72, 170.5], 'bid': 5.92}]",120696.30000000075,1669830362247,rigatoni and sauce,blueberries,6.8100000000000005,5.92,-0.8900000000000006,rigatoni and sauce,1222.5,1223,1222.7999999998137,True,u,122431.20000000019,1734.8999999994412,1669830363982,1735,HRV,HRV_0124,2022-11-30 17:50:23
62,"[{'imgObject': {}, 'id': 'burger', 'src': '/static/foodstim60/burger.jpg', 'key': 'u', 'origWidth': 409, 'origHeight': 409, 'width': 409, 'height': 409, 'widthPercent': 0.45, 'rescaleHeight': False, 'trialN': 62, 'loaded': True, 'loadedTime': 4356, 'positionName': 'LEFT', 'positionCoords': [232.28, 171.5], 'bid': 6.05}, {'imgObject': {}, 'id': 'cantaloupe', 'src': '/static/foodstim60/cantaloupe.jpg', 'key': 'i', 'origWidth': 409, 'origHeight': 409, 'width': 409, 'height': 409, 'widthPercent': 0.45, 'rescaleHeight': False, 'trialN': 62, 'loaded': True, 'loadedTime': 4318.300000000745, 'positionName': 'RIGHT', 'positionCoords': [694.72, 171.5], 'bid': 5.8}]",122431.40000000037,1669830363982,burger,cantaloupe,6.05,5.8,-0.25,cantaloupe,1703.2999999998137,1703,1703.5999999996275,True,i,124650.10000000056,2218.7000000001863,1669830366200,2218,HRV,HRV_0124,2022-11-30 17:50:23
63,"[{'imgObject': {}, 'id': 'pear', 'src': '/static/foodstim60/pear.jpg', 'key': 'u', 'origWidth': 411, 'origHeight': 410, 'width': 411, 'height': 410, 'widthPercent': 0.45, 'rescaleHeight': False, 'trialN': 63, 'loaded': True, 'loadedTime': 4326, 'positionName': 'LEFT', 'positionCoords': [230.28, 171], 'bid': 5.61}, {'imgObject': {}, 'id': 'raspberries', 'src': '/static/foodstim60/raspberries.jpg', 'key': 'i', 'origWidth': 411, 'origHeight': 411, 'width': 411, 'height': 411, 'widthPercent': 0.45, 'rescaleHeight': False, 'trialN': 63, 'loaded': True, 'loadedTime': 4168, 'positionName': 'RIGHT', 'positionCoords': [694.72, 170.5], 'bid': 5.32}]",124650.10000000056,1669830366201,pear,raspberries,5.61,5.32,-0.29000000000000004,pear,1684.5999999996275,1684,1684.7999999998137,True,u,126849.60000000056,2199.5,1669830368400,2199,HRV,HRV_0124,2022-11-30 17:50:23
64,"[{'imgObject': {}, 'id': 'corn cob', 'src': '/static/foodstim60/corn cob.jpg', 'key': 'u', 'origWidth': 411, 'origHeight': 411, 'width': 411, 'height': 411, 'widthPercent': 0.45, 'rescaleHeight': False, 'trialN': 64, 'loaded': True, 'loadedTime': 4354.200000000186, 'positionName': 'LEFT', 'positionCoords': [230.28, 170.5], 'bid': 5.6000000000000005}, {'imgObject': {}, 'id': 'Tribe humus pita', 'src': '/static/foodstim60/Tribe humus pita.jpg', 'key': 'i', 'origWidth': 411, 'origHeight': 411, 'width': 411, 'height': 411, 'widthPercent': 0.45, 'rescaleHeight': False, 'trialN': 64, 'loaded': True, 'loadedTime': 4211, 'positionName': 'RIGHT', 'positionCoords': [694.72, 170.5], 'bid': 3.15}]",126849.70000000019,1669830368400,corn cob,Tribe humus pita,5.6000000000000005,3.15,-2.4500000000000006,corn cob,1301.0,1301,1301.2999999998137,True,u,128669.40000000037,1819.7000000001863,1669830370220,1820,HRV,HRV_0124,2022-11-30 17:50:23
65,"[{'imgObject': {}, 'id': 'avocado', 'src': '/static/foodstim60/avocado.jpg', 'key': 'u', 'origWidth': 409, 'origHeight': 409, 'width': 409, 'height': 409, 'widthPercent': 0.45, 'rescaleHeight': False, 'trialN': 65, 'loaded': True, 'loadedTime': 4365.800000000745, 'positionName': 'LEFT', 'positionCoords': [232.28, 171.5], 'bid': 2.98}, {'imgObject': {}, 'id': 'mashed potato', 'src': '/static/foodstim60/mashed potato.jpg', 'key': 'i', 'origWidth': 409, 'origHeight': 409, 'width': 409, 'height': 409, 'widthPercent': 0.45, 'rescaleHeight': False, 'trialN': 65, 'loaded': True, 'loadedTime': 4326.300000000745, 'positionName': 'RIGHT', 'positionCoords': [694.72, 171.5], 'bid': 2.98}]",128669.5,1669830370220,avocado,mashed potato,2.98,2.98,0.0,avocado,2241.2000000001863,2241,2241.4000000003725,True,u,131429.0,2759.5,1669830372979,2759,HRV,HRV_0124,2022-11-30 17:50:23
66,"[{'imgObject': {}, 'id': 'chicken nuggets2', 'src': '/static/foodstim60/chicken nuggets2.jpg', 'key': 'u', 'origWidth': 410, 'origHeight': 409, 'width': 410, 'height': 409, 'widthPercent': 0.45, 'rescaleHeight': False, 'trialN': 66, 'loaded': True, 'loadedTime': 4365.100000000559, 'positionName': 'LEFT', 'positionCoords': [231.28, 171.5], 'bid': 6.0200000000000005}, {'imgObject': {}, 'id': 'turkeysandwich', 'src': '/static/foodstim60/turkeysandwich.jpg', 'key': 'i', 'origWidth': 409, 'origHeight': 409, 'width': 409, 'height': 409, 'widthPercent': 0.45, 'rescaleHeight': False, 'trialN': 66, 'loaded': True, 'loadedTime': 4358.9000000003725, 'positionName': 'RIGHT', 'positionCoords': [694.72, 171.5], 'bid': 6}]",131429.10000000056,1669830372980,chicken nuggets2,turkeysandwich,6.0200000000000005,6.0,-0.020000000000000462,turkeysandwich,1441.5999999996275,1441,1441.8999999994412,True,i,133384.7000000002,1955.5999999996275,1669830374935,1955,HRV,HRV_0124,2022-11-30 17:50:23
67,"[{'imgObject': {}, 'id': 'avocado', 'src': '/static/foodstim60/avocado.jpg', 'key': 'u', 'origWidth': 409, 'origHeight': 409, 'width': 409, 'height': 409, 'widthPercent': 0.45, 'rescaleHeight': False, 'trialN': 67, 'loaded': True, 'loadedTime': 4365.700000000186, 'positionName': 'LEFT', 'positionCoords': [232.28, 171.5], 'bid': 2.98}, {'imgObject': {}, 'id': 'yogurt no spoon', 'src': '/static/foodstim60/yogurt no spoon.jpg', 'key': 'i', 'origWidth': 411, 'origHeight': 410, 'width': 411, 'height': 410, 'widthPercent': 0.45, 'rescaleHeight': False, 'trialN': 67, 'loaded': True, 'loadedTime': 4355.800000000745, 'positionName': 'RIGHT', 'positionCoords': [694.72, 171], 'bid': 3.82}]",133384.80000000075,1669830374935,avocado,yogurt no spoon,2.98,3.82,0.8399999999999999,yogurt no spoon,2709.899999999441,2710,2710.0999999996275,True,i,136609.40000000037,3224.5999999996275,1669830378160,3225,HRV,HRV_0124,2022-11-30 17:50:23
68,"[{'imgObject': {}, 'id': 'sweetpotato', 'src': '/static/foodstim60/sweetpotato.jpg', 'key': 'u', 'origWidth': 410, 'origHeight': 410, 'width': 410, 'height': 410, 'widthPercent': 0.45, 'rescaleHeight': False, 'trialN': 68, 'loaded': True, 'loadedTime': 4338.600000000559, 'positionName': 'LEFT', 'positionCoords': [231.28, 171], 'bid': 5.47}, {'imgObject': {}, 'id': 'olives', 'src': '/static/foodstim60/olives.jpg', 'key': 'i', 'origWidth': 410, 'origHeight': 410, 'width': 410, 'height': 410, 'widthPercent': 0.45, 'rescaleHeight': False, 'trialN': 68, 'loaded': True, 'loadedTime': 4356.800000000745, 'positionName': 'RIGHT', 'positionCoords': [694.72, 171], 'bid': 2.76}]",136609.5,1669830378160,sweetpotato,olives,5.47,2.76,-2.71,sweetpotato,1557.300000000745,1557,1557.4000000003725,True,u,138677.40000000037,2067.9000000003725,1669830380228,2068,HRV,HRV_0124,2022-11-30 17:50:23
69,"[{'imgObject': {}, 'id': 'bagel plain', 'src': '/static/foodstim60/bagel plain.jpg', 'key': 'u', 'origWidth': 410, 'origHeight': 410, 'width': 410, 'height': 410, 'widthPercent': 0.45, 'rescaleHeight': False, 'trialN': 69, 'loaded': True, 'loadedTime': 4332.4000000003725, 'positionName': 'LEFT', 'positionCoords': [231.28, 171], 'bid': 3.9}, {'imgObject': {}, 'id': 'yogurt no spoon', 'src': '/static/foodstim60/yogurt no spoon.jpg', 'key': 'i', 'origWidth': 411, 'origHeight': 410, 'width': 411, 'height': 410, 'widthPercent': 0.45, 'rescaleHeight': False, 'trialN': 69, 'loaded': True, 'loadedTime': 4355.200000000186, 'positionName': 'RIGHT', 'positionCoords': [694.72, 171], 'bid': 3.82}]",138677.5,1669830380228,bagel plain,yogurt no spoon,3.9,3.82,-0.08000000000000007,bagel plain,1825.2000000001863,1825,1825.5,True,u,141020.30000000075,2342.800000000745,1669830382571,2343,HRV,HRV_0124,2022-11-30 17:50:23
70,"[{'imgObject': {}, 'id': 'salad w chicken', 'src': '/static/foodstim60/salad w chicken.jpg', 'key': 'u', 'origWidth': 411, 'origHeight': 411, 'width': 411, 'height': 411, 'widthPercent': 0.45, 'rescaleHeight': False, 'trialN': 70, 'loaded': True, 'loadedTime': 4339.5, 'positionName': 'LEFT', 'positionCoords': [230.28, 170.5], 'bid': 5.46}, {'imgObject': {}, 'id': 'apple slices', 'src': '/static/foodstim60/apple slices.jpg', 'key': 'i', 'origWidth': 409, 'origHeight': 410, 'width': 409, 'height': 410, 'widthPercent': 0.45, 'rescaleHeight': False, 'trialN': 70, 'loaded': True, 'loadedTime': 4354.9000000003725, 'positionName': 'RIGHT', 'positionCoords': [694.72, 171], 'bid': 5.23}]",141020.40000000037,1669830382571,salad w chicken,apple slices,5.46,5.23,-0.22999999999999954,salad w chicken,2210.5,2211,2210.5999999996275,True,u,143736.0,2715.5999999996275,1669830385286,2715,HRV,HRV_0124,2022-11-30 17:50:23
71,"[{'imgObject': {}, 'id': 'sweetpotato', 'src': '/static/foodstim60/sweetpotato.jpg', 'key': 'u', 'origWidth': 410, 'origHeight': 410, 'width': 410, 'height': 410, 'widthPercent': 0.45, 'rescaleHeight': False, 'trialN': 71, 'loaded': True, 'loadedTime': 4332.5, 'positionName': 'LEFT', 'positionCoords': [231.28, 171], 'bid': 5.47}, {'imgObject': {}, 'id': 'shreddedwheatwithmilk', 'src': '/static/foodstim60/shreddedwheatwithmilk.jpg', 'key': 'i', 'origWidth': 410, 'origHeight': 410, 'width': 410, 'height': 410, 'widthPercent': 0.45, 'rescaleHeight': False, 'trialN': 71, 'loaded': True, 'loadedTime': 4191.300000000745, 'positionName': 'RIGHT', 'positionCoords': [694.72, 171], 'bid': 4.88}]",143736.10000000056,1669830385287,sweetpotato,shreddedwheatwithmilk,5.47,4.88,-0.5899999999999999,sweetpotato,2174.399999999441,2174,2174.7000000001863,True,u,146417.5,2681.399999999441,1669830387968,2681,HRV,HRV_0124,2022-11-30 17:50:23
72,"[{'imgObject': {}, 'id': 'sushi w_condiments', 'src': '/static/foodstim60/sushi w_condiments.jpg', 'key': 'u', 'origWidth': 410, 'origHeight': 410, 'width': 410, 'height': 410, 'widthPercent': 0.45, 'rescaleHeight': False, 'trialN': 72, 'loaded': True, 'loadedTime': 4277, 'positionName': 'LEFT', 'positionCoords': [231.28, 171], 'bid': 0.48}, {'imgObject': {}, 'id': 'edamame', 'src': '/static/foodstim60/edamame.jpg', 'key': 'i', 'origWidth': 409, 'origHeight': 410, 'width': 409, 'height': 410, 'widthPercent': 0.45, 'rescaleHeight': False, 'trialN': 72, 'loaded': True, 'loadedTime': 4183.9000000003725, 'positionName': 'RIGHT', 'positionCoords': [694.72, 171], 'bid': 4.14}]",146417.60000000056,1669830387968,sushi w_condiments,edamame,0.48,4.14,3.6599999999999997,edamame,1245.0,1245,1245.2999999998137,True,i,148168.80000000075,1751.2000000001863,1669830389719,1751,HRV,HRV_0124,2022-11-30 17:50:23
73,"[{'imgObject': {}, 'id': 'pear', 'src': '/static/foodstim60/pear.jpg', 'key': 'u', 'origWidth': 411, 'origHeight': 410, 'width': 411, 'height': 410, 'widthPercent': 0.45, 'rescaleHeight': False, 'trialN': 73, 'loaded': True, 'loadedTime': 4326.100000000559, 'positionName': 'LEFT', 'positionCoords': [230.28, 171], 'bid': 5.61}, {'imgObject': {}, 'id': 'cheerios', 'src': '/static/foodstim60/cheerios.jpg', 'key': 'i', 'origWidth': 409, 'origHeight': 410, 'width': 409, 'height': 410, 'widthPercent': 0.45, 'rescaleHeight': False, 'trialN': 73, 'loaded': True, 'loadedTime': 4340.5, 'positionName': 'RIGHT', 'positionCoords': [694.72, 171], 'bid': 4.93}]",148168.90000000037,1669830389719,pear,cheerios,5.61,4.93,-0.6800000000000006,cheerios,2501.5,2502,2501.7000000001863,True,i,151179.5,3010.5999999996275,1669830392730,3011,HRV,HRV_0124,2022-11-30 17:50:23
74,"[{'imgObject': {}, 'id': 'shreddedwheatwithmilk', 'src': '/static/foodstim60/shreddedwheatwithmilk.jpg', 'key': 'u', 'origWidth': 410, 'origHeight': 410, 'width': 410, 'height': 410, 'widthPercent': 0.45, 'rescaleHeight': False, 'trialN': 74, 'loaded': True, 'loadedTime': 4192.300000000745, 'positionName': 'LEFT', 'positionCoords': [231.28, 171], 'bid': 4.88}, {'imgObject': {}, 'id': 'chicken nuggets2', 'src': '/static/foodstim60/chicken nuggets2.jpg', 'key': 'i', 'origWidth': 410, 'origHeight': 409, 'width': 410, 'height': 409, 'widthPercent': 0.45, 'rescaleHeight': False, 'trialN': 74, 'loaded': True, 'loadedTime': 4365.100000000559, 'positionName': 'RIGHT', 'positionCoords': [694.72, 171.5], 'bid': 6.0200000000000005}]",151179.60000000056,1669830392730,shreddedwheatwithmilk,chicken nuggets2,4.88,6.0200000000000005,1.1400000000000006,chicken nuggets2,2035.0999999996275,2035,2035.2999999998137,True,i,153724.7000000002,2545.0999999996275,1669830395275,2545,HRV,HRV_0124,2022-11-30 17:50:23
75,"[{'imgObject': {}, 'id': 'blackbeanswithrice', 'src': '/static/foodstim60/blackbeanswithrice.jpg', 'key': 'u', 'origWidth': 410, 'origHeight': 410, 'width': 410, 'height': 410, 'widthPercent': 0.45, 'rescaleHeight': False, 'trialN': 75, 'loaded': True, 'loadedTime': 4364, 'positionName': 'LEFT', 'positionCoords': [231.28, 171], 'bid': 6.01}, {'imgObject': {}, 'id': 'blueberries', 'src': '/static/foodstim60/blueberries.jpg', 'key': 'i', 'origWidth': 411, 'origHeight': 411, 'width': 411, 'height': 411, 'widthPercent': 0.45, 'rescaleHeight': False, 'trialN': 75, 'loaded': True, 'loadedTime': 4271.300000000745, 'positionName': 'RIGHT', 'positionCoords': [694.72, 170.5], 'bid': 5.92}]",153724.7000000002,1669830395275,blackbeanswithrice,blueberries,6.01,5.92,-0.08999999999999986,blackbeanswithrice,1041.7999999998137,1042,1042.0,True,u,155275.5,1550.7999999998137,1669830396826,1551,HRV,HRV_0124,2022-11-30 17:50:23
76,"[{'imgObject': {}, 'id': 'Grapes', 'src': '/static/foodstim60/Grapes.jpg', 'key': 'u', 'origWidth': 411, 'origHeight': 411, 'width': 411, 'height': 411, 'widthPercent': 0.45, 'rescaleHeight': False, 'trialN': 76, 'loaded': True, 'loadedTime': 4324.100000000559, 'positionName': 'LEFT', 'positionCoords': [230.28, 170.5], 'bid': 5.67}, {'imgObject': {}, 'id': 'orange slices', 'src': '/static/foodstim60/orange slices.jpg', 'key': 'i', 'origWidth': 409, 'origHeight': 410, 'width': 409, 'height': 410, 'widthPercent': 0.45, 'rescaleHeight': False, 'trialN': 76, 'loaded': True, 'loadedTime': 4305.600000000559, 'positionName': 'RIGHT', 'positionCoords': [694.72, 171], 'bid': 5.71}]",155275.7000000002,1669830396826,Grapes,orange slices,5.67,5.71,0.040000000000000036,orange slices,1899.0,1899,1899.2000000001863,True,i,157683.80000000075,2408.100000000559,1669830399234,2408,HRV,HRV_0124,2022-11-30 17:50:23
77,"[{'imgObject': {}, 'id': 'sweetpotato', 'src': '/static/foodstim60/sweetpotato.jpg', 'key': 'u', 'origWidth': 410, 'origHeight': 410, 'width': 410, 'height': 410, 'widthPercent': 0.45, 'rescaleHeight': False, 'trialN': 77, 'loaded': True, 'loadedTime': 4338.5, 'positionName': 'LEFT', 'positionCoords': [231.28, 171], 'bid': 5.47}, {'imgObject': {}, 'id': 'fruitsalad', 'src': '/static/foodstim60/fruitsalad.jpg', 'key': 'i', 'origWidth': 410, 'origHeight': 410, 'width': 410, 'height': 410, 'widthPercent': 0.45, 'rescaleHeight': False, 'trialN': 77, 'loaded': True, 'loadedTime': 4257.9000000003725, 'positionName': 'RIGHT', 'positionCoords': [694.72, 171], 'bid': 5.89}]",157683.90000000037,1669830399234,sweetpotato,fruitsalad,5.47,5.89,0.41999999999999993,fruitsalad,1050.7000000001863,1051,1050.9000000003725,True,i,159247.40000000037,1563.5,1669830400807,1573,HRV,HRV_0124,2022-11-30 17:50:23
78,"[{'imgObject': {}, 'id': 'kiwi', 'src': '/static/foodstim60/kiwi.jpg', 'key': 'u', 'origWidth': 410, 'origHeight': 410, 'width': 410, 'height': 410, 'widthPercent': 0.45, 'rescaleHeight': False, 'trialN': 78, 'loaded': True, 'loadedTime': 4298.700000000186, 'positionName': 'LEFT', 'positionCoords': [231.28, 171], 'bid': 3.5500000000000003}, {'imgObject': {}, 'id': 'Tribe humus pita', 'src': '/static/foodstim60/Tribe humus pita.jpg', 'key': 'i', 'origWidth': 411, 'origHeight': 411, 'width': 411, 'height': 411, 'widthPercent': 0.45, 'rescaleHeight': False, 'trialN': 78, 'loaded': True, 'loadedTime': 4211.200000000186, 'positionName': 'RIGHT', 'positionCoords': [694.72, 170.5], 'bid': 3.15}]",159247.5,1669830400807,kiwi,Tribe humus pita,3.5500000000000003,3.15,-0.40000000000000036,kiwi,1231.300000000745,1231,1231.4000000003725,True,u,160988.40000000037,1740.9000000003725,1669830402548,1741,HRV,HRV_0124,2022-11-30 17:50:23
79,"[{'imgObject': {}, 'id': 'turkey sandwich', 'src': '/static/foodstim60/turkey sandwich.jpg', 'key': 'u', 'origWidth': 409, 'origHeight': 409, 'width': 409, 'height': 409, 'widthPercent': 0.45, 'rescaleHeight': False, 'trialN': 79, 'loaded': True, 'loadedTime': 4218.300000000745, 'positionName': 'LEFT', 'positionCoords': [232.28, 171.5], 'bid': 5.83}, {'imgObject': {}, 'id': 'veggieswithdip', 'src': '/static/foodstim60/veggieswithdip.jpg', 'key': 'i', 'origWidth': 409, 'origHeight': 409, 'width': 409, 'height': 409, 'widthPercent': 0.45, 'rescaleHeight': False, 'trialN': 79, 'loaded': True, 'loadedTime': 4148.5, 'positionName': 'RIGHT', 'positionCoords': [694.72, 171.5], 'bid': 4.03}]",160988.5,1669830402548,turkey sandwich,veggieswithdip,5.83,4.03,-1.7999999999999998,turkey sandwich,914.2000000001863,914,914.4000000003725,True,u,162413.40000000037,1424.9000000003725,1669830403973,1425,HRV,HRV_0124,2022-11-30 17:50:23
80,"[{'imgObject': {}, 'id': 'avocado', 'src': '/static/foodstim60/avocado.jpg', 'key': 'u', 'origWidth': 409, 'origHeight': 409, 'width': 409, 'height': 409, 'widthPercent': 0.45, 'rescaleHeight': False, 'trialN': 80, 'loaded': True, 'loadedTime': 4365.100000000559, 'positionName': 'LEFT', 'positionCoords': [232.28, 171.5], 'bid': 2.98}, {'imgObject': {}, 'id': 'roastedpotatoes', 'src': '/static/foodstim60/roastedpotatoes.jpg', 'key': 'i', 'origWidth': 409, 'origHeight': 410, 'width': 409, 'height': 410, 'widthPercent': 0.45, 'rescaleHeight': False, 'trialN': 80, 'loaded': True, 'loadedTime': 4287, 'positionName': 'RIGHT', 'positionCoords': [694.72, 171], 'bid': 5.54}]",162413.60000000056,1669830403973,avocado,roastedpotatoes,2.98,5.54,2.56,roastedpotatoes,1329.0999999996275,1329,1329.2999999998137,True,i,164248.10000000056,1834.5,1669830405808,1835,HRV,HRV_0124,2022-11-30 17:50:23
81,"[{'imgObject': {}, 'id': 'rigatoni and sauce', 'src': '/static/foodstim60/rigatoni and sauce.jpg', 'key': 'u', 'origWidth': 410, 'origHeight': 411, 'width': 410, 'height': 411, 'widthPercent': 0.45, 'rescaleHeight': False, 'trialN': 81, 'loaded': True, 'loadedTime': 4176, 'positionName': 'LEFT', 'positionCoords': [231.28, 170.5], 'bid': 6.8100000000000005}, {'imgObject': {}, 'id': 'apple slices', 'src': '/static/foodstim60/apple slices.jpg', 'key': 'i', 'origWidth': 409, 'origHeight': 410, 'width': 409, 'height': 410, 'widthPercent': 0.45, 'rescaleHeight': False, 'trialN': 81, 'loaded': True, 'loadedTime': 4354.9000000003725, 'positionName': 'RIGHT', 'positionCoords': [694.72, 171], 'bid': 5.23}]",164248.30000000075,1669830405808,rigatoni and sauce,apple slices,6.8100000000000005,5.23,-1.58,rigatoni and sauce,791.6999999992549,792,791.8999999994412,True,u,165549.10000000056,1300.7999999998137,1669830407109,1301,HRV,HRV_0124,2022-11-30 17:50:23
82,"[{'imgObject': {}, 'id': 'mashed potato', 'src': '/static/foodstim60/mashed potato.jpg', 'key': 'u', 'origWidth': 409, 'origHeight': 409, 'width': 409, 'height': 409, 'widthPercent': 0.45, 'rescaleHeight': False, 'trialN': 82, 'loaded': True, 'loadedTime': 4330.600000000559, 'positionName': 'LEFT', 'positionCoords': [232.28, 171.5], 'bid': 2.98}, {'imgObject': {}, 'id': 'olives', 'src': '/static/foodstim60/olives.jpg', 'key': 'i', 'origWidth': 410, 'origHeight': 410, 'width': 410, 'height': 410, 'widthPercent': 0.45, 'rescaleHeight': False, 'trialN': 82, 'loaded': True, 'loadedTime': 4357.4000000003725, 'positionName': 'RIGHT', 'positionCoords': [694.72, 171], 'bid': 2.76}]",165549.30000000075,1669830407109,mashed potato,olives,2.98,2.76,-0.2200000000000002,mashed potato,1929.3999999994412,1929,1929.5999999996275,True,u,167988.60000000056,2439.2999999998137,1669830409548,2439,HRV,HRV_0124,2022-11-30 17:50:23
83,"[{'imgObject': {}, 'id': 'grilled chicken strips', 'src': '/static/foodstim60/grilled chicken strips.jpg', 'key': 'u', 'origWidth': 410, 'origHeight': 411, 'width': 410, 'height': 411, 'widthPercent': 0.45, 'rescaleHeight': False, 'trialN': 83, 'loaded': True, 'loadedTime': 4345.200000000186, 'positionName': 'LEFT', 'positionCoords': [231.28, 170.5], 'bid': 6.19}, {'imgObject': {}, 'id': 'chickenfingers', 'src': '/static/foodstim60/chickenfingers.jpg', 'key': 'i', 'origWidth': 410, 'origHeight': 410, 'width': 410, 'height': 410, 'widthPercent': 0.45, 'rescaleHeight': False, 'trialN': 83, 'loaded': True, 'loadedTime': 4346.5, 'positionName': 'RIGHT', 'positionCoords': [694.72, 171], 'bid': 5.83}]",167988.7000000002,1669830409548,grilled chicken strips,chickenfingers,6.19,5.83,-0.3600000000000003,grilled chicken strips,2130.0,2130,2130.2999999998137,True,u,170636.80000000075,2648.100000000559,1669830412196,2648,HRV,HRV_0124,2022-11-30 17:50:23
84,"[{'imgObject': {}, 'id': 'Grapes', 'src': '/static/foodstim60/Grapes.jpg', 'key': 'u', 'origWidth': 411, 'origHeight': 411, 'width': 411, 'height': 411, 'widthPercent': 0.45, 'rescaleHeight': False, 'trialN': 84, 'loaded': True, 'loadedTime': 4324.100000000559, 'positionName': 'LEFT', 'positionCoords': [230.28, 170.5], 'bid': 5.67}, {'imgObject': {}, 'id': 'kiwi', 'src': '/static/foodstim60/kiwi.jpg', 'key': 'i', 'origWidth': 410, 'origHeight': 410, 'width': 410, 'height': 410, 'widthPercent': 0.45, 'rescaleHeight': False, 'trialN': 84, 'loaded': True, 'loadedTime': 4298.800000000745, 'positionName': 'RIGHT', 'positionCoords': [694.72, 171], 'bid': 3.5500000000000003}]",170636.90000000037,1669830412196,Grapes,kiwi,5.67,3.5500000000000003,-2.1199999999999997,Grapes,1033.7999999998137,1034,1034.0,True,u,172188.0,1551.0999999996275,1669830413747,1551,HRV,HRV_0124,2022-11-30 17:50:23
85,"[{'imgObject': {}, 'id': 'burger', 'src': '/static/foodstim60/burger.jpg', 'key': 'u', 'origWidth': 409, 'origHeight': 409, 'width': 409, 'height': 409, 'widthPercent': 0.45, 'rescaleHeight': False, 'trialN': 85, 'loaded': True, 'loadedTime': 4356.800000000745, 'positionName': 'LEFT', 'positionCoords': [232.28, 171.5], 'bid': 6.05}, {'imgObject': {}, 'id': 'mac & cheese', 'src': '/static/foodstim60/mac & cheese.jpg', 'key': 'i', 'origWidth': 410, 'origHeight': 410, 'width': 410, 'height': 410, 'widthPercent': 0.45, 'rescaleHeight': False, 'trialN': 85, 'loaded': True, 'loadedTime': 4245.600000000559, 'positionName': 'RIGHT', 'positionCoords': [694.72, 171], 'bid': 9.16}]",172188.2000000002,1669830413748,burger,mac & cheese,6.05,9.16,3.1100000000000003,mac & cheese,754.5,754,754.7000000001863,True,i,173460.5,1272.2999999998137,1669830415020,1272,HRV,HRV_0124,2022-11-30 17:50:23
86,"[{'imgObject': {}, 'id': 'mango', 'src': '/static/foodstim60/mango.jpg', 'key': 'u', 'origWidth': 411, 'origHeight': 411, 'width': 411, 'height': 411, 'widthPercent': 0.45, 'rescaleHeight': False, 'trialN': 86, 'loaded': True, 'loadedTime': 4366.600000000559, 'positionName': 'LEFT', 'positionCoords': [230.28, 170.5], 'bid': 4.92}, {'imgObject': {}, 'id': 'burger', 'src': '/static/foodstim60/burger.jpg', 'key': 'i', 'origWidth': 409, 'origHeight': 409, 'width': 409, 'height': 409, 'widthPercent': 0.45, 'rescaleHeight': False, 'trialN': 86, 'loaded': True, 'loadedTime': 4356.600000000559, 'positionName': 'RIGHT', 'positionCoords': [694.72, 171.5], 'bid': 6.05}]",173460.7000000002,1669830415020,mango,burger,4.92,6.05,1.13,burger,1730.1000000005588,1730,1730.2999999998137,True,i,175697.80000000075,2237.100000000559,1669830417257,2237,HRV,HRV_0124,2022-11-30 17:50:23
87,"[{'imgObject': {}, 'id': 'strawberries', 'src': '/static/foodstim60/strawberries.jpg', 'key': 'u', 'origWidth': 410, 'origHeight': 410, 'width': 410, 'height': 410, 'widthPercent': 0.45, 'rescaleHeight': False, 'trialN': 87, 'loaded': True, 'loadedTime': 4312.700000000186, 'positionName': 'LEFT', 'positionCoords': [231.28, 171], 'bid': 5.75}, {'imgObject': {}, 'id': 'burrito', 'src': '/static/foodstim60/burrito.jpg', 'key': 'i', 'origWidth': 410, 'origHeight': 410, 'width': 410, 'height': 410, 'widthPercent': 0.45, 'rescaleHeight': False, 'trialN': 87, 'loaded': True, 'loadedTime': 4325.300000000745, 'positionName': 'RIGHT', 'positionCoords': [694.72, 171], 'bid': 5.68}]",175697.90000000037,1669830417257,strawberries,burrito,5.75,5.68,-0.07000000000000028,strawberries,1556.7999999998137,1557,1557.0,True,u,177762.30000000075,2064.4000000003725,1669830419322,2065,HRV,HRV_0124,2022-11-30 17:50:23
88,"[{'imgObject': {}, 'id': 'rigatoni', 'src': '/static/foodstim60/rigatoni.jpg', 'key': 'u', 'origWidth': 411, 'origHeight': 411, 'width': 411, 'height': 411, 'widthPercent': 0.45, 'rescaleHeight': False, 'trialN': 88, 'loaded': True, 'loadedTime': 4270.5, 'positionName': 'LEFT', 'positionCoords': [230.28, 170.5], 'bid': 6.08}, {'imgObject': {}, 'id': 'grilled chicken strips', 'src': '/static/foodstim60/grilled chicken strips.jpg', 'key': 'i', 'origWidth': 410, 'origHeight': 411, 'width': 410, 'height': 411, 'widthPercent': 0.45, 'rescaleHeight': False, 'trialN': 88, 'loaded': True, 'loadedTime': 4345, 'positionName': 'RIGHT', 'positionCoords': [694.72, 170.5], 'bid': 6.19}]",177762.5,1669830419322,rigatoni,grilled chicken strips,6.08,6.19,0.11000000000000032,grilled chicken strips,764.6000000005588,765,764.8000000007451,True,i,179032.90000000037,1270.4000000003725,1669830420592,1270,HRV,HRV_0124,2022-11-30 17:50:23
89,"[{'imgObject': {}, 'id': 'pear', 'src': '/static/foodstim60/pear.jpg', 'key': 'u', 'origWidth': 411, 'origHeight': 410, 'width': 411, 'height': 410, 'widthPercent': 0.45, 'rescaleHeight': False, 'trialN': 89, 'loaded': True, 'loadedTime': 4325.9000000003725, 'positionName': 'LEFT', 'positionCoords': [230.28, 171], 'bid': 5.61}, {'imgObject': {}, 'id': 'corn cob', 'src': '/static/foodstim60/corn cob.jpg', 'key': 'i', 'origWidth': 411, 'origHeight': 411, 'width': 411, 'height': 411, 'widthPercent': 0.45, 'rescaleHeight': False, 'trialN': 89, 'loaded': True, 'loadedTime': 4354.100000000559, 'positionName': 'RIGHT', 'positionCoords': [694.72, 170.5], 'bid': 5.6000000000000005}]",179033.10000000056,1669830420593,pear,corn cob,5.61,5.6000000000000005,-0.009999999999999787,corn cob,1981.5999999996275,1981,1981.7999999998137,True,i,181529.7000000002,2496.5999999996275,1669830423089,2496,HRV,HRV_0124,2022-11-30 17:50:23
90,"[{'imgObject': {}, 'id': 'cheerios', 'src': '/static/foodstim60/cheerios.jpg', 'key': 'u', 'origWidth': 409, 'origHeight': 410, 'width': 409, 'height': 410, 'widthPercent': 0.45, 'rescaleHeight': False, 'trialN': 90, 'loaded': True, 'loadedTime': 4340.300000000745, 'positionName': 'LEFT', 'positionCoords': [232.28, 171], 'bid': 4.93}, {'imgObject': {}, 'id': 'sweetpotato', 'src': '/static/foodstim60/sweetpotato.jpg', 'key': 'i', 'origWidth': 410, 'origHeight': 410, 'width': 410, 'height': 410, 'widthPercent': 0.45, 'rescaleHeight': False, 'trialN': 90, 'loaded': True, 'loadedTime': 4338.700000000186, 'positionName': 'RIGHT', 'positionCoords': [694.72, 171], 'bid': 5.47}]",196567.2000000002,1669830438127,cheerios,sweetpotato,4.93,5.47,0.54,cheerios,1911.5,1911,1911.7999999998137,True,u,198986.0,2418.7999999998137,1669830440545,2418,HRV,HRV_0124,2022-11-30 17:50:23
91,"[{'imgObject': {}, 'id': 'pear', 'src': '/static/foodstim60/pear.jpg', 'key': 'u', 'origWidth': 411, 'origHeight': 410, 'width': 411, 'height': 410, 'widthPercent': 0.45, 'rescaleHeight': False, 'trialN': 91, 'loaded': True, 'loadedTime': 4326.100000000559, 'positionName': 'LEFT', 'positionCoords': [230.28, 171], 'bid': 5.61}, {'imgObject': {}, 'id': 'blackbeanswithrice', 'src': '/static/foodstim60/blackbeanswithrice.jpg', 'key': 'i', 'origWidth': 410, 'origHeight': 410, 'width': 410, 'height': 410, 'widthPercent': 0.45, 'rescaleHeight': False, 'trialN': 91, 'loaded': True, 'loadedTime': 4364.200000000186, 'positionName': 'RIGHT', 'positionCoords': [694.72, 171], 'bid': 6.01}]",198986.10000000056,1669830440546,pear,blackbeanswithrice,5.61,6.01,0.39999999999999947,blackbeanswithrice,724.5,724,724.7999999998137,True,i,200216.5,1230.3999999994412,1669830441776,1230,HRV,HRV_0124,2022-11-30 17:50:23
92,"[{'imgObject': {}, 'id': 'lox', 'src': '/static/foodstim60/lox.jpg', 'key': 'u', 'origWidth': 410, 'origHeight': 411, 'width': 410, 'height': 411, 'widthPercent': 0.45, 'rescaleHeight': False, 'trialN': 92, 'loaded': True, 'loadedTime': 4205.100000000559, 'positionName': 'LEFT', 'positionCoords': [231.28, 170.5], 'bid': 3.47}, {'imgObject': {}, 'id': 'pear', 'src': '/static/foodstim60/pear.jpg', 'key': 'i', 'origWidth': 411, 'origHeight': 410, 'width': 411, 'height': 410, 'widthPercent': 0.45, 'rescaleHeight': False, 'trialN': 92, 'loaded': True, 'loadedTime': 4325.4000000003725, 'positionName': 'RIGHT', 'positionCoords': [694.72, 171], 'bid': 5.61}]",200216.7000000002,1669830441776,lox,pear,3.47,5.61,2.14,pear,877.9000000003725,878,878.1000000005588,True,i,201607.90000000037,1391.2000000001863,1669830443167,1391,HRV,HRV_0124,2022-11-30 17:50:23
93,"[{'imgObject': {}, 'id': 'corn cob', 'src': '/static/foodstim60/corn cob.jpg', 'key': 'u', 'origWidth': 411, 'origHeight': 411, 'width': 411, 'height': 411, 'widthPercent': 0.45, 'rescaleHeight': False, 'trialN': 93, 'loaded': True, 'loadedTime': 4348.600000000559, 'positionName': 'LEFT', 'positionCoords': [230.28, 170.5], 'bid': 5.6000000000000005}, {'imgObject': {}, 'id': 'fried eggs', 'src': '/static/foodstim60/fried eggs.jpg', 'key': 'i', 'origWidth': 410, 'origHeight': 410, 'width': 410, 'height': 410, 'widthPercent': 0.45, 'rescaleHeight': False, 'trialN': 93, 'loaded': True, 'loadedTime': 4265, 'positionName': 'RIGHT', 'positionCoords': [694.72, 171], 'bid': 4.93}]",201607.90000000037,1669830443167,corn cob,fried eggs,5.6000000000000005,4.93,-0.6700000000000008,corn cob,982.7999999998137,983,983.0,True,u,203094.2000000002,1486.2999999998137,1669830444654,1487,HRV,HRV_0124,2022-11-30 17:50:23
94,"[{'imgObject': {}, 'id': 'eggs', 'src': '/static/foodstim60/eggs.jpg', 'key': 'u', 'origWidth': 409, 'origHeight': 409, 'width': 409, 'height': 409, 'widthPercent': 0.45, 'rescaleHeight': False, 'trialN': 94, 'loaded': True, 'loadedTime': 4259.300000000745, 'positionName': 'LEFT', 'positionCoords': [232.28, 171.5], 'bid': 5.0200000000000005}, {'imgObject': {}, 'id': 'froot loops w milk', 'src': '/static/foodstim60/froot loops w milk.jpg', 'key': 'i', 'origWidth': 410, 'origHeight': 410, 'width': 410, 'height': 410, 'widthPercent': 0.45, 'rescaleHeight': False, 'trialN': 94, 'loaded': True, 'loadedTime': 4290.5, 'positionName': 'RIGHT', 'positionCoords': [694.72, 171], 'bid': 5.54}]",203094.30000000075,1669830444654,eggs,froot loops w milk,5.0200000000000005,5.54,0.5199999999999996,froot loops w milk,896.5999999996275,897,896.7999999998137,True,i,204497.60000000056,1403.2999999998137,1669830446057,1403,HRV,HRV_0124,2022-11-30 17:50:23
95,"[{'imgObject': {}, 'id': 'cherry tomato', 'src': '/static/foodstim60/cherry tomato.jpg', 'key': 'u', 'origWidth': 410, 'origHeight': 410, 'width': 410, 'height': 410, 'widthPercent': 0.45, 'rescaleHeight': False, 'trialN': 95, 'loaded': True, 'loadedTime': 4252.200000000186, 'positionName': 'LEFT', 'positionCoords': [231.28, 171], 'bid': 5.0200000000000005}, {'imgObject': {}, 'id': 'Grapes', 'src': '/static/foodstim60/Grapes.jpg', 'key': 'i', 'origWidth': 411, 'origHeight': 411, 'width': 411, 'height': 411, 'widthPercent': 0.45, 'rescaleHeight': False, 'trialN': 95, 'loaded': True, 'loadedTime': 4324.100000000559, 'positionName': 'RIGHT', 'positionCoords': [694.72, 170.5], 'bid': 5.67}]",204497.80000000075,1669830446057,cherry tomato,Grapes,5.0200000000000005,5.67,0.6499999999999995,Grapes,1668.8999999994412,1669,1669.0999999996275,True,i,206682.90000000037,2185.0999999996275,1669830448242,2185,HRV,HRV_0124,2022-11-30 17:50:23
96,"[{'imgObject': {}, 'id': 'salad w chicken', 'src': '/static/foodstim60/salad w chicken.jpg', 'key': 'u', 'origWidth': 411, 'origHeight': 411, 'width': 411, 'height': 411, 'widthPercent': 0.45, 'rescaleHeight': False, 'trialN': 96, 'loaded': True, 'loadedTime': 4339.700000000186, 'positionName': 'LEFT', 'positionCoords': [230.28, 170.5], 'bid': 5.46}, {'imgObject': {}, 'id': 'sushi w_condiments', 'src': '/static/foodstim60/sushi w_condiments.jpg', 'key': 'i', 'origWidth': 410, 'origHeight': 410, 'width': 410, 'height': 410, 'widthPercent': 0.45, 'rescaleHeight': False, 'trialN': 96, 'loaded': True, 'loadedTime': 4277.200000000186, 'positionName': 'RIGHT', 'positionCoords': [694.72, 171], 'bid': 0.48}]",206683.0,1669830448243,salad w chicken,sushi w_condiments,5.46,0.48,-4.98,salad w chicken,931.4000000003725,931,931.6000000005588,True,u,208133.60000000056,1450.6000000005588,1669830449693,1450,HRV,HRV_0124,2022-11-30 17:50:23
97,"[{'imgObject': {}, 'id': 'chickenfingers', 'src': '/static/foodstim60/chickenfingers.jpg', 'key': 'u', 'origWidth': 410, 'origHeight': 410, 'width': 410, 'height': 410, 'widthPercent': 0.45, 'rescaleHeight': False, 'trialN': 97, 'loaded': True, 'loadedTime': 4346.600000000559, 'positionName': 'LEFT', 'positionCoords': [231.28, 171], 'bid': 5.83}, {'imgObject': {}, 'id': 'strawberries', 'src': '/static/foodstim60/strawberries.jpg', 'key': 'i', 'origWidth': 410, 'origHeight': 410, 'width': 410, 'height': 410, 'widthPercent': 0.45, 'rescaleHeight': False, 'trialN': 97, 'loaded': True, 'loadedTime': 4317.300000000745, 'positionName': 'RIGHT', 'positionCoords': [694.72, 171], 'bid': 5.75}]",208133.7000000002,1669830449693,chickenfingers,strawberries,5.83,5.75,-0.08000000000000007,chickenfingers,2073.0,2073,2073.2999999998137,True,u,210719.10000000056,2585.4000000003725,1669830452279,2586,HRV,HRV_0124,2022-11-30 17:50:23
98,"[{'imgObject': {}, 'id': 'luckycharms', 'src': '/static/foodstim60/luckycharms.jpg', 'key': 'u', 'origWidth': 410, 'origHeight': 409, 'width': 410, 'height': 409, 'widthPercent': 0.45, 'rescaleHeight': False, 'trialN': 98, 'loaded': True, 'loadedTime': 4231.9000000003725, 'positionName': 'LEFT', 'positionCoords': [231.28, 171.5], 'bid': 5.9}, {'imgObject': {}, 'id': 'chickenfingers', 'src': '/static/foodstim60/chickenfingers.jpg', 'key': 'i', 'origWidth': 410, 'origHeight': 410, 'width': 410, 'height': 410, 'widthPercent': 0.45, 'rescaleHeight': False, 'trialN': 98, 'loaded': True, 'loadedTime': 4346.300000000745, 'positionName': 'RIGHT', 'positionCoords': [694.72, 171], 'bid': 5.83}]",210719.2000000002,1669830452279,luckycharms,chickenfingers,5.9,5.83,-0.07000000000000028,luckycharms,1103.4000000003725,1103,1103.7999999998137,True,u,212327.0,1607.7999999998137,1669830453886,1607,HRV,HRV_0124,2022-11-30 17:50:23
99,"[{'imgObject': {}, 'id': 'blueberries', 'src': '/static/foodstim60/blueberries.jpg', 'key': 'u', 'origWidth': 411, 'origHeight': 411, 'width': 411, 'height': 411, 'widthPercent': 0.45, 'rescaleHeight': False, 'trialN': 99, 'loaded': True, 'loadedTime': 4271.5, 'positionName': 'LEFT', 'positionCoords': [230.28, 170.5], 'bid': 5.92}, {'imgObject': {}, 'id': 'popsicles', 'src': '/static/foodstim60/popsicles.jpg', 'key': 'i', 'origWidth': 410, 'origHeight': 410, 'width': 410, 'height': 410, 'widthPercent': 0.45, 'rescaleHeight': False, 'trialN': 99, 'loaded': True, 'loadedTime': 4368.100000000559, 'positionName': 'RIGHT', 'positionCoords': [694.72, 171], 'bid': 4.43}]",212327.10000000056,1669830453887,blueberries,popsicles,5.92,4.43,-1.4900000000000002,blueberries,903.5,903,903.7999999998137,True,u,213738.80000000075,1411.7000000001863,1669830455298,1411,HRV,HRV_0124,2022-11-30 17:50:23
100,"[{'imgObject': {}, 'id': 'bagel plain', 'src': '/static/foodstim60/bagel plain.jpg', 'key': 'u', 'origWidth': 410, 'origHeight': 410, 'width': 410, 'height': 410, 'widthPercent': 0.45, 'rescaleHeight': False, 'trialN': 100, 'loaded': True, 'loadedTime': 4332.4000000003725, 'positionName': 'LEFT', 'positionCoords': [231.28, 171], 'bid': 3.9}, {'imgObject': {}, 'id': 'mashed potato', 'src': '/static/foodstim60/mashed potato.jpg', 'key': 'i', 'origWidth': 409, 'origHeight': 409, 'width': 409, 'height': 409, 'widthPercent': 0.45, 'rescaleHeight': False, 'trialN': 100, 'loaded': True, 'loadedTime': 4331.100000000559, 'positionName': 'RIGHT', 'positionCoords': [694.72, 171.5], 'bid': 2.98}]",213738.90000000037,1669830455298,bagel plain,mashed potato,3.9,2.98,-0.9199999999999999,bagel plain,1651.9000000003725,1653,1652.2000000001863,True,u,215899.30000000075,2160.4000000003725,1669830457459,2161,HRV,HRV_0124,2022-11-30 17:50:23
101,"[{'imgObject': {}, 'id': 'salad w chicken', 'src': '/static/foodstim60/salad w chicken.jpg', 'key': 'u', 'origWidth': 411, 'origHeight': 411, 'width': 411, 'height': 411, 'widthPercent': 0.45, 'rescaleHeight': False, 'trialN': 101, 'loaded': True, 'loadedTime': 4338.800000000745, 'positionName': 'LEFT', 'positionCoords': [230.28, 170.5], 'bid': 5.46}, {'imgObject': {}, 'id': 'chickenfingers', 'src': '/static/foodstim60/chickenfingers.jpg', 'key': 'i', 'origWidth': 410, 'origHeight': 410, 'width': 410, 'height': 410, 'widthPercent': 0.45, 'rescaleHeight': False, 'trialN': 101, 'loaded': True, 'loadedTime': 4346.5, 'positionName': 'RIGHT', 'positionCoords': [694.72, 171], 'bid': 5.83}]",215899.40000000037,1669830457459,salad w chicken,chickenfingers,5.46,5.83,0.3700000000000001,salad w chicken,979.2000000001863,979,979.5,True,u,217384.90000000037,1485.5,1669830458944,1485,HRV,HRV_0124,2022-11-30 17:50:23
102,"[{'imgObject': {}, 'id': 'avocado', 'src': '/static/foodstim60/avocado.jpg', 'key': 'u', 'origWidth': 409, 'origHeight': 409, 'width': 409, 'height': 409, 'widthPercent': 0.45, 'rescaleHeight': False, 'trialN': 102, 'loaded': True, 'loadedTime': 4365.800000000745, 'positionName': 'LEFT', 'positionCoords': [232.28, 171.5], 'bid': 2.98}, {'imgObject': {}, 'id': 'sushi w_condiments', 'src': '/static/foodstim60/sushi w_condiments.jpg', 'key': 'i', 'origWidth': 410, 'origHeight': 410, 'width': 410, 'height': 410, 'widthPercent': 0.45, 'rescaleHeight': False, 'trialN': 102, 'loaded': True, 'loadedTime': 4277.100000000559, 'positionName': 'RIGHT', 'positionCoords': [694.72, 171], 'bid': 0.48}]",217385.10000000056,1669830458945,avocado,sushi w_condiments,2.98,0.48,-2.5,avocado,1077.5,1077,1077.7000000001863,True,u,218969.7000000002,1584.5999999996275,1669830460529,1584,HRV,HRV_0124,2022-11-30 17:50:23
103,"[{'imgObject': {}, 'id': 'froot loops w milk', 'src': '/static/foodstim60/froot loops w milk.jpg', 'key': 'u', 'origWidth': 410, 'origHeight': 410, 'width': 410, 'height': 410, 'widthPercent': 0.45, 'rescaleHeight': False, 'trialN': 103, 'loaded': True, 'loadedTime': 4290.5, 'positionName': 'LEFT', 'positionCoords': [231.28, 171], 'bid': 5.54}, {'imgObject': {}, 'id': 'mashed potato', 'src': '/static/foodstim60/mashed potato.jpg', 'key': 'i', 'origWidth': 409, 'origHeight': 409, 'width': 409, 'height': 409, 'widthPercent': 0.45, 'rescaleHeight': False, 'trialN': 103, 'loaded': True, 'loadedTime': 4330.800000000745, 'positionName': 'RIGHT', 'positionCoords': [694.72, 171.5], 'bid': 2.98}]",218969.90000000037,1669830460529,froot loops w milk,mashed potato,5.54,2.98,-2.56,froot loops w milk,1180.7999999998137,1165,1181.0999999996275,True,u,220660.40000000037,1690.5,1669830462204,1675,HRV,HRV_0124,2022-11-30 17:50:23
104,"[{'imgObject': {}, 'id': 'banana', 'src': '/static/foodstim60/banana.jpg', 'key': 'u', 'origWidth': 410, 'origHeight': 410, 'width': 410, 'height': 410, 'widthPercent': 0.45, 'rescaleHeight': False, 'trialN': 104, 'loaded': True, 'loadedTime': 4297.700000000186, 'positionName': 'LEFT', 'positionCoords': [231.28, 171], 'bid': 5.79}, {'imgObject': {}, 'id': 'chicken nuggets2', 'src': '/static/foodstim60/chicken nuggets2.jpg', 'key': 'i', 'origWidth': 410, 'origHeight': 409, 'width': 410, 'height': 409, 'widthPercent': 0.45, 'rescaleHeight': False, 'trialN': 104, 'loaded': True, 'loadedTime': 4365, 'positionName': 'RIGHT', 'positionCoords': [694.72, 171.5], 'bid': 6.0200000000000005}]",220660.5,1669830462204,banana,chicken nuggets2,5.79,6.0200000000000005,0.23000000000000043,chicken nuggets2,1434.1000000005588,1434,1434.4000000003725,True,i,222612.30000000075,1951.800000000745,1669830464155,1951,HRV,HRV_0124,2022-11-30 17:50:23
105,"[{'imgObject': {}, 'id': 'shreddedwheatwithmilk', 'src': '/static/foodstim60/shreddedwheatwithmilk.jpg', 'key': 'u', 'origWidth': 410, 'origHeight': 410, 'width': 410, 'height': 410, 'widthPercent': 0.45, 'rescaleHeight': False, 'trialN': 105, 'loaded': True, 'loadedTime': 4192.200000000186, 'positionName': 'LEFT', 'positionCoords': [231.28, 171], 'bid': 4.88}, {'imgObject': {}, 'id': 'mango', 'src': '/static/foodstim60/mango.jpg', 'key': 'i', 'origWidth': 411, 'origHeight': 411, 'width': 411, 'height': 411, 'widthPercent': 0.45, 'rescaleHeight': False, 'trialN': 105, 'loaded': True, 'loadedTime': 4366.700000000186, 'positionName': 'RIGHT', 'positionCoords': [694.72, 170.5], 'bid': 4.92}]",222612.40000000037,1669830464155,shreddedwheatwithmilk,mango,4.88,4.92,0.040000000000000036,shreddedwheatwithmilk,2170.2000000001863,2171,2170.4000000003725,True,u,225298.7000000002,2686.2999999998137,1669830466842,2687,HRV,HRV_0124,2022-11-30 17:50:23
106,"[{'imgObject': {}, 'id': 'avocado', 'src': '/static/foodstim60/avocado.jpg', 'key': 'u', 'origWidth': 409, 'origHeight': 409, 'width': 409, 'height': 409, 'widthPercent': 0.45, 'rescaleHeight': False, 'trialN': 106, 'loaded': True, 'loadedTime': 4365.700000000186, 'positionName': 'LEFT', 'positionCoords': [232.28, 171.5], 'bid': 2.98}, {'imgObject': {}, 'id': 'bagel and cc', 'src': '/static/foodstim60/bagel and cc.jpg', 'key': 'i', 'origWidth': 410, 'origHeight': 410, 'width': 410, 'height': 410, 'widthPercent': 0.45, 'rescaleHeight': False, 'trialN': 106, 'loaded': True, 'loadedTime': 4224, 'positionName': 'RIGHT', 'positionCoords': [694.72, 171], 'bid': 4.34}]",225298.80000000075,1669830466842,avocado,bagel and cc,2.98,4.34,1.3599999999999999,bagel and cc,1852.0,1852,1852.199999999255,True,i,227659.0,2360.199999999255,1669830469202,2360,HRV,HRV_0124,2022-11-30 17:50:23
107,"[{'imgObject': {}, 'id': 'chicken nuggets2', 'src': '/static/foodstim60/chicken nuggets2.jpg', 'key': 'u', 'origWidth': 410, 'origHeight': 409, 'width': 410, 'height': 409, 'widthPercent': 0.45, 'rescaleHeight': False, 'trialN': 107, 'loaded': True, 'loadedTime': 4364.9000000003725, 'positionName': 'LEFT', 'positionCoords': [231.28, 171.5], 'bid': 6.0200000000000005}, {'imgObject': {}, 'id': 'cocktailshrimp', 'src': '/static/foodstim60/cocktailshrimp.jpg', 'key': 'i', 'origWidth': 410, 'origHeight': 410, 'width': 410, 'height': 410, 'widthPercent': 0.45, 'rescaleHeight': False, 'trialN': 107, 'loaded': True, 'loadedTime': 4358.100000000559, 'positionName': 'RIGHT', 'positionCoords': [694.72, 171], 'bid': 6.5600000000000005}]",227659.10000000056,1669830469202,chicken nuggets2,cocktailshrimp,6.0200000000000005,6.5600000000000005,0.54,cocktailshrimp,1892.0999999996275,1893,1892.3999999994412,True,i,230067.90000000037,2408.7999999998137,1669830471611,2409,HRV,HRV_0124,2022-11-30 17:50:23
