success,trial_type,trial_index,time_elapsed,internal_node_id,Block,TrialNumber,TrialTime,trialTimeDiff,FPS_avg,FPS_med,FPS_mode,TrialDur,winResizeTime,rt,block,button_pressed,MotCoh,MotDir,ColCoh,Color,ChoiceKey,Choice,Accuracy,RT,nFrames,FPS,PPD,missTrial,missTrialMsg,onsetDelay,fullScreenExitTime,canvCenter,TrialType,Score,BlockTrial,stimulus,button_labels,exp,subjectId,date
True,fullscreen,0,2464,0.0-0.0,0.0,1.0,,,,,,,,,,,,,,,,,,,,,,,,,,,,,,,,HRV,HRV_0124,2022-11-30 18:17:56
,wl-check-fps,1,7454,0.0-1.0,0.0,2.0,"[2904.8, 2905.3, 2920.6, 2937.5, 2954.2, 2971, 2987.6, 3004.2, 3021, 3037.6, 3054.2, 3070.9, 3087.3, 3104.1, 3121.7, 3137.8, 3154.7, 3170.8, 3187.8, 3204.3, 3221.3, 3237.8, 3254.3, 3271.2, 3287.9, 3304.4, 3321.3, 3337.8, 3354.5, 3371.1, 3387.8, 3404.5, 3421.3, 3438.1, 3455.1, 3471.2, 3487.9, 3504.6, 3521.4, 3538.2, 3554.8, 3571.6, 3588.1, 3604.7, 3621.6, 3638.2, 3654.7, 3671.4, 3687.8, 3704.7, 3721.4, 3738.3, 3754.7, 3771.5, 3788.5, 3804.8, 3821.7, 3838.2, 3854.7, 3871.6, 3888.4, 3904.8, 3921.6, 3938.2, 3955, 3971.7, 3988.3, 4005.1, 4021.6, 4038.4, 4055.1, 4071.8, 4088.5, 4105.1, 4122, 4138.5, 4155.3, 4171.6, 4188.4, 4205.3, 4221.9, 4238.6, 4255.5, 4271.9, 4288.6, 4305.1, 4322.2, 4338.7, 4355.5, 4372.2, 4388.8, 4405.6, 4422.3, 4438.7, 4455.5, 4472.1, 4488.8, 4505.3, 4522.1, 4538.9, 4555.4, 4572.3, 4589, 4605.6, 4622.3, 4638.7, 4655.6, 4672.4, 4689.1, 4705.8, 4722.4, 4738.8, 4755.9, 4772.5, 4789.1, 4805.6, 4823, 4839.2, 4855.7, 4872.5, 4889.2, 4905.8, 4922.5, 4939.1, 4955.8, 4972.6, 4989.2, 5005.8, 5022.5, 5039.2, 5056, 5072.6, 5089, 5105.8, 5122.4, 5139.2, 5156.2, 5172.8, 5189.2, 5206.1, 5222.8, 5239.5, 5255.9, 5272.7, 5289.3, 5305.8, 5322.8, 5339.2, 5356.2, 5372.9, 5389.6, 5406.2, 5423, 5439.5, 5456.5, 5472.9, 5489.8, 5506.4, 5522.8, 5539.6, 5556.3, 5573.2, 5589.7, 5606.4, 5623.2, 5639.7, 5656.5, 5673.1, 5689.7, 5706.5, 5723.3, 5739.8, 5756.6, 5773.4, 5790, 5806.6, 5823.3, 5839.9, 5856.5, 5873.3, 5889.9, 5906.5, 5923.3, 5940.2, 5956.7, 5973.3, 5990.1, 6006.8, 6023.2, 6040, 6056.7, 6073.3, 6090.3, 6106.8, 6123.2, 6140.3, 6156.9, 6173.3, 6190.3, 6206.6, 6223.5, 6240.2, 6256.9, 6273.6, 6290.3, 6306.6, 6323.6, 6340.4, 6357.1, 6373.6, 6390.4, 6406.8, 6423.6, 6440.4, 6457.3, 6473.8, 6490.2, 6507, 6523.8, 6540.4, 6556.9, 6573.7, 6590.5, 6607.1, 6623.9, 6640.5, 6657.2, 6673.9, 6690.6, 6707.1, 6723.9, 6740.4, 6757.4, 6774.1, 6790.4, 6807.3, 6823.9, 6840.7, 6857.4, 6874, 6890.4, 6907.4, 6924.1, 6940.7, 6957.4, 6974.2, 6990.7, 7007.3, 7024.5, 7041, 7057.5, 7074.1, 7090.5, 7107.3, 7124.3, 7140.9, 7157.7, 7174.3, 7191, 7207.5, 7224, 7240.6, 7257.5, 7274.1, 7291, 7307.8, 7324.3, 7341.2, 7357.8, 7374.3, 7390.8, 7407.8, 7424.2, 7441.4, 7457.9, 7474.3, 7491, 7507.7, 7524.5, 7541.1, 7557.9, 7574.3, 7591.4, 7608, 7624.5, 7641.4, 7658, 7674.6, 7691.4, 7708.1, 7724.4, 7741.4, 7758.1, 7774.6, 7791.5, 7808, 7824.7, 7841.3, 7858.1, 7874.8]","[0.8, 0.5, 15.3, 16.9, 16.7, 16.8, 16.6, 16.6, 16.8, 16.6, 16.6, 16.7, 16.4, 16.8, 17.6, 16.1, 16.9, 16.1, 17, 16.5, 17, 16.5, 16.5, 16.9, 16.7, 16.5, 16.9, 16.5, 16.7, 16.6, 16.7, 16.7, 16.8, 16.8, 17, 16.1, 16.7, 16.7, 16.8, 16.8, 16.6, 16.8, 16.5, 16.6, 16.9, 16.6, 16.5, 16.7, 16.4, 16.9, 16.7, 16.9, 16.4, 16.8, 17, 16.3, 16.9, 16.5, 16.5, 16.9, 16.8, 16.4, 16.8, 16.6, 16.8, 16.7, 16.6, 16.8, 16.5, 16.8, 16.7, 16.7, 16.7, 16.6, 16.9, 16.5, 16.8, 16.3, 16.8, 16.9, 16.6, 16.7, 16.9, 16.4, 16.7, 16.5, 17.1, 16.5, 16.8, 16.7, 16.6, 16.8, 16.7, 16.4, 16.8, 16.6, 16.7, 16.5, 16.8, 16.8, 16.5, 16.9, 16.7, 16.6, 16.7, 16.4, 16.9, 16.8, 16.7, 16.7, 16.6, 16.4, 17.1, 16.6, 16.6, 16.5, 17.4, 16.2, 16.5, 16.8, 16.7, 16.6, 16.7, 16.6, 16.7, 16.8, 16.6, 16.6, 16.7, 16.7, 16.8, 16.6, 16.4, 16.8, 16.6, 16.8, 17, 16.6, 16.4, 16.9, 16.7, 16.7, 16.4, 16.8, 16.6, 16.5, 17, 16.4, 17, 16.7, 16.7, 16.6, 16.8, 16.5, 17, 16.4, 16.9, 16.6, 16.4, 16.8, 16.7, 16.9, 16.5, 16.7, 16.8, 16.5, 16.8, 16.6, 16.6, 16.8, 16.8, 16.5, 16.8, 16.8, 16.6, 16.6, 16.7, 16.6, 16.6, 16.8, 16.6, 16.6, 16.8, 16.9, 16.5, 16.6, 16.8, 16.7, 16.4, 16.8, 16.7, 16.6, 17, 16.5, 16.4, 17.1, 16.6, 16.4, 17, 16.3, 16.9, 16.7, 16.7, 16.7, 16.7, 16.3, 17, 16.8, 16.7, 16.5, 16.8, 16.4, 16.8, 16.8, 16.9, 16.5, 16.4, 16.8, 16.8, 16.6, 16.5, 16.8, 16.8, 16.6, 16.8, 16.6, 16.7, 16.7, 16.7, 16.5, 16.8, 16.5, 17, 16.7, 16.3, 16.9, 16.6, 16.8, 16.7, 16.6, 16.4, 17, 16.7, 16.6, 16.7, 16.8, 16.5, 16.6, 17.2, 16.5, 16.5, 16.6, 16.4, 16.8, 17, 16.6, 16.8, 16.6, 16.7, 16.5, 16.5, 16.6, 16.9, 16.6, 16.9, 16.8, 16.5, 16.9, 16.6, 16.5, 16.5, 17, 16.4, 17.2, 16.5, 16.4, 16.7, 16.7, 16.8, 16.6, 16.8, 16.4, 17.1, 16.6, 16.5, 16.9, 16.6, 16.6, 16.8, 16.7, 16.3, 17, 16.7, 16.5, 16.9, 16.5, 16.7, 16.6, 16.8, 16.7]",60.0,60.0,60.0,4987.5,[],,,,,,,,,,,,,,,,,,,,,,,,,HRV,HRV_0124,2022-11-30 18:17:56
,wl-html-keyboard-response,2,29765,0.0-2.0-0.0,0.0,3.0,,,,,,,,20289.299999999814,0.0,0,,,,,,,,,,,,,,,,,,,,,,HRV,HRV_0124,2022-11-30 18:17:56
,wl-rdm,3,37411,0.0-3.0-0.0,0.0,4.0,,,,,,,[],,,,0.0,0.0,87.9,0.0,u,0.0,True,2069.7999999998137,125.0,60.0,40.0,False,,3000.0,[],"[668, 376]",ColorTask_Demo,,,,,HRV,HRV_0124,2022-11-30 18:17:56
,wl-rdm,4,42531,0.0-3.0-1.0,0.0,5.0,,,,,,,[],,,,0.0,0.0,87.9,1.0,i,1.0,True,1054.4000000003725,64.0,60.0,40.0,False,,2000.0,[],"[668, 376]",ColorTask_Demo,,,,,HRV,HRV_0124,2022-11-30 18:17:56
,wl-html-keyboard-response,5,58366,0.0-3.0-2.0,0.0,6.0,,,,,,,,13827.799999999814,0.0,1,,,,,,,,,,,,,,,,,,,,,,HRV,HRV_0124,2022-11-30 18:17:56
,wl-html-keyboard-response,6,69275,0.0-4.0-0.0,0.0,7.0,,,,,,,,8887.200000000186,0.0,0,,,,,,,,,,,,,,,,,,,,,,HRV,HRV_0124,2022-11-30 18:17:56
,wl-html-keyboard-response,7,84535,0.0-5.0-0.0,0.0,8.0,,,,,,,,13242.700000000186,0.0,0,,,,,,,,,,,,,,,,,,,,,,HRV,HRV_0124,2022-11-30 18:17:56
,wl-rdm,8,86599,0.0-6.0-0.0,0.0,9.0,,,,,,,[],,,,,,87.9,0.0,i,1.0,False,664.4000000003725,40.0,60.0,40.0,False,,344.5754064104922,[],"[668, 376]",ColorTask,-1.0,1.0,,,HRV,HRV_0124,2022-11-30 18:17:56
,wl-rdm,9,89084,0.0-6.1-0.1,0.0,10.0,,,,,,,[],,,,,,50.0,1.0,u,0.0,False,1135.0999999996275,69.0,60.0,40.0,False,,278.0906456918948,[],"[668, 376]",ColorTask,-2.0,2.0,,,HRV,HRV_0124,2022-11-30 18:17:56
,wl-rdm,10,91736,0.0-6.2-0.2,0.0,11.0,,,,,,,[],,,,,,56.4,0.0,i,1.0,False,1188.7999999998137,72.0,60.0,40.0,False,,397.60999795031796,[],"[668, 376]",ColorTask,-3.0,3.0,,,HRV,HRV_0124,2022-11-30 18:17:56
,wl-rdm,11,93938,0.0-6.3-0.3,0.0,12.0,,,,,,,[],,,,,,87.9,1.0,i,1.0,True,903.0999999996275,55.0,60.0,40.0,False,,224.10260269615839,[],"[668, 376]",ColorTask,-2.0,4.0,,,HRV,HRV_0124,2022-11-30 18:17:56
,wl-rdm,12,95773,0.0-6.4-0.4,0.0,13.0,,,,,,,[],,,,,,87.9,0.0,u,0.0,True,551.0999999996275,34.0,60.0,40.0,False,,203.6916507526438,[],"[668, 376]",ColorTask,-1.0,5.0,,,HRV,HRV_0124,2022-11-30 18:17:56
,wl-rdm,13,98508,0.0-6.5-0.5,0.0,14.0,,,,,,,[],,,,,,56.4,0.0,i,1.0,False,1452.0999999996275,88.0,60.0,40.0,False,,209.02339141129823,[],"[668, 376]",ColorTask,-2.0,6.0,,,HRV,HRV_0124,2022-11-30 18:17:56
,wl-rdm,14,100426,0.0-6.6-0.6,0.0,15.0,,,,,,,[],,,,,,73.6,0.0,u,0.0,True,602.5,37.0,60.0,40.0,False,,240.09850595188564,[],"[668, 376]",ColorTask,-1.0,7.0,,,HRV,HRV_0124,2022-11-30 18:17:56
,wl-rdm,15,102912,0.0-6.7-0.7,0.0,16.0,,,,,,,[],,,,,,56.4,1.0,i,1.0,True,1030.199999999255,62.0,60.0,40.0,False,,392.77974245845905,[],"[668, 376]",ColorTask,0.0,8.0,,,HRV,HRV_0124,2022-11-30 18:17:56
,wl-rdm,16,105314,0.0-6.8-0.8,0.0,17.0,,,,,,,[],,,,,,53.2,0.0,i,1.0,False,1087.0,66.0,60.0,40.0,False,,237.04186094811627,[],"[668, 376]",ColorTask,-1.0,9.0,,,HRV,HRV_0124,2022-11-30 18:17:56
,wl-rdm,17,107847,0.0-6.9-0.9,0.0,18.0,,,,,,,[],,,,,,53.2,1.0,i,1.0,True,1220.8999999994412,74.0,60.0,40.0,False,,247.11280628782103,[],"[668, 376]",ColorTask,0.0,10.0,,,HRV,HRV_0124,2022-11-30 18:17:56
,wl-rdm,18,111300,0.0-6.10-0.10,0.0,19.0,,,,,,,[],,,,,,50.0,0.0,u,0.0,True,2183.0999999996275,131.0,60.0,40.0,False,,209.31513809569617,[],"[668, 376]",ColorTask,1.0,11.0,,,HRV,HRV_0124,2022-11-30 18:17:56
,wl-rdm,19,114035,0.0-6.11-0.11,0.0,20.0,,,,,,,[],,,,,,53.2,1.0,i,1.0,True,1366.0,82.0,60.0,40.0,False,,311.24915067484136,[],"[668, 376]",ColorTask,2.0,12.0,,,HRV,HRV_0124,2022-11-30 18:17:56
,wl-rdm,20,116721,0.0-6.12-0.12,0.0,21.0,,,,,,,[],,,,,,53.2,1.0,i,1.0,True,1386.2999999998137,84.0,60.0,40.0,False,,218.55607318658548,[],"[668, 376]",ColorTask,3.0,13.0,,,HRV,HRV_0124,2022-11-30 18:17:56
,wl-rdm,21,118922,0.0-6.13-0.13,0.0,22.0,,,,,,,[],,,,,,87.9,1.0,i,1.0,True,891.8000000007451,54.0,60.0,40.0,False,,248.0729324377426,[],"[668, 376]",ColorTask,4.0,14.0,,,HRV,HRV_0124,2022-11-30 18:17:56
,wl-rdm,22,121408,0.0-6.14-0.14,0.0,23.0,,,,,,,[],,,,,,56.4,1.0,u,0.0,False,1169.8999999994412,71.0,60.0,40.0,False,,250.39431413365583,[],"[668, 376]",ColorTask,3.0,15.0,,,HRV,HRV_0124,2022-11-30 18:17:56
,wl-rdm,23,123960,0.0-6.15-0.15,0.0,24.0,,,,,,,[],,,,,,73.6,1.0,i,1.0,True,1254.0,76.0,60.0,40.0,False,,211.65600474492106,[],"[668, 376]",ColorTask,4.0,16.0,,,HRV,HRV_0124,2022-11-30 18:17:56
,wl-rdm,24,126195,0.0-6.16-0.16,0.0,25.0,,,,,,,[],,,,,,87.9,0.0,u,0.0,True,865.7000000001863,52.0,60.0,40.0,False,,303.3176315747815,[],"[668, 376]",ColorTask,5.0,17.0,,,HRV,HRV_0124,2022-11-30 18:17:56
,wl-rdm,25,129147,0.0-6.17-0.17,0.0,26.0,,,,,,,[],,,,,,62.5,0.0,i,1.0,False,1582.8999999994412,95.0,60.0,40.0,False,,316.32274513971925,[],"[668, 376]",ColorTask,4.0,18.0,,,HRV,HRV_0124,2022-11-30 18:17:56
,wl-rdm,26,131699,0.0-6.18-0.18,0.0,27.0,,,,,,,[],,,,,,50.0,0.0,i,1.0,False,1199.0999999996275,72.0,60.0,40.0,False,,295.5770853947884,[],"[668, 376]",ColorTask,3.0,19.0,,,HRV,HRV_0124,2022-11-30 18:17:56
,wl-rdm,27,134335,0.0-6.19-0.19,0.0,28.0,,,,,,,[],,,,,,53.2,0.0,i,1.0,False,1254.4000000013039,76.0,60.0,40.0,False,,302.3203945938493,[],"[668, 376]",ColorTask,2.0,20.0,,,HRV,HRV_0124,2022-11-30 18:17:56
,wl-rdm,28,136603,0.0-6.20-0.20,0.0,29.0,,,,,,,[],,,,,,53.2,0.0,u,0.0,True,999.0999999996275,60.0,60.0,40.0,False,,205.64980408233114,[],"[668, 376]",ColorTask,3.0,21.0,,,HRV,HRV_0124,2022-11-30 18:17:56
,wl-rdm,29,139489,0.0-6.21-0.21,0.0,30.0,,,,,,,[],,,,,,56.4,1.0,u,0.0,False,1577.199999999255,95.0,60.0,40.0,False,,245.26864145996285,[],"[668, 376]",ColorTask,2.0,22.0,,,HRV,HRV_0124,2022-11-30 18:17:56
,wl-rdm,30,141224,0.0-6.22-0.22,0.0,31.0,,,,,,,[],,,,,,87.9,1.0,i,1.0,True,385.8999999994412,24.0,60.0,40.0,False,,275.3982835480306,[],"[668, 376]",ColorTask,3.0,23.0,,,HRV,HRV_0124,2022-11-30 18:17:56
,wl-rdm,31,144860,0.0-6.23-0.23,0.0,32.0,,,,,,,[],,,,,,50.0,1.0,i,1.0,True,2258.100000000559,136.0,60.0,40.0,False,,315.5896205516719,[],"[668, 376]",ColorTask,4.0,24.0,,,HRV,HRV_0124,2022-11-30 18:17:56
,wl-rdm,32,147862,0.0-6.24-0.24,0.0,33.0,,,,,,,[],,,,,,53.2,0.0,u,0.0,True,1605.0,97.0,60.0,40.0,False,,327.9054261530197,[],"[668, 376]",ColorTask,5.0,25.0,,,HRV,HRV_0124,2022-11-30 18:17:56
,wl-rdm,33,150848,0.0-6.25-0.25,0.0,34.0,,,,,,,[],,,,,,62.5,1.0,i,1.0,True,1553.2000000011176,94.0,60.0,40.0,False,,350.7083393499603,[],"[668, 376]",ColorTask,6.0,26.0,,,HRV,HRV_0124,2022-11-30 18:17:56
,wl-rdm,34,153834,0.0-6.26-0.26,0.0,35.0,,,,,,,[],,,,,,56.4,0.0,u,0.0,True,1575.9000000003725,95.0,60.0,40.0,False,,339.9770674574615,[],"[668, 376]",ColorTask,7.0,27.0,,,HRV,HRV_0124,2022-11-30 18:17:56
,wl-rdm,35,156936,0.0-6.27-0.27,0.0,36.0,,,,,,,[],,,,,,87.9,1.0,i,1.0,True,1744.4000000003725,105.0,60.0,40.0,False,,294.51517382973833,[],"[668, 376]",ColorTask,8.0,28.0,,,HRV,HRV_0124,2022-11-30 18:17:56
,wl-rdm,36,159889,0.0-6.28-0.28,0.0,37.0,,,,,,,[],,,,,,53.2,1.0,u,0.0,False,1669.0,101.0,60.0,40.0,False,,200.61937620662457,[],"[668, 376]",ColorTask,7.0,29.0,,,HRV,HRV_0124,2022-11-30 18:17:56
,wl-rdm,37,162608,0.0-6.29-0.29,0.0,38.0,,,,,,,[],,,,,,73.6,1.0,i,1.0,True,1403.6000000005588,85.0,60.0,40.0,False,,242.45928667023287,[],"[668, 376]",ColorTask,8.0,30.0,,,HRV,HRV_0124,2022-11-30 18:17:56
,wl-rdm,38,165493,0.0-6.30-0.30,0.0,39.0,,,,,,,[],,,,,,62.5,1.0,i,1.0,True,1580.800000000745,95.0,60.0,40.0,False,,250.07487519029232,[],"[668, 376]",ColorTask,9.0,31.0,,,HRV,HRV_0124,2022-11-30 18:17:56
,wl-rdm,39,168277,0.0-6.31-0.31,0.0,40.0,,,,,,,[],,,,,,56.4,0.0,i,1.0,False,1404.800000000745,85.0,60.0,40.0,False,,303.3010945138336,[],"[668, 376]",ColorTask,8.0,32.0,,,HRV,HRV_0124,2022-11-30 18:17:56
,wl-rdm,40,170846,0.0-6.32-0.32,0.0,41.0,,,,,,,[],,,,,,50.0,0.0,u,0.0,True,1270.2000000001863,77.0,60.0,40.0,False,,220.266281867513,[],"[668, 376]",ColorTask,9.0,33.0,,,HRV,HRV_0124,2022-11-30 18:17:56
,wl-rdm,41,173514,0.0-6.33-0.33,0.0,42.0,,,,,,,[],,,,,,62.5,0.0,u,0.0,True,1281.7999999998137,77.0,60.0,40.0,False,,330.88870717678924,[],"[668, 376]",ColorTask,10.0,34.0,,,HRV,HRV_0124,2022-11-30 18:17:56
,wl-rdm,42,176917,0.0-6.34-0.34,0.0,43.0,,,,,,,[],,,,,,53.2,0.0,i,1.0,False,1987.5999999996275,120.0,60.0,40.0,False,,340.60908591245925,[],"[668, 376]",ColorTask,9.0,35.0,,,HRV,HRV_0124,2022-11-30 18:17:56
,wl-rdm,43,179636,0.0-6.35-0.35,0.0,44.0,,,,,,,[],,,,,,56.4,0.0,u,0.0,True,1396.2000000001863,84.0,60.0,40.0,False,,253.43201087989672,[],"[668, 376]",ColorTask,10.0,36.0,,,HRV,HRV_0124,2022-11-30 18:17:56
,wl-rdm,44,182939,0.0-6.36-0.36,0.0,45.0,,,,,,,[],,,,,,53.2,0.0,i,1.0,False,1973.7000000001863,119.0,60.0,40.0,False,,252.41005690515587,[],"[668, 376]",ColorTask,9.0,37.0,,,HRV,HRV_0124,2022-11-30 18:17:56
,wl-rdm,45,184857,0.0-6.37-0.37,0.0,46.0,,,,,,,[],,,,,,87.9,0.0,u,0.0,True,642.0999999996275,39.0,60.0,40.0,False,,207.42955561481182,[],"[668, 376]",ColorTask,10.0,38.0,,,HRV,HRV_0124,2022-11-30 18:17:56
,wl-rdm,46,188226,0.0-6.38-0.38,0.0,47.0,,,,,,,[],,,,,,87.9,0.0,u,0.0,True,1998.7000000001863,120.0,60.0,40.0,False,,313.4060086993759,[],"[668, 376]",ColorTask,11.0,39.0,,,HRV,HRV_0124,2022-11-30 18:17:56
,wl-rdm,47,191079,0.0-6.39-0.39,0.0,48.0,,,,,,,[],,,,,,73.6,1.0,i,1.0,True,1577.5,95.0,60.0,40.0,False,,216.44006240396843,[],"[668, 376]",ColorTask,12.0,40.0,,,HRV,HRV_0124,2022-11-30 18:17:56
,wl-rdm,48,194515,0.0-6.40-0.40,0.0,49.0,,,,,,,[],,,,,,56.4,0.0,u,0.0,True,2156.9000000003725,130.0,60.0,40.0,False,,205.55474790871287,[],"[668, 376]",ColorTask,13.0,41.0,,,HRV,HRV_0124,2022-11-30 18:17:56
,wl-rdm,49,197751,0.0-6.41-0.41,0.0,50.0,,,,,,,[],,,,,,50.0,0.0,i,1.0,False,1836.0999999996275,111.0,60.0,40.0,False,,324.2585763894268,[],"[668, 376]",ColorTask,12.0,42.0,,,HRV,HRV_0124,2022-11-30 18:17:56
,wl-rdm,50,200470,0.0-6.42-0.42,0.0,51.0,,,,,,,[],,,,,,62.5,1.0,u,0.0,False,1311.6000000005588,79.0,60.0,40.0,False,,341.41007127884785,[],"[668, 376]",ColorTask,11.0,43.0,,,HRV,HRV_0124,2022-11-30 18:17:56
,wl-rdm,51,203172,0.0-6.43-0.43,0.0,52.0,,,,,,,[],,,,,,73.6,1.0,i,1.0,True,1338.3999999994412,81.0,60.0,40.0,False,,292.5344052371258,[],"[668, 376]",ColorTask,12.0,44.0,,,HRV,HRV_0124,2022-11-30 18:17:56
,wl-rdm,52,205807,0.0-6.44-0.44,0.0,53.0,,,,,,,[],,,,,,62.5,1.0,i,1.0,True,1343.2999999998137,81.0,60.0,40.0,False,,218.77595284988215,[],"[668, 376]",ColorTask,13.0,45.0,,,HRV,HRV_0124,2022-11-30 18:17:56
,wl-rdm,53,208793,0.0-6.45-0.45,0.0,54.0,,,,,,,[],,,,,,50.0,0.0,u,0.0,True,1683.2999999998137,101.0,60.0,40.0,False,,234.1154431083885,[],"[668, 376]",ColorTask,14.0,46.0,,,HRV,HRV_0124,2022-11-30 18:17:56
,wl-rdm,54,211879,0.0-6.46-0.46,0.0,55.0,,,,,,,[],,,,,,62.5,0.0,u,0.0,True,1652.5999999996275,100.0,60.0,40.0,False,,361.83526099788185,[],"[668, 376]",ColorTask,15.0,47.0,,,HRV,HRV_0124,2022-11-30 18:17:56
,wl-rdm,55,215248,0.0-6.47-0.47,0.0,56.0,,,,,,,[],,,,,,62.5,0.0,i,1.0,False,1976.300000000745,119.0,60.0,40.0,False,,332.2642427104674,[],"[668, 376]",ColorTask,14.0,48.0,,,HRV,HRV_0124,2022-11-30 18:17:56
,wl-rdm,56,218267,0.0-6.48-0.48,0.0,57.0,,,,,,,[],,,,,,50.0,1.0,u,0.0,False,1639.3999999994412,99.0,60.0,40.0,False,,312.9561074385347,[],"[668, 376]",ColorTask,13.0,49.0,,,HRV,HRV_0124,2022-11-30 18:17:56
,wl-rdm,57,219969,0.0-6.49-0.49,0.0,58.0,,,,,,,[],,,,,,56.4,1.0,u,0.0,False,432.80000000074506,26.0,60.0,40.0,False,,213.051937423575,[],"[668, 376]",ColorTask,12.0,50.0,,,HRV,HRV_0124,2022-11-30 18:17:56
,wl-rdm,58,221370,0.0-6.50-0.50,0.0,58.0,,,,,,,[],,,,,,62.5,1.0,i,1.0,True,15.399999999441206,2.0,60.0,40.0,True,too_early ,312.48793616361473,[],"[668, 376]",ColorTask,13.0,51.0,,,HRV,HRV_0124,2022-11-30 18:17:56
,wl-rdm,59,223655,0.0-6.51-0.51,0.0,59.0,,,,,,,[],,,,,,53.2,1.0,i,1.0,True,951.7000000001863,58.0,60.0,40.0,False,,264.39231932062694,[],"[668, 376]",ColorTask,14.0,52.0,,,HRV,HRV_0124,2022-11-30 18:17:56
,wl-rdm,60,227156,0.0-6.52-0.52,0.0,60.0,,,,,,,[],,,,,,50.0,1.0,i,1.0,True,2120.9000000003725,128.0,60.0,40.0,False,,305.26919083219514,[],"[668, 376]",ColorTask,15.0,53.0,,,HRV,HRV_0124,2022-11-30 18:17:56
,wl-rdm,61,229875,0.0-6.53-0.53,0.0,61.0,,,,,,,[],,,,,,87.9,0.0,u,0.0,True,1445.699999999255,87.0,60.0,40.0,False,,204.61991890437116,[],"[668, 376]",ColorTask,16.0,54.0,,,HRV,HRV_0124,2022-11-30 18:17:56
,wl-rdm,62,233144,0.0-6.54-0.54,0.0,62.0,,,,,,,[],,,,,,53.2,1.0,i,1.0,True,1908.1000000005588,115.0,60.0,40.0,False,,292.6108708020026,[],"[668, 376]",ColorTask,17.0,55.0,,,HRV,HRV_0124,2022-11-30 18:17:56
,wl-rdm,63,236430,0.0-6.55-0.55,0.0,63.0,,,,,,,[],,,,,,53.2,0.0,u,0.0,True,1885.699999999255,114.0,60.0,40.0,False,,327.4207678561896,[],"[668, 376]",ColorTask,18.0,56.0,,,HRV,HRV_0124,2022-11-30 18:17:56
,wl-rdm,64,239066,0.0-6.56-0.56,0.0,64.0,,,,,,,[],,,,,,87.9,0.0,u,0.0,True,1347.0,81.0,60.0,40.0,False,,219.76828728504412,[],"[668, 376]",ColorTask,19.0,57.0,,,HRV,HRV_0124,2022-11-30 18:17:56
,wl-rdm,65,242335,0.0-6.57-0.57,0.0,65.0,,,,,,,[],,,,,,73.6,0.0,u,0.0,True,1909.0999999996275,115.0,60.0,40.0,False,,285.83834438036797,[],"[668, 376]",ColorTask,20.0,58.0,,,HRV,HRV_0124,2022-11-30 18:17:56
,wl-rdm,66,245487,0.0-6.58-0.58,0.0,66.0,,,,,,,[],,,,,,62.5,0.0,u,0.0,True,1858.5,112.0,60.0,40.0,False,,224.6689131511109,[],"[668, 376]",ColorTask,21.0,59.0,,,HRV,HRV_0124,2022-11-30 18:17:56
,wl-rdm,67,248256,0.0-6.59-0.59,0.0,67.0,,,,,,,[],,,,,,87.9,1.0,i,1.0,True,1440.3999999994412,87.0,60.0,40.0,False,,260.3904763628508,[],"[668, 376]",ColorTask,22.0,60.0,,,HRV,HRV_0124,2022-11-30 18:17:56
,wl-rdm,68,252193,0.0-6.60-0.60,0.0,68.0,,,,,,,[],,,,,,50.0,1.0,i,1.0,True,2607.7000000001863,157.0,60.0,40.0,False,,264.40428388203884,[],"[668, 376]",ColorTask,23.0,61.0,,,HRV,HRV_0124,2022-11-30 18:17:56
,wl-rdm,69,255462,0.0-6.61-0.61,0.0,69.0,,,,,,,[],,,,,,53.2,1.0,u,0.0,False,1926.2999999998137,116.0,60.0,40.0,False,,272.9136636341473,[],"[668, 376]",ColorTask,22.0,62.0,,,HRV,HRV_0124,2022-11-30 18:17:56
,wl-rdm,70,258882,0.0-6.62-0.62,0.0,70.0,,,,,,,[],,,,,,50.0,1.0,i,1.0,True,2073.399999999441,125.0,60.0,40.0,False,,268.47071688267897,[],"[668, 376]",ColorTask,23.0,63.0,,,HRV,HRV_0124,2022-11-30 18:17:56
,wl-rdm,71,262017,0.0-6.63-0.63,0.0,71.0,,,,,,,[],,,,,,73.6,1.0,i,1.0,True,1714.2000000001863,103.0,60.0,40.0,False,,367.23526259063743,[],"[668, 376]",ColorTask,24.0,64.0,,,HRV,HRV_0124,2022-11-30 18:17:56
,wl-rdm,72,264970,0.0-6.64-0.64,0.0,72.0,,,,,,,[],,,,,,87.9,1.0,i,1.0,True,1606.2999999998137,97.0,60.0,40.0,False,,270.71754287492604,[],"[668, 376]",ColorTask,25.0,65.0,,,HRV,HRV_0124,2022-11-30 18:17:56
,wl-rdm,73,268172,0.0-6.65-0.65,0.0,73.0,,,,,,,[],,,,,,87.9,1.0,i,1.0,True,1786.7000000001863,108.0,60.0,40.0,False,,349.6886975083746,[],"[668, 376]",ColorTask,26.0,66.0,,,HRV,HRV_0124,2022-11-30 18:17:56
,wl-rdm,74,271442,0.0-6.66-0.66,0.0,74.0,,,,,,,[],,,,,,50.0,0.0,i,1.0,False,1931.199999999255,116.0,60.0,40.0,False,,271.0233537166991,[],"[668, 376]",ColorTask,25.0,67.0,,,HRV,HRV_0124,2022-11-30 18:17:56
,wl-rdm,75,274728,0.0-6.67-0.67,0.0,75.0,,,,,,,[],,,,,,62.5,0.0,u,0.0,True,1908.2000000001863,115.0,60.0,40.0,False,,308.5855020300567,[],"[668, 376]",ColorTask,26.0,68.0,,,HRV,HRV_0124,2022-11-30 18:17:56
,wl-rdm,76,278231,0.0-6.68-0.68,0.0,76.0,,,,,,,[],,,,,,56.4,1.0,i,1.0,True,2152.2999999998137,130.0,60.0,40.0,False,,281.22727210624583,[],"[668, 376]",ColorTask,27.0,69.0,,,HRV,HRV_0124,2022-11-30 18:17:56
,wl-rdm,77,281233,0.0-6.69-0.69,0.0,77.0,,,,,,,[],,,,,,62.5,1.0,i,1.0,True,1714.6000000005588,103.0,60.0,40.0,False,,227.3272682880794,[],"[668, 376]",ColorTask,28.0,70.0,,,HRV,HRV_0124,2022-11-30 18:17:56
,wl-rdm,78,284285,0.0-6.70-0.70,0.0,78.0,,,,,,,[],,,,,,73.6,0.0,u,0.0,True,1726.9000000003725,104.0,60.0,40.0,False,,252.98546506036976,[],"[668, 376]",ColorTask,29.0,71.0,,,HRV,HRV_0124,2022-11-30 18:17:56
,wl-rdm,79,287454,0.0-6.71-0.71,0.0,79.0,,,,,,,[],,,,,,73.6,0.0,u,0.0,True,1742.4000000003725,105.0,60.0,40.0,False,,361.3057364715495,[],"[668, 376]",ColorTask,30.0,72.0,,,HRV,HRV_0124,2022-11-30 18:17:56
,wl-rdm,80,291173,0.0-6.72-0.72,0.0,80.0,,,,,,,[],,,,,,50.0,1.0,i,1.0,True,2417.7000000001863,145.0,60.0,40.0,False,,242.42256171176848,[],"[668, 376]",ColorTask,31.0,73.0,,,HRV,HRV_0124,2022-11-30 18:17:56
,wl-rdm,81,294793,0.0-6.73-0.73,0.0,81.0,,,,,,,[],,,,,,56.4,0.0,u,0.0,True,2189.5,132.0,60.0,40.0,False,,358.50346244377977,[],"[668, 376]",ColorTask,32.0,74.0,,,HRV,HRV_0124,2022-11-30 18:17:56
,wl-rdm,82,298012,0.0-6.74-0.74,0.0,82.0,,,,,,,[],,,,,,73.6,1.0,i,1.0,True,1802.4000000003725,109.0,60.0,40.0,False,,336.32240718595085,[],"[668, 376]",ColorTask,33.0,75.0,,,HRV,HRV_0124,2022-11-30 18:17:56
,wl-rdm,83,301115,0.0-6.75-0.75,0.0,83.0,,,,,,,[],,,,,,73.6,0.0,u,0.0,True,1745.9000000003725,105.0,60.0,40.0,False,,275.87642598972707,[],"[668, 376]",ColorTask,34.0,76.0,,,HRV,HRV_0124,2022-11-30 18:17:56
,wl-rdm,84,304234,0.0-6.76-0.76,0.0,84.0,,,,,,,[],,,,,,62.5,0.0,u,0.0,True,1788.0,108.0,60.0,40.0,False,,266.913778636883,[],"[668, 376]",ColorTask,35.0,77.0,,,HRV,HRV_0124,2022-11-30 18:17:56
,wl-rdm,85,308054,0.0-6.77-0.77,0.0,85.0,,,,,,,[],,,,,,56.4,0.0,i,1.0,False,2551.0999999996275,153.0,60.0,40.0,False,,210.3645361196829,[],"[668, 376]",ColorTask,34.0,78.0,,,HRV,HRV_0124,2022-11-30 18:17:56
,wl-rdm,86,311039,0.0-6.78-0.78,0.0,86.0,,,,,,,[],,,,,,87.9,0.0,u,0.0,True,1682.0,101.0,60.0,40.0,False,,240.0016823539487,[],"[668, 376]",ColorTask,35.0,79.0,,,HRV,HRV_0124,2022-11-30 18:17:56
,wl-rdm,87,314342,0.0-6.79-0.79,0.0,87.0,,,,,,,[],,,,,,62.5,1.0,i,1.0,True,1916.800000000745,115.0,60.0,40.0,False,,333.186606937791,[],"[668, 376]",ColorTask,36.0,80.0,,,HRV,HRV_0124,2022-11-30 18:17:56
,wl-rdm,88,318011,0.0-6.80-0.80,0.0,88.0,,,,,,,[],,,,,,50.0,0.0,i,1.0,False,2236.600000000559,135.0,60.0,40.0,False,,353.53036397460585,[],"[668, 376]",ColorTask,35.0,81.0,,,HRV,HRV_0124,2022-11-30 18:17:56
,wl-rdm,89,321031,0.0-6.81-0.81,0.0,89.0,,,,,,,[],,,,,,50.0,1.0,u,0.0,False,1741.5,105.0,60.0,40.0,False,,207.29012696066965,[],"[668, 376]",ColorTask,34.0,82.0,,,HRV,HRV_0124,2022-11-30 18:17:56
,wl-rdm,90,324033,0.0-6.82-0.82,0.0,90.0,,,,,,,[],,,,,,62.5,1.0,i,1.0,True,1588.5999999996275,96.0,60.0,40.0,False,,346.2044418303298,[],"[668, 376]",ColorTask,35.0,83.0,,,HRV,HRV_0124,2022-11-30 18:17:56
,wl-rdm,91,326769,0.0-6.83-0.83,0.0,91.0,,,,,,,[],,,,,,73.6,1.0,i,1.0,True,1455.5999999996275,88.0,60.0,40.0,False,,208.84240601252068,[],"[668, 376]",ColorTask,36.0,84.0,,,HRV,HRV_0124,2022-11-30 18:17:56
,wl-rdm,92,329921,0.0-6.84-0.84,0.0,92.0,,,,,,,[],,,,,,87.9,1.0,i,1.0,True,1872.300000000745,113.0,60.0,40.0,False,,200.47132548288945,[],"[668, 376]",ColorTask,37.0,85.0,,,HRV,HRV_0124,2022-11-30 18:17:56
,wl-rdm,93,332640,0.0-6.85-0.85,0.0,93.0,,,,,,,[],,,,,,56.4,0.0,u,0.0,True,1339.699999999255,81.0,60.0,40.0,False,,306.0643916274603,[],"[668, 376]",ColorTask,38.0,86.0,,,HRV,HRV_0124,2022-11-30 18:17:56
,wl-rdm,94,335743,0.0-6.86-0.86,0.0,94.0,,,,,,,[],,,,,,73.6,0.0,u,0.0,True,1682.7999999998137,101.0,60.0,40.0,False,,353.33037273810476,[],"[668, 376]",ColorTask,39.0,87.0,,,HRV,HRV_0124,2022-11-30 18:17:56
,wl-rdm,95,339262,0.0-6.87-0.87,0.0,95.0,,,,,,,[],,,,,,53.2,1.0,i,1.0,True,2225.600000000559,134.0,60.0,40.0,False,,217.97658116834876,[],"[668, 376]",ColorTask,40.0,88.0,,,HRV,HRV_0124,2022-11-30 18:17:56
,wl-rdm,96,341681,0.0-6.88-0.88,0.0,96.0,,,,,,,[],,,,,,87.9,0.0,u,0.0,True,1146.7999999998137,69.0,60.0,40.0,False,,212.58110055116893,[],"[668, 376]",ColorTask,41.0,89.0,,,HRV,HRV_0124,2022-11-30 18:17:56
,wl-rdm,97,345133,0.0-6.89-0.89,0.0,97.0,,,,,,,[],,,,,,50.0,0.0,u,0.0,True,2092.7999999998137,126.0,60.0,40.0,False,,291.84333860745187,[],"[668, 376]",ColorTask,42.0,90.0,,,HRV,HRV_0124,2022-11-30 18:17:56
,wl-rdm,98,348868,0.0-6.90-0.90,0.0,98.0,,,,,,,[],,,,,,56.4,1.0,u,0.0,False,2426.0,146.0,60.0,40.0,False,,235.2454934491934,[],"[668, 376]",ColorTask,41.0,91.0,,,HRV,HRV_0124,2022-11-30 18:17:56
,wl-rdm,99,352104,0.0-6.91-0.91,0.0,99.0,,,,,,,[],,,,,,62.5,1.0,i,1.0,True,1855.1000000005588,112.0,60.0,40.0,False,,313.9326104321326,[],"[668, 376]",ColorTask,42.0,92.0,,,HRV,HRV_0124,2022-11-30 18:17:56
,wl-rdm,100,355473,0.0-6.92-0.92,0.0,100.0,,,,,,,[],,,,,,62.5,0.0,u,0.0,True,2028.6000000005588,122.0,60.0,40.0,False,,282.58900342312086,[],"[668, 376]",ColorTask,43.0,93.0,,,HRV,HRV_0124,2022-11-30 18:17:56
,wl-rdm,101,358992,0.0-6.93-0.93,0.0,101.0,,,,,,,[],,,,,,56.4,1.0,i,1.0,True,2237.5,135.0,60.0,40.0,False,,202.5858367688992,[],"[668, 376]",ColorTask,44.0,94.0,,,HRV,HRV_0124,2022-11-30 18:17:56
,wl-rdm,102,362262,0.0-6.94-0.94,0.0,102.0,,,,,,,[],,,,,,73.6,1.0,i,1.0,True,1864.5,112.0,60.0,40.0,False,,347.8196899207344,[],"[668, 376]",ColorTask,45.0,95.0,,,HRV,HRV_0124,2022-11-30 18:17:56
,wl-rdm,103,364597,0.0-6.95-0.95,0.0,103.0,,,,,,,[],,,,,,73.6,0.0,u,0.0,True,865.4000000003725,52.0,60.0,40.0,False,,391.17860548432986,[],"[668, 376]",ColorTask,46.0,96.0,,,HRV,HRV_0124,2022-11-30 18:17:56
,wl-rdm,104,367900,0.0-6.96-0.96,0.0,104.0,,,,,,,[],,,,,,53.2,0.0,i,1.0,False,2000.5,120.0,60.0,40.0,False,,244.38731586642137,[],"[668, 376]",ColorTask,45.0,97.0,,,HRV,HRV_0124,2022-11-30 18:17:56
,wl-rdm,105,371019,0.0-6.97-0.97,0.0,105.0,,,,,,,[],,,,,,50.0,1.0,u,0.0,False,1668.800000000745,101.0,60.0,40.0,False,,368.588920204656,[],"[668, 376]",ColorTask,44.0,98.0,,,HRV,HRV_0124,2022-11-30 18:17:56
,wl-rdm,106,375105,0.0-6.98-0.98,0.0,106.0,,,,,,,[],,,,,,56.4,1.0,i,1.0,True,2778.199999999255,167.0,60.0,40.0,False,,242.71235855055906,[],"[668, 376]",ColorTask,45.0,99.0,,,HRV,HRV_0124,2022-11-30 18:17:56
,wl-rdm,107,378675,0.0-6.99-0.99,0.0,107.0,,,,,,,[],,,,,,56.4,1.0,i,1.0,True,2085.800000000745,126.0,60.0,40.0,False,,386.27097917033825,[],"[668, 376]",ColorTask,46.0,100.0,,,HRV,HRV_0124,2022-11-30 18:17:56
,wl-rdm,108,382245,0.0-6.100-0.100,0.0,108.0,,,,,,,[],,,,,,62.5,1.0,i,1.0,True,2291.699999999255,138.0,60.0,40.0,False,,201.833710799261,[],"[668, 376]",ColorTask,47.0,101.0,,,HRV,HRV_0124,2022-11-30 18:17:56
,wl-rdm,109,385681,0.0-6.101-0.101,0.0,109.0,,,,,,,[],,,,,,73.6,1.0,i,1.0,True,1970.3999999985099,119.0,60.0,40.0,False,,390.5160914545753,[],"[668, 376]",ColorTask,48.0,102.0,,,HRV,HRV_0124,2022-11-30 18:17:56
,wl-rdm,110,389417,0.0-6.102-0.102,0.0,110.0,,,,,,,[],,,,,,50.0,0.0,u,0.0,True,2370.5999999996275,143.0,60.0,40.0,False,,289.9632423509102,[],"[668, 376]",ColorTask,49.0,103.0,,,HRV,HRV_0124,2022-11-30 18:17:56
,wl-rdm,111,392736,0.0-6.103-0.103,0.0,111.0,,,,,,,[],,,,,,73.6,0.0,u,0.0,True,1862.2000000011176,112.0,60.0,40.0,False,,388.7938498906834,[],"[668, 376]",ColorTask,50.0,104.0,,,HRV,HRV_0124,2022-11-30 18:17:56
,wl-rdm,112,396423,0.0-6.104-0.104,0.0,112.0,,,,,,,[],,,,,,53.2,0.0,i,1.0,False,2273.5,137.0,60.0,40.0,False,,330.37328432134797,[],"[668, 376]",ColorTask,49.0,105.0,,,HRV,HRV_0124,2022-11-30 18:17:56
,wl-rdm,113,399709,0.0-6.105-0.105,0.0,113.0,,,,,,,[],,,,,,73.6,0.0,u,0.0,True,1915.699999999255,115.0,60.0,40.0,False,,316.6193337566976,[],"[668, 376]",ColorTask,50.0,106.0,,,HRV,HRV_0124,2022-11-30 18:17:56
,wl-rdm,114,402494,0.0-6.106-0.106,0.0,114.0,,,,,,,[],,,,,,62.5,0.0,u,0.0,True,1472.5,89.0,60.0,40.0,False,,245.73836300664925,[],"[668, 376]",ColorTask,51.0,107.0,,,HRV,HRV_0124,2022-11-30 18:17:56
,wl-rdm,115,405447,0.0-6.107-0.107,0.0,115.0,,,,,,,[],,,,,,87.9,1.0,i,1.0,True,1672.5999999996275,101.0,60.0,40.0,False,,214.53707992191093,[],"[668, 376]",ColorTask,52.0,108.0,,,HRV,HRV_0124,2022-11-30 18:17:56
,wl-rdm,116,408598,0.0-6.108-0.108,0.0,116.0,,,,,,,[],,,,,,53.2,1.0,u,0.0,False,1805.1000000014901,109.0,60.0,40.0,False,,280.346461364755,[],"[668, 376]",ColorTask,51.0,109.0,,,HRV,HRV_0124,2022-11-30 18:17:56
,wl-html-keyboard-response,117,417474,0.0-7.0-0.0,1.0,117.0,,,,,,,,6852.5,1.0,0,,,,,,,,,,,,,,,,,,,,,,HRV,HRV_0124,2022-11-30 18:17:56
,wl-rdm,118,420040,0.0-8.0-0.0,1.0,118.0,,,,,,,[],,,,,,56.4,0.0,u,0.0,True,1243.6000000014901,75.0,60.0,40.0,False,,252.018474975933,[],"[668, 376]",ColorTask,52.0,1.0,,,HRV,HRV_0124,2022-11-30 18:17:56
,wl-rdm,119,423076,0.0-8.1-0.1,1.0,119.0,,,,,,,[],,,,,,73.6,0.0,u,0.0,True,1673.9000000003725,101.0,60.0,40.0,False,,291.6795711076416,[],"[668, 376]",ColorTask,53.0,2.0,,,HRV,HRV_0124,2022-11-30 18:17:56
,wl-rdm,120,425878,0.0-8.2-0.2,1.0,120.0,,,,,,,[],,,,,,56.4,1.0,i,1.0,True,1445.800000000745,87.0,60.0,40.0,False,,287.80597759576426,[],"[668, 376]",ColorTask,54.0,3.0,,,HRV,HRV_0124,2022-11-30 18:17:56
,wl-rdm,121,429098,0.0-8.3-0.3,1.0,121.0,,,,,,,[],,,,,,87.9,0.0,u,0.0,True,1917.5999999996275,115.0,60.0,40.0,False,,247.12385665256488,[],"[668, 376]",ColorTask,55.0,4.0,,,HRV,HRV_0124,2022-11-30 18:17:56
,wl-rdm,122,432300,0.0-8.4-0.4,1.0,122.0,,,,,,,[],,,,,,50.0,1.0,i,1.0,True,1898.300000000745,114.0,60.0,40.0,False,,236.53508855328337,[],"[668, 376]",ColorTask,56.0,5.0,,,HRV,HRV_0124,2022-11-30 18:17:56
,wl-rdm,123,435603,0.0-8.5-0.5,1.0,123.0,,,,,,,[],,,,,,56.4,1.0,i,1.0,True,1966.300000000745,118.0,60.0,40.0,False,,271.5871769462688,[],"[668, 376]",ColorTask,57.0,6.0,,,HRV,HRV_0124,2022-11-30 18:17:56
,wl-rdm,124,438989,0.0-8.6-0.6,1.0,124.0,,,,,,,[],,,,,,73.6,1.0,i,1.0,True,1997.800000000745,120.0,60.0,40.0,False,,321.4254269013957,[],"[668, 376]",ColorTask,58.0,7.0,,,HRV,HRV_0124,2022-11-30 18:17:56
,wl-rdm,125,442358,0.0-8.7-0.7,1.0,125.0,,,,,,,[],,,,,,62.5,0.0,u,0.0,True,1954.9000000003725,118.0,60.0,40.0,False,,350.2278545477259,[],"[668, 376]",ColorTask,59.0,8.0,,,HRV,HRV_0124,2022-11-30 18:17:56
,wl-rdm,126,445794,0.0-8.8-0.8,1.0,126.0,,,,,,,[],,,,,,53.2,1.0,u,0.0,False,2150.3000000026077,129.0,60.0,40.0,False,,232.40117686239955,[],"[668, 376]",ColorTask,58.0,9.0,,,HRV,HRV_0124,2022-11-30 18:17:56
,wl-rdm,127,449064,0.0-8.9-0.9,1.0,127.0,,,,,,,[],,,,,,53.2,0.0,i,1.0,False,1911.5,115.0,60.0,40.0,False,,293.3845868620678,[],"[668, 376]",ColorTask,57.0,10.0,,,HRV,HRV_0124,2022-11-30 18:17:56
,wl-rdm,128,451382,0.0-8.10-0.10,1.0,128.0,,,,,,,[],,,,,,50.0,0.0,i,1.0,False,945.4000000003725,57.0,60.0,40.0,False,,312.9470120220419,[],"[668, 376]",ColorTask,56.0,11.0,,,HRV,HRV_0124,2022-11-30 18:17:56
,wl-rdm,129,454068,0.0-8.11-0.11,1.0,129.0,,,,,,,[],,,,,,73.6,1.0,i,1.0,True,1357.4000000003725,82.0,60.0,40.0,False,,253.8496372187587,[],"[668, 376]",ColorTask,57.0,12.0,,,HRV,HRV_0124,2022-11-30 18:17:56
,wl-rdm,130,457854,0.0-8.12-0.12,1.0,130.0,,,,,,,[],,,,,,62.5,1.0,i,1.0,True,2496.9000000003725,150.0,60.0,40.0,False,,222.75016406130328,[],"[668, 376]",ColorTask,58.0,13.0,,,HRV,HRV_0124,2022-11-30 18:17:56
,wl-rdm,131,461807,0.0-8.13-0.13,1.0,131.0,,,,,,,[],,,,,,62.5,1.0,u,0.0,False,2545.2999999988824,153.0,60.0,40.0,False,,338.6058903505295,[],"[668, 376]",ColorTask,57.0,14.0,,,HRV,HRV_0124,2022-11-30 18:17:56
,wl-rdm,132,464726,0.0-8.14-0.14,1.0,132.0,,,,,,,[],,,,,,73.6,0.0,u,0.0,True,1562.5,94.0,60.0,40.0,False,,289.83020087221814,[],"[668, 376]",ColorTask,58.0,15.0,,,HRV,HRV_0124,2022-11-30 18:17:56
,wl-rdm,133,467544,0.0-8.15-0.15,1.0,133.0,,,,,,,[],,,,,,73.6,0.0,u,0.0,True,1402.0,85.0,60.0,40.0,False,,343.28803094687635,[],"[668, 376]",ColorTask,59.0,16.0,,,HRV,HRV_0124,2022-11-30 18:17:56
,wl-rdm,134,470680,0.0-8.16-0.16,1.0,134.0,,,,,,,[],,,,,,50.0,1.0,i,1.0,True,1835.9000000003725,111.0,60.0,40.0,False,,215.87996099341237,[],"[668, 376]",ColorTask,60.0,17.0,,,HRV,HRV_0124,2022-11-30 18:17:56
,wl-rdm,135,472865,0.0-8.17-0.17,1.0,135.0,,,,,,,[],,,,,,87.9,1.0,i,1.0,True,907.9000000003725,55.0,60.0,40.0,False,,202.70113926673514,[],"[668, 376]",ColorTask,61.0,18.0,,,HRV,HRV_0124,2022-11-30 18:17:56
,wl-rdm,136,475500,0.0-8.18-0.18,1.0,136.0,,,,,,,[],,,,,,87.9,1.0,i,1.0,True,1238.0999999996275,75.0,60.0,40.0,False,,319.3550879149177,[],"[668, 376]",ColorTask,62.0,19.0,,,HRV,HRV_0124,2022-11-30 18:17:56
,wl-rdm,137,478319,0.0-8.19-0.19,1.0,137.0,,,,,,,[],,,,,,56.4,0.0,u,0.0,True,1409.9000000003725,85.0,60.0,40.0,False,,342.08611902381244,[],"[668, 376]",ColorTask,63.0,20.0,,,HRV,HRV_0124,2022-11-30 18:17:56
,wl-rdm,138,481338,0.0-8.20-0.20,1.0,138.0,,,,,,,[],,,,,,62.5,0.0,u,0.0,True,1731.9000000022352,104.0,60.0,40.0,False,,224.5782505682655,[],"[668, 376]",ColorTask,64.0,21.0,,,HRV,HRV_0124,2022-11-30 18:17:56
,wl-rdm,139,484541,0.0-8.21-0.21,1.0,139.0,,,,,,,[],,,,,,53.2,0.0,u,0.0,True,1879.4000000003725,113.0,60.0,40.0,False,,262.7581823015709,[],"[668, 376]",ColorTask,65.0,22.0,,,HRV,HRV_0124,2022-11-30 18:17:56
,wl-rdm,140,488144,0.0-8.22-0.22,1.0,140.0,,,,,,,[],,,,,,87.9,1.0,i,1.0,True,2326.9000000003725,140.0,60.0,40.0,False,,203.05026239320958,[],"[668, 376]",ColorTask,66.0,23.0,,,HRV,HRV_0124,2022-11-30 18:17:56
,wl-rdm,141,490696,0.0-8.23-0.23,1.0,141.0,,,,,,,[],,,,,,73.6,0.0,u,0.0,True,1235.0,75.0,60.0,40.0,False,,246.10199180133466,[],"[668, 376]",ColorTask,67.0,24.0,,,HRV,HRV_0124,2022-11-30 18:17:56
,wl-rdm,142,494132,0.0-8.24-0.24,1.0,142.0,,,,,,,[],,,,,,73.6,1.0,u,0.0,False,2139.4000000003725,129.0,60.0,40.0,False,,218.752320842979,[],"[668, 376]",ColorTask,66.0,25.0,,,HRV,HRV_0124,2022-11-30 18:17:56
,wl-rdm,143,497969,0.0-8.25-0.25,1.0,143.0,,,,,,,[],,,,,,56.4,1.0,u,0.0,False,2526.0,152.0,60.0,40.0,False,,241.78649445766013,[],"[668, 376]",ColorTask,65.0,26.0,,,HRV,HRV_0124,2022-11-30 18:17:56
,wl-rdm,144,500354,0.0-8.26-0.26,1.0,144.0,,,,,,,[],,,,,,50.0,1.0,i,1.0,True,1041.300000000745,63.0,60.0,40.0,False,,275.8918312904407,[],"[668, 376]",ColorTask,66.0,27.0,,,HRV,HRV_0124,2022-11-30 18:17:56
,wl-rdm,145,504490,0.0-8.27-0.27,1.0,145.0,,,,,,,[],,,,,,73.6,1.0,u,0.0,False,2799.4000000003725,168.0,60.0,40.0,False,,277.2358406093376,[],"[668, 376]",ColorTask,65.0,28.0,,,HRV,HRV_0124,2022-11-30 18:17:56
,wl-rdm,146,507610,0.0-8.28-0.28,1.0,146.0,,,,,,,[],,,,,,56.4,0.0,u,0.0,True,1824.7000000011176,110.0,60.0,40.0,False,,221.1725069013911,[],"[668, 376]",ColorTask,66.0,29.0,,,HRV,HRV_0124,2022-11-30 18:17:56
,wl-rdm,147,511296,0.0-8.29-0.29,1.0,147.0,,,,,,,[],,,,,,62.5,0.0,i,1.0,False,2376.800000000745,143.0,60.0,40.0,False,,247.26486925041675,[],"[668, 376]",ColorTask,65.0,30.0,,,HRV,HRV_0124,2022-11-30 18:17:56
,wl-rdm,148,513931,0.0-8.30-0.30,1.0,148.0,,,,,,,[],,,,,,87.9,0.0,u,0.0,True,1222.4000000003725,74.0,60.0,40.0,False,,337.3358633671827,[],"[668, 376]",ColorTask,66.0,31.0,,,HRV,HRV_0124,2022-11-30 18:17:56
,wl-rdm,149,516867,0.0-8.31-0.31,1.0,149.0,,,,,,,[],,,,,,62.5,1.0,i,1.0,True,1564.4000000003725,94.0,60.0,40.0,False,,310.98629575307683,[],"[668, 376]",ColorTask,67.0,32.0,,,HRV,HRV_0124,2022-11-30 18:17:56
,wl-rdm,150,520086,0.0-8.32-0.32,1.0,150.0,,,,,,,[],,,,,,53.2,0.0,i,1.0,False,1844.300000000745,111.0,60.0,40.0,False,,311.27499260493596,[],"[668, 376]",ColorTask,66.0,33.0,,,HRV,HRV_0124,2022-11-30 18:17:56
,wl-rdm,151,522905,0.0-8.33-0.33,1.0,151.0,,,,,,,[],,,,,,73.6,1.0,i,1.0,True,1474.7999999988824,89.0,60.0,40.0,False,,283.3151891962492,[],"[668, 376]",ColorTask,67.0,34.0,,,HRV,HRV_0124,2022-11-30 18:17:56
,wl-rdm,152,527224,0.0-8.34-0.34,1.0,151.0,,,,,,,[],,,,,,53.2,0.0,,,,,179.0,60.0,40.0,True,RT_timeout ,246.78024461913517,[],"[668, 376]",ColorTask,66.0,35.0,,,HRV,HRV_0124,2022-11-30 18:17:56
,wl-rdm,153,529910,0.0-8.35-0.35,1.0,152.0,,,,,,,[],,,,,,87.9,1.0,i,1.0,True,1393.7999999988824,84.0,60.0,40.0,False,,224.4820356935397,[],"[668, 376]",ColorTask,67.0,36.0,,,HRV,HRV_0124,2022-11-30 18:17:56
,wl-rdm,154,533179,0.0-8.36-0.36,1.0,153.0,,,,,,,[],,,,,,73.6,1.0,i,1.0,True,1905.199999999255,115.0,60.0,40.0,False,,293.667489385333,[],"[668, 376]",ColorTask,68.0,37.0,,,HRV,HRV_0124,2022-11-30 18:17:56
,wl-rdm,155,535598,0.0-8.37-0.37,1.0,154.0,,,,,,,[],,,,,,56.4,1.0,u,0.0,False,1076.699999999255,65.0,60.0,40.0,False,,280.0237029111611,[],"[668, 376]",ColorTask,67.0,38.0,,,HRV,HRV_0124,2022-11-30 18:17:56
,wl-rdm,156,538683,0.0-8.38-0.38,1.0,155.0,,,,,,,[],,,,,,50.0,1.0,i,1.0,True,1812.800000000745,109.0,60.0,40.0,False,,214.71642766616242,[],"[668, 376]",ColorTask,68.0,39.0,,,HRV,HRV_0124,2022-11-30 18:17:56
,wl-rdm,157,540969,0.0-8.39-0.39,1.0,156.0,,,,,,,[],,,,,,87.9,1.0,i,1.0,True,848.5,51.0,60.0,40.0,False,,377.95954982871126,[],"[668, 376]",ColorTask,69.0,40.0,,,HRV,HRV_0124,2022-11-30 18:17:56
,wl-rdm,158,543721,0.0-8.40-0.40,1.0,157.0,,,,,,,[],,,,,,50.0,0.0,u,0.0,True,1457.2000000011176,88.0,60.0,40.0,False,,221.00747883041475,[],"[668, 376]",ColorTask,70.0,41.0,,,HRV,HRV_0124,2022-11-30 18:17:56
,wl-rdm,159,547507,0.0-8.41-0.41,1.0,158.0,,,,,,,[],,,,,,53.2,1.0,i,1.0,True,2480.5,149.0,60.0,40.0,False,,235.74533534376866,[],"[668, 376]",ColorTask,71.0,42.0,,,HRV,HRV_0124,2022-11-30 18:17:56
,wl-rdm,160,550843,0.0-8.42-0.42,1.0,159.0,,,,,,,[],,,,,,87.9,1.0,i,1.0,True,1963.2000000011176,118.0,60.0,40.0,False,,302.8102459900054,[],"[668, 376]",ColorTask,72.0,43.0,,,HRV,HRV_0124,2022-11-30 18:17:56
,wl-rdm,161,554446,0.0-8.43-0.43,1.0,160.0,,,,,,,[],,,,,,56.4,1.0,u,0.0,False,2210.5999999996275,133.0,60.0,40.0,False,,317.00647113748107,[],"[668, 376]",ColorTask,71.0,44.0,,,HRV,HRV_0124,2022-11-30 18:17:56
,wl-rdm,162,557766,0.0-8.44-0.44,1.0,161.0,,,,,,,[],,,,,,56.4,1.0,u,0.0,False,2002.699999999255,121.0,60.0,40.0,False,,245.7867232982318,[],"[668, 376]",ColorTask,70.0,45.0,,,HRV,HRV_0124,2022-11-30 18:17:56
,wl-rdm,163,560551,0.0-8.45-0.45,1.0,162.0,,,,,,,[],,,,,,50.0,0.0,u,0.0,True,1509.0,91.0,60.0,40.0,False,,201.27135556791848,[],"[668, 376]",ColorTask,71.0,46.0,,,HRV,HRV_0124,2022-11-30 18:17:56
,wl-rdm,164,563470,0.0-8.46-0.46,1.0,163.0,,,,,,,[],,,,,,50.0,0.0,u,0.0,True,1476.5,89.0,60.0,40.0,False,,371.4567600537997,[],"[668, 376]",ColorTask,72.0,47.0,,,HRV,HRV_0124,2022-11-30 18:17:56
,wl-rdm,165,566289,0.0-8.47-0.47,1.0,164.0,,,,,,,[],,,,,,87.9,1.0,i,1.0,True,1398.5,84.0,60.0,40.0,False,,350.29195856544516,[],"[668, 376]",ColorTask,73.0,48.0,,,HRV,HRV_0124,2022-11-30 18:17:56
,wl-rdm,166,568424,0.0-8.48-0.48,1.0,165.0,,,,,,,[],,,,,,87.9,0.0,u,0.0,True,857.5999999996275,52.0,60.0,40.0,False,,212.56399363299397,[],"[668, 376]",ColorTask,74.0,49.0,,,HRV,HRV_0124,2022-11-30 18:17:56
,wl-rdm,167,570960,0.0-8.49-0.49,1.0,166.0,,,,,,,[],,,,,,50.0,1.0,u,0.0,False,1141.6000000014901,69.0,60.0,40.0,False,,328.94544777529063,[],"[668, 376]",ColorTask,73.0,50.0,,,HRV,HRV_0124,2022-11-30 18:17:56
,wl-rdm,168,573362,0.0-8.50-0.50,1.0,167.0,,,,,,,[],,,,,,87.9,0.0,u,0.0,True,964.5,58.0,60.0,40.0,False,,368.5602919730988,[],"[668, 376]",ColorTask,74.0,51.0,,,HRV,HRV_0124,2022-11-30 18:17:56
,wl-rdm,169,576264,0.0-8.51-0.51,1.0,168.0,,,,,,,[],,,,,,50.0,0.0,i,1.0,False,1616.4000000003725,97.0,60.0,40.0,False,,220.49883453923712,[],"[668, 376]",ColorTask,73.0,52.0,,,HRV,HRV_0124,2022-11-30 18:17:56
,wl-rdm,170,578766,0.0-8.52-0.52,1.0,169.0,,,,,,,[],,,,,,87.9,0.0,u,0.0,True,1093.300000000745,66.0,60.0,40.0,False,,348.6412872435967,[],"[668, 376]",ColorTask,74.0,53.0,,,HRV,HRV_0124,2022-11-30 18:17:56
,wl-rdm,171,582202,0.0-8.53-0.53,1.0,170.0,,,,,,,[],,,,,,50.0,1.0,i,1.0,True,2147.9000000003725,129.0,60.0,40.0,False,,217.1431090879048,[],"[668, 376]",ColorTask,75.0,54.0,,,HRV,HRV_0124,2022-11-30 18:17:56
,wl-rdm,172,585305,0.0-8.54-0.54,1.0,171.0,,,,,,,[],,,,,,53.2,0.0,u,0.0,True,1641.0999999996275,99.0,60.0,40.0,False,,397.6125585055587,[],"[668, 376]",ColorTask,76.0,55.0,,,HRV,HRV_0124,2022-11-30 18:17:56
,wl-rdm,173,589139,0.0-8.55-0.55,1.0,172.0,,,,,,,[],,,,,,50.0,1.0,i,1.0,True,2529.0,152.0,60.0,40.0,False,,248.65171527054588,[],"[668, 376]",ColorTask,77.0,56.0,,,HRV,HRV_0124,2022-11-30 18:17:56
,wl-rdm,174,592659,0.0-8.56-0.56,1.0,173.0,,,,,,,[],,,,,,53.2,1.0,u,0.0,False,2145.5,129.0,60.0,40.0,False,,314.8900254320224,[],"[668, 376]",ColorTask,76.0,57.0,,,HRV,HRV_0124,2022-11-30 18:17:56
,wl-rdm,175,596429,0.0-8.57-0.57,1.0,174.0,,,,,,,[],,,,,,56.4,0.0,i,1.0,False,2486.0,150.0,60.0,40.0,False,,209.4736762976804,[],"[668, 376]",ColorTask,75.0,58.0,,,HRV,HRV_0124,2022-11-30 18:17:56
,wl-rdm,176,598847,0.0-8.58-0.58,1.0,175.0,,,,,,,[],,,,,,56.4,0.0,u,0.0,True,1007.0999999996275,61.0,60.0,40.0,False,,342.69912162154117,[],"[668, 376]",ColorTask,76.0,59.0,,,HRV,HRV_0124,2022-11-30 18:17:56
,wl-rdm,177,601466,0.0-8.59-0.59,1.0,176.0,,,,,,,[],,,,,,87.9,1.0,i,1.0,True,1178.9000000003725,71.0,60.0,40.0,False,,375.4361722740848,[],"[668, 376]",ColorTask,77.0,60.0,,,HRV,HRV_0124,2022-11-30 18:17:56
,wl-rdm,178,604001,0.0-8.60-0.60,1.0,177.0,,,,,,,[],,,,,,53.2,0.0,u,0.0,True,1138.2000000011176,69.0,60.0,40.0,False,,318.8850358356983,[],"[668, 376]",ColorTask,78.0,61.0,,,HRV,HRV_0124,2022-11-30 18:17:56
,wl-rdm,179,607037,0.0-8.61-0.61,1.0,178.0,,,,,,,[],,,,,,62.5,0.0,u,0.0,True,1735.5,105.0,60.0,40.0,False,,217.20792487662354,[],"[668, 376]",ColorTask,79.0,62.0,,,HRV,HRV_0124,2022-11-30 18:17:56
,wl-rdm,180,609789,0.0-8.62-0.62,1.0,179.0,,,,,,,[],,,,,,73.6,0.0,u,0.0,True,1367.4000000003725,82.0,60.0,40.0,False,,324.8978193882772,[],"[668, 376]",ColorTask,80.0,63.0,,,HRV,HRV_0124,2022-11-30 18:17:56
,wl-rdm,181,612591,0.0-8.63-0.63,1.0,180.0,,,,,,,[],,,,,,87.9,0.0,u,0.0,True,1390.2000000011176,84.0,60.0,40.0,False,,340.7586961039453,[],"[668, 376]",ColorTask,81.0,64.0,,,HRV,HRV_0124,2022-11-30 18:17:56
,wl-rdm,182,616678,0.0-8.64-0.64,1.0,181.0,,,,,,,[],,,,,,73.6,1.0,i,1.0,True,2642.5999999996275,159.0,60.0,40.0,False,,380.93824154423487,[],"[668, 376]",ColorTask,82.0,65.0,,,HRV,HRV_0124,2022-11-30 18:17:56
,wl-rdm,183,620231,0.0-8.65-0.65,1.0,182.0,,,,,,,[],,,,,,53.2,0.0,u,0.0,True,2199.7000000011176,132.0,60.0,40.0,False,,288.9732685029172,[],"[668, 376]",ColorTask,83.0,66.0,,,HRV,HRV_0124,2022-11-30 18:17:56
,wl-rdm,184,623851,0.0-8.66-0.66,1.0,183.0,,,,,,,[],,,,,,62.5,1.0,i,1.0,True,2296.199999999255,138.0,60.0,40.0,False,,265.1255351232136,[],"[668, 376]",ColorTask,84.0,67.0,,,HRV,HRV_0124,2022-11-30 18:17:56
,wl-rdm,185,626670,0.0-8.67-0.67,1.0,184.0,,,,,,,[],,,,,,50.0,0.0,u,0.0,True,1517.4000000003725,91.0,60.0,40.0,False,,238.12491075587724,[],"[668, 376]",ColorTask,85.0,68.0,,,HRV,HRV_0124,2022-11-30 18:17:56
,wl-rdm,186,630189,0.0-8.68-0.68,1.0,185.0,,,,,,,[],,,,,,62.5,1.0,i,1.0,True,2234.5,134.0,60.0,40.0,False,,232.29021533121926,[],"[668, 376]",ColorTask,86.0,69.0,,,HRV,HRV_0124,2022-11-30 18:17:56
,wl-rdm,187,633759,0.0-8.69-0.69,1.0,186.0,,,,,,,[],,,,,,50.0,0.0,u,0.0,True,2149.800000000745,129.0,60.0,40.0,False,,357.0285549514317,[],"[668, 376]",ColorTask,87.0,70.0,,,HRV,HRV_0124,2022-11-30 18:17:56
,wl-rdm,188,637011,0.0-8.70-0.70,1.0,187.0,,,,,,,[],,,,,,56.4,0.0,i,1.0,False,1911.7000000011176,115.0,60.0,40.0,False,,275.5090368660917,[],"[668, 376]",ColorTask,86.0,71.0,,,HRV,HRV_0124,2022-11-30 18:17:56
,wl-rdm,189,640114,0.0-8.71-0.71,1.0,188.0,,,,,,,[],,,,,,56.4,1.0,u,0.0,False,1813.0999999996275,109.0,60.0,40.0,False,,223.08961198873217,[],"[668, 376]",ColorTask,85.0,72.0,,,HRV,HRV_0124,2022-11-30 18:17:56
,wl-rdm,190,642199,0.0-8.72-0.72,1.0,189.0,,,,,,,[],,,,,,73.6,0.0,u,0.0,True,781.9000000003725,47.0,60.0,40.0,False,,249.94427777372863,[],"[668, 376]",ColorTask,86.0,73.0,,,HRV,HRV_0124,2022-11-30 18:17:56
,wl-rdm,191,645985,0.0-8.73-0.73,1.0,190.0,,,,,,,[],,,,,,53.2,1.0,i,1.0,True,2372.300000000745,143.0,60.0,40.0,False,,344.05002637783986,[],"[668, 376]",ColorTask,87.0,74.0,,,HRV,HRV_0124,2022-11-30 18:17:56
,wl-rdm,192,649303,0.0-8.74-0.74,1.0,191.0,,,,,,,[],,,,,,50.0,0.0,u,0.0,True,1964.5,118.0,60.0,40.0,False,,290.78316307154523,[],"[668, 376]",ColorTask,88.0,75.0,,,HRV,HRV_0124,2022-11-30 18:17:56
,wl-rdm,193,651722,0.0-8.75-0.75,1.0,192.0,,,,,,,[],,,,,,62.5,1.0,i,1.0,True,1086.199999999255,66.0,60.0,40.0,False,,261.1465514268524,[],"[668, 376]",ColorTask,89.0,76.0,,,HRV,HRV_0124,2022-11-30 18:17:56
,wl-rdm,194,653907,0.0-8.76-0.76,1.0,193.0,,,,,,,[],,,,,,87.9,0.0,u,0.0,True,893.3000000007451,54.0,60.0,40.0,False,,225.93752011833067,[],"[668, 376]",ColorTask,90.0,77.0,,,HRV,HRV_0124,2022-11-30 18:17:56
,wl-rdm,195,657160,0.0-8.77-0.77,1.0,194.0,,,,,,,[],,,,,,53.2,0.0,u,0.0,True,1963.300000000745,118.0,60.0,40.0,False,,219.65505437764853,[],"[668, 376]",ColorTask,91.0,78.0,,,HRV,HRV_0124,2022-11-30 18:17:56
,wl-rdm,196,660129,0.0-8.78-0.78,1.0,195.0,,,,,,,[],,,,,,53.2,1.0,u,0.0,False,1696.300000000745,102.0,60.0,40.0,False,,206.5558295233274,[],"[668, 376]",ColorTask,90.0,79.0,,,HRV,HRV_0124,2022-11-30 18:17:56
,wl-rdm,197,662898,0.0-8.79-0.79,1.0,196.0,,,,,,,[],,,,,,73.6,0.0,u,0.0,True,1462.4000000003725,88.0,60.0,40.0,False,,245.81308394878448,[],"[668, 376]",ColorTask,91.0,80.0,,,HRV,HRV_0124,2022-11-30 18:17:56
,wl-rdm,198,665983,0.0-8.80-0.80,1.0,197.0,,,,,,,[],,,,,,73.6,1.0,i,1.0,True,1689.199999999255,102.0,60.0,40.0,False,,326.63296377976707,[],"[668, 376]",ColorTask,92.0,81.0,,,HRV,HRV_0124,2022-11-30 18:17:56
,wl-rdm,199,668152,0.0-8.81-0.81,1.0,198.0,,,,,,,[],,,,,,56.4,0.0,u,0.0,True,829.9000000003725,50.0,60.0,40.0,False,,276.95144689116427,[],"[668, 376]",ColorTask,93.0,82.0,,,HRV,HRV_0124,2022-11-30 18:17:56
,wl-rdm,200,671688,0.0-8.82-0.82,1.0,199.0,,,,,,,[],,,,,,56.4,1.0,i,1.0,True,2113.8000000026077,127.0,60.0,40.0,False,,365.50851323073397,[],"[668, 376]",ColorTask,94.0,83.0,,,HRV,HRV_0124,2022-11-30 18:17:56
,wl-rdm,201,673940,0.0-8.83-0.83,1.0,200.0,,,,,,,[],,,,,,87.9,0.0,u,0.0,True,859.0999999996275,52.0,60.0,40.0,False,,327.42161219192394,[],"[668, 376]",ColorTask,95.0,84.0,,,HRV,HRV_0124,2022-11-30 18:17:56
,wl-rdm,202,677226,0.0-8.84-0.84,1.0,201.0,,,,,,,[],,,,,,50.0,1.0,i,1.0,True,1853.5,112.0,60.0,40.0,False,,353.6945442304689,[],"[668, 376]",ColorTask,96.0,85.0,,,HRV,HRV_0124,2022-11-30 18:17:56
,wl-rdm,203,680228,0.0-8.85-0.85,1.0,202.0,,,,,,,[],,,,,,62.5,0.0,u,0.0,True,1558.8999999985099,94.0,60.0,40.0,False,,373.7365684233186,[],"[668, 376]",ColorTask,97.0,86.0,,,HRV,HRV_0124,2022-11-30 18:17:56
,wl-rdm,204,683414,0.0-8.86-0.86,1.0,203.0,,,,,,,[],,,,,,62.5,1.0,i,1.0,True,1782.5999999996275,107.0,60.0,40.0,False,,341.77128943557415,[],"[668, 376]",ColorTask,98.0,87.0,,,HRV,HRV_0124,2022-11-30 18:17:56
,wl-rdm,205,686583,0.0-8.87-0.87,1.0,204.0,,,,,,,[],,,,,,50.0,1.0,u,0.0,False,1830.800000000745,110.0,60.0,40.0,False,,282.4091294538922,[],"[668, 376]",ColorTask,97.0,88.0,,,HRV,HRV_0124,2022-11-30 18:17:56
,wl-rdm,206,689653,0.0-8.88-0.88,1.0,205.0,,,,,,,[],,,,,,53.2,1.0,u,0.0,False,1766.8999999985099,106.0,60.0,40.0,False,,241.59400572659007,[],"[668, 376]",ColorTask,96.0,89.0,,,HRV,HRV_0124,2022-11-30 18:17:56
,wl-rdm,207,691704,0.0-8.89-0.89,1.0,206.0,,,,,,,[],,,,,,87.9,0.0,u,0.0,True,687.4000000003725,42.0,60.0,40.0,False,,300.2426960139592,[],"[668, 376]",ColorTask,97.0,90.0,,,HRV,HRV_0124,2022-11-30 18:17:56
,wl-rdm,208,694573,0.0-8.90-0.90,1.0,207.0,,,,,,,[],,,,,,56.4,0.0,u,0.0,True,1549.9000000003725,93.0,60.0,40.0,False,,251.2942728471705,[],"[668, 376]",ColorTask,98.0,91.0,,,HRV,HRV_0124,2022-11-30 18:17:56
,wl-rdm,209,698109,0.0-8.91-0.91,1.0,208.0,,,,,,,[],,,,,,73.6,0.0,u,0.0,True,2099.9000000003725,126.0,60.0,40.0,False,,369.9796847478042,[],"[668, 376]",ColorTask,99.0,92.0,,,HRV,HRV_0124,2022-11-30 18:17:56
,wl-rdm,210,701229,0.0-8.92-0.92,1.0,209.0,,,,,,,[],,,,,,62.5,1.0,i,1.0,True,1759.0,106.0,60.0,40.0,False,,292.6297720380093,[],"[668, 376]",ColorTask,100.0,93.0,,,HRV,HRV_0124,2022-11-30 18:17:56
,wl-rdm,211,704564,0.0-8.93-0.93,1.0,210.0,,,,,,,[],,,,,,56.4,0.0,u,0.0,True,2017.0999999996275,121.0,60.0,40.0,False,,260.3542842685103,[],"[668, 376]",ColorTask,101.0,94.0,,,HRV,HRV_0124,2022-11-30 18:17:56
,wl-rdm,212,707682,0.0-8.94-0.94,1.0,211.0,,,,,,,[],,,,,,73.6,0.0,u,0.0,True,1719.0,104.0,60.0,40.0,False,,317.331887231921,[],"[668, 376]",ColorTask,102.0,95.0,,,HRV,HRV_0124,2022-11-30 18:17:56
,wl-rdm,213,710751,0.0-8.95-0.95,1.0,212.0,,,,,,,[],,,,,,53.2,0.0,u,0.0,True,1796.199999999255,108.0,60.0,40.0,False,,203.97396208432252,[],"[668, 376]",ColorTask,103.0,96.0,,,HRV,HRV_0124,2022-11-30 18:17:56
,wl-rdm,214,713887,0.0-8.96-0.96,1.0,213.0,,,,,,,[],,,,,,62.5,1.0,i,1.0,True,1804.7000000011176,109.0,60.0,40.0,False,,266.20115479685467,[],"[668, 376]",ColorTask,104.0,97.0,,,HRV,HRV_0124,2022-11-30 18:17:56
,wl-rdm,215,717056,0.0-8.97-0.97,1.0,214.0,,,,,,,[],,,,,,53.2,1.0,i,1.0,True,1786.5999999996275,108.0,60.0,40.0,False,,310.1294426630856,[],"[668, 376]",ColorTask,105.0,98.0,,,HRV,HRV_0124,2022-11-30 18:17:56
,wl-rdm,216,720059,0.0-8.98-0.98,1.0,215.0,,,,,,,[],,,,,,62.5,0.0,u,0.0,True,1592.4000000003725,96.0,60.0,40.0,False,,349.01831859937704,[],"[668, 376]",ColorTask,106.0,99.0,,,HRV,HRV_0124,2022-11-30 18:17:56
,wl-rdm,217,722994,0.0-8.99-0.99,1.0,216.0,,,,,,,[],,,,,,62.5,0.0,u,0.0,True,1651.9000000003725,100.0,60.0,40.0,False,,202.1466697281069,[],"[668, 376]",ColorTask,107.0,100.0,,,HRV,HRV_0124,2022-11-30 18:17:56
,wl-rdm,218,726230,0.0-8.100-0.100,1.0,217.0,,,,,,,[],,,,,,62.5,0.0,u,0.0,True,1946.8999999985099,117.0,60.0,40.0,False,,228.65004571049994,[],"[668, 376]",ColorTask,108.0,101.0,,,HRV,HRV_0124,2022-11-30 18:17:56
,wl-rdm,219,729232,0.0-8.101-0.101,1.0,218.0,,,,,,,[],,,,,,73.6,1.0,u,0.0,False,1585.9000000003725,96.0,60.0,40.0,False,,340.676246869427,[],"[668, 376]",ColorTask,107.0,102.0,,,HRV,HRV_0124,2022-11-30 18:17:56
,wl-rdm,220,732685,0.0-8.102-0.102,1.0,219.0,,,,,,,[],,,,,,87.9,1.0,i,1.0,True,1997.800000000745,120.0,60.0,40.0,False,,384.29326616220874,[],"[668, 376]",ColorTask,108.0,103.0,,,HRV,HRV_0124,2022-11-30 18:17:56
,wl-rdm,221,735604,0.0-8.103-0.103,1.0,220.0,,,,,,,[],,,,,,50.0,0.0,u,0.0,True,1590.4000000003725,96.0,60.0,40.0,False,,262.26604855425694,[],"[668, 376]",ColorTask,109.0,104.0,,,HRV,HRV_0124,2022-11-30 18:17:56
,wl-rdm,222,738840,0.0-8.104-0.104,1.0,221.0,,,,,,,[],,,,,,53.2,1.0,u,0.0,False,1853.2999999988824,112.0,60.0,40.0,False,,310.5996063677238,[],"[668, 376]",ColorTask,108.0,105.0,,,HRV,HRV_0124,2022-11-30 18:17:56
,wl-rdm,223,741042,0.0-8.105-0.105,1.0,222.0,,,,,,,[],,,,,,53.2,1.0,i,1.0,True,933.3999999985099,56.0,60.0,40.0,False,,209.62323055795713,[],"[668, 376]",ColorTask,109.0,106.0,,,HRV,HRV_0124,2022-11-30 18:17:56
,wl-rdm,224,744311,0.0-8.106-0.106,1.0,223.0,,,,,,,[],,,,,,56.4,1.0,i,1.0,True,1995.5,120.0,60.0,40.0,False,,204.46588031519127,[],"[668, 376]",ColorTask,110.0,107.0,,,HRV,HRV_0124,2022-11-30 18:17:56
,wl-rdm,225,747314,0.0-8.107-0.107,1.0,224.0,,,,,,,[],,,,,,53.2,0.0,u,0.0,True,1576.199999999255,95.0,60.0,40.0,False,,358.4729998427264,[],"[668, 376]",ColorTask,111.0,108.0,,,HRV,HRV_0124,2022-11-30 18:17:56
,wl-rdm,226,750683,0.0-8.108-0.108,1.0,225.0,,,,,,,[],,,,,,62.5,0.0,u,0.0,True,1966.5,118.0,60.0,40.0,False,,341.9441415324651,[],"[668, 376]",ColorTask,112.0,109.0,,,HRV,HRV_0124,2022-11-30 18:17:56
,wl-html-button-response,227,755222,0.0-9.0-0.0,,,,,,,,,,4536.5999999996275,,0,,,,,,,,,,,,,,,,,,,,<h3>End of this session. Thank you!</h3><br>,['Close window'],HRV,HRV_0124,2022-11-30 18:17:56
