success,trial_type,trial_index,time_elapsed,internal_node_id,Block,TrialNumber,TrialTime,trialTimeDiff,FPS_avg,FPS_med,FPS_mode,TrialDur,winResizeTime,rt,block,button_pressed,MotCoh,MotDir,ColCoh,Color,ChoiceKey,Choice,Accuracy,RT,nFrames,FPS,PPD,missTrial,missTrialMsg,onsetDelay,fullScreenExitTime,canvCenter,TrialType,Score,BlockTrial,stimulus,button_labels,exp,subjectId,date
True,fullscreen,0,2805,0.0-0.0,0.0,1.0,,,,,,,,,,,,,,,,,,,,,,,,,,,,,,,,HRV,HRV_0181,2022-11-30 18:54:16
,wl-check-fps,1,7887,0.0-1.0,0.0,2.0,"[3748.1, 3749.7, 3766.2, 3849.3, 3852.6, 3882.4, 3900.1, 3915.6, 3934.4, 3949.4, 3966.3, 3983, 4000, 4016.1, 4032.8, 4049.7, 4066.8, 4084.3, 4101.6, 4116.6, 4133.1, 4149.5, 4165.6, 4182.9, 4199, 4215.7, 4232.9, 4250.1, 4266.6, 4282.7, 4299.8, 4315.8, 4331.9, 4349.9, 4365.7, 4382.6, 4399.8, 4415.6, 4432.7, 4448.8, 4471.6, 4481.8, 4500, 4515.9, 4532, 4549, 4565.1, 4582.5, 4598.6, 4616.7, 4632.8, 4649.9, 4665.6, 4682.7, 4698.9, 4715.6, 4732.7, 4748.9, 4766, 4781.8, 4799.8, 4817.7, 4832.7, 4849.9, 4865.6, 4881.7, 4899.8, 4915.8, 4931.9, 4950, 4965.1, 4983, 4999, 5015.1, 5032.1, 5049.2, 5066.3, 5082.2, 5099.3, 5116.5, 5132.3, 5149.1, 5166.4, 5183, 5199, 5215.1, 5232, 5248.7, 5265.5, 5281.7, 5298.6, 5316.7, 5331.9, 5349.7, 5366.3, 5381.7, 5398.8, 5415.7, 5432.2, 5449.2, 5465.5, 5482.2, 5498.3, 5516.4, 5532.3, 5548.3, 5565.4, 5582.4, 5598.3, 5616.3, 5632.2, 5648.2, 5666.8, 5682.7, 5698.5, 5714.8, 5732.1, 5748.9, 5765.7, 5781.7, 5798.9, 5815, 5831.9, 5848.2, 5866.3, 5882.1, 5898.1, 5915.5, 5932.2, 5948.1, 5966.2, 5982.3, 5999.5, 6016.4, 6032.5, 6048.3, 6066.3, 6083.1, 6099.3, 6115.4, 6132.3, 6148.3, 6164.9, 6182.2, 6198.3, 6215.2, 6231.4, 6248.2, 6266.3, 6281.4, 6298.4, 6316.6, 6331.7, 6348.7, 6365, 6381.8, 6398.9, 6415.9, 6432, 6448, 6466.2, 6482.2, 6499.3, 6516.3, 6531.3, 6548.3, 6566.3, 6581.3, 6598.6, 6616.4, 6631.4, 6648.5, 6666.5, 6682.6, 6698.3, 6715, 6731.9, 6747.9, 6766.1, 6782.2, 6798.1, 6815, 6831.2, 6848.2, 6866.3, 6881.6, 6898.6, 6916.3, 6931.3, 6949.5, 6965.5, 6981.4, 6998.5, 7015.1, 7031.1, 7048.2, 7066, 7082, 7099.6, 7115.7, 7131.3, 7148.3, 7164.5, 7181.8, 7199.7, 7215.2, 7231.2, 7248.4, 7265, 7281.6, 7298.6, 7315.1, 7331.7, 7348.1, 7365.7, 7382.2, 7398.3, 7416.2, 7432.1, 7448.8, 7466.1, 7482, 7498, 7515.2, 7532.2, 7548.3, 7565.2, 7581.2, 7598.6, 7615.6, 7631.2, 7648.3, 7665.3, 7682.1, 7699.5, 7715.3, 7732.3, 7749.3, 7766, 7782.4, 7799.5, 7814.6, 7832.5, 7848.2, 7865.3, 7881.8, 7898.9, 7915.3, 7932.3, 7948.4, 7965.2, 7981.9, 7998.7, 8015, 8031.5, 8049.4, 8065, 8082.6, 8098.2, 8115.7, 8131.4, 8147.6, 8165.5, 8181.3, 8197.5, 8214.5, 8231.8, 8248, 8264.9, 8280.9, 8297.5, 8315.8, 8332, 8348.1, 8364.7, 8381.3, 8398, 8416, 8431.2, 8448, 8466, 8481.4, 8498.2, 8514.6, 8531.3, 8548.3, 8564.6, 8581.4, 8598.6, 8614.9, 8631.7, 8647.7, 8665.7, 8681.7, 8697.9, 8715.7, 8730.7, 8747.9, 8765.9, 8782.9]","[27.2, 1.6, 16.5, 83.1, 3.3, 29.8, 17.7, 15.5, 18.8, 15, 16.9, 16.7, 17, 16.1, 16.7, 16.9, 17.1, 17.5, 17.3, 15, 16.5, 16.4, 16.1, 17.3, 16.1, 16.7, 17.2, 17.2, 16.5, 16.1, 17.1, 16, 16.1, 18, 15.8, 16.9, 17.2, 15.8, 17.1, 16.1, 22.8, 10.2, 18.2, 15.9, 16.1, 17, 16.1, 17.4, 16.1, 18.1, 16.1, 17.1, 15.7, 17.1, 16.2, 16.7, 17.1, 16.2, 17.1, 15.8, 18, 17.9, 15, 17.2, 15.7, 16.1, 18.1, 16, 16.1, 18.1, 15.1, 17.9, 16, 16.1, 17, 17.1, 17.1, 15.9, 17.1, 17.2, 15.8, 16.8, 17.3, 16.6, 16, 16.1, 16.9, 16.7, 16.8, 16.2, 16.9, 18.1, 15.2, 17.8, 16.6, 15.4, 17.1, 16.9, 16.5, 17, 16.3, 16.7, 16.1, 18.1, 15.9, 16, 17.1, 17, 15.9, 18, 15.9, 16, 18.6, 15.9, 15.8, 16.3, 17.3, 16.8, 16.8, 16, 17.2, 16.1, 16.9, 16.3, 18.1, 15.8, 16, 17.4, 16.7, 15.9, 18.1, 16.1, 17.2, 16.9, 16.1, 15.8, 18, 16.8, 16.2, 16.1, 16.9, 16, 16.6, 17.3, 16.1, 16.9, 16.2, 16.8, 18.1, 15.1, 17, 18.2, 15.1, 17, 16.3, 16.8, 17.1, 17, 16.1, 16, 18.2, 16, 17.1, 17, 15, 17, 18, 15, 17.3, 17.8, 15, 17.1, 18, 16.1, 15.7, 16.7, 16.9, 16, 18.2, 16.1, 15.9, 16.9, 16.2, 17, 18.1, 15.3, 17, 17.7, 15, 18.2, 16, 15.9, 17.1, 16.6, 16, 17.1, 17.8, 16, 17.6, 16.1, 15.6, 17, 16.2, 17.3, 17.9, 15.5, 16, 17.2, 16.6, 16.6, 17, 16.5, 16.6, 16.4, 17.6, 16.5, 16.1, 17.9, 15.9, 16.7, 17.3, 15.9, 16, 17.2, 17, 16.1, 16.9, 16, 17.4, 17, 15.6, 17.1, 17, 16.8, 17.4, 15.8, 17, 17, 16.7, 16.4, 17.1, 15.1, 17.9, 15.7, 17.1, 16.5, 17.1, 16.4, 17, 16.1, 16.8, 16.7, 16.8, 16.3, 16.5, 17.9, 15.6, 17.6, 15.6, 17.5, 15.7, 16.2, 17.9, 15.8, 16.2, 17, 17.3, 16.2, 16.9, 16, 16.6, 18.3, 16.2, 16.1, 16.6, 16.6, 16.7, 18, 15.2, 16.8, 18, 15.4, 16.8, 16.4, 16.7, 17, 16.3, 16.8, 17.2, 16.3, 16.8, 16, 18, 16, 16.2, 17.8, 15, 17.2, 18, 17]",59.0,62.0,62.0,5077.3,[],,,,,,,,,,,,,,,,,,,,,,,,,HRV,HRV_0181,2022-11-30 18:54:16
,wl-html-keyboard-response,2,38909,0.0-2.0-0.0,0.0,3.0,,,,,,,,29010.100000023842,0.0,0,,,,,,,,,,,,,,,,,,,,,,HRV,HRV_0181,2022-11-30 18:54:16
,wl-rdm,3,46059,0.0-3.0-0.0,0.0,4.0,,,,,,,[],,,,0.0,0.0,87.9,0.0,u,0.0,True,1545.5,92.0,62.0,40.0,False,,3000.0,[],"[544, 307.5]",ColorTask_Demo,,,,,HRV,HRV_0181,2022-11-30 18:54:16
,wl-rdm,4,51589,0.0-3.0-1.0,0.0,5.0,,,,,,,[],,,,0.0,0.0,87.9,1.0,i,1.0,True,1446.5,87.0,62.0,40.0,False,,2000.0,[],"[544, 307.5]",ColorTask_Demo,,,,,HRV,HRV_0181,2022-11-30 18:54:16
,wl-html-keyboard-response,5,58412,0.0-3.0-2.0,0.0,6.0,,,,,,,,4811.299999952316,0.0,1,,,,,,,,,,,,,,,,,,,,,,HRV,HRV_0181,2022-11-30 18:54:16
,wl-html-keyboard-response,6,69469,0.0-4.0-0.0,0.0,7.0,,,,,,,,9046.5,0.0,0,,,,,,,,,,,,,,,,,,,,,,HRV,HRV_0181,2022-11-30 18:54:16
,wl-html-keyboard-response,7,88588,0.0-5.0-0.0,0.0,8.0,,,,,,,,17110.0,0.0,0,,,,,,,,,,,,,,,,,,,,,,HRV,HRV_0181,2022-11-30 18:54:16
,wl-rdm,8,91129,0.0-6.0-0.0,0.0,9.0,,,,,,,[],,,,,,87.9,1.0,i,1.0,True,1083.800000011921,65.0,62.0,40.0,False,,393.3622637114223,[],"[544, 307.5]",ColorTask,1.0,1.0,,,HRV,HRV_0181,2022-11-30 18:54:16
,wl-rdm,9,94130,0.0-6.1-0.1,0.0,10.0,,,,,,,[],,,,,,53.2,1.0,u,0.0,False,1609.0999999642372,97.0,62.0,40.0,False,,330.6213821497999,[],"[544, 307.5]",ColorTask,0.0,2.0,,,HRV,HRV_0181,2022-11-30 18:54:16
,wl-rdm,10,96828,0.0-6.2-0.2,0.0,11.0,,,,,,,[],,,,,,53.2,0.0,u,0.0,True,1413.800000011921,85.0,62.0,40.0,False,,208.293994715037,[],"[544, 307.5]",ColorTask,1.0,3.0,,,HRV,HRV_0181,2022-11-30 18:54:16
,wl-rdm,11,99510,0.0-6.3-0.3,0.0,12.0,,,,,,,[],,,,,,73.6,1.0,i,1.0,True,1337.300000011921,81.0,62.0,40.0,False,,273.92557061443284,[],"[544, 307.5]",ColorTask,2.0,4.0,,,HRV,HRV_0181,2022-11-30 18:54:16
,wl-rdm,12,102776,0.0-6.4-0.4,0.0,13.0,,,,,,,[],,,,,,62.5,0.0,u,0.0,True,1918.0999999642372,116.0,62.0,40.0,False,,249.79231101467252,[],"[544, 307.5]",ColorTask,3.0,5.0,,,HRV,HRV_0181,2022-11-30 18:54:16
,wl-rdm,13,106092,0.0-6.5-0.5,0.0,14.0,,,,,,,[],,,,,,56.4,1.0,u,0.0,False,1963.2000000476837,118.0,62.0,40.0,False,,280.6157462933004,[],"[544, 307.5]",ColorTask,2.0,6.0,,,HRV,HRV_0181,2022-11-30 18:54:16
,wl-rdm,14,108874,0.0-6.6-0.6,0.0,15.0,,,,,,,[],,,,,,62.5,0.0,u,0.0,True,1348.3000000715256,81.0,62.0,40.0,False,,355.92065834702873,[],"[544, 307.5]",ColorTask,3.0,7.0,,,HRV,HRV_0181,2022-11-30 18:54:16
,wl-rdm,15,111807,0.0-6.7-0.7,0.0,16.0,,,,,,,[],,,,,,53.2,1.0,i,1.0,True,1558.8999999761581,94.0,62.0,40.0,False,,309.4952782654259,[],"[544, 307.5]",ColorTask,4.0,8.0,,,HRV,HRV_0181,2022-11-30 18:54:16
,wl-rdm,16,114090,0.0-6.8-0.8,0.0,17.0,,,,,,,[],,,,,,87.9,0.0,u,0.0,True,999.5000000596046,60.0,62.0,40.0,False,,214.67189894544148,[],"[544, 307.5]",ColorTask,5.0,9.0,,,HRV,HRV_0181,2022-11-30 18:54:16
,wl-rdm,17,116390,0.0-6.9-0.9,0.0,18.0,,,,,,,[],,,,,,87.9,0.0,u,0.0,True,888.0,54.0,62.0,40.0,False,,326.47259366336493,[],"[544, 307.5]",ColorTask,6.0,10.0,,,HRV,HRV_0181,2022-11-30 18:54:16
,wl-rdm,18,119304,0.0-6.10-0.10,0.0,19.0,,,,,,,[],,,,,,56.4,0.0,u,0.0,True,1568.9999999403954,95.0,62.0,40.0,False,,249.05012644816117,[],"[544, 307.5]",ColorTask,7.0,11.0,,,HRV,HRV_0181,2022-11-30 18:54:16
,wl-rdm,19,121971,0.0-6.11-0.11,0.0,20.0,,,,,,,[],,,,,,56.4,1.0,i,1.0,True,1371.699999988079,83.0,62.0,40.0,False,,223.55851759433426,[],"[544, 307.5]",ColorTask,8.0,12.0,,,HRV,HRV_0181,2022-11-30 18:54:16
,wl-rdm,20,124936,0.0-6.12-0.12,0.0,21.0,,,,,,,[],,,,,,56.4,1.0,i,1.0,True,1598.9999999403954,96.0,62.0,40.0,False,,313.36312292572103,[],"[544, 307.5]",ColorTask,9.0,13.0,,,HRV,HRV_0181,2022-11-30 18:54:16
,wl-rdm,21,127002,0.0-6.13-0.13,0.0,22.0,,,,,,,[],,,,,,87.9,1.0,i,1.0,True,796.0999999642372,48.0,62.0,40.0,False,,205.8308166537245,[],"[544, 307.5]",ColorTask,10.0,14.0,,,HRV,HRV_0181,2022-11-30 18:54:16
,wl-rdm,22,131151,0.0-6.14-0.14,0.0,23.0,,,,,,,[],,,,,,50.0,0.0,u,0.0,True,2874.599999964237,173.0,62.0,40.0,False,,215.53245327892137,[],"[544, 307.5]",ColorTask,11.0,15.0,,,HRV,HRV_0181,2022-11-30 18:54:16
,wl-rdm,23,134184,0.0-6.15-0.15,0.0,24.0,,,,,,,[],,,,,,62.5,1.0,i,1.0,True,1635.3999999761581,99.0,62.0,40.0,False,,313.6272086328754,[],"[544, 307.5]",ColorTask,12.0,16.0,,,HRV,HRV_0181,2022-11-30 18:54:16
,wl-rdm,24,136616,0.0-6.16-0.16,0.0,25.0,,,,,,,[],,,,,,87.9,0.0,u,0.0,True,1066.5999999642372,64.0,62.0,40.0,False,,295.40152304276404,[],"[544, 307.5]",ColorTask,13.0,17.0,,,HRV,HRV_0181,2022-11-30 18:54:16
,wl-rdm,25,138967,0.0-6.17-0.17,0.0,26.0,,,,,,,[],,,,,,87.9,0.0,u,0.0,True,1002.8999999761581,61.0,62.0,40.0,False,,250.92306795591892,[],"[544, 307.5]",ColorTask,14.0,18.0,,,HRV,HRV_0181,2022-11-30 18:54:16
,wl-rdm,26,141432,0.0-6.18-0.18,0.0,27.0,,,,,,,[],,,,,,73.6,0.0,u,0.0,True,1153.199999988079,70.0,62.0,40.0,False,,226.2534818447723,[],"[544, 307.5]",ColorTask,15.0,19.0,,,HRV,HRV_0181,2022-11-30 18:54:16
,wl-rdm,27,143648,0.0-6.19-0.19,0.0,28.0,,,,,,,[],,,,,,87.9,0.0,u,0.0,True,909.0000000596046,55.0,62.0,40.0,False,,219.38669112900635,[],"[544, 307.5]",ColorTask,16.0,20.0,,,HRV,HRV_0181,2022-11-30 18:54:16
,wl-rdm,28,146047,0.0-6.20-0.20,0.0,29.0,,,,,,,[],,,,,,50.0,0.0,i,1.0,False,1008.5,61.0,62.0,40.0,False,,307.9007583367688,[],"[544, 307.5]",ColorTask,15.0,21.0,,,HRV,HRV_0181,2022-11-30 18:54:16
,wl-rdm,29,148980,0.0-6.21-0.21,0.0,30.0,,,,,,,[],,,,,,56.4,0.0,i,1.0,False,1554.8999999761581,94.0,62.0,40.0,False,,283.26330804996815,[],"[544, 307.5]",ColorTask,14.0,22.0,,,HRV,HRV_0181,2022-11-30 18:54:16
,wl-rdm,30,151680,0.0-6.22-0.22,0.0,31.0,,,,,,,[],,,,,,56.4,1.0,i,1.0,True,1342.3999999761581,81.0,62.0,40.0,False,,271.52448975029324,[],"[544, 307.5]",ColorTask,15.0,23.0,,,HRV,HRV_0181,2022-11-30 18:54:16
,wl-rdm,31,155412,0.0-6.23-0.23,0.0,32.0,,,,,,,[],,,,,,62.5,0.0,u,0.0,True,2320.600000023842,140.0,62.0,40.0,False,,347.40205128003663,[],"[544, 307.5]",ColorTask,16.0,24.0,,,HRV,HRV_0181,2022-11-30 18:54:16
,wl-rdm,32,157661,0.0-6.24-0.24,0.0,33.0,,,,,,,[],,,,,,87.9,1.0,i,1.0,True,877.6999999880791,53.0,62.0,40.0,False,,315.3248672198723,[],"[544, 307.5]",ColorTask,17.0,25.0,,,HRV,HRV_0181,2022-11-30 18:54:16
,wl-rdm,33,161260,0.0-6.25-0.25,0.0,34.0,,,,,,,[],,,,,,56.4,0.0,u,0.0,True,2313.0,139.0,62.0,40.0,False,,202.96005342802047,[],"[544, 307.5]",ColorTask,18.0,26.0,,,HRV,HRV_0181,2022-11-30 18:54:16
,wl-rdm,34,163628,0.0-6.26-0.26,0.0,35.0,,,,,,,[],,,,,,87.9,0.0,u,0.0,True,981.0,59.0,62.0,40.0,False,,313.0409932358748,[],"[544, 307.5]",ColorTask,19.0,27.0,,,HRV,HRV_0181,2022-11-30 18:54:16
,wl-rdm,35,166525,0.0-6.27-0.27,0.0,36.0,,,,,,,[],,,,,,73.6,1.0,i,1.0,True,1576.4999999403954,95.0,62.0,40.0,False,,252.85424965502392,[],"[544, 307.5]",ColorTask,20.0,28.0,,,HRV,HRV_0181,2022-11-30 18:54:16
,wl-rdm,36,168975,0.0-6.28-0.28,0.0,37.0,,,,,,,[],,,,,,62.5,0.0,u,0.0,True,1143.800000011921,69.0,62.0,40.0,False,,231.57172700920373,[],"[544, 307.5]",ColorTask,21.0,29.0,,,HRV,HRV_0181,2022-11-30 18:54:16
,wl-rdm,37,172857,0.0-6.29-0.29,0.0,38.0,,,,,,,[],,,,,,53.2,0.0,u,0.0,True,2498.699999988079,150.0,62.0,40.0,False,,323.7882755885936,[],"[544, 307.5]",ColorTask,22.0,30.0,,,HRV,HRV_0181,2022-11-30 18:54:16
,wl-rdm,38,176056,0.0-6.30-0.30,0.0,39.0,,,,,,,[],,,,,,56.4,1.0,u,0.0,False,1916.5999999642372,115.0,62.0,40.0,False,,201.05973224905281,[],"[544, 307.5]",ColorTask,21.0,31.0,,,HRV,HRV_0181,2022-11-30 18:54:16
,wl-rdm,39,178305,0.0-6.31-0.31,0.0,40.0,,,,,,,[],,,,,,87.9,1.0,i,1.0,True,857.2000000476837,52.0,62.0,40.0,False,,312.60951301045156,[],"[544, 307.5]",ColorTask,22.0,32.0,,,HRV,HRV_0181,2022-11-30 18:54:16
,wl-rdm,40,180822,0.0-6.32-0.32,0.0,41.0,,,,,,,[],,,,,,62.5,1.0,i,1.0,True,1069.9000000357628,65.0,62.0,40.0,False,,377.54842791738463,[],"[544, 307.5]",ColorTask,23.0,33.0,,,HRV,HRV_0181,2022-11-30 18:54:16
,wl-rdm,41,183405,0.0-6.33-0.33,0.0,42.0,,,,,,,[],,,,,,62.5,1.0,i,1.0,True,1261.4000000357628,76.0,62.0,40.0,False,,241.10660135774276,[],"[544, 307.5]",ColorTask,24.0,34.0,,,HRV,HRV_0181,2022-11-30 18:54:16
,wl-rdm,42,185988,0.0-6.34-0.34,0.0,43.0,,,,,,,[],,,,,,73.6,1.0,i,1.0,True,1155.1000000238419,70.0,62.0,40.0,False,,341.645439062233,[],"[544, 307.5]",ColorTask,25.0,35.0,,,HRV,HRV_0181,2022-11-30 18:54:16
,wl-rdm,43,188887,0.0-6.35-0.35,0.0,44.0,,,,,,,[],,,,,,56.4,1.0,i,1.0,True,1518.5999999642372,92.0,62.0,40.0,False,,307.1616698784068,[],"[544, 307.5]",ColorTask,26.0,36.0,,,HRV,HRV_0181,2022-11-30 18:54:16
,wl-rdm,44,191070,0.0-6.36-0.36,0.0,45.0,,,,,,,[],,,,,,87.9,1.0,i,1.0,True,828.2999999523163,50.0,62.0,40.0,False,,282.444332648989,[],"[544, 307.5]",ColorTask,27.0,37.0,,,HRV,HRV_0181,2022-11-30 18:54:16
,wl-rdm,45,194218,0.0-6.37-0.37,0.0,46.0,,,,,,,[],,,,,,50.0,0.0,i,1.0,False,1864.0,112.0,62.0,40.0,False,,206.2961700239871,[],"[544, 307.5]",ColorTask,26.0,38.0,,,HRV,HRV_0181,2022-11-30 18:54:16
,wl-rdm,46,196901,0.0-6.38-0.38,0.0,47.0,,,,,,,[],,,,,,56.4,0.0,u,0.0,True,1204.0999999642372,73.0,62.0,40.0,False,,386.7851508226257,[],"[544, 307.5]",ColorTask,27.0,39.0,,,HRV,HRV_0181,2022-11-30 18:54:16
,wl-rdm,47,199768,0.0-6.39-0.39,0.0,48.0,,,,,,,[],,,,,,62.5,0.0,u,0.0,True,1535.0,93.0,62.0,40.0,False,,237.29987103259026,[],"[544, 307.5]",ColorTask,28.0,40.0,,,HRV,HRV_0181,2022-11-30 18:54:16
,wl-rdm,48,202934,0.0-6.40-0.40,0.0,49.0,,,,,,,[],,,,,,50.0,1.0,u,0.0,False,1869.7999999523163,113.0,62.0,40.0,False,,216.22576576914165,[],"[544, 307.5]",ColorTask,27.0,41.0,,,HRV,HRV_0181,2022-11-30 18:54:16
,wl-rdm,49,206216,0.0-6.41-0.41,0.0,50.0,,,,,,,[],,,,,,62.5,1.0,i,1.0,True,1901.3999999761581,115.0,62.0,40.0,False,,291.6507915541672,[],"[544, 307.5]",ColorTask,28.0,42.0,,,HRV,HRV_0181,2022-11-30 18:54:16
,wl-rdm,50,208681,0.0-6.42-0.42,0.0,51.0,,,,,,,[],,,,,,73.6,0.0,u,0.0,True,1165.300000011921,70.0,62.0,40.0,False,,221.37389147112,[],"[544, 307.5]",ColorTask,29.0,43.0,,,HRV,HRV_0181,2022-11-30 18:54:16
,wl-rdm,51,211248,0.0-6.43-0.43,0.0,52.0,,,,,,,[],,,,,,73.6,0.0,u,0.0,True,1208.1000000238419,73.0,62.0,40.0,False,,287.9471171424126,[],"[544, 307.5]",ColorTask,30.0,44.0,,,HRV,HRV_0181,2022-11-30 18:54:16
,wl-rdm,52,215629,0.0-6.44-0.44,0.0,52.0,,,,,,,[],,,,,,53.2,1.0,i,,,3059.400000035763,182.0,62.0,40.0,True,RT_timeout ,275.1551527140681,[],"[544, 307.5]",ColorTask,29.0,45.0,,,HRV,HRV_0181,2022-11-30 18:54:16
,wl-rdm,53,218662,0.0-6.45-0.45,0.0,53.0,,,,,,,[],,,,,,50.0,1.0,u,0.0,False,1568.4000000357628,95.0,62.0,40.0,False,,398.7138237868319,[],"[544, 307.5]",ColorTask,28.0,46.0,,,HRV,HRV_0181,2022-11-30 18:54:16
,wl-rdm,54,220863,0.0-6.46-0.46,0.0,54.0,,,,,,,[],,,,,,73.6,1.0,i,1.0,True,926.5999999642372,56.0,62.0,40.0,False,,206.6886909818324,[],"[544, 307.5]",ColorTask,29.0,47.0,,,HRV,HRV_0181,2022-11-30 18:54:16
,wl-rdm,55,224211,0.0-6.47-0.47,0.0,55.0,,,,,,,[],,,,,,50.0,1.0,i,1.0,True,1955.5,118.0,62.0,40.0,False,,309.5584261359633,[],"[544, 307.5]",ColorTask,30.0,48.0,,,HRV,HRV_0181,2022-11-30 18:54:16
,wl-rdm,56,226928,0.0-6.48-0.48,0.0,56.0,,,,,,,[],,,,,,50.0,1.0,i,1.0,True,1259.5,76.0,62.0,40.0,False,,374.6516966203445,[],"[544, 307.5]",ColorTask,31.0,49.0,,,HRV,HRV_0181,2022-11-30 18:54:16
,wl-rdm,57,229159,0.0-6.49-0.49,0.0,57.0,,,,,,,[],,,,,,87.9,1.0,i,1.0,True,833.3000000119209,50.0,62.0,40.0,False,,331.00481514306216,[],"[544, 307.5]",ColorTask,32.0,50.0,,,HRV,HRV_0181,2022-11-30 18:54:16
,wl-rdm,58,232342,0.0-6.50-0.50,0.0,58.0,,,,,,,[],,,,,,53.2,0.0,u,0.0,True,1718.800000011921,104.0,62.0,40.0,False,,377.11437356530416,[],"[544, 307.5]",ColorTask,33.0,51.0,,,HRV,HRV_0181,2022-11-30 18:54:16
,wl-rdm,59,234891,0.0-6.51-0.51,0.0,59.0,,,,,,,[],,,,,,53.2,0.0,u,0.0,True,1212.0999999642372,73.0,62.0,40.0,False,,278.56463963196074,[],"[544, 307.5]",ColorTask,34.0,52.0,,,HRV,HRV_0181,2022-11-30 18:54:16
,wl-rdm,60,237158,0.0-6.52-0.52,0.0,60.0,,,,,,,[],,,,,,87.9,1.0,i,1.0,True,870.4000000357628,53.0,62.0,40.0,False,,307.4515004633074,[],"[544, 307.5]",ColorTask,35.0,53.0,,,HRV,HRV_0181,2022-11-30 18:54:16
,wl-rdm,61,240141,0.0-6.53-0.53,0.0,61.0,,,,,,,[],,,,,,62.5,0.0,u,0.0,True,1628.2000000476837,98.0,62.0,40.0,False,,284.5026119627346,[],"[544, 307.5]",ColorTask,36.0,54.0,,,HRV,HRV_0181,2022-11-30 18:54:16
,wl-rdm,62,242673,0.0-6.54-0.54,0.0,62.0,,,,,,,[],,,,,,53.2,0.0,u,0.0,True,1191.2999999523163,72.0,62.0,40.0,False,,265.4740607106512,[],"[544, 307.5]",ColorTask,37.0,55.0,,,HRV,HRV_0181,2022-11-30 18:54:16
,wl-rdm,63,244973,0.0-6.55-0.55,0.0,63.0,,,,,,,[],,,,,,56.4,0.0,u,0.0,True,944.6000000238419,57.0,62.0,40.0,False,,277.08522299901,[],"[544, 307.5]",ColorTask,38.0,56.0,,,HRV,HRV_0181,2022-11-30 18:54:16
,wl-rdm,64,247038,0.0-6.56-0.56,0.0,64.0,,,,,,,[],,,,,,87.9,1.0,i,1.0,True,775.7999999523163,47.0,62.0,40.0,False,,216.95038359822905,[],"[544, 307.5]",ColorTask,39.0,57.0,,,HRV,HRV_0181,2022-11-30 18:54:16
,wl-rdm,65,249157,0.0-6.57-0.57,0.0,65.0,,,,,,,[],,,,,,73.6,1.0,i,1.0,True,806.7999999523163,49.0,62.0,40.0,False,,225.55551018553106,[],"[544, 307.5]",ColorTask,40.0,58.0,,,HRV,HRV_0181,2022-11-30 18:54:16
,wl-rdm,66,252171,0.0-6.58-0.58,0.0,66.0,,,,,,,[],,,,,,53.2,0.0,u,0.0,True,1630.800000011921,98.0,62.0,40.0,False,,311.4884736022043,[],"[544, 307.5]",ColorTask,41.0,59.0,,,HRV,HRV_0181,2022-11-30 18:54:16
,wl-rdm,67,254886,0.0-6.59-0.59,0.0,67.0,,,,,,,[],,,,,,73.6,1.0,i,1.0,True,1351.2000000476837,82.0,62.0,40.0,False,,287.54635133685235,[],"[544, 307.5]",ColorTask,42.0,60.0,,,HRV,HRV_0181,2022-11-30 18:54:16
,wl-rdm,68,257736,0.0-6.60-0.60,0.0,68.0,,,,,,,[],,,,,,53.2,1.0,i,1.0,True,1566.2999999523163,94.0,62.0,40.0,False,,218.81589407365885,[],"[544, 307.5]",ColorTask,43.0,61.0,,,HRV,HRV_0181,2022-11-30 18:54:16
,wl-rdm,69,260635,0.0-6.61-0.61,0.0,69.0,,,,,,,[],,,,,,62.5,0.0,u,0.0,True,1563.199999988079,94.0,62.0,40.0,False,,260.8707713235463,[],"[544, 307.5]",ColorTask,44.0,62.0,,,HRV,HRV_0181,2022-11-30 18:54:16
,wl-rdm,70,263001,0.0-6.62-0.62,0.0,70.0,,,,,,,[],,,,,,73.6,1.0,i,1.0,True,1098.199999988079,66.0,62.0,40.0,False,,200.3925634563048,[],"[544, 307.5]",ColorTask,45.0,63.0,,,HRV,HRV_0181,2022-11-30 18:54:16
,wl-rdm,71,266133,0.0-6.63-0.63,0.0,71.0,,,,,,,[],,,,,,53.2,1.0,i,1.0,True,1803.4999999403954,109.0,62.0,40.0,False,,234.64004803367874,[],"[544, 307.5]",ColorTask,46.0,64.0,,,HRV,HRV_0181,2022-11-30 18:54:16
,wl-rdm,72,268533,0.0-6.64-0.64,0.0,72.0,,,,,,,[],,,,,,62.5,0.0,u,0.0,True,1087.4000000357628,66.0,62.0,40.0,False,,230.12296091909278,[],"[544, 307.5]",ColorTask,47.0,65.0,,,HRV,HRV_0181,2022-11-30 18:54:16
,wl-rdm,73,271915,0.0-6.65-0.65,0.0,73.0,,,,,,,[],,,,,,56.4,1.0,u,0.0,False,1912.7000000476837,115.0,62.0,40.0,False,,384.84216888378353,[],"[544, 307.5]",ColorTask,46.0,66.0,,,HRV,HRV_0181,2022-11-30 18:54:16
,wl-rdm,74,274249,0.0-6.66-0.66,0.0,74.0,,,,,,,[],,,,,,73.6,0.0,i,1.0,False,902.0,55.0,62.0,40.0,False,,345.7294742960786,[],"[544, 307.5]",ColorTask,45.0,67.0,,,HRV,HRV_0181,2022-11-30 18:54:16
,wl-rdm,75,277898,0.0-6.67-0.67,0.0,75.0,,,,,,,[],,,,,,56.4,1.0,i,1.0,True,2315.199999988079,139.0,62.0,40.0,False,,264.91843171739333,[],"[544, 307.5]",ColorTask,46.0,68.0,,,HRV,HRV_0181,2022-11-30 18:54:16
,wl-rdm,76,281447,0.0-6.68-0.68,0.0,76.0,,,,,,,[],,,,,,50.0,1.0,u,0.0,False,2151.800000011921,130.0,62.0,40.0,False,,320.309726322944,[],"[544, 307.5]",ColorTask,45.0,69.0,,,HRV,HRV_0181,2022-11-30 18:54:16
,wl-rdm,77,284028,0.0-6.69-0.69,0.0,77.0,,,,,,,[],,,,,,56.4,1.0,i,1.0,True,1294.4000000357628,78.0,62.0,40.0,False,,216.720620543286,[],"[544, 307.5]",ColorTask,46.0,70.0,,,HRV,HRV_0181,2022-11-30 18:54:16
,wl-rdm,78,286544,0.0-6.70-0.70,0.0,78.0,,,,,,,[],,,,,,53.2,0.0,u,0.0,True,1140.5,69.0,62.0,40.0,False,,289.0365111708423,[],"[544, 307.5]",ColorTask,47.0,71.0,,,HRV,HRV_0181,2022-11-30 18:54:16
,wl-rdm,79,288795,0.0-6.71-0.71,0.0,79.0,,,,,,,[],,,,,,87.9,0.0,u,0.0,True,880.0,53.0,62.0,40.0,False,,304.47226515481475,[],"[544, 307.5]",ColorTask,48.0,72.0,,,HRV,HRV_0181,2022-11-30 18:54:16
,wl-rdm,80,291560,0.0-6.72-0.72,0.0,80.0,,,,,,,[],,,,,,62.5,1.0,i,1.0,True,1433.3999999761581,86.0,62.0,40.0,False,,263.93387444560597,[],"[544, 307.5]",ColorTask,49.0,73.0,,,HRV,HRV_0181,2022-11-30 18:54:16
,wl-rdm,81,294442,0.0-6.73-0.73,0.0,81.0,,,,,,,[],,,,,,62.5,1.0,i,1.0,True,1592.199999988079,96.0,62.0,40.0,False,,214.13444857465603,[],"[544, 307.5]",ColorTask,50.0,74.0,,,HRV,HRV_0181,2022-11-30 18:54:16
,wl-rdm,82,297509,0.0-6.74-0.74,0.0,82.0,,,,,,,[],,,,,,56.4,0.0,u,0.0,True,1719.2000000476837,104.0,62.0,40.0,False,,283.72047811270784,[],"[544, 307.5]",ColorTask,51.0,75.0,,,HRV,HRV_0181,2022-11-30 18:54:16
,wl-rdm,83,300374,0.0-6.75-0.75,0.0,83.0,,,,,,,[],,,,,,56.4,0.0,u,0.0,True,1486.300000011921,90.0,62.0,40.0,False,,290.68854555282405,[],"[544, 307.5]",ColorTask,52.0,76.0,,,HRV,HRV_0181,2022-11-30 18:54:16
,wl-rdm,84,303124,0.0-6.76-0.76,0.0,84.0,,,,,,,[],,,,,,62.5,1.0,u,0.0,False,1270.5999999642372,77.0,62.0,40.0,False,,392.3666841963104,[],"[544, 307.5]",ColorTask,51.0,77.0,,,HRV,HRV_0181,2022-11-30 18:54:16
,wl-rdm,85,305891,0.0-6.77-0.77,0.0,85.0,,,,,,,[],,,,,,62.5,1.0,i,1.0,True,1339.6000000238419,81.0,62.0,40.0,False,,354.5935021470716,[],"[544, 307.5]",ColorTask,52.0,78.0,,,HRV,HRV_0181,2022-11-30 18:54:16
,wl-rdm,86,308456,0.0-6.78-0.78,0.0,86.0,,,,,,,[],,,,,,56.4,0.0,u,0.0,True,1185.1000000238419,72.0,62.0,40.0,False,,286.2062966759703,[],"[544, 307.5]",ColorTask,53.0,79.0,,,HRV,HRV_0181,2022-11-30 18:54:16
,wl-rdm,87,311506,0.0-6.79-0.79,0.0,87.0,,,,,,,[],,,,,,53.2,1.0,u,0.0,False,1739.9000000357628,105.0,62.0,40.0,False,,233.30046123166943,[],"[544, 307.5]",ColorTask,52.0,80.0,,,HRV,HRV_0181,2022-11-30 18:54:16
,wl-rdm,88,314587,0.0-6.80-0.80,0.0,88.0,,,,,,,[],,,,,,50.0,0.0,u,0.0,True,1727.300000011921,104.0,62.0,40.0,False,,300.11629580946476,[],"[544, 307.5]",ColorTask,53.0,81.0,,,HRV,HRV_0181,2022-11-30 18:54:16
,wl-rdm,89,317053,0.0-6.81-0.81,0.0,89.0,,,,,,,[],,,,,,73.6,0.0,u,0.0,True,1177.7999999523163,71.0,62.0,40.0,False,,206.85261329635804,[],"[544, 307.5]",ColorTask,54.0,82.0,,,HRV,HRV_0181,2022-11-30 18:54:16
,wl-rdm,90,319986,0.0-6.82-0.82,0.0,90.0,,,,,,,[],,,,,,50.0,0.0,u,0.0,True,1639.0000000596046,99.0,62.0,40.0,False,,210.4838882714308,[],"[544, 307.5]",ColorTask,55.0,83.0,,,HRV,HRV_0181,2022-11-30 18:54:16
,wl-rdm,91,322486,0.0-6.83-0.83,0.0,91.0,,,,,,,[],,,,,,62.5,0.0,u,0.0,True,1169.5999999642372,71.0,62.0,40.0,False,,236.7893320373444,[],"[544, 307.5]",ColorTask,56.0,84.0,,,HRV,HRV_0181,2022-11-30 18:54:16
,wl-rdm,92,324868,0.0-6.84-0.84,0.0,92.0,,,,,,,[],,,,,,73.6,0.0,u,0.0,True,1002.7999999523163,61.0,62.0,40.0,False,,302.04667647012377,[],"[544, 307.5]",ColorTask,57.0,85.0,,,HRV,HRV_0181,2022-11-30 18:54:16
,wl-rdm,93,328601,0.0-6.85-0.85,0.0,93.0,,,,,,,[],,,,,,50.0,1.0,i,1.0,True,2415.199999988079,145.0,62.0,40.0,False,,236.54976497844794,[],"[544, 307.5]",ColorTask,58.0,86.0,,,HRV,HRV_0181,2022-11-30 18:54:16
,wl-rdm,94,331383,0.0-6.86-0.86,0.0,94.0,,,,,,,[],,,,,,50.0,1.0,i,1.0,True,1303.5,79.0,62.0,40.0,False,,387.9428753318991,[],"[544, 307.5]",ColorTask,59.0,87.0,,,HRV,HRV_0181,2022-11-30 18:54:16
,wl-rdm,95,333915,0.0-6.87-0.87,0.0,95.0,,,,,,,[],,,,,,50.0,0.0,i,1.0,False,1179.4000000357628,71.0,62.0,40.0,False,,280.462932220264,[],"[544, 307.5]",ColorTask,58.0,88.0,,,HRV,HRV_0181,2022-11-30 18:54:16
,wl-rdm,96,336131,0.0-6.88-0.88,0.0,96.0,,,,,,,[],,,,,,73.6,1.0,i,1.0,True,920.0,56.0,62.0,40.0,False,,219.2994880154955,[],"[544, 307.5]",ColorTask,59.0,89.0,,,HRV,HRV_0181,2022-11-30 18:54:16
,wl-rdm,97,338632,0.0-6.89-0.89,0.0,97.0,,,,,,,[],,,,,,56.4,0.0,i,1.0,False,1216.7999999523163,74.0,62.0,40.0,False,,204.90851659883563,[],"[544, 307.5]",ColorTask,58.0,90.0,,,HRV,HRV_0181,2022-11-30 18:54:16
,wl-rdm,98,341181,0.0-6.90-0.90,0.0,98.0,,,,,,,[],,,,,,53.2,1.0,i,1.0,True,1177.300000011921,71.0,62.0,40.0,False,,288.33259838419394,[],"[544, 307.5]",ColorTask,59.0,91.0,,,HRV,HRV_0181,2022-11-30 18:54:16
,wl-rdm,99,343681,0.0-6.91-0.91,0.0,99.0,,,,,,,[],,,,,,73.6,0.0,u,0.0,True,1074.2999999523163,65.0,62.0,40.0,False,,346.6461562562631,[],"[544, 307.5]",ColorTask,60.0,92.0,,,HRV,HRV_0181,2022-11-30 18:54:16
,wl-rdm,100,346646,0.0-6.92-0.92,0.0,100.0,,,,,,,[],,,,,,73.6,1.0,i,1.0,True,1618.0,98.0,62.0,40.0,False,,249.8944282854875,[],"[544, 307.5]",ColorTask,61.0,93.0,,,HRV,HRV_0181,2022-11-30 18:54:16
,wl-rdm,101,349462,0.0-6.93-0.93,0.0,101.0,,,,,,,[],,,,,,53.2,0.0,u,0.0,True,1502.0,91.0,62.0,40.0,False,,232.86802088146757,[],"[544, 307.5]",ColorTask,62.0,94.0,,,HRV,HRV_0181,2022-11-30 18:54:16
,wl-rdm,102,351678,0.0-6.94-0.94,0.0,102.0,,,,,,,[],,,,,,87.9,0.0,u,0.0,True,793.6999999284744,48.0,62.0,40.0,False,,346.8856750798868,[],"[544, 307.5]",ColorTask,63.0,95.0,,,HRV,HRV_0181,2022-11-30 18:54:16
,wl-rdm,103,354177,0.0-6.95-0.95,0.0,103.0,,,,,,,[],,,,,,50.0,1.0,u,0.0,False,1156.0,70.0,62.0,40.0,False,,268.95874019547375,[],"[544, 307.5]",ColorTask,62.0,96.0,,,HRV,HRV_0181,2022-11-30 18:54:16
,wl-rdm,104,357493,0.0-6.96-0.96,0.0,104.0,,,,,,,[],,,,,,53.2,1.0,i,1.0,True,2002.5000000596046,121.0,62.0,40.0,False,,231.06215424258028,[],"[544, 307.5]",ColorTask,63.0,97.0,,,HRV,HRV_0181,2022-11-30 18:54:16
,wl-rdm,105,359760,0.0-6.97-0.97,0.0,105.0,,,,,,,[],,,,,,87.9,0.0,u,0.0,True,825.3000000119209,50.0,62.0,40.0,False,,362.25886389637395,[],"[544, 307.5]",ColorTask,64.0,98.0,,,HRV,HRV_0181,2022-11-30 18:54:16
,wl-rdm,106,362375,0.0-6.98-0.98,0.0,106.0,,,,,,,[],,,,,,53.2,1.0,u,0.0,False,1250.6000000238419,75.0,62.0,40.0,False,,294.3978519688806,[],"[544, 307.5]",ColorTask,63.0,99.0,,,HRV,HRV_0181,2022-11-30 18:54:16
,wl-rdm,107,364876,0.0-6.99-0.99,0.0,107.0,,,,,,,[],,,,,,50.0,0.0,u,0.0,True,1096.0,66.0,62.0,40.0,False,,337.93020658501234,[],"[544, 307.5]",ColorTask,64.0,100.0,,,HRV,HRV_0181,2022-11-30 18:54:16
,wl-rdm,108,367943,0.0-6.100-0.100,0.0,108.0,,,,,,,[],,,,,,53.2,0.0,i,1.0,False,1653.300000011921,100.0,62.0,40.0,False,,330.53113545374947,[],"[544, 307.5]",ColorTask,63.0,101.0,,,HRV,HRV_0181,2022-11-30 18:54:16
,wl-rdm,109,370940,0.0-6.101-0.101,0.0,109.0,,,,,,,[],,,,,,50.0,0.0,u,0.0,True,1678.0000000596046,101.0,62.0,40.0,False,,259.77896695818947,[],"[544, 307.5]",ColorTask,64.0,102.0,,,HRV,HRV_0181,2022-11-30 18:54:16
,wl-rdm,110,373289,0.0-6.102-0.102,0.0,110.0,,,,,,,[],,,,,,62.5,1.0,u,0.0,False,1080.0,65.0,62.0,40.0,False,,205.96569711549654,[],"[544, 307.5]",ColorTask,63.0,103.0,,,HRV,HRV_0181,2022-11-30 18:54:16
,wl-rdm,111,375772,0.0-6.103-0.103,0.0,111.0,,,,,,,[],,,,,,50.0,1.0,u,0.0,False,1162.1000000238419,70.0,62.0,40.0,False,,248.84831327685066,[],"[544, 307.5]",ColorTask,62.0,104.0,,,HRV,HRV_0181,2022-11-30 18:54:16
,wl-rdm,112,378489,0.0-6.104-0.104,0.0,112.0,,,,,,,[],,,,,,73.6,0.0,u,0.0,True,1365.6000000238419,82.0,62.0,40.0,False,,278.6244663274161,[],"[544, 307.5]",ColorTask,63.0,105.0,,,HRV,HRV_0181,2022-11-30 18:54:16
,wl-rdm,113,380771,0.0-6.105-0.105,0.0,113.0,,,,,,,[],,,,,,73.6,0.0,u,0.0,True,987.7999999523163,60.0,62.0,40.0,False,,231.24358912682285,[],"[544, 307.5]",ColorTask,64.0,106.0,,,HRV,HRV_0181,2022-11-30 18:54:16
,wl-rdm,114,383053,0.0-6.106-0.106,0.0,114.0,,,,,,,[],,,,,,87.9,1.0,i,1.0,True,842.0999999642372,51.0,62.0,40.0,False,,373.09834870685427,[],"[544, 307.5]",ColorTask,65.0,107.0,,,HRV,HRV_0181,2022-11-30 18:54:16
,wl-rdm,115,385653,0.0-6.107-0.107,0.0,115.0,,,,,,,[],,,,,,53.2,1.0,u,0.0,False,1152.7000000476837,70.0,62.0,40.0,False,,364.7586671982825,[],"[544, 307.5]",ColorTask,64.0,108.0,,,HRV,HRV_0181,2022-11-30 18:54:16
,wl-rdm,116,388837,0.0-6.108-0.108,0.0,116.0,,,,,,,[],,,,,,50.0,0.0,i,1.0,False,1754.199999988079,106.0,62.0,40.0,False,,341.54836311604913,[],"[544, 307.5]",ColorTask,63.0,109.0,,,HRV,HRV_0181,2022-11-30 18:54:16
,wl-html-keyboard-response,117,403725,0.0-7.0-0.0,1.0,117.0,,,,,,,,12873.299999952316,1.0,0,,,,,,,,,,,,,,,,,,,,,,HRV,HRV_0181,2022-11-30 18:54:16
,wl-rdm,118,406297,0.0-8.0-0.0,1.0,118.0,,,,,,,[],,,,,,56.4,0.0,u,0.0,True,1296.699999988079,78.0,62.0,40.0,False,,229.58568606771829,[],"[544, 307.5]",ColorTask,64.0,1.0,,,HRV,HRV_0181,2022-11-30 18:54:16
,wl-rdm,119,408964,0.0-8.1-0.1,1.0,119.0,,,,,,,[],,,,,,50.0,1.0,i,1.0,True,1271.1000000238419,77.0,62.0,40.0,False,,307.7100884971238,[],"[544, 307.5]",ColorTask,65.0,2.0,,,HRV,HRV_0181,2022-11-30 18:54:16
,wl-rdm,120,411997,0.0-8.2-0.2,1.0,120.0,,,,,,,[],,,,,,56.4,1.0,u,0.0,False,1594.9000000357628,96.0,62.0,40.0,False,,361.87265266843576,[],"[544, 307.5]",ColorTask,64.0,3.0,,,HRV,HRV_0181,2022-11-30 18:54:16
,wl-rdm,121,415045,0.0-8.3-0.3,1.0,121.0,,,,,,,[],,,,,,56.4,1.0,i,1.0,True,1652.4999999403954,100.0,62.0,40.0,False,,316.82158944253814,[],"[544, 307.5]",ColorTask,65.0,4.0,,,HRV,HRV_0181,2022-11-30 18:54:16
,wl-rdm,122,417961,0.0-8.4-0.4,1.0,122.0,,,,,,,[],,,,,,50.0,0.0,u,0.0,True,1564.9999999403954,94.0,62.0,40.0,False,,282.4949744104805,[],"[544, 307.5]",ColorTask,66.0,5.0,,,HRV,HRV_0181,2022-11-30 18:54:16
,wl-rdm,123,420310,0.0-8.5-0.5,1.0,123.0,,,,,,,[],,,,,,73.6,0.0,u,0.0,True,1018.5999999642372,62.0,62.0,40.0,False,,253.35722709478418,[],"[544, 307.5]",ColorTask,67.0,6.0,,,HRV,HRV_0181,2022-11-30 18:54:16
,wl-rdm,124,422843,0.0-8.6-0.6,1.0,124.0,,,,,,,[],,,,,,53.2,0.0,u,0.0,True,1129.3999999165535,68.0,62.0,40.0,False,,331.1648004496693,[],"[544, 307.5]",ColorTask,68.0,7.0,,,HRV,HRV_0181,2022-11-30 18:54:16
,wl-rdm,125,425944,0.0-8.7-0.7,1.0,125.0,,,,,,,[],,,,,,62.5,1.0,u,0.0,False,1752.300000011921,106.0,62.0,40.0,False,,271.2378874525404,[],"[544, 307.5]",ColorTask,67.0,8.0,,,HRV,HRV_0181,2022-11-30 18:54:16
,wl-rdm,126,428558,0.0-8.8-0.8,1.0,126.0,,,,,,,[],,,,,,62.5,0.0,u,0.0,True,1242.1000000238419,75.0,62.0,40.0,False,,284.496595492079,[],"[544, 307.5]",ColorTask,68.0,9.0,,,HRV,HRV_0181,2022-11-30 18:54:16
,wl-rdm,127,430907,0.0-8.9-0.9,1.0,127.0,,,,,,,[],,,,,,73.6,1.0,i,1.0,True,911.2000000476837,55.0,62.0,40.0,False,,371.34768926755453,[],"[544, 307.5]",ColorTask,69.0,10.0,,,HRV,HRV_0181,2022-11-30 18:54:16
,wl-rdm,128,433507,0.0-8.10-0.10,1.0,128.0,,,,,,,[],,,,,,62.5,1.0,i,1.0,True,1203.5,73.0,62.0,40.0,False,,320.6335196995787,[],"[544, 307.5]",ColorTask,70.0,11.0,,,HRV,HRV_0181,2022-11-30 18:54:16
,wl-rdm,129,436556,0.0-8.11-0.11,1.0,129.0,,,,,,,[],,,,,,53.2,0.0,u,0.0,True,1611.1000000238419,97.0,62.0,40.0,False,,356.87931372871515,[],"[544, 307.5]",ColorTask,71.0,12.0,,,HRV,HRV_0181,2022-11-30 18:54:16
,wl-rdm,130,439722,0.0-8.12-0.12,1.0,130.0,,,,,,,[],,,,,,53.2,0.0,u,0.0,True,1780.2000000476837,107.0,62.0,40.0,False,,314.81069052119886,[],"[544, 307.5]",ColorTask,72.0,13.0,,,HRV,HRV_0181,2022-11-30 18:54:16
,wl-rdm,131,442371,0.0-8.13-0.13,1.0,131.0,,,,,,,[],,,,,,53.2,1.0,u,0.0,False,1253.0999999642372,76.0,62.0,40.0,False,,311.4537792951045,[],"[544, 307.5]",ColorTask,71.0,14.0,,,HRV,HRV_0181,2022-11-30 18:54:16
,wl-rdm,132,445337,0.0-8.14-0.14,1.0,132.0,,,,,,,[],,,,,,53.2,1.0,u,0.0,False,1563.699999988079,94.0,62.0,40.0,False,,350.0516514513618,[],"[544, 307.5]",ColorTask,70.0,15.0,,,HRV,HRV_0181,2022-11-30 18:54:16
,wl-rdm,133,447553,0.0-8.15-0.15,1.0,133.0,,,,,,,[],,,,,,73.6,0.0,u,0.0,True,939.8999999761581,57.0,62.0,40.0,False,,206.37149126676943,[],"[544, 307.5]",ColorTask,71.0,16.0,,,HRV,HRV_0181,2022-11-30 18:54:16
,wl-rdm,134,450586,0.0-8.16-0.16,1.0,134.0,,,,,,,[],,,,,,56.4,1.0,i,1.0,True,1680.300000011921,101.0,62.0,40.0,False,,274.5613558384717,[],"[544, 307.5]",ColorTask,72.0,17.0,,,HRV,HRV_0181,2022-11-30 18:54:16
,wl-rdm,135,452751,0.0-8.17-0.17,1.0,135.0,,,,,,,[],,,,,,87.9,0.0,u,0.0,True,890.5999999642372,54.0,62.0,40.0,False,,215.92403578941943,[],"[544, 307.5]",ColorTask,73.0,18.0,,,HRV,HRV_0181,2022-11-30 18:54:16
,wl-rdm,136,455318,0.0-8.18-0.18,1.0,136.0,,,,,,,[],,,,,,62.5,1.0,i,1.0,True,1201.4999999403954,73.0,62.0,40.0,False,,270.9589446163472,[],"[544, 307.5]",ColorTask,74.0,19.0,,,HRV,HRV_0181,2022-11-30 18:54:16
,wl-rdm,137,457483,0.0-8.19-0.19,1.0,137.0,,,,,,,[],,,,,,87.9,1.0,i,1.0,True,777.0,47.0,62.0,40.0,False,,314.8519547006537,[],"[544, 307.5]",ColorTask,75.0,20.0,,,HRV,HRV_0181,2022-11-30 18:54:16
,wl-rdm,138,459750,0.0-8.20-0.20,1.0,138.0,,,,,,,[],,,,,,62.5,1.0,i,1.0,True,935.8999999761581,57.0,62.0,40.0,False,,241.05686508370223,[],"[544, 307.5]",ColorTask,76.0,21.0,,,HRV,HRV_0181,2022-11-30 18:54:16
,wl-rdm,139,462100,0.0-8.21-0.21,1.0,139.0,,,,,,,[],,,,,,87.9,0.0,u,0.0,True,887.1999999880791,54.0,62.0,40.0,False,,383.38942444947463,[],"[544, 307.5]",ColorTask,77.0,22.0,,,HRV,HRV_0181,2022-11-30 18:54:16
,wl-rdm,140,464399,0.0-8.22-0.22,1.0,140.0,,,,,,,[],,,,,,73.6,0.0,u,0.0,True,925.5999999642372,56.0,62.0,40.0,False,,283.42564445217124,[],"[544, 307.5]",ColorTask,78.0,23.0,,,HRV,HRV_0181,2022-11-30 18:54:16
,wl-rdm,141,466632,0.0-8.23-0.23,1.0,141.0,,,,,,,[],,,,,,50.0,1.0,u,0.0,False,765.1999999880791,46.0,62.0,40.0,False,,388.8152000900317,[],"[544, 307.5]",ColorTask,77.0,24.0,,,HRV,HRV_0181,2022-11-30 18:54:16
,wl-rdm,142,468964,0.0-8.24-0.24,1.0,142.0,,,,,,,[],,,,,,73.6,0.0,u,0.0,True,1053.0,64.0,62.0,40.0,False,,207.53798069108146,[],"[544, 307.5]",ColorTask,78.0,25.0,,,HRV,HRV_0181,2022-11-30 18:54:16
,wl-rdm,143,472081,0.0-8.25-0.25,1.0,143.0,,,,,,,[],,,,,,50.0,1.0,i,1.0,True,1790.0999999642372,108.0,62.0,40.0,False,,243.62009111308691,[],"[544, 307.5]",ColorTask,79.0,26.0,,,HRV,HRV_0181,2022-11-30 18:54:16
,wl-rdm,144,474830,0.0-8.26-0.26,1.0,144.0,,,,,,,[],,,,,,56.4,0.0,i,1.0,False,1459.1000000238419,88.0,62.0,40.0,False,,228.80238069443504,[],"[544, 307.5]",ColorTask,78.0,27.0,,,HRV,HRV_0181,2022-11-30 18:54:16
,wl-rdm,145,477545,0.0-8.27-0.27,1.0,145.0,,,,,,,[],,,,,,56.4,0.0,u,0.0,True,1445.5,87.0,62.0,40.0,False,,209.0065425854349,[],"[544, 307.5]",ColorTask,79.0,28.0,,,HRV,HRV_0181,2022-11-30 18:54:16
,wl-rdm,146,479928,0.0-8.28-0.28,1.0,146.0,,,,,,,[],,,,,,50.0,1.0,u,0.0,False,1048.199999988079,63.0,62.0,40.0,False,,274.17757870692066,[],"[544, 307.5]",ColorTask,78.0,29.0,,,HRV,HRV_0181,2022-11-30 18:54:16
,wl-rdm,147,482361,0.0-8.29-0.29,1.0,147.0,,,,,,,[],,,,,,62.5,0.0,u,0.0,True,1030.1999999284744,62.0,62.0,40.0,False,,346.1645254078527,[],"[544, 307.5]",ColorTask,79.0,30.0,,,HRV,HRV_0181,2022-11-30 18:54:16
,wl-rdm,148,485110,0.0-8.30-0.30,1.0,148.0,,,,,,,[],,,,,,56.4,1.0,i,1.0,True,1349.2999999523163,82.0,62.0,40.0,False,,331.7588866231741,[],"[544, 307.5]",ColorTask,80.0,31.0,,,HRV,HRV_0181,2022-11-30 18:54:16
,wl-rdm,149,488709,0.0-8.31-0.31,1.0,149.0,,,,,,,[],,,,,,50.0,0.0,u,0.0,True,2252.7000000476837,136.0,62.0,40.0,False,,262.8357393884517,[],"[544, 307.5]",ColorTask,81.0,32.0,,,HRV,HRV_0181,2022-11-30 18:54:16
,wl-rdm,150,490808,0.0-8.32-0.32,1.0,150.0,,,,,,,[],,,,,,87.9,1.0,i,1.0,True,797.1999999880791,48.0,62.0,40.0,False,,227.48695015739565,[],"[544, 307.5]",ColorTask,82.0,33.0,,,HRV,HRV_0181,2022-11-30 18:54:16
,wl-rdm,151,493025,0.0-8.33-0.33,1.0,151.0,,,,,,,[],,,,,,87.9,0.0,u,0.0,True,923.7999999523163,56.0,62.0,40.0,False,,203.01435308751167,[],"[544, 307.5]",ColorTask,83.0,34.0,,,HRV,HRV_0181,2022-11-30 18:54:16
,wl-rdm,152,496191,0.0-8.34-0.34,1.0,152.0,,,,,,,[],,,,,,53.2,1.0,i,1.0,True,1707.699999988079,103.0,62.0,40.0,False,,394.8567994051681,[],"[544, 307.5]",ColorTask,84.0,35.0,,,HRV,HRV_0181,2022-11-30 18:54:16
,wl-rdm,153,498389,0.0-8.35-0.35,1.0,153.0,,,,,,,[],,,,,,87.9,1.0,i,1.0,True,753.0999999642372,46.0,62.0,40.0,False,,355.1536206784858,[],"[544, 307.5]",ColorTask,85.0,36.0,,,HRV,HRV_0181,2022-11-30 18:54:16
,wl-rdm,154,500839,0.0-8.36-0.36,1.0,154.0,,,,,,,[],,,,,,62.5,0.0,u,0.0,True,1163.5,70.0,62.0,40.0,False,,227.15452043162932,[],"[544, 307.5]",ColorTask,86.0,37.0,,,HRV,HRV_0181,2022-11-30 18:54:16
,wl-rdm,155,503239,0.0-8.37-0.37,1.0,155.0,,,,,,,[],,,,,,73.6,0.0,u,0.0,True,1115.0,67.0,62.0,40.0,False,,218.16008018197297,[],"[544, 307.5]",ColorTask,87.0,38.0,,,HRV,HRV_0181,2022-11-30 18:54:16
,wl-rdm,156,505954,0.0-8.38-0.38,1.0,156.0,,,,,,,[],,,,,,62.5,1.0,i,1.0,True,1403.9000000357628,85.0,62.0,40.0,False,,229.947165322238,[],"[544, 307.5]",ColorTask,88.0,39.0,,,HRV,HRV_0181,2022-11-30 18:54:16
,wl-rdm,157,508287,0.0-8.39-0.39,1.0,157.0,,,,,,,[],,,,,,73.6,1.0,i,1.0,True,873.4000000357628,53.0,62.0,40.0,False,,388.73203892898846,[],"[544, 307.5]",ColorTask,89.0,40.0,,,HRV,HRV_0181,2022-11-30 18:54:16
,wl-rdm,158,510687,0.0-8.40-0.40,1.0,158.0,,,,,,,[],,,,,,56.4,0.0,u,0.0,True,1073.7999999523163,65.0,62.0,40.0,False,,243.12901872768035,[],"[544, 307.5]",ColorTask,90.0,41.0,,,HRV,HRV_0181,2022-11-30 18:54:16
,wl-rdm,159,513220,0.0-8.41-0.41,1.0,159.0,,,,,,,[],,,,,,73.6,1.0,i,1.0,True,1119.199999988079,68.0,62.0,40.0,False,,328.7318881456506,[],"[544, 307.5]",ColorTask,91.0,42.0,,,HRV,HRV_0181,2022-11-30 18:54:16
,wl-rdm,160,515753,0.0-8.42-0.42,1.0,160.0,,,,,,,[],,,,,,56.4,0.0,u,0.0,True,1080.7000000476837,65.0,62.0,40.0,False,,383.1655358822951,[],"[544, 307.5]",ColorTask,92.0,43.0,,,HRV,HRV_0181,2022-11-30 18:54:16
,wl-rdm,161,518002,0.0-8.43-0.43,1.0,161.0,,,,,,,[],,,,,,87.9,0.0,u,0.0,True,937.8000000119209,57.0,62.0,40.0,False,,216.53835080979505,[],"[544, 307.5]",ColorTask,93.0,44.0,,,HRV,HRV_0181,2022-11-30 18:54:16
,wl-rdm,162,520135,0.0-8.44-0.44,1.0,162.0,,,,,,,[],,,,,,87.9,1.0,i,1.0,True,731.8000000119209,44.0,62.0,40.0,False,,317.7594842242125,[],"[544, 307.5]",ColorTask,94.0,45.0,,,HRV,HRV_0181,2022-11-30 18:54:16
,wl-rdm,163,522134,0.0-8.45-0.45,1.0,163.0,,,,,,,[],,,,,,87.9,1.0,i,1.0,True,681.8000000119209,41.0,62.0,40.0,False,,260.7558071038367,[],"[544, 307.5]",ColorTask,95.0,46.0,,,HRV,HRV_0181,2022-11-30 18:54:16
,wl-rdm,164,524251,0.0-8.46-0.46,1.0,164.0,,,,,,,[],,,,,,73.6,1.0,i,1.0,True,829.3000000119209,50.0,62.0,40.0,False,,205.55870259360236,[],"[544, 307.5]",ColorTask,96.0,47.0,,,HRV,HRV_0181,2022-11-30 18:54:16
,wl-rdm,165,528266,0.0-8.47-0.47,1.0,165.0,,,,,,,[],,,,,,56.4,1.0,u,0.0,False,2562.100000023842,154.0,62.0,40.0,False,,382.4713928822472,[],"[544, 307.5]",ColorTask,95.0,48.0,,,HRV,HRV_0181,2022-11-30 18:54:16
,wl-rdm,166,531016,0.0-8.48-0.48,1.0,166.0,,,,,,,[],,,,,,62.5,1.0,i,1.0,True,1396.8999999761581,84.0,62.0,40.0,False,,287.53651782653174,[],"[544, 307.5]",ColorTask,96.0,49.0,,,HRV,HRV_0181,2022-11-30 18:54:16
,wl-rdm,167,533148,0.0-8.49-0.49,1.0,167.0,,,,,,,[],,,,,,87.9,0.0,u,0.0,True,843.5,51.0,62.0,40.0,False,,203.79863304084546,[],"[544, 307.5]",ColorTask,97.0,50.0,,,HRV,HRV_0181,2022-11-30 18:54:16
,wl-rdm,168,535281,0.0-8.50-0.50,1.0,168.0,,,,,,,[],,,,,,73.6,0.0,u,0.0,True,839.3999999761581,51.0,62.0,40.0,False,,200.86084533623387,[],"[544, 307.5]",ColorTask,98.0,51.0,,,HRV,HRV_0181,2022-11-30 18:54:16
,wl-rdm,169,537363,0.0-8.51-0.51,1.0,169.0,,,,,,,[],,,,,,87.9,1.0,i,1.0,True,787.6999999880791,48.0,62.0,40.0,False,,208.34725330344605,[],"[544, 307.5]",ColorTask,99.0,52.0,,,HRV,HRV_0181,2022-11-30 18:54:16
,wl-rdm,170,539896,0.0-8.52-0.52,1.0,170.0,,,,,,,[],,,,,,53.2,0.0,u,0.0,True,1198.3999999165535,72.0,62.0,40.0,False,,268.0161925956068,[],"[544, 307.5]",ColorTask,100.0,53.0,,,HRV,HRV_0181,2022-11-30 18:54:16
,wl-rdm,171,542629,0.0-8.53-0.53,1.0,171.0,,,,,,,[],,,,,,53.2,1.0,u,0.0,False,1302.0000000596046,79.0,62.0,40.0,False,,342.9875944785466,[],"[544, 307.5]",ColorTask,99.0,54.0,,,HRV,HRV_0181,2022-11-30 18:54:16
,wl-rdm,172,545996,0.0-8.54-0.54,1.0,172.0,,,,,,,[],,,,,,56.4,1.0,i,1.0,True,1994.699999988079,120.0,62.0,40.0,False,,303.51808095306615,[],"[544, 307.5]",ColorTask,100.0,55.0,,,HRV,HRV_0181,2022-11-30 18:54:16
,wl-rdm,173,548678,0.0-8.55-0.55,1.0,173.0,,,,,,,[],,,,,,62.5,0.0,u,0.0,True,1267.800000011921,77.0,62.0,40.0,False,,325.7167514713449,[],"[544, 307.5]",ColorTask,101.0,56.0,,,HRV,HRV_0181,2022-11-30 18:54:16
,wl-rdm,174,550811,0.0-8.56-0.56,1.0,174.0,,,,,,,[],,,,,,87.9,0.0,u,0.0,True,796.8000000119209,48.0,62.0,40.0,False,,260.47884644364444,[],"[544, 307.5]",ColorTask,102.0,57.0,,,HRV,HRV_0181,2022-11-30 18:54:16
,wl-rdm,175,552893,0.0-8.57-0.57,1.0,175.0,,,,,,,[],,,,,,56.4,0.0,u,0.0,True,794.0000000596046,48.0,62.0,40.0,False,,207.96979425915404,[],"[544, 307.5]",ColorTask,103.0,58.0,,,HRV,HRV_0181,2022-11-30 18:54:16
,wl-rdm,176,555059,0.0-8.58-0.58,1.0,176.0,,,,,,,[],,,,,,87.9,0.0,u,0.0,True,786.8999999761581,48.0,62.0,40.0,False,,307.8091948024336,[],"[544, 307.5]",ColorTask,104.0,59.0,,,HRV,HRV_0181,2022-11-30 18:54:16
,wl-rdm,177,557542,0.0-8.59-0.59,1.0,177.0,,,,,,,[],,,,,,56.4,0.0,u,0.0,True,1048.6000000238419,63.0,62.0,40.0,False,,373.88859166417046,[],"[544, 307.5]",ColorTask,105.0,60.0,,,HRV,HRV_0181,2022-11-30 18:54:16
,wl-rdm,178,559924,0.0-8.60-0.60,1.0,178.0,,,,,,,[],,,,,,56.4,0.0,u,0.0,True,1086.1000000238419,66.0,62.0,40.0,False,,231.298827054093,[],"[544, 307.5]",ColorTask,106.0,61.0,,,HRV,HRV_0181,2022-11-30 18:54:16
,wl-rdm,179,562357,0.0-8.61-0.61,1.0,179.0,,,,,,,[],,,,,,53.2,0.0,u,0.0,True,1069.6000000238419,65.0,62.0,40.0,False,,273.9677317006168,[],"[544, 307.5]",ColorTask,107.0,62.0,,,HRV,HRV_0181,2022-11-30 18:54:16
,wl-rdm,180,565339,0.0-8.62-0.62,1.0,180.0,,,,,,,[],,,,,,50.0,1.0,i,1.0,True,1527.3999999761581,92.0,62.0,40.0,False,,378.32392734383325,[],"[544, 307.5]",ColorTask,108.0,63.0,,,HRV,HRV_0181,2022-11-30 18:54:16
,wl-rdm,181,567756,0.0-8.63-0.63,1.0,181.0,,,,,,,[],,,,,,73.6,0.0,u,0.0,True,1010.9999999403954,61.0,62.0,40.0,False,,322.5003612631734,[],"[544, 307.5]",ColorTask,109.0,64.0,,,HRV,HRV_0181,2022-11-30 18:54:16
,wl-rdm,182,570271,0.0-8.64-0.64,1.0,182.0,,,,,,,[],,,,,,50.0,1.0,u,0.0,False,1073.4999999403954,65.0,62.0,40.0,False,,360.2789818278835,[],"[544, 307.5]",ColorTask,108.0,65.0,,,HRV,HRV_0181,2022-11-30 18:54:16
,wl-rdm,183,572855,0.0-8.65-0.65,1.0,183.0,,,,,,,[],,,,,,53.2,1.0,i,1.0,True,1149.4000000357628,69.0,62.0,40.0,False,,373.6259164798835,[],"[544, 307.5]",ColorTask,109.0,66.0,,,HRV,HRV_0181,2022-11-30 18:54:16
,wl-rdm,184,576054,0.0-8.66-0.66,1.0,184.0,,,,,,,[],,,,,,53.2,0.0,u,0.0,True,1768.3000000715256,107.0,62.0,40.0,False,,344.89389520868065,[],"[544, 307.5]",ColorTask,110.0,67.0,,,HRV,HRV_0181,2022-11-30 18:54:16
,wl-rdm,185,578153,0.0-8.67-0.67,1.0,185.0,,,,,,,[],,,,,,62.5,0.0,u,0.0,True,780.6000000238419,47.0,62.0,40.0,False,,244.1245620204132,[],"[544, 307.5]",ColorTask,111.0,68.0,,,HRV,HRV_0181,2022-11-30 18:54:16
,wl-rdm,186,580385,0.0-8.68-0.68,1.0,186.0,,,,,,,[],,,,,,73.6,1.0,i,1.0,True,921.5,56.0,62.0,40.0,False,,226.4446047518299,[],"[544, 307.5]",ColorTask,112.0,69.0,,,HRV,HRV_0181,2022-11-30 18:54:16
,wl-rdm,187,582903,0.0-8.69-0.69,1.0,187.0,,,,,,,[],,,,,,53.2,1.0,u,0.0,False,1135.800000011921,69.0,62.0,40.0,False,,300.192461048001,[],"[544, 307.5]",ColorTask,111.0,70.0,,,HRV,HRV_0181,2022-11-30 18:54:16
,wl-rdm,188,585218,0.0-8.70-0.70,1.0,188.0,,,,,,,[],,,,,,73.6,1.0,u,0.0,False,922.0,56.0,62.0,40.0,False,,315.1365199128215,[],"[544, 307.5]",ColorTask,110.0,71.0,,,HRV,HRV_0181,2022-11-30 18:54:16
,wl-rdm,189,588600,0.0-8.71-0.71,1.0,189.0,,,,,,,[],,,,,,50.0,0.0,i,1.0,False,1964.1000000238419,118.0,62.0,40.0,False,,335.7875581630195,[],"[544, 307.5]",ColorTask,109.0,72.0,,,HRV,HRV_0181,2022-11-30 18:54:16
,wl-rdm,190,590884,0.0-8.72-0.72,1.0,190.0,,,,,,,[],,,,,,50.0,0.0,i,1.0,False,986.2000000476837,60.0,62.0,40.0,False,,221.43881516828986,[],"[544, 307.5]",ColorTask,108.0,73.0,,,HRV,HRV_0181,2022-11-30 18:54:16
,wl-rdm,191,594299,0.0-8.73-0.73,1.0,191.0,,,,,,,[],,,,,,73.6,0.0,u,0.0,True,2045.3999999761581,123.0,62.0,40.0,False,,295.23922135309743,[],"[544, 307.5]",ColorTask,109.0,74.0,,,HRV,HRV_0181,2022-11-30 18:54:16
,wl-rdm,192,596715,0.0-8.74-0.74,1.0,192.0,,,,,,,[],,,,,,53.2,1.0,u,0.0,False,1045.1999999284744,63.0,62.0,40.0,False,,283.827008958318,[],"[544, 307.5]",ColorTask,108.0,75.0,,,HRV,HRV_0181,2022-11-30 18:54:16
,wl-rdm,193,599731,0.0-8.75-0.75,1.0,193.0,,,,,,,[],,,,,,50.0,1.0,i,1.0,True,1553.800000011921,94.0,62.0,40.0,False,,391.7784171540674,[],"[544, 307.5]",ColorTask,109.0,76.0,,,HRV,HRV_0181,2022-11-30 18:54:16
,wl-rdm,194,603063,0.0-8.76-0.76,1.0,194.0,,,,,,,[],,,,,,50.0,0.0,i,1.0,False,1898.5,114.0,62.0,40.0,False,,349.87358508935796,[],"[544, 307.5]",ColorTask,108.0,77.0,,,HRV,HRV_0181,2022-11-30 18:54:16
,wl-rdm,195,605529,0.0-8.77-0.77,1.0,195.0,,,,,,,[],,,,,,62.5,0.0,u,0.0,True,1047.4999999403954,63.0,62.0,40.0,False,,337.6386837460388,[],"[544, 307.5]",ColorTask,109.0,78.0,,,HRV,HRV_0181,2022-11-30 18:54:16
,wl-rdm,196,607996,0.0-8.78-0.78,1.0,196.0,,,,,,,[],,,,,,50.0,0.0,u,0.0,True,1177.199999988079,71.0,62.0,40.0,False,,215.81520508450646,[],"[544, 307.5]",ColorTask,110.0,79.0,,,HRV,HRV_0181,2022-11-30 18:54:16
,wl-rdm,197,611462,0.0-8.79-0.79,1.0,197.0,,,,,,,[],,,,,,50.0,1.0,u,0.0,False,2151.699999988079,130.0,62.0,40.0,False,,219.13663474087963,[],"[544, 307.5]",ColorTask,109.0,80.0,,,HRV,HRV_0181,2022-11-30 18:54:16
,wl-rdm,198,613745,0.0-8.80-0.80,1.0,198.0,,,,,,,[],,,,,,73.6,1.0,i,1.0,True,806.6000000238419,49.0,62.0,40.0,False,,392.91728113937245,[],"[544, 307.5]",ColorTask,110.0,81.0,,,HRV,HRV_0181,2022-11-30 18:54:16
,wl-rdm,199,615976,0.0-8.81-0.81,1.0,199.0,,,,,,,[],,,,,,87.9,0.0,u,0.0,True,813.1000000238419,49.0,62.0,40.0,False,,350.27845046770585,[],"[544, 307.5]",ColorTask,111.0,82.0,,,HRV,HRV_0181,2022-11-30 18:54:16
,wl-rdm,200,618442,0.0-8.82-0.82,1.0,200.0,,,,,,,[],,,,,,62.5,1.0,i,1.0,True,1161.0,70.0,62.0,40.0,False,,236.32597191703624,[],"[544, 307.5]",ColorTask,112.0,83.0,,,HRV,HRV_0181,2022-11-30 18:54:16
,wl-rdm,201,620708,0.0-8.83-0.83,1.0,201.0,,,,,,,[],,,,,,62.5,0.0,u,0.0,True,970.5,59.0,62.0,40.0,False,,212.23954887048842,[],"[544, 307.5]",ColorTask,113.0,84.0,,,HRV,HRV_0181,2022-11-30 18:54:16
,wl-rdm,202,623091,0.0-8.84-0.84,1.0,202.0,,,,,,,[],,,,,,73.6,1.0,i,1.0,True,986.1999999880791,60.0,62.0,40.0,False,,311.0284895496708,[],"[544, 307.5]",ColorTask,114.0,85.0,,,HRV,HRV_0181,2022-11-30 18:54:16
,wl-rdm,203,625390,0.0-8.85-0.85,1.0,203.0,,,,,,,[],,,,,,53.2,0.0,u,0.0,True,1007.3000000119209,61.0,62.0,40.0,False,,221.09180876746078,[],"[544, 307.5]",ColorTask,115.0,86.0,,,HRV,HRV_0181,2022-11-30 18:54:16
,wl-rdm,204,627924,0.0-8.86-0.86,1.0,204.0,,,,,,,[],,,,,,56.4,0.0,u,0.0,True,1137.199999988079,69.0,62.0,40.0,False,,300.03875904559914,[],"[544, 307.5]",ColorTask,116.0,87.0,,,HRV,HRV_0181,2022-11-30 18:54:16
,wl-rdm,205,630989,0.0-8.87-0.87,1.0,205.0,,,,,,,[],,,,,,53.2,1.0,u,0.0,False,1725.199999988079,104.0,62.0,40.0,False,,258.3043716400344,[],"[544, 307.5]",ColorTask,115.0,88.0,,,HRV,HRV_0181,2022-11-30 18:54:16
,wl-rdm,206,633222,0.0-8.88-0.88,1.0,206.0,,,,,,,[],,,,,,87.9,0.0,u,0.0,True,849.6000000238419,51.0,62.0,40.0,False,,315.6420023609592,[],"[544, 307.5]",ColorTask,116.0,89.0,,,HRV,HRV_0181,2022-11-30 18:54:16
,wl-rdm,207,636204,0.0-8.89-0.89,1.0,207.0,,,,,,,[],,,,,,50.0,0.0,u,0.0,True,1542.7999999523163,93.0,62.0,40.0,False,,362.356807811282,[],"[544, 307.5]",ColorTask,117.0,90.0,,,HRV,HRV_0181,2022-11-30 18:54:16
,wl-rdm,208,639038,0.0-8.90-0.90,1.0,208.0,,,,,,,[],,,,,,53.2,1.0,u,0.0,False,1492.5,90.0,62.0,40.0,False,,254.08397865498205,[],"[544, 307.5]",ColorTask,116.0,91.0,,,HRV,HRV_0181,2022-11-30 18:54:16
,wl-rdm,209,641254,0.0-8.91-0.91,1.0,209.0,,,,,,,[],,,,,,73.6,0.0,u,0.0,True,901.3000000119209,55.0,62.0,40.0,False,,222.35429766896866,[],"[544, 307.5]",ColorTask,117.0,92.0,,,HRV,HRV_0181,2022-11-30 18:54:16
,wl-rdm,210,643353,0.0-8.92-0.92,1.0,210.0,,,,,,,[],,,,,,87.9,1.0,i,1.0,True,813.3000000119209,49.0,62.0,40.0,False,,209.46714425487573,[],"[544, 307.5]",ColorTask,118.0,93.0,,,HRV,HRV_0181,2022-11-30 18:54:16
,wl-rdm,211,645435,0.0-8.93-0.93,1.0,211.0,,,,,,,[],,,,,,73.6,1.0,i,1.0,True,809.6999999880791,49.0,62.0,40.0,False,,211.67552460251673,[],"[544, 307.5]",ColorTask,119.0,94.0,,,HRV,HRV_0181,2022-11-30 18:54:16
,wl-rdm,212,647951,0.0-8.94-0.94,1.0,212.0,,,,,,,[],,,,,,53.2,0.0,u,0.0,True,1089.8999999761581,66.0,62.0,40.0,False,,360.22999804527603,[],"[544, 307.5]",ColorTask,120.0,95.0,,,HRV,HRV_0181,2022-11-30 18:54:16
,wl-rdm,213,650167,0.0-8.95-0.95,1.0,213.0,,,,,,,[],,,,,,62.5,0.0,u,0.0,True,830.5,50.0,62.0,40.0,False,,329.7123758464694,[],"[544, 307.5]",ColorTask,121.0,96.0,,,HRV,HRV_0181,2022-11-30 18:54:16
,wl-rdm,214,652733,0.0-8.96-0.96,1.0,214.0,,,,,,,[],,,,,,56.4,1.0,i,1.0,True,1175.3999999761581,71.0,62.0,40.0,False,,306.5799803970775,[],"[544, 307.5]",ColorTask,122.0,97.0,,,HRV,HRV_0181,2022-11-30 18:54:16
,wl-rdm,215,655716,0.0-8.97-0.97,1.0,215.0,,,,,,,[],,,,,,53.2,0.0,u,0.0,True,1686.199999988079,102.0,62.0,40.0,False,,214.41771892393183,[],"[544, 307.5]",ColorTask,123.0,98.0,,,HRV,HRV_0181,2022-11-30 18:54:16
,wl-rdm,216,658032,0.0-8.98-0.98,1.0,216.0,,,,,,,[],,,,,,87.9,1.0,i,1.0,True,889.3000000119209,54.0,62.0,40.0,False,,360.4509623533387,[],"[544, 307.5]",ColorTask,124.0,99.0,,,HRV,HRV_0181,2022-11-30 18:54:16
,wl-rdm,217,660664,0.0-8.99-0.99,1.0,217.0,,,,,,,[],,,,,,56.4,1.0,i,1.0,True,1247.0,75.0,62.0,40.0,False,,302.42330755441714,[],"[544, 307.5]",ColorTask,125.0,100.0,,,HRV,HRV_0181,2022-11-30 18:54:16
,wl-rdm,218,663097,0.0-8.100-0.100,1.0,218.0,,,,,,,[],,,,,,56.4,1.0,i,1.0,True,1044.699999988079,63.0,62.0,40.0,False,,329.7586311485003,[],"[544, 307.5]",ColorTask,126.0,101.0,,,HRV,HRV_0181,2022-11-30 18:54:16
,wl-rdm,219,665829,0.0-8.101-0.101,1.0,219.0,,,,,,,[],,,,,,50.0,0.0,i,1.0,False,1415.300000011921,85.0,62.0,40.0,False,,252.59372718761102,[],"[544, 307.5]",ColorTask,125.0,102.0,,,HRV,HRV_0181,2022-11-30 18:54:16
,wl-rdm,220,668313,0.0-8.102-0.102,1.0,220.0,,,,,,,[],,,,,,62.5,0.0,u,0.0,True,1162.8000000715256,70.0,62.0,40.0,False,,239.3123479880514,[],"[544, 307.5]",ColorTask,126.0,103.0,,,HRV,HRV_0181,2022-11-30 18:54:16
,wl-rdm,221,671095,0.0-8.103-0.103,1.0,221.0,,,,,,,[],,,,,,50.0,1.0,i,1.0,True,1497.0,90.0,62.0,40.0,False,,225.83231971929695,[],"[544, 307.5]",ColorTask,127.0,104.0,,,HRV,HRV_0181,2022-11-30 18:54:16
,wl-rdm,222,673344,0.0-8.104-0.104,1.0,222.0,,,,,,,[],,,,,,87.9,1.0,i,1.0,True,905.3999999165535,55.0,62.0,40.0,False,,263.1345396173664,[],"[544, 307.5]",ColorTask,128.0,105.0,,,HRV,HRV_0181,2022-11-30 18:54:16
,wl-rdm,223,676661,0.0-8.105-0.105,1.0,223.0,,,,,,,[],,,,,,50.0,0.0,u,0.0,True,1885.3999999165535,114.0,62.0,40.0,False,,335.70777960568887,[],"[544, 307.5]",ColorTask,129.0,106.0,,,HRV,HRV_0181,2022-11-30 18:54:16
,wl-rdm,224,678926,0.0-8.106-0.106,1.0,224.0,,,,,,,[],,,,,,62.5,1.0,i,1.0,True,857.6999999880791,52.0,62.0,40.0,False,,321.31395543127314,[],"[544, 307.5]",ColorTask,130.0,107.0,,,HRV,HRV_0181,2022-11-30 18:54:16
,wl-rdm,225,681426,0.0-8.107-0.107,1.0,225.0,,,,,,,[],,,,,,62.5,1.0,i,1.0,True,1119.800000011921,68.0,62.0,40.0,False,,308.27328414264366,[],"[544, 307.5]",ColorTask,131.0,108.0,,,HRV,HRV_0181,2022-11-30 18:54:16
,wl-html-button-response,226,684726,0.0-9.0-0.0,,,,,,,,,,3294.600000023842,,0,,,,,,,,,,,,,,,,,,,,<h3>End of this session. Thank you!</h3><br>,['Close window'],HRV,HRV_0181,2022-11-30 18:54:16
