trialN,stimuli,trialStartTime,trialStartTime_UNIX,stimulus1,stimulus2,stimulus1Bid,stimulus2Bid,delta,selected,rt,rt_UNIX,rt_perfnow,receivedResponse,rsp,trialEndTime,trialDuration,trialEndTime_UNIX,trialDuration_UNIX,exp,subjectId,date
0,"[{'imgObject': {}, 'id': 'turkeysandwich', 'src': '/static/foodstim60/turkeysandwich.jpg', 'key': 'u', 'origWidth': 409, 'origHeight': 409, 'width': 409, 'height': 409, 'widthPercent': 0.45, 'rescaleHeight': False, 'trialN': 0, 'loaded': True, 'loadedTime': 4052.699999988079, 'positionName': 'LEFT', 'positionCoords': [113.24, 103], 'bid': 2.48}, {'imgObject': {}, 'id': 'shreddedwheatwithmilk', 'src': '/static/foodstim60/shreddedwheatwithmilk.jpg', 'key': 'i', 'origWidth': 410, 'origHeight': 410, 'width': 410, 'height': 410, 'widthPercent': 0.45, 'rescaleHeight': False, 'trialN': 0, 'loaded': True, 'loadedTime': 3998.300000011921, 'positionName': 'RIGHT', 'positionCoords': [565.76, 102.5], 'bid': 4.96}]",4701.899999976158,1669833394390,turkeysandwich,shreddedwheatwithmilk,2.48,4.96,2.48,shreddedwheatwithmilk,3013.5,3014,3014.0,True,i,8229.399999976158,3527.5,1669833397918,3528,HRV,HRV_0181,2022-11-30 18:42:46
1,"[{'imgObject': {}, 'id': 'cherry tomato', 'src': '/static/foodstim60/cherry tomato.jpg', 'key': 'u', 'origWidth': 410, 'origHeight': 410, 'width': 410, 'height': 410, 'widthPercent': 0.45, 'rescaleHeight': False, 'trialN': 1, 'loaded': True, 'loadedTime': 3999.300000011921, 'positionName': 'LEFT', 'positionCoords': [112.24, 102.5], 'bid': 9.22}, {'imgObject': {}, 'id': 'cherries', 'src': '/static/foodstim60/cherries.jpg', 'key': 'i', 'origWidth': 410, 'origHeight': 411, 'width': 410, 'height': 411, 'widthPercent': 0.45, 'rescaleHeight': False, 'trialN': 1, 'loaded': True, 'loadedTime': 4010.899999976158, 'positionName': 'RIGHT', 'positionCoords': [565.76, 102], 'bid': 9.9}]",8229.800000011921,1669833397918,cherry tomato,cherries,9.22,9.9,0.6799999999999997,cherries,813.7999999523163,814,814.2999999523163,True,i,9554.5,1324.699999988079,1669833399243,1325,HRV,HRV_0181,2022-11-30 18:42:46
2,"[{'imgObject': {}, 'id': 'ice cream sundae 002', 'src': '/static/foodstim60/ice cream sundae 002.jpg', 'key': 'u', 'origWidth': 409, 'origHeight': 409, 'width': 409, 'height': 409, 'widthPercent': 0.45, 'rescaleHeight': False, 'trialN': 2, 'loaded': True, 'loadedTime': 4204.699999988079, 'positionName': 'LEFT', 'positionCoords': [113.24, 103], 'bid': 9.13}, {'imgObject': {}, 'id': 'bagel plain', 'src': '/static/foodstim60/bagel plain.jpg', 'key': 'i', 'origWidth': 410, 'origHeight': 410, 'width': 410, 'height': 410, 'widthPercent': 0.45, 'rescaleHeight': False, 'trialN': 2, 'loaded': True, 'loadedTime': 3972.899999976158, 'positionName': 'RIGHT', 'positionCoords': [565.76, 102.5], 'bid': 0.97}]",9554.800000011921,1669833399243,ice cream sundae 002,bagel plain,9.13,0.97,-8.16,ice cream sundae 002,961.1999999880791,962,961.6999999880791,True,u,11035.0,1480.199999988079,1669833400723,1480,HRV,HRV_0181,2022-11-30 18:42:46
3,"[{'imgObject': {}, 'id': 'baked potato', 'src': '/static/foodstim60/baked potato.jpg', 'key': 'u', 'origWidth': 409, 'origHeight': 410, 'width': 409, 'height': 410, 'widthPercent': 0.45, 'rescaleHeight': False, 'trialN': 3, 'loaded': True, 'loadedTime': 4165.300000011921, 'positionName': 'LEFT', 'positionCoords': [113.24, 102.5], 'bid': 8.56}, {'imgObject': {}, 'id': 'sweetpotato', 'src': '/static/foodstim60/sweetpotato.jpg', 'key': 'i', 'origWidth': 410, 'origHeight': 410, 'width': 410, 'height': 410, 'widthPercent': 0.45, 'rescaleHeight': False, 'trialN': 3, 'loaded': True, 'loadedTime': 4035.5, 'positionName': 'RIGHT', 'positionCoords': [565.76, 102.5], 'bid': 6.32}]",11035.199999988079,1669833400723,baked potato,sweetpotato,8.56,6.32,-2.24,baked potato,1032.3999999761581,1033,1032.800000011921,True,u,12576.399999976158,1541.199999988079,1669833402265,1542,HRV,HRV_0181,2022-11-30 18:42:46
4,"[{'imgObject': {}, 'id': 'hashbrowns', 'src': '/static/foodstim60/hashbrowns.jpg', 'key': 'u', 'origWidth': 411, 'origHeight': 410, 'width': 411, 'height': 410, 'widthPercent': 0.45, 'rescaleHeight': False, 'trialN': 4, 'loaded': True, 'loadedTime': 4014.899999976158, 'positionName': 'LEFT', 'positionCoords': [111.24, 102.5], 'bid': 0.22}, {'imgObject': {}, 'id': 'eggsalad', 'src': '/static/foodstim60/eggsalad.jpg', 'key': 'i', 'origWidth': 410, 'origHeight': 409, 'width': 410, 'height': 409, 'widthPercent': 0.45, 'rescaleHeight': False, 'trialN': 4, 'loaded': True, 'loadedTime': 4055.800000011921, 'positionName': 'RIGHT', 'positionCoords': [565.76, 103], 'bid': 7.42}]",12576.599999964237,1669833402265,hashbrowns,eggsalad,0.22,7.42,7.2,eggsalad,1235.0,1235,1235.300000011921,True,i,14327.399999976158,1750.800000011921,1669833404016,1751,HRV,HRV_0181,2022-11-30 18:42:46
5,"[{'imgObject': {}, 'id': 'pear', 'src': '/static/foodstim60/pear.jpg', 'key': 'u', 'origWidth': 411, 'origHeight': 410, 'width': 411, 'height': 410, 'widthPercent': 0.45, 'rescaleHeight': False, 'trialN': 5, 'loaded': True, 'loadedTime': 4027.5, 'positionName': 'LEFT', 'positionCoords': [111.24, 102.5], 'bid': 7.86}, {'imgObject': {}, 'id': 'cocktailshrimp', 'src': '/static/foodstim60/cocktailshrimp.jpg', 'key': 'i', 'origWidth': 410, 'origHeight': 410, 'width': 410, 'height': 410, 'widthPercent': 0.45, 'rescaleHeight': False, 'trialN': 5, 'loaded': True, 'loadedTime': 4072.399999976158, 'positionName': 'RIGHT', 'positionCoords': [565.76, 102.5], 'bid': 9.85}]",14327.699999988079,1669833404016,pear,cocktailshrimp,7.86,9.85,1.9899999999999993,cocktailshrimp,1435.800000011921,1438,1436.1000000238419,True,i,16270.699999988079,1943.0,1669833405961,1945,HRV,HRV_0181,2022-11-30 18:42:46
6,"[{'imgObject': {}, 'id': 'chicken nuggets2', 'src': '/static/foodstim60/chicken nuggets2.jpg', 'key': 'u', 'origWidth': 410, 'origHeight': 409, 'width': 410, 'height': 409, 'widthPercent': 0.45, 'rescaleHeight': False, 'trialN': 6, 'loaded': True, 'loadedTime': 4070.599999964237, 'positionName': 'LEFT', 'positionCoords': [112.24, 103], 'bid': 1.39}, {'imgObject': {}, 'id': 'sushi w_condiments', 'src': '/static/foodstim60/sushi w_condiments.jpg', 'key': 'i', 'origWidth': 410, 'origHeight': 410, 'width': 410, 'height': 410, 'widthPercent': 0.45, 'rescaleHeight': False, 'trialN': 6, 'loaded': True, 'loadedTime': 4091.800000011921, 'positionName': 'RIGHT', 'positionCoords': [565.76, 102.5], 'bid': 0.14}]",16271.099999964237,1669833405961,chicken nuggets2,sushi w_condiments,1.39,0.14,-1.25,chicken nuggets2,1428.4000000357628,1429,1428.9000000357628,True,u,18222.30000001192,1951.2000000476837,1669833407912,1951,HRV,HRV_0181,2022-11-30 18:42:46
7,"[{'imgObject': {}, 'id': 'raspberries', 'src': '/static/foodstim60/raspberries.jpg', 'key': 'u', 'origWidth': 411, 'origHeight': 411, 'width': 411, 'height': 411, 'widthPercent': 0.45, 'rescaleHeight': False, 'trialN': 7, 'loaded': True, 'loadedTime': 4229.899999976158, 'positionName': 'LEFT', 'positionCoords': [111.24, 102], 'bid': 9.9}, {'imgObject': {}, 'id': 'orange slices', 'src': '/static/foodstim60/orange slices.jpg', 'key': 'i', 'origWidth': 409, 'origHeight': 410, 'width': 409, 'height': 410, 'widthPercent': 0.45, 'rescaleHeight': False, 'trialN': 7, 'loaded': True, 'loadedTime': 4088.300000011921, 'positionName': 'RIGHT', 'positionCoords': [565.76, 102.5], 'bid': 9.02}]",18222.80000001192,1669833407913,raspberries,orange slices,9.9,9.02,-0.8800000000000008,raspberries,1332.699999988079,1333,1333.2999999523163,True,u,20056.899999976158,1834.0999999642372,1669833409747,1834,HRV,HRV_0181,2022-11-30 18:42:46
8,"[{'imgObject': {}, 'id': 'veggieswithdip', 'src': '/static/foodstim60/veggieswithdip.jpg', 'key': 'u', 'origWidth': 409, 'origHeight': 409, 'width': 409, 'height': 409, 'widthPercent': 0.45, 'rescaleHeight': False, 'trialN': 8, 'loaded': True, 'loadedTime': 4121.5, 'positionName': 'LEFT', 'positionCoords': [113.24, 103], 'bid': 0.14}, {'imgObject': {}, 'id': 'salmon', 'src': '/static/foodstim60/salmon.jpg', 'key': 'i', 'origWidth': 410, 'origHeight': 409, 'width': 410, 'height': 409, 'widthPercent': 0.45, 'rescaleHeight': False, 'trialN': 8, 'loaded': True, 'loadedTime': 4106.5, 'positionName': 'RIGHT', 'positionCoords': [565.76, 103], 'bid': 0.14}]",20057.19999998808,1669833409747,veggieswithdip,salmon,0.14,0.14,0.0,veggieswithdip,2122.600000023842,2123,2123.100000023842,True,u,22700.19999998808,2643.0,1669833412390,2643,HRV,HRV_0181,2022-11-30 18:42:46
9,"[{'imgObject': {}, 'id': 'burger', 'src': '/static/foodstim60/burger.jpg', 'key': 'u', 'origWidth': 409, 'origHeight': 409, 'width': 409, 'height': 409, 'widthPercent': 0.45, 'rescaleHeight': False, 'trialN': 9, 'loaded': True, 'loadedTime': 4144.300000011921, 'positionName': 'LEFT', 'positionCoords': [113.24, 103], 'bid': 8.47}, {'imgObject': {}, 'id': 'luckycharms', 'src': '/static/foodstim60/luckycharms.jpg', 'key': 'i', 'origWidth': 410, 'origHeight': 409, 'width': 410, 'height': 409, 'widthPercent': 0.45, 'rescaleHeight': False, 'trialN': 9, 'loaded': True, 'loadedTime': 4210.099999964237, 'positionName': 'RIGHT', 'positionCoords': [565.76, 103], 'bid': 5.14}]",22700.5,1669833412391,burger,luckycharms,8.47,5.14,-3.330000000000001,burger,1367.0,1367,1367.3999999761581,True,u,24588.30000001192,1887.800000011921,1669833414278,1887,HRV,HRV_0181,2022-11-30 18:42:46
10,"[{'imgObject': {}, 'id': 'Tribe humus pita', 'src': '/static/foodstim60/Tribe humus pita.jpg', 'key': 'u', 'origWidth': 411, 'origHeight': 411, 'width': 411, 'height': 411, 'widthPercent': 0.45, 'rescaleHeight': False, 'trialN': 10, 'loaded': True, 'loadedTime': 4138.899999976158, 'positionName': 'LEFT', 'positionCoords': [111.24, 102], 'bid': 0.12}, {'imgObject': {}, 'id': 'bagel plain', 'src': '/static/foodstim60/bagel plain.jpg', 'key': 'i', 'origWidth': 410, 'origHeight': 410, 'width': 410, 'height': 410, 'widthPercent': 0.45, 'rescaleHeight': False, 'trialN': 10, 'loaded': True, 'loadedTime': 3973.599999964237, 'positionName': 'RIGHT', 'positionCoords': [565.76, 102.5], 'bid': 0.97}]",24588.69999998808,1669833414279,Tribe humus pita,bagel plain,0.12,0.97,0.85,bagel plain,1335.1000000238419,1335,1335.5,True,i,26439.69999998808,1851.0,1669833416130,1851,HRV,HRV_0181,2022-11-30 18:42:46
11,"[{'imgObject': {}, 'id': 'bagel plain', 'src': '/static/foodstim60/bagel plain.jpg', 'key': 'u', 'origWidth': 410, 'origHeight': 410, 'width': 410, 'height': 410, 'widthPercent': 0.45, 'rescaleHeight': False, 'trialN': 11, 'loaded': True, 'loadedTime': 3973.099999964237, 'positionName': 'LEFT', 'positionCoords': [112.24, 102.5], 'bid': 0.97}, {'imgObject': {}, 'id': 'hotdog w must', 'src': '/static/foodstim60/hotdog w must.jpg', 'key': 'i', 'origWidth': 409, 'origHeight': 409, 'width': 409, 'height': 409, 'widthPercent': 0.45, 'rescaleHeight': False, 'trialN': 11, 'loaded': True, 'loadedTime': 4185.699999988079, 'positionName': 'RIGHT', 'positionCoords': [565.76, 103], 'bid': 0.91}]",26440.0,1669833416130,bagel plain,hotdog w must,0.97,0.91,-0.05999999999999994,hotdog w must,1771.5,1772,1772.0,True,i,28728.80000001192,2288.800000011921,1669833418419,2289,HRV,HRV_0181,2022-11-30 18:42:46
12,"[{'imgObject': {}, 'id': 'tacos', 'src': '/static/foodstim60/tacos.jpg', 'key': 'u', 'origWidth': 411, 'origHeight': 411, 'width': 411, 'height': 411, 'widthPercent': 0.45, 'rescaleHeight': False, 'trialN': 12, 'loaded': True, 'loadedTime': 4236.699999988079, 'positionName': 'LEFT', 'positionCoords': [111.24, 102], 'bid': 0.29}, {'imgObject': {}, 'id': 'Tribe humus pita', 'src': '/static/foodstim60/Tribe humus pita.jpg', 'key': 'i', 'origWidth': 411, 'origHeight': 411, 'width': 411, 'height': 411, 'widthPercent': 0.45, 'rescaleHeight': False, 'trialN': 12, 'loaded': True, 'loadedTime': 4131.099999964237, 'positionName': 'RIGHT', 'positionCoords': [565.76, 102], 'bid': 0.12}]",28729.19999998808,1669833418419,tacos,Tribe humus pita,0.29,0.12,-0.16999999999999998,tacos,1738.300000011921,1739,1738.699999988079,True,u,30981.19999998808,2252.0,1669833420671,2252,HRV,HRV_0181,2022-11-30 18:42:46
13,"[{'imgObject': {}, 'id': 'bagel and cc', 'src': '/static/foodstim60/bagel and cc.jpg', 'key': 'u', 'origWidth': 410, 'origHeight': 410, 'width': 410, 'height': 410, 'widthPercent': 0.45, 'rescaleHeight': False, 'trialN': 13, 'loaded': True, 'loadedTime': 4181.300000011921, 'positionName': 'LEFT', 'positionCoords': [112.24, 102.5], 'bid': 0.51}, {'imgObject': {}, 'id': 'eggs', 'src': '/static/foodstim60/eggs.jpg', 'key': 'i', 'origWidth': 409, 'origHeight': 409, 'width': 409, 'height': 409, 'widthPercent': 0.45, 'rescaleHeight': False, 'trialN': 13, 'loaded': True, 'loadedTime': 4244.699999988079, 'positionName': 'RIGHT', 'positionCoords': [565.76, 103], 'bid': 4.94}]",30981.5,1669833420672,bagel and cc,eggs,0.51,4.94,4.430000000000001,eggs,1598.300000011921,1598,1598.800000011921,True,i,33108.30000001192,2126.800000011921,1669833422798,2126,HRV,HRV_0181,2022-11-30 18:42:46
14,"[{'imgObject': {}, 'id': 'lox', 'src': '/static/foodstim60/lox.jpg', 'key': 'u', 'origWidth': 410, 'origHeight': 411, 'width': 410, 'height': 411, 'widthPercent': 0.45, 'rescaleHeight': False, 'trialN': 14, 'loaded': True, 'loadedTime': 4312.699999988079, 'positionName': 'LEFT', 'positionCoords': [112.24, 102], 'bid': 0.14}, {'imgObject': {}, 'id': 'apple slices', 'src': '/static/foodstim60/apple slices.jpg', 'key': 'i', 'origWidth': 409, 'origHeight': 410, 'width': 409, 'height': 410, 'widthPercent': 0.45, 'rescaleHeight': False, 'trialN': 14, 'loaded': True, 'loadedTime': 4452.199999988079, 'positionName': 'RIGHT', 'positionCoords': [565.76, 102.5], 'bid': 3.67}]",33108.5,1669833422799,lox,apple slices,0.14,3.67,3.53,apple slices,1023.0,1023,1023.5,True,i,34643.09999996424,1534.5999999642372,1669833424333,1534,HRV,HRV_0181,2022-11-30 18:42:46
15,"[{'imgObject': {}, 'id': 'luckycharms', 'src': '/static/foodstim60/luckycharms.jpg', 'key': 'u', 'origWidth': 410, 'origHeight': 409, 'width': 410, 'height': 409, 'widthPercent': 0.45, 'rescaleHeight': False, 'trialN': 15, 'loaded': True, 'loadedTime': 4210.199999988079, 'positionName': 'LEFT', 'positionCoords': [112.24, 103], 'bid': 5.14}, {'imgObject': {}, 'id': 'steak', 'src': '/static/foodstim60/steak.jpg', 'key': 'i', 'origWidth': 410, 'origHeight': 410, 'width': 410, 'height': 410, 'widthPercent': 0.45, 'rescaleHeight': False, 'trialN': 15, 'loaded': True, 'loadedTime': 4211.399999976158, 'positionName': 'RIGHT', 'positionCoords': [565.76, 102.5], 'bid': 5.07}]",34643.30000001192,1669833424333,luckycharms,steak,5.14,5.07,-0.0699999999999994,steak,1280.0999999642372,1281,1280.5999999642372,True,i,36431.59999996424,1788.2999999523163,1669833426122,1789,HRV,HRV_0181,2022-11-30 18:42:46
16,"[{'imgObject': {}, 'id': 'cherry tomato', 'src': '/static/foodstim60/cherry tomato.jpg', 'key': 'u', 'origWidth': 410, 'origHeight': 410, 'width': 410, 'height': 410, 'widthPercent': 0.45, 'rescaleHeight': False, 'trialN': 16, 'loaded': True, 'loadedTime': 4000.800000011921, 'positionName': 'LEFT', 'positionCoords': [112.24, 102.5], 'bid': 9.22}, {'imgObject': {}, 'id': 'fried eggs', 'src': '/static/foodstim60/fried eggs.jpg', 'key': 'i', 'origWidth': 410, 'origHeight': 410, 'width': 410, 'height': 410, 'widthPercent': 0.45, 'rescaleHeight': False, 'trialN': 16, 'loaded': True, 'loadedTime': 4288.300000011921, 'positionName': 'RIGHT', 'positionCoords': [565.76, 102.5], 'bid': 5}]",36431.89999997616,1669833426122,cherry tomato,fried eggs,9.22,5.0,-4.220000000000001,cherry tomato,1283.6000000238419,1284,1284.0,True,u,38220.39999997616,1788.5,1669833427911,1789,HRV,HRV_0181,2022-11-30 18:42:46
17,"[{'imgObject': {}, 'id': 'salmon', 'src': '/static/foodstim60/salmon.jpg', 'key': 'u', 'origWidth': 410, 'origHeight': 409, 'width': 410, 'height': 409, 'widthPercent': 0.45, 'rescaleHeight': False, 'trialN': 17, 'loaded': True, 'loadedTime': 4099.800000011921, 'positionName': 'LEFT', 'positionCoords': [112.24, 103], 'bid': 0.14}, {'imgObject': {}, 'id': 'mac & cheese', 'src': '/static/foodstim60/mac & cheese.jpg', 'key': 'i', 'origWidth': 410, 'origHeight': 410, 'width': 410, 'height': 410, 'widthPercent': 0.45, 'rescaleHeight': False, 'trialN': 17, 'loaded': True, 'loadedTime': 4270.199999988079, 'positionName': 'RIGHT', 'positionCoords': [565.76, 102.5], 'bid': 1.61}]",38220.69999998808,1669833427911,salmon,mac & cheese,0.14,1.61,1.4700000000000002,mac & cheese,1334.699999988079,1335,1335.199999988079,True,i,40071.80000001192,1851.1000000238419,1669833429762,1851,HRV,HRV_0181,2022-11-30 18:42:46
18,"[{'imgObject': {}, 'id': 'blueberries', 'src': '/static/foodstim60/blueberries.jpg', 'key': 'u', 'origWidth': 411, 'origHeight': 411, 'width': 411, 'height': 411, 'widthPercent': 0.45, 'rescaleHeight': False, 'trialN': 18, 'loaded': True, 'loadedTime': 4263, 'positionName': 'LEFT', 'positionCoords': [111.24, 102], 'bid': 9.9}, {'imgObject': {}, 'id': 'chickenfingers', 'src': '/static/foodstim60/chickenfingers.jpg', 'key': 'i', 'origWidth': 410, 'origHeight': 410, 'width': 410, 'height': 410, 'widthPercent': 0.45, 'rescaleHeight': False, 'trialN': 18, 'loaded': True, 'loadedTime': 4363.599999964237, 'positionName': 'RIGHT', 'positionCoords': [565.76, 102.5], 'bid': 9.33}]",40072.09999996424,1669833429762,blueberries,chickenfingers,9.9,9.33,-0.5700000000000003,blueberries,971.3000000119209,972,971.7000000476837,True,u,41559.09999996424,1487.0,1669833431249,1487,HRV,HRV_0181,2022-11-30 18:42:46
19,"[{'imgObject': {}, 'id': 'bagel and cc', 'src': '/static/foodstim60/bagel and cc.jpg', 'key': 'u', 'origWidth': 410, 'origHeight': 410, 'width': 410, 'height': 410, 'widthPercent': 0.45, 'rescaleHeight': False, 'trialN': 19, 'loaded': True, 'loadedTime': 4179.899999976158, 'positionName': 'LEFT', 'positionCoords': [112.24, 102.5], 'bid': 0.51}, {'imgObject': {}, 'id': 'tacos', 'src': '/static/foodstim60/tacos.jpg', 'key': 'i', 'origWidth': 411, 'origHeight': 411, 'width': 411, 'height': 411, 'widthPercent': 0.45, 'rescaleHeight': False, 'trialN': 19, 'loaded': True, 'loadedTime': 4236.5, 'positionName': 'RIGHT', 'positionCoords': [565.76, 102], 'bid': 0.29}]",41559.39999997616,1669833431249,bagel and cc,tacos,0.51,0.29,-0.22000000000000003,tacos,1468.300000011921,1469,1468.800000011921,True,i,43548.69999998808,1989.300000011921,1669833433239,1990,HRV,HRV_0181,2022-11-30 18:42:46
20,"[{'imgObject': {}, 'id': 'sushi w_condiments', 'src': '/static/foodstim60/sushi w_condiments.jpg', 'key': 'u', 'origWidth': 410, 'origHeight': 410, 'width': 410, 'height': 410, 'widthPercent': 0.45, 'rescaleHeight': False, 'trialN': 20, 'loaded': True, 'loadedTime': 4090.399999976158, 'positionName': 'LEFT', 'positionCoords': [112.24, 102.5], 'bid': 0.14}, {'imgObject': {}, 'id': 'lox', 'src': '/static/foodstim60/lox.jpg', 'key': 'i', 'origWidth': 410, 'origHeight': 411, 'width': 410, 'height': 411, 'widthPercent': 0.45, 'rescaleHeight': False, 'trialN': 20, 'loaded': True, 'loadedTime': 4312.800000011921, 'positionName': 'RIGHT', 'positionCoords': [565.76, 102], 'bid': 0.14}]",43548.89999997616,1669833433239,sushi w_condiments,lox,0.14,0.14,0.0,lox,1622.6000000238419,1623,1623.1000000238419,True,i,45684.80000001192,2135.900000035763,1669833435375,2136,HRV,HRV_0181,2022-11-30 18:42:46
21,"[{'imgObject': {}, 'id': 'salad w chicken', 'src': '/static/foodstim60/salad w chicken.jpg', 'key': 'u', 'origWidth': 411, 'origHeight': 411, 'width': 411, 'height': 411, 'widthPercent': 0.45, 'rescaleHeight': False, 'trialN': 21, 'loaded': True, 'loadedTime': 4334, 'positionName': 'LEFT', 'positionCoords': [111.24, 102], 'bid': 9.81}, {'imgObject': {}, 'id': 'Grapes', 'src': '/static/foodstim60/Grapes.jpg', 'key': 'i', 'origWidth': 411, 'origHeight': 411, 'width': 411, 'height': 411, 'widthPercent': 0.45, 'rescaleHeight': False, 'trialN': 21, 'loaded': True, 'loadedTime': 4295.099999964237, 'positionName': 'RIGHT', 'positionCoords': [565.76, 102], 'bid': 9.48}]",45685.0,1669833435375,salad w chicken,Grapes,9.81,9.48,-0.33000000000000007,salad w chicken,1182.300000011921,1183,1182.699999988079,True,u,47373.19999998808,1688.199999988079,1669833437063,1688,HRV,HRV_0181,2022-11-30 18:42:46
22,"[{'imgObject': {}, 'id': 'grilled chicken strips', 'src': '/static/foodstim60/grilled chicken strips.jpg', 'key': 'u', 'origWidth': 410, 'origHeight': 411, 'width': 410, 'height': 411, 'widthPercent': 0.45, 'rescaleHeight': False, 'trialN': 22, 'loaded': True, 'loadedTime': 4352.5, 'positionName': 'LEFT', 'positionCoords': [112.24, 102], 'bid': 8.950000000000001}, {'imgObject': {}, 'id': 'yogurt no spoon', 'src': '/static/foodstim60/yogurt no spoon.jpg', 'key': 'i', 'origWidth': 411, 'origHeight': 410, 'width': 411, 'height': 410, 'widthPercent': 0.45, 'rescaleHeight': False, 'trialN': 22, 'loaded': True, 'loadedTime': 4314.899999976158, 'positionName': 'RIGHT', 'positionCoords': [565.76, 102.5], 'bid': 6.47}]",47373.39999997616,1669833437063,grilled chicken strips,yogurt no spoon,8.950000000000001,6.47,-2.4800000000000013,grilled chicken strips,1510.1000000238419,1511,1510.6000000238419,True,u,49393.69999998808,2020.300000011921,1669833439084,2021,HRV,HRV_0181,2022-11-30 18:42:46
23,"[{'imgObject': {}, 'id': 'salmon', 'src': '/static/foodstim60/salmon.jpg', 'key': 'u', 'origWidth': 410, 'origHeight': 409, 'width': 410, 'height': 409, 'widthPercent': 0.45, 'rescaleHeight': False, 'trialN': 23, 'loaded': True, 'loadedTime': 4098.800000011921, 'positionName': 'LEFT', 'positionCoords': [112.24, 103], 'bid': 0.14}, {'imgObject': {}, 'id': 'blackbeanswithrice', 'src': '/static/foodstim60/blackbeanswithrice.jpg', 'key': 'i', 'origWidth': 410, 'origHeight': 410, 'width': 410, 'height': 410, 'widthPercent': 0.45, 'rescaleHeight': False, 'trialN': 23, 'loaded': True, 'loadedTime': 4342.199999988079, 'positionName': 'RIGHT', 'positionCoords': [565.76, 102.5], 'bid': 0.14}]",49393.80000001192,1669833439084,salmon,blackbeanswithrice,0.14,0.14,0.0,blackbeanswithrice,961.5,962,962.0,True,i,50866.09999996424,1472.2999999523163,1669833440556,1472,HRV,HRV_0181,2022-11-30 18:42:46
24,"[{'imgObject': {}, 'id': 'lox', 'src': '/static/foodstim60/lox.jpg', 'key': 'u', 'origWidth': 410, 'origHeight': 411, 'width': 410, 'height': 411, 'widthPercent': 0.45, 'rescaleHeight': False, 'trialN': 24, 'loaded': True, 'loadedTime': 4304, 'positionName': 'LEFT', 'positionCoords': [112.24, 102], 'bid': 0.14}, {'imgObject': {}, 'id': 'yogurt no spoon', 'src': '/static/foodstim60/yogurt no spoon.jpg', 'key': 'i', 'origWidth': 411, 'origHeight': 410, 'width': 411, 'height': 410, 'widthPercent': 0.45, 'rescaleHeight': False, 'trialN': 24, 'loaded': True, 'loadedTime': 4315.199999988079, 'positionName': 'RIGHT', 'positionCoords': [565.76, 102.5], 'bid': 6.47}]",50866.30000001192,1669833440556,lox,yogurt no spoon,0.14,6.47,6.33,yogurt no spoon,1281.0,1282,1281.3999999761581,True,i,52656.0,1789.699999988079,1669833442346,1790,HRV,HRV_0181,2022-11-30 18:42:46
25,"[{'imgObject': {}, 'id': 'blackbeanswithrice', 'src': '/static/foodstim60/blackbeanswithrice.jpg', 'key': 'u', 'origWidth': 410, 'origHeight': 410, 'width': 410, 'height': 410, 'widthPercent': 0.45, 'rescaleHeight': False, 'trialN': 25, 'loaded': True, 'loadedTime': 4341.199999988079, 'positionName': 'LEFT', 'positionCoords': [112.24, 102.5], 'bid': 0.14}, {'imgObject': {}, 'id': 'rigatoni and sauce', 'src': '/static/foodstim60/rigatoni and sauce.jpg', 'key': 'i', 'origWidth': 410, 'origHeight': 411, 'width': 410, 'height': 411, 'widthPercent': 0.45, 'rescaleHeight': False, 'trialN': 25, 'loaded': True, 'loadedTime': 4476.800000011921, 'positionName': 'RIGHT', 'positionCoords': [565.76, 102], 'bid': 7.15}]",52656.19999998808,1669833442346,blackbeanswithrice,rigatoni and sauce,0.14,7.15,7.010000000000001,rigatoni and sauce,1155.3999999761581,1156,1155.8999999761581,True,i,54329.59999996424,1673.3999999761581,1669833444020,1674,HRV,HRV_0181,2022-11-30 18:42:46
26,"[{'imgObject': {}, 'id': 'mac & cheese', 'src': '/static/foodstim60/mac & cheese.jpg', 'key': 'u', 'origWidth': 410, 'origHeight': 410, 'width': 410, 'height': 410, 'widthPercent': 0.45, 'rescaleHeight': False, 'trialN': 26, 'loaded': True, 'loadedTime': 4268.899999976158, 'positionName': 'LEFT', 'positionCoords': [112.24, 102.5], 'bid': 1.61}, {'imgObject': {}, 'id': 'chickenfingers', 'src': '/static/foodstim60/chickenfingers.jpg', 'key': 'i', 'origWidth': 410, 'origHeight': 410, 'width': 410, 'height': 410, 'widthPercent': 0.45, 'rescaleHeight': False, 'trialN': 26, 'loaded': True, 'loadedTime': 4363.300000011921, 'positionName': 'RIGHT', 'positionCoords': [565.76, 102.5], 'bid': 9.33}]",54329.80000001192,1669833444020,mac & cheese,chickenfingers,1.61,9.33,7.72,chickenfingers,1257.5,1258,1258.0,True,i,56102.09999996424,1772.2999999523163,1669833445792,1772,HRV,HRV_0181,2022-11-30 18:42:46
27,"[{'imgObject': {}, 'id': 'turkey sandwich', 'src': '/static/foodstim60/turkey sandwich.jpg', 'key': 'u', 'origWidth': 409, 'origHeight': 409, 'width': 409, 'height': 409, 'widthPercent': 0.45, 'rescaleHeight': False, 'trialN': 27, 'loaded': True, 'loadedTime': 4381.399999976158, 'positionName': 'LEFT', 'positionCoords': [113.24, 103], 'bid': 2.83}, {'imgObject': {}, 'id': 'mashed potato', 'src': '/static/foodstim60/mashed potato.jpg', 'key': 'i', 'origWidth': 409, 'origHeight': 409, 'width': 409, 'height': 409, 'widthPercent': 0.45, 'rescaleHeight': False, 'trialN': 27, 'loaded': True, 'loadedTime': 4443, 'positionName': 'RIGHT', 'positionCoords': [565.76, 103], 'bid': 2.07}]",56102.30000001192,1669833445792,turkey sandwich,mashed potato,2.83,2.07,-0.7600000000000002,mashed potato,1613.0,1614,1613.5,True,i,58222.69999998808,2120.399999976158,1669833447913,2121,HRV,HRV_0181,2022-11-30 18:42:46
28,"[{'imgObject': {}, 'id': 'raspberries', 'src': '/static/foodstim60/raspberries.jpg', 'key': 'u', 'origWidth': 411, 'origHeight': 411, 'width': 411, 'height': 411, 'widthPercent': 0.45, 'rescaleHeight': False, 'trialN': 28, 'loaded': True, 'loadedTime': 4222, 'positionName': 'LEFT', 'positionCoords': [111.24, 102], 'bid': 9.9}, {'imgObject': {}, 'id': 'froot loops w milk', 'src': '/static/foodstim60/froot loops w milk.jpg', 'key': 'i', 'origWidth': 410, 'origHeight': 410, 'width': 410, 'height': 410, 'widthPercent': 0.45, 'rescaleHeight': False, 'trialN': 28, 'loaded': True, 'loadedTime': 4369.899999976158, 'positionName': 'RIGHT', 'positionCoords': [565.76, 102.5], 'bid': 4.28}]",58223.0,1669833447913,raspberries,froot loops w milk,9.9,4.28,-5.62,raspberries,980.1999999880791,981,980.8000000119209,True,u,59709.69999998808,1486.699999988079,1669833449400,1487,HRV,HRV_0181,2022-11-30 18:42:46
29,"[{'imgObject': {}, 'id': 'rigatoni', 'src': '/static/foodstim60/rigatoni.jpg', 'key': 'u', 'origWidth': 411, 'origHeight': 411, 'width': 411, 'height': 411, 'widthPercent': 0.45, 'rescaleHeight': False, 'trialN': 29, 'loaded': True, 'loadedTime': 4447.599999964237, 'positionName': 'LEFT', 'positionCoords': [111.24, 102], 'bid': 5}, {'imgObject': {}, 'id': 'froot loops w milk', 'src': '/static/foodstim60/froot loops w milk.jpg', 'key': 'i', 'origWidth': 410, 'origHeight': 410, 'width': 410, 'height': 410, 'widthPercent': 0.45, 'rescaleHeight': False, 'trialN': 29, 'loaded': True, 'loadedTime': 4370.399999976158, 'positionName': 'RIGHT', 'positionCoords': [565.76, 102.5], 'bid': 4.28}]",59709.89999997616,1669833449400,rigatoni,froot loops w milk,5.0,4.28,-0.7199999999999998,rigatoni,1109.4000000357628,1110,1109.9000000357628,True,u,61328.30000001192,1618.4000000357628,1669833451018,1618,HRV,HRV_0181,2022-11-30 18:42:46
30,"[{'imgObject': {}, 'id': 'banana', 'src': '/static/foodstim60/banana.jpg', 'key': 'u', 'origWidth': 410, 'origHeight': 410, 'width': 410, 'height': 410, 'widthPercent': 0.45, 'rescaleHeight': False, 'trialN': 30, 'loaded': True, 'loadedTime': 4503.599999964237, 'positionName': 'LEFT', 'positionCoords': [112.24, 102.5], 'bid': 0.55}, {'imgObject': {}, 'id': 'veggieswithdip', 'src': '/static/foodstim60/veggieswithdip.jpg', 'key': 'i', 'origWidth': 409, 'origHeight': 409, 'width': 409, 'height': 409, 'widthPercent': 0.45, 'rescaleHeight': False, 'trialN': 30, 'loaded': True, 'loadedTime': 4121.5, 'positionName': 'RIGHT', 'positionCoords': [565.76, 103], 'bid': 0.14}]",61328.39999997616,1669833451019,banana,veggieswithdip,0.55,0.14,-0.41000000000000003,banana,1330.9000000357628,1331,1331.199999988079,True,u,63164.80000001192,1836.4000000357628,1669833452855,1836,HRV,HRV_0181,2022-11-30 18:42:46
31,"[{'imgObject': {}, 'id': 'cherry tomato', 'src': '/static/foodstim60/cherry tomato.jpg', 'key': 'u', 'origWidth': 410, 'origHeight': 410, 'width': 410, 'height': 410, 'widthPercent': 0.45, 'rescaleHeight': False, 'trialN': 31, 'loaded': True, 'loadedTime': 4000.5, 'positionName': 'LEFT', 'positionCoords': [112.24, 102.5], 'bid': 9.22}, {'imgObject': {}, 'id': 'chickenfingers', 'src': '/static/foodstim60/chickenfingers.jpg', 'key': 'i', 'origWidth': 410, 'origHeight': 410, 'width': 410, 'height': 410, 'widthPercent': 0.45, 'rescaleHeight': False, 'trialN': 31, 'loaded': True, 'loadedTime': 4362, 'positionName': 'RIGHT', 'positionCoords': [565.76, 102.5], 'bid': 9.33}]",63165.0,1669833452855,cherry tomato,chickenfingers,9.22,9.33,0.10999999999999943,chickenfingers,1590.5,1591,1590.8999999761581,True,i,65270.59999996424,2105.599999964237,1669833454961,2106,HRV,HRV_0181,2022-11-30 18:42:46
32,"[{'imgObject': {}, 'id': 'cocktailshrimp', 'src': '/static/foodstim60/cocktailshrimp.jpg', 'key': 'u', 'origWidth': 410, 'origHeight': 410, 'width': 410, 'height': 410, 'widthPercent': 0.45, 'rescaleHeight': False, 'trialN': 32, 'loaded': True, 'loadedTime': 4073.899999976158, 'positionName': 'LEFT', 'positionCoords': [112.24, 102.5], 'bid': 9.85}, {'imgObject': {}, 'id': 'strawberries', 'src': '/static/foodstim60/strawberries.jpg', 'key': 'i', 'origWidth': 410, 'origHeight': 410, 'width': 410, 'height': 410, 'widthPercent': 0.45, 'rescaleHeight': False, 'trialN': 32, 'loaded': True, 'loadedTime': 4505.599999964237, 'positionName': 'RIGHT', 'positionCoords': [565.76, 102.5], 'bid': 9.87}]",65270.89999997616,1669833454961,cocktailshrimp,strawberries,9.85,9.87,0.019999999999999574,strawberries,972.4000000357628,973,972.8000000119209,True,i,66758.0,1487.1000000238419,1669833456448,1487,HRV,HRV_0181,2022-11-30 18:42:46
33,"[{'imgObject': {}, 'id': 'baked potato', 'src': '/static/foodstim60/baked potato.jpg', 'key': 'u', 'origWidth': 409, 'origHeight': 410, 'width': 409, 'height': 410, 'widthPercent': 0.45, 'rescaleHeight': False, 'trialN': 33, 'loaded': True, 'loadedTime': 4164.699999988079, 'positionName': 'LEFT', 'positionCoords': [113.24, 102.5], 'bid': 8.56}, {'imgObject': {}, 'id': 'orange slices', 'src': '/static/foodstim60/orange slices.jpg', 'key': 'i', 'origWidth': 409, 'origHeight': 410, 'width': 409, 'height': 410, 'widthPercent': 0.45, 'rescaleHeight': False, 'trialN': 33, 'loaded': True, 'loadedTime': 4080.5, 'positionName': 'RIGHT', 'positionCoords': [565.76, 102.5], 'bid': 9.02}]",66758.19999998808,1669833456448,baked potato,orange slices,8.56,9.02,0.4599999999999991,orange slices,2173.0,2174,2173.5,True,i,69433.5,2675.300000011921,1669833459124,2676,HRV,HRV_0181,2022-11-30 18:42:46
34,"[{'imgObject': {}, 'id': 'fried eggs', 'src': '/static/foodstim60/fried eggs.jpg', 'key': 'u', 'origWidth': 410, 'origHeight': 410, 'width': 410, 'height': 410, 'widthPercent': 0.45, 'rescaleHeight': False, 'trialN': 34, 'loaded': True, 'loadedTime': 4288.099999964237, 'positionName': 'LEFT', 'positionCoords': [112.24, 102.5], 'bid': 5}, {'imgObject': {}, 'id': 'popsicles', 'src': '/static/foodstim60/popsicles.jpg', 'key': 'i', 'origWidth': 410, 'origHeight': 410, 'width': 410, 'height': 410, 'widthPercent': 0.45, 'rescaleHeight': False, 'trialN': 34, 'loaded': True, 'loadedTime': 4701.5, 'positionName': 'RIGHT', 'positionCoords': [565.76, 102.5], 'bid': 4.57}]",69433.69999998808,1669833459124,fried eggs,popsicles,5.0,4.57,-0.4299999999999997,fried eggs,1481.5,1482,1481.8999999761581,True,u,71423.19999998808,1989.5,1669833461113,1989,HRV,HRV_0181,2022-11-30 18:42:46
35,"[{'imgObject': {}, 'id': 'fruitsalad', 'src': '/static/foodstim60/fruitsalad.jpg', 'key': 'u', 'origWidth': 410, 'origHeight': 410, 'width': 410, 'height': 410, 'widthPercent': 0.45, 'rescaleHeight': False, 'trialN': 35, 'loaded': True, 'loadedTime': 4515.5, 'positionName': 'LEFT', 'positionCoords': [112.24, 102.5], 'bid': 9.9}, {'imgObject': {}, 'id': 'popsicles', 'src': '/static/foodstim60/popsicles.jpg', 'key': 'i', 'origWidth': 410, 'origHeight': 410, 'width': 410, 'height': 410, 'widthPercent': 0.45, 'rescaleHeight': False, 'trialN': 35, 'loaded': True, 'loadedTime': 4701.300000011921, 'positionName': 'RIGHT', 'positionCoords': [565.76, 102.5], 'bid': 4.57}]",71423.39999997616,1669833461113,fruitsalad,popsicles,9.9,4.57,-5.33,fruitsalad,1011.9000000357628,1013,1012.4000000357628,True,u,72942.19999998808,1518.800000011921,1669833462632,1519,HRV,HRV_0181,2022-11-30 18:42:46
36,"[{'imgObject': {}, 'id': 'steak', 'src': '/static/foodstim60/steak.jpg', 'key': 'u', 'origWidth': 410, 'origHeight': 410, 'width': 410, 'height': 410, 'widthPercent': 0.45, 'rescaleHeight': False, 'trialN': 36, 'loaded': True, 'loadedTime': 4212.699999988079, 'positionName': 'LEFT', 'positionCoords': [112.24, 102.5], 'bid': 5.07}, {'imgObject': {}, 'id': 'froot loops w milk', 'src': '/static/foodstim60/froot loops w milk.jpg', 'key': 'i', 'origWidth': 410, 'origHeight': 410, 'width': 410, 'height': 410, 'widthPercent': 0.45, 'rescaleHeight': False, 'trialN': 36, 'loaded': True, 'loadedTime': 4369, 'positionName': 'RIGHT', 'positionCoords': [565.76, 102.5], 'bid': 4.28}]",72942.59999996424,1669833462633,steak,froot loops w milk,5.07,4.28,-0.79,steak,1156.6000000238419,1157,1157.1000000238419,True,u,74607.89999997616,1665.300000011921,1669833464298,1665,HRV,HRV_0181,2022-11-30 18:42:46
37,"[{'imgObject': {}, 'id': 'sushi w_condiments', 'src': '/static/foodstim60/sushi w_condiments.jpg', 'key': 'u', 'origWidth': 410, 'origHeight': 410, 'width': 410, 'height': 410, 'widthPercent': 0.45, 'rescaleHeight': False, 'trialN': 37, 'loaded': True, 'loadedTime': 4091.599999964237, 'positionName': 'LEFT', 'positionCoords': [112.24, 102.5], 'bid': 0.14}, {'imgObject': {}, 'id': 'burrito', 'src': '/static/foodstim60/burrito.jpg', 'key': 'i', 'origWidth': 410, 'origHeight': 410, 'width': 410, 'height': 410, 'widthPercent': 0.45, 'rescaleHeight': False, 'trialN': 37, 'loaded': True, 'loadedTime': 4482.699999988079, 'positionName': 'RIGHT', 'positionCoords': [565.76, 102.5], 'bid': 2.86}]",74608.39999997616,1669833464298,sushi w_condiments,burrito,0.14,2.86,2.7199999999999998,burrito,1091.199999988079,1092,1091.6000000238419,True,i,76211.39999997616,1603.0,1669833465912,1614,HRV,HRV_0181,2022-11-30 18:42:46
38,"[{'imgObject': {}, 'id': 'cantaloupe', 'src': '/static/foodstim60/cantaloupe.jpg', 'key': 'u', 'origWidth': 409, 'origHeight': 409, 'width': 409, 'height': 409, 'widthPercent': 0.45, 'rescaleHeight': False, 'trialN': 38, 'loaded': True, 'loadedTime': 4567.099999964237, 'positionName': 'LEFT', 'positionCoords': [113.24, 103], 'bid': 9.96}, {'imgObject': {}, 'id': 'eggs', 'src': '/static/foodstim60/eggs.jpg', 'key': 'i', 'origWidth': 409, 'origHeight': 409, 'width': 409, 'height': 409, 'widthPercent': 0.45, 'rescaleHeight': False, 'trialN': 38, 'loaded': True, 'loadedTime': 4246.199999988079, 'positionName': 'RIGHT', 'positionCoords': [565.76, 103], 'bid': 4.94}]",76211.69999998808,1669833465912,cantaloupe,eggs,9.96,4.94,-5.0200000000000005,cantaloupe,1039.5,1040,1040.1000000238419,True,u,77753.0,1541.300000011921,1669833467453,1541,HRV,HRV_0181,2022-11-30 18:42:46
39,"[{'imgObject': {}, 'id': 'hotdog w must', 'src': '/static/foodstim60/hotdog w must.jpg', 'key': 'u', 'origWidth': 409, 'origHeight': 409, 'width': 409, 'height': 409, 'widthPercent': 0.45, 'rescaleHeight': False, 'trialN': 39, 'loaded': True, 'loadedTime': 4185.399999976158, 'positionName': 'LEFT', 'positionCoords': [113.24, 103], 'bid': 0.91}, {'imgObject': {}, 'id': 'avocado', 'src': '/static/foodstim60/avocado.jpg', 'key': 'i', 'origWidth': 409, 'origHeight': 409, 'width': 409, 'height': 409, 'widthPercent': 0.45, 'rescaleHeight': False, 'trialN': 39, 'loaded': True, 'loadedTime': 4577.699999988079, 'positionName': 'RIGHT', 'positionCoords': [565.76, 103], 'bid': 0.14}]",77753.5,1669833467454,hotdog w must,avocado,0.91,0.14,-0.77,hotdog w must,1129.5,1130,1130.0,True,u,79387.59999996424,1634.0999999642372,1669833469088,1634,HRV,HRV_0181,2022-11-30 18:42:46
40,"[{'imgObject': {}, 'id': 'sweetpotato', 'src': '/static/foodstim60/sweetpotato.jpg', 'key': 'u', 'origWidth': 410, 'origHeight': 410, 'width': 410, 'height': 410, 'widthPercent': 0.45, 'rescaleHeight': False, 'trialN': 40, 'loaded': True, 'loadedTime': 4027.699999988079, 'positionName': 'LEFT', 'positionCoords': [112.24, 102.5], 'bid': 6.32}, {'imgObject': {}, 'id': 'raisin bran w milk', 'src': '/static/foodstim60/raisin bran w milk.jpg', 'key': 'i', 'origWidth': 411, 'origHeight': 411, 'width': 411, 'height': 411, 'widthPercent': 0.45, 'rescaleHeight': False, 'trialN': 40, 'loaded': True, 'loadedTime': 4600.599999964237, 'positionName': 'RIGHT', 'positionCoords': [565.76, 102], 'bid': 4.88}]",79387.89999997616,1669833469088,sweetpotato,raisin bran w milk,6.32,4.88,-1.4400000000000004,sweetpotato,1479.199999988079,1480,1479.699999988079,True,u,81375.89999997616,1988.0,1669833471076,1988,HRV,HRV_0181,2022-11-30 18:42:46
41,"[{'imgObject': {}, 'id': 'Grapes', 'src': '/static/foodstim60/Grapes.jpg', 'key': 'u', 'origWidth': 411, 'origHeight': 411, 'width': 411, 'height': 411, 'widthPercent': 0.45, 'rescaleHeight': False, 'trialN': 41, 'loaded': True, 'loadedTime': 4294.599999964237, 'positionName': 'LEFT', 'positionCoords': [111.24, 102], 'bid': 9.48}, {'imgObject': {}, 'id': 'mango', 'src': '/static/foodstim60/mango.jpg', 'key': 'i', 'origWidth': 411, 'origHeight': 411, 'width': 411, 'height': 411, 'widthPercent': 0.45, 'rescaleHeight': False, 'trialN': 41, 'loaded': True, 'loadedTime': 4611.099999964237, 'positionName': 'RIGHT', 'positionCoords': [565.76, 102], 'bid': 5.03}]",81376.09999996424,1669833471076,Grapes,mango,9.48,5.03,-4.45,Grapes,1362.9000000357628,1364,1363.4000000357628,True,u,83249.89999997616,1873.800000011921,1669833472950,1874,HRV,HRV_0181,2022-11-30 18:42:46
42,"[{'imgObject': {}, 'id': 'kiwi', 'src': '/static/foodstim60/kiwi.jpg', 'key': 'u', 'origWidth': 410, 'origHeight': 410, 'width': 410, 'height': 410, 'widthPercent': 0.45, 'rescaleHeight': False, 'trialN': 42, 'loaded': True, 'loadedTime': 4598.5, 'positionName': 'LEFT', 'positionCoords': [112.24, 102.5], 'bid': 0.09}, {'imgObject': {}, 'id': 'hashbrowns', 'src': '/static/foodstim60/hashbrowns.jpg', 'key': 'i', 'origWidth': 411, 'origHeight': 410, 'width': 411, 'height': 410, 'widthPercent': 0.45, 'rescaleHeight': False, 'trialN': 42, 'loaded': True, 'loadedTime': 4015.099999964237, 'positionName': 'RIGHT', 'positionCoords': [565.76, 102.5], 'bid': 0.22}]",83250.0,1669833472950,kiwi,hashbrowns,0.09,0.22,0.13,hashbrowns,1505.0999999642372,1506,1505.5,True,i,85270.0,2020.0,1669833474970,2020,HRV,HRV_0181,2022-11-30 18:42:46
43,"[{'imgObject': {}, 'id': 'Tribe humus pita', 'src': '/static/foodstim60/Tribe humus pita.jpg', 'key': 'u', 'origWidth': 411, 'origHeight': 411, 'width': 411, 'height': 411, 'widthPercent': 0.45, 'rescaleHeight': False, 'trialN': 43, 'loaded': True, 'loadedTime': 4132.300000011921, 'positionName': 'LEFT', 'positionCoords': [111.24, 102], 'bid': 0.12}, {'imgObject': {}, 'id': 'rigatoni', 'src': '/static/foodstim60/rigatoni.jpg', 'key': 'i', 'origWidth': 411, 'origHeight': 411, 'width': 411, 'height': 411, 'widthPercent': 0.45, 'rescaleHeight': False, 'trialN': 43, 'loaded': True, 'loadedTime': 4445.199999988079, 'positionName': 'RIGHT', 'positionCoords': [565.76, 102], 'bid': 5}]",85270.19999998808,1669833474970,Tribe humus pita,rigatoni,0.12,5.0,4.88,rigatoni,1309.199999988079,1310,1309.6000000238419,True,i,87089.80000001192,1819.6000000238419,1669833476790,1820,HRV,HRV_0181,2022-11-30 18:42:46
44,"[{'imgObject': {}, 'id': 'apple slices', 'src': '/static/foodstim60/apple slices.jpg', 'key': 'u', 'origWidth': 409, 'origHeight': 410, 'width': 409, 'height': 410, 'widthPercent': 0.45, 'rescaleHeight': False, 'trialN': 44, 'loaded': True, 'loadedTime': 4452.399999976158, 'positionName': 'LEFT', 'positionCoords': [113.24, 102.5], 'bid': 3.67}, {'imgObject': {}, 'id': 'strawberries', 'src': '/static/foodstim60/strawberries.jpg', 'key': 'i', 'origWidth': 410, 'origHeight': 410, 'width': 410, 'height': 410, 'widthPercent': 0.45, 'rescaleHeight': False, 'trialN': 44, 'loaded': True, 'loadedTime': 4505.599999964237, 'positionName': 'RIGHT', 'positionCoords': [565.76, 102.5], 'bid': 9.87}]",87090.09999996424,1669833476790,apple slices,strawberries,3.67,9.87,6.199999999999999,strawberries,1152.800000011921,1153,1153.1000000238419,True,i,88762.59999996424,1672.5,1669833478463,1673,HRV,HRV_0181,2022-11-30 18:42:46
45,"[{'imgObject': {}, 'id': 'mashed potato', 'src': '/static/foodstim60/mashed potato.jpg', 'key': 'u', 'origWidth': 409, 'origHeight': 409, 'width': 409, 'height': 409, 'widthPercent': 0.45, 'rescaleHeight': False, 'trialN': 45, 'loaded': True, 'loadedTime': 4442.699999988079, 'positionName': 'LEFT', 'positionCoords': [113.24, 103], 'bid': 2.07}, {'imgObject': {}, 'id': 'Grapes', 'src': '/static/foodstim60/Grapes.jpg', 'key': 'i', 'origWidth': 411, 'origHeight': 411, 'width': 411, 'height': 411, 'widthPercent': 0.45, 'rescaleHeight': False, 'trialN': 45, 'loaded': True, 'loadedTime': 4295.300000011921, 'positionName': 'RIGHT', 'positionCoords': [565.76, 102], 'bid': 9.48}]",88762.80000001192,1669833478463,mashed potato,Grapes,2.07,9.48,7.41,Grapes,1752.2999999523163,1753,1752.8999999761581,True,i,91030.59999996424,2267.7999999523163,1669833480731,2268,HRV,HRV_0181,2022-11-30 18:42:46
46,"[{'imgObject': {}, 'id': 'cheerios', 'src': '/static/foodstim60/cheerios.jpg', 'key': 'u', 'origWidth': 409, 'origHeight': 410, 'width': 409, 'height': 410, 'widthPercent': 0.45, 'rescaleHeight': False, 'trialN': 46, 'loaded': True, 'loadedTime': 4586.199999988079, 'positionName': 'LEFT', 'positionCoords': [113.24, 102.5], 'bid': 5.01}, {'imgObject': {}, 'id': 'raisin bran w milk', 'src': '/static/foodstim60/raisin bran w milk.jpg', 'key': 'i', 'origWidth': 411, 'origHeight': 411, 'width': 411, 'height': 411, 'widthPercent': 0.45, 'rescaleHeight': False, 'trialN': 46, 'loaded': True, 'loadedTime': 4601.099999964237, 'positionName': 'RIGHT', 'positionCoords': [565.76, 102], 'bid': 4.88}]",91030.80000001192,1669833480731,cheerios,raisin bran w milk,5.01,4.88,-0.1299999999999999,cheerios,1180.3999999761581,1181,1181.0999999642372,True,u,92712.5,1681.699999988079,1669833482413,1682,HRV,HRV_0181,2022-11-30 18:42:46
47,"[{'imgObject': {}, 'id': 'yogurt no spoon', 'src': '/static/foodstim60/yogurt no spoon.jpg', 'key': 'u', 'origWidth': 411, 'origHeight': 410, 'width': 411, 'height': 410, 'widthPercent': 0.45, 'rescaleHeight': False, 'trialN': 47, 'loaded': True, 'loadedTime': 4315.300000011921, 'positionName': 'LEFT', 'positionCoords': [111.24, 102.5], 'bid': 6.47}, {'imgObject': {}, 'id': 'luckycharms', 'src': '/static/foodstim60/luckycharms.jpg', 'key': 'i', 'origWidth': 410, 'origHeight': 409, 'width': 410, 'height': 409, 'widthPercent': 0.45, 'rescaleHeight': False, 'trialN': 47, 'loaded': True, 'loadedTime': 4208.599999964237, 'positionName': 'RIGHT', 'positionCoords': [565.76, 103], 'bid': 5.14}]",92712.80000001192,1669833482413,yogurt no spoon,luckycharms,6.47,5.14,-1.33,yogurt no spoon,1242.2999999523163,1243,1242.699999988079,True,u,94464.30000001192,1751.5,1669833484165,1752,HRV,HRV_0181,2022-11-30 18:42:46
48,"[{'imgObject': {}, 'id': 'cheerios', 'src': '/static/foodstim60/cheerios.jpg', 'key': 'u', 'origWidth': 409, 'origHeight': 410, 'width': 409, 'height': 410, 'widthPercent': 0.45, 'rescaleHeight': False, 'trialN': 48, 'loaded': True, 'loadedTime': 4586.099999964237, 'positionName': 'LEFT', 'positionCoords': [113.24, 102.5], 'bid': 5.01}, {'imgObject': {}, 'id': 'rigatoni', 'src': '/static/foodstim60/rigatoni.jpg', 'key': 'i', 'origWidth': 411, 'origHeight': 411, 'width': 411, 'height': 411, 'widthPercent': 0.45, 'rescaleHeight': False, 'trialN': 48, 'loaded': True, 'loadedTime': 4448.199999988079, 'positionName': 'RIGHT', 'positionCoords': [565.76, 102], 'bid': 5}]",94464.5,1669833484165,cheerios,rigatoni,5.01,5.0,-0.009999999999999787,rigatoni,2418.800000011921,2419,2419.300000011921,True,i,97388.19999998808,2923.699999988079,1669833487089,2924,HRV,HRV_0181,2022-11-30 18:42:46
49,"[{'imgObject': {}, 'id': 'sushi w_condiments', 'src': '/static/foodstim60/sushi w_condiments.jpg', 'key': 'u', 'origWidth': 410, 'origHeight': 410, 'width': 410, 'height': 410, 'widthPercent': 0.45, 'rescaleHeight': False, 'trialN': 49, 'loaded': True, 'loadedTime': 4092, 'positionName': 'LEFT', 'positionCoords': [112.24, 102.5], 'bid': 0.14}, {'imgObject': {}, 'id': 'sweetpotato', 'src': '/static/foodstim60/sweetpotato.jpg', 'key': 'i', 'origWidth': 410, 'origHeight': 410, 'width': 410, 'height': 410, 'widthPercent': 0.45, 'rescaleHeight': False, 'trialN': 49, 'loaded': True, 'loadedTime': 4034.599999964237, 'positionName': 'RIGHT', 'positionCoords': [565.76, 102.5], 'bid': 6.32}]",97388.5,1669833487089,sushi w_condiments,sweetpotato,0.14,6.32,6.180000000000001,sweetpotato,1030.5,1031,1031.0,True,i,98929.19999998808,1540.699999988079,1669833488629,1540,HRV,HRV_0181,2022-11-30 18:42:46
50,"[{'imgObject': {}, 'id': 'corn cob', 'src': '/static/foodstim60/corn cob.jpg', 'key': 'u', 'origWidth': 411, 'origHeight': 411, 'width': 411, 'height': 411, 'widthPercent': 0.45, 'rescaleHeight': False, 'trialN': 50, 'loaded': True, 'loadedTime': 4647.300000011921, 'positionName': 'LEFT', 'positionCoords': [111.24, 102], 'bid': 4.96}, {'imgObject': {}, 'id': 'shreddedwheatwithmilk', 'src': '/static/foodstim60/shreddedwheatwithmilk.jpg', 'key': 'i', 'origWidth': 410, 'origHeight': 410, 'width': 410, 'height': 410, 'widthPercent': 0.45, 'rescaleHeight': False, 'trialN': 50, 'loaded': True, 'loadedTime': 3988, 'positionName': 'RIGHT', 'positionCoords': [565.76, 102.5], 'bid': 4.96}]",98929.39999997616,1669833488630,corn cob,shreddedwheatwithmilk,4.96,4.96,0.0,corn cob,1681.4000000357628,1681,1681.800000011921,True,u,101118.69999998808,2189.300000011921,1669833490819,2189,HRV,HRV_0181,2022-11-30 18:42:46
51,"[{'imgObject': {}, 'id': 'roastedpotatoes', 'src': '/static/foodstim60/roastedpotatoes.jpg', 'key': 'u', 'origWidth': 409, 'origHeight': 410, 'width': 409, 'height': 410, 'widthPercent': 0.45, 'rescaleHeight': False, 'trialN': 51, 'loaded': True, 'loadedTime': 4650.699999988079, 'positionName': 'LEFT', 'positionCoords': [113.24, 102.5], 'bid': 9.85}, {'imgObject': {}, 'id': 'sweetpotato', 'src': '/static/foodstim60/sweetpotato.jpg', 'key': 'i', 'origWidth': 410, 'origHeight': 410, 'width': 410, 'height': 410, 'widthPercent': 0.45, 'rescaleHeight': False, 'trialN': 51, 'loaded': True, 'loadedTime': 4035.300000011921, 'positionName': 'RIGHT', 'positionCoords': [565.76, 102.5], 'bid': 6.32}]",101118.89999997616,1669833490819,roastedpotatoes,sweetpotato,9.85,6.32,-3.5299999999999994,roastedpotatoes,1236.1000000238419,1237,1236.5,True,u,102869.5,1750.6000000238419,1669833492570,1751,HRV,HRV_0181,2022-11-30 18:42:46
52,"[{'imgObject': {}, 'id': 'seaweed', 'src': '/static/foodstim60/seaweed.jpg', 'key': 'u', 'origWidth': 410, 'origHeight': 410, 'width': 410, 'height': 410, 'widthPercent': 0.45, 'rescaleHeight': False, 'trialN': 52, 'loaded': True, 'loadedTime': 4672, 'positionName': 'LEFT', 'positionCoords': [112.24, 102.5], 'bid': 0.05}, {'imgObject': {}, 'id': 'avocado', 'src': '/static/foodstim60/avocado.jpg', 'key': 'i', 'origWidth': 409, 'origHeight': 409, 'width': 409, 'height': 409, 'widthPercent': 0.45, 'rescaleHeight': False, 'trialN': 52, 'loaded': True, 'loadedTime': 4577, 'positionName': 'RIGHT', 'positionCoords': [565.76, 103], 'bid': 0.14}]",102869.69999998808,1669833492570,seaweed,avocado,0.05,0.14,0.09000000000000001,avocado,1053.300000011921,1054,1053.800000011921,True,i,104426.09999996424,1556.3999999761581,1669833494126,1556,HRV,HRV_0181,2022-11-30 18:42:46
53,"[{'imgObject': {}, 'id': 'eggs', 'src': '/static/foodstim60/eggs.jpg', 'key': 'u', 'origWidth': 409, 'origHeight': 409, 'width': 409, 'height': 409, 'widthPercent': 0.45, 'rescaleHeight': False, 'trialN': 53, 'loaded': True, 'loadedTime': 4246.5, 'positionName': 'LEFT', 'positionCoords': [113.24, 103], 'bid': 4.94}, {'imgObject': {}, 'id': 'shreddedwheatwithmilk', 'src': '/static/foodstim60/shreddedwheatwithmilk.jpg', 'key': 'i', 'origWidth': 410, 'origHeight': 410, 'width': 410, 'height': 410, 'widthPercent': 0.45, 'rescaleHeight': False, 'trialN': 53, 'loaded': True, 'loadedTime': 3998, 'positionName': 'RIGHT', 'positionCoords': [565.76, 102.5], 'bid': 4.96}]",104426.30000001192,1669833494127,eggs,shreddedwheatwithmilk,4.94,4.96,0.019999999999999574,shreddedwheatwithmilk,2072.699999988079,2073,2073.099999964237,True,i,107008.89999997616,2582.599999964237,1669833496709,2582,HRV,HRV_0181,2022-11-30 18:42:46
54,"[{'imgObject': {}, 'id': 'cocktailshrimp', 'src': '/static/foodstim60/cocktailshrimp.jpg', 'key': 'u', 'origWidth': 410, 'origHeight': 410, 'width': 410, 'height': 410, 'widthPercent': 0.45, 'rescaleHeight': False, 'trialN': 54, 'loaded': True, 'loadedTime': 4073.800000011921, 'positionName': 'LEFT', 'positionCoords': [112.24, 102.5], 'bid': 9.85}, {'imgObject': {}, 'id': 'luckycharms', 'src': '/static/foodstim60/luckycharms.jpg', 'key': 'i', 'origWidth': 410, 'origHeight': 409, 'width': 410, 'height': 409, 'widthPercent': 0.45, 'rescaleHeight': False, 'trialN': 54, 'loaded': True, 'loadedTime': 4210, 'positionName': 'RIGHT', 'positionCoords': [565.76, 103], 'bid': 5.14}]",107009.19999998808,1669833496709,cocktailshrimp,luckycharms,9.85,5.14,-4.71,cocktailshrimp,914.0,915,914.5,True,u,108427.59999996424,1418.3999999761581,1669833498128,1419,HRV,HRV_0181,2022-11-30 18:42:46
55,"[{'imgObject': {}, 'id': 'corn cob', 'src': '/static/foodstim60/corn cob.jpg', 'key': 'u', 'origWidth': 411, 'origHeight': 411, 'width': 411, 'height': 411, 'widthPercent': 0.45, 'rescaleHeight': False, 'trialN': 55, 'loaded': True, 'loadedTime': 4647, 'positionName': 'LEFT', 'positionCoords': [111.24, 102], 'bid': 4.96}, {'imgObject': {}, 'id': 'seaweed', 'src': '/static/foodstim60/seaweed.jpg', 'key': 'i', 'origWidth': 410, 'origHeight': 410, 'width': 410, 'height': 410, 'widthPercent': 0.45, 'rescaleHeight': False, 'trialN': 55, 'loaded': True, 'loadedTime': 4672.199999988079, 'positionName': 'RIGHT', 'positionCoords': [565.76, 102.5], 'bid': 0.05}]",108427.69999998808,1669833498128,corn cob,seaweed,4.96,0.05,-4.91,corn cob,1111.199999988079,1112,1111.699999988079,True,u,110053.80000001192,1626.1000000238419,1669833499754,1626,HRV,HRV_0181,2022-11-30 18:42:46
56,"[{'imgObject': {}, 'id': 'raisin bran w milk', 'src': '/static/foodstim60/raisin bran w milk.jpg', 'key': 'u', 'origWidth': 411, 'origHeight': 411, 'width': 411, 'height': 411, 'widthPercent': 0.45, 'rescaleHeight': False, 'trialN': 56, 'loaded': True, 'loadedTime': 4600.899999976158, 'positionName': 'LEFT', 'positionCoords': [111.24, 102], 'bid': 4.88}, {'imgObject': {}, 'id': 'corn cob', 'src': '/static/foodstim60/corn cob.jpg', 'key': 'i', 'origWidth': 411, 'origHeight': 411, 'width': 411, 'height': 411, 'widthPercent': 0.45, 'rescaleHeight': False, 'trialN': 56, 'loaded': True, 'loadedTime': 4645.699999988079, 'positionName': 'RIGHT', 'positionCoords': [565.76, 102], 'bid': 4.96}]",110054.0,1669833499754,raisin bran w milk,corn cob,4.88,4.96,0.08000000000000007,corn cob,1836.8999999761581,1838,1837.5,True,i,112397.89999997616,2343.899999976158,1669833502098,2344,HRV,HRV_0181,2022-11-30 18:42:46
57,"[{'imgObject': {}, 'id': 'burrito', 'src': '/static/foodstim60/burrito.jpg', 'key': 'u', 'origWidth': 410, 'origHeight': 410, 'width': 410, 'height': 410, 'widthPercent': 0.45, 'rescaleHeight': False, 'trialN': 57, 'loaded': True, 'loadedTime': 4484.800000011921, 'positionName': 'LEFT', 'positionCoords': [112.24, 102.5], 'bid': 2.86}, {'imgObject': {}, 'id': 'bagel plain', 'src': '/static/foodstim60/bagel plain.jpg', 'key': 'i', 'origWidth': 410, 'origHeight': 410, 'width': 410, 'height': 410, 'widthPercent': 0.45, 'rescaleHeight': False, 'trialN': 57, 'loaded': True, 'loadedTime': 3973.399999976158, 'positionName': 'RIGHT', 'positionCoords': [565.76, 102.5], 'bid': 0.97}]",112398.09999996424,1669833502098,burrito,bagel plain,2.86,0.97,-1.89,burrito,1060.800000011921,1062,1061.300000011921,True,u,113963.30000001192,1565.2000000476837,1669833503664,1566,HRV,HRV_0181,2022-11-30 18:42:46
58,"[{'imgObject': {}, 'id': 'grilled chicken strips', 'src': '/static/foodstim60/grilled chicken strips.jpg', 'key': 'u', 'origWidth': 410, 'origHeight': 411, 'width': 410, 'height': 411, 'widthPercent': 0.45, 'rescaleHeight': False, 'trialN': 58, 'loaded': True, 'loadedTime': 4350.899999976158, 'positionName': 'LEFT', 'positionCoords': [112.24, 102], 'bid': 8.950000000000001}, {'imgObject': {}, 'id': 'banana', 'src': '/static/foodstim60/banana.jpg', 'key': 'i', 'origWidth': 410, 'origHeight': 410, 'width': 410, 'height': 410, 'widthPercent': 0.45, 'rescaleHeight': False, 'trialN': 58, 'loaded': True, 'loadedTime': 4503.699999988079, 'positionName': 'RIGHT', 'positionCoords': [565.76, 102.5], 'bid': 0.55}]",113963.5,1669833503664,grilled chicken strips,banana,8.950000000000001,0.55,-8.4,grilled chicken strips,1079.3999999761581,1080,1079.8999999761581,True,u,115552.80000001192,1589.300000011921,1669833505253,1589,HRV,HRV_0181,2022-11-30 18:42:46
59,"[{'imgObject': {}, 'id': 'grilled chicken strips', 'src': '/static/foodstim60/grilled chicken strips.jpg', 'key': 'u', 'origWidth': 410, 'origHeight': 411, 'width': 410, 'height': 411, 'widthPercent': 0.45, 'rescaleHeight': False, 'trialN': 59, 'loaded': True, 'loadedTime': 4352.300000011921, 'positionName': 'LEFT', 'positionCoords': [112.24, 102], 'bid': 8.950000000000001}, {'imgObject': {}, 'id': 'ice cream sundae 002', 'src': '/static/foodstim60/ice cream sundae 002.jpg', 'key': 'i', 'origWidth': 409, 'origHeight': 409, 'width': 409, 'height': 409, 'widthPercent': 0.45, 'rescaleHeight': False, 'trialN': 59, 'loaded': True, 'loadedTime': 4204.899999976158, 'positionName': 'RIGHT', 'positionCoords': [565.76, 103], 'bid': 9.13}]",115553.0,1669833505253,grilled chicken strips,ice cream sundae 002,8.950000000000001,9.13,0.17999999999999972,ice cream sundae 002,1089.800000011921,1091,1090.3999999761581,True,i,117156.09999996424,1603.0999999642372,1669833506856,1603,HRV,HRV_0181,2022-11-30 18:42:46
60,"[{'imgObject': {}, 'id': 'hotdog w must', 'src': '/static/foodstim60/hotdog w must.jpg', 'key': 'u', 'origWidth': 409, 'origHeight': 409, 'width': 409, 'height': 409, 'widthPercent': 0.45, 'rescaleHeight': False, 'trialN': 60, 'loaded': True, 'loadedTime': 4184.399999976158, 'positionName': 'LEFT', 'positionCoords': [113.24, 103], 'bid': 0.91}, {'imgObject': {}, 'id': 'orange slices', 'src': '/static/foodstim60/orange slices.jpg', 'key': 'i', 'origWidth': 409, 'origHeight': 410, 'width': 409, 'height': 410, 'widthPercent': 0.45, 'rescaleHeight': False, 'trialN': 60, 'loaded': True, 'loadedTime': 4080.699999988079, 'positionName': 'RIGHT', 'positionCoords': [565.76, 102.5], 'bid': 9.02}]",117156.30000001192,1669833506857,hotdog w must,orange slices,0.91,9.02,8.11,orange slices,1694.8999999761581,1695,1695.3999999761581,True,i,119362.89999997616,2206.599999964237,1669833509063,2206,HRV,HRV_0181,2022-11-30 18:42:46
61,"[{'imgObject': {}, 'id': 'yogurt no spoon', 'src': '/static/foodstim60/yogurt no spoon.jpg', 'key': 'u', 'origWidth': 411, 'origHeight': 410, 'width': 411, 'height': 410, 'widthPercent': 0.45, 'rescaleHeight': False, 'trialN': 61, 'loaded': True, 'loadedTime': 4313.599999964237, 'positionName': 'LEFT', 'positionCoords': [111.24, 102.5], 'bid': 6.47}, {'imgObject': {}, 'id': 'strawberries', 'src': '/static/foodstim60/strawberries.jpg', 'key': 'i', 'origWidth': 410, 'origHeight': 410, 'width': 410, 'height': 410, 'widthPercent': 0.45, 'rescaleHeight': False, 'trialN': 61, 'loaded': True, 'loadedTime': 4504.099999964237, 'positionName': 'RIGHT', 'positionCoords': [565.76, 102.5], 'bid': 9.87}]",119363.09999996424,1669833509063,yogurt no spoon,strawberries,6.47,9.87,3.3999999999999995,strawberries,1455.800000011921,1457,1456.300000011921,True,i,121321.09999996424,1958.0,1669833511021,1958,HRV,HRV_0181,2022-11-30 18:42:46
62,"[{'imgObject': {}, 'id': 'avocado', 'src': '/static/foodstim60/avocado.jpg', 'key': 'u', 'origWidth': 409, 'origHeight': 409, 'width': 409, 'height': 409, 'widthPercent': 0.45, 'rescaleHeight': False, 'trialN': 62, 'loaded': True, 'loadedTime': 4577.199999988079, 'positionName': 'LEFT', 'positionCoords': [113.24, 103], 'bid': 0.14}, {'imgObject': {}, 'id': 'steak', 'src': '/static/foodstim60/steak.jpg', 'key': 'i', 'origWidth': 410, 'origHeight': 410, 'width': 410, 'height': 410, 'widthPercent': 0.45, 'rescaleHeight': False, 'trialN': 62, 'loaded': True, 'loadedTime': 4212.800000011921, 'positionName': 'RIGHT', 'positionCoords': [565.76, 102.5], 'bid': 5.07}]",121321.30000001192,1669833511022,avocado,steak,0.14,5.07,4.930000000000001,steak,1129.5,1130,1130.0,True,i,122955.80000001192,1634.5,1669833512656,1634,HRV,HRV_0181,2022-11-30 18:42:46
63,"[{'imgObject': {}, 'id': 'mac & cheese', 'src': '/static/foodstim60/mac & cheese.jpg', 'key': 'u', 'origWidth': 410, 'origHeight': 410, 'width': 410, 'height': 410, 'widthPercent': 0.45, 'rescaleHeight': False, 'trialN': 63, 'loaded': True, 'loadedTime': 4270.5, 'positionName': 'LEFT', 'positionCoords': [112.24, 102.5], 'bid': 1.61}, {'imgObject': {}, 'id': 'bagel plain', 'src': '/static/foodstim60/bagel plain.jpg', 'key': 'i', 'origWidth': 410, 'origHeight': 410, 'width': 410, 'height': 410, 'widthPercent': 0.45, 'rescaleHeight': False, 'trialN': 63, 'loaded': True, 'loadedTime': 3971.199999988079, 'positionName': 'RIGHT', 'positionCoords': [565.76, 102.5], 'bid': 0.97}]",122956.0,1669833512656,mac & cheese,bagel plain,1.61,0.97,-0.6400000000000001,mac & cheese,2182.800000011921,2184,2183.300000011921,True,u,125651.19999998808,2695.199999988079,1669833515351,2695,HRV,HRV_0181,2022-11-30 18:42:46
64,"[{'imgObject': {}, 'id': 'pear', 'src': '/static/foodstim60/pear.jpg', 'key': 'u', 'origWidth': 411, 'origHeight': 410, 'width': 411, 'height': 410, 'widthPercent': 0.45, 'rescaleHeight': False, 'trialN': 64, 'loaded': True, 'loadedTime': 4027.099999964237, 'positionName': 'LEFT', 'positionCoords': [111.24, 102.5], 'bid': 7.86}, {'imgObject': {}, 'id': 'steak', 'src': '/static/foodstim60/steak.jpg', 'key': 'i', 'origWidth': 410, 'origHeight': 410, 'width': 410, 'height': 410, 'widthPercent': 0.45, 'rescaleHeight': False, 'trialN': 64, 'loaded': True, 'loadedTime': 4212.899999976158, 'positionName': 'RIGHT', 'positionCoords': [565.76, 102.5], 'bid': 5.07}]",125651.30000001192,1669833515352,pear,steak,7.86,5.07,-2.79,pear,1151.5,1152,1152.0,True,u,127324.19999998808,1672.8999999761581,1669833517024,1672,HRV,HRV_0181,2022-11-30 18:42:46
65,"[{'imgObject': {}, 'id': 'grilled chicken strips', 'src': '/static/foodstim60/grilled chicken strips.jpg', 'key': 'u', 'origWidth': 410, 'origHeight': 411, 'width': 410, 'height': 411, 'widthPercent': 0.45, 'rescaleHeight': False, 'trialN': 65, 'loaded': True, 'loadedTime': 4352.399999976158, 'positionName': 'LEFT', 'positionCoords': [112.24, 102], 'bid': 8.950000000000001}, {'imgObject': {}, 'id': 'blueberries', 'src': '/static/foodstim60/blueberries.jpg', 'key': 'i', 'origWidth': 411, 'origHeight': 411, 'width': 411, 'height': 411, 'widthPercent': 0.45, 'rescaleHeight': False, 'trialN': 65, 'loaded': True, 'loadedTime': 4262.300000011921, 'positionName': 'RIGHT', 'positionCoords': [565.76, 102], 'bid': 9.9}]",127324.30000001192,1669833517025,grilled chicken strips,blueberries,8.950000000000001,9.9,0.9499999999999993,blueberries,870.5999999642372,871,871.0999999642372,True,i,128705.80000001192,1381.5,1669833518406,1381,HRV,HRV_0181,2022-11-30 18:42:46
66,"[{'imgObject': {}, 'id': 'salad w chicken', 'src': '/static/foodstim60/salad w chicken.jpg', 'key': 'u', 'origWidth': 411, 'origHeight': 411, 'width': 411, 'height': 411, 'widthPercent': 0.45, 'rescaleHeight': False, 'trialN': 66, 'loaded': True, 'loadedTime': 4333.599999964237, 'positionName': 'LEFT', 'positionCoords': [111.24, 102], 'bid': 9.81}, {'imgObject': {}, 'id': 'eggsalad', 'src': '/static/foodstim60/eggsalad.jpg', 'key': 'i', 'origWidth': 410, 'origHeight': 409, 'width': 410, 'height': 409, 'widthPercent': 0.45, 'rescaleHeight': False, 'trialN': 66, 'loaded': True, 'loadedTime': 4054.199999988079, 'positionName': 'RIGHT', 'positionCoords': [565.76, 103], 'bid': 7.42}]",128706.09999996424,1669833518406,salad w chicken,eggsalad,9.81,7.42,-2.3900000000000006,salad w chicken,1024.9000000357628,1026,1025.4000000357628,True,u,130245.69999998808,1539.6000000238419,1669833519946,1540,HRV,HRV_0181,2022-11-30 18:42:46
67,"[{'imgObject': {}, 'id': 'hotdog w must', 'src': '/static/foodstim60/hotdog w must.jpg', 'key': 'u', 'origWidth': 409, 'origHeight': 409, 'width': 409, 'height': 409, 'widthPercent': 0.45, 'rescaleHeight': False, 'trialN': 67, 'loaded': True, 'loadedTime': 4186, 'positionName': 'LEFT', 'positionCoords': [113.24, 103], 'bid': 0.91}, {'imgObject': {}, 'id': 'turkey sandwich', 'src': '/static/foodstim60/turkey sandwich.jpg', 'key': 'i', 'origWidth': 409, 'origHeight': 409, 'width': 409, 'height': 409, 'widthPercent': 0.45, 'rescaleHeight': False, 'trialN': 67, 'loaded': True, 'loadedTime': 4374.599999964237, 'positionName': 'RIGHT', 'positionCoords': [565.76, 103], 'bid': 2.83}]",130245.89999997616,1669833519946,hotdog w must,turkey sandwich,0.91,2.83,1.92,turkey sandwich,1548.9000000357628,1550,1549.4000000357628,True,i,132297.0,2051.100000023842,1669833521997,2051,HRV,HRV_0181,2022-11-30 18:42:46
68,"[{'imgObject': {}, 'id': 'turkeysandwich', 'src': '/static/foodstim60/turkeysandwich.jpg', 'key': 'u', 'origWidth': 409, 'origHeight': 409, 'width': 409, 'height': 409, 'widthPercent': 0.45, 'rescaleHeight': False, 'trialN': 68, 'loaded': True, 'loadedTime': 4044.800000011921, 'positionName': 'LEFT', 'positionCoords': [113.24, 103], 'bid': 2.48}, {'imgObject': {}, 'id': 'salad w chicken', 'src': '/static/foodstim60/salad w chicken.jpg', 'key': 'i', 'origWidth': 411, 'origHeight': 411, 'width': 411, 'height': 411, 'widthPercent': 0.45, 'rescaleHeight': False, 'trialN': 68, 'loaded': True, 'loadedTime': 4332.399999976158, 'positionName': 'RIGHT', 'positionCoords': [565.76, 102], 'bid': 9.81}]",132297.30000001192,1669833521998,turkeysandwich,salad w chicken,2.48,9.81,7.33,salad w chicken,1161.5,1161,1161.8999999761581,True,i,133968.89999997616,1671.5999999642372,1669833523669,1671,HRV,HRV_0181,2022-11-30 18:42:46
69,"[{'imgObject': {}, 'id': 'avocado', 'src': '/static/foodstim60/avocado.jpg', 'key': 'u', 'origWidth': 409, 'origHeight': 409, 'width': 409, 'height': 409, 'widthPercent': 0.45, 'rescaleHeight': False, 'trialN': 69, 'loaded': True, 'loadedTime': 4577.399999976158, 'positionName': 'LEFT', 'positionCoords': [113.24, 103], 'bid': 0.14}, {'imgObject': {}, 'id': 'turkeysandwich', 'src': '/static/foodstim60/turkeysandwich.jpg', 'key': 'i', 'origWidth': 409, 'origHeight': 409, 'width': 409, 'height': 409, 'widthPercent': 0.45, 'rescaleHeight': False, 'trialN': 69, 'loaded': True, 'loadedTime': 4052.099999964237, 'positionName': 'RIGHT', 'positionCoords': [565.76, 103], 'bid': 2.48}]",133969.19999998808,1669833523669,avocado,turkeysandwich,0.14,2.48,2.34,turkeysandwich,1073.5,1074,1074.0,True,i,135557.09999996424,1587.8999999761581,1669833525257,1588,HRV,HRV_0181,2022-11-30 18:42:46
70,"[{'imgObject': {}, 'id': 'omelette', 'src': '/static/foodstim60/omelette.jpg', 'key': 'u', 'origWidth': 410, 'origHeight': 409, 'width': 410, 'height': 409, 'widthPercent': 0.45, 'rescaleHeight': False, 'trialN': 70, 'loaded': True, 'loadedTime': 4623.099999964237, 'positionName': 'LEFT', 'positionCoords': [112.24, 103], 'bid': 0.44}, {'imgObject': {}, 'id': 'mac & cheese', 'src': '/static/foodstim60/mac & cheese.jpg', 'key': 'i', 'origWidth': 410, 'origHeight': 410, 'width': 410, 'height': 410, 'widthPercent': 0.45, 'rescaleHeight': False, 'trialN': 70, 'loaded': True, 'loadedTime': 4270.399999976158, 'positionName': 'RIGHT', 'positionCoords': [565.76, 102.5], 'bid': 1.61}]",135557.19999998808,1669833525258,omelette,mac & cheese,0.44,1.61,1.1700000000000002,mac & cheese,1245.6000000238419,1232,1246.0,True,i,137307.09999996424,1749.8999999761581,1669833526994,1736,HRV,HRV_0181,2022-11-30 18:42:46
71,"[{'imgObject': {}, 'id': 'tacos', 'src': '/static/foodstim60/tacos.jpg', 'key': 'u', 'origWidth': 411, 'origHeight': 411, 'width': 411, 'height': 411, 'widthPercent': 0.45, 'rescaleHeight': False, 'trialN': 71, 'loaded': True, 'loadedTime': 4236.599999964237, 'positionName': 'LEFT', 'positionCoords': [111.24, 102], 'bid': 0.29}, {'imgObject': {}, 'id': 'omelette', 'src': '/static/foodstim60/omelette.jpg', 'key': 'i', 'origWidth': 410, 'origHeight': 409, 'width': 410, 'height': 409, 'widthPercent': 0.45, 'rescaleHeight': False, 'trialN': 71, 'loaded': True, 'loadedTime': 4622.899999976158, 'positionName': 'RIGHT', 'positionCoords': [565.76, 103], 'bid': 0.44}]",137307.19999998808,1669833526994,tacos,omelette,0.29,0.44,0.15000000000000002,tacos,1223.6000000238419,1224,1224.0,True,u,139041.5,1734.300000011921,1669833528729,1735,HRV,HRV_0181,2022-11-30 18:42:46
72,"[{'imgObject': {}, 'id': 'cherries', 'src': '/static/foodstim60/cherries.jpg', 'key': 'u', 'origWidth': 410, 'origHeight': 411, 'width': 410, 'height': 411, 'widthPercent': 0.45, 'rescaleHeight': False, 'trialN': 72, 'loaded': True, 'loadedTime': 4013.199999988079, 'positionName': 'LEFT', 'positionCoords': [112.24, 102], 'bid': 9.9}, {'imgObject': {}, 'id': 'cocktailshrimp', 'src': '/static/foodstim60/cocktailshrimp.jpg', 'key': 'i', 'origWidth': 410, 'origHeight': 410, 'width': 410, 'height': 410, 'widthPercent': 0.45, 'rescaleHeight': False, 'trialN': 72, 'loaded': True, 'loadedTime': 4073.699999988079, 'positionName': 'RIGHT', 'positionCoords': [565.76, 102.5], 'bid': 9.85}]",139041.69999998808,1669833528729,cherries,cocktailshrimp,9.9,9.85,-0.05000000000000071,cocktailshrimp,2097.399999976158,2098,2097.899999976158,True,i,141642.59999996424,2600.899999976158,1669833531330,2601,HRV,HRV_0181,2022-11-30 18:42:46
73,"[{'imgObject': {}, 'id': 'mashed potato', 'src': '/static/foodstim60/mashed potato.jpg', 'key': 'u', 'origWidth': 409, 'origHeight': 409, 'width': 409, 'height': 409, 'widthPercent': 0.45, 'rescaleHeight': False, 'trialN': 73, 'loaded': True, 'loadedTime': 4439.599999964237, 'positionName': 'LEFT', 'positionCoords': [113.24, 103], 'bid': 2.07}, {'imgObject': {}, 'id': 'turkeysandwich', 'src': '/static/foodstim60/turkeysandwich.jpg', 'key': 'i', 'origWidth': 409, 'origHeight': 409, 'width': 409, 'height': 409, 'widthPercent': 0.45, 'rescaleHeight': False, 'trialN': 73, 'loaded': True, 'loadedTime': 4045.199999988079, 'positionName': 'RIGHT', 'positionCoords': [565.76, 103], 'bid': 2.48}]",141642.80000001192,1669833531330,mashed potato,turkeysandwich,2.07,2.48,0.41000000000000014,mashed potato,2679.699999988079,2680,2680.099999964237,True,u,144834.80000001192,3192.0,1669833534522,3192,HRV,HRV_0181,2022-11-30 18:42:46
74,"[{'imgObject': {}, 'id': 'fruitsalad', 'src': '/static/foodstim60/fruitsalad.jpg', 'key': 'u', 'origWidth': 410, 'origHeight': 410, 'width': 410, 'height': 410, 'widthPercent': 0.45, 'rescaleHeight': False, 'trialN': 74, 'loaded': True, 'loadedTime': 4515.399999976158, 'positionName': 'LEFT', 'positionCoords': [112.24, 102.5], 'bid': 9.9}, {'imgObject': {}, 'id': 'ice cream sundae 002', 'src': '/static/foodstim60/ice cream sundae 002.jpg', 'key': 'i', 'origWidth': 409, 'origHeight': 409, 'width': 409, 'height': 409, 'widthPercent': 0.45, 'rescaleHeight': False, 'trialN': 74, 'loaded': True, 'loadedTime': 4195.800000011921, 'positionName': 'RIGHT', 'positionCoords': [565.76, 103], 'bid': 9.13}]",144835.19999998808,1669833534522,fruitsalad,ice cream sundae 002,9.9,9.13,-0.7699999999999996,fruitsalad,959.5,960,959.8999999761581,True,u,146307.80000001192,1472.6000000238419,1669833535995,1473,HRV,HRV_0181,2022-11-30 18:42:46
75,"[{'imgObject': {}, 'id': 'roastedpotatoes', 'src': '/static/foodstim60/roastedpotatoes.jpg', 'key': 'u', 'origWidth': 409, 'origHeight': 410, 'width': 409, 'height': 410, 'widthPercent': 0.45, 'rescaleHeight': False, 'trialN': 75, 'loaded': True, 'loadedTime': 4651, 'positionName': 'LEFT', 'positionCoords': [113.24, 102.5], 'bid': 9.85}, {'imgObject': {}, 'id': 'burrito', 'src': '/static/foodstim60/burrito.jpg', 'key': 'i', 'origWidth': 410, 'origHeight': 410, 'width': 410, 'height': 410, 'widthPercent': 0.45, 'rescaleHeight': False, 'trialN': 75, 'loaded': True, 'loadedTime': 4485.099999964237, 'positionName': 'RIGHT', 'positionCoords': [565.76, 102.5], 'bid': 2.86}]",146308.09999996424,1669833535995,roastedpotatoes,burrito,9.85,2.86,-6.99,roastedpotatoes,1102.4000000357628,1103,1103.0,True,u,147926.69999998808,1618.6000000238419,1669833537614,1619,HRV,HRV_0181,2022-11-30 18:42:46
76,"[{'imgObject': {}, 'id': 'edamame', 'src': '/static/foodstim60/edamame.jpg', 'key': 'u', 'origWidth': 409, 'origHeight': 410, 'width': 409, 'height': 410, 'widthPercent': 0.45, 'rescaleHeight': False, 'trialN': 76, 'loaded': True, 'loadedTime': 4686.099999964237, 'positionName': 'LEFT', 'positionCoords': [113.24, 102.5], 'bid': 0.12}, {'imgObject': {}, 'id': 'Tribe humus pita', 'src': '/static/foodstim60/Tribe humus pita.jpg', 'key': 'i', 'origWidth': 411, 'origHeight': 411, 'width': 411, 'height': 411, 'widthPercent': 0.45, 'rescaleHeight': False, 'trialN': 76, 'loaded': True, 'loadedTime': 4139.5, 'positionName': 'RIGHT', 'positionCoords': [565.76, 102], 'bid': 0.12}]",147926.80000001192,1669833537614,edamame,Tribe humus pita,0.12,0.12,0.0,edamame,2139.899999976158,2140,2140.399999976158,True,u,150580.59999996424,2653.7999999523163,1669833540268,2654,HRV,HRV_0181,2022-11-30 18:42:46
77,"[{'imgObject': {}, 'id': 'pear', 'src': '/static/foodstim60/pear.jpg', 'key': 'u', 'origWidth': 411, 'origHeight': 410, 'width': 411, 'height': 410, 'widthPercent': 0.45, 'rescaleHeight': False, 'trialN': 77, 'loaded': True, 'loadedTime': 4027.199999988079, 'positionName': 'LEFT', 'positionCoords': [111.24, 102.5], 'bid': 7.86}, {'imgObject': {}, 'id': 'fruitsalad', 'src': '/static/foodstim60/fruitsalad.jpg', 'key': 'i', 'origWidth': 410, 'origHeight': 410, 'width': 410, 'height': 410, 'widthPercent': 0.45, 'rescaleHeight': False, 'trialN': 77, 'loaded': True, 'loadedTime': 4515.899999976158, 'positionName': 'RIGHT', 'positionCoords': [565.76, 102.5], 'bid': 9.9}]",150580.80000001192,1669833540268,pear,fruitsalad,7.86,9.9,2.04,fruitsalad,1470.199999988079,1471,1470.5999999642372,True,i,152553.59999996424,1972.7999999523163,1669833542241,1973,HRV,HRV_0181,2022-11-30 18:42:46
78,"[{'imgObject': {}, 'id': 'pear', 'src': '/static/foodstim60/pear.jpg', 'key': 'u', 'origWidth': 411, 'origHeight': 410, 'width': 411, 'height': 410, 'widthPercent': 0.45, 'rescaleHeight': False, 'trialN': 78, 'loaded': True, 'loadedTime': 4027.300000011921, 'positionName': 'LEFT', 'positionCoords': [111.24, 102.5], 'bid': 7.86}, {'imgObject': {}, 'id': 'rigatoni and sauce', 'src': '/static/foodstim60/rigatoni and sauce.jpg', 'key': 'i', 'origWidth': 410, 'origHeight': 411, 'width': 410, 'height': 411, 'widthPercent': 0.45, 'rescaleHeight': False, 'trialN': 78, 'loaded': True, 'loadedTime': 4477.199999988079, 'positionName': 'RIGHT', 'positionCoords': [565.76, 102], 'bid': 7.15}]",152553.80000001192,1669833542241,pear,rigatoni and sauce,7.86,7.15,-0.71,rigatoni and sauce,1688.7999999523163,1689,1689.3999999761581,True,i,154759.59999996424,2205.7999999523163,1669833544447,2206,HRV,HRV_0181,2022-11-30 18:42:46
79,"[{'imgObject': {}, 'id': 'omelette', 'src': '/static/foodstim60/omelette.jpg', 'key': 'u', 'origWidth': 410, 'origHeight': 409, 'width': 410, 'height': 409, 'widthPercent': 0.45, 'rescaleHeight': False, 'trialN': 79, 'loaded': True, 'loadedTime': 4622.599999964237, 'positionName': 'LEFT', 'positionCoords': [112.24, 103], 'bid': 0.44}, {'imgObject': {}, 'id': 'burger', 'src': '/static/foodstim60/burger.jpg', 'key': 'i', 'origWidth': 409, 'origHeight': 409, 'width': 409, 'height': 409, 'widthPercent': 0.45, 'rescaleHeight': False, 'trialN': 79, 'loaded': True, 'loadedTime': 4142.899999976158, 'positionName': 'RIGHT', 'positionCoords': [565.76, 103], 'bid': 8.47}]",154759.80000001192,1669833544447,omelette,burger,0.44,8.47,8.030000000000001,burger,1098.7999999523163,1099,1099.2999999523163,True,i,156370.0,1610.199999988079,1669833546057,1610,HRV,HRV_0181,2022-11-30 18:42:46
80,"[{'imgObject': {}, 'id': 'Grapes', 'src': '/static/foodstim60/Grapes.jpg', 'key': 'u', 'origWidth': 411, 'origHeight': 411, 'width': 411, 'height': 411, 'widthPercent': 0.45, 'rescaleHeight': False, 'trialN': 80, 'loaded': True, 'loadedTime': 4293.300000011921, 'positionName': 'LEFT', 'positionCoords': [111.24, 102], 'bid': 9.48}, {'imgObject': {}, 'id': 'rigatoni and sauce', 'src': '/static/foodstim60/rigatoni and sauce.jpg', 'key': 'i', 'origWidth': 410, 'origHeight': 411, 'width': 410, 'height': 411, 'widthPercent': 0.45, 'rescaleHeight': False, 'trialN': 80, 'loaded': True, 'loadedTime': 4476.899999976158, 'positionName': 'RIGHT', 'positionCoords': [565.76, 102], 'bid': 7.15}]",156370.5,1669833546057,Grapes,rigatoni and sauce,9.48,7.15,-2.33,rigatoni and sauce,1920.199999988079,1921,1920.699999988079,True,i,158802.0,2431.5,1669833548489,2432,HRV,HRV_0181,2022-11-30 18:42:46
81,"[{'imgObject': {}, 'id': 'salmon', 'src': '/static/foodstim60/salmon.jpg', 'key': 'u', 'origWidth': 410, 'origHeight': 409, 'width': 410, 'height': 409, 'widthPercent': 0.45, 'rescaleHeight': False, 'trialN': 81, 'loaded': True, 'loadedTime': 4107.099999964237, 'positionName': 'LEFT', 'positionCoords': [112.24, 103], 'bid': 0.14}, {'imgObject': {}, 'id': 'cheerios', 'src': '/static/foodstim60/cheerios.jpg', 'key': 'i', 'origWidth': 409, 'origHeight': 410, 'width': 409, 'height': 410, 'widthPercent': 0.45, 'rescaleHeight': False, 'trialN': 81, 'loaded': True, 'loadedTime': 4585.899999976158, 'positionName': 'RIGHT', 'positionCoords': [565.76, 102.5], 'bid': 5.01}]",158802.30000001192,1669833548489,salmon,cheerios,0.14,5.01,4.87,cheerios,1360.199999988079,1361,1360.8999999761581,True,i,160674.5,1872.199999988079,1669833550362,1873,HRV,HRV_0181,2022-11-30 18:42:46
82,"[{'imgObject': {}, 'id': 'turkey sandwich', 'src': '/static/foodstim60/turkey sandwich.jpg', 'key': 'u', 'origWidth': 409, 'origHeight': 409, 'width': 409, 'height': 409, 'widthPercent': 0.45, 'rescaleHeight': False, 'trialN': 82, 'loaded': True, 'loadedTime': 4374.699999988079, 'positionName': 'LEFT', 'positionCoords': [113.24, 103], 'bid': 2.83}, {'imgObject': {}, 'id': 'rigatoni', 'src': '/static/foodstim60/rigatoni.jpg', 'key': 'i', 'origWidth': 411, 'origHeight': 411, 'width': 411, 'height': 411, 'widthPercent': 0.45, 'rescaleHeight': False, 'trialN': 82, 'loaded': True, 'loadedTime': 4447.800000011921, 'positionName': 'RIGHT', 'positionCoords': [565.76, 102], 'bid': 5}]",160674.59999996424,1669833550362,turkey sandwich,rigatoni,2.83,5.0,2.17,rigatoni,2640.300000011921,2641,2640.900000035763,True,i,163829.5,3154.900000035763,1669833553517,3155,HRV,HRV_0181,2022-11-30 18:42:46
83,"[{'imgObject': {}, 'id': 'fruitsalad', 'src': '/static/foodstim60/fruitsalad.jpg', 'key': 'u', 'origWidth': 410, 'origHeight': 410, 'width': 410, 'height': 410, 'widthPercent': 0.45, 'rescaleHeight': False, 'trialN': 83, 'loaded': True, 'loadedTime': 4515.699999988079, 'positionName': 'LEFT', 'positionCoords': [112.24, 102.5], 'bid': 9.9}, {'imgObject': {}, 'id': 'salad w chicken', 'src': '/static/foodstim60/salad w chicken.jpg', 'key': 'i', 'origWidth': 411, 'origHeight': 411, 'width': 411, 'height': 411, 'widthPercent': 0.45, 'rescaleHeight': False, 'trialN': 83, 'loaded': True, 'loadedTime': 4334.099999964237, 'positionName': 'RIGHT', 'positionCoords': [565.76, 102], 'bid': 9.81}]",163829.69999998808,1669833553517,fruitsalad,salad w chicken,9.9,9.81,-0.08999999999999986,salad w chicken,2236.899999976158,2237,2237.399999976158,True,i,166574.0,2744.300000011921,1669833556261,2744,HRV,HRV_0181,2022-11-30 18:42:46
84,"[{'imgObject': {}, 'id': 'hashbrowns', 'src': '/static/foodstim60/hashbrowns.jpg', 'key': 'u', 'origWidth': 411, 'origHeight': 410, 'width': 411, 'height': 410, 'widthPercent': 0.45, 'rescaleHeight': False, 'trialN': 84, 'loaded': True, 'loadedTime': 4024.599999964237, 'positionName': 'LEFT', 'positionCoords': [111.24, 102.5], 'bid': 0.22}, {'imgObject': {}, 'id': 'veggieswithdip', 'src': '/static/foodstim60/veggieswithdip.jpg', 'key': 'i', 'origWidth': 409, 'origHeight': 409, 'width': 409, 'height': 409, 'widthPercent': 0.45, 'rescaleHeight': False, 'trialN': 84, 'loaded': True, 'loadedTime': 4121.199999988079, 'positionName': 'RIGHT', 'positionCoords': [565.76, 103], 'bid': 0.14}]",166574.19999998808,1669833556261,hashbrowns,veggieswithdip,0.22,0.14,-0.07999999999999999,hashbrowns,1508.300000011921,1509,1508.800000011921,True,u,168594.39999997616,2020.199999988079,1669833558281,2020,HRV,HRV_0181,2022-11-30 18:42:46
85,"[{'imgObject': {}, 'id': 'fried eggs', 'src': '/static/foodstim60/fried eggs.jpg', 'key': 'u', 'origWidth': 410, 'origHeight': 410, 'width': 410, 'height': 410, 'widthPercent': 0.45, 'rescaleHeight': False, 'trialN': 85, 'loaded': True, 'loadedTime': 4287.800000011921, 'positionName': 'LEFT', 'positionCoords': [112.24, 102.5], 'bid': 5}, {'imgObject': {}, 'id': 'edamame', 'src': '/static/foodstim60/edamame.jpg', 'key': 'i', 'origWidth': 409, 'origHeight': 410, 'width': 409, 'height': 410, 'widthPercent': 0.45, 'rescaleHeight': False, 'trialN': 85, 'loaded': True, 'loadedTime': 4686.300000011921, 'positionName': 'RIGHT', 'positionCoords': [565.76, 102.5], 'bid': 0.12}]",168594.69999998808,1669833558282,fried eggs,edamame,5.0,0.12,-4.88,fried eggs,1791.800000011921,1792,1792.300000011921,True,u,170900.59999996424,2305.899999976158,1669833560588,2306,HRV,HRV_0181,2022-11-30 18:42:46
86,"[{'imgObject': {}, 'id': 'kiwi', 'src': '/static/foodstim60/kiwi.jpg', 'key': 'u', 'origWidth': 410, 'origHeight': 410, 'width': 410, 'height': 410, 'widthPercent': 0.45, 'rescaleHeight': False, 'trialN': 86, 'loaded': True, 'loadedTime': 4596.199999988079, 'positionName': 'LEFT', 'positionCoords': [112.24, 102.5], 'bid': 0.09}, {'imgObject': {}, 'id': 'olives', 'src': '/static/foodstim60/olives.jpg', 'key': 'i', 'origWidth': 410, 'origHeight': 410, 'width': 410, 'height': 410, 'widthPercent': 0.45, 'rescaleHeight': False, 'trialN': 86, 'loaded': True, 'loadedTime': 4634.899999976158, 'positionName': 'RIGHT', 'positionCoords': [565.76, 102.5], 'bid': 0.14}]",170900.80000001192,1669833560588,kiwi,olives,0.09,0.14,0.05000000000000002,kiwi,2029.7999999523163,2030,2030.199999988079,True,u,173438.5,2537.699999988079,1669833563126,2538,HRV,HRV_0181,2022-11-30 18:42:46
87,"[{'imgObject': {}, 'id': 'olives', 'src': '/static/foodstim60/olives.jpg', 'key': 'u', 'origWidth': 410, 'origHeight': 410, 'width': 410, 'height': 410, 'widthPercent': 0.45, 'rescaleHeight': False, 'trialN': 87, 'loaded': True, 'loadedTime': 4635, 'positionName': 'LEFT', 'positionCoords': [112.24, 102.5], 'bid': 0.14}, {'imgObject': {}, 'id': 'turkey sandwich', 'src': '/static/foodstim60/turkey sandwich.jpg', 'key': 'i', 'origWidth': 409, 'origHeight': 409, 'width': 409, 'height': 409, 'widthPercent': 0.45, 'rescaleHeight': False, 'trialN': 87, 'loaded': True, 'loadedTime': 4373.699999988079, 'positionName': 'RIGHT', 'positionCoords': [565.76, 103], 'bid': 2.83}]",173438.80000001192,1669833563126,olives,turkey sandwich,0.14,2.83,2.69,turkey sandwich,1076.0999999642372,1076,1076.5,True,i,175024.09999996424,1585.2999999523163,1669833564711,1585,HRV,HRV_0181,2022-11-30 18:42:46
88,"[{'imgObject': {}, 'id': 'mashed potato', 'src': '/static/foodstim60/mashed potato.jpg', 'key': 'u', 'origWidth': 409, 'origHeight': 409, 'width': 409, 'height': 409, 'widthPercent': 0.45, 'rescaleHeight': False, 'trialN': 88, 'loaded': True, 'loadedTime': 4442.099999964237, 'positionName': 'LEFT', 'positionCoords': [113.24, 103], 'bid': 2.07}, {'imgObject': {}, 'id': 'corn cob', 'src': '/static/foodstim60/corn cob.jpg', 'key': 'i', 'origWidth': 411, 'origHeight': 411, 'width': 411, 'height': 411, 'widthPercent': 0.45, 'rescaleHeight': False, 'trialN': 88, 'loaded': True, 'loadedTime': 4647.399999976158, 'positionName': 'RIGHT', 'positionCoords': [565.76, 102], 'bid': 4.96}]",175024.39999997616,1669833564711,mashed potato,corn cob,2.07,4.96,2.89,corn cob,2258.100000023842,2259,2258.5,True,i,177799.80000001192,2775.400000035763,1669833567487,2776,HRV,HRV_0181,2022-11-30 18:42:46
89,"[{'imgObject': {}, 'id': 'olives', 'src': '/static/foodstim60/olives.jpg', 'key': 'u', 'origWidth': 410, 'origHeight': 410, 'width': 410, 'height': 410, 'widthPercent': 0.45, 'rescaleHeight': False, 'trialN': 89, 'loaded': True, 'loadedTime': 4633.399999976158, 'positionName': 'LEFT', 'positionCoords': [112.24, 102.5], 'bid': 0.14}, {'imgObject': {}, 'id': 'veggieswithdip', 'src': '/static/foodstim60/veggieswithdip.jpg', 'key': 'i', 'origWidth': 409, 'origHeight': 409, 'width': 409, 'height': 409, 'widthPercent': 0.45, 'rescaleHeight': False, 'trialN': 89, 'loaded': True, 'loadedTime': 4121, 'positionName': 'RIGHT', 'positionCoords': [565.76, 103], 'bid': 0.14}]",177800.09999996424,1669833567487,olives,veggieswithdip,0.14,0.14,0.0,veggieswithdip,2314.400000035763,2315,2314.900000035763,True,i,180622.69999998808,2822.600000023842,1669833570310,2823,HRV,HRV_0181,2022-11-30 18:42:46
90,"[{'imgObject': {}, 'id': 'fruitsalad', 'src': '/static/foodstim60/fruitsalad.jpg', 'key': 'u', 'origWidth': 410, 'origHeight': 410, 'width': 410, 'height': 410, 'widthPercent': 0.45, 'rescaleHeight': False, 'trialN': 90, 'loaded': True, 'loadedTime': 4514.099999964237, 'positionName': 'LEFT', 'positionCoords': [112.24, 102.5], 'bid': 9.9}, {'imgObject': {}, 'id': 'cantaloupe', 'src': '/static/foodstim60/cantaloupe.jpg', 'key': 'i', 'origWidth': 409, 'origHeight': 409, 'width': 409, 'height': 409, 'widthPercent': 0.45, 'rescaleHeight': False, 'trialN': 90, 'loaded': True, 'loadedTime': 4567, 'positionName': 'RIGHT', 'positionCoords': [565.76, 103], 'bid': 9.96}]",184046.59999996424,1669833573734,fruitsalad,cantaloupe,9.9,9.96,0.0600000000000005,fruitsalad,2020.2000000476837,2020,2020.9000000357628,True,u,186583.80000001192,2537.2000000476837,1669833576271,2537,HRV,HRV_0181,2022-11-30 18:42:46
91,"[{'imgObject': {}, 'id': 'olives', 'src': '/static/foodstim60/olives.jpg', 'key': 'u', 'origWidth': 410, 'origHeight': 410, 'width': 410, 'height': 410, 'widthPercent': 0.45, 'rescaleHeight': False, 'trialN': 91, 'loaded': True, 'loadedTime': 4635, 'positionName': 'LEFT', 'positionCoords': [112.24, 102.5], 'bid': 0.14}, {'imgObject': {}, 'id': 'avocado', 'src': '/static/foodstim60/avocado.jpg', 'key': 'i', 'origWidth': 409, 'origHeight': 409, 'width': 409, 'height': 409, 'widthPercent': 0.45, 'rescaleHeight': False, 'trialN': 91, 'loaded': True, 'loadedTime': 4577.5, 'positionName': 'RIGHT', 'positionCoords': [565.76, 103], 'bid': 0.14}]",186584.19999998808,1669833576271,olives,avocado,0.14,0.14,0.0,olives,2106.199999988079,2107,2106.800000011921,True,u,189205.80000001192,2621.600000023842,1669833578893,2622,HRV,HRV_0181,2022-11-30 18:42:46
92,"[{'imgObject': {}, 'id': 'popsicles', 'src': '/static/foodstim60/popsicles.jpg', 'key': 'u', 'origWidth': 410, 'origHeight': 410, 'width': 410, 'height': 410, 'widthPercent': 0.45, 'rescaleHeight': False, 'trialN': 92, 'loaded': True, 'loadedTime': 4701.300000011921, 'positionName': 'LEFT', 'positionCoords': [112.24, 102.5], 'bid': 4.57}, {'imgObject': {}, 'id': 'granola w milk', 'src': '/static/foodstim60/granola w milk.jpg', 'key': 'i', 'origWidth': 410, 'origHeight': 410, 'width': 410, 'height': 410, 'widthPercent': 0.45, 'rescaleHeight': False, 'trialN': 92, 'loaded': True, 'loadedTime': 4660.399999976158, 'positionName': 'RIGHT', 'positionCoords': [565.76, 102.5], 'bid': 3.67}]",189206.09999996424,1669833578893,popsicles,granola w milk,4.57,3.67,-0.9000000000000004,granola w milk,1148.1000000238419,1149,1148.5,True,i,190863.30000001192,1657.2000000476837,1669833580550,1657,HRV,HRV_0181,2022-11-30 18:42:46
93,"[{'imgObject': {}, 'id': 'blueberries', 'src': '/static/foodstim60/blueberries.jpg', 'key': 'u', 'origWidth': 411, 'origHeight': 411, 'width': 411, 'height': 411, 'widthPercent': 0.45, 'rescaleHeight': False, 'trialN': 93, 'loaded': True, 'loadedTime': 4263.300000011921, 'positionName': 'LEFT', 'positionCoords': [111.24, 102], 'bid': 9.9}, {'imgObject': {}, 'id': 'roastedpotatoes', 'src': '/static/foodstim60/roastedpotatoes.jpg', 'key': 'i', 'origWidth': 409, 'origHeight': 410, 'width': 409, 'height': 410, 'widthPercent': 0.45, 'rescaleHeight': False, 'trialN': 93, 'loaded': True, 'loadedTime': 4651, 'positionName': 'RIGHT', 'positionCoords': [565.76, 102.5], 'bid': 9.85}]",190863.5,1669833580551,blueberries,roastedpotatoes,9.9,9.85,-0.05000000000000071,blueberries,946.5,947,947.6999999880791,True,u,192312.5,1449.0,1669833582000,1449,HRV,HRV_0181,2022-11-30 18:42:46
94,"[{'imgObject': {}, 'id': 'cherry tomato', 'src': '/static/foodstim60/cherry tomato.jpg', 'key': 'u', 'origWidth': 410, 'origHeight': 410, 'width': 410, 'height': 410, 'widthPercent': 0.45, 'rescaleHeight': False, 'trialN': 94, 'loaded': True, 'loadedTime': 4000.300000011921, 'positionName': 'LEFT', 'positionCoords': [112.24, 102.5], 'bid': 9.22}, {'imgObject': {}, 'id': 'Grapes', 'src': '/static/foodstim60/Grapes.jpg', 'key': 'i', 'origWidth': 411, 'origHeight': 411, 'width': 411, 'height': 411, 'widthPercent': 0.45, 'rescaleHeight': False, 'trialN': 94, 'loaded': True, 'loadedTime': 4294.899999976158, 'positionName': 'RIGHT', 'positionCoords': [565.76, 102], 'bid': 9.48}]",192312.69999998808,1669833582000,cherry tomato,Grapes,9.22,9.48,0.2599999999999998,Grapes,1337.699999988079,1338,1338.199999988079,True,i,194162.5,1849.800000011921,1669833583850,1850,HRV,HRV_0181,2022-11-30 18:42:46
95,"[{'imgObject': {}, 'id': 'blackbeanswithrice', 'src': '/static/foodstim60/blackbeanswithrice.jpg', 'key': 'u', 'origWidth': 410, 'origHeight': 410, 'width': 410, 'height': 410, 'widthPercent': 0.45, 'rescaleHeight': False, 'trialN': 95, 'loaded': True, 'loadedTime': 4342.199999988079, 'positionName': 'LEFT', 'positionCoords': [112.24, 102.5], 'bid': 0.14}, {'imgObject': {}, 'id': 'seaweed', 'src': '/static/foodstim60/seaweed.jpg', 'key': 'i', 'origWidth': 410, 'origHeight': 410, 'width': 410, 'height': 410, 'widthPercent': 0.45, 'rescaleHeight': False, 'trialN': 95, 'loaded': True, 'loadedTime': 4670.5, 'positionName': 'RIGHT', 'positionCoords': [565.76, 102.5], 'bid': 0.05}]",194162.69999998808,1669833583850,blackbeanswithrice,seaweed,0.14,0.05,-0.09000000000000001,blackbeanswithrice,1663.699999988079,1664,1664.300000011921,True,u,196328.59999996424,2165.899999976158,1669833586016,2166,HRV,HRV_0181,2022-11-30 18:42:46
96,"[{'imgObject': {}, 'id': 'pear', 'src': '/static/foodstim60/pear.jpg', 'key': 'u', 'origWidth': 411, 'origHeight': 410, 'width': 411, 'height': 410, 'widthPercent': 0.45, 'rescaleHeight': False, 'trialN': 96, 'loaded': True, 'loadedTime': 4026, 'positionName': 'LEFT', 'positionCoords': [111.24, 102.5], 'bid': 7.86}, {'imgObject': {}, 'id': 'burger', 'src': '/static/foodstim60/burger.jpg', 'key': 'i', 'origWidth': 409, 'origHeight': 409, 'width': 409, 'height': 409, 'widthPercent': 0.45, 'rescaleHeight': False, 'trialN': 96, 'loaded': True, 'loadedTime': 4144.199999988079, 'positionName': 'RIGHT', 'positionCoords': [565.76, 103], 'bid': 8.47}]",196329.0,1669833586016,pear,burger,7.86,8.47,0.6100000000000003,burger,1417.699999988079,1416,1418.199999988079,True,i,198248.89999997616,1919.8999999761581,1669833587934,1918,HRV,HRV_0181,2022-11-30 18:42:46
97,"[{'imgObject': {}, 'id': 'burger', 'src': '/static/foodstim60/burger.jpg', 'key': 'u', 'origWidth': 409, 'origHeight': 409, 'width': 409, 'height': 409, 'widthPercent': 0.45, 'rescaleHeight': False, 'trialN': 97, 'loaded': True, 'loadedTime': 4144.399999976158, 'positionName': 'LEFT', 'positionCoords': [113.24, 103], 'bid': 8.47}, {'imgObject': {}, 'id': 'cherries', 'src': '/static/foodstim60/cherries.jpg', 'key': 'i', 'origWidth': 410, 'origHeight': 411, 'width': 410, 'height': 411, 'widthPercent': 0.45, 'rescaleHeight': False, 'trialN': 97, 'loaded': True, 'loadedTime': 4012.5, 'positionName': 'RIGHT', 'positionCoords': [565.76, 102], 'bid': 9.9}]",198249.09999996424,1669833587934,burger,cherries,8.47,9.9,1.4299999999999997,cherries,969.1000000238419,970,969.7000000476837,True,i,199721.80000001192,1472.7000000476837,1669833589407,1473,HRV,HRV_0181,2022-11-30 18:42:46
98,"[{'imgObject': {}, 'id': 'banana', 'src': '/static/foodstim60/banana.jpg', 'key': 'u', 'origWidth': 410, 'origHeight': 410, 'width': 410, 'height': 410, 'widthPercent': 0.45, 'rescaleHeight': False, 'trialN': 98, 'loaded': True, 'loadedTime': 4503.099999964237, 'positionName': 'LEFT', 'positionCoords': [112.24, 102.5], 'bid': 0.55}, {'imgObject': {}, 'id': 'turkeysandwich', 'src': '/static/foodstim60/turkeysandwich.jpg', 'key': 'i', 'origWidth': 409, 'origHeight': 409, 'width': 409, 'height': 409, 'widthPercent': 0.45, 'rescaleHeight': False, 'trialN': 98, 'loaded': True, 'loadedTime': 4045, 'positionName': 'RIGHT', 'positionCoords': [565.76, 103], 'bid': 2.48}]",199721.89999997616,1669833589407,banana,turkeysandwich,0.55,2.48,1.93,turkeysandwich,1592.5,1593,1593.0,True,i,201827.09999996424,2105.199999988079,1669833591512,2105,HRV,HRV_0181,2022-11-30 18:42:46
99,"[{'imgObject': {}, 'id': 'mango', 'src': '/static/foodstim60/mango.jpg', 'key': 'u', 'origWidth': 411, 'origHeight': 411, 'width': 411, 'height': 411, 'widthPercent': 0.45, 'rescaleHeight': False, 'trialN': 99, 'loaded': True, 'loadedTime': 4612.199999988079, 'positionName': 'LEFT', 'positionCoords': [111.24, 102], 'bid': 5.03}, {'imgObject': {}, 'id': 'cheerios', 'src': '/static/foodstim60/cheerios.jpg', 'key': 'i', 'origWidth': 409, 'origHeight': 410, 'width': 409, 'height': 410, 'widthPercent': 0.45, 'rescaleHeight': False, 'trialN': 99, 'loaded': True, 'loadedTime': 4584.599999964237, 'positionName': 'RIGHT', 'positionCoords': [565.76, 102.5], 'bid': 5.01}]",201827.30000001192,1669833591512,mango,cheerios,5.03,5.01,-0.020000000000000462,cheerios,1855.0,1856,1855.5,True,i,204195.39999997616,2368.099999964237,1669833593880,2368,HRV,HRV_0181,2022-11-30 18:42:46
100,"[{'imgObject': {}, 'id': 'chicken nuggets2', 'src': '/static/foodstim60/chicken nuggets2.jpg', 'key': 'u', 'origWidth': 410, 'origHeight': 409, 'width': 410, 'height': 409, 'widthPercent': 0.45, 'rescaleHeight': False, 'trialN': 100, 'loaded': True, 'loadedTime': 4063.399999976158, 'positionName': 'LEFT', 'positionCoords': [112.24, 103], 'bid': 1.39}, {'imgObject': {}, 'id': 'mac & cheese', 'src': '/static/foodstim60/mac & cheese.jpg', 'key': 'i', 'origWidth': 410, 'origHeight': 410, 'width': 410, 'height': 410, 'widthPercent': 0.45, 'rescaleHeight': False, 'trialN': 100, 'loaded': True, 'loadedTime': 4270.599999964237, 'positionName': 'RIGHT', 'positionCoords': [565.76, 102.5], 'bid': 1.61}]",204195.59999996424,1669833593881,chicken nuggets2,mac & cheese,1.39,1.61,0.2200000000000002,chicken nuggets2,1294.7000000476837,1295,1295.300000011921,True,u,206000.0,1804.4000000357628,1669833595685,1804,HRV,HRV_0181,2022-11-30 18:42:46
101,"[{'imgObject': {}, 'id': 'raspberries', 'src': '/static/foodstim60/raspberries.jpg', 'key': 'u', 'origWidth': 411, 'origHeight': 411, 'width': 411, 'height': 411, 'widthPercent': 0.45, 'rescaleHeight': False, 'trialN': 101, 'loaded': True, 'loadedTime': 4230.599999964237, 'positionName': 'LEFT', 'positionCoords': [111.24, 102], 'bid': 9.9}, {'imgObject': {}, 'id': 'Grapes', 'src': '/static/foodstim60/Grapes.jpg', 'key': 'i', 'origWidth': 411, 'origHeight': 411, 'width': 411, 'height': 411, 'widthPercent': 0.45, 'rescaleHeight': False, 'trialN': 101, 'loaded': True, 'loadedTime': 4295, 'positionName': 'RIGHT', 'positionCoords': [565.76, 102], 'bid': 9.48}]",206000.19999998808,1669833595685,raspberries,Grapes,9.9,9.48,-0.41999999999999993,raspberries,1138.199999988079,1139,1138.699999988079,True,u,207640.59999996424,1640.3999999761581,1669833597326,1641,HRV,HRV_0181,2022-11-30 18:42:46
102,"[{'imgObject': {}, 'id': 'veggieswithdip', 'src': '/static/foodstim60/veggieswithdip.jpg', 'key': 'u', 'origWidth': 409, 'origHeight': 409, 'width': 409, 'height': 409, 'widthPercent': 0.45, 'rescaleHeight': False, 'trialN': 102, 'loaded': True, 'loadedTime': 4121.699999988079, 'positionName': 'LEFT', 'positionCoords': [113.24, 103], 'bid': 0.14}, {'imgObject': {}, 'id': 'mango', 'src': '/static/foodstim60/mango.jpg', 'key': 'i', 'origWidth': 411, 'origHeight': 411, 'width': 411, 'height': 411, 'widthPercent': 0.45, 'rescaleHeight': False, 'trialN': 102, 'loaded': True, 'loadedTime': 4612.800000011921, 'positionName': 'RIGHT', 'positionCoords': [565.76, 102], 'bid': 5.03}]",207641.09999996424,1669833597326,veggieswithdip,mango,0.14,5.03,4.890000000000001,mango,1369.4000000357628,1370,1369.9000000357628,True,i,209521.59999996424,1880.5,1669833599207,1881,HRV,HRV_0181,2022-11-30 18:42:46
103,"[{'imgObject': {}, 'id': 'turkeysandwich', 'src': '/static/foodstim60/turkeysandwich.jpg', 'key': 'u', 'origWidth': 409, 'origHeight': 409, 'width': 409, 'height': 409, 'widthPercent': 0.45, 'rescaleHeight': False, 'trialN': 103, 'loaded': True, 'loadedTime': 4043.699999988079, 'positionName': 'LEFT', 'positionCoords': [113.24, 103], 'bid': 2.48}, {'imgObject': {}, 'id': 'burrito', 'src': '/static/foodstim60/burrito.jpg', 'key': 'i', 'origWidth': 410, 'origHeight': 410, 'width': 410, 'height': 410, 'widthPercent': 0.45, 'rescaleHeight': False, 'trialN': 103, 'loaded': True, 'loadedTime': 4485, 'positionName': 'RIGHT', 'positionCoords': [565.76, 102.5], 'bid': 2.86}]",209521.80000001192,1669833599207,turkeysandwich,burrito,2.48,2.86,0.3799999999999999,burrito,1872.5,1873,1873.0,True,i,211896.89999997616,2375.099999964237,1669833601582,2375,HRV,HRV_0181,2022-11-30 18:42:46
104,"[{'imgObject': {}, 'id': 'turkey sandwich', 'src': '/static/foodstim60/turkey sandwich.jpg', 'key': 'u', 'origWidth': 409, 'origHeight': 409, 'width': 409, 'height': 409, 'widthPercent': 0.45, 'rescaleHeight': False, 'trialN': 104, 'loaded': True, 'loadedTime': 4382.199999988079, 'positionName': 'LEFT', 'positionCoords': [113.24, 103], 'bid': 2.83}, {'imgObject': {}, 'id': 'cocktailshrimp', 'src': '/static/foodstim60/cocktailshrimp.jpg', 'key': 'i', 'origWidth': 410, 'origHeight': 410, 'width': 410, 'height': 410, 'widthPercent': 0.45, 'rescaleHeight': False, 'trialN': 104, 'loaded': True, 'loadedTime': 4073.5, 'positionName': 'RIGHT', 'positionCoords': [565.76, 102.5], 'bid': 9.85}]",211897.19999998808,1669833601582,turkey sandwich,cocktailshrimp,2.83,9.85,7.02,cocktailshrimp,1225.1000000238419,1226,1225.6000000238419,True,i,213632.09999996424,1734.8999999761581,1669833603317,1735,HRV,HRV_0181,2022-11-30 18:42:46
105,"[{'imgObject': {}, 'id': 'tacos', 'src': '/static/foodstim60/tacos.jpg', 'key': 'u', 'origWidth': 411, 'origHeight': 411, 'width': 411, 'height': 411, 'widthPercent': 0.45, 'rescaleHeight': False, 'trialN': 105, 'loaded': True, 'loadedTime': 4236.300000011921, 'positionName': 'LEFT', 'positionCoords': [111.24, 102], 'bid': 0.29}, {'imgObject': {}, 'id': 'popsicles', 'src': '/static/foodstim60/popsicles.jpg', 'key': 'i', 'origWidth': 410, 'origHeight': 410, 'width': 410, 'height': 410, 'widthPercent': 0.45, 'rescaleHeight': False, 'trialN': 105, 'loaded': True, 'loadedTime': 4700.199999988079, 'positionName': 'RIGHT', 'positionCoords': [565.76, 102.5], 'bid': 4.57}]",213632.19999998808,1669833603317,tacos,popsicles,0.29,4.57,4.28,tacos,1345.8999999761581,1347,1346.300000011921,True,u,215492.5,1860.300000011921,1669833605178,1861,HRV,HRV_0181,2022-11-30 18:42:46
106,"[{'imgObject': {}, 'id': 'burrito', 'src': '/static/foodstim60/burrito.jpg', 'key': 'u', 'origWidth': 410, 'origHeight': 410, 'width': 410, 'height': 410, 'widthPercent': 0.45, 'rescaleHeight': False, 'trialN': 106, 'loaded': True, 'loadedTime': 4499.5, 'positionName': 'LEFT', 'positionCoords': [112.24, 102.5], 'bid': 2.86}, {'imgObject': {}, 'id': 'turkey sandwich', 'src': '/static/foodstim60/turkey sandwich.jpg', 'key': 'i', 'origWidth': 409, 'origHeight': 409, 'width': 409, 'height': 409, 'widthPercent': 0.45, 'rescaleHeight': False, 'trialN': 106, 'loaded': True, 'loadedTime': 4382.300000011921, 'positionName': 'RIGHT', 'positionCoords': [565.76, 103], 'bid': 2.83}]",215492.80000001192,1669833605178,burrito,turkey sandwich,2.86,2.83,-0.029999999999999805,burrito,2077.399999976158,2078,2077.899999976158,True,u,218083.09999996424,2590.2999999523163,1669833607768,2590,HRV,HRV_0181,2022-11-30 18:42:46
107,"[{'imgObject': {}, 'id': 'kiwi', 'src': '/static/foodstim60/kiwi.jpg', 'key': 'u', 'origWidth': 410, 'origHeight': 410, 'width': 410, 'height': 410, 'widthPercent': 0.45, 'rescaleHeight': False, 'trialN': 107, 'loaded': True, 'loadedTime': 4597.699999988079, 'positionName': 'LEFT', 'positionCoords': [112.24, 102.5], 'bid': 0.09}, {'imgObject': {}, 'id': 'hotdog w must', 'src': '/static/foodstim60/hotdog w must.jpg', 'key': 'i', 'origWidth': 409, 'origHeight': 409, 'width': 409, 'height': 409, 'widthPercent': 0.45, 'rescaleHeight': False, 'trialN': 107, 'loaded': True, 'loadedTime': 4185.699999988079, 'positionName': 'RIGHT', 'positionCoords': [565.76, 103], 'bid': 0.91}]",218083.30000001192,1669833607768,kiwi,hotdog w must,0.09,0.91,0.8200000000000001,hotdog w must,2207.2999999523163,2208,2207.7999999523163,True,i,220806.0,2722.699999988079,1669833610491,2723,HRV,HRV_0181,2022-11-30 18:42:46
108,"[{'imgObject': {}, 'id': 'chicken nuggets2', 'src': '/static/foodstim60/chicken nuggets2.jpg', 'key': 'u', 'origWidth': 410, 'origHeight': 409, 'width': 410, 'height': 409, 'widthPercent': 0.45, 'rescaleHeight': False, 'trialN': 108, 'loaded': True, 'loadedTime': 4063.199999988079, 'positionName': 'LEFT', 'positionCoords': [112.24, 103], 'bid': 1.39}, {'imgObject': {}, 'id': 'edamame', 'src': '/static/foodstim60/edamame.jpg', 'key': 'i', 'origWidth': 409, 'origHeight': 410, 'width': 409, 'height': 410, 'widthPercent': 0.45, 'rescaleHeight': False, 'trialN': 108, 'loaded': True, 'loadedTime': 4686.399999976158, 'positionName': 'RIGHT', 'positionCoords': [565.76, 102.5], 'bid': 0.12}]",220806.30000001192,1669833610491,chicken nuggets2,edamame,1.39,0.12,-1.27,chicken nuggets2,1211.8999999761581,1213,1212.3999999761581,True,u,222532.39999997616,1726.0999999642372,1669833612217,1726,HRV,HRV_0181,2022-11-30 18:42:46
