success,trial_type,trial_index,time_elapsed,internal_node_id,Block,TrialNumber,TrialTime,trialTimeDiff,FPS_avg,FPS_med,FPS_mode,TrialDur,winResizeTime,rt,block,button_pressed,MotCoh,MotDir,ColCoh,Color,ChoiceKey,Choice,Accuracy,RT,nFrames,FPS,PPD,missTrial,missTrialMsg,onsetDelay,fullScreenExitTime,canvCenter,TrialType,Score,BlockTrial,stimulus,button_labels,exp,subjectId,date
True,fullscreen,0,2209,0.0-0.0,0.0,1.0,,,,,,,,,,,,,,,,,,,,,,,,,,,,,,,,HRV,HRV_0189,2022-11-30 18:42:13
,wl-check-fps,1,7199,0.0-1.0,0.0,2.0,"[3061.5, 3063.3, 3077.1, 3093.7, 3109.7, 3126.5, 3143, 3160, 3177.5, 3193.3, 3208.8, 3225.6, 3241.8, 3258.5, 3275.2, 3292.4, 3308.5, 3325.2, 3341.9, 3358.5, 3375.2, 3391.8, 3408.5, 3425.2, 3441.8, 3458.6, 3475.2, 3492.1, 3508.6, 3525.4, 3542.4, 3558.6, 3576.2, 3592, 3608.5, 3625.2, 3641.9, 3658.5, 3675.2, 3691.9, 3708.5, 3725.3, 3741.8, 3758.4, 3775.4, 3794.6, 3808.4, 3825.1, 3841.6, 3862.5, 3876.6, 3893.3, 3909.8, 3926.2, 3942.9, 3959.7, 3976.2, 3993, 4009.5, 4026.1, 4042.7, 4059.4, 4076.2, 4092.7, 4109.5, 4126.3, 4141.6, 4158.3, 4174.9, 4191.5, 4209.3, 4226.1, 4242.7, 4258.4, 4276, 4292.7, 4309.3, 4326, 4342.6, 4359.4, 4376.2, 4392.6, 4409.3, 4425.9, 4442.6, 4459.9, 4475.9, 4492.6, 4509.2, 4526, 4542.5, 4559.2, 4579.5, 4591.5, 4608.2, 4625.9, 4643.2, 4659.2, 4675.9, 4692.5, 4709.2, 4725.8, 4742.5, 4759.1, 4775.9, 4792.6, 4809.2, 4825.8, 4842.5, 4859.1, 4875.8, 4892.4, 4909.4, 4925.8, 4942.5, 4959.1, 4975.8, 4992.4, 5009.1, 5025.7, 5042.4, 5059.3, 5075.7, 5092.4, 5109.1, 5125.6, 5142.4, 5159.4, 5175.9, 5192.5, 5209.1, 5225.7, 5242.4, 5259, 5275.7, 5292.4, 5309, 5325.7, 5342.3, 5359.1, 5375.6, 5392.2, 5408.9, 5425.6, 5442.5, 5458.9, 5475.7, 5492.4, 5508.9, 5525.8, 5542.6, 5560, 5575.3, 5591.3, 5609.2, 5624.9, 5641.5, 5659.3, 5676, 5691.5, 5708.1, 5724.9, 5741.6, 5758.2, 5775.2, 5791.5, 5808.2, 5824.9, 5841.3, 5858.1, 5874.8, 5892.1, 5907.7, 5926, 5942.2, 5957.9, 5974.5, 5992.5, 6008.2, 6024.6, 6042.6, 6059, 6075.8, 6092.3, 6109.2, 6125.4, 6141.4, 6158, 6175.8, 6192.9, 6208.8, 6225.7, 6241.3, 6258.1, 6274.7, 6291.1, 6308.8, 6324.2, 6341.3, 6358.1, 6374.6, 6394.2, 6407.7, 6424.4, 6441.1, 6457.9, 6474.5, 6491.3, 6507.7, 6524.5, 6541.4, 6557.6, 6574.3, 6591.5, 6607.7, 6624.3, 6641, 6657.5, 6674.1, 6690.8, 6707.3, 6724, 6740.8, 6757.5, 6774.2, 6790.9, 6807.7, 6824.1, 6840.7, 6857.6, 6874.6, 6891.1, 6914.3, 6925.3, 6940.7, 6957.7, 6975.4, 6991.3, 7008.3, 7025.4, 7041.3, 7058.4, 7074.6, 7092.1, 7107.7, 7124.2, 7141, 7157.7, 7174.4, 7190.8, 7207.6, 7224.6, 7240.9, 7257.5, 7274.2, 7290.9, 7307.6, 7324.3, 7340.7, 7357.5, 7375.4, 7390.7, 7407.7, 7424.6, 7440.9, 7457.7, 7474.3, 7491.3, 7507.6, 7525.1, 7541, 7557.5, 7574, 7590.7, 7607.2, 7624, 7641.7, 7657.4, 7674.2, 7690.8, 7707.4, 7723.8, 7740.8, 7757.8, 7773.8, 7790.6, 7807.4, 7824, 7840.4, 7857.4, 7873.9, 7890.7, 7907.7, 7924.1, 7940.9, 7957.3, 7975.9, 7993.4, 8007.2, 8024.3]","[4.8, 1.8, 13.8, 16.6, 16, 16.8, 16.5, 17, 17.5, 15.8, 15.5, 16.8, 16.2, 16.7, 16.7, 17.2, 16.1, 16.7, 16.7, 16.6, 16.7, 16.6, 16.7, 16.7, 16.6, 16.8, 16.6, 16.9, 16.5, 16.8, 17, 16.2, 17.6, 15.8, 16.5, 16.7, 16.7, 16.6, 16.7, 16.7, 16.6, 16.8, 16.5, 16.6, 17, 19.2, 13.8, 16.7, 16.5, 20.9, 14.1, 16.7, 16.5, 16.4, 16.7, 16.8, 16.5, 16.8, 16.5, 16.6, 16.6, 16.7, 16.8, 16.5, 16.8, 16.8, 15.3, 16.7, 16.6, 16.6, 17.8, 16.8, 16.6, 15.7, 17.6, 16.7, 16.6, 16.7, 16.6, 16.8, 16.8, 16.4, 16.7, 16.6, 16.7, 17.3, 16, 16.7, 16.6, 16.8, 16.5, 16.7, 20.3, 12, 16.7, 17.7, 17.3, 16, 16.7, 16.6, 16.7, 16.6, 16.7, 16.6, 16.8, 16.7, 16.6, 16.6, 16.7, 16.6, 16.7, 16.6, 17, 16.4, 16.7, 16.6, 16.7, 16.6, 16.7, 16.6, 16.7, 16.9, 16.4, 16.7, 16.7, 16.5, 16.8, 17, 16.5, 16.6, 16.6, 16.6, 16.7, 16.6, 16.7, 16.7, 16.6, 16.7, 16.6, 16.8, 16.5, 16.6, 16.7, 16.7, 16.9, 16.4, 16.8, 16.7, 16.5, 16.9, 16.8, 17.4, 15.3, 16, 17.9, 15.7, 16.6, 17.8, 16.7, 15.5, 16.6, 16.8, 16.7, 16.6, 17, 16.3, 16.7, 16.7, 16.4, 16.8, 16.7, 17.3, 15.6, 18.3, 16.2, 15.7, 16.6, 18, 15.7, 16.4, 18, 16.4, 16.8, 16.5, 16.9, 16.2, 16, 16.6, 17.8, 17.1, 15.9, 16.9, 15.6, 16.8, 16.6, 16.4, 17.7, 15.4, 17.1, 16.8, 16.5, 19.6, 13.5, 16.7, 16.7, 16.8, 16.6, 16.8, 16.4, 16.8, 16.9, 16.2, 16.7, 17.2, 16.2, 16.6, 16.7, 16.5, 16.6, 16.7, 16.5, 16.7, 16.8, 16.7, 16.7, 16.7, 16.8, 16.4, 16.6, 16.9, 17, 16.5, 23.2, 11, 15.4, 17, 17.7, 15.9, 17, 17.1, 15.9, 17.1, 16.2, 17.5, 15.6, 16.5, 16.8, 16.7, 16.7, 16.4, 16.8, 17, 16.3, 16.6, 16.7, 16.7, 16.7, 16.7, 16.4, 16.8, 17.9, 15.3, 17, 16.9, 16.3, 16.8, 16.6, 17, 16.3, 17.5, 15.9, 16.5, 16.5, 16.7, 16.5, 16.8, 17.7, 15.7, 16.8, 16.6, 16.6, 16.4, 17, 17, 16, 16.8, 16.8, 16.6, 16.4, 17, 16.5, 16.8, 17, 16.4, 16.8, 16.4, 18.6, 17.5, 13.8, 17.1]",60.0,59.0,60.0,4985.0,[],,,,,,,,,,,,,,,,,,,,,,,,,HRV,HRV_0189,2022-11-30 18:42:13
,wl-html-keyboard-response,2,21539,0.0-2.0-0.0,0.0,3.0,,,,,,,,12332.699999999255,0.0,0,,,,,,,,,,,,,,,,,,,,,,HRV,HRV_0189,2022-11-30 18:42:13
,wl-rdm,3,28724,0.0-3.0-0.0,0.0,4.0,,,,,,,[],,,,0.0,0.0,87.9,0.0,u,0.0,True,1573.2000000011176,95.0,60.0,40.0,False,,3000.0,[],"[872.5, 491]",ColorTask_Demo,,,,,HRV,HRV_0189,2022-11-30 18:42:13
,wl-rdm,4,33638,0.0-3.0-1.0,0.0,5.0,,,,,,,[],,,,0.0,0.0,87.9,1.0,i,1.0,True,804.4000000003725,49.0,60.0,40.0,False,,2000.0,[],"[872.5, 491]",ColorTask_Demo,,,,,HRV,HRV_0189,2022-11-30 18:42:13
,wl-html-keyboard-response,5,38492,0.0-3.0-2.0,0.0,6.0,,,,,,,,2847.9000000003725,0.0,1,,,,,,,,,,,,,,,,,,,,,,HRV,HRV_0189,2022-11-30 18:42:13
,wl-html-keyboard-response,6,45661,0.0-4.0-0.0,0.0,7.0,,,,,,,,5165.0999999996275,0.0,0,,,,,,,,,,,,,,,,,,,,,,HRV,HRV_0189,2022-11-30 18:42:13
,wl-html-keyboard-response,7,59588,0.0-5.0-0.0,0.0,8.0,,,,,,,,11923.099999999627,0.0,0,,,,,,,,,,,,,,,,,,,,,,HRV,HRV_0189,2022-11-30 18:42:13
,wl-rdm,8,61696,0.0-6.0-0.0,0.0,9.0,,,,,,,[],,,,,,87.9,1.0,i,1.0,True,828.0999999996275,50.0,60.0,40.0,False,,204.5025351668072,[],"[872.5, 491]",ColorTask,1.0,1.0,,,HRV,HRV_0189,2022-11-30 18:42:13
,wl-rdm,9,63928,0.0-6.1-0.1,0.0,10.0,,,,,,,[],,,,,,62.5,1.0,i,1.0,True,861.7000000011176,52.0,60.0,40.0,False,,291.01386972488615,[],"[872.5, 491]",ColorTask,2.0,2.0,,,HRV,HRV_0189,2022-11-30 18:42:13
,wl-rdm,10,66294,0.0-6.2-0.2,0.0,11.0,,,,,,,[],,,,,,73.6,0.0,u,0.0,True,905.8000000007451,55.0,60.0,40.0,False,,397.18340296599445,[],"[872.5, 491]",ColorTask,3.0,3.0,,,HRV,HRV_0189,2022-11-30 18:42:13
,wl-rdm,11,68644,0.0-6.3-0.3,0.0,12.0,,,,,,,[],,,,,,56.4,1.0,u,0.0,False,1042.4999999981374,63.0,60.0,40.0,False,,237.9642658958682,[],"[872.5, 491]",ColorTask,2.0,4.0,,,HRV,HRV_0189,2022-11-30 18:42:13
,wl-rdm,12,71142,0.0-6.4-0.4,0.0,13.0,,,,,,,[],,,,,,53.2,0.0,u,0.0,True,1093.0999999996275,66.0,60.0,40.0,False,,327.9620253159149,[],"[872.5, 491]",ColorTask,3.0,5.0,,,HRV,HRV_0189,2022-11-30 18:42:13
,wl-rdm,13,73575,0.0-6.5-0.5,0.0,14.0,,,,,,,[],,,,,,73.6,0.0,u,0.0,True,1000.3999999985099,60.0,60.0,40.0,False,,356.93137202761517,[],"[872.5, 491]",ColorTask,4.0,6.0,,,HRV,HRV_0189,2022-11-30 18:42:13
,wl-rdm,14,75824,0.0-6.6-0.6,0.0,15.0,,,,,,,[],,,,,,87.9,0.0,u,0.0,True,918.5999999996275,55.0,60.0,40.0,False,,248.28251977771117,[],"[872.5, 491]",ColorTask,5.0,7.0,,,HRV,HRV_0189,2022-11-30 18:42:13
,wl-rdm,15,77891,0.0-6.7-0.7,0.0,16.0,,,,,,,[],,,,,,53.2,1.0,i,1.0,True,758.9000000003725,46.0,60.0,40.0,False,,224.13530977375746,[],"[872.5, 491]",ColorTask,6.0,8.0,,,HRV,HRV_0189,2022-11-30 18:42:13
,wl-rdm,16,80322,0.0-6.8-0.8,0.0,17.0,,,,,,,[],,,,,,87.9,0.0,u,0.0,True,1008.5999999996275,61.0,60.0,40.0,False,,335.50085151091156,[],"[872.5, 491]",ColorTask,7.0,9.0,,,HRV,HRV_0189,2022-11-30 18:42:13
,wl-rdm,17,82690,0.0-6.9-0.9,0.0,18.0,,,,,,,[],,,,,,73.6,0.0,u,0.0,True,930.5,56.0,60.0,40.0,False,,378.0303119441773,[],"[872.5, 491]",ColorTask,8.0,10.0,,,HRV,HRV_0189,2022-11-30 18:42:13
,wl-rdm,18,85186,0.0-6.10-0.10,0.0,19.0,,,,,,,[],,,,,,56.4,0.0,u,0.0,True,1181.1000000014901,71.0,60.0,40.0,False,,241.68656144078278,[],"[872.5, 491]",ColorTask,9.0,11.0,,,HRV,HRV_0189,2022-11-30 18:42:13
,wl-rdm,19,87819,0.0-6.11-0.11,0.0,20.0,,,,,,,[],,,,,,50.0,0.0,u,0.0,True,1255.5,76.0,60.0,40.0,False,,301.0969961502228,[],"[872.5, 491]",ColorTask,10.0,12.0,,,HRV,HRV_0189,2022-11-30 18:42:13
,wl-rdm,20,90652,0.0-6.12-0.12,0.0,21.0,,,,,,,[],,,,,,62.5,0.0,u,0.0,True,1388.4000000003725,84.0,60.0,40.0,False,,349.829852102088,[],"[872.5, 491]",ColorTask,11.0,13.0,,,HRV,HRV_0189,2022-11-30 18:42:13
,wl-rdm,21,93201,0.0-6.13-0.13,0.0,22.0,,,,,,,[],,,,,,50.0,1.0,i,1.0,True,1163.699999999255,70.0,60.0,40.0,False,,304.24536765282465,[],"[872.5, 491]",ColorTask,12.0,14.0,,,HRV,HRV_0189,2022-11-30 18:42:13
,wl-rdm,22,95667,0.0-6.14-0.14,0.0,23.0,,,,,,,[],,,,,,53.2,0.0,i,1.0,False,1024.5999999996275,62.0,60.0,40.0,False,,350.8950089528888,[],"[872.5, 491]",ColorTask,11.0,15.0,,,HRV,HRV_0189,2022-11-30 18:42:13
,wl-rdm,23,98183,0.0-6.15-0.15,0.0,24.0,,,,,,,[],,,,,,87.9,0.0,u,0.0,True,1066.2999999988824,64.0,60.0,40.0,False,,373.8571964153874,[],"[872.5, 491]",ColorTask,12.0,16.0,,,HRV,HRV_0189,2022-11-30 18:42:13
,wl-rdm,24,100582,0.0-6.16-0.16,0.0,25.0,,,,,,,[],,,,,,62.5,0.0,i,1.0,False,993.3000000007451,60.0,60.0,40.0,False,,324.8654281430353,[],"[872.5, 491]",ColorTask,11.0,17.0,,,HRV,HRV_0189,2022-11-30 18:42:13
,wl-rdm,25,103232,0.0-6.17-0.17,0.0,26.0,,,,,,,[],,,,,,56.4,0.0,i,1.0,False,1319.9000000003725,80.0,60.0,40.0,False,,256.0820477416916,[],"[872.5, 491]",ColorTask,10.0,18.0,,,HRV,HRV_0189,2022-11-30 18:42:13
,wl-rdm,26,105714,0.0-6.18-0.18,0.0,27.0,,,,,,,[],,,,,,87.9,1.0,i,1.0,True,1152.3999999985099,70.0,60.0,40.0,False,,243.07730342032548,[],"[872.5, 491]",ColorTask,11.0,19.0,,,HRV,HRV_0189,2022-11-30 18:42:13
,wl-rdm,27,107962,0.0-6.19-0.19,0.0,28.0,,,,,,,[],,,,,,56.4,1.0,i,1.0,True,901.8999999985099,55.0,60.0,40.0,False,,263.53961447482095,[],"[872.5, 491]",ColorTask,12.0,20.0,,,HRV,HRV_0189,2022-11-30 18:42:13
,wl-rdm,28,110279,0.0-6.20-0.20,0.0,29.0,,,,,,,[],,,,,,62.5,1.0,i,1.0,True,938.0999999996275,57.0,60.0,40.0,False,,306.06345094488756,[],"[872.5, 491]",ColorTask,13.0,21.0,,,HRV,HRV_0189,2022-11-30 18:42:13
,wl-rdm,29,112428,0.0-6.21-0.21,0.0,30.0,,,,,,,[],,,,,,73.6,1.0,i,1.0,True,769.8000000007451,47.0,60.0,40.0,False,,295.62528786088865,[],"[872.5, 491]",ColorTask,14.0,22.0,,,HRV,HRV_0189,2022-11-30 18:42:13
,wl-rdm,30,114561,0.0-6.22-0.22,0.0,31.0,,,,,,,[],,,,,,50.0,0.0,i,1.0,False,816.0,49.0,60.0,40.0,False,,263.54308344357037,[],"[872.5, 491]",ColorTask,13.0,23.0,,,HRV,HRV_0189,2022-11-30 18:42:13
,wl-rdm,31,116711,0.0-6.23-0.23,0.0,32.0,,,,,,,[],,,,,,53.2,0.0,u,0.0,True,853.3000000007451,52.0,60.0,40.0,False,,203.07959286625947,[],"[872.5, 491]",ColorTask,14.0,24.0,,,HRV,HRV_0189,2022-11-30 18:42:13
,wl-rdm,32,118992,0.0-6.24-0.24,0.0,33.0,,,,,,,[],,,,,,56.4,0.0,u,0.0,True,956.2000000011176,58.0,60.0,40.0,False,,242.14616579007,[],"[872.5, 491]",ColorTask,15.0,25.0,,,HRV,HRV_0189,2022-11-30 18:42:13
,wl-rdm,33,121241,0.0-6.25-0.25,0.0,34.0,,,,,,,[],,,,,,73.6,1.0,i,1.0,True,892.5,54.0,60.0,40.0,False,,264.83229855141855,[],"[872.5, 491]",ColorTask,16.0,26.0,,,HRV,HRV_0189,2022-11-30 18:42:13
,wl-rdm,34,123457,0.0-6.26-0.26,0.0,35.0,,,,,,,[],,,,,,56.4,1.0,i,1.0,True,833.9000000003725,50.0,60.0,40.0,False,,312.89353924914997,[],"[872.5, 491]",ColorTask,17.0,27.0,,,HRV,HRV_0189,2022-11-30 18:42:13
,wl-rdm,35,125757,0.0-6.27-0.27,0.0,36.0,,,,,,,[],,,,,,50.0,1.0,u,0.0,False,942.0999999977648,57.0,60.0,40.0,False,,297.9963199608726,[],"[872.5, 491]",ColorTask,16.0,28.0,,,HRV,HRV_0189,2022-11-30 18:42:13
,wl-rdm,36,128140,0.0-6.28-0.28,0.0,37.0,,,,,,,[],,,,,,50.0,0.0,i,1.0,False,999.5999999996275,60.0,60.0,40.0,False,,296.3005271992544,[],"[872.5, 491]",ColorTask,15.0,29.0,,,HRV,HRV_0189,2022-11-30 18:42:13
,wl-rdm,37,130574,0.0-6.29-0.29,0.0,38.0,,,,,,,[],,,,,,73.6,0.0,u,0.0,True,1146.7999999988824,69.0,60.0,40.0,False,,208.13908787303708,[],"[872.5, 491]",ColorTask,16.0,30.0,,,HRV,HRV_0189,2022-11-30 18:42:13
,wl-rdm,38,132671,0.0-6.30-0.30,0.0,39.0,,,,,,,[],,,,,,87.9,1.0,i,1.0,True,742.4999999981374,45.0,60.0,40.0,False,,293.24934014327306,[],"[872.5, 491]",ColorTask,17.0,31.0,,,HRV,HRV_0189,2022-11-30 18:42:13
,wl-rdm,39,134654,0.0-6.31-0.31,0.0,40.0,,,,,,,[],,,,,,87.9,0.0,u,0.0,True,679.2000000011176,41.0,60.0,40.0,False,,227.7238463737229,[],"[872.5, 491]",ColorTask,18.0,32.0,,,HRV,HRV_0189,2022-11-30 18:42:13
,wl-rdm,40,137071,0.0-6.32-0.32,0.0,41.0,,,,,,,[],,,,,,56.4,0.0,i,1.0,False,986.6999999992549,60.0,60.0,40.0,False,,339.19027821867667,[],"[872.5, 491]",ColorTask,17.0,33.0,,,HRV,HRV_0189,2022-11-30 18:42:13
,wl-rdm,41,139519,0.0-6.33-0.33,0.0,42.0,,,,,,,[],,,,,,56.4,0.0,i,1.0,False,1046.2000000011176,63.0,60.0,40.0,False,,334.09842910408304,[],"[872.5, 491]",ColorTask,16.0,34.0,,,HRV,HRV_0189,2022-11-30 18:42:13
,wl-rdm,42,141935,0.0-6.34-0.34,0.0,43.0,,,,,,,[],,,,,,62.5,1.0,i,1.0,True,1061.1000000014901,64.0,60.0,40.0,False,,268.7848403294196,[],"[872.5, 491]",ColorTask,17.0,35.0,,,HRV,HRV_0189,2022-11-30 18:42:13
,wl-rdm,43,144101,0.0-6.35-0.35,0.0,44.0,,,,,,,[],,,,,,87.9,1.0,i,1.0,True,807.2999999988824,49.0,60.0,40.0,False,,262.61969668773696,[],"[872.5, 491]",ColorTask,18.0,36.0,,,HRV,HRV_0189,2022-11-30 18:42:13
,wl-rdm,44,146301,0.0-6.36-0.36,0.0,45.0,,,,,,,[],,,,,,50.0,0.0,i,1.0,False,909.5999999996275,55.0,60.0,40.0,False,,212.84415401346834,[],"[872.5, 491]",ColorTask,17.0,37.0,,,HRV,HRV_0189,2022-11-30 18:42:13
,wl-rdm,45,148800,0.0-6.37-0.37,0.0,46.0,,,,,,,[],,,,,,56.4,0.0,i,1.0,False,1097.199999999255,66.0,60.0,40.0,False,,338.62585726638827,[],"[872.5, 491]",ColorTask,16.0,38.0,,,HRV,HRV_0189,2022-11-30 18:42:13
,wl-rdm,46,150882,0.0-6.38-0.38,0.0,47.0,,,,,,,[],,,,,,87.9,0.0,u,0.0,True,702.9000000022352,43.0,60.0,40.0,False,,315.0401380951827,[],"[872.5, 491]",ColorTask,17.0,39.0,,,HRV,HRV_0189,2022-11-30 18:42:13
,wl-rdm,47,153298,0.0-6.39-0.39,0.0,48.0,,,,,,,[],,,,,,53.2,1.0,u,0.0,False,937.2999999988824,57.0,60.0,40.0,False,,388.4972246139845,[],"[872.5, 491]",ColorTask,16.0,40.0,,,HRV,HRV_0189,2022-11-30 18:42:13
,wl-rdm,48,155663,0.0-6.40-0.40,0.0,49.0,,,,,,,[],,,,,,53.2,0.0,i,1.0,False,1073.699999999255,65.0,60.0,40.0,False,,211.67417027964308,[],"[872.5, 491]",ColorTask,15.0,41.0,,,HRV,HRV_0189,2022-11-30 18:42:13
,wl-rdm,49,157763,0.0-6.41-0.41,0.0,50.0,,,,,,,[],,,,,,87.9,1.0,i,1.0,True,832.0999999996275,50.0,60.0,40.0,False,,213.64291703149007,[],"[872.5, 491]",ColorTask,16.0,42.0,,,HRV,HRV_0189,2022-11-30 18:42:13
,wl-rdm,50,160063,0.0-6.42-0.42,0.0,51.0,,,,,,,[],,,,,,56.4,0.0,u,0.0,True,1005.7999999988824,61.0,60.0,40.0,False,,228.74581536717093,[],"[872.5, 491]",ColorTask,17.0,43.0,,,HRV,HRV_0189,2022-11-30 18:42:13
,wl-rdm,51,162278,0.0-6.43-0.43,0.0,52.0,,,,,,,[],,,,,,87.9,1.0,i,1.0,True,819.8000000007451,50.0,60.0,40.0,False,,302.9698900694305,[],"[872.5, 491]",ColorTask,18.0,44.0,,,HRV,HRV_0189,2022-11-30 18:42:13
,wl-rdm,52,164444,0.0-6.44-0.44,0.0,53.0,,,,,,,[],,,,,,53.2,0.0,i,1.0,False,773.9000000003725,47.0,60.0,40.0,False,,305.68445342824884,[],"[872.5, 491]",ColorTask,17.0,45.0,,,HRV,HRV_0189,2022-11-30 18:42:13
,wl-rdm,53,166911,0.0-6.45-0.45,0.0,54.0,,,,,,,[],,,,,,50.0,1.0,u,0.0,False,1146.199999999255,69.0,60.0,40.0,False,,233.2913820617323,[],"[872.5, 491]",ColorTask,16.0,46.0,,,HRV,HRV_0189,2022-11-30 18:42:13
,wl-rdm,54,169409,0.0-6.46-0.46,0.0,55.0,,,,,,,[],,,,,,62.5,0.0,u,0.0,True,1050.7000000011176,63.0,60.0,40.0,False,,368.90646484219394,[],"[872.5, 491]",ColorTask,17.0,47.0,,,HRV,HRV_0189,2022-11-30 18:42:13
,wl-rdm,55,171675,0.0-6.47-0.47,0.0,56.0,,,,,,,[],,,,,,56.4,1.0,i,1.0,True,930.0000000018626,56.0,60.0,40.0,False,,244.7270512604741,[],"[872.5, 491]",ColorTask,18.0,48.0,,,HRV,HRV_0189,2022-11-30 18:42:13
,wl-rdm,56,173874,0.0-6.48-0.48,0.0,57.0,,,,,,,[],,,,,,73.6,0.0,u,0.0,True,826.1999999992549,50.0,60.0,40.0,False,,315.3750530064141,[],"[872.5, 491]",ColorTask,19.0,49.0,,,HRV,HRV_0189,2022-11-30 18:42:13
,wl-rdm,57,176340,0.0-6.49-0.49,0.0,58.0,,,,,,,[],,,,,,50.0,1.0,i,1.0,True,1086.3999999985099,66.0,60.0,40.0,False,,301.3449412007055,[],"[872.5, 491]",ColorTask,20.0,50.0,,,HRV,HRV_0189,2022-11-30 18:42:13
,wl-rdm,58,178923,0.0-6.50-0.50,0.0,59.0,,,,,,,[],,,,,,50.0,0.0,i,1.0,False,1138.4999999981374,69.0,60.0,40.0,False,,351.2590597994457,[],"[872.5, 491]",ColorTask,19.0,51.0,,,HRV,HRV_0189,2022-11-30 18:42:13
,wl-rdm,59,181123,0.0-6.51-0.51,0.0,60.0,,,,,,,[],,,,,,87.9,1.0,i,1.0,True,904.9000000022352,55.0,60.0,40.0,False,,229.94354646194722,[],"[872.5, 491]",ColorTask,20.0,52.0,,,HRV,HRV_0189,2022-11-30 18:42:13
,wl-rdm,60,183504,0.0-6.52-0.52,0.0,61.0,,,,,,,[],,,,,,73.6,1.0,i,1.0,True,915.0,55.0,60.0,40.0,False,,376.47720855149225,[],"[872.5, 491]",ColorTask,21.0,53.0,,,HRV,HRV_0189,2022-11-30 18:42:13
,wl-rdm,61,186119,0.0-6.53-0.53,0.0,62.0,,,,,,,[],,,,,,53.2,0.0,u,0.0,True,1235.5,75.0,60.0,40.0,False,,299.6192306990638,[],"[872.5, 491]",ColorTask,22.0,54.0,,,HRV,HRV_0189,2022-11-30 18:42:13
,wl-rdm,62,188586,0.0-6.54-0.54,0.0,63.0,,,,,,,[],,,,,,62.5,0.0,u,0.0,True,1147.0999999996275,69.0,60.0,40.0,False,,245.89222883298976,[],"[872.5, 491]",ColorTask,23.0,55.0,,,HRV,HRV_0189,2022-11-30 18:42:13
,wl-rdm,63,191285,0.0-6.55-0.55,0.0,64.0,,,,,,,[],,,,,,56.4,0.0,i,1.0,False,1344.4000000003725,81.0,60.0,40.0,False,,273.50677981379334,[],"[872.5, 491]",ColorTask,22.0,56.0,,,HRV,HRV_0189,2022-11-30 18:42:13
,wl-rdm,64,194101,0.0-6.56-0.56,0.0,65.0,,,,,,,[],,,,,,62.5,0.0,i,1.0,False,1508.2999999988824,91.0,60.0,40.0,False,,228.75942266307015,[],"[872.5, 491]",ColorTask,21.0,57.0,,,HRV,HRV_0189,2022-11-30 18:42:13
,wl-rdm,65,196717,0.0-6.57-0.57,0.0,66.0,,,,,,,[],,,,,,62.5,0.0,u,0.0,True,1222.199999999255,74.0,60.0,40.0,False,,301.2283535096653,[],"[872.5, 491]",ColorTask,22.0,58.0,,,HRV,HRV_0189,2022-11-30 18:42:13
,wl-rdm,66,199032,0.0-6.58-0.58,0.0,67.0,,,,,,,[],,,,,,73.6,1.0,i,1.0,True,979.7999999988824,59.0,60.0,40.0,False,,250.636556215903,[],"[872.5, 491]",ColorTask,23.0,59.0,,,HRV,HRV_0189,2022-11-30 18:42:13
,wl-rdm,67,201381,0.0-6.59-0.59,0.0,68.0,,,,,,,[],,,,,,53.2,1.0,i,1.0,True,973.5999999996275,59.0,60.0,40.0,False,,297.15273920538607,[],"[872.5, 491]",ColorTask,24.0,60.0,,,HRV,HRV_0189,2022-11-30 18:42:13
,wl-rdm,68,203715,0.0-6.60-0.60,0.0,69.0,,,,,,,[],,,,,,50.0,0.0,u,0.0,True,1022.3000000026077,62.0,60.0,40.0,False,,228.6921549091418,[],"[872.5, 491]",ColorTask,25.0,61.0,,,HRV,HRV_0189,2022-11-30 18:42:13
,wl-rdm,69,206063,0.0-6.61-0.61,0.0,70.0,,,,,,,[],,,,,,73.6,0.0,u,0.0,True,1009.8000000007451,61.0,60.0,40.0,False,,256.45172997479625,[],"[872.5, 491]",ColorTask,26.0,62.0,,,HRV,HRV_0189,2022-11-30 18:42:13
,wl-rdm,70,208263,0.0-6.62-0.62,0.0,71.0,,,,,,,[],,,,,,50.0,0.0,i,1.0,False,913.7999999988824,55.0,60.0,40.0,False,,226.75380901268562,[],"[872.5, 491]",ColorTask,25.0,63.0,,,HRV,HRV_0189,2022-11-30 18:42:13
,wl-rdm,71,210495,0.0-6.63-0.63,0.0,72.0,,,,,,,[],,,,,,73.6,1.0,i,1.0,True,823.0,50.0,60.0,40.0,False,,332.0881472489865,[],"[872.5, 491]",ColorTask,26.0,64.0,,,HRV,HRV_0189,2022-11-30 18:42:13
,wl-rdm,72,212794,0.0-6.64-0.64,0.0,73.0,,,,,,,[],,,,,,50.0,1.0,u,0.0,False,868.3000000007451,53.0,60.0,40.0,False,,348.35752503164844,[],"[872.5, 491]",ColorTask,25.0,65.0,,,HRV,HRV_0189,2022-11-30 18:42:13
,wl-rdm,73,215427,0.0-6.65-0.65,0.0,74.0,,,,,,,[],,,,,,62.5,1.0,i,1.0,True,1298.3999999985099,78.0,60.0,40.0,False,,275.4885643248092,[],"[872.5, 491]",ColorTask,26.0,66.0,,,HRV,HRV_0189,2022-11-30 18:42:13
,wl-rdm,74,218026,0.0-6.66-0.66,0.0,75.0,,,,,,,[],,,,,,73.6,0.0,u,0.0,True,1209.0,73.0,60.0,40.0,False,,323.1230545913788,[],"[872.5, 491]",ColorTask,27.0,67.0,,,HRV,HRV_0189,2022-11-30 18:42:13
,wl-rdm,75,220709,0.0-6.67-0.67,0.0,76.0,,,,,,,[],,,,,,62.5,1.0,i,1.0,True,1221.699999999255,74.0,60.0,40.0,False,,376.8959780548301,[],"[872.5, 491]",ColorTask,28.0,68.0,,,HRV,HRV_0189,2022-11-30 18:42:13
,wl-rdm,76,223390,0.0-6.68-0.68,0.0,77.0,,,,,,,[],,,,,,50.0,1.0,u,0.0,False,1401.199999999255,84.0,60.0,40.0,False,,206.2332968447133,[],"[872.5, 491]",ColorTask,27.0,69.0,,,HRV,HRV_0189,2022-11-30 18:42:13
,wl-rdm,77,226373,0.0-6.69-0.69,0.0,78.0,,,,,,,[],,,,,,53.2,1.0,i,1.0,True,1542.699999999255,93.0,60.0,40.0,False,,351.8265440624517,[],"[872.5, 491]",ColorTask,28.0,70.0,,,HRV,HRV_0189,2022-11-30 18:42:13
,wl-rdm,78,229273,0.0-6.70-0.70,0.0,79.0,,,,,,,[],,,,,,50.0,0.0,u,0.0,True,1456.699999999255,88.0,60.0,40.0,False,,375.470422966929,[],"[872.5, 491]",ColorTask,29.0,71.0,,,HRV,HRV_0189,2022-11-30 18:42:13
,wl-rdm,79,231922,0.0-6.71-0.71,0.0,80.0,,,,,,,[],,,,,,53.2,1.0,i,1.0,True,1358.800000000745,82.0,60.0,40.0,False,,208.46196589331944,[],"[872.5, 491]",ColorTask,30.0,72.0,,,HRV,HRV_0189,2022-11-30 18:42:13
,wl-rdm,80,234654,0.0-6.72-0.72,0.0,81.0,,,,,,,[],,,,,,56.4,1.0,i,1.0,True,1345.8999999985099,81.0,60.0,40.0,False,,332.7432890856411,[],"[872.5, 491]",ColorTask,31.0,73.0,,,HRV,HRV_0189,2022-11-30 18:42:13
,wl-rdm,81,237086,0.0-6.73-0.73,0.0,82.0,,,,,,,[],,,,,,73.6,1.0,i,1.0,True,1128.9000000003725,68.0,60.0,40.0,False,,212.0899674640095,[],"[872.5, 491]",ColorTask,32.0,74.0,,,HRV,HRV_0189,2022-11-30 18:42:13
,wl-rdm,82,239769,0.0-6.74-0.74,0.0,83.0,,,,,,,[],,,,,,50.0,1.0,i,1.0,True,1232.1000000014901,74.0,60.0,40.0,False,,378.43344228417175,[],"[872.5, 491]",ColorTask,33.0,75.0,,,HRV,HRV_0189,2022-11-30 18:42:13
,wl-rdm,83,242317,0.0-6.75-0.75,0.0,84.0,,,,,,,[],,,,,,53.2,0.0,u,0.0,True,1091.699999999255,66.0,60.0,40.0,False,,387.15813032762287,[],"[872.5, 491]",ColorTask,34.0,76.0,,,HRV,HRV_0189,2022-11-30 18:42:13
,wl-rdm,84,244583,0.0-6.76-0.76,0.0,85.0,,,,,,,[],,,,,,53.2,1.0,i,1.0,True,883.6000000014901,53.0,60.0,40.0,False,,312.6725999103176,[],"[872.5, 491]",ColorTask,35.0,77.0,,,HRV,HRV_0189,2022-11-30 18:42:13
,wl-rdm,85,246799,0.0-6.77-0.77,0.0,86.0,,,,,,,[],,,,,,73.6,0.0,u,0.0,True,867.6999999992549,52.0,60.0,40.0,False,,275.0402493105368,[],"[872.5, 491]",ColorTask,36.0,78.0,,,HRV,HRV_0189,2022-11-30 18:42:13
,wl-rdm,86,249015,0.0-6.78-0.78,0.0,87.0,,,,,,,[],,,,,,53.2,0.0,u,0.0,True,919.3000000007451,56.0,60.0,40.0,False,,226.49275357157444,[],"[872.5, 491]",ColorTask,37.0,79.0,,,HRV,HRV_0189,2022-11-30 18:42:13
,wl-rdm,87,251248,0.0-6.79-0.79,0.0,88.0,,,,,,,[],,,,,,73.6,1.0,i,1.0,True,939.4000000003725,57.0,60.0,40.0,False,,217.98898820684724,[],"[872.5, 491]",ColorTask,38.0,80.0,,,HRV,HRV_0189,2022-11-30 18:42:13
,wl-rdm,88,253364,0.0-6.80-0.80,0.0,89.0,,,,,,,[],,,,,,87.9,0.0,u,0.0,True,842.5,51.0,60.0,40.0,False,,212.2055969267074,[],"[872.5, 491]",ColorTask,39.0,81.0,,,HRV,HRV_0189,2022-11-30 18:42:13
,wl-rdm,89,255563,0.0-6.81-0.81,0.0,90.0,,,,,,,[],,,,,,62.5,0.0,u,0.0,True,887.6999999992549,54.0,60.0,40.0,False,,219.10563538281386,[],"[872.5, 491]",ColorTask,40.0,82.0,,,HRV,HRV_0189,2022-11-30 18:42:13
,wl-rdm,90,257812,0.0-6.82-0.82,0.0,91.0,,,,,,,[],,,,,,73.6,0.0,u,0.0,True,886.6999999992549,54.0,60.0,40.0,False,,269.12558129297264,[],"[872.5, 491]",ColorTask,41.0,83.0,,,HRV,HRV_0189,2022-11-30 18:42:13
,wl-rdm,91,260062,0.0-6.83-0.83,0.0,92.0,,,,,,,[],,,,,,53.2,1.0,i,1.0,True,828.3999999985099,45.0,60.0,40.0,False,,366.7240122191504,[],"[872.5, 491]",ColorTask,42.0,84.0,,,HRV,HRV_0189,2022-11-30 18:42:13
,wl-rdm,92,262260,0.0-6.84-0.84,0.0,93.0,,,,,,,[],,,,,,56.4,1.0,i,1.0,True,858.4000000003725,52.0,60.0,40.0,False,,250.53543752022017,[],"[872.5, 491]",ColorTask,43.0,85.0,,,HRV,HRV_0189,2022-11-30 18:42:13
,wl-rdm,93,264210,0.0-6.85-0.85,0.0,94.0,,,,,,,[],,,,,,62.5,1.0,i,1.0,True,655.8000000007451,40.0,60.0,40.0,False,,210.0340564896404,[],"[872.5, 491]",ColorTask,44.0,86.0,,,HRV,HRV_0189,2022-11-30 18:42:13
,wl-rdm,94,266259,0.0-6.86-0.86,0.0,95.0,,,,,,,[],,,,,,73.6,1.0,i,1.0,True,667.0,40.0,60.0,40.0,False,,314.5230864875122,[],"[872.5, 491]",ColorTask,45.0,87.0,,,HRV,HRV_0189,2022-11-30 18:42:13
,wl-rdm,95,268292,0.0-6.87-0.87,0.0,96.0,,,,,,,[],,,,,,56.4,1.0,i,1.0,True,671.8999999985099,41.0,60.0,40.0,False,,283.7050309702442,[],"[872.5, 491]",ColorTask,46.0,88.0,,,HRV,HRV_0189,2022-11-30 18:42:13
,wl-rdm,96,270191,0.0-6.88-0.88,0.0,97.0,,,,,,,[],,,,,,87.9,0.0,u,0.0,True,602.1000000014901,37.0,60.0,40.0,False,,233.36400589111196,[],"[872.5, 491]",ColorTask,47.0,89.0,,,HRV,HRV_0189,2022-11-30 18:42:13
,wl-rdm,97,272041,0.0-6.89-0.89,0.0,98.0,,,,,,,[],,,,,,87.9,1.0,i,1.0,True,545.5,33.0,60.0,40.0,False,,223.24597111038156,[],"[872.5, 491]",ColorTask,48.0,90.0,,,HRV,HRV_0189,2022-11-30 18:42:13
,wl-rdm,98,273907,0.0-6.90-0.90,0.0,99.0,,,,,,,[],,,,,,62.5,1.0,i,1.0,True,539.6999999992549,33.0,60.0,40.0,False,,257.067012748023,[],"[872.5, 491]",ColorTask,49.0,91.0,,,HRV,HRV_0189,2022-11-30 18:42:13
,wl-rdm,99,275756,0.0-6.91-0.91,0.0,100.0,,,,,,,[],,,,,,62.5,1.0,i,1.0,True,487.2999999988824,30.0,60.0,40.0,False,,289.20159509538803,[],"[872.5, 491]",ColorTask,50.0,92.0,,,HRV,HRV_0189,2022-11-30 18:42:13
,wl-rdm,100,277538,0.0-6.92-0.92,0.0,101.0,,,,,,,[],,,,,,62.5,1.0,i,1.0,True,499.30000000074506,30.0,60.0,40.0,False,,200.80284729282755,[],"[872.5, 491]",ColorTask,51.0,93.0,,,HRV,HRV_0189,2022-11-30 18:42:13
,wl-rdm,101,279538,0.0-6.93-0.93,0.0,102.0,,,,,,,[],,,,,,87.9,1.0,i,1.0,True,588.2000000011176,36.0,60.0,40.0,False,,325.61932165961366,[],"[872.5, 491]",ColorTask,52.0,94.0,,,HRV,HRV_0189,2022-11-30 18:42:13
,wl-rdm,102,281671,0.0-6.94-0.94,0.0,103.0,,,,,,,[],,,,,,62.5,0.0,i,1.0,False,654.9000000003725,40.0,60.0,40.0,False,,391.35297311451274,[],"[872.5, 491]",ColorTask,51.0,95.0,,,HRV,HRV_0189,2022-11-30 18:42:13
,wl-rdm,103,283703,0.0-6.95-0.95,0.0,104.0,,,,,,,[],,,,,,56.4,1.0,u,0.0,False,737.2000000011176,45.0,60.0,40.0,False,,229.5736481316153,[],"[872.5, 491]",ColorTask,50.0,96.0,,,HRV,HRV_0189,2022-11-30 18:42:13
,wl-rdm,104,285886,0.0-6.96-0.96,0.0,105.0,,,,,,,[],,,,,,87.9,0.0,u,0.0,True,841.4000000003725,51.0,60.0,40.0,False,,280.0552577289573,[],"[872.5, 491]",ColorTask,51.0,97.0,,,HRV,HRV_0189,2022-11-30 18:42:13
,wl-rdm,105,287836,0.0-6.97-0.97,0.0,106.0,,,,,,,[],,,,,,56.4,1.0,i,1.0,True,660.7999999988824,40.0,60.0,40.0,False,,206.095575232182,[],"[872.5, 491]",ColorTask,52.0,98.0,,,HRV,HRV_0189,2022-11-30 18:42:13
,wl-rdm,106,289819,0.0-6.98-0.98,0.0,107.0,,,,,,,[],,,,,,73.6,1.0,i,1.0,True,703.4999999981374,43.0,60.0,40.0,False,,204.97301778485536,[],"[872.5, 491]",ColorTask,53.0,99.0,,,HRV,HRV_0189,2022-11-30 18:42:13
,wl-rdm,107,291883,0.0-6.99-0.99,0.0,108.0,,,,,,,[],,,,,,53.2,1.0,u,0.0,False,738.3999999985099,45.0,60.0,40.0,False,,244.1486706477065,[],"[872.5, 491]",ColorTask,52.0,100.0,,,HRV,HRV_0189,2022-11-30 18:42:13
,wl-rdm,108,294167,0.0-6.100-0.100,0.0,109.0,,,,,,,[],,,,,,56.4,0.0,u,0.0,True,950.4000000003725,57.0,60.0,40.0,False,,279.22609337819995,[],"[872.5, 491]",ColorTask,53.0,101.0,,,HRV,HRV_0189,2022-11-30 18:42:13
,wl-rdm,109,296366,0.0-6.101-0.101,0.0,110.0,,,,,,,[],,,,,,87.9,0.0,u,0.0,True,865.6999999992549,52.0,60.0,40.0,False,,255.88024683831156,[],"[872.5, 491]",ColorTask,54.0,102.0,,,HRV,HRV_0189,2022-11-30 18:42:13
,wl-rdm,110,298615,0.0-6.102-0.102,0.0,111.0,,,,,,,[],,,,,,50.0,1.0,u,0.0,False,944.4000000003725,57.0,60.0,40.0,False,,226.8055077099379,[],"[872.5, 491]",ColorTask,53.0,103.0,,,HRV,HRV_0189,2022-11-30 18:42:13
,wl-rdm,111,301048,0.0-6.103-0.103,0.0,112.0,,,,,,,[],,,,,,50.0,0.0,u,0.0,True,952.9000000003725,58.0,60.0,40.0,False,,399.5984658924407,[],"[872.5, 491]",ColorTask,54.0,104.0,,,HRV,HRV_0189,2022-11-30 18:42:13
,wl-rdm,112,303347,0.0-6.104-0.104,0.0,113.0,,,,,,,[],,,,,,53.2,0.0,i,1.0,False,1012.5,61.0,60.0,40.0,False,,204.5362593362966,[],"[872.5, 491]",ColorTask,53.0,105.0,,,HRV,HRV_0189,2022-11-30 18:42:13
,wl-rdm,113,305829,0.0-6.105-0.105,0.0,114.0,,,,,,,[],,,,,,53.2,1.0,i,1.0,True,1038.5000000018626,63.0,60.0,40.0,False,,350.9944643459904,[],"[872.5, 491]",ColorTask,54.0,106.0,,,HRV,HRV_0189,2022-11-30 18:42:13
,wl-rdm,114,308128,0.0-6.106-0.106,0.0,115.0,,,,,,,[],,,,,,62.5,0.0,u,0.0,True,986.9000000003725,60.0,60.0,40.0,False,,230.01081459487617,[],"[872.5, 491]",ColorTask,55.0,107.0,,,HRV,HRV_0189,2022-11-30 18:42:13
,wl-rdm,115,310544,0.0-6.107-0.107,0.0,116.0,,,,,,,[],,,,,,50.0,1.0,i,1.0,True,1083.0999999996275,65.0,60.0,40.0,False,,253.9919299594514,[],"[872.5, 491]",ColorTask,56.0,108.0,,,HRV,HRV_0189,2022-11-30 18:42:13
,wl-html-keyboard-response,116,317916,0.0-7.0-0.0,1.0,117.0,,,,,,,,5362.10000000149,1.0,0,,,,,,,,,,,,,,,,,,,,,,HRV,HRV_0189,2022-11-30 18:42:13
,wl-rdm,117,320041,0.0-8.0-0.0,1.0,118.0,,,,,,,[],,,,,,50.0,1.0,i,1.0,True,790.7999999988824,48.0,60.0,40.0,False,,280.11397525231325,[],"[872.5, 491]",ColorTask,57.0,1.0,,,HRV,HRV_0189,2022-11-30 18:42:13
,wl-rdm,118,322324,0.0-8.1-0.1,1.0,119.0,,,,,,,[],,,,,,53.2,0.0,i,1.0,False,818.6999999992549,49.0,60.0,40.0,False,,393.46785217131867,[],"[872.5, 491]",ColorTask,56.0,2.0,,,HRV,HRV_0189,2022-11-30 18:42:13
,wl-rdm,119,324489,0.0-8.2-0.2,1.0,120.0,,,,,,,[],,,,,,62.5,0.0,u,0.0,True,813.9000000022352,49.0,60.0,40.0,False,,279.97458141026715,[],"[872.5, 491]",ColorTask,57.0,3.0,,,HRV,HRV_0189,2022-11-30 18:42:13
,wl-rdm,120,326506,0.0-8.3-0.3,1.0,121.0,,,,,,,[],,,,,,62.5,1.0,i,1.0,True,690.2999999988824,42.0,60.0,40.0,False,,233.81710831038657,[],"[872.5, 491]",ColorTask,58.0,4.0,,,HRV,HRV_0189,2022-11-30 18:42:13
,wl-rdm,121,328505,0.0-8.4-0.4,1.0,122.0,,,,,,,[],,,,,,87.9,1.0,i,1.0,True,687.6999999992549,42.0,60.0,40.0,False,,243.97704504442729,[],"[872.5, 491]",ColorTask,59.0,5.0,,,HRV,HRV_0189,2022-11-30 18:42:13
,wl-rdm,122,330488,0.0-8.5-0.5,1.0,123.0,,,,,,,[],,,,,,50.0,0.0,i,1.0,False,641.6999999992549,39.0,60.0,40.0,False,,258.0592929245594,[],"[872.5, 491]",ColorTask,58.0,6.0,,,HRV,HRV_0189,2022-11-30 18:42:13
,wl-rdm,123,332704,0.0-8.6-0.6,1.0,124.0,,,,,,,[],,,,,,62.5,0.0,u,0.0,True,878.2999999988824,53.0,60.0,40.0,False,,273.9947859638666,[],"[872.5, 491]",ColorTask,59.0,7.0,,,HRV,HRV_0189,2022-11-30 18:42:13
,wl-rdm,124,334769,0.0-8.7-0.7,1.0,125.0,,,,,,,[],,,,,,56.4,1.0,i,1.0,True,632.0999999996275,38.0,60.0,40.0,False,,350.6923367739638,[],"[872.5, 491]",ColorTask,60.0,8.0,,,HRV,HRV_0189,2022-11-30 18:42:13
,wl-rdm,125,336952,0.0-8.8-0.8,1.0,126.0,,,,,,,[],,,,,,50.0,1.0,u,0.0,False,759.4000000003725,46.0,60.0,40.0,False,,342.3746468539041,[],"[872.5, 491]",ColorTask,59.0,9.0,,,HRV,HRV_0189,2022-11-30 18:42:13
,wl-rdm,126,339101,0.0-8.9-0.9,1.0,127.0,,,,,,,[],,,,,,56.4,0.0,i,1.0,False,835.6999999992549,51.0,60.0,40.0,False,,227.70105046780427,[],"[872.5, 491]",ColorTask,58.0,10.0,,,HRV,HRV_0189,2022-11-30 18:42:13
,wl-rdm,127,341317,0.0-8.10-0.10,1.0,128.0,,,,,,,[],,,,,,56.4,0.0,u,0.0,True,838.3000000007451,51.0,60.0,40.0,False,,288.2827902235241,[],"[872.5, 491]",ColorTask,59.0,11.0,,,HRV,HRV_0189,2022-11-30 18:42:13
,wl-rdm,128,343517,0.0-8.11-0.11,1.0,129.0,,,,,,,[],,,,,,62.5,0.0,u,0.0,True,856.0000000018626,52.0,60.0,40.0,False,,254.16847872478235,[],"[872.5, 491]",ColorTask,60.0,12.0,,,HRV,HRV_0189,2022-11-30 18:42:13
,wl-rdm,129,345599,0.0-8.12-0.12,1.0,130.0,,,,,,,[],,,,,,73.6,0.0,u,0.0,True,793.2999999988824,48.0,60.0,40.0,False,,213.29367370974416,[],"[872.5, 491]",ColorTask,61.0,13.0,,,HRV,HRV_0189,2022-11-30 18:42:13
,wl-rdm,130,347665,0.0-8.13-0.13,1.0,131.0,,,,,,,[],,,,,,87.9,0.0,u,0.0,True,768.8000000026077,46.0,60.0,40.0,False,,222.159518646848,[],"[872.5, 491]",ColorTask,62.0,14.0,,,HRV,HRV_0189,2022-11-30 18:42:13
,wl-rdm,131,349782,0.0-8.14-0.14,1.0,132.0,,,,,,,[],,,,,,73.6,0.0,i,1.0,False,800.0,48.0,60.0,40.0,False,,243.62096942050016,[],"[872.5, 491]",ColorTask,61.0,15.0,,,HRV,HRV_0189,2022-11-30 18:42:13
,wl-rdm,132,351981,0.0-8.15-0.15,1.0,133.0,,,,,,,[],,,,,,53.2,1.0,u,0.0,False,855.2999999988824,52.0,60.0,40.0,False,,271.1991732315207,[],"[872.5, 491]",ColorTask,60.0,16.0,,,HRV,HRV_0189,2022-11-30 18:42:13
,wl-rdm,133,353930,0.0-8.16-0.16,1.0,134.0,,,,,,,[],,,,,,87.9,1.0,i,1.0,True,667.4000000003725,41.0,60.0,40.0,False,,207.31340562634435,[],"[872.5, 491]",ColorTask,61.0,17.0,,,HRV,HRV_0189,2022-11-30 18:42:13
,wl-rdm,134,355880,0.0-8.17-0.17,1.0,135.0,,,,,,,[],,,,,,56.4,1.0,i,1.0,True,638.8000000026077,39.0,60.0,40.0,False,,214.39089639196698,[],"[872.5, 491]",ColorTask,62.0,18.0,,,HRV,HRV_0189,2022-11-30 18:42:13
,wl-rdm,135,357829,0.0-8.18-0.18,1.0,136.0,,,,,,,[],,,,,,53.2,1.0,i,1.0,True,636.7999999988824,39.0,60.0,40.0,False,,223.3854576760554,[],"[872.5, 491]",ColorTask,63.0,19.0,,,HRV,HRV_0189,2022-11-30 18:42:13
,wl-rdm,136,359811,0.0-8.19-0.19,1.0,137.0,,,,,,,[],,,,,,62.5,1.0,i,1.0,True,631.7999999988824,38.0,60.0,40.0,False,,285.80209548524476,[],"[872.5, 491]",ColorTask,64.0,20.0,,,HRV,HRV_0189,2022-11-30 18:42:13
,wl-rdm,137,361760,0.0-8.20-0.20,1.0,138.0,,,,,,,[],,,,,,56.4,1.0,i,1.0,True,594.9000000003725,36.0,60.0,40.0,False,,279.55303268482936,[],"[872.5, 491]",ColorTask,65.0,21.0,,,HRV,HRV_0189,2022-11-30 18:42:13
,wl-rdm,138,363676,0.0-8.21-0.21,1.0,139.0,,,,,,,[],,,,,,50.0,1.0,i,1.0,True,610.1000000014901,37.0,60.0,40.0,False,,247.44980159362262,[],"[872.5, 491]",ColorTask,66.0,22.0,,,HRV,HRV_0189,2022-11-30 18:42:13
,wl-rdm,139,365576,0.0-8.22-0.22,1.0,140.0,,,,,,,[],,,,,,73.6,1.0,i,1.0,True,558.5999999996275,34.0,60.0,40.0,False,,261.5540620756436,[],"[872.5, 491]",ColorTask,67.0,23.0,,,HRV,HRV_0189,2022-11-30 18:42:13
,wl-rdm,140,367592,0.0-8.23-0.23,1.0,141.0,,,,,,,[],,,,,,62.5,1.0,i,1.0,True,579.4000000003725,35.0,60.0,40.0,False,,376.5284705498554,[],"[872.5, 491]",ColorTask,68.0,24.0,,,HRV,HRV_0189,2022-11-30 18:42:13
,wl-rdm,141,369491,0.0-8.24-0.24,1.0,142.0,,,,,,,[],,,,,,50.0,0.0,u,0.0,True,555.3000000007451,34.0,60.0,40.0,False,,258.1532614612951,[],"[872.5, 491]",ColorTask,69.0,25.0,,,HRV,HRV_0189,2022-11-30 18:42:13
,wl-rdm,142,371340,0.0-8.25-0.25,1.0,143.0,,,,,,,[],,,,,,73.6,1.0,i,1.0,True,522.4000000003725,32.0,60.0,40.0,False,,264.4203999086132,[],"[872.5, 491]",ColorTask,70.0,26.0,,,HRV,HRV_0189,2022-11-30 18:42:13
,wl-rdm,143,373274,0.0-8.26-0.26,1.0,144.0,,,,,,,[],,,,,,53.2,0.0,i,1.0,False,608.3000000026077,37.0,60.0,40.0,False,,242.7435890790861,[],"[872.5, 491]",ColorTask,69.0,27.0,,,HRV,HRV_0189,2022-11-30 18:42:13
,wl-rdm,144,375123,0.0-8.27-0.27,1.0,145.0,,,,,,,[],,,,,,87.9,1.0,i,1.0,True,528.7999999988824,32.0,60.0,40.0,False,,256.4926070183619,[],"[872.5, 491]",ColorTask,70.0,28.0,,,HRV,HRV_0189,2022-11-30 18:42:13
,wl-rdm,145,377056,0.0-8.28-0.28,1.0,146.0,,,,,,,[],,,,,,62.5,0.0,u,0.0,True,547.3999999985099,33.0,60.0,40.0,False,,302.06510253756556,[],"[872.5, 491]",ColorTask,71.0,29.0,,,HRV,HRV_0189,2022-11-30 18:42:13
,wl-rdm,146,379255,0.0-8.29-0.29,1.0,147.0,,,,,,,[],,,,,,50.0,1.0,i,1.0,True,733.4000000003725,44.0,60.0,40.0,False,,395.7849133484794,[],"[872.5, 491]",ColorTask,72.0,30.0,,,HRV,HRV_0189,2022-11-30 18:42:13
,wl-rdm,147,381221,0.0-8.30-0.30,1.0,148.0,,,,,,,[],,,,,,56.4,1.0,i,1.0,True,616.9000000003725,38.0,60.0,40.0,False,,260.6316608945118,[],"[872.5, 491]",ColorTask,73.0,31.0,,,HRV,HRV_0189,2022-11-30 18:42:13
,wl-rdm,148,383303,0.0-8.31-0.31,1.0,149.0,,,,,,,[],,,,,,53.2,1.0,u,0.0,False,631.5,38.0,60.0,40.0,False,,358.4525622800744,[],"[872.5, 491]",ColorTask,72.0,32.0,,,HRV,HRV_0189,2022-11-30 18:42:13
,wl-rdm,149,385469,0.0-8.32-0.32,1.0,150.0,,,,,,,[],,,,,,62.5,0.0,u,0.0,True,737.3000000007451,44.0,60.0,40.0,False,,360.17104594925456,[],"[872.5, 491]",ColorTask,73.0,33.0,,,HRV,HRV_0189,2022-11-30 18:42:13
,wl-rdm,150,387435,0.0-8.33-0.33,1.0,151.0,,,,,,,[],,,,,,73.6,1.0,u,0.0,False,688.9000000003725,42.0,60.0,40.0,False,,210.5110120054912,[],"[872.5, 491]",ColorTask,72.0,34.0,,,HRV,HRV_0189,2022-11-30 18:42:13
,wl-rdm,151,389435,0.0-8.34-0.34,1.0,152.0,,,,,,,[],,,,,,87.9,0.0,u,0.0,True,594.3000000007451,36.0,60.0,40.0,False,,346.3948897026921,[],"[872.5, 491]",ColorTask,73.0,35.0,,,HRV,HRV_0189,2022-11-30 18:42:13
,wl-rdm,152,391633,0.0-8.35-0.35,1.0,153.0,,,,,,,[],,,,,,50.0,0.0,u,0.0,True,768.7999999988824,47.0,60.0,40.0,False,,329.4020861186209,[],"[872.5, 491]",ColorTask,74.0,36.0,,,HRV,HRV_0189,2022-11-30 18:42:13
,wl-rdm,153,393682,0.0-8.36-0.36,1.0,154.0,,,,,,,[],,,,,,56.4,0.0,u,0.0,True,739.8999999985099,45.0,60.0,40.0,False,,247.59905229661715,[],"[872.5, 491]",ColorTask,75.0,37.0,,,HRV,HRV_0189,2022-11-30 18:42:13
,wl-rdm,154,395599,0.0-8.37-0.37,1.0,155.0,,,,,,,[],,,,,,56.4,1.0,u,0.0,False,612.5,37.0,60.0,40.0,False,,228.41339148570088,[],"[872.5, 491]",ColorTask,74.0,38.0,,,HRV,HRV_0189,2022-11-30 18:42:13
,wl-rdm,155,397732,0.0-8.38-0.38,1.0,156.0,,,,,,,[],,,,,,56.4,0.0,i,1.0,False,687.1000000014901,42.0,60.0,40.0,False,,375.86227184382363,[],"[872.5, 491]",ColorTask,73.0,39.0,,,HRV,HRV_0189,2022-11-30 18:42:13
,wl-rdm,156,399931,0.0-8.39-0.39,1.0,157.0,,,,,,,[],,,,,,62.5,0.0,u,0.0,True,829.8999999985099,50.0,60.0,40.0,False,,292.5850828330451,[],"[872.5, 491]",ColorTask,74.0,40.0,,,HRV,HRV_0189,2022-11-30 18:42:13
,wl-rdm,157,401947,0.0-8.40-0.40,1.0,158.0,,,,,,,[],,,,,,87.9,0.0,u,0.0,True,638.5,39.0,60.0,40.0,False,,313.42481616880815,[],"[872.5, 491]",ColorTask,75.0,41.0,,,HRV,HRV_0189,2022-11-30 18:42:13
,wl-rdm,158,403947,0.0-8.41-0.41,1.0,159.0,,,,,,,[],,,,,,62.5,1.0,u,0.0,False,720.0999999996275,44.0,60.0,40.0,False,,206.5156545118979,[],"[872.5, 491]",ColorTask,74.0,42.0,,,HRV,HRV_0189,2022-11-30 18:42:13
,wl-rdm,159,406112,0.0-8.42-0.42,1.0,160.0,,,,,,,[],,,,,,73.6,1.0,i,1.0,True,713.0,43.0,60.0,40.0,False,,368.1006517582182,[],"[872.5, 491]",ColorTask,75.0,43.0,,,HRV,HRV_0189,2022-11-30 18:42:13
,wl-rdm,160,408195,0.0-8.43-0.43,1.0,161.0,,,,,,,[],,,,,,73.6,0.0,u,0.0,True,738.5,45.0,60.0,40.0,False,,264.7238712232753,[],"[872.5, 491]",ColorTask,76.0,44.0,,,HRV,HRV_0189,2022-11-30 18:42:13
,wl-rdm,161,410227,0.0-8.44-0.44,1.0,162.0,,,,,,,[],,,,,,62.5,1.0,i,1.0,True,703.5999999996275,43.0,60.0,40.0,False,,260.43261401567963,[],"[872.5, 491]",ColorTask,77.0,45.0,,,HRV,HRV_0189,2022-11-30 18:42:13
,wl-rdm,162,412243,0.0-8.45-0.45,1.0,163.0,,,,,,,[],,,,,,87.9,0.0,u,0.0,True,596.1999999992549,36.0,60.0,40.0,False,,353.24827525257854,[],"[872.5, 491]",ColorTask,78.0,46.0,,,HRV,HRV_0189,2022-11-30 18:42:13
,wl-rdm,163,414310,0.0-8.46-0.46,1.0,164.0,,,,,,,[],,,,,,73.6,0.0,u,0.0,True,771.8000000007451,47.0,60.0,40.0,False,,233.20900727890202,[],"[872.5, 491]",ColorTask,79.0,47.0,,,HRV,HRV_0189,2022-11-30 18:42:13
,wl-rdm,164,416459,0.0-8.47-0.47,1.0,165.0,,,,,,,[],,,,,,56.4,0.0,i,1.0,False,872.0,53.0,60.0,40.0,False,,204.96417403942564,[],"[872.5, 491]",ColorTask,78.0,48.0,,,HRV,HRV_0189,2022-11-30 18:42:13
,wl-rdm,165,418608,0.0-8.48-0.48,1.0,166.0,,,,,,,[],,,,,,50.0,1.0,i,1.0,True,740.3000000007451,45.0,60.0,40.0,False,,300.35641479079334,[],"[872.5, 491]",ColorTask,79.0,49.0,,,HRV,HRV_0189,2022-11-30 18:42:13
,wl-rdm,166,420624,0.0-8.49-0.49,1.0,167.0,,,,,,,[],,,,,,73.6,1.0,i,1.0,True,647.6999999992549,39.0,60.0,40.0,False,,299.91180147997466,[],"[872.5, 491]",ColorTask,80.0,50.0,,,HRV,HRV_0189,2022-11-30 18:42:13
,wl-rdm,167,422573,0.0-8.50-0.50,1.0,168.0,,,,,,,[],,,,,,87.9,1.0,i,1.0,True,646.1999999992549,39.0,60.0,40.0,False,,234.36461477072174,[],"[872.5, 491]",ColorTask,81.0,51.0,,,HRV,HRV_0189,2022-11-30 18:42:13
,wl-rdm,168,424556,0.0-8.51-0.51,1.0,169.0,,,,,,,[],,,,,,73.6,0.0,u,0.0,True,546.2999999988824,33.0,60.0,40.0,False,,350.65182553546515,[],"[872.5, 491]",ColorTask,82.0,52.0,,,HRV,HRV_0189,2022-11-30 18:42:13
,wl-rdm,169,426556,0.0-8.52-0.52,1.0,170.0,,,,,,,[],,,,,,53.2,0.0,u,0.0,True,668.4000000022352,40.0,60.0,40.0,False,,254.58220006007267,[],"[872.5, 491]",ColorTask,83.0,53.0,,,HRV,HRV_0189,2022-11-30 18:42:13
,wl-rdm,170,428471,0.0-8.53-0.53,1.0,171.0,,,,,,,[],,,,,,73.6,1.0,i,1.0,True,586.9000000003725,36.0,60.0,40.0,False,,244.94021148837362,[],"[872.5, 491]",ColorTask,84.0,54.0,,,HRV,HRV_0189,2022-11-30 18:42:13
,wl-rdm,171,430438,0.0-8.54-0.54,1.0,172.0,,,,,,,[],,,,,,53.2,1.0,i,1.0,True,642.2999999988824,39.0,60.0,40.0,False,,234.1378040396549,[],"[872.5, 491]",ColorTask,85.0,55.0,,,HRV,HRV_0189,2022-11-30 18:42:13
,wl-rdm,172,432519,0.0-8.55-0.55,1.0,173.0,,,,,,,[],,,,,,53.2,0.0,u,0.0,True,655.7000000011176,40.0,60.0,40.0,False,,323.36337747150753,[],"[872.5, 491]",ColorTask,86.0,56.0,,,HRV,HRV_0189,2022-11-30 18:42:13
,wl-rdm,173,434553,0.0-8.56-0.56,1.0,174.0,,,,,,,[],,,,,,53.2,1.0,i,1.0,True,655.2000000011176,40.0,60.0,40.0,False,,306.5178711321153,[],"[872.5, 491]",ColorTask,87.0,57.0,,,HRV,HRV_0189,2022-11-30 18:42:13
,wl-rdm,174,436503,0.0-8.57-0.57,1.0,175.0,,,,,,,[],,,,,,62.5,0.0,i,1.0,False,630.4000000003725,38.0,60.0,40.0,False,,246.6193497156425,[],"[872.5, 491]",ColorTask,86.0,58.0,,,HRV,HRV_0189,2022-11-30 18:42:13
,wl-rdm,175,438486,0.0-8.58-0.58,1.0,176.0,,,,,,,[],,,,,,56.4,0.0,i,1.0,False,570.7999999988824,35.0,60.0,40.0,False,,334.9137540353811,[],"[872.5, 491]",ColorTask,85.0,59.0,,,HRV,HRV_0189,2022-11-30 18:42:13
,wl-rdm,176,440684,0.0-8.59-0.59,1.0,177.0,,,,,,,[],,,,,,56.4,0.0,u,0.0,True,719.8000000007451,44.0,60.0,40.0,False,,368.55718168170915,[],"[872.5, 491]",ColorTask,86.0,60.0,,,HRV,HRV_0189,2022-11-30 18:42:13
,wl-rdm,177,442650,0.0-8.60-0.60,1.0,178.0,,,,,,,[],,,,,,73.6,1.0,i,1.0,True,608.9000000003725,37.0,60.0,40.0,False,,271.34757066255025,[],"[872.5, 491]",ColorTask,87.0,61.0,,,HRV,HRV_0189,2022-11-30 18:42:13
,wl-rdm,178,444732,0.0-8.61-0.61,1.0,179.0,,,,,,,[],,,,,,73.6,0.0,i,1.0,False,741.5999999996275,45.0,60.0,40.0,False,,277.7741422023534,[],"[872.5, 491]",ColorTask,86.0,62.0,,,HRV,HRV_0189,2022-11-30 18:42:13
,wl-rdm,179,446915,0.0-8.62-0.62,1.0,180.0,,,,,,,[],,,,,,53.2,0.0,i,1.0,False,771.3999999985099,47.0,60.0,40.0,False,,337.398031850647,[],"[872.5, 491]",ColorTask,85.0,63.0,,,HRV,HRV_0189,2022-11-30 18:42:13
,wl-rdm,180,449015,0.0-8.63-0.63,1.0,181.0,,,,,,,[],,,,,,56.4,1.0,i,1.0,True,793.4000000022352,48.0,60.0,40.0,False,,219.61107771175432,[],"[872.5, 491]",ColorTask,86.0,64.0,,,HRV,HRV_0189,2022-11-30 18:42:13
,wl-rdm,181,450980,0.0-8.64-0.64,1.0,182.0,,,,,,,[],,,,,,53.2,0.0,i,1.0,False,485.69999999925494,30.0,60.0,40.0,False,,399.0725771041142,[],"[872.5, 491]",ColorTask,85.0,65.0,,,HRV,HRV_0189,2022-11-30 18:42:13
,wl-rdm,182,453096,0.0-8.65-0.65,1.0,183.0,,,,,,,[],,,,,,73.6,0.0,u,0.0,True,791.0,48.0,60.0,40.0,False,,242.48789606461543,[],"[872.5, 491]",ColorTask,86.0,66.0,,,HRV,HRV_0189,2022-11-30 18:42:13
,wl-rdm,183,455096,0.0-8.66-0.66,1.0,184.0,,,,,,,[],,,,,,87.9,0.0,u,0.0,True,671.6999999992549,41.0,60.0,40.0,False,,238.3596720600661,[],"[872.5, 491]",ColorTask,87.0,67.0,,,HRV,HRV_0189,2022-11-30 18:42:13
,wl-rdm,184,457078,0.0-8.67-0.67,1.0,185.0,,,,,,,[],,,,,,50.0,0.0,i,1.0,False,665.6000000014901,40.0,60.0,40.0,False,,243.54193603894572,[],"[872.5, 491]",ColorTask,86.0,68.0,,,HRV,HRV_0189,2022-11-30 18:42:13
,wl-rdm,185,459078,0.0-8.68-0.68,1.0,186.0,,,,,,,[],,,,,,50.0,0.0,i,1.0,False,637.5,39.0,60.0,40.0,False,,293.5575524064192,[],"[872.5, 491]",ColorTask,85.0,69.0,,,HRV,HRV_0189,2022-11-30 18:42:13
,wl-rdm,186,461277,0.0-8.69-0.69,1.0,187.0,,,,,,,[],,,,,,62.5,1.0,i,1.0,True,772.3000000007451,47.0,60.0,40.0,False,,349.3523411853503,[],"[872.5, 491]",ColorTask,86.0,70.0,,,HRV,HRV_0189,2022-11-30 18:42:13
,wl-rdm,187,463144,0.0-8.70-0.70,1.0,188.0,,,,,,,[],,,,,,87.9,0.0,u,0.0,True,599.3999999985099,36.0,60.0,40.0,False,,202.5040509805192,[],"[872.5, 491]",ColorTask,87.0,71.0,,,HRV,HRV_0189,2022-11-30 18:42:13
,wl-rdm,188,465093,0.0-8.71-0.71,1.0,189.0,,,,,,,[],,,,,,62.5,1.0,i,1.0,True,638.2999999988824,39.0,60.0,40.0,False,,219.0529499719146,[],"[872.5, 491]",ColorTask,88.0,72.0,,,HRV,HRV_0189,2022-11-30 18:42:13
,wl-rdm,189,467025,0.0-8.72-0.72,1.0,190.0,,,,,,,[],,,,,,87.9,1.0,i,1.0,True,658.8000000026077,40.0,60.0,40.0,False,,213.32629808505632,[],"[872.5, 491]",ColorTask,89.0,73.0,,,HRV,HRV_0189,2022-11-30 18:42:13
,wl-rdm,190,469157,0.0-8.73-0.73,1.0,191.0,,,,,,,[],,,,,,87.9,0.0,u,0.0,True,712.0,43.0,60.0,40.0,False,,337.68422990096246,[],"[872.5, 491]",ColorTask,90.0,74.0,,,HRV,HRV_0189,2022-11-30 18:42:13
,wl-rdm,191,471157,0.0-8.74-0.74,1.0,192.0,,,,,,,[],,,,,,73.6,0.0,u,0.0,True,703.9000000003725,43.0,60.0,40.0,False,,200.10739772343416,[],"[872.5, 491]",ColorTask,91.0,75.0,,,HRV,HRV_0189,2022-11-30 18:42:13
,wl-rdm,192,473140,0.0-8.75-0.75,1.0,193.0,,,,,,,[],,,,,,87.9,1.0,i,1.0,True,698.0,42.0,60.0,40.0,False,,226.4278732115531,[],"[872.5, 491]",ColorTask,92.0,76.0,,,HRV,HRV_0189,2022-11-30 18:42:13
,wl-rdm,193,475189,0.0-8.76-0.76,1.0,194.0,,,,,,,[],,,,,,73.6,0.0,u,0.0,True,609.3999999985099,37.0,60.0,40.0,False,,383.8658437153108,[],"[872.5, 491]",ColorTask,93.0,77.0,,,HRV,HRV_0189,2022-11-30 18:42:13
,wl-rdm,194,477139,0.0-8.77-0.77,1.0,195.0,,,,,,,[],,,,,,56.4,1.0,u,0.0,False,625.9000000022352,38.0,60.0,40.0,False,,245.92572279548955,[],"[872.5, 491]",ColorTask,92.0,78.0,,,HRV,HRV_0189,2022-11-30 18:42:13
,wl-rdm,195,479254,0.0-8.78-0.78,1.0,196.0,,,,,,,[],,,,,,62.5,0.0,i,1.0,False,831.5,50.0,60.0,40.0,False,,215.96191553490186,[],"[872.5, 491]",ColorTask,91.0,79.0,,,HRV,HRV_0189,2022-11-30 18:42:13
,wl-rdm,196,481487,0.0-8.79-0.79,1.0,197.0,,,,,,,[],,,,,,56.4,0.0,u,0.0,True,800.8000000007451,48.0,60.0,40.0,False,,358.3443389532302,[],"[872.5, 491]",ColorTask,92.0,80.0,,,HRV,HRV_0189,2022-11-30 18:42:13
,wl-rdm,197,483603,0.0-8.80-0.80,1.0,198.0,,,,,,,[],,,,,,50.0,1.0,u,0.0,False,770.0,47.0,60.0,40.0,False,,255.79311340178344,[],"[872.5, 491]",ColorTask,91.0,81.0,,,HRV,HRV_0189,2022-11-30 18:42:13
,wl-rdm,198,485786,0.0-8.81-0.81,1.0,199.0,,,,,,,[],,,,,,50.0,0.0,i,1.0,False,828.6999999992549,50.0,60.0,40.0,False,,294.62867511737704,[],"[872.5, 491]",ColorTask,90.0,82.0,,,HRV,HRV_0189,2022-11-30 18:42:13
,wl-rdm,199,487701,0.0-8.82-0.82,1.0,200.0,,,,,,,[],,,,,,50.0,0.0,i,1.0,False,593.8999999985099,36.0,60.0,40.0,False,,240.00239344633363,[],"[872.5, 491]",ColorTask,89.0,83.0,,,HRV,HRV_0189,2022-11-30 18:42:13
,wl-rdm,200,489767,0.0-8.83-0.83,1.0,201.0,,,,,,,[],,,,,,50.0,1.0,u,0.0,False,683.0999999996275,42.0,60.0,40.0,False,,297.7724347369052,[],"[872.5, 491]",ColorTask,88.0,84.0,,,HRV,HRV_0189,2022-11-30 18:42:13
,wl-rdm,201,491701,0.0-8.84-0.84,1.0,202.0,,,,,,,[],,,,,,62.5,1.0,i,1.0,True,625.0,38.0,60.0,40.0,False,,221.7431934638544,[],"[872.5, 491]",ColorTask,89.0,85.0,,,HRV,HRV_0189,2022-11-30 18:42:13
,wl-rdm,202,493582,0.0-8.85-0.85,1.0,203.0,,,,,,,[],,,,,,53.2,1.0,i,1.0,True,523.3000000007451,32.0,60.0,40.0,False,,293.9154312379101,[],"[872.5, 491]",ColorTask,90.0,86.0,,,HRV,HRV_0189,2022-11-30 18:42:13
,wl-rdm,203,495650,0.0-8.86-0.86,1.0,204.0,,,,,,,[],,,,,,50.0,1.0,i,1.0,True,643.8999999985099,39.0,60.0,40.0,False,,347.2536529655715,[],"[872.5, 491]",ColorTask,91.0,87.0,,,HRV,HRV_0189,2022-11-30 18:42:13
,wl-rdm,204,497648,0.0-8.87-0.87,1.0,205.0,,,,,,,[],,,,,,87.9,0.0,u,0.0,True,675.2999999988824,41.0,60.0,40.0,False,,242.19988347720454,[],"[872.5, 491]",ColorTask,92.0,88.0,,,HRV,HRV_0189,2022-11-30 18:42:13
,wl-rdm,205,499580,0.0-8.88-0.88,1.0,206.0,,,,,,,[],,,,,,56.4,0.0,i,1.0,False,537.0,33.0,60.0,40.0,False,,305.38139165765364,[],"[872.5, 491]",ColorTask,91.0,89.0,,,HRV,HRV_0189,2022-11-30 18:42:13
,wl-rdm,206,501380,0.0-8.89-0.89,1.0,207.0,,,,,,,[],,,,,,56.4,1.0,i,1.0,True,509.7999999988824,31.0,60.0,40.0,False,,200.72757998259368,[],"[872.5, 491]",ColorTask,92.0,90.0,,,HRV,HRV_0189,2022-11-30 18:42:13
,wl-rdm,207,503580,0.0-8.90-0.90,1.0,208.0,,,,,,,[],,,,,,53.2,0.0,i,1.0,False,772.9000000003725,47.0,60.0,40.0,False,,345.3785377779302,[],"[872.5, 491]",ColorTask,91.0,91.0,,,HRV,HRV_0189,2022-11-30 18:42:13
,wl-rdm,208,505494,0.0-8.91-0.91,1.0,209.0,,,,,,,[],,,,,,56.4,1.0,i,1.0,True,549.8999999985099,33.0,60.0,40.0,False,,283.81653313914506,[],"[872.5, 491]",ColorTask,92.0,92.0,,,HRV,HRV_0189,2022-11-30 18:42:13
,wl-rdm,209,507495,0.0-8.92-0.92,1.0,210.0,,,,,,,[],,,,,,50.0,0.0,i,1.0,False,638.5,39.0,60.0,40.0,False,,283.1405954585056,[],"[872.5, 491]",ColorTask,91.0,93.0,,,HRV,HRV_0189,2022-11-30 18:42:13
,wl-rdm,210,509794,0.0-8.93-0.93,1.0,211.0,,,,,,,[],,,,,,62.5,1.0,u,0.0,False,993.0999999996275,60.0,60.0,40.0,False,,247.38693649781197,[],"[872.5, 491]",ColorTask,90.0,94.0,,,HRV,HRV_0189,2022-11-30 18:42:13
,wl-rdm,211,511660,0.0-8.94-0.94,1.0,212.0,,,,,,,[],,,,,,73.6,1.0,i,1.0,True,592.0,36.0,60.0,40.0,False,,200.05258838628765,[],"[872.5, 491]",ColorTask,91.0,95.0,,,HRV,HRV_0189,2022-11-30 18:42:13
,wl-rdm,212,513725,0.0-8.95-0.95,1.0,213.0,,,,,,,[],,,,,,50.0,1.0,i,1.0,True,629.0,38.0,60.0,40.0,False,,374.8368852153759,[],"[872.5, 491]",ColorTask,92.0,96.0,,,HRV,HRV_0189,2022-11-30 18:42:13
,wl-rdm,213,516059,0.0-8.96-0.96,1.0,214.0,,,,,,,[],,,,,,50.0,0.0,i,1.0,False,1021.2999999988824,62.0,60.0,40.0,False,,249.1658522883921,[],"[872.5, 491]",ColorTask,91.0,97.0,,,HRV,HRV_0189,2022-11-30 18:42:13
,wl-rdm,214,518008,0.0-8.97-0.97,1.0,215.0,,,,,,,[],,,,,,87.9,0.0,u,0.0,True,647.7000000011176,39.0,60.0,40.0,False,,240.14916870708862,[],"[872.5, 491]",ColorTask,92.0,98.0,,,HRV,HRV_0189,2022-11-30 18:42:13
,wl-rdm,215,520075,0.0-8.98-0.98,1.0,216.0,,,,,,,[],,,,,,53.2,1.0,u,0.0,False,764.9999999981374,46.0,60.0,40.0,False,,217.72664309357108,[],"[872.5, 491]",ColorTask,91.0,99.0,,,HRV,HRV_0189,2022-11-30 18:42:13
,wl-rdm,216,522306,0.0-8.99-0.99,1.0,217.0,,,,,,,[],,,,,,62.5,0.0,u,0.0,True,799.9000000003725,48.0,60.0,40.0,False,,343.4036328391915,[],"[872.5, 491]",ColorTask,92.0,100.0,,,HRV,HRV_0189,2022-11-30 18:42:13
,wl-rdm,217,524356,0.0-8.100-0.100,1.0,218.0,,,,,,,[],,,,,,53.2,0.0,u,0.0,True,734.0999999996275,44.0,60.0,40.0,False,,222.54063261090118,[],"[872.5, 491]",ColorTask,93.0,101.0,,,HRV,HRV_0189,2022-11-30 18:42:13
,wl-rdm,218,526272,0.0-8.101-0.101,1.0,219.0,,,,,,,[],,,,,,87.9,1.0,i,1.0,True,580.8999999985099,35.0,60.0,40.0,False,,252.7811764014645,[],"[872.5, 491]",ColorTask,94.0,102.0,,,HRV,HRV_0189,2022-11-30 18:42:13
,wl-rdm,219,528138,0.0-8.102-0.102,1.0,220.0,,,,,,,[],,,,,,73.6,1.0,i,1.0,True,576.5999999996275,35.0,60.0,40.0,False,,212.58142503208506,[],"[872.5, 491]",ColorTask,95.0,103.0,,,HRV,HRV_0189,2022-11-30 18:42:13
,wl-rdm,220,530154,0.0-8.103-0.103,1.0,221.0,,,,,,,[],,,,,,53.2,0.0,u,0.0,True,701.9999999981374,43.0,60.0,40.0,False,,232.8176703507679,[],"[872.5, 491]",ColorTask,96.0,104.0,,,HRV,HRV_0189,2022-11-30 18:42:13
,wl-rdm,221,531986,0.0-8.104-0.104,1.0,222.0,,,,,,,[],,,,,,53.2,1.0,i,1.0,True,532.0,32.0,60.0,40.0,False,,241.7227332746508,[],"[872.5, 491]",ColorTask,97.0,105.0,,,HRV,HRV_0189,2022-11-30 18:42:13
,wl-rdm,222,534086,0.0-8.105-0.105,1.0,223.0,,,,,,,[],,,,,,53.2,1.0,u,0.0,False,672.9999999981374,41.0,60.0,40.0,False,,341.6284786463527,[],"[872.5, 491]",ColorTask,96.0,106.0,,,HRV,HRV_0189,2022-11-30 18:42:13
,wl-rdm,223,536051,0.0-8.106-0.106,1.0,224.0,,,,,,,[],,,,,,87.9,1.0,i,1.0,True,537.3000000007451,33.0,60.0,40.0,False,,336.6451528280876,[],"[872.5, 491]",ColorTask,97.0,107.0,,,HRV,HRV_0189,2022-11-30 18:42:13
,wl-rdm,224,538034,0.0-8.107-0.107,1.0,225.0,,,,,,,[],,,,,,87.9,1.0,i,1.0,True,603.8000000007451,37.0,60.0,40.0,False,,300.8377611918089,[],"[872.5, 491]",ColorTask,98.0,108.0,,,HRV,HRV_0189,2022-11-30 18:42:13
,wl-html-button-response,225,541704,0.0-9.0-0.0,,,,,,,,,,3662.4000000003725,,0,,,,,,,,,,,,,,,,,,,,<h3>End of this session. Thank you!</h3><br>,['Close window'],HRV,HRV_0189,2022-11-30 18:42:13
