trialN,stimuli,question,trialStartTime,trialStartTime_UNIX,stimulus1,rt,receivedResponse,rating,trialEndTime,trialDuration,stimulus1Loaded,exp,subjectId,date
0,"[{'imgObject': {}, 'id': 'ice cream sundae 002', 'src': '/static/foodstim60/ice cream sundae 002.jpg', 'key': 'NaN', 'origWidth': 409, 'origHeight': 409, 'width': 409, 'height': 409, 'widthPercent': 0.8, 'rescaleHeight': True, 'trialN': 0, 'loaded': True, 'loadedTime': 2611.5, 'positionName': 'CENTER', 'positionCoords': [668, 286.5]}]",Rate how much you want to eat this food from 0 (least) to 10 (most).,3810.699999999255,1669832560935,ice cream sundae 002,3042.800000000745,True,1.08,6853.5,3042.800000000745,True,HRV,HRV_0189,2022-11-30 18:24:44
1,"[{'imgObject': {}, 'id': 'turkey sandwich', 'src': '/static/foodstim60/turkey sandwich.jpg', 'key': 'NaN', 'origWidth': 409, 'origHeight': 409, 'width': 409, 'height': 409, 'widthPercent': 0.8, 'rescaleHeight': True, 'trialN': 1, 'loaded': True, 'loadedTime': 2618.0999999996275, 'positionName': 'CENTER', 'positionCoords': [668, 286.5]}]",Rate how much you want to eat this food from 0 (least) to 10 (most).,6867.5,1669832563992,turkey sandwich,1586.199999999255,True,3.04,8453.699999999255,1586.199999999255,True,HRV,HRV_0189,2022-11-30 18:24:44
2,"[{'imgObject': {}, 'id': 'baked potato', 'src': '/static/foodstim60/baked potato.jpg', 'key': 'NaN', 'origWidth': 409, 'origHeight': 410, 'width': 409, 'height': 410, 'widthPercent': 0.8, 'rescaleHeight': True, 'trialN': 2, 'loaded': True, 'loadedTime': 2620.199999999255, 'positionName': 'CENTER', 'positionCoords': [668, 286]}]",Rate how much you want to eat this food from 0 (least) to 10 (most).,8459.699999999255,1669832565584,baked potato,3174.0,True,5.12,11633.699999999255,3174.0,True,HRV,HRV_0189,2022-11-30 18:24:44
3,"[{'imgObject': {}, 'id': 'rigatoni', 'src': '/static/foodstim60/rigatoni.jpg', 'key': 'NaN', 'origWidth': 411, 'origHeight': 411, 'width': 411, 'height': 411, 'widthPercent': 0.8, 'rescaleHeight': True, 'trialN': 3, 'loaded': True, 'loadedTime': 2727.5, 'positionName': 'CENTER', 'positionCoords': [667, 285.5]}]",Rate how much you want to eat this food from 0 (least) to 10 (most).,11641.699999999255,1669832568766,rigatoni,1651.4000000003725,True,1.72,13293.099999999627,1651.4000000003725,True,HRV,HRV_0189,2022-11-30 18:24:44
4,"[{'imgObject': {}, 'id': 'sushi w_condiments', 'src': '/static/foodstim60/sushi w_condiments.jpg', 'key': 'NaN', 'origWidth': 410, 'origHeight': 410, 'width': 410, 'height': 410, 'widthPercent': 0.8, 'rescaleHeight': True, 'trialN': 4, 'loaded': True, 'loadedTime': 2758.2999999988824, 'positionName': 'CENTER', 'positionCoords': [667.5, 286]}]",Rate how much you want to eat this food from 0 (least) to 10 (most).,13300.099999999627,1669832570424,sushi w_condiments,3015.0,True,6.43,16315.099999999627,3015.0,True,HRV,HRV_0189,2022-11-30 18:24:44
5,"[{'imgObject': {}, 'id': 'burrito', 'src': '/static/foodstim60/burrito.jpg', 'key': 'NaN', 'origWidth': 410, 'origHeight': 410, 'width': 410, 'height': 410, 'widthPercent': 0.8, 'rescaleHeight': True, 'trialN': 5, 'loaded': True, 'loadedTime': 2766.5, 'positionName': 'CENTER', 'positionCoords': [667.5, 286]}]",Rate how much you want to eat this food from 0 (least) to 10 (most).,16324.39999999851,1669832573449,burrito,2084.300000000745,True,1.44,18408.699999999255,2084.300000000745,True,HRV,HRV_0189,2022-11-30 18:24:44
6,"[{'imgObject': {}, 'id': 'lox', 'src': '/static/foodstim60/lox.jpg', 'key': 'NaN', 'origWidth': 410, 'origHeight': 411, 'width': 410, 'height': 411, 'widthPercent': 0.8, 'rescaleHeight': True, 'trialN': 6, 'loaded': True, 'loadedTime': 2705, 'positionName': 'CENTER', 'positionCoords': [667.5, 285.5]}]",Rate how much you want to eat this food from 0 (least) to 10 (most).,18416.599999999627,1669832575541,lox,3834.0999999996275,True,8.08,22250.699999999255,3834.0999999996275,True,HRV,HRV_0189,2022-11-30 18:24:44
7,"[{'imgObject': {}, 'id': 'corn cob', 'src': '/static/foodstim60/corn cob.jpg', 'key': 'NaN', 'origWidth': 411, 'origHeight': 411, 'width': 411, 'height': 411, 'widthPercent': 0.8, 'rescaleHeight': True, 'trialN': 7, 'loaded': True, 'loadedTime': 2691.7999999988824, 'positionName': 'CENTER', 'positionCoords': [667, 285.5]}]",Rate how much you want to eat this food from 0 (least) to 10 (most).,22258.799999998882,1669832579383,corn cob,1967.300000000745,True,2.8000000000000003,24226.099999999627,1967.300000000745,True,HRV,HRV_0189,2022-11-30 18:24:44
8,"[{'imgObject': {}, 'id': 'mashed potato', 'src': '/static/foodstim60/mashed potato.jpg', 'key': 'NaN', 'origWidth': 409, 'origHeight': 409, 'width': 409, 'height': 409, 'widthPercent': 0.8, 'rescaleHeight': True, 'trialN': 8, 'loaded': True, 'loadedTime': 2709.199999999255, 'positionName': 'CENTER', 'positionCoords': [668, 286.5]}]",Rate how much you want to eat this food from 0 (least) to 10 (most).,24233.599999999627,1669832581358,mashed potato,4516.299999998882,True,7.58,28749.89999999851,4516.299999998882,True,HRV,HRV_0189,2022-11-30 18:24:44
9,"[{'imgObject': {}, 'id': 'raspberries', 'src': '/static/foodstim60/raspberries.jpg', 'key': 'NaN', 'origWidth': 411, 'origHeight': 411, 'width': 411, 'height': 411, 'widthPercent': 0.8, 'rescaleHeight': True, 'trialN': 9, 'loaded': True, 'loadedTime': 2796.199999999255, 'positionName': 'CENTER', 'positionCoords': [667, 285.5]}]",Rate how much you want to eat this food from 0 (least) to 10 (most).,28758.89999999851,1669832585883,raspberries,1670.0,True,9.63,30428.89999999851,1670.0,True,HRV,HRV_0189,2022-11-30 18:24:44
10,"[{'imgObject': {}, 'id': 'Grapes', 'src': '/static/foodstim60/Grapes.jpg', 'key': 'NaN', 'origWidth': 411, 'origHeight': 411, 'width': 411, 'height': 411, 'widthPercent': 0.8, 'rescaleHeight': True, 'trialN': 10, 'loaded': True, 'loadedTime': 2806.5999999996275, 'positionName': 'CENTER', 'positionCoords': [667, 285.5]}]",Rate how much you want to eat this food from 0 (least) to 10 (most).,30437.39999999851,1669832587562,Grapes,1265.6000000014901,True,8.42,31703.0,1265.6000000014901,True,HRV,HRV_0189,2022-11-30 18:24:44
11,"[{'imgObject': {}, 'id': 'steak', 'src': '/static/foodstim60/steak.jpg', 'key': 'NaN', 'origWidth': 410, 'origHeight': 410, 'width': 410, 'height': 410, 'widthPercent': 0.8, 'rescaleHeight': True, 'trialN': 11, 'loaded': True, 'loadedTime': 2849.2999999988824, 'positionName': 'CENTER', 'positionCoords': [667.5, 286]}]",Rate how much you want to eat this food from 0 (least) to 10 (most).,31710.0,1669832588834,steak,1721.2999999988824,True,9.93,33431.29999999888,1721.2999999988824,True,HRV,HRV_0189,2022-11-30 18:24:44
12,"[{'imgObject': {}, 'id': 'salad w chicken', 'src': '/static/foodstim60/salad w chicken.jpg', 'key': 'NaN', 'origWidth': 411, 'origHeight': 411, 'width': 411, 'height': 411, 'widthPercent': 0.8, 'rescaleHeight': True, 'trialN': 12, 'loaded': True, 'loadedTime': 2862.5, 'positionName': 'CENTER', 'positionCoords': [667, 285.5]}]",Rate how much you want to eat this food from 0 (least) to 10 (most).,33440.29999999888,1669832590565,salad w chicken,1511.9000000003725,True,5.29,34952.199999999255,1511.9000000003725,True,HRV,HRV_0189,2022-11-30 18:24:44
13,"[{'imgObject': {}, 'id': 'popsicles', 'src': '/static/foodstim60/popsicles.jpg', 'key': 'NaN', 'origWidth': 410, 'origHeight': 410, 'width': 410, 'height': 410, 'widthPercent': 0.8, 'rescaleHeight': True, 'trialN': 13, 'loaded': True, 'loadedTime': 2845.199999999255, 'positionName': 'CENTER', 'positionCoords': [667.5, 286]}]",Rate how much you want to eat this food from 0 (least) to 10 (most).,34961.29999999888,1669832592086,popsicles,1976.0999999996275,True,0.32,36937.39999999851,1976.0999999996275,True,HRV,HRV_0189,2022-11-30 18:24:44
14,"[{'imgObject': {}, 'id': 'mac & cheese', 'src': '/static/foodstim60/mac & cheese.jpg', 'key': 'NaN', 'origWidth': 410, 'origHeight': 410, 'width': 410, 'height': 410, 'widthPercent': 0.8, 'rescaleHeight': True, 'trialN': 14, 'loaded': True, 'loadedTime': 2870.89999999851, 'positionName': 'CENTER', 'positionCoords': [667.5, 286]}]",Rate how much you want to eat this food from 0 (least) to 10 (most).,36947.59999999963,1669832594072,mac & cheese,2231.699999999255,True,2.46,39179.29999999888,2231.699999999255,True,HRV,HRV_0189,2022-11-30 18:24:44
15,"[{'imgObject': {}, 'id': 'cocktailshrimp', 'src': '/static/foodstim60/cocktailshrimp.jpg', 'key': 'NaN', 'origWidth': 410, 'origHeight': 410, 'width': 410, 'height': 410, 'widthPercent': 0.8, 'rescaleHeight': True, 'trialN': 15, 'loaded': True, 'loadedTime': 2898.0999999996275, 'positionName': 'CENTER', 'positionCoords': [667.5, 286]}]",Rate how much you want to eat this food from 0 (least) to 10 (most).,39187.29999999888,1669832596312,cocktailshrimp,1848.800000000745,True,1.57,41036.09999999963,1848.800000000745,True,HRV,HRV_0189,2022-11-30 18:24:44
16,"[{'imgObject': {}, 'id': 'mango', 'src': '/static/foodstim60/mango.jpg', 'key': 'NaN', 'origWidth': 411, 'origHeight': 411, 'width': 411, 'height': 411, 'widthPercent': 0.8, 'rescaleHeight': True, 'trialN': 16, 'loaded': True, 'loadedTime': 2886, 'positionName': 'CENTER', 'positionCoords': [667, 285.5]}]",Rate how much you want to eat this food from 0 (least) to 10 (most).,41045.59999999963,1669832598170,mango,2420.0999999996275,True,6.78,43465.699999999255,2420.0999999996275,True,HRV,HRV_0189,2022-11-30 18:24:44
17,"[{'imgObject': {}, 'id': 'hotdog w must', 'src': '/static/foodstim60/hotdog w must.jpg', 'key': 'NaN', 'origWidth': 409, 'origHeight': 409, 'width': 409, 'height': 409, 'widthPercent': 0.8, 'rescaleHeight': True, 'trialN': 17, 'loaded': True, 'loadedTime': 2960.0999999996275, 'positionName': 'CENTER', 'positionCoords': [668, 286.5]}]",Rate how much you want to eat this food from 0 (least) to 10 (most).,43476.59999999963,1669832600601,hotdog w must,2478.0999999996275,True,1.86,45954.699999999255,2478.0999999996275,True,HRV,HRV_0189,2022-11-30 18:24:44
18,"[{'imgObject': {}, 'id': 'tacos', 'src': '/static/foodstim60/tacos.jpg', 'key': 'NaN', 'origWidth': 411, 'origHeight': 411, 'width': 411, 'height': 411, 'widthPercent': 0.8, 'rescaleHeight': True, 'trialN': 18, 'loaded': True, 'loadedTime': 2936.7999999988824, 'positionName': 'CENTER', 'positionCoords': [667, 285.5]}]",Rate how much you want to eat this food from 0 (least) to 10 (most).,45963.29999999888,1669832603088,tacos,2342.5,True,4.2700000000000005,48305.79999999888,2342.5,True,HRV,HRV_0189,2022-11-30 18:24:44
19,"[{'imgObject': {}, 'id': 'seaweed', 'src': '/static/foodstim60/seaweed.jpg', 'key': 'NaN', 'origWidth': 410, 'origHeight': 410, 'width': 410, 'height': 410, 'widthPercent': 0.8, 'rescaleHeight': True, 'trialN': 19, 'loaded': True, 'loadedTime': 2965, 'positionName': 'CENTER', 'positionCoords': [667.5, 286]}]",Rate how much you want to eat this food from 0 (least) to 10 (most).,48314.09999999963,1669832605438,seaweed,2194.5,True,7.01,50508.59999999963,2194.5,True,HRV,HRV_0189,2022-11-30 18:24:44
20,"[{'imgObject': {}, 'id': 'omelette', 'src': '/static/foodstim60/omelette.jpg', 'key': 'NaN', 'origWidth': 410, 'origHeight': 409, 'width': 410, 'height': 409, 'widthPercent': 0.8, 'rescaleHeight': True, 'trialN': 20, 'loaded': True, 'loadedTime': 2942.5, 'positionName': 'CENTER', 'positionCoords': [667.5, 286.5]}]",Rate how much you want to eat this food from 0 (least) to 10 (most).,50515.79999999888,1669832607640,omelette,1998.300000000745,True,9.36,52514.09999999963,1998.300000000745,True,HRV,HRV_0189,2022-11-30 18:24:44
21,"[{'imgObject': {}, 'id': 'blackbeanswithrice', 'src': '/static/foodstim60/blackbeanswithrice.jpg', 'key': 'NaN', 'origWidth': 410, 'origHeight': 410, 'width': 410, 'height': 410, 'widthPercent': 0.8, 'rescaleHeight': True, 'trialN': 21, 'loaded': True, 'loadedTime': 2973.39999999851, 'positionName': 'CENTER', 'positionCoords': [667.5, 286]}]",Rate how much you want to eat this food from 0 (least) to 10 (most).,52523.0,1669832609647,blackbeanswithrice,2194.0,True,6.98,54717.0,2194.0,True,HRV,HRV_0189,2022-11-30 18:24:44
22,"[{'imgObject': {}, 'id': 'fried eggs', 'src': '/static/foodstim60/fried eggs.jpg', 'key': 'NaN', 'origWidth': 410, 'origHeight': 410, 'width': 410, 'height': 410, 'widthPercent': 0.8, 'rescaleHeight': True, 'trialN': 22, 'loaded': True, 'loadedTime': 2984.699999999255, 'positionName': 'CENTER', 'positionCoords': [667.5, 286]}]",Rate how much you want to eat this food from 0 (least) to 10 (most).,54725.199999999255,1669832611850,fried eggs,1591.800000000745,True,9.33,56317.0,1591.800000000745,True,HRV,HRV_0189,2022-11-30 18:24:44
23,"[{'imgObject': {}, 'id': 'fruitsalad', 'src': '/static/foodstim60/fruitsalad.jpg', 'key': 'NaN', 'origWidth': 410, 'origHeight': 410, 'width': 410, 'height': 410, 'widthPercent': 0.8, 'rescaleHeight': True, 'trialN': 23, 'loaded': True, 'loadedTime': 3062.89999999851, 'positionName': 'CENTER', 'positionCoords': [667.5, 286]}]",Rate how much you want to eat this food from 0 (least) to 10 (most).,56323.59999999963,1669832613448,fruitsalad,2353.7999999988824,True,4.91,58677.39999999851,2353.7999999988824,True,HRV,HRV_0189,2022-11-30 18:24:44
24,"[{'imgObject': {}, 'id': 'banana', 'src': '/static/foodstim60/banana.jpg', 'key': 'NaN', 'origWidth': 410, 'origHeight': 410, 'width': 410, 'height': 410, 'widthPercent': 0.8, 'rescaleHeight': True, 'trialN': 24, 'loaded': True, 'loadedTime': 3077.0999999996275, 'positionName': 'CENTER', 'positionCoords': [667.5, 286]}]",Rate how much you want to eat this food from 0 (least) to 10 (most).,58686.09999999963,1669832615810,banana,1887.5999999996275,True,9.620000000000001,60573.699999999255,1887.5999999996275,True,HRV,HRV_0189,2022-11-30 18:24:44
25,"[{'imgObject': {}, 'id': 'chickenfingers', 'src': '/static/foodstim60/chickenfingers.jpg', 'key': 'NaN', 'origWidth': 410, 'origHeight': 410, 'width': 410, 'height': 410, 'widthPercent': 0.8, 'rescaleHeight': True, 'trialN': 25, 'loaded': True, 'loadedTime': 3081, 'positionName': 'CENTER', 'positionCoords': [667.5, 286]}]",Rate how much you want to eat this food from 0 (least) to 10 (most).,60580.89999999851,1669832617705,chickenfingers,2343.60000000149,True,1.8800000000000001,62924.5,2343.60000000149,True,HRV,HRV_0189,2022-11-30 18:24:44
26,"[{'imgObject': {}, 'id': 'bagel and cc', 'src': '/static/foodstim60/bagel and cc.jpg', 'key': 'NaN', 'origWidth': 410, 'origHeight': 410, 'width': 410, 'height': 410, 'widthPercent': 0.8, 'rescaleHeight': True, 'trialN': 26, 'loaded': True, 'loadedTime': 3087.5999999996275, 'positionName': 'CENTER', 'positionCoords': [667.5, 286]}]",Rate how much you want to eat this food from 0 (least) to 10 (most).,62931.29999999888,1669832620056,bagel and cc,1790.9000000003725,True,0.6900000000000001,64722.199999999255,1790.9000000003725,True,HRV,HRV_0189,2022-11-30 18:24:44
27,"[{'imgObject': {}, 'id': 'hashbrowns', 'src': '/static/foodstim60/hashbrowns.jpg', 'key': 'NaN', 'origWidth': 411, 'origHeight': 410, 'width': 411, 'height': 410, 'widthPercent': 0.8, 'rescaleHeight': True, 'trialN': 27, 'loaded': True, 'loadedTime': 3112.39999999851, 'positionName': 'CENTER', 'positionCoords': [667, 286]}]",Rate how much you want to eat this food from 0 (least) to 10 (most).,64726.199999999255,1669832621850,hashbrowns,1517.199999999255,True,3.3000000000000003,66243.39999999851,1517.199999999255,True,HRV,HRV_0189,2022-11-30 18:24:44
28,"[{'imgObject': {}, 'id': 'shreddedwheatwithmilk', 'src': '/static/foodstim60/shreddedwheatwithmilk.jpg', 'key': 'NaN', 'origWidth': 410, 'origHeight': 410, 'width': 410, 'height': 410, 'widthPercent': 0.8, 'rescaleHeight': True, 'trialN': 28, 'loaded': True, 'loadedTime': 3114.5, 'positionName': 'CENTER', 'positionCoords': [667.5, 286]}]",Rate how much you want to eat this food from 0 (least) to 10 (most).,66251.59999999963,1669832623376,shreddedwheatwithmilk,1562.0999999996275,True,1.25,67813.69999999925,1562.0999999996275,True,HRV,HRV_0189,2022-11-30 18:24:44
29,"[{'imgObject': {}, 'id': 'cantaloupe', 'src': '/static/foodstim60/cantaloupe.jpg', 'key': 'NaN', 'origWidth': 409, 'origHeight': 409, 'width': 409, 'height': 409, 'widthPercent': 0.8, 'rescaleHeight': True, 'trialN': 29, 'loaded': True, 'loadedTime': 3155.89999999851, 'positionName': 'CENTER', 'positionCoords': [668, 286.5]}]",Rate how much you want to eat this food from 0 (least) to 10 (most).,67820.89999999851,1669832624945,cantaloupe,1434.5,True,7.73,69255.39999999851,1434.5,True,HRV,HRV_0189,2022-11-30 18:24:44
30,"[{'imgObject': {}, 'id': 'eggsalad', 'src': '/static/foodstim60/eggsalad.jpg', 'key': 'NaN', 'origWidth': 410, 'origHeight': 409, 'width': 410, 'height': 409, 'widthPercent': 0.8, 'rescaleHeight': True, 'trialN': 30, 'loaded': True, 'loadedTime': 3209, 'positionName': 'CENTER', 'positionCoords': [667.5, 286.5]}]",Rate how much you want to eat this food from 0 (least) to 10 (most).,69262.59999999963,1669832626387,eggsalad,2866.5999999996275,True,4.76,72129.19999999925,2866.5999999996275,True,HRV,HRV_0189,2022-11-30 18:24:44
31,"[{'imgObject': {}, 'id': 'strawberries', 'src': '/static/foodstim60/strawberries.jpg', 'key': 'NaN', 'origWidth': 410, 'origHeight': 410, 'width': 410, 'height': 410, 'widthPercent': 0.8, 'rescaleHeight': True, 'trialN': 31, 'loaded': True, 'loadedTime': 3188.199999999255, 'positionName': 'CENTER', 'positionCoords': [667.5, 286]}]",Rate how much you want to eat this food from 0 (least) to 10 (most).,72137.0,1669832629261,strawberries,1690.8999999985099,True,9.49,73827.89999999851,1690.8999999985099,True,HRV,HRV_0189,2022-11-30 18:24:44
32,"[{'imgObject': {}, 'id': 'froot loops w milk', 'src': '/static/foodstim60/froot loops w milk.jpg', 'key': 'NaN', 'origWidth': 410, 'origHeight': 410, 'width': 410, 'height': 410, 'widthPercent': 0.8, 'rescaleHeight': True, 'trialN': 32, 'loaded': True, 'loadedTime': 3172.89999999851, 'positionName': 'CENTER', 'positionCoords': [667.5, 286]}]",Rate how much you want to eat this food from 0 (least) to 10 (most).,73834.89999999851,1669832630959,froot loops w milk,2027.5,True,0.19,75862.39999999851,2027.5,True,HRV,HRV_0189,2022-11-30 18:24:44
33,"[{'imgObject': {}, 'id': 'bagel plain', 'src': '/static/foodstim60/bagel plain.jpg', 'key': 'NaN', 'origWidth': 410, 'origHeight': 410, 'width': 410, 'height': 410, 'widthPercent': 0.8, 'rescaleHeight': True, 'trialN': 33, 'loaded': True, 'loadedTime': 3248, 'positionName': 'CENTER', 'positionCoords': [667.5, 286]}]",Rate how much you want to eat this food from 0 (least) to 10 (most).,75870.79999999888,1669832632995,bagel plain,1956.800000000745,True,0.7000000000000001,77827.59999999963,1956.800000000745,True,HRV,HRV_0189,2022-11-30 18:24:44
34,"[{'imgObject': {}, 'id': 'chicken nuggets2', 'src': '/static/foodstim60/chicken nuggets2.jpg', 'key': 'NaN', 'origWidth': 410, 'origHeight': 409, 'width': 410, 'height': 409, 'widthPercent': 0.8, 'rescaleHeight': True, 'trialN': 34, 'loaded': True, 'loadedTime': 3251.89999999851, 'positionName': 'CENTER', 'positionCoords': [667.5, 286.5]}]",Rate how much you want to eat this food from 0 (least) to 10 (most).,77835.79999999888,1669832634960,chicken nuggets2,2500.5,True,1.78,80336.29999999888,2500.5,True,HRV,HRV_0189,2022-11-30 18:24:44
35,"[{'imgObject': {}, 'id': 'veggieswithdip', 'src': '/static/foodstim60/veggieswithdip.jpg', 'key': 'NaN', 'origWidth': 409, 'origHeight': 409, 'width': 409, 'height': 409, 'widthPercent': 0.8, 'rescaleHeight': True, 'trialN': 35, 'loaded': True, 'loadedTime': 3277.2999999988824, 'positionName': 'CENTER', 'positionCoords': [668, 286.5]}]",Rate how much you want to eat this food from 0 (least) to 10 (most).,80345.79999999888,1669832637470,veggieswithdip,1955.9000000003725,True,5.25,82301.69999999925,1955.9000000003725,True,HRV,HRV_0189,2022-11-30 18:24:44
36,"[{'imgObject': {}, 'id': 'cheerios', 'src': '/static/foodstim60/cheerios.jpg', 'key': 'NaN', 'origWidth': 409, 'origHeight': 410, 'width': 409, 'height': 410, 'widthPercent': 0.8, 'rescaleHeight': True, 'trialN': 36, 'loaded': True, 'loadedTime': 3286, 'positionName': 'CENTER', 'positionCoords': [668, 286]}]",Rate how much you want to eat this food from 0 (least) to 10 (most).,82311.39999999851,1669832639436,cheerios,1472.1000000014901,True,0.71,83783.5,1472.1000000014901,True,HRV,HRV_0189,2022-11-30 18:24:44
37,"[{'imgObject': {}, 'id': 'avocado', 'src': '/static/foodstim60/avocado.jpg', 'key': 'NaN', 'origWidth': 409, 'origHeight': 409, 'width': 409, 'height': 409, 'widthPercent': 0.8, 'rescaleHeight': True, 'trialN': 37, 'loaded': True, 'loadedTime': 3363.2999999988824, 'positionName': 'CENTER', 'positionCoords': [668, 286.5]}]",Rate how much you want to eat this food from 0 (least) to 10 (most).,83788.69999999925,1669832640913,avocado,1348.5,True,9.56,85137.19999999925,1348.5,True,HRV,HRV_0189,2022-11-30 18:24:44
38,"[{'imgObject': {}, 'id': 'granola w milk', 'src': '/static/foodstim60/granola w milk.jpg', 'key': 'NaN', 'origWidth': 410, 'origHeight': 410, 'width': 410, 'height': 410, 'widthPercent': 0.8, 'rescaleHeight': True, 'trialN': 38, 'loaded': True, 'loadedTime': 3326.39999999851, 'positionName': 'CENTER', 'positionCoords': [667.5, 286]}]",Rate how much you want to eat this food from 0 (least) to 10 (most).,85145.29999999888,1669832642270,granola w milk,1464.2000000011176,True,1.1,86609.5,1464.2000000011176,True,HRV,HRV_0189,2022-11-30 18:24:44
39,"[{'imgObject': {}, 'id': 'yogurt no spoon', 'src': '/static/foodstim60/yogurt no spoon.jpg', 'key': 'NaN', 'origWidth': 411, 'origHeight': 410, 'width': 411, 'height': 410, 'widthPercent': 0.8, 'rescaleHeight': True, 'trialN': 39, 'loaded': True, 'loadedTime': 3416.39999999851, 'positionName': 'CENTER', 'positionCoords': [667, 286]}]",Rate how much you want to eat this food from 0 (least) to 10 (most).,86618.09999999963,1669832643742,yogurt no spoon,1681.0,True,2.09,88299.09999999963,1681.0,True,HRV,HRV_0189,2022-11-30 18:24:44
40,"[{'imgObject': {}, 'id': 'Tribe humus pita', 'src': '/static/foodstim60/Tribe humus pita.jpg', 'key': 'NaN', 'origWidth': 411, 'origHeight': 411, 'width': 411, 'height': 411, 'widthPercent': 0.8, 'rescaleHeight': True, 'trialN': 40, 'loaded': True, 'loadedTime': 3418.39999999851, 'positionName': 'CENTER', 'positionCoords': [667, 285.5]}]",Rate how much you want to eat this food from 0 (least) to 10 (most).,88305.29999999888,1669832645430,Tribe humus pita,2176.5999999996275,True,4.13,90481.89999999851,2176.5999999996275,True,HRV,HRV_0189,2022-11-30 18:24:44
41,"[{'imgObject': {}, 'id': 'luckycharms', 'src': '/static/foodstim60/luckycharms.jpg', 'key': 'NaN', 'origWidth': 410, 'origHeight': 409, 'width': 410, 'height': 409, 'widthPercent': 0.8, 'rescaleHeight': True, 'trialN': 41, 'loaded': True, 'loadedTime': 3445.39999999851, 'positionName': 'CENTER', 'positionCoords': [667.5, 286.5]}]",Rate how much you want to eat this food from 0 (least) to 10 (most).,90488.0,1669832647612,luckycharms,1673.0999999996275,True,0.19,92161.09999999963,1673.0999999996275,True,HRV,HRV_0189,2022-11-30 18:24:44
42,"[{'imgObject': {}, 'id': 'sweetpotato', 'src': '/static/foodstim60/sweetpotato.jpg', 'key': 'NaN', 'origWidth': 410, 'origHeight': 410, 'width': 410, 'height': 410, 'widthPercent': 0.8, 'rescaleHeight': True, 'trialN': 42, 'loaded': True, 'loadedTime': 3450.5, 'positionName': 'CENTER', 'positionCoords': [667.5, 286]}]",Rate how much you want to eat this food from 0 (least) to 10 (most).,92168.79999999888,1669832649293,sweetpotato,2155.7000000011176,True,7.82,94324.5,2155.7000000011176,True,HRV,HRV_0189,2022-11-30 18:24:44
43,"[{'imgObject': {}, 'id': 'grilled chicken strips', 'src': '/static/foodstim60/grilled chicken strips.jpg', 'key': 'NaN', 'origWidth': 410, 'origHeight': 411, 'width': 410, 'height': 411, 'widthPercent': 0.8, 'rescaleHeight': True, 'trialN': 43, 'loaded': True, 'loadedTime': 3467.2999999988824, 'positionName': 'CENTER', 'positionCoords': [667.5, 285.5]}]",Rate how much you want to eat this food from 0 (least) to 10 (most).,94331.0,1669832651455,grilled chicken strips,2423.199999999255,True,9.77,96754.19999999925,2423.199999999255,True,HRV,HRV_0189,2022-11-30 18:24:44
44,"[{'imgObject': {}, 'id': 'raisin bran w milk', 'src': '/static/foodstim60/raisin bran w milk.jpg', 'key': 'NaN', 'origWidth': 411, 'origHeight': 411, 'width': 411, 'height': 411, 'widthPercent': 0.8, 'rescaleHeight': True, 'trialN': 44, 'loaded': True, 'loadedTime': 3475.5, 'positionName': 'CENTER', 'positionCoords': [667, 285.5]}]",Rate how much you want to eat this food from 0 (least) to 10 (most).,96761.69999999925,1669832653886,raisin bran w milk,2076.699999999255,True,1.17,98838.39999999851,2076.699999999255,True,HRV,HRV_0189,2022-11-30 18:24:44
45,"[{'imgObject': {}, 'id': 'apple slices', 'src': '/static/foodstim60/apple slices.jpg', 'key': 'NaN', 'origWidth': 409, 'origHeight': 410, 'width': 409, 'height': 410, 'widthPercent': 0.8, 'rescaleHeight': True, 'trialN': 45, 'loaded': True, 'loadedTime': 3539.5, 'positionName': 'CENTER', 'positionCoords': [668, 286]}]",Rate how much you want to eat this food from 0 (least) to 10 (most).,98846.19999999925,1669832655971,apple slices,1868.800000000745,True,5.26,100715.0,1868.800000000745,True,HRV,HRV_0189,2022-11-30 18:24:44
46,"[{'imgObject': {}, 'id': 'orange slices', 'src': '/static/foodstim60/orange slices.jpg', 'key': 'NaN', 'origWidth': 409, 'origHeight': 410, 'width': 409, 'height': 410, 'widthPercent': 0.8, 'rescaleHeight': True, 'trialN': 46, 'loaded': True, 'loadedTime': 3552.699999999255, 'positionName': 'CENTER', 'positionCoords': [668, 286]}]",Rate how much you want to eat this food from 0 (least) to 10 (most).,100723.29999999888,1669832657848,orange slices,1137.5,True,7.930000000000001,101860.79999999888,1137.5,True,HRV,HRV_0189,2022-11-30 18:24:44
47,"[{'imgObject': {}, 'id': 'eggs', 'src': '/static/foodstim60/eggs.jpg', 'key': 'NaN', 'origWidth': 409, 'origHeight': 409, 'width': 409, 'height': 409, 'widthPercent': 0.8, 'rescaleHeight': True, 'trialN': 47, 'loaded': True, 'loadedTime': 3565.0999999996275, 'positionName': 'CENTER', 'positionCoords': [668, 286.5]}]",Rate how much you want to eat this food from 0 (least) to 10 (most).,101868.29999999888,1669832658993,eggs,1800.0999999996275,True,9.6,103668.39999999851,1800.0999999996275,True,HRV,HRV_0189,2022-11-30 18:24:44
48,"[{'imgObject': {}, 'id': 'roastedpotatoes', 'src': '/static/foodstim60/roastedpotatoes.jpg', 'key': 'NaN', 'origWidth': 409, 'origHeight': 410, 'width': 409, 'height': 410, 'widthPercent': 0.8, 'rescaleHeight': True, 'trialN': 48, 'loaded': True, 'loadedTime': 3569.5999999996275, 'positionName': 'CENTER', 'positionCoords': [668, 286]}]",Rate how much you want to eat this food from 0 (least) to 10 (most).,103675.79999999888,1669832660800,roastedpotatoes,3844.300000000745,True,4.47,107520.09999999963,3844.300000000745,True,HRV,HRV_0189,2022-11-30 18:24:44
49,"[{'imgObject': {}, 'id': 'edamame', 'src': '/static/foodstim60/edamame.jpg', 'key': 'NaN', 'origWidth': 409, 'origHeight': 410, 'width': 409, 'height': 410, 'widthPercent': 0.8, 'rescaleHeight': True, 'trialN': 49, 'loaded': True, 'loadedTime': 3629.5, 'positionName': 'CENTER', 'positionCoords': [668, 286]}]",Rate how much you want to eat this food from 0 (least) to 10 (most).,107527.69999999925,1669832664652,edamame,1572.4000000003725,True,7.09,109100.09999999963,1572.4000000003725,True,HRV,HRV_0189,2022-11-30 18:24:44
50,"[{'imgObject': {}, 'id': 'burger', 'src': '/static/foodstim60/burger.jpg', 'key': 'NaN', 'origWidth': 409, 'origHeight': 409, 'width': 409, 'height': 409, 'widthPercent': 0.8, 'rescaleHeight': True, 'trialN': 50, 'loaded': True, 'loadedTime': 3631.89999999851, 'positionName': 'CENTER', 'positionCoords': [668, 286.5]}]",Rate how much you want to eat this food from 0 (least) to 10 (most).,109107.19999999925,1669832666232,burger,1533.5999999996275,True,1.32,110640.79999999888,1533.5999999996275,True,HRV,HRV_0189,2022-11-30 18:24:44
51,"[{'imgObject': {}, 'id': 'salmon', 'src': '/static/foodstim60/salmon.jpg', 'key': 'NaN', 'origWidth': 410, 'origHeight': 409, 'width': 410, 'height': 409, 'widthPercent': 0.8, 'rescaleHeight': True, 'trialN': 51, 'loaded': True, 'loadedTime': 3666.199999999255, 'positionName': 'CENTER', 'positionCoords': [667.5, 286.5]}]",Rate how much you want to eat this food from 0 (least) to 10 (most).,110648.59999999963,1669832667773,salmon,1809.4000000003725,True,9.49,112458.0,1809.4000000003725,True,HRV,HRV_0189,2022-11-30 18:24:44
52,"[{'imgObject': {}, 'id': 'turkeysandwich', 'src': '/static/foodstim60/turkeysandwich.jpg', 'key': 'NaN', 'origWidth': 409, 'origHeight': 409, 'width': 409, 'height': 409, 'widthPercent': 0.8, 'rescaleHeight': True, 'trialN': 52, 'loaded': True, 'loadedTime': 3694.0999999996275, 'positionName': 'CENTER', 'positionCoords': [668, 286.5]}]",Rate how much you want to eat this food from 0 (least) to 10 (most).,112465.69999999925,1669832669590,turkeysandwich,1760.199999999255,True,3.37,114225.89999999851,1760.199999999255,True,HRV,HRV_0189,2022-11-30 18:24:44
53,"[{'imgObject': {}, 'id': 'pear', 'src': '/static/foodstim60/pear.jpg', 'key': 'NaN', 'origWidth': 411, 'origHeight': 410, 'width': 411, 'height': 410, 'widthPercent': 0.8, 'rescaleHeight': True, 'trialN': 53, 'loaded': True, 'loadedTime': 3713.0999999996275, 'positionName': 'CENTER', 'positionCoords': [667, 286]}]",Rate how much you want to eat this food from 0 (least) to 10 (most).,114233.5,1669832671358,pear,1947.699999999255,True,5.91,116181.19999999925,1947.699999999255,True,HRV,HRV_0189,2022-11-30 18:24:44
54,"[{'imgObject': {}, 'id': 'kiwi', 'src': '/static/foodstim60/kiwi.jpg', 'key': 'NaN', 'origWidth': 410, 'origHeight': 410, 'width': 410, 'height': 410, 'widthPercent': 0.8, 'rescaleHeight': True, 'trialN': 54, 'loaded': True, 'loadedTime': 3727.5, 'positionName': 'CENTER', 'positionCoords': [667.5, 286]}]",Rate how much you want to eat this food from 0 (least) to 10 (most).,116190.09999999963,1669832673314,kiwi,1383.5,True,8.540000000000001,117573.59999999963,1383.5,True,HRV,HRV_0189,2022-11-30 18:24:44
55,"[{'imgObject': {}, 'id': 'cherries', 'src': '/static/foodstim60/cherries.jpg', 'key': 'NaN', 'origWidth': 410, 'origHeight': 411, 'width': 410, 'height': 411, 'widthPercent': 0.8, 'rescaleHeight': True, 'trialN': 55, 'loaded': True, 'loadedTime': 3739.39999999851, 'positionName': 'CENTER', 'positionCoords': [667.5, 285.5]}]",Rate how much you want to eat this food from 0 (least) to 10 (most).,117583.5,1669832674708,cherries,2113.5,True,9.55,119697.0,2113.5,True,HRV,HRV_0189,2022-11-30 18:24:44
56,"[{'imgObject': {}, 'id': 'blueberries', 'src': '/static/foodstim60/blueberries.jpg', 'key': 'NaN', 'origWidth': 411, 'origHeight': 411, 'width': 411, 'height': 411, 'widthPercent': 0.8, 'rescaleHeight': True, 'trialN': 56, 'loaded': True, 'loadedTime': 3749.0999999996275, 'positionName': 'CENTER', 'positionCoords': [667, 285.5]}]",Rate how much you want to eat this food from 0 (least) to 10 (most).,119706.39999999851,1669832676831,blueberries,1393.0,True,10.0,121099.39999999851,1393.0,True,HRV,HRV_0189,2022-11-30 18:24:44
57,"[{'imgObject': {}, 'id': 'rigatoni and sauce', 'src': '/static/foodstim60/rigatoni and sauce.jpg', 'key': 'NaN', 'origWidth': 410, 'origHeight': 411, 'width': 410, 'height': 411, 'widthPercent': 0.8, 'rescaleHeight': True, 'trialN': 57, 'loaded': True, 'loadedTime': 3777.89999999851, 'positionName': 'CENTER', 'positionCoords': [667.5, 285.5]}]",Rate how much you want to eat this food from 0 (least) to 10 (most).,121106.5,1669832678231,rigatoni and sauce,2649.199999999255,True,3.13,123755.69999999925,2649.199999999255,True,HRV,HRV_0189,2022-11-30 18:24:44
58,"[{'imgObject': {}, 'id': 'cherry tomato', 'src': '/static/foodstim60/cherry tomato.jpg', 'key': 'NaN', 'origWidth': 410, 'origHeight': 410, 'width': 410, 'height': 410, 'widthPercent': 0.8, 'rescaleHeight': True, 'trialN': 58, 'loaded': True, 'loadedTime': 3783.5, 'positionName': 'CENTER', 'positionCoords': [667.5, 286]}]",Rate how much you want to eat this food from 0 (least) to 10 (most).,123759.19999999925,1669832680883,cherry tomato,1882.9000000003725,True,6.93,125642.09999999963,1882.9000000003725,True,HRV,HRV_0189,2022-11-30 18:24:44
59,"[{'imgObject': {}, 'id': 'olives', 'src': '/static/foodstim60/olives.jpg', 'key': 'NaN', 'origWidth': 410, 'origHeight': 410, 'width': 410, 'height': 410, 'widthPercent': 0.8, 'rescaleHeight': True, 'trialN': 59, 'loaded': True, 'loadedTime': 3794.89999999851, 'positionName': 'CENTER', 'positionCoords': [667.5, 286]}]",Rate how much you want to eat this food from 0 (least) to 10 (most).,125648.29999999888,1669832682773,olives,1416.0,True,9.75,127064.29999999888,1416.0,True,HRV,HRV_0189,2022-11-30 18:24:44
