trialN,stimuli,trialStartTime,trialStartTime_UNIX,stimulus1,stimulus2,stimulus1Bid,stimulus2Bid,delta,selected,rt,rt_UNIX,rt_perfnow,receivedResponse,rsp,trialEndTime,trialDuration,trialEndTime_UNIX,trialDuration_UNIX,exp,subjectId,date
0,"[{'imgObject': {}, 'id': 'roastedpotatoes', 'src': '/static/foodstim60/roastedpotatoes.jpg', 'key': 'u', 'origWidth': 409, 'origHeight': 410, 'width': 409, 'height': 410, 'widthPercent': 0.45, 'rescaleHeight': False, 'trialN': 0, 'loaded': True, 'loadedTime': 14867.5, 'positionName': 'LEFT', 'positionCoords': [428.6, 286], 'bid': 4.12}, {'imgObject': {}, 'id': 'cheerios', 'src': '/static/foodstim60/cheerios.jpg', 'key': 'i', 'origWidth': 409, 'origHeight': 410, 'width': 409, 'height': 410, 'widthPercent': 0.45, 'rescaleHeight': False, 'trialN': 0, 'loaded': True, 'loadedTime': 14879.60000000149, 'positionName': 'RIGHT', 'positionCoords': [907.4, 286], 'bid': 1.53}]",16004.400000000373,1669832938308,roastedpotatoes,cheerios,4.12,1.53,-2.59,roastedpotatoes,1026.9000000003725,1031,1031.0,True,u,17536.5,1532.0999999996275,1669832939840,1532,HRV,HRV_0189,2022-11-30 18:33:07
1,"[{'imgObject': {}, 'id': 'froot loops w milk', 'src': '/static/foodstim60/froot loops w milk.jpg', 'key': 'u', 'origWidth': 410, 'origHeight': 410, 'width': 410, 'height': 410, 'widthPercent': 0.45, 'rescaleHeight': False, 'trialN': 1, 'loaded': True, 'loadedTime': 14910.400000000373, 'positionName': 'LEFT', 'positionCoords': [427.6, 286], 'bid': 0.32}, {'imgObject': {}, 'id': 'sushi w_condiments', 'src': '/static/foodstim60/sushi w_condiments.jpg', 'key': 'i', 'origWidth': 410, 'origHeight': 410, 'width': 410, 'height': 410, 'widthPercent': 0.45, 'rescaleHeight': False, 'trialN': 1, 'loaded': True, 'loadedTime': 14986.900000000373, 'positionName': 'RIGHT', 'positionCoords': [907.4, 286], 'bid': 6.09}]",17538.400000000373,1669832939842,froot loops w milk,sushi w_condiments,0.32,6.09,5.77,sushi w_condiments,1369.4000000003725,1371,1371.7000000011176,True,i,19410.60000000149,1872.2000000011176,1669832941714,1872,HRV,HRV_0189,2022-11-30 18:33:07
2,"[{'imgObject': {}, 'id': 'cocktailshrimp', 'src': '/static/foodstim60/cocktailshrimp.jpg', 'key': 'u', 'origWidth': 410, 'origHeight': 410, 'width': 410, 'height': 410, 'widthPercent': 0.45, 'rescaleHeight': False, 'trialN': 2, 'loaded': True, 'loadedTime': 14988.700000001118, 'positionName': 'LEFT', 'positionCoords': [427.6, 286], 'bid': 1.78}, {'imgObject': {}, 'id': 'hotdog w must', 'src': '/static/foodstim60/hotdog w must.jpg', 'key': 'i', 'origWidth': 409, 'origHeight': 409, 'width': 409, 'height': 409, 'widthPercent': 0.45, 'rescaleHeight': False, 'trialN': 2, 'loaded': True, 'loadedTime': 14993.400000000373, 'positionName': 'RIGHT', 'positionCoords': [907.4, 286.5], 'bid': 2.33}]",19410.800000000745,1669832941714,cocktailshrimp,hotdog w must,1.78,2.33,0.55,cocktailshrimp,829.3000000007451,831,831.1999999992549,True,u,20742.800000000745,1332.0,1669832943046,1332,HRV,HRV_0189,2022-11-30 18:33:07
3,"[{'imgObject': {}, 'id': 'fruitsalad', 'src': '/static/foodstim60/fruitsalad.jpg', 'key': 'u', 'origWidth': 410, 'origHeight': 410, 'width': 410, 'height': 410, 'widthPercent': 0.45, 'rescaleHeight': False, 'trialN': 3, 'loaded': True, 'loadedTime': 15000.800000000745, 'positionName': 'LEFT', 'positionCoords': [427.6, 286], 'bid': 5.46}, {'imgObject': {}, 'id': 'hotdog w must', 'src': '/static/foodstim60/hotdog w must.jpg', 'key': 'i', 'origWidth': 409, 'origHeight': 409, 'width': 409, 'height': 409, 'widthPercent': 0.45, 'rescaleHeight': False, 'trialN': 3, 'loaded': True, 'loadedTime': 14994.900000000373, 'positionName': 'RIGHT', 'positionCoords': [907.4, 286.5], 'bid': 2.33}]",20743.300000000745,1669832943046,fruitsalad,hotdog w must,5.46,2.33,-3.13,fruitsalad,888.8000000007451,891,891.0,True,u,22134.800000000745,1391.5,1669832944438,1392,HRV,HRV_0189,2022-11-30 18:33:07
4,"[{'imgObject': {}, 'id': 'grilled chicken strips', 'src': '/static/foodstim60/grilled chicken strips.jpg', 'key': 'u', 'origWidth': 410, 'origHeight': 411, 'width': 410, 'height': 411, 'widthPercent': 0.45, 'rescaleHeight': False, 'trialN': 4, 'loaded': True, 'loadedTime': 15007.5, 'positionName': 'LEFT', 'positionCoords': [427.6, 285.5], 'bid': 10}, {'imgObject': {}, 'id': 'sweetpotato', 'src': '/static/foodstim60/sweetpotato.jpg', 'key': 'i', 'origWidth': 410, 'origHeight': 410, 'width': 410, 'height': 410, 'widthPercent': 0.45, 'rescaleHeight': False, 'trialN': 4, 'loaded': True, 'loadedTime': 15010.60000000149, 'positionName': 'RIGHT', 'positionCoords': [907.4, 286], 'bid': 8.42}]",22135.10000000149,1669832944438,grilled chicken strips,sweetpotato,10.0,8.42,-1.58,grilled chicken strips,919.6999999992549,922,921.5,True,u,23557.300000000745,1422.199999999255,1669832945861,1423,HRV,HRV_0189,2022-11-30 18:33:07
5,"[{'imgObject': {}, 'id': 'yogurt no spoon', 'src': '/static/foodstim60/yogurt no spoon.jpg', 'key': 'u', 'origWidth': 411, 'origHeight': 410, 'width': 411, 'height': 410, 'widthPercent': 0.45, 'rescaleHeight': False, 'trialN': 5, 'loaded': True, 'loadedTime': 15016.200000001118, 'positionName': 'LEFT', 'positionCoords': [426.6, 286], 'bid': 1.91}, {'imgObject': {}, 'id': 'rigatoni', 'src': '/static/foodstim60/rigatoni.jpg', 'key': 'i', 'origWidth': 411, 'origHeight': 411, 'width': 411, 'height': 411, 'widthPercent': 0.45, 'rescaleHeight': False, 'trialN': 5, 'loaded': True, 'loadedTime': 15018.300000000745, 'positionName': 'RIGHT', 'positionCoords': [907.4, 285.5], 'bid': 0.4}]",23557.900000000373,1669832945861,yogurt no spoon,rigatoni,1.91,0.4,-1.5099999999999998,yogurt no spoon,1108.0,1111,1110.7000000011176,True,u,25169.0,1611.0999999996275,1669832947472,1611,HRV,HRV_0189,2022-11-30 18:33:07
6,"[{'imgObject': {}, 'id': 'eggsalad', 'src': '/static/foodstim60/eggsalad.jpg', 'key': 'u', 'origWidth': 410, 'origHeight': 409, 'width': 410, 'height': 409, 'widthPercent': 0.45, 'rescaleHeight': False, 'trialN': 6, 'loaded': True, 'loadedTime': 15028.200000001118, 'positionName': 'LEFT', 'positionCoords': [427.6, 286.5], 'bid': 3.11}, {'imgObject': {}, 'id': 'hashbrowns', 'src': '/static/foodstim60/hashbrowns.jpg', 'key': 'i', 'origWidth': 411, 'origHeight': 410, 'width': 411, 'height': 410, 'widthPercent': 0.45, 'rescaleHeight': False, 'trialN': 6, 'loaded': True, 'loadedTime': 15041, 'positionName': 'RIGHT', 'positionCoords': [907.4, 286], 'bid': 2.8000000000000003}]",25169.5,1669832947473,eggsalad,hashbrowns,3.11,2.8000000000000003,-0.3099999999999996,eggsalad,892.2000000011176,894,894.7000000011176,True,u,26565.0,1395.5,1669832948868,1395,HRV,HRV_0189,2022-11-30 18:33:07
7,"[{'imgObject': {}, 'id': 'pear', 'src': '/static/foodstim60/pear.jpg', 'key': 'u', 'origWidth': 411, 'origHeight': 410, 'width': 411, 'height': 410, 'widthPercent': 0.45, 'rescaleHeight': False, 'trialN': 7, 'loaded': True, 'loadedTime': 15079.10000000149, 'positionName': 'LEFT', 'positionCoords': [426.6, 286], 'bid': 6.16}, {'imgObject': {}, 'id': 'ice cream sundae 002', 'src': '/static/foodstim60/ice cream sundae 002.jpg', 'key': 'i', 'origWidth': 409, 'origHeight': 409, 'width': 409, 'height': 409, 'widthPercent': 0.45, 'rescaleHeight': False, 'trialN': 7, 'loaded': True, 'loadedTime': 15107.10000000149, 'positionName': 'RIGHT', 'positionCoords': [907.4, 286.5], 'bid': 0.37}]",26565.5,1669832948869,pear,ice cream sundae 002,6.16,0.37,-5.79,pear,793.0,795,795.5,True,u,27862.5,1297.0,1669832950166,1297,HRV,HRV_0189,2022-11-30 18:33:07
8,"[{'imgObject': {}, 'id': 'bagel and cc', 'src': '/static/foodstim60/bagel and cc.jpg', 'key': 'u', 'origWidth': 410, 'origHeight': 410, 'width': 410, 'height': 410, 'widthPercent': 0.45, 'rescaleHeight': False, 'trialN': 8, 'loaded': True, 'loadedTime': 15122.700000001118, 'positionName': 'LEFT', 'positionCoords': [427.6, 286], 'bid': 0.3}, {'imgObject': {}, 'id': 'veggieswithdip', 'src': '/static/foodstim60/veggieswithdip.jpg', 'key': 'i', 'origWidth': 409, 'origHeight': 409, 'width': 409, 'height': 409, 'widthPercent': 0.45, 'rescaleHeight': False, 'trialN': 8, 'loaded': True, 'loadedTime': 15183.10000000149, 'positionName': 'RIGHT', 'positionCoords': [907.4, 286.5], 'bid': 5.89}]",27862.700000001118,1669832950166,bagel and cc,veggieswithdip,0.3,5.89,5.59,veggieswithdip,786.9000000003725,788,788.4000000003725,True,i,29151.800000000745,1289.0999999996275,1669832951455,1289,HRV,HRV_0189,2022-11-30 18:33:07
9,"[{'imgObject': {}, 'id': 'cantaloupe', 'src': '/static/foodstim60/cantaloupe.jpg', 'key': 'u', 'origWidth': 409, 'origHeight': 409, 'width': 409, 'height': 409, 'widthPercent': 0.45, 'rescaleHeight': False, 'trialN': 9, 'loaded': True, 'loadedTime': 15224.900000000373, 'positionName': 'LEFT', 'positionCoords': [428.6, 286.5], 'bid': 7.67}, {'imgObject': {}, 'id': 'banana', 'src': '/static/foodstim60/banana.jpg', 'key': 'i', 'origWidth': 410, 'origHeight': 410, 'width': 410, 'height': 410, 'widthPercent': 0.45, 'rescaleHeight': False, 'trialN': 9, 'loaded': True, 'loadedTime': 15277.10000000149, 'positionName': 'RIGHT', 'positionCoords': [907.4, 286], 'bid': 9.01}]",29152.10000000149,1669832951455,cantaloupe,banana,7.67,9.01,1.3399999999999999,banana,950.0999999996275,953,952.2999999988824,True,i,30605.10000000149,1453.0,1669832952908,1453,HRV,HRV_0189,2022-11-30 18:33:07
10,"[{'imgObject': {}, 'id': 'lox', 'src': '/static/foodstim60/lox.jpg', 'key': 'u', 'origWidth': 410, 'origHeight': 411, 'width': 410, 'height': 411, 'widthPercent': 0.45, 'rescaleHeight': False, 'trialN': 10, 'loaded': True, 'loadedTime': 15322.300000000745, 'positionName': 'LEFT', 'positionCoords': [427.6, 285.5], 'bid': 8.23}, {'imgObject': {}, 'id': 'mac & cheese', 'src': '/static/foodstim60/mac & cheese.jpg', 'key': 'i', 'origWidth': 410, 'origHeight': 410, 'width': 410, 'height': 410, 'widthPercent': 0.45, 'rescaleHeight': False, 'trialN': 10, 'loaded': True, 'loadedTime': 15367.200000001118, 'positionName': 'RIGHT', 'positionCoords': [907.4, 286], 'bid': 1.77}]",30605.60000000149,1669832952909,lox,mac & cheese,8.23,1.77,-6.460000000000001,lox,954.7999999988824,957,956.8999999985099,True,u,32063.200000001118,1457.5999999996275,1669832954366,1457,HRV,HRV_0189,2022-11-30 18:33:07
11,"[{'imgObject': {}, 'id': 'ice cream sundae 002', 'src': '/static/foodstim60/ice cream sundae 002.jpg', 'key': 'u', 'origWidth': 409, 'origHeight': 409, 'width': 409, 'height': 409, 'widthPercent': 0.45, 'rescaleHeight': False, 'trialN': 11, 'loaded': True, 'loadedTime': 15103.200000001118, 'positionName': 'LEFT', 'positionCoords': [428.6, 286.5], 'bid': 0.37}, {'imgObject': {}, 'id': 'raisin bran w milk', 'src': '/static/foodstim60/raisin bran w milk.jpg', 'key': 'i', 'origWidth': 411, 'origHeight': 411, 'width': 411, 'height': 411, 'widthPercent': 0.45, 'rescaleHeight': False, 'trialN': 11, 'loaded': True, 'loadedTime': 15428.800000000745, 'positionName': 'RIGHT', 'positionCoords': [907.4, 285.5], 'bid': 0.52}]",32063.5,1669832954367,ice cream sundae 002,raisin bran w milk,0.37,0.52,0.15000000000000002,raisin bran w milk,970.2000000011176,972,972.2000000011176,True,i,33536.40000000037,1472.9000000003725,1669832955840,1473,HRV,HRV_0189,2022-11-30 18:33:07
12,"[{'imgObject': {}, 'id': 'mango', 'src': '/static/foodstim60/mango.jpg', 'key': 'u', 'origWidth': 411, 'origHeight': 411, 'width': 411, 'height': 411, 'widthPercent': 0.45, 'rescaleHeight': False, 'trialN': 12, 'loaded': True, 'loadedTime': 15484.800000000745, 'positionName': 'LEFT', 'positionCoords': [426.6, 285.5], 'bid': 6.67}, {'imgObject': {}, 'id': 'seaweed', 'src': '/static/foodstim60/seaweed.jpg', 'key': 'i', 'origWidth': 410, 'origHeight': 410, 'width': 410, 'height': 410, 'widthPercent': 0.45, 'rescaleHeight': False, 'trialN': 12, 'loaded': True, 'loadedTime': 15488, 'positionName': 'RIGHT', 'positionCoords': [907.4, 286], 'bid': 6.57}]",33536.70000000112,1669832955840,mango,seaweed,6.67,6.57,-0.09999999999999964,mango,1083.5,1086,1085.699999999255,True,u,35122.90000000037,1586.199999999255,1669832957426,1586,HRV,HRV_0189,2022-11-30 18:33:07
13,"[{'imgObject': {}, 'id': 'cocktailshrimp', 'src': '/static/foodstim60/cocktailshrimp.jpg', 'key': 'u', 'origWidth': 410, 'origHeight': 410, 'width': 410, 'height': 410, 'widthPercent': 0.45, 'rescaleHeight': False, 'trialN': 13, 'loaded': True, 'loadedTime': 14992.400000000373, 'positionName': 'LEFT', 'positionCoords': [427.6, 286], 'bid': 1.78}, {'imgObject': {}, 'id': 'baked potato', 'src': '/static/foodstim60/baked potato.jpg', 'key': 'i', 'origWidth': 409, 'origHeight': 410, 'width': 409, 'height': 410, 'widthPercent': 0.45, 'rescaleHeight': False, 'trialN': 13, 'loaded': True, 'loadedTime': 15514, 'positionName': 'RIGHT', 'positionCoords': [907.4, 286], 'bid': 5.26}]",35123.20000000112,1669832957426,cocktailshrimp,baked potato,1.78,5.26,3.4799999999999995,baked potato,1060.9000000003725,1064,1064.0999999996275,True,i,36688.0,1564.7999999988824,1669832958991,1565,HRV,HRV_0189,2022-11-30 18:33:07
14,"[{'imgObject': {}, 'id': 'baked potato', 'src': '/static/foodstim60/baked potato.jpg', 'key': 'u', 'origWidth': 409, 'origHeight': 410, 'width': 409, 'height': 410, 'widthPercent': 0.45, 'rescaleHeight': False, 'trialN': 14, 'loaded': True, 'loadedTime': 15514.5, 'positionName': 'LEFT', 'positionCoords': [428.6, 286], 'bid': 5.26}, {'imgObject': {}, 'id': 'mashed potato', 'src': '/static/foodstim60/mashed potato.jpg', 'key': 'i', 'origWidth': 409, 'origHeight': 409, 'width': 409, 'height': 409, 'widthPercent': 0.45, 'rescaleHeight': False, 'trialN': 14, 'loaded': True, 'loadedTime': 15544.900000000373, 'positionName': 'RIGHT', 'positionCoords': [907.4, 286.5], 'bid': 6.54}]",36688.40000000037,1669832958992,baked potato,mashed potato,5.26,6.54,1.2800000000000002,baked potato,1032.9000000003725,1035,1035.800000000745,True,u,38225.10000000149,1536.7000000011176,1669832960528,1536,HRV,HRV_0189,2022-11-30 18:33:07
15,"[{'imgObject': {}, 'id': 'banana', 'src': '/static/foodstim60/banana.jpg', 'key': 'u', 'origWidth': 410, 'origHeight': 410, 'width': 410, 'height': 410, 'widthPercent': 0.45, 'rescaleHeight': False, 'trialN': 15, 'loaded': True, 'loadedTime': 15277.400000000373, 'positionName': 'LEFT', 'positionCoords': [427.6, 286], 'bid': 9.01}, {'imgObject': {}, 'id': 'veggieswithdip', 'src': '/static/foodstim60/veggieswithdip.jpg', 'key': 'i', 'origWidth': 409, 'origHeight': 409, 'width': 409, 'height': 409, 'widthPercent': 0.45, 'rescaleHeight': False, 'trialN': 15, 'loaded': True, 'loadedTime': 15180.700000001118, 'positionName': 'RIGHT', 'positionCoords': [907.4, 286.5], 'bid': 5.89}]",38225.40000000037,1669832960529,banana,veggieswithdip,9.01,5.89,-3.12,banana,772.5,775,775.3000000007451,True,u,39501.5,1276.0999999996275,1669832961805,1276,HRV,HRV_0189,2022-11-30 18:33:07
16,"[{'imgObject': {}, 'id': 'blueberries', 'src': '/static/foodstim60/blueberries.jpg', 'key': 'u', 'origWidth': 411, 'origHeight': 411, 'width': 411, 'height': 411, 'widthPercent': 0.45, 'rescaleHeight': False, 'trialN': 16, 'loaded': True, 'loadedTime': 15545.900000000373, 'positionName': 'LEFT', 'positionCoords': [426.6, 285.5], 'bid': 9.6}, {'imgObject': {}, 'id': 'grilled chicken strips', 'src': '/static/foodstim60/grilled chicken strips.jpg', 'key': 'i', 'origWidth': 410, 'origHeight': 411, 'width': 410, 'height': 411, 'widthPercent': 0.45, 'rescaleHeight': False, 'trialN': 16, 'loaded': True, 'loadedTime': 15005.400000000373, 'positionName': 'RIGHT', 'positionCoords': [907.4, 285.5], 'bid': 10}]",39501.800000000745,1669832961805,blueberries,grilled chicken strips,9.6,10.0,0.40000000000000036,grilled chicken strips,883.0,886,885.5,True,i,40888.10000000149,1386.300000000745,1669832963191,1386,HRV,HRV_0189,2022-11-30 18:33:07
17,"[{'imgObject': {}, 'id': 'avocado', 'src': '/static/foodstim60/avocado.jpg', 'key': 'u', 'origWidth': 409, 'origHeight': 409, 'width': 409, 'height': 409, 'widthPercent': 0.45, 'rescaleHeight': False, 'trialN': 17, 'loaded': True, 'loadedTime': 15598.200000001118, 'positionName': 'LEFT', 'positionCoords': [428.6, 286.5], 'bid': 9.49}, {'imgObject': {}, 'id': 'orange slices', 'src': '/static/foodstim60/orange slices.jpg', 'key': 'i', 'origWidth': 409, 'origHeight': 410, 'width': 409, 'height': 410, 'widthPercent': 0.45, 'rescaleHeight': False, 'trialN': 17, 'loaded': True, 'loadedTime': 15628.300000000745, 'positionName': 'RIGHT', 'positionCoords': [907.4, 286], 'bid': 7.56}]",40888.5,1669832963192,avocado,orange slices,9.49,7.56,-1.9300000000000006,avocado,979.8000000007451,982,982.6000000014901,True,u,42371.60000000149,1483.1000000014901,1669832964675,1483,HRV,HRV_0189,2022-11-30 18:33:07
18,"[{'imgObject': {}, 'id': 'blueberries', 'src': '/static/foodstim60/blueberries.jpg', 'key': 'u', 'origWidth': 411, 'origHeight': 411, 'width': 411, 'height': 411, 'widthPercent': 0.45, 'rescaleHeight': False, 'trialN': 18, 'loaded': True, 'loadedTime': 15574.10000000149, 'positionName': 'LEFT', 'positionCoords': [426.6, 285.5], 'bid': 9.6}, {'imgObject': {}, 'id': 'eggs', 'src': '/static/foodstim60/eggs.jpg', 'key': 'i', 'origWidth': 409, 'origHeight': 409, 'width': 409, 'height': 409, 'widthPercent': 0.45, 'rescaleHeight': False, 'trialN': 18, 'loaded': True, 'loadedTime': 15630.5, 'positionName': 'RIGHT', 'positionCoords': [907.4, 286.5], 'bid': 9.77}]",42372.0,1669832964675,blueberries,eggs,9.6,9.77,0.16999999999999993,eggs,830.7000000011176,832,831.7000000011176,True,i,43704.20000000112,1332.2000000011176,1669832966007,1332,HRV,HRV_0189,2022-11-30 18:33:07
19,"[{'imgObject': {}, 'id': 'rigatoni and sauce', 'src': '/static/foodstim60/rigatoni and sauce.jpg', 'key': 'u', 'origWidth': 410, 'origHeight': 411, 'width': 410, 'height': 411, 'widthPercent': 0.45, 'rescaleHeight': False, 'trialN': 19, 'loaded': True, 'loadedTime': 15657.300000000745, 'positionName': 'LEFT', 'positionCoords': [427.6, 285.5], 'bid': 2.46}, {'imgObject': {}, 'id': 'apple slices', 'src': '/static/foodstim60/apple slices.jpg', 'key': 'i', 'origWidth': 409, 'origHeight': 410, 'width': 409, 'height': 410, 'widthPercent': 0.45, 'rescaleHeight': False, 'trialN': 19, 'loaded': True, 'loadedTime': 15685.200000001118, 'positionName': 'RIGHT', 'positionCoords': [907.4, 286], 'bid': 5.7700000000000005}]",43704.40000000037,1669832966008,rigatoni and sauce,apple slices,2.46,5.7700000000000005,3.3100000000000005,apple slices,1172.5,1174,1174.7000000011176,True,i,45379.800000000745,1675.4000000003725,1669832967683,1675,HRV,HRV_0189,2022-11-30 18:33:07
20,"[{'imgObject': {}, 'id': 'turkey sandwich', 'src': '/static/foodstim60/turkey sandwich.jpg', 'key': 'u', 'origWidth': 409, 'origHeight': 409, 'width': 409, 'height': 409, 'widthPercent': 0.45, 'rescaleHeight': False, 'trialN': 20, 'loaded': True, 'loadedTime': 15700.700000001118, 'positionName': 'LEFT', 'positionCoords': [428.6, 286.5], 'bid': 2.78}, {'imgObject': {}, 'id': 'blueberries', 'src': '/static/foodstim60/blueberries.jpg', 'key': 'i', 'origWidth': 411, 'origHeight': 411, 'width': 411, 'height': 411, 'widthPercent': 0.45, 'rescaleHeight': False, 'trialN': 20, 'loaded': True, 'loadedTime': 15547.900000000373, 'positionName': 'RIGHT', 'positionCoords': [907.4, 285.5], 'bid': 9.6}]",45380.10000000149,1669832967683,turkey sandwich,blueberries,2.78,9.6,6.82,blueberries,902.7999999988824,906,905.5999999996275,True,i,46786.40000000037,1406.2999999988824,1669832969090,1407,HRV,HRV_0189,2022-11-30 18:33:07
21,"[{'imgObject': {}, 'id': 'raspberries', 'src': '/static/foodstim60/raspberries.jpg', 'key': 'u', 'origWidth': 411, 'origHeight': 411, 'width': 411, 'height': 411, 'widthPercent': 0.45, 'rescaleHeight': False, 'trialN': 21, 'loaded': True, 'loadedTime': 15733, 'positionName': 'LEFT', 'positionCoords': [426.6, 285.5], 'bid': 9.77}, {'imgObject': {}, 'id': 'avocado', 'src': '/static/foodstim60/avocado.jpg', 'key': 'i', 'origWidth': 409, 'origHeight': 409, 'width': 409, 'height': 409, 'widthPercent': 0.45, 'rescaleHeight': False, 'trialN': 21, 'loaded': True, 'loadedTime': 15574.400000000373, 'positionName': 'RIGHT', 'positionCoords': [907.4, 286.5], 'bid': 9.49}]",46786.90000000037,1669832969090,raspberries,avocado,9.77,9.49,-0.27999999999999936,avocado,977.9000000003725,981,980.5999999996275,True,i,48268.0,1481.0999999996275,1669832970571,1481,HRV,HRV_0189,2022-11-30 18:33:07
22,"[{'imgObject': {}, 'id': 'roastedpotatoes', 'src': '/static/foodstim60/roastedpotatoes.jpg', 'key': 'u', 'origWidth': 409, 'origHeight': 410, 'width': 409, 'height': 410, 'widthPercent': 0.45, 'rescaleHeight': False, 'trialN': 22, 'loaded': True, 'loadedTime': 14854.700000001118, 'positionName': 'LEFT', 'positionCoords': [428.6, 286], 'bid': 4.12}, {'imgObject': {}, 'id': 'raspberries', 'src': '/static/foodstim60/raspberries.jpg', 'key': 'i', 'origWidth': 411, 'origHeight': 411, 'width': 411, 'height': 411, 'widthPercent': 0.45, 'rescaleHeight': False, 'trialN': 22, 'loaded': True, 'loadedTime': 15733.5, 'positionName': 'RIGHT', 'positionCoords': [907.4, 285.5], 'bid': 9.77}]",48268.300000000745,1669832970572,roastedpotatoes,raspberries,4.12,9.77,5.6499999999999995,roastedpotatoes,1000.5,1001,1002.0,True,u,49770.60000000149,1502.300000000745,1669832972074,1502,HRV,HRV_0189,2022-11-30 18:33:07
23,"[{'imgObject': {}, 'id': 'cocktailshrimp', 'src': '/static/foodstim60/cocktailshrimp.jpg', 'key': 'u', 'origWidth': 410, 'origHeight': 410, 'width': 410, 'height': 410, 'widthPercent': 0.45, 'rescaleHeight': False, 'trialN': 23, 'loaded': True, 'loadedTime': 14991.900000000373, 'positionName': 'LEFT', 'positionCoords': [427.6, 286], 'bid': 1.78}, {'imgObject': {}, 'id': 'sweetpotato', 'src': '/static/foodstim60/sweetpotato.jpg', 'key': 'i', 'origWidth': 410, 'origHeight': 410, 'width': 410, 'height': 410, 'widthPercent': 0.45, 'rescaleHeight': False, 'trialN': 23, 'loaded': True, 'loadedTime': 15010.300000000745, 'positionName': 'RIGHT', 'positionCoords': [907.4, 286], 'bid': 8.42}]",49770.90000000037,1669832972074,cocktailshrimp,sweetpotato,1.78,8.42,6.64,sweetpotato,1125.0999999996275,1127,1127.0999999996275,True,i,51398.5,1627.5999999996275,1669832973702,1628,HRV,HRV_0189,2022-11-30 18:33:07
24,"[{'imgObject': {}, 'id': 'hotdog w must', 'src': '/static/foodstim60/hotdog w must.jpg', 'key': 'u', 'origWidth': 409, 'origHeight': 409, 'width': 409, 'height': 409, 'widthPercent': 0.45, 'rescaleHeight': False, 'trialN': 24, 'loaded': True, 'loadedTime': 14995.60000000149, 'positionName': 'LEFT', 'positionCoords': [428.6, 286.5], 'bid': 2.33}, {'imgObject': {}, 'id': 'rigatoni and sauce', 'src': '/static/foodstim60/rigatoni and sauce.jpg', 'key': 'i', 'origWidth': 410, 'origHeight': 411, 'width': 410, 'height': 411, 'widthPercent': 0.45, 'rescaleHeight': False, 'trialN': 24, 'loaded': True, 'loadedTime': 15656.700000001118, 'positionName': 'RIGHT', 'positionCoords': [907.4, 285.5], 'bid': 2.46}]",51398.70000000112,1669832973702,hotdog w must,rigatoni and sauce,2.33,2.46,0.1299999999999999,rigatoni and sauce,882.6999999992549,885,885.0999999996275,True,i,52784.5,1385.7999999988824,1669832975088,1386,HRV,HRV_0189,2022-11-30 18:33:07
25,"[{'imgObject': {}, 'id': 'cherries', 'src': '/static/foodstim60/cherries.jpg', 'key': 'u', 'origWidth': 410, 'origHeight': 411, 'width': 410, 'height': 411, 'widthPercent': 0.45, 'rescaleHeight': False, 'trialN': 25, 'loaded': True, 'loadedTime': 15758.900000000373, 'positionName': 'LEFT', 'positionCoords': [427.6, 285.5], 'bid': 9.54}, {'imgObject': {}, 'id': 'steak', 'src': '/static/foodstim60/steak.jpg', 'key': 'i', 'origWidth': 410, 'origHeight': 410, 'width': 410, 'height': 410, 'widthPercent': 0.45, 'rescaleHeight': False, 'trialN': 25, 'loaded': True, 'loadedTime': 15785.900000000373, 'positionName': 'RIGHT', 'positionCoords': [907.4, 286], 'bid': 9.83}]",52784.800000000745,1669832975088,cherries,steak,9.54,9.83,0.2900000000000009,steak,924.5,927,926.5999999996275,True,i,54212.10000000149,1427.300000000745,1669832976515,1427,HRV,HRV_0189,2022-11-30 18:33:07
26,"[{'imgObject': {}, 'id': 'granola w milk', 'src': '/static/foodstim60/granola w milk.jpg', 'key': 'u', 'origWidth': 410, 'origHeight': 410, 'width': 410, 'height': 410, 'widthPercent': 0.45, 'rescaleHeight': False, 'trialN': 26, 'loaded': True, 'loadedTime': 15789, 'positionName': 'LEFT', 'positionCoords': [427.6, 286], 'bid': 0.89}, {'imgObject': {}, 'id': 'chickenfingers', 'src': '/static/foodstim60/chickenfingers.jpg', 'key': 'i', 'origWidth': 410, 'origHeight': 410, 'width': 410, 'height': 410, 'widthPercent': 0.45, 'rescaleHeight': False, 'trialN': 26, 'loaded': True, 'loadedTime': 15790.900000000373, 'positionName': 'RIGHT', 'positionCoords': [907.4, 286], 'bid': 2.3000000000000003}]",54212.60000000149,1669832976516,granola w milk,chickenfingers,0.89,2.3000000000000003,1.4100000000000001,chickenfingers,1038.199999999255,1041,1040.8999999985099,True,i,55754.10000000149,1541.5,1669832978057,1541,HRV,HRV_0189,2022-11-30 18:33:07
27,"[{'imgObject': {}, 'id': 'kiwi', 'src': '/static/foodstim60/kiwi.jpg', 'key': 'u', 'origWidth': 410, 'origHeight': 410, 'width': 410, 'height': 410, 'widthPercent': 0.45, 'rescaleHeight': False, 'trialN': 27, 'loaded': True, 'loadedTime': 15820.10000000149, 'positionName': 'LEFT', 'positionCoords': [427.6, 286], 'bid': 8.94}, {'imgObject': {}, 'id': 'orange slices', 'src': '/static/foodstim60/orange slices.jpg', 'key': 'i', 'origWidth': 409, 'origHeight': 410, 'width': 409, 'height': 410, 'widthPercent': 0.45, 'rescaleHeight': False, 'trialN': 27, 'loaded': True, 'loadedTime': 15627.700000001118, 'positionName': 'RIGHT', 'positionCoords': [907.4, 286], 'bid': 7.56}]",55754.70000000112,1669832978058,kiwi,orange slices,8.94,7.56,-1.38,kiwi,1046.0,1049,1049.2999999988824,True,u,57304.60000000149,1549.9000000003725,1669832979608,1550,HRV,HRV_0189,2022-11-30 18:33:07
28,"[{'imgObject': {}, 'id': 'bagel plain', 'src': '/static/foodstim60/bagel plain.jpg', 'key': 'u', 'origWidth': 410, 'origHeight': 410, 'width': 410, 'height': 410, 'widthPercent': 0.45, 'rescaleHeight': False, 'trialN': 28, 'loaded': True, 'loadedTime': 15844.5, 'positionName': 'LEFT', 'positionCoords': [427.6, 286], 'bid': 0.5700000000000001}, {'imgObject': {}, 'id': 'burrito', 'src': '/static/foodstim60/burrito.jpg', 'key': 'i', 'origWidth': 410, 'origHeight': 410, 'width': 410, 'height': 410, 'widthPercent': 0.45, 'rescaleHeight': False, 'trialN': 28, 'loaded': True, 'loadedTime': 15847.300000000745, 'positionName': 'RIGHT', 'positionCoords': [907.4, 286], 'bid': 2.07}]",57304.90000000037,1669832979608,bagel plain,burrito,0.5700000000000001,2.07,1.4999999999999998,burrito,822.9000000003725,825,825.2000000011176,True,i,58630.5,1325.5999999996275,1669832980934,1326,HRV,HRV_0189,2022-11-30 18:33:07
29,"[{'imgObject': {}, 'id': 'salmon', 'src': '/static/foodstim60/salmon.jpg', 'key': 'u', 'origWidth': 410, 'origHeight': 409, 'width': 410, 'height': 409, 'widthPercent': 0.45, 'rescaleHeight': False, 'trialN': 29, 'loaded': True, 'loadedTime': 15871.800000000745, 'positionName': 'LEFT', 'positionCoords': [427.6, 286.5], 'bid': 9.62}, {'imgObject': {}, 'id': 'cherry tomato', 'src': '/static/foodstim60/cherry tomato.jpg', 'key': 'i', 'origWidth': 410, 'origHeight': 410, 'width': 410, 'height': 410, 'widthPercent': 0.45, 'rescaleHeight': False, 'trialN': 29, 'loaded': True, 'loadedTime': 15874.900000000373, 'positionName': 'RIGHT', 'positionCoords': [907.4, 286], 'bid': 7.16}]",58630.70000000112,1669832980934,salmon,cherry tomato,9.62,7.16,-2.459999999999999,salmon,738.6999999992549,743,742.6999999992549,True,u,59873.70000000112,1243.0,1669832982177,1243,HRV,HRV_0189,2022-11-30 18:33:07
30,"[{'imgObject': {}, 'id': 'raisin bran w milk', 'src': '/static/foodstim60/raisin bran w milk.jpg', 'key': 'u', 'origWidth': 411, 'origHeight': 411, 'width': 411, 'height': 411, 'widthPercent': 0.45, 'rescaleHeight': False, 'trialN': 30, 'loaded': True, 'loadedTime': 15429.10000000149, 'positionName': 'LEFT', 'positionCoords': [426.6, 285.5], 'bid': 0.52}, {'imgObject': {}, 'id': 'rigatoni and sauce', 'src': '/static/foodstim60/rigatoni and sauce.jpg', 'key': 'i', 'origWidth': 410, 'origHeight': 411, 'width': 410, 'height': 411, 'widthPercent': 0.45, 'rescaleHeight': False, 'trialN': 30, 'loaded': True, 'loadedTime': 15657.200000001118, 'positionName': 'RIGHT', 'positionCoords': [907.4, 285.5], 'bid': 2.46}]",59873.90000000037,1669832982177,raisin bran w milk,rigatoni and sauce,0.52,2.46,1.94,rigatoni and sauce,917.3000000007451,921,920.5999999996275,True,i,61295.70000000112,1421.800000000745,1669832983599,1422,HRV,HRV_0189,2022-11-30 18:33:07
31,"[{'imgObject': {}, 'id': 'kiwi', 'src': '/static/foodstim60/kiwi.jpg', 'key': 'u', 'origWidth': 410, 'origHeight': 410, 'width': 410, 'height': 410, 'widthPercent': 0.45, 'rescaleHeight': False, 'trialN': 31, 'loaded': True, 'loadedTime': 15820.60000000149, 'positionName': 'LEFT', 'positionCoords': [427.6, 286], 'bid': 8.94}, {'imgObject': {}, 'id': 'raspberries', 'src': '/static/foodstim60/raspberries.jpg', 'key': 'i', 'origWidth': 411, 'origHeight': 411, 'width': 411, 'height': 411, 'widthPercent': 0.45, 'rescaleHeight': False, 'trialN': 31, 'loaded': True, 'loadedTime': 15734.10000000149, 'positionName': 'RIGHT', 'positionCoords': [907.4, 285.5], 'bid': 9.77}]",61296.0,1669832983599,kiwi,raspberries,8.94,9.77,0.8300000000000001,kiwi,664.5,667,667.2000000011176,True,u,62463.60000000149,1167.6000000014901,1669832984767,1168,HRV,HRV_0189,2022-11-30 18:33:07
32,"[{'imgObject': {}, 'id': 'edamame', 'src': '/static/foodstim60/edamame.jpg', 'key': 'u', 'origWidth': 409, 'origHeight': 410, 'width': 409, 'height': 410, 'widthPercent': 0.45, 'rescaleHeight': False, 'trialN': 32, 'loaded': True, 'loadedTime': 15893.800000000745, 'positionName': 'LEFT', 'positionCoords': [428.6, 286], 'bid': 7.04}, {'imgObject': {}, 'id': 'shreddedwheatwithmilk', 'src': '/static/foodstim60/shreddedwheatwithmilk.jpg', 'key': 'i', 'origWidth': 410, 'origHeight': 410, 'width': 410, 'height': 410, 'widthPercent': 0.45, 'rescaleHeight': False, 'trialN': 32, 'loaded': True, 'loadedTime': 15894.700000001118, 'positionName': 'RIGHT', 'positionCoords': [907.4, 286], 'bid': 0.81}]",62464.0,1669832984767,edamame,shreddedwheatwithmilk,7.04,0.81,-6.23,edamame,826.0,828,828.2000000011176,True,u,63792.60000000149,1328.6000000014901,1669832986096,1329,HRV,HRV_0189,2022-11-30 18:33:07
33,"[{'imgObject': {}, 'id': 'yogurt no spoon', 'src': '/static/foodstim60/yogurt no spoon.jpg', 'key': 'u', 'origWidth': 411, 'origHeight': 410, 'width': 411, 'height': 410, 'widthPercent': 0.45, 'rescaleHeight': False, 'trialN': 33, 'loaded': True, 'loadedTime': 15012.300000000745, 'positionName': 'LEFT', 'positionCoords': [426.6, 286], 'bid': 1.91}, {'imgObject': {}, 'id': 'cocktailshrimp', 'src': '/static/foodstim60/cocktailshrimp.jpg', 'key': 'i', 'origWidth': 410, 'origHeight': 410, 'width': 410, 'height': 410, 'widthPercent': 0.45, 'rescaleHeight': False, 'trialN': 33, 'loaded': True, 'loadedTime': 14990.800000000745, 'positionName': 'RIGHT', 'positionCoords': [907.4, 286], 'bid': 1.78}]",63793.300000000745,1669832986096,yogurt no spoon,cocktailshrimp,1.91,1.78,-0.1299999999999999,yogurt no spoon,759.3000000007451,762,761.6999999992549,True,u,65055.90000000037,1262.5999999996275,1669832987359,1263,HRV,HRV_0189,2022-11-30 18:33:07
34,"[{'imgObject': {}, 'id': 'baked potato', 'src': '/static/foodstim60/baked potato.jpg', 'key': 'u', 'origWidth': 409, 'origHeight': 410, 'width': 409, 'height': 410, 'widthPercent': 0.45, 'rescaleHeight': False, 'trialN': 34, 'loaded': True, 'loadedTime': 15514.300000000745, 'positionName': 'LEFT', 'positionCoords': [428.6, 286], 'bid': 5.26}, {'imgObject': {}, 'id': 'grilled chicken strips', 'src': '/static/foodstim60/grilled chicken strips.jpg', 'key': 'i', 'origWidth': 410, 'origHeight': 411, 'width': 410, 'height': 411, 'widthPercent': 0.45, 'rescaleHeight': False, 'trialN': 34, 'loaded': True, 'loadedTime': 15006, 'positionName': 'RIGHT', 'positionCoords': [907.4, 285.5], 'bid': 10}]",65056.5,1669832987360,baked potato,grilled chicken strips,5.26,10.0,4.74,baked potato,818.5,821,821.4000000003725,True,u,66378.40000000037,1321.9000000003725,1669832988682,1322,HRV,HRV_0189,2022-11-30 18:33:07
35,"[{'imgObject': {}, 'id': 'steak', 'src': '/static/foodstim60/steak.jpg', 'key': 'u', 'origWidth': 410, 'origHeight': 410, 'width': 410, 'height': 410, 'widthPercent': 0.45, 'rescaleHeight': False, 'trialN': 35, 'loaded': True, 'loadedTime': 15786.10000000149, 'positionName': 'LEFT', 'positionCoords': [427.6, 286], 'bid': 9.83}, {'imgObject': {}, 'id': 'grilled chicken strips', 'src': '/static/foodstim60/grilled chicken strips.jpg', 'key': 'i', 'origWidth': 410, 'origHeight': 411, 'width': 410, 'height': 411, 'widthPercent': 0.45, 'rescaleHeight': False, 'trialN': 35, 'loaded': True, 'loadedTime': 15002.5, 'positionName': 'RIGHT', 'positionCoords': [907.4, 285.5], 'bid': 10}]",66378.90000000037,1669832988682,steak,grilled chicken strips,9.83,10.0,0.16999999999999993,steak,697.3000000007451,700,700.4000000003725,True,u,67579.70000000112,1200.800000000745,1669832989883,1201,HRV,HRV_0189,2022-11-30 18:33:07
36,"[{'imgObject': {}, 'id': 'burger', 'src': '/static/foodstim60/burger.jpg', 'key': 'u', 'origWidth': 409, 'origHeight': 409, 'width': 409, 'height': 409, 'widthPercent': 0.45, 'rescaleHeight': False, 'trialN': 36, 'loaded': True, 'loadedTime': 15899.900000000373, 'positionName': 'LEFT', 'positionCoords': [428.6, 286.5], 'bid': 1.65}, {'imgObject': {}, 'id': 'bagel and cc', 'src': '/static/foodstim60/bagel and cc.jpg', 'key': 'i', 'origWidth': 410, 'origHeight': 410, 'width': 410, 'height': 410, 'widthPercent': 0.45, 'rescaleHeight': False, 'trialN': 36, 'loaded': True, 'loadedTime': 15168.60000000149, 'positionName': 'RIGHT', 'positionCoords': [907.4, 286], 'bid': 0.3}]",67580.0,1669832989883,burger,bagel and cc,1.65,0.3,-1.3499999999999999,burger,1179.1000000014901,1182,1182.2000000011176,True,u,69263.30000000075,1683.300000000745,1669832991567,1684,HRV,HRV_0189,2022-11-30 18:33:07
37,"[{'imgObject': {}, 'id': 'Tribe humus pita', 'src': '/static/foodstim60/Tribe humus pita.jpg', 'key': 'u', 'origWidth': 411, 'origHeight': 411, 'width': 411, 'height': 411, 'widthPercent': 0.45, 'rescaleHeight': False, 'trialN': 37, 'loaded': True, 'loadedTime': 15910.300000000745, 'positionName': 'LEFT', 'positionCoords': [426.6, 285.5], 'bid': 5.0200000000000005}, {'imgObject': {}, 'id': 'eggsalad', 'src': '/static/foodstim60/eggsalad.jpg', 'key': 'i', 'origWidth': 410, 'origHeight': 409, 'width': 410, 'height': 409, 'widthPercent': 0.45, 'rescaleHeight': False, 'trialN': 37, 'loaded': True, 'loadedTime': 15035.10000000149, 'positionName': 'RIGHT', 'positionCoords': [907.4, 286.5], 'bid': 3.11}]",69263.90000000037,1669832991567,Tribe humus pita,eggsalad,5.0200000000000005,3.11,-1.9100000000000006,Tribe humus pita,1016.4000000003725,1019,1018.5,True,u,70783.0,1519.0999999996275,1669832993086,1519,HRV,HRV_0189,2022-11-30 18:33:07
38,"[{'imgObject': {}, 'id': 'burger', 'src': '/static/foodstim60/burger.jpg', 'key': 'u', 'origWidth': 409, 'origHeight': 409, 'width': 409, 'height': 409, 'widthPercent': 0.45, 'rescaleHeight': False, 'trialN': 38, 'loaded': True, 'loadedTime': 15906.900000000373, 'positionName': 'LEFT', 'positionCoords': [428.6, 286.5], 'bid': 1.65}, {'imgObject': {}, 'id': 'cocktailshrimp', 'src': '/static/foodstim60/cocktailshrimp.jpg', 'key': 'i', 'origWidth': 410, 'origHeight': 410, 'width': 410, 'height': 410, 'widthPercent': 0.45, 'rescaleHeight': False, 'trialN': 38, 'loaded': True, 'loadedTime': 14991.300000000745, 'positionName': 'RIGHT', 'positionCoords': [907.4, 286], 'bid': 1.78}]",70783.40000000037,1669832993087,burger,cocktailshrimp,1.65,1.78,0.13000000000000012,cocktailshrimp,1296.2000000011176,1299,1299.800000000745,True,i,72583.80000000075,1800.4000000003725,1669832994887,1800,HRV,HRV_0189,2022-11-30 18:33:07
39,"[{'imgObject': {}, 'id': 'raspberries', 'src': '/static/foodstim60/raspberries.jpg', 'key': 'u', 'origWidth': 411, 'origHeight': 411, 'width': 411, 'height': 411, 'widthPercent': 0.45, 'rescaleHeight': False, 'trialN': 39, 'loaded': True, 'loadedTime': 15733.60000000149, 'positionName': 'LEFT', 'positionCoords': [426.6, 285.5], 'bid': 9.77}, {'imgObject': {}, 'id': 'fried eggs', 'src': '/static/foodstim60/fried eggs.jpg', 'key': 'i', 'origWidth': 410, 'origHeight': 410, 'width': 410, 'height': 410, 'widthPercent': 0.45, 'rescaleHeight': False, 'trialN': 39, 'loaded': True, 'loadedTime': 15923.200000001118, 'positionName': 'RIGHT', 'positionCoords': [907.4, 286], 'bid': 9.97}]",72584.10000000149,1669832994887,raspberries,fried eggs,9.77,9.97,0.20000000000000107,fried eggs,581.2999999988824,583,583.0999999996275,True,i,73667.60000000149,1083.5,1669832995971,1084,HRV,HRV_0189,2022-11-30 18:33:07
40,"[{'imgObject': {}, 'id': 'kiwi', 'src': '/static/foodstim60/kiwi.jpg', 'key': 'u', 'origWidth': 410, 'origHeight': 410, 'width': 410, 'height': 410, 'widthPercent': 0.45, 'rescaleHeight': False, 'trialN': 40, 'loaded': True, 'loadedTime': 15818, 'positionName': 'LEFT', 'positionCoords': [427.6, 286], 'bid': 8.94}, {'imgObject': {}, 'id': 'tacos', 'src': '/static/foodstim60/tacos.jpg', 'key': 'i', 'origWidth': 411, 'origHeight': 411, 'width': 411, 'height': 411, 'widthPercent': 0.45, 'rescaleHeight': False, 'trialN': 40, 'loaded': True, 'loadedTime': 15926.5, 'positionName': 'RIGHT', 'positionCoords': [907.4, 285.5], 'bid': 2.07}]",73667.80000000075,1669832995971,kiwi,tacos,8.94,2.07,-6.869999999999999,kiwi,898.0999999996275,900,900.1999999992549,True,u,75068.60000000149,1400.800000000745,1669832997372,1401,HRV,HRV_0189,2022-11-30 18:33:07
41,"[{'imgObject': {}, 'id': 'orange slices', 'src': '/static/foodstim60/orange slices.jpg', 'key': 'u', 'origWidth': 409, 'origHeight': 410, 'width': 409, 'height': 410, 'widthPercent': 0.45, 'rescaleHeight': False, 'trialN': 41, 'loaded': True, 'loadedTime': 15628.400000000373, 'positionName': 'LEFT', 'positionCoords': [428.6, 286], 'bid': 7.56}, {'imgObject': {}, 'id': 'eggs', 'src': '/static/foodstim60/eggs.jpg', 'key': 'i', 'origWidth': 409, 'origHeight': 409, 'width': 409, 'height': 409, 'widthPercent': 0.45, 'rescaleHeight': False, 'trialN': 41, 'loaded': True, 'loadedTime': 15630.800000000745, 'positionName': 'RIGHT', 'positionCoords': [907.4, 286.5], 'bid': 9.77}]",75069.10000000149,1669832997372,orange slices,eggs,7.56,9.77,2.21,eggs,789.5999999996275,792,791.6999999992549,True,i,76361.30000000075,1292.199999999255,1669832998664,1292,HRV,HRV_0189,2022-11-30 18:33:07
42,"[{'imgObject': {}, 'id': 'avocado', 'src': '/static/foodstim60/avocado.jpg', 'key': 'u', 'origWidth': 409, 'origHeight': 409, 'width': 409, 'height': 409, 'widthPercent': 0.45, 'rescaleHeight': False, 'trialN': 42, 'loaded': True, 'loadedTime': 15598.800000000745, 'positionName': 'LEFT', 'positionCoords': [428.6, 286.5], 'bid': 9.49}, {'imgObject': {}, 'id': 'mashed potato', 'src': '/static/foodstim60/mashed potato.jpg', 'key': 'i', 'origWidth': 409, 'origHeight': 409, 'width': 409, 'height': 409, 'widthPercent': 0.45, 'rescaleHeight': False, 'trialN': 42, 'loaded': True, 'loadedTime': 15545.400000000373, 'positionName': 'RIGHT', 'positionCoords': [907.4, 286.5], 'bid': 6.54}]",76361.60000000149,1669832998665,avocado,mashed potato,9.49,6.54,-2.95,avocado,612.0999999996275,615,614.8999999985099,True,u,77476.90000000037,1115.2999999988824,1669832999780,1115,HRV,HRV_0189,2022-11-30 18:33:07
43,"[{'imgObject': {}, 'id': 'olives', 'src': '/static/foodstim60/olives.jpg', 'key': 'u', 'origWidth': 410, 'origHeight': 410, 'width': 410, 'height': 410, 'widthPercent': 0.45, 'rescaleHeight': False, 'trialN': 43, 'loaded': True, 'loadedTime': 15928.200000001118, 'positionName': 'LEFT', 'positionCoords': [427.6, 286], 'bid': 9.59}, {'imgObject': {}, 'id': 'fried eggs', 'src': '/static/foodstim60/fried eggs.jpg', 'key': 'i', 'origWidth': 410, 'origHeight': 410, 'width': 410, 'height': 410, 'widthPercent': 0.45, 'rescaleHeight': False, 'trialN': 43, 'loaded': True, 'loadedTime': 15913.400000000373, 'positionName': 'RIGHT', 'positionCoords': [907.4, 286], 'bid': 9.97}]",77477.40000000037,1669832999781,olives,fried eggs,9.59,9.97,0.3800000000000008,olives,670.5999999996275,673,673.3000000007451,True,u,78651.0,1173.5999999996275,1669833000954,1173,HRV,HRV_0189,2022-11-30 18:33:07
44,"[{'imgObject': {}, 'id': 'banana', 'src': '/static/foodstim60/banana.jpg', 'key': 'u', 'origWidth': 410, 'origHeight': 410, 'width': 410, 'height': 410, 'widthPercent': 0.45, 'rescaleHeight': False, 'trialN': 44, 'loaded': True, 'loadedTime': 15277.60000000149, 'positionName': 'LEFT', 'positionCoords': [427.6, 286], 'bid': 9.01}, {'imgObject': {}, 'id': 'steak', 'src': '/static/foodstim60/steak.jpg', 'key': 'i', 'origWidth': 410, 'origHeight': 410, 'width': 410, 'height': 410, 'widthPercent': 0.45, 'rescaleHeight': False, 'trialN': 44, 'loaded': True, 'loadedTime': 15785.700000001118, 'positionName': 'RIGHT', 'positionCoords': [907.4, 286], 'bid': 9.83}]",78651.40000000037,1669833000955,banana,steak,9.01,9.83,0.8200000000000003,steak,672.5999999996275,674,674.5999999996275,True,i,79826.40000000037,1175.0,1669833002130,1175,HRV,HRV_0189,2022-11-30 18:33:07
45,"[{'imgObject': {}, 'id': 'cheerios', 'src': '/static/foodstim60/cheerios.jpg', 'key': 'u', 'origWidth': 409, 'origHeight': 410, 'width': 409, 'height': 410, 'widthPercent': 0.45, 'rescaleHeight': False, 'trialN': 45, 'loaded': True, 'loadedTime': 14874.900000000373, 'positionName': 'LEFT', 'positionCoords': [428.6, 286], 'bid': 1.53}, {'imgObject': {}, 'id': 'rigatoni', 'src': '/static/foodstim60/rigatoni.jpg', 'key': 'i', 'origWidth': 411, 'origHeight': 411, 'width': 411, 'height': 411, 'widthPercent': 0.45, 'rescaleHeight': False, 'trialN': 45, 'loaded': True, 'loadedTime': 15023.800000000745, 'positionName': 'RIGHT', 'positionCoords': [907.4, 285.5], 'bid': 0.4}]",79826.70000000112,1669833002130,cheerios,rigatoni,1.53,0.4,-1.13,rigatoni,1013.0999999996275,1015,1015.5,True,i,81342.90000000037,1516.199999999255,1669833003646,1516,HRV,HRV_0189,2022-11-30 18:33:07
46,"[{'imgObject': {}, 'id': 'lox', 'src': '/static/foodstim60/lox.jpg', 'key': 'u', 'origWidth': 410, 'origHeight': 411, 'width': 410, 'height': 411, 'widthPercent': 0.45, 'rescaleHeight': False, 'trialN': 46, 'loaded': True, 'loadedTime': 15319, 'positionName': 'LEFT', 'positionCoords': [427.6, 285.5], 'bid': 8.23}, {'imgObject': {}, 'id': 'blueberries', 'src': '/static/foodstim60/blueberries.jpg', 'key': 'i', 'origWidth': 411, 'origHeight': 411, 'width': 411, 'height': 411, 'widthPercent': 0.45, 'rescaleHeight': False, 'trialN': 46, 'loaded': True, 'loadedTime': 15573.900000000373, 'positionName': 'RIGHT', 'positionCoords': [907.4, 285.5], 'bid': 9.6}]",81343.10000000149,1669833003646,lox,blueberries,8.23,9.6,1.3699999999999992,blueberries,1080.0,1083,1083.0,True,i,82926.70000000112,1583.5999999996275,1669833005230,1584,HRV,HRV_0189,2022-11-30 18:33:07
47,"[{'imgObject': {}, 'id': 'mango', 'src': '/static/foodstim60/mango.jpg', 'key': 'u', 'origWidth': 411, 'origHeight': 411, 'width': 411, 'height': 411, 'widthPercent': 0.45, 'rescaleHeight': False, 'trialN': 47, 'loaded': True, 'loadedTime': 15460.200000001118, 'positionName': 'LEFT', 'positionCoords': [426.6, 285.5], 'bid': 6.67}, {'imgObject': {}, 'id': 'olives', 'src': '/static/foodstim60/olives.jpg', 'key': 'i', 'origWidth': 410, 'origHeight': 410, 'width': 410, 'height': 410, 'widthPercent': 0.45, 'rescaleHeight': False, 'trialN': 47, 'loaded': True, 'loadedTime': 15954.300000000745, 'positionName': 'RIGHT', 'positionCoords': [907.4, 286], 'bid': 9.59}]",82926.90000000037,1669833005230,mango,olives,6.67,9.59,2.92,olives,1041.7000000011176,1045,1044.300000000745,True,i,84471.90000000037,1545.0,1669833006775,1545,HRV,HRV_0189,2022-11-30 18:33:07
48,"[{'imgObject': {}, 'id': 'tacos', 'src': '/static/foodstim60/tacos.jpg', 'key': 'u', 'origWidth': 411, 'origHeight': 411, 'width': 411, 'height': 411, 'widthPercent': 0.45, 'rescaleHeight': False, 'trialN': 48, 'loaded': True, 'loadedTime': 15925.800000000745, 'positionName': 'LEFT', 'positionCoords': [426.6, 285.5], 'bid': 2.07}, {'imgObject': {}, 'id': 'corn cob', 'src': '/static/foodstim60/corn cob.jpg', 'key': 'i', 'origWidth': 411, 'origHeight': 411, 'width': 411, 'height': 411, 'widthPercent': 0.45, 'rescaleHeight': False, 'trialN': 48, 'loaded': True, 'loadedTime': 15957.5, 'positionName': 'RIGHT', 'positionCoords': [907.4, 285.5], 'bid': 2.25}]",84472.40000000037,1669833006776,tacos,corn cob,2.07,2.25,0.18000000000000016,corn cob,799.0,801,801.3000000007451,True,i,85774.10000000149,1301.7000000011176,1669833008077,1301,HRV,HRV_0189,2022-11-30 18:33:07
49,"[{'imgObject': {}, 'id': 'eggsalad', 'src': '/static/foodstim60/eggsalad.jpg', 'key': 'u', 'origWidth': 410, 'origHeight': 409, 'width': 410, 'height': 409, 'widthPercent': 0.45, 'rescaleHeight': False, 'trialN': 49, 'loaded': True, 'loadedTime': 15024.800000000745, 'positionName': 'LEFT', 'positionCoords': [427.6, 286.5], 'bid': 3.11}, {'imgObject': {}, 'id': 'eggs', 'src': '/static/foodstim60/eggs.jpg', 'key': 'i', 'origWidth': 409, 'origHeight': 409, 'width': 409, 'height': 409, 'widthPercent': 0.45, 'rescaleHeight': False, 'trialN': 49, 'loaded': True, 'loadedTime': 15654.5, 'positionName': 'RIGHT', 'positionCoords': [907.4, 286.5], 'bid': 9.77}]",85774.30000000075,1669833008077,eggsalad,eggs,3.11,9.77,6.66,eggs,932.5999999996275,935,934.6999999992549,True,i,87209.40000000037,1435.0999999996275,1669833009513,1436,HRV,HRV_0189,2022-11-30 18:33:07
50,"[{'imgObject': {}, 'id': 'mashed potato', 'src': '/static/foodstim60/mashed potato.jpg', 'key': 'u', 'origWidth': 409, 'origHeight': 409, 'width': 409, 'height': 409, 'widthPercent': 0.45, 'rescaleHeight': False, 'trialN': 50, 'loaded': True, 'loadedTime': 15545.10000000149, 'positionName': 'LEFT', 'positionCoords': [428.6, 286.5], 'bid': 6.54}, {'imgObject': {}, 'id': 'pear', 'src': '/static/foodstim60/pear.jpg', 'key': 'i', 'origWidth': 411, 'origHeight': 410, 'width': 411, 'height': 410, 'widthPercent': 0.45, 'rescaleHeight': False, 'trialN': 50, 'loaded': True, 'loadedTime': 15094, 'positionName': 'RIGHT', 'positionCoords': [907.4, 286], 'bid': 6.16}]",87210.0,1669833009513,mashed potato,pear,6.54,6.16,-0.3799999999999999,mashed potato,760.8000000007451,763,763.0,True,u,88473.70000000112,1263.7000000011176,1669833010777,1264,HRV,HRV_0189,2022-11-30 18:33:07
51,"[{'imgObject': {}, 'id': 'sushi w_condiments', 'src': '/static/foodstim60/sushi w_condiments.jpg', 'key': 'u', 'origWidth': 410, 'origHeight': 410, 'width': 410, 'height': 410, 'widthPercent': 0.45, 'rescaleHeight': False, 'trialN': 51, 'loaded': True, 'loadedTime': 14985.800000000745, 'positionName': 'LEFT', 'positionCoords': [427.6, 286], 'bid': 6.09}, {'imgObject': {}, 'id': 'veggieswithdip', 'src': '/static/foodstim60/veggieswithdip.jpg', 'key': 'i', 'origWidth': 409, 'origHeight': 409, 'width': 409, 'height': 409, 'widthPercent': 0.45, 'rescaleHeight': False, 'trialN': 51, 'loaded': True, 'loadedTime': 15181, 'positionName': 'RIGHT', 'positionCoords': [907.4, 286.5], 'bid': 5.89}]",88473.90000000037,1669833010777,sushi w_condiments,veggieswithdip,6.09,5.89,-0.20000000000000018,sushi w_condiments,731.3000000007451,735,735.0,True,u,89709.40000000037,1235.5,1669833012013,1236,HRV,HRV_0189,2022-11-30 18:33:07
52,"[{'imgObject': {}, 'id': 'luckycharms', 'src': '/static/foodstim60/luckycharms.jpg', 'key': 'u', 'origWidth': 410, 'origHeight': 409, 'width': 410, 'height': 409, 'widthPercent': 0.45, 'rescaleHeight': False, 'trialN': 52, 'loaded': True, 'loadedTime': 15959.800000000745, 'positionName': 'LEFT', 'positionCoords': [427.6, 286.5], 'bid': 0.05}, {'imgObject': {}, 'id': 'raisin bran w milk', 'src': '/static/foodstim60/raisin bran w milk.jpg', 'key': 'i', 'origWidth': 411, 'origHeight': 411, 'width': 411, 'height': 411, 'widthPercent': 0.45, 'rescaleHeight': False, 'trialN': 52, 'loaded': True, 'loadedTime': 15425.10000000149, 'positionName': 'RIGHT', 'positionCoords': [907.4, 285.5], 'bid': 0.52}]",89709.90000000037,1669833012013,luckycharms,raisin bran w milk,0.05,0.52,0.47000000000000003,raisin bran w milk,999.2000000011176,1002,1001.5,True,i,91211.90000000037,1502.0,1669833013515,1502,HRV,HRV_0189,2022-11-30 18:33:07
53,"[{'imgObject': {}, 'id': 'chickenfingers', 'src': '/static/foodstim60/chickenfingers.jpg', 'key': 'u', 'origWidth': 410, 'origHeight': 410, 'width': 410, 'height': 410, 'widthPercent': 0.45, 'rescaleHeight': False, 'trialN': 53, 'loaded': True, 'loadedTime': 15789.400000000373, 'positionName': 'LEFT', 'positionCoords': [427.6, 286], 'bid': 2.3000000000000003}, {'imgObject': {}, 'id': 'mac & cheese', 'src': '/static/foodstim60/mac & cheese.jpg', 'key': 'i', 'origWidth': 410, 'origHeight': 410, 'width': 410, 'height': 410, 'widthPercent': 0.45, 'rescaleHeight': False, 'trialN': 53, 'loaded': True, 'loadedTime': 15362.400000000373, 'positionName': 'RIGHT', 'positionCoords': [907.4, 286], 'bid': 1.77}]",91212.10000000149,1669833013515,chickenfingers,mac & cheese,2.3000000000000003,1.77,-0.5300000000000002,chickenfingers,869.5999999996275,872,871.5,True,u,92584.0,1371.8999999985099,1669833014887,1372,HRV,HRV_0189,2022-11-30 18:33:07
54,"[{'imgObject': {}, 'id': 'turkeysandwich', 'src': '/static/foodstim60/turkeysandwich.jpg', 'key': 'u', 'origWidth': 409, 'origHeight': 409, 'width': 409, 'height': 409, 'widthPercent': 0.45, 'rescaleHeight': False, 'trialN': 54, 'loaded': True, 'loadedTime': 15984.700000001118, 'positionName': 'LEFT', 'positionCoords': [428.6, 286.5], 'bid': 2.62}, {'imgObject': {}, 'id': 'olives', 'src': '/static/foodstim60/olives.jpg', 'key': 'i', 'origWidth': 410, 'origHeight': 410, 'width': 410, 'height': 410, 'widthPercent': 0.45, 'rescaleHeight': False, 'trialN': 54, 'loaded': True, 'loadedTime': 15928.5, 'positionName': 'RIGHT', 'positionCoords': [907.4, 286], 'bid': 9.59}]",92584.5,1669833014888,turkeysandwich,olives,2.62,9.59,6.97,olives,805.1000000014901,807,807.8000000007451,True,i,93892.80000000075,1308.300000000745,1669833016196,1308,HRV,HRV_0189,2022-11-30 18:33:07
55,"[{'imgObject': {}, 'id': 'burger', 'src': '/static/foodstim60/burger.jpg', 'key': 'u', 'origWidth': 409, 'origHeight': 409, 'width': 409, 'height': 409, 'widthPercent': 0.45, 'rescaleHeight': False, 'trialN': 55, 'loaded': True, 'loadedTime': 15904.900000000373, 'positionName': 'LEFT', 'positionCoords': [428.6, 286.5], 'bid': 1.65}, {'imgObject': {}, 'id': 'corn cob', 'src': '/static/foodstim60/corn cob.jpg', 'key': 'i', 'origWidth': 411, 'origHeight': 411, 'width': 411, 'height': 411, 'widthPercent': 0.45, 'rescaleHeight': False, 'trialN': 55, 'loaded': True, 'loadedTime': 15957.700000001118, 'positionName': 'RIGHT', 'positionCoords': [907.4, 285.5], 'bid': 2.25}]",93893.10000000149,1669833016196,burger,corn cob,1.65,2.25,0.6000000000000001,burger,780.5,782,781.5999999996275,True,u,95175.10000000149,1282.0,1669833017478,1282,HRV,HRV_0189,2022-11-30 18:33:07
56,"[{'imgObject': {}, 'id': 'salmon', 'src': '/static/foodstim60/salmon.jpg', 'key': 'u', 'origWidth': 410, 'origHeight': 409, 'width': 410, 'height': 409, 'widthPercent': 0.45, 'rescaleHeight': False, 'trialN': 56, 'loaded': True, 'loadedTime': 15848, 'positionName': 'LEFT', 'positionCoords': [427.6, 286.5], 'bid': 9.62}, {'imgObject': {}, 'id': 'hashbrowns', 'src': '/static/foodstim60/hashbrowns.jpg', 'key': 'i', 'origWidth': 411, 'origHeight': 410, 'width': 411, 'height': 410, 'widthPercent': 0.45, 'rescaleHeight': False, 'trialN': 56, 'loaded': True, 'loadedTime': 15035.400000000373, 'positionName': 'RIGHT', 'positionCoords': [907.4, 286], 'bid': 2.8000000000000003}]",95175.70000000112,1669833017479,salmon,hashbrowns,9.62,2.8000000000000003,-6.8199999999999985,salmon,934.5999999996275,936,936.4000000003725,True,u,96612.5,1436.7999999988824,1669833018916,1437,HRV,HRV_0189,2022-11-30 18:33:07
57,"[{'imgObject': {}, 'id': 'ice cream sundae 002', 'src': '/static/foodstim60/ice cream sundae 002.jpg', 'key': 'u', 'origWidth': 409, 'origHeight': 409, 'width': 409, 'height': 409, 'widthPercent': 0.45, 'rescaleHeight': False, 'trialN': 57, 'loaded': True, 'loadedTime': 15104.200000001118, 'positionName': 'LEFT', 'positionCoords': [428.6, 286.5], 'bid': 0.37}, {'imgObject': {}, 'id': 'rigatoni', 'src': '/static/foodstim60/rigatoni.jpg', 'key': 'i', 'origWidth': 411, 'origHeight': 411, 'width': 411, 'height': 411, 'widthPercent': 0.45, 'rescaleHeight': False, 'trialN': 57, 'loaded': True, 'loadedTime': 15022.60000000149, 'positionName': 'RIGHT', 'positionCoords': [907.4, 285.5], 'bid': 0.4}]",96612.80000000075,1669833018916,ice cream sundae 002,rigatoni,0.37,0.4,0.030000000000000027,rigatoni,992.0999999996275,995,994.6999999992549,True,i,98108.10000000149,1495.300000000745,1669833020411,1495,HRV,HRV_0189,2022-11-30 18:33:07
58,"[{'imgObject': {}, 'id': 'froot loops w milk', 'src': '/static/foodstim60/froot loops w milk.jpg', 'key': 'u', 'origWidth': 410, 'origHeight': 410, 'width': 410, 'height': 410, 'widthPercent': 0.45, 'rescaleHeight': False, 'trialN': 58, 'loaded': True, 'loadedTime': 14903.300000000745, 'positionName': 'LEFT', 'positionCoords': [427.6, 286], 'bid': 0.32}, {'imgObject': {}, 'id': 'mac & cheese', 'src': '/static/foodstim60/mac & cheese.jpg', 'key': 'i', 'origWidth': 410, 'origHeight': 410, 'width': 410, 'height': 410, 'widthPercent': 0.45, 'rescaleHeight': False, 'trialN': 58, 'loaded': True, 'loadedTime': 15367, 'positionName': 'RIGHT', 'positionCoords': [907.4, 286], 'bid': 1.77}]",98108.5,1669833020412,froot loops w milk,mac & cheese,0.32,1.77,1.45,mac & cheese,876.1000000014901,878,878.6000000014901,True,i,99487.60000000149,1379.1000000014901,1669833021791,1379,HRV,HRV_0189,2022-11-30 18:33:07
59,"[{'imgObject': {}, 'id': 'fruitsalad', 'src': '/static/foodstim60/fruitsalad.jpg', 'key': 'u', 'origWidth': 410, 'origHeight': 410, 'width': 410, 'height': 410, 'widthPercent': 0.45, 'rescaleHeight': False, 'trialN': 59, 'loaded': True, 'loadedTime': 15001.900000000373, 'positionName': 'LEFT', 'positionCoords': [427.6, 286], 'bid': 5.46}, {'imgObject': {}, 'id': 'apple slices', 'src': '/static/foodstim60/apple slices.jpg', 'key': 'i', 'origWidth': 409, 'origHeight': 410, 'width': 409, 'height': 410, 'widthPercent': 0.45, 'rescaleHeight': False, 'trialN': 59, 'loaded': True, 'loadedTime': 15684.5, 'positionName': 'RIGHT', 'positionCoords': [907.4, 286], 'bid': 5.7700000000000005}]",99487.90000000037,1669833021791,fruitsalad,apple slices,5.46,5.7700000000000005,0.3100000000000005,fruitsalad,908.0,911,910.7000000011176,True,u,100899.10000000149,1411.2000000011176,1669833023202,1411,HRV,HRV_0189,2022-11-30 18:33:07
60,"[{'imgObject': {}, 'id': 'bagel plain', 'src': '/static/foodstim60/bagel plain.jpg', 'key': 'u', 'origWidth': 410, 'origHeight': 410, 'width': 410, 'height': 410, 'widthPercent': 0.45, 'rescaleHeight': False, 'trialN': 60, 'loaded': True, 'loadedTime': 15822.400000000373, 'positionName': 'LEFT', 'positionCoords': [427.6, 286], 'bid': 0.5700000000000001}, {'imgObject': {}, 'id': 'popsicles', 'src': '/static/foodstim60/popsicles.jpg', 'key': 'i', 'origWidth': 410, 'origHeight': 410, 'width': 410, 'height': 410, 'widthPercent': 0.45, 'rescaleHeight': False, 'trialN': 60, 'loaded': True, 'loadedTime': 15987.10000000149, 'positionName': 'RIGHT', 'positionCoords': [907.4, 286], 'bid': 0.15}]",100899.30000000075,1669833023203,bagel plain,popsicles,0.5700000000000001,0.15,-0.42000000000000004,bagel plain,1031.0999999996275,1033,1033.5,True,u,102433.60000000149,1534.300000000745,1669833024737,1534,HRV,HRV_0189,2022-11-30 18:33:07
61,"[{'imgObject': {}, 'id': 'turkey sandwich', 'src': '/static/foodstim60/turkey sandwich.jpg', 'key': 'u', 'origWidth': 409, 'origHeight': 409, 'width': 409, 'height': 409, 'widthPercent': 0.45, 'rescaleHeight': False, 'trialN': 61, 'loaded': True, 'loadedTime': 15728.900000000373, 'positionName': 'LEFT', 'positionCoords': [428.6, 286.5], 'bid': 2.78}, {'imgObject': {}, 'id': 'rigatoni and sauce', 'src': '/static/foodstim60/rigatoni and sauce.jpg', 'key': 'i', 'origWidth': 410, 'origHeight': 411, 'width': 410, 'height': 411, 'widthPercent': 0.45, 'rescaleHeight': False, 'trialN': 61, 'loaded': True, 'loadedTime': 15654.800000000745, 'positionName': 'RIGHT', 'positionCoords': [907.4, 285.5], 'bid': 2.46}]",102433.90000000037,1669833024737,turkey sandwich,rigatoni and sauce,2.78,2.46,-0.31999999999999984,rigatoni and sauce,809.8000000007451,813,812.8000000007451,True,i,103747.40000000037,1313.5,1669833026051,1314,HRV,HRV_0189,2022-11-30 18:33:07
62,"[{'imgObject': {}, 'id': 'cherry tomato', 'src': '/static/foodstim60/cherry tomato.jpg', 'key': 'u', 'origWidth': 410, 'origHeight': 410, 'width': 410, 'height': 410, 'widthPercent': 0.45, 'rescaleHeight': False, 'trialN': 62, 'loaded': True, 'loadedTime': 15875.10000000149, 'positionName': 'LEFT', 'positionCoords': [427.6, 286], 'bid': 7.16}, {'imgObject': {}, 'id': 'strawberries', 'src': '/static/foodstim60/strawberries.jpg', 'key': 'i', 'origWidth': 410, 'origHeight': 410, 'width': 410, 'height': 410, 'widthPercent': 0.45, 'rescaleHeight': False, 'trialN': 62, 'loaded': True, 'loadedTime': 15989.400000000373, 'positionName': 'RIGHT', 'positionCoords': [907.4, 286], 'bid': 8.6}]",103747.70000000112,1669833026051,cherry tomato,strawberries,7.16,8.6,1.4399999999999995,cherry tomato,855.9000000003725,858,858.0999999996275,True,u,105106.30000000075,1358.5999999996275,1669833027409,1358,HRV,HRV_0189,2022-11-30 18:33:07
63,"[{'imgObject': {}, 'id': 'mashed potato', 'src': '/static/foodstim60/mashed potato.jpg', 'key': 'u', 'origWidth': 409, 'origHeight': 409, 'width': 409, 'height': 409, 'widthPercent': 0.45, 'rescaleHeight': False, 'trialN': 63, 'loaded': True, 'loadedTime': 15545.300000000745, 'positionName': 'LEFT', 'positionCoords': [428.6, 286.5], 'bid': 6.54}, {'imgObject': {}, 'id': 'sushi w_condiments', 'src': '/static/foodstim60/sushi w_condiments.jpg', 'key': 'i', 'origWidth': 410, 'origHeight': 410, 'width': 410, 'height': 410, 'widthPercent': 0.45, 'rescaleHeight': False, 'trialN': 63, 'loaded': True, 'loadedTime': 14987.900000000373, 'positionName': 'RIGHT', 'positionCoords': [907.4, 286], 'bid': 6.09}]",105106.60000000149,1669833027410,mashed potato,sushi w_condiments,6.54,6.09,-0.4500000000000002,mashed potato,885.2999999988824,888,888.0999999996275,True,u,106495.60000000149,1389.0,1669833028799,1389,HRV,HRV_0189,2022-11-30 18:33:07
64,"[{'imgObject': {}, 'id': 'edamame', 'src': '/static/foodstim60/edamame.jpg', 'key': 'u', 'origWidth': 409, 'origHeight': 410, 'width': 409, 'height': 410, 'widthPercent': 0.45, 'rescaleHeight': False, 'trialN': 64, 'loaded': True, 'loadedTime': 15893.400000000373, 'positionName': 'LEFT', 'positionCoords': [428.6, 286], 'bid': 7.04}, {'imgObject': {}, 'id': 'sweetpotato', 'src': '/static/foodstim60/sweetpotato.jpg', 'key': 'i', 'origWidth': 410, 'origHeight': 410, 'width': 410, 'height': 410, 'widthPercent': 0.45, 'rescaleHeight': False, 'trialN': 64, 'loaded': True, 'loadedTime': 15010.900000000373, 'positionName': 'RIGHT', 'positionCoords': [907.4, 286], 'bid': 8.42}]",106496.10000000149,1669833028799,edamame,sweetpotato,7.04,8.42,1.38,sweetpotato,893.3999999985099,896,895.5999999996275,True,i,107892.10000000149,1396.0,1669833030195,1396,HRV,HRV_0189,2022-11-30 18:33:07
65,"[{'imgObject': {}, 'id': 'raisin bran w milk', 'src': '/static/foodstim60/raisin bran w milk.jpg', 'key': 'u', 'origWidth': 411, 'origHeight': 411, 'width': 411, 'height': 411, 'widthPercent': 0.45, 'rescaleHeight': False, 'trialN': 65, 'loaded': True, 'loadedTime': 15456.800000000745, 'positionName': 'LEFT', 'positionCoords': [426.6, 285.5], 'bid': 0.52}, {'imgObject': {}, 'id': 'tacos', 'src': '/static/foodstim60/tacos.jpg', 'key': 'i', 'origWidth': 411, 'origHeight': 411, 'width': 411, 'height': 411, 'widthPercent': 0.45, 'rescaleHeight': False, 'trialN': 65, 'loaded': True, 'loadedTime': 15926.60000000149, 'positionName': 'RIGHT', 'positionCoords': [907.4, 285.5], 'bid': 2.07}]",107892.40000000037,1669833030196,raisin bran w milk,tacos,0.52,2.07,1.5499999999999998,raisin bran w milk,966.3000000007451,968,968.0,True,u,109360.80000000075,1468.4000000003725,1669833031664,1468,HRV,HRV_0189,2022-11-30 18:33:07
66,"[{'imgObject': {}, 'id': 'corn cob', 'src': '/static/foodstim60/corn cob.jpg', 'key': 'u', 'origWidth': 411, 'origHeight': 411, 'width': 411, 'height': 411, 'widthPercent': 0.45, 'rescaleHeight': False, 'trialN': 66, 'loaded': True, 'loadedTime': 15957, 'positionName': 'LEFT', 'positionCoords': [426.6, 285.5], 'bid': 2.25}, {'imgObject': {}, 'id': 'Grapes', 'src': '/static/foodstim60/Grapes.jpg', 'key': 'i', 'origWidth': 411, 'origHeight': 411, 'width': 411, 'height': 411, 'widthPercent': 0.45, 'rescaleHeight': False, 'trialN': 66, 'loaded': True, 'loadedTime': 15991.900000000373, 'positionName': 'RIGHT', 'positionCoords': [907.4, 285.5], 'bid': 9.01}]",109361.10000000149,1669833031664,corn cob,Grapes,2.25,9.01,6.76,corn cob,999.7999999988824,1003,1002.2999999988824,True,u,110864.80000000075,1503.699999999255,1669833033168,1504,HRV,HRV_0189,2022-11-30 18:33:07
67,"[{'imgObject': {}, 'id': 'granola w milk', 'src': '/static/foodstim60/granola w milk.jpg', 'key': 'u', 'origWidth': 410, 'origHeight': 410, 'width': 410, 'height': 410, 'widthPercent': 0.45, 'rescaleHeight': False, 'trialN': 67, 'loaded': True, 'loadedTime': 15788.800000000745, 'positionName': 'LEFT', 'positionCoords': [427.6, 286], 'bid': 0.89}, {'imgObject': {}, 'id': 'hashbrowns', 'src': '/static/foodstim60/hashbrowns.jpg', 'key': 'i', 'origWidth': 411, 'origHeight': 410, 'width': 411, 'height': 410, 'widthPercent': 0.45, 'rescaleHeight': False, 'trialN': 67, 'loaded': True, 'loadedTime': 15038.60000000149, 'positionName': 'RIGHT', 'positionCoords': [907.4, 286], 'bid': 2.8000000000000003}]",110865.30000000075,1669833033168,granola w milk,hashbrowns,0.89,2.8000000000000003,1.9100000000000001,hashbrowns,818.0999999996275,823,822.0,True,i,112188.30000000075,1323.0,1669833034492,1324,HRV,HRV_0189,2022-11-30 18:33:07
68,"[{'imgObject': {}, 'id': 'salad w chicken', 'src': '/static/foodstim60/salad w chicken.jpg', 'key': 'u', 'origWidth': 411, 'origHeight': 411, 'width': 411, 'height': 411, 'widthPercent': 0.45, 'rescaleHeight': False, 'trialN': 68, 'loaded': True, 'loadedTime': 15995.200000001118, 'positionName': 'LEFT', 'positionCoords': [426.6, 285.5], 'bid': 5.21}, {'imgObject': {}, 'id': 'pear', 'src': '/static/foodstim60/pear.jpg', 'key': 'i', 'origWidth': 411, 'origHeight': 410, 'width': 411, 'height': 410, 'widthPercent': 0.45, 'rescaleHeight': False, 'trialN': 68, 'loaded': True, 'loadedTime': 15078.900000000373, 'positionName': 'RIGHT', 'positionCoords': [907.4, 286], 'bid': 6.16}]",112188.60000000149,1669833034492,salad w chicken,pear,5.21,6.16,0.9500000000000002,salad w chicken,1068.699999999255,1070,1070.5999999996275,True,u,113759.60000000149,1571.0,1669833036063,1571,HRV,HRV_0189,2022-11-30 18:33:07
69,"[{'imgObject': {}, 'id': 'bagel and cc', 'src': '/static/foodstim60/bagel and cc.jpg', 'key': 'u', 'origWidth': 410, 'origHeight': 410, 'width': 410, 'height': 410, 'widthPercent': 0.45, 'rescaleHeight': False, 'trialN': 69, 'loaded': True, 'loadedTime': 15131.10000000149, 'positionName': 'LEFT', 'positionCoords': [427.6, 286], 'bid': 0.3}, {'imgObject': {}, 'id': 'burrito', 'src': '/static/foodstim60/burrito.jpg', 'key': 'i', 'origWidth': 410, 'origHeight': 410, 'width': 410, 'height': 410, 'widthPercent': 0.45, 'rescaleHeight': False, 'trialN': 69, 'loaded': True, 'loadedTime': 15846.700000001118, 'positionName': 'RIGHT', 'positionCoords': [907.4, 286], 'bid': 2.07}]",113759.80000000075,1669833036063,bagel and cc,burrito,0.3,2.07,1.7699999999999998,bagel and cc,978.0,980,980.3000000007451,True,u,115240.60000000149,1480.800000000745,1669833037544,1481,HRV,HRV_0189,2022-11-30 18:33:07
70,"[{'imgObject': {}, 'id': 'yogurt no spoon', 'src': '/static/foodstim60/yogurt no spoon.jpg', 'key': 'u', 'origWidth': 411, 'origHeight': 410, 'width': 411, 'height': 410, 'widthPercent': 0.45, 'rescaleHeight': False, 'trialN': 70, 'loaded': True, 'loadedTime': 15018, 'positionName': 'LEFT', 'positionCoords': [426.6, 286], 'bid': 1.91}, {'imgObject': {}, 'id': 'luckycharms', 'src': '/static/foodstim60/luckycharms.jpg', 'key': 'i', 'origWidth': 410, 'origHeight': 409, 'width': 410, 'height': 409, 'widthPercent': 0.45, 'rescaleHeight': False, 'trialN': 70, 'loaded': True, 'loadedTime': 15957.900000000373, 'positionName': 'RIGHT', 'positionCoords': [907.4, 286.5], 'bid': 0.05}]",115240.90000000037,1669833037544,yogurt no spoon,luckycharms,1.91,0.05,-1.8599999999999999,yogurt no spoon,824.3000000007451,827,826.8000000007451,True,u,116568.20000000112,1327.300000000745,1669833038871,1327,HRV,HRV_0189,2022-11-30 18:33:07
71,"[{'imgObject': {}, 'id': 'edamame', 'src': '/static/foodstim60/edamame.jpg', 'key': 'u', 'origWidth': 409, 'origHeight': 410, 'width': 409, 'height': 410, 'widthPercent': 0.45, 'rescaleHeight': False, 'trialN': 71, 'loaded': True, 'loadedTime': 15880.400000000373, 'positionName': 'LEFT', 'positionCoords': [428.6, 286], 'bid': 7.04}, {'imgObject': {}, 'id': 'blueberries', 'src': '/static/foodstim60/blueberries.jpg', 'key': 'i', 'origWidth': 411, 'origHeight': 411, 'width': 411, 'height': 411, 'widthPercent': 0.45, 'rescaleHeight': False, 'trialN': 71, 'loaded': True, 'loadedTime': 15573.400000000373, 'positionName': 'RIGHT', 'positionCoords': [907.4, 285.5], 'bid': 9.6}]",116568.5,1669833038872,edamame,blueberries,7.04,9.6,2.5599999999999996,edamame,839.6000000014901,842,842.3000000007451,True,u,117912.20000000112,1343.7000000011176,1669833040215,1343,HRV,HRV_0189,2022-11-30 18:33:07
72,"[{'imgObject': {}, 'id': 'rigatoni', 'src': '/static/foodstim60/rigatoni.jpg', 'key': 'u', 'origWidth': 411, 'origHeight': 411, 'width': 411, 'height': 411, 'widthPercent': 0.45, 'rescaleHeight': False, 'trialN': 72, 'loaded': True, 'loadedTime': 15023, 'positionName': 'LEFT', 'positionCoords': [426.6, 285.5], 'bid': 0.4}, {'imgObject': {}, 'id': 'bagel plain', 'src': '/static/foodstim60/bagel plain.jpg', 'key': 'i', 'origWidth': 410, 'origHeight': 410, 'width': 410, 'height': 410, 'widthPercent': 0.45, 'rescaleHeight': False, 'trialN': 72, 'loaded': True, 'loadedTime': 15843.900000000373, 'positionName': 'RIGHT', 'positionCoords': [907.4, 286], 'bid': 0.5700000000000001}]",117912.5,1669833040216,rigatoni,bagel plain,0.4,0.5700000000000001,0.17000000000000004,bagel plain,1268.0,1270,1270.4000000003725,True,i,119683.20000000112,1770.7000000011176,1669833041986,1770,HRV,HRV_0189,2022-11-30 18:33:07
73,"[{'imgObject': {}, 'id': 'turkey sandwich', 'src': '/static/foodstim60/turkey sandwich.jpg', 'key': 'u', 'origWidth': 409, 'origHeight': 409, 'width': 409, 'height': 409, 'widthPercent': 0.45, 'rescaleHeight': False, 'trialN': 73, 'loaded': True, 'loadedTime': 15729.5, 'positionName': 'LEFT', 'positionCoords': [428.6, 286.5], 'bid': 2.78}, {'imgObject': {}, 'id': 'sushi w_condiments', 'src': '/static/foodstim60/sushi w_condiments.jpg', 'key': 'i', 'origWidth': 410, 'origHeight': 410, 'width': 410, 'height': 410, 'widthPercent': 0.45, 'rescaleHeight': False, 'trialN': 73, 'loaded': True, 'loadedTime': 14988.400000000373, 'positionName': 'RIGHT', 'positionCoords': [907.4, 286], 'bid': 6.09}]",119683.5,1669833041987,turkey sandwich,sushi w_condiments,2.78,6.09,3.31,sushi w_condiments,854.1000000014901,856,856.6000000014901,True,i,121041.10000000149,1357.6000000014901,1669833043344,1357,HRV,HRV_0189,2022-11-30 18:33:07
74,"[{'imgObject': {}, 'id': 'popsicles', 'src': '/static/foodstim60/popsicles.jpg', 'key': 'u', 'origWidth': 410, 'origHeight': 410, 'width': 410, 'height': 410, 'widthPercent': 0.45, 'rescaleHeight': False, 'trialN': 74, 'loaded': True, 'loadedTime': 15985.200000001118, 'positionName': 'LEFT', 'positionCoords': [427.6, 286], 'bid': 0.15}, {'imgObject': {}, 'id': 'cheerios', 'src': '/static/foodstim60/cheerios.jpg', 'key': 'i', 'origWidth': 409, 'origHeight': 410, 'width': 409, 'height': 410, 'widthPercent': 0.45, 'rescaleHeight': False, 'trialN': 74, 'loaded': True, 'loadedTime': 14872.60000000149, 'positionName': 'RIGHT', 'positionCoords': [907.4, 286], 'bid': 1.53}]",121041.40000000037,1669833043345,popsicles,cheerios,0.15,1.53,1.3800000000000001,cheerios,812.9000000003725,816,816.2000000011176,True,i,122358.20000000112,1316.800000000745,1669833044661,1316,HRV,HRV_0189,2022-11-30 18:33:07
75,"[{'imgObject': {}, 'id': 'Grapes', 'src': '/static/foodstim60/Grapes.jpg', 'key': 'u', 'origWidth': 411, 'origHeight': 411, 'width': 411, 'height': 411, 'widthPercent': 0.45, 'rescaleHeight': False, 'trialN': 75, 'loaded': True, 'loadedTime': 15992.200000001118, 'positionName': 'LEFT', 'positionCoords': [426.6, 285.5], 'bid': 9.01}, {'imgObject': {}, 'id': 'salmon', 'src': '/static/foodstim60/salmon.jpg', 'key': 'i', 'origWidth': 410, 'origHeight': 409, 'width': 410, 'height': 409, 'widthPercent': 0.45, 'rescaleHeight': False, 'trialN': 75, 'loaded': True, 'loadedTime': 15872.10000000149, 'positionName': 'RIGHT', 'positionCoords': [907.4, 286.5], 'bid': 9.62}]",122358.5,1669833044662,Grapes,salmon,9.01,9.62,0.6099999999999994,Grapes,684.0,686,685.9000000003725,True,u,123544.80000000075,1186.300000000745,1669833045848,1186,HRV,HRV_0189,2022-11-30 18:33:07
76,"[{'imgObject': {}, 'id': 'fruitsalad', 'src': '/static/foodstim60/fruitsalad.jpg', 'key': 'u', 'origWidth': 410, 'origHeight': 410, 'width': 410, 'height': 410, 'widthPercent': 0.45, 'rescaleHeight': False, 'trialN': 76, 'loaded': True, 'loadedTime': 15001.200000001118, 'positionName': 'LEFT', 'positionCoords': [427.6, 286], 'bid': 5.46}, {'imgObject': {}, 'id': 'salad w chicken', 'src': '/static/foodstim60/salad w chicken.jpg', 'key': 'i', 'origWidth': 411, 'origHeight': 411, 'width': 411, 'height': 411, 'widthPercent': 0.45, 'rescaleHeight': False, 'trialN': 76, 'loaded': True, 'loadedTime': 15992.5, 'positionName': 'RIGHT', 'positionCoords': [907.4, 285.5], 'bid': 5.21}]",123545.0,1669833045848,fruitsalad,salad w chicken,5.46,5.21,-0.25,salad w chicken,1050.300000000745,1053,1052.4000000003725,True,i,125097.90000000037,1552.9000000003725,1669833047401,1553,HRV,HRV_0189,2022-11-30 18:33:07
77,"[{'imgObject': {}, 'id': 'burger', 'src': '/static/foodstim60/burger.jpg', 'key': 'u', 'origWidth': 409, 'origHeight': 409, 'width': 409, 'height': 409, 'widthPercent': 0.45, 'rescaleHeight': False, 'trialN': 77, 'loaded': True, 'loadedTime': 15907.10000000149, 'positionName': 'LEFT', 'positionCoords': [428.6, 286.5], 'bid': 1.65}, {'imgObject': {}, 'id': 'blackbeanswithrice', 'src': '/static/foodstim60/blackbeanswithrice.jpg', 'key': 'i', 'origWidth': 410, 'origHeight': 410, 'width': 410, 'height': 410, 'widthPercent': 0.45, 'rescaleHeight': False, 'trialN': 77, 'loaded': True, 'loadedTime': 15997.5, 'positionName': 'RIGHT', 'positionCoords': [907.4, 286], 'bid': 8.18}]",125098.0,1669833047401,burger,blackbeanswithrice,1.65,8.18,6.529999999999999,blackbeanswithrice,806.0,808,808.3000000007451,True,i,126406.80000000075,1308.800000000745,1669833048710,1309,HRV,HRV_0189,2022-11-30 18:33:07
78,"[{'imgObject': {}, 'id': 'edamame', 'src': '/static/foodstim60/edamame.jpg', 'key': 'u', 'origWidth': 409, 'origHeight': 410, 'width': 409, 'height': 410, 'widthPercent': 0.45, 'rescaleHeight': False, 'trialN': 78, 'loaded': True, 'loadedTime': 15893.700000001118, 'positionName': 'LEFT', 'positionCoords': [428.6, 286], 'bid': 7.04}, {'imgObject': {}, 'id': 'seaweed', 'src': '/static/foodstim60/seaweed.jpg', 'key': 'i', 'origWidth': 410, 'origHeight': 410, 'width': 410, 'height': 410, 'widthPercent': 0.45, 'rescaleHeight': False, 'trialN': 78, 'loaded': True, 'loadedTime': 15488.200000001118, 'positionName': 'RIGHT', 'positionCoords': [907.4, 286], 'bid': 6.57}]",126407.30000000075,1669833048711,edamame,seaweed,7.04,6.57,-0.46999999999999975,seaweed,936.6999999992549,939,939.4000000003725,True,i,127847.20000000112,1439.9000000003725,1669833050150,1439,HRV,HRV_0189,2022-11-30 18:33:07
79,"[{'imgObject': {}, 'id': 'grilled chicken strips', 'src': '/static/foodstim60/grilled chicken strips.jpg', 'key': 'u', 'origWidth': 410, 'origHeight': 411, 'width': 410, 'height': 411, 'widthPercent': 0.45, 'rescaleHeight': False, 'trialN': 79, 'loaded': True, 'loadedTime': 15007.10000000149, 'positionName': 'LEFT', 'positionCoords': [427.6, 285.5], 'bid': 10}, {'imgObject': {}, 'id': 'fried eggs', 'src': '/static/foodstim60/fried eggs.jpg', 'key': 'i', 'origWidth': 410, 'origHeight': 410, 'width': 410, 'height': 410, 'widthPercent': 0.45, 'rescaleHeight': False, 'trialN': 79, 'loaded': True, 'loadedTime': 15912.900000000373, 'positionName': 'RIGHT', 'positionCoords': [907.4, 286], 'bid': 9.97}]",127847.40000000037,1669833050151,grilled chicken strips,fried eggs,10.0,9.97,-0.02999999999999936,fried eggs,702.8000000007451,705,705.4000000003725,True,i,129053.5,1206.0999999996275,1669833051357,1206,HRV,HRV_0189,2022-11-30 18:33:07
80,"[{'imgObject': {}, 'id': 'roastedpotatoes', 'src': '/static/foodstim60/roastedpotatoes.jpg', 'key': 'u', 'origWidth': 409, 'origHeight': 410, 'width': 409, 'height': 410, 'widthPercent': 0.45, 'rescaleHeight': False, 'trialN': 80, 'loaded': True, 'loadedTime': 14848.200000001118, 'positionName': 'LEFT', 'positionCoords': [428.6, 286], 'bid': 4.12}, {'imgObject': {}, 'id': 'seaweed', 'src': '/static/foodstim60/seaweed.jpg', 'key': 'i', 'origWidth': 410, 'origHeight': 410, 'width': 410, 'height': 410, 'widthPercent': 0.45, 'rescaleHeight': False, 'trialN': 80, 'loaded': True, 'loadedTime': 15487.900000000373, 'positionName': 'RIGHT', 'positionCoords': [907.4, 286], 'bid': 6.57}]",129053.80000000075,1669833051357,roastedpotatoes,seaweed,4.12,6.57,2.45,roastedpotatoes,1187.800000000745,1190,1190.300000000745,True,u,130744.5,1690.699999999255,1669833053048,1691,HRV,HRV_0189,2022-11-30 18:33:07
81,"[{'imgObject': {}, 'id': 'froot loops w milk', 'src': '/static/foodstim60/froot loops w milk.jpg', 'key': 'u', 'origWidth': 410, 'origHeight': 410, 'width': 410, 'height': 410, 'widthPercent': 0.45, 'rescaleHeight': False, 'trialN': 81, 'loaded': True, 'loadedTime': 14910.800000000745, 'positionName': 'LEFT', 'positionCoords': [427.6, 286], 'bid': 0.32}, {'imgObject': {}, 'id': 'corn cob', 'src': '/static/foodstim60/corn cob.jpg', 'key': 'i', 'origWidth': 411, 'origHeight': 411, 'width': 411, 'height': 411, 'widthPercent': 0.45, 'rescaleHeight': False, 'trialN': 81, 'loaded': True, 'loadedTime': 15957.300000000745, 'positionName': 'RIGHT', 'positionCoords': [907.4, 285.5], 'bid': 2.25}]",130744.80000000075,1669833053048,froot loops w milk,corn cob,0.32,2.25,1.93,corn cob,807.3000000007451,810,809.9000000003725,True,i,132055.40000000037,1310.5999999996275,1669833054359,1311,HRV,HRV_0189,2022-11-30 18:33:07
82,"[{'imgObject': {}, 'id': 'salad w chicken', 'src': '/static/foodstim60/salad w chicken.jpg', 'key': 'u', 'origWidth': 411, 'origHeight': 411, 'width': 411, 'height': 411, 'widthPercent': 0.45, 'rescaleHeight': False, 'trialN': 82, 'loaded': True, 'loadedTime': 15995.60000000149, 'positionName': 'LEFT', 'positionCoords': [426.6, 285.5], 'bid': 5.21}, {'imgObject': {}, 'id': 'baked potato', 'src': '/static/foodstim60/baked potato.jpg', 'key': 'i', 'origWidth': 409, 'origHeight': 410, 'width': 409, 'height': 410, 'widthPercent': 0.45, 'rescaleHeight': False, 'trialN': 82, 'loaded': True, 'loadedTime': 15512.10000000149, 'positionName': 'RIGHT', 'positionCoords': [907.4, 286], 'bid': 5.26}]",132055.6000000015,1669833054359,salad w chicken,baked potato,5.21,5.26,0.04999999999999982,baked potato,1099.5,1103,1102.699999999255,True,i,133659.0,1603.3999999985099,1669833055962,1603,HRV,HRV_0189,2022-11-30 18:33:07
83,"[{'imgObject': {}, 'id': 'hashbrowns', 'src': '/static/foodstim60/hashbrowns.jpg', 'key': 'u', 'origWidth': 411, 'origHeight': 410, 'width': 411, 'height': 410, 'widthPercent': 0.45, 'rescaleHeight': False, 'trialN': 83, 'loaded': True, 'loadedTime': 15041.10000000149, 'positionName': 'LEFT', 'positionCoords': [426.6, 286], 'bid': 2.8000000000000003}, {'imgObject': {}, 'id': 'roastedpotatoes', 'src': '/static/foodstim60/roastedpotatoes.jpg', 'key': 'i', 'origWidth': 409, 'origHeight': 410, 'width': 409, 'height': 410, 'widthPercent': 0.45, 'rescaleHeight': False, 'trialN': 83, 'loaded': True, 'loadedTime': 14854.10000000149, 'positionName': 'RIGHT', 'positionCoords': [907.4, 286], 'bid': 4.12}]",133659.30000000075,1669833055963,hashbrowns,roastedpotatoes,2.8000000000000003,4.12,1.3199999999999998,hashbrowns,925.4000000003725,928,928.5,True,u,135088.40000000037,1429.0999999996275,1669833057392,1429,HRV,HRV_0189,2022-11-30 18:33:07
84,"[{'imgObject': {}, 'id': 'strawberries', 'src': '/static/foodstim60/strawberries.jpg', 'key': 'u', 'origWidth': 410, 'origHeight': 410, 'width': 410, 'height': 410, 'widthPercent': 0.45, 'rescaleHeight': False, 'trialN': 84, 'loaded': True, 'loadedTime': 15989.800000000745, 'positionName': 'LEFT', 'positionCoords': [427.6, 286], 'bid': 8.6}, {'imgObject': {}, 'id': 'yogurt no spoon', 'src': '/static/foodstim60/yogurt no spoon.jpg', 'key': 'i', 'origWidth': 411, 'origHeight': 410, 'width': 411, 'height': 410, 'widthPercent': 0.45, 'rescaleHeight': False, 'trialN': 84, 'loaded': True, 'loadedTime': 15016.900000000373, 'positionName': 'RIGHT', 'positionCoords': [907.4, 286], 'bid': 1.91}]",135088.6000000015,1669833057392,strawberries,yogurt no spoon,8.6,1.91,-6.6899999999999995,strawberries,851.5,854,854.2999999988824,True,u,136443.6000000015,1355.0,1669833058747,1355,HRV,HRV_0189,2022-11-30 18:33:07
85,"[{'imgObject': {}, 'id': 'lox', 'src': '/static/foodstim60/lox.jpg', 'key': 'u', 'origWidth': 410, 'origHeight': 411, 'width': 410, 'height': 411, 'widthPercent': 0.45, 'rescaleHeight': False, 'trialN': 85, 'loaded': True, 'loadedTime': 15323, 'positionName': 'LEFT', 'positionCoords': [427.6, 285.5], 'bid': 8.23}, {'imgObject': {}, 'id': 'fried eggs', 'src': '/static/foodstim60/fried eggs.jpg', 'key': 'i', 'origWidth': 410, 'origHeight': 410, 'width': 410, 'height': 410, 'widthPercent': 0.45, 'rescaleHeight': False, 'trialN': 85, 'loaded': True, 'loadedTime': 15913.200000001118, 'positionName': 'RIGHT', 'positionCoords': [907.4, 286], 'bid': 9.97}]",136444.0,1669833058747,lox,fried eggs,8.23,9.97,1.7400000000000002,lox,657.7000000011176,660,659.8000000007451,True,u,137604.40000000037,1160.4000000003725,1669833059908,1161,HRV,HRV_0189,2022-11-30 18:33:07
86,"[{'imgObject': {}, 'id': 'turkey sandwich', 'src': '/static/foodstim60/turkey sandwich.jpg', 'key': 'u', 'origWidth': 409, 'origHeight': 409, 'width': 409, 'height': 409, 'widthPercent': 0.45, 'rescaleHeight': False, 'trialN': 86, 'loaded': True, 'loadedTime': 15729.200000001118, 'positionName': 'LEFT', 'positionCoords': [428.6, 286.5], 'bid': 2.78}, {'imgObject': {}, 'id': 'burrito', 'src': '/static/foodstim60/burrito.jpg', 'key': 'i', 'origWidth': 410, 'origHeight': 410, 'width': 410, 'height': 410, 'widthPercent': 0.45, 'rescaleHeight': False, 'trialN': 86, 'loaded': True, 'loadedTime': 15846.900000000373, 'positionName': 'RIGHT', 'positionCoords': [907.4, 286], 'bid': 2.07}]",137604.90000000037,1669833059908,turkey sandwich,burrito,2.78,2.07,-0.71,turkey sandwich,900.0,903,902.8000000007451,True,u,139008.30000000075,1403.4000000003725,1669833061311,1403,HRV,HRV_0189,2022-11-30 18:33:07
87,"[{'imgObject': {}, 'id': 'froot loops w milk', 'src': '/static/foodstim60/froot loops w milk.jpg', 'key': 'u', 'origWidth': 410, 'origHeight': 410, 'width': 410, 'height': 410, 'widthPercent': 0.45, 'rescaleHeight': False, 'trialN': 87, 'loaded': True, 'loadedTime': 14959.300000000745, 'positionName': 'LEFT', 'positionCoords': [427.6, 286], 'bid': 0.32}, {'imgObject': {}, 'id': 'bagel and cc', 'src': '/static/foodstim60/bagel and cc.jpg', 'key': 'i', 'origWidth': 410, 'origHeight': 410, 'width': 410, 'height': 410, 'widthPercent': 0.45, 'rescaleHeight': False, 'trialN': 87, 'loaded': True, 'loadedTime': 15130.5, 'positionName': 'RIGHT', 'positionCoords': [907.4, 286], 'bid': 0.3}]",139008.70000000112,1669833061312,froot loops w milk,bagel and cc,0.32,0.3,-0.020000000000000018,froot loops w milk,823.9000000003725,826,826.2999999988824,True,u,140335.6000000015,1326.9000000003725,1669833062639,1327,HRV,HRV_0189,2022-11-30 18:33:07
88,"[{'imgObject': {}, 'id': 'strawberries', 'src': '/static/foodstim60/strawberries.jpg', 'key': 'u', 'origWidth': 410, 'origHeight': 410, 'width': 410, 'height': 410, 'widthPercent': 0.45, 'rescaleHeight': False, 'trialN': 88, 'loaded': True, 'loadedTime': 15987.60000000149, 'positionName': 'LEFT', 'positionCoords': [427.6, 286], 'bid': 8.6}, {'imgObject': {}, 'id': 'banana', 'src': '/static/foodstim60/banana.jpg', 'key': 'i', 'origWidth': 410, 'origHeight': 410, 'width': 410, 'height': 410, 'widthPercent': 0.45, 'rescaleHeight': False, 'trialN': 88, 'loaded': True, 'loadedTime': 15274.300000000745, 'positionName': 'RIGHT', 'positionCoords': [907.4, 286], 'bid': 9.01}]",140335.90000000037,1669833062639,strawberries,banana,8.6,9.01,0.41000000000000014,strawberries,672.5999999996275,675,675.2000000011176,True,u,141511.70000000112,1175.800000000745,1669833063815,1176,HRV,HRV_0189,2022-11-30 18:33:07
89,"[{'imgObject': {}, 'id': 'kiwi', 'src': '/static/foodstim60/kiwi.jpg', 'key': 'u', 'origWidth': 410, 'origHeight': 410, 'width': 410, 'height': 410, 'widthPercent': 0.45, 'rescaleHeight': False, 'trialN': 89, 'loaded': True, 'loadedTime': 15820.400000000373, 'positionName': 'LEFT', 'positionCoords': [427.6, 286], 'bid': 8.94}, {'imgObject': {}, 'id': 'sweetpotato', 'src': '/static/foodstim60/sweetpotato.jpg', 'key': 'i', 'origWidth': 410, 'origHeight': 410, 'width': 410, 'height': 410, 'widthPercent': 0.45, 'rescaleHeight': False, 'trialN': 89, 'loaded': True, 'loadedTime': 15007.900000000373, 'positionName': 'RIGHT', 'positionCoords': [907.4, 286], 'bid': 8.42}]",141512.0,1669833063815,kiwi,sweetpotato,8.94,8.42,-0.5199999999999996,kiwi,1037.2000000011176,1040,1039.4000000003725,True,u,143051.90000000037,1539.9000000003725,1669833065355,1540,HRV,HRV_0189,2022-11-30 18:33:07
90,"[{'imgObject': {}, 'id': 'avocado', 'src': '/static/foodstim60/avocado.jpg', 'key': 'u', 'origWidth': 409, 'origHeight': 409, 'width': 409, 'height': 409, 'widthPercent': 0.45, 'rescaleHeight': False, 'trialN': 90, 'loaded': True, 'loadedTime': 15599.200000001118, 'positionName': 'LEFT', 'positionCoords': [428.6, 286.5], 'bid': 9.49}, {'imgObject': {}, 'id': 'cherries', 'src': '/static/foodstim60/cherries.jpg', 'key': 'i', 'origWidth': 410, 'origHeight': 411, 'width': 410, 'height': 411, 'widthPercent': 0.45, 'rescaleHeight': False, 'trialN': 90, 'loaded': True, 'loadedTime': 15758.60000000149, 'positionName': 'RIGHT', 'positionCoords': [907.4, 285.5], 'bid': 9.54}]",145682.5,1669833067986,avocado,cherries,9.49,9.54,0.049999999999998934,avocado,919.5,923,923.2000000011176,True,u,147106.20000000112,1423.7000000011176,1669833069409,1423,HRV,HRV_0189,2022-11-30 18:33:07
91,"[{'imgObject': {}, 'id': 'lox', 'src': '/static/foodstim60/lox.jpg', 'key': 'u', 'origWidth': 410, 'origHeight': 411, 'width': 410, 'height': 411, 'widthPercent': 0.45, 'rescaleHeight': False, 'trialN': 91, 'loaded': True, 'loadedTime': 15322.200000001118, 'positionName': 'LEFT', 'positionCoords': [427.6, 285.5], 'bid': 8.23}, {'imgObject': {}, 'id': 'cantaloupe', 'src': '/static/foodstim60/cantaloupe.jpg', 'key': 'i', 'origWidth': 409, 'origHeight': 409, 'width': 409, 'height': 409, 'widthPercent': 0.45, 'rescaleHeight': False, 'trialN': 91, 'loaded': True, 'loadedTime': 15224.700000001118, 'positionName': 'RIGHT', 'positionCoords': [907.4, 286.5], 'bid': 7.67}]",147106.5,1669833069410,lox,cantaloupe,8.23,7.67,-0.5600000000000005,lox,671.1000000014901,673,673.6000000014901,True,u,148280.70000000112,1174.2000000011176,1669833070584,1174,HRV,HRV_0189,2022-11-30 18:33:07
92,"[{'imgObject': {}, 'id': 'burrito', 'src': '/static/foodstim60/burrito.jpg', 'key': 'u', 'origWidth': 410, 'origHeight': 410, 'width': 410, 'height': 410, 'widthPercent': 0.45, 'rescaleHeight': False, 'trialN': 92, 'loaded': True, 'loadedTime': 15847.10000000149, 'positionName': 'LEFT', 'positionCoords': [427.6, 286], 'bid': 2.07}, {'imgObject': {}, 'id': 'banana', 'src': '/static/foodstim60/banana.jpg', 'key': 'i', 'origWidth': 410, 'origHeight': 410, 'width': 410, 'height': 410, 'widthPercent': 0.45, 'rescaleHeight': False, 'trialN': 92, 'loaded': True, 'loadedTime': 15276.300000000745, 'positionName': 'RIGHT', 'positionCoords': [907.4, 286], 'bid': 9.01}]",148280.90000000037,1669833070584,burrito,banana,2.07,9.01,6.9399999999999995,banana,788.5,791,790.8000000007451,True,i,149572.1000000015,1291.2000000011176,1669833071875,1291,HRV,HRV_0189,2022-11-30 18:33:07
93,"[{'imgObject': {}, 'id': 'ice cream sundae 002', 'src': '/static/foodstim60/ice cream sundae 002.jpg', 'key': 'u', 'origWidth': 409, 'origHeight': 409, 'width': 409, 'height': 409, 'widthPercent': 0.45, 'rescaleHeight': False, 'trialN': 93, 'loaded': True, 'loadedTime': 15099.60000000149, 'positionName': 'LEFT', 'positionCoords': [428.6, 286.5], 'bid': 0.37}, {'imgObject': {}, 'id': 'cocktailshrimp', 'src': '/static/foodstim60/cocktailshrimp.jpg', 'key': 'i', 'origWidth': 410, 'origHeight': 410, 'width': 410, 'height': 410, 'widthPercent': 0.45, 'rescaleHeight': False, 'trialN': 93, 'loaded': True, 'loadedTime': 14992.700000001118, 'positionName': 'RIGHT', 'positionCoords': [907.4, 286], 'bid': 1.78}]",149572.6000000015,1669833071876,ice cream sundae 002,cocktailshrimp,0.37,1.78,1.4100000000000001,cocktailshrimp,794.0,796,796.5999999996275,True,i,150869.6000000015,1297.0,1669833073173,1297,HRV,HRV_0189,2022-11-30 18:33:07
94,"[{'imgObject': {}, 'id': 'blueberries', 'src': '/static/foodstim60/blueberries.jpg', 'key': 'u', 'origWidth': 411, 'origHeight': 411, 'width': 411, 'height': 411, 'widthPercent': 0.45, 'rescaleHeight': False, 'trialN': 94, 'loaded': True, 'loadedTime': 15547.60000000149, 'positionName': 'LEFT', 'positionCoords': [426.6, 285.5], 'bid': 9.6}, {'imgObject': {}, 'id': 'olives', 'src': '/static/foodstim60/olives.jpg', 'key': 'i', 'origWidth': 410, 'origHeight': 410, 'width': 410, 'height': 410, 'widthPercent': 0.45, 'rescaleHeight': False, 'trialN': 94, 'loaded': True, 'loadedTime': 15954.5, 'positionName': 'RIGHT', 'positionCoords': [907.4, 286], 'bid': 9.59}]",150870.1000000015,1669833073173,blueberries,olives,9.6,9.59,-0.009999999999999787,blueberries,808.0999999996275,811,810.7999999988824,True,u,152181.6000000015,1311.5,1669833074485,1312,HRV,HRV_0189,2022-11-30 18:33:07
95,"[{'imgObject': {}, 'id': 'salmon', 'src': '/static/foodstim60/salmon.jpg', 'key': 'u', 'origWidth': 410, 'origHeight': 409, 'width': 410, 'height': 409, 'widthPercent': 0.45, 'rescaleHeight': False, 'trialN': 95, 'loaded': True, 'loadedTime': 15849.5, 'positionName': 'LEFT', 'positionCoords': [427.6, 286.5], 'bid': 9.62}, {'imgObject': {}, 'id': 'olives', 'src': '/static/foodstim60/olives.jpg', 'key': 'i', 'origWidth': 410, 'origHeight': 410, 'width': 410, 'height': 410, 'widthPercent': 0.45, 'rescaleHeight': False, 'trialN': 95, 'loaded': True, 'loadedTime': 15926.800000000745, 'positionName': 'RIGHT', 'positionCoords': [907.4, 286], 'bid': 9.59}]",152181.80000000075,1669833074485,salmon,olives,9.62,9.59,-0.02999999999999936,salmon,693.1999999992549,694,694.3000000007451,True,u,153376.6000000015,1194.800000000745,1669833075680,1195,HRV,HRV_0189,2022-11-30 18:33:07
96,"[{'imgObject': {}, 'id': 'chicken nuggets2', 'src': '/static/foodstim60/chicken nuggets2.jpg', 'key': 'u', 'origWidth': 410, 'origHeight': 409, 'width': 410, 'height': 409, 'widthPercent': 0.45, 'rescaleHeight': False, 'trialN': 96, 'loaded': True, 'loadedTime': 15998.5, 'positionName': 'LEFT', 'positionCoords': [427.6, 286.5], 'bid': 1.1}, {'imgObject': {}, 'id': 'orange slices', 'src': '/static/foodstim60/orange slices.jpg', 'key': 'i', 'origWidth': 409, 'origHeight': 410, 'width': 409, 'height': 410, 'widthPercent': 0.45, 'rescaleHeight': False, 'trialN': 96, 'loaded': True, 'loadedTime': 15601.5, 'positionName': 'RIGHT', 'positionCoords': [907.4, 286], 'bid': 7.56}]",153376.90000000037,1669833075680,chicken nuggets2,orange slices,1.1,7.56,6.459999999999999,orange slices,1242.2000000011176,1244,1244.4000000003725,True,i,155121.90000000037,1745.0,1669833077425,1745,HRV,HRV_0189,2022-11-30 18:33:07
97,"[{'imgObject': {}, 'id': 'salmon', 'src': '/static/foodstim60/salmon.jpg', 'key': 'u', 'origWidth': 410, 'origHeight': 409, 'width': 410, 'height': 409, 'widthPercent': 0.45, 'rescaleHeight': False, 'trialN': 97, 'loaded': True, 'loadedTime': 15871.60000000149, 'positionName': 'LEFT', 'positionCoords': [427.6, 286.5], 'bid': 9.62}, {'imgObject': {}, 'id': 'sweetpotato', 'src': '/static/foodstim60/sweetpotato.jpg', 'key': 'i', 'origWidth': 410, 'origHeight': 410, 'width': 410, 'height': 410, 'widthPercent': 0.45, 'rescaleHeight': False, 'trialN': 97, 'loaded': True, 'loadedTime': 15011.300000000745, 'positionName': 'RIGHT', 'positionCoords': [907.4, 286], 'bid': 8.42}]",155122.20000000112,1669833077425,salmon,sweetpotato,9.62,8.42,-1.1999999999999993,salmon,745.2999999988824,751,750.2999999988824,True,u,156373.20000000112,1251.0,1669833078676,1251,HRV,HRV_0189,2022-11-30 18:33:07
98,"[{'imgObject': {}, 'id': 'corn cob', 'src': '/static/foodstim60/corn cob.jpg', 'key': 'u', 'origWidth': 411, 'origHeight': 411, 'width': 411, 'height': 411, 'widthPercent': 0.45, 'rescaleHeight': False, 'trialN': 98, 'loaded': True, 'loadedTime': 15955.10000000149, 'positionName': 'LEFT', 'positionCoords': [426.6, 285.5], 'bid': 2.25}, {'imgObject': {}, 'id': 'chickenfingers', 'src': '/static/foodstim60/chickenfingers.jpg', 'key': 'i', 'origWidth': 410, 'origHeight': 410, 'width': 410, 'height': 410, 'widthPercent': 0.45, 'rescaleHeight': False, 'trialN': 98, 'loaded': True, 'loadedTime': 15791.5, 'positionName': 'RIGHT', 'positionCoords': [907.4, 286], 'bid': 2.3000000000000003}]",156373.5,1669833078677,corn cob,chickenfingers,2.25,2.3000000000000003,0.050000000000000266,corn cob,936.3000000007451,938,938.5,True,u,157812.6000000015,1439.1000000014901,1669833080116,1439,HRV,HRV_0189,2022-11-30 18:33:07
99,"[{'imgObject': {}, 'id': 'salad w chicken', 'src': '/static/foodstim60/salad w chicken.jpg', 'key': 'u', 'origWidth': 411, 'origHeight': 411, 'width': 411, 'height': 411, 'widthPercent': 0.45, 'rescaleHeight': False, 'trialN': 99, 'loaded': True, 'loadedTime': 15995, 'positionName': 'LEFT', 'positionCoords': [426.6, 285.5], 'bid': 5.21}, {'imgObject': {}, 'id': 'fried eggs', 'src': '/static/foodstim60/fried eggs.jpg', 'key': 'i', 'origWidth': 410, 'origHeight': 410, 'width': 410, 'height': 410, 'widthPercent': 0.45, 'rescaleHeight': False, 'trialN': 99, 'loaded': True, 'loadedTime': 15910.800000000745, 'positionName': 'RIGHT', 'positionCoords': [907.4, 286], 'bid': 9.97}]",157813.1000000015,1669833080116,salad w chicken,fried eggs,5.21,9.97,4.760000000000001,fried eggs,799.5,801,800.7999999988824,True,i,159114.40000000037,1301.2999999988824,1669833081418,1302,HRV,HRV_0189,2022-11-30 18:33:07
100,"[{'imgObject': {}, 'id': 'cherry tomato', 'src': '/static/foodstim60/cherry tomato.jpg', 'key': 'u', 'origWidth': 410, 'origHeight': 410, 'width': 410, 'height': 410, 'widthPercent': 0.45, 'rescaleHeight': False, 'trialN': 100, 'loaded': True, 'loadedTime': 15874.400000000373, 'positionName': 'LEFT', 'positionCoords': [427.6, 286], 'bid': 7.16}, {'imgObject': {}, 'id': 'baked potato', 'src': '/static/foodstim60/baked potato.jpg', 'key': 'i', 'origWidth': 409, 'origHeight': 410, 'width': 409, 'height': 410, 'widthPercent': 0.45, 'rescaleHeight': False, 'trialN': 100, 'loaded': True, 'loadedTime': 15536.400000000373, 'positionName': 'RIGHT', 'positionCoords': [907.4, 286], 'bid': 5.26}]",159114.6000000015,1669833081418,cherry tomato,baked potato,7.16,5.26,-1.9000000000000004,baked potato,902.7999999988824,905,905.5,True,i,160520.80000000075,1406.199999999255,1669833082824,1406,HRV,HRV_0189,2022-11-30 18:33:07
101,"[{'imgObject': {}, 'id': 'rigatoni', 'src': '/static/foodstim60/rigatoni.jpg', 'key': 'u', 'origWidth': 411, 'origHeight': 411, 'width': 411, 'height': 411, 'widthPercent': 0.45, 'rescaleHeight': False, 'trialN': 101, 'loaded': True, 'loadedTime': 15024.10000000149, 'positionName': 'LEFT', 'positionCoords': [426.6, 285.5], 'bid': 0.4}, {'imgObject': {}, 'id': 'hotdog w must', 'src': '/static/foodstim60/hotdog w must.jpg', 'key': 'i', 'origWidth': 409, 'origHeight': 409, 'width': 409, 'height': 409, 'widthPercent': 0.45, 'rescaleHeight': False, 'trialN': 101, 'loaded': True, 'loadedTime': 14996.800000000745, 'positionName': 'RIGHT', 'positionCoords': [907.4, 286.5], 'bid': 2.33}]",160521.20000000112,1669833082824,rigatoni,hotdog w must,0.4,2.33,1.9300000000000002,rigatoni,809.5,812,811.5999999996275,True,u,161833.30000000075,1312.0999999996275,1669833084137,1313,HRV,HRV_0189,2022-11-30 18:33:07
102,"[{'imgObject': {}, 'id': 'mango', 'src': '/static/foodstim60/mango.jpg', 'key': 'u', 'origWidth': 411, 'origHeight': 411, 'width': 411, 'height': 411, 'widthPercent': 0.45, 'rescaleHeight': False, 'trialN': 102, 'loaded': True, 'loadedTime': 15457.200000001118, 'positionName': 'LEFT', 'positionCoords': [426.6, 285.5], 'bid': 6.67}, {'imgObject': {}, 'id': 'lox', 'src': '/static/foodstim60/lox.jpg', 'key': 'i', 'origWidth': 410, 'origHeight': 411, 'width': 410, 'height': 411, 'widthPercent': 0.45, 'rescaleHeight': False, 'trialN': 102, 'loaded': True, 'loadedTime': 15361.800000000745, 'positionName': 'RIGHT', 'positionCoords': [907.4, 285.5], 'bid': 8.23}]",161833.6000000015,1669833084137,mango,lox,6.67,8.23,1.5600000000000005,lox,869.8999999985099,872,871.8999999985099,True,i,163205.90000000037,1372.2999999988824,1669833085509,1372,HRV,HRV_0189,2022-11-30 18:33:07
103,"[{'imgObject': {}, 'id': 'bagel and cc', 'src': '/static/foodstim60/bagel and cc.jpg', 'key': 'u', 'origWidth': 410, 'origHeight': 410, 'width': 410, 'height': 410, 'widthPercent': 0.45, 'rescaleHeight': False, 'trialN': 103, 'loaded': True, 'loadedTime': 15130.800000000745, 'positionName': 'LEFT', 'positionCoords': [427.6, 286], 'bid': 0.3}, {'imgObject': {}, 'id': 'luckycharms', 'src': '/static/foodstim60/luckycharms.jpg', 'key': 'i', 'origWidth': 410, 'origHeight': 409, 'width': 410, 'height': 409, 'widthPercent': 0.45, 'rescaleHeight': False, 'trialN': 103, 'loaded': True, 'loadedTime': 15959.400000000373, 'positionName': 'RIGHT', 'positionCoords': [907.4, 286.5], 'bid': 0.05}]",163206.1000000015,1669833085509,bagel and cc,luckycharms,0.3,0.05,-0.25,bagel and cc,683.8999999985099,687,686.2999999988824,True,u,164392.90000000037,1186.7999999988824,1669833086696,1187,HRV,HRV_0189,2022-11-30 18:33:07
104,"[{'imgObject': {}, 'id': 'popsicles', 'src': '/static/foodstim60/popsicles.jpg', 'key': 'u', 'origWidth': 410, 'origHeight': 410, 'width': 410, 'height': 410, 'widthPercent': 0.45, 'rescaleHeight': False, 'trialN': 104, 'loaded': True, 'loadedTime': 15986.700000001118, 'positionName': 'LEFT', 'positionCoords': [427.6, 286], 'bid': 0.15}, {'imgObject': {}, 'id': 'apple slices', 'src': '/static/foodstim60/apple slices.jpg', 'key': 'i', 'origWidth': 409, 'origHeight': 410, 'width': 409, 'height': 410, 'widthPercent': 0.45, 'rescaleHeight': False, 'trialN': 104, 'loaded': True, 'loadedTime': 15681.900000000373, 'positionName': 'RIGHT', 'positionCoords': [907.4, 286], 'bid': 5.7700000000000005}]",164393.1000000015,1669833086696,popsicles,apple slices,0.15,5.7700000000000005,5.62,apple slices,1127.699999999255,1131,1130.2999999988824,True,i,166023.90000000037,1630.7999999988824,1669833088327,1631,HRV,HRV_0189,2022-11-30 18:33:07
105,"[{'imgObject': {}, 'id': 'cherries', 'src': '/static/foodstim60/cherries.jpg', 'key': 'u', 'origWidth': 410, 'origHeight': 411, 'width': 410, 'height': 411, 'widthPercent': 0.45, 'rescaleHeight': False, 'trialN': 105, 'loaded': True, 'loadedTime': 15759.5, 'positionName': 'LEFT', 'positionCoords': [427.6, 285.5], 'bid': 9.54}, {'imgObject': {}, 'id': 'cantaloupe', 'src': '/static/foodstim60/cantaloupe.jpg', 'key': 'i', 'origWidth': 409, 'origHeight': 409, 'width': 409, 'height': 409, 'widthPercent': 0.45, 'rescaleHeight': False, 'trialN': 105, 'loaded': True, 'loadedTime': 15186.10000000149, 'positionName': 'RIGHT', 'positionCoords': [907.4, 286.5], 'bid': 7.67}]",166024.20000000112,1669833088327,cherries,cantaloupe,9.54,7.67,-1.8699999999999992,cherries,778.6999999992549,782,781.4000000003725,True,u,167306.0,1281.7999999988824,1669833089609,1282,HRV,HRV_0189,2022-11-30 18:33:07
106,"[{'imgObject': {}, 'id': 'raspberries', 'src': '/static/foodstim60/raspberries.jpg', 'key': 'u', 'origWidth': 411, 'origHeight': 411, 'width': 411, 'height': 411, 'widthPercent': 0.45, 'rescaleHeight': False, 'trialN': 106, 'loaded': True, 'loadedTime': 15733.400000000373, 'positionName': 'LEFT', 'positionCoords': [426.6, 285.5], 'bid': 9.77}, {'imgObject': {}, 'id': 'cantaloupe', 'src': '/static/foodstim60/cantaloupe.jpg', 'key': 'i', 'origWidth': 409, 'origHeight': 409, 'width': 409, 'height': 409, 'widthPercent': 0.45, 'rescaleHeight': False, 'trialN': 106, 'loaded': True, 'loadedTime': 15224.300000000745, 'positionName': 'RIGHT', 'positionCoords': [907.4, 286.5], 'bid': 7.67}]",167306.30000000075,1669833089609,raspberries,cantaloupe,9.77,7.67,-2.0999999999999996,raspberries,753.0999999996275,756,755.9000000003725,True,u,168562.70000000112,1256.4000000003725,1669833090866,1257,HRV,HRV_0189,2022-11-30 18:33:07
107,"[{'imgObject': {}, 'id': 'seaweed', 'src': '/static/foodstim60/seaweed.jpg', 'key': 'u', 'origWidth': 410, 'origHeight': 410, 'width': 410, 'height': 410, 'widthPercent': 0.45, 'rescaleHeight': False, 'trialN': 107, 'loaded': True, 'loadedTime': 15485.300000000745, 'positionName': 'LEFT', 'positionCoords': [427.6, 286], 'bid': 6.57}, {'imgObject': {}, 'id': 'raisin bran w milk', 'src': '/static/foodstim60/raisin bran w milk.jpg', 'key': 'i', 'origWidth': 411, 'origHeight': 411, 'width': 411, 'height': 411, 'widthPercent': 0.45, 'rescaleHeight': False, 'trialN': 107, 'loaded': True, 'loadedTime': 15428, 'positionName': 'RIGHT', 'positionCoords': [907.4, 285.5], 'bid': 0.52}]",168563.0,1669833090866,seaweed,raisin bran w milk,6.57,0.52,-6.050000000000001,seaweed,863.7000000011176,866,866.1000000014901,True,u,169929.5,1366.5,1669833092233,1367,HRV,HRV_0189,2022-11-30 18:33:07
108,"[{'imgObject': {}, 'id': 'cherries', 'src': '/static/foodstim60/cherries.jpg', 'key': 'u', 'origWidth': 410, 'origHeight': 411, 'width': 410, 'height': 411, 'widthPercent': 0.45, 'rescaleHeight': False, 'trialN': 108, 'loaded': True, 'loadedTime': 15759.400000000373, 'positionName': 'LEFT', 'positionCoords': [427.6, 285.5], 'bid': 9.54}, {'imgObject': {}, 'id': 'rigatoni and sauce', 'src': '/static/foodstim60/rigatoni and sauce.jpg', 'key': 'i', 'origWidth': 410, 'origHeight': 411, 'width': 410, 'height': 411, 'widthPercent': 0.45, 'rescaleHeight': False, 'trialN': 108, 'loaded': True, 'loadedTime': 15657.800000000745, 'positionName': 'RIGHT', 'positionCoords': [907.4, 285.5], 'bid': 2.46}]",169929.80000000075,1669833092233,cherries,rigatoni and sauce,9.54,2.46,-7.079999999999999,cherries,1110.9000000003725,1113,1113.300000000745,True,u,171543.70000000112,1613.9000000003725,1669833093847,1614,HRV,HRV_0189,2022-11-30 18:33:07
