trialN,stimuli,trialStartTime,trialStartTime_UNIX,stimulus1,stimulus2,stimulus1Bid,stimulus2Bid,delta,selected,rt,rt_UNIX,rt_perfnow,receivedResponse,rsp,trialEndTime,trialDuration,trialEndTime_UNIX,trialDuration_UNIX,exp,subjectId,date
0,"[{'imgObject': {}, 'id': 'omelette', 'src': '/static/foodstim60/omelette.jpg', 'key': 'u', 'origWidth': 410, 'origHeight': 409, 'width': 410, 'height': 409, 'widthPercent': 0.45, 'rescaleHeight': False, 'trialN': 0, 'loaded': True, 'loadedTime': 4962.5, 'positionName': 'LEFT', 'positionCoords': [142.96, 227.5], 'bid': 3.66}, {'imgObject': {}, 'id': 'hotdog w must', 'src': '/static/foodstim60/hotdog w must.jpg', 'key': 'i', 'origWidth': 409, 'origHeight': 409, 'width': 409, 'height': 409, 'widthPercent': 0.45, 'rescaleHeight': False, 'trialN': 0, 'loaded': True, 'loadedTime': 5006.200000286102, 'positionName': 'RIGHT', 'positionCoords': [599.04, 227.5], 'bid': 7.69}]",5662.0,1669843044437,omelette,hotdog w must,3.66,7.69,4.03,hotdog w must,1233.5,1235,1235.1000003814697,True,i,7399.5,1737.5,1669843046174,1737,HRV,HRV_0306,2022-11-30 21:24:14
1,"[{'imgObject': {}, 'id': 'corn cob', 'src': '/static/foodstim60/corn cob.jpg', 'key': 'u', 'origWidth': 411, 'origHeight': 411, 'width': 411, 'height': 411, 'widthPercent': 0.45, 'rescaleHeight': False, 'trialN': 1, 'loaded': True, 'loadedTime': 5044.60000038147, 'positionName': 'LEFT', 'positionCoords': [141.96, 226.5], 'bid': 7.74}, {'imgObject': {}, 'id': 'eggs', 'src': '/static/foodstim60/eggs.jpg', 'key': 'i', 'origWidth': 409, 'origHeight': 409, 'width': 409, 'height': 409, 'widthPercent': 0.45, 'rescaleHeight': False, 'trialN': 1, 'loaded': True, 'loadedTime': 5056.800000190735, 'positionName': 'RIGHT', 'positionCoords': [599.04, 227.5], 'bid': 8.64}]",7400.0,1669843046175,corn cob,eggs,7.74,8.64,0.9000000000000004,corn cob,1583.4000000953674,1584,1584.0,True,u,9488.60000038147,2088.6000003814697,1669843048264,2089,HRV,HRV_0306,2022-11-30 21:24:14
2,"[{'imgObject': {}, 'id': 'orange slices', 'src': '/static/foodstim60/orange slices.jpg', 'key': 'u', 'origWidth': 409, 'origHeight': 410, 'width': 409, 'height': 410, 'widthPercent': 0.45, 'rescaleHeight': False, 'trialN': 2, 'loaded': True, 'loadedTime': 5085.400000095367, 'positionName': 'LEFT', 'positionCoords': [143.96, 227], 'bid': 1.04}, {'imgObject': {}, 'id': 'mashed potato', 'src': '/static/foodstim60/mashed potato.jpg', 'key': 'i', 'origWidth': 409, 'origHeight': 409, 'width': 409, 'height': 409, 'widthPercent': 0.45, 'rescaleHeight': False, 'trialN': 2, 'loaded': True, 'loadedTime': 5026.5, 'positionName': 'RIGHT', 'positionCoords': [599.04, 227.5], 'bid': 1.51}]",9488.900000095367,1669843048264,orange slices,mashed potato,1.04,1.51,0.47,mashed potato,1199,1199,1199.5,True,i,11198.5,1709.5999999046326,1669843049973,1709,HRV,HRV_0306,2022-11-30 21:24:14
3,"[{'imgObject': {}, 'id': 'salad w chicken', 'src': '/static/foodstim60/salad w chicken.jpg', 'key': 'u', 'origWidth': 411, 'origHeight': 411, 'width': 411, 'height': 411, 'widthPercent': 0.45, 'rescaleHeight': False, 'trialN': 3, 'loaded': True, 'loadedTime': 5105.10000038147, 'positionName': 'LEFT', 'positionCoords': [141.96, 226.5], 'bid': 5.43}, {'imgObject': {}, 'id': 'olives', 'src': '/static/foodstim60/olives.jpg', 'key': 'i', 'origWidth': 410, 'origHeight': 410, 'width': 410, 'height': 410, 'widthPercent': 0.45, 'rescaleHeight': False, 'trialN': 3, 'loaded': True, 'loadedTime': 5130.60000038147, 'positionName': 'RIGHT', 'positionCoords': [599.04, 227], 'bid': 6.09}]",11198.700000286102,1669843049974,salad w chicken,olives,5.43,6.09,0.6600000000000001,salad w chicken,936.7999997138977,937,937.1999998092651,True,u,12645.400000095367,1446.6999998092651,1669843051420,1446,HRV,HRV_0306,2022-11-30 21:24:14
4,"[{'imgObject': {}, 'id': 'roastedpotatoes', 'src': '/static/foodstim60/roastedpotatoes.jpg', 'key': 'u', 'origWidth': 409, 'origHeight': 410, 'width': 409, 'height': 410, 'widthPercent': 0.45, 'rescaleHeight': False, 'trialN': 4, 'loaded': True, 'loadedTime': 5148.5, 'positionName': 'LEFT', 'positionCoords': [143.96, 227], 'bid': 2.2}, {'imgObject': {}, 'id': 'grilled chicken strips', 'src': '/static/foodstim60/grilled chicken strips.jpg', 'key': 'i', 'origWidth': 410, 'origHeight': 411, 'width': 410, 'height': 411, 'widthPercent': 0.45, 'rescaleHeight': False, 'trialN': 4, 'loaded': True, 'loadedTime': 5162, 'positionName': 'RIGHT', 'positionCoords': [599.04, 226.5], 'bid': 9.84}]",12645.700000286102,1669843051421,roastedpotatoes,grilled chicken strips,2.2,9.84,7.64,grilled chicken strips,1409.5999999046326,1410,1410.0999999046326,True,i,14565.800000190735,1920.0999999046326,1669843053341,1920,HRV,HRV_0306,2022-11-30 21:24:14
5,"[{'imgObject': {}, 'id': 'sweetpotato', 'src': '/static/foodstim60/sweetpotato.jpg', 'key': 'u', 'origWidth': 410, 'origHeight': 410, 'width': 410, 'height': 410, 'widthPercent': 0.45, 'rescaleHeight': False, 'trialN': 5, 'loaded': True, 'loadedTime': 5202.60000038147, 'positionName': 'LEFT', 'positionCoords': [142.96, 227], 'bid': 2.13}, {'imgObject': {}, 'id': 'steak', 'src': '/static/foodstim60/steak.jpg', 'key': 'i', 'origWidth': 410, 'origHeight': 410, 'width': 410, 'height': 410, 'widthPercent': 0.45, 'rescaleHeight': False, 'trialN': 5, 'loaded': True, 'loadedTime': 5208.10000038147, 'positionName': 'RIGHT', 'positionCoords': [599.04, 227], 'bid': 9.72}]",14566.10000038147,1669843053341,sweetpotato,steak,2.13,9.72,7.590000000000001,steak,1041.0999999046326,1042,1041.5999999046326,True,i,16111.700000286102,1545.5999999046326,1669843054887,1546,HRV,HRV_0306,2022-11-30 21:24:14
6,"[{'imgObject': {}, 'id': 'bagel plain', 'src': '/static/foodstim60/bagel plain.jpg', 'key': 'u', 'origWidth': 410, 'origHeight': 410, 'width': 410, 'height': 410, 'widthPercent': 0.45, 'rescaleHeight': False, 'trialN': 6, 'loaded': True, 'loadedTime': 5214.900000095367, 'positionName': 'LEFT', 'positionCoords': [142.96, 227], 'bid': 2.08}, {'imgObject': {}, 'id': 'rigatoni and sauce', 'src': '/static/foodstim60/rigatoni and sauce.jpg', 'key': 'i', 'origWidth': 410, 'origHeight': 411, 'width': 410, 'height': 411, 'widthPercent': 0.45, 'rescaleHeight': False, 'trialN': 6, 'loaded': True, 'loadedTime': 5237, 'positionName': 'RIGHT', 'positionCoords': [599.04, 226.5], 'bid': 9.68}]",16112.10000038147,1669843054887,bagel plain,rigatoni and sauce,2.08,9.68,7.6,rigatoni and sauce,1263.1999998092651,1264,1263.6999998092651,True,i,17887.900000095367,1775.7999997138977,1669843056663,1776,HRV,HRV_0306,2022-11-30 21:24:14
7,"[{'imgObject': {}, 'id': 'edamame', 'src': '/static/foodstim60/edamame.jpg', 'key': 'u', 'origWidth': 409, 'origHeight': 410, 'width': 409, 'height': 410, 'widthPercent': 0.45, 'rescaleHeight': False, 'trialN': 7, 'loaded': True, 'loadedTime': 5246.400000095367, 'positionName': 'LEFT', 'positionCoords': [143.96, 227], 'bid': 1.71}, {'imgObject': {}, 'id': 'bagel and cc', 'src': '/static/foodstim60/bagel and cc.jpg', 'key': 'i', 'origWidth': 410, 'origHeight': 410, 'width': 410, 'height': 410, 'widthPercent': 0.45, 'rescaleHeight': False, 'trialN': 7, 'loaded': True, 'loadedTime': 5268.700000286102, 'positionName': 'RIGHT', 'positionCoords': [599.04, 227], 'bid': 1.12}]",17888.200000286102,1669843056663,edamame,bagel and cc,1.71,1.12,-0.5899999999999999,bagel and cc,1966.9000000953674,1968,1967.4000000953674,True,i,20365.10000038147,2476.9000000953674,1669843059140,2477,HRV,HRV_0306,2022-11-30 21:24:14
8,"[{'imgObject': {}, 'id': 'hashbrowns', 'src': '/static/foodstim60/hashbrowns.jpg', 'key': 'u', 'origWidth': 411, 'origHeight': 410, 'width': 411, 'height': 410, 'widthPercent': 0.45, 'rescaleHeight': False, 'trialN': 8, 'loaded': True, 'loadedTime': 5268.900000095367, 'positionName': 'LEFT', 'positionCoords': [141.96, 227], 'bid': 2.44}, {'imgObject': {}, 'id': 'yogurt no spoon', 'src': '/static/foodstim60/yogurt no spoon.jpg', 'key': 'i', 'origWidth': 411, 'origHeight': 410, 'width': 411, 'height': 410, 'widthPercent': 0.45, 'rescaleHeight': False, 'trialN': 8, 'loaded': True, 'loadedTime': 5290.10000038147, 'positionName': 'RIGHT', 'positionCoords': [599.04, 227], 'bid': 1.61}]",20365.5,1669843059140,hashbrowns,yogurt no spoon,2.44,1.61,-0.8299999999999998,hashbrowns,1810,1811,1810.5,True,u,22685.10000038147,2319.6000003814697,1669843061460,2320,HRV,HRV_0306,2022-11-30 21:24:14
9,"[{'imgObject': {}, 'id': 'burger', 'src': '/static/foodstim60/burger.jpg', 'key': 'u', 'origWidth': 409, 'origHeight': 409, 'width': 409, 'height': 409, 'widthPercent': 0.45, 'rescaleHeight': False, 'trialN': 9, 'loaded': True, 'loadedTime': 5303.10000038147, 'positionName': 'LEFT', 'positionCoords': [143.96, 227.5], 'bid': 9.94}, {'imgObject': {}, 'id': 'turkeysandwich', 'src': '/static/foodstim60/turkeysandwich.jpg', 'key': 'i', 'origWidth': 409, 'origHeight': 409, 'width': 409, 'height': 409, 'widthPercent': 0.45, 'rescaleHeight': False, 'trialN': 9, 'loaded': True, 'loadedTime': 5322.900000095367, 'positionName': 'RIGHT', 'positionCoords': [599.04, 227.5], 'bid': 9.42}]",22685.400000095367,1669843061460,burger,turkeysandwich,9.94,9.42,-0.5199999999999996,burger,1801.5,1802,1802.0,True,u,24994.400000095367,2309.0,1669843063769,2309,HRV,HRV_0306,2022-11-30 21:24:14
10,"[{'imgObject': {}, 'id': 'apple slices', 'src': '/static/foodstim60/apple slices.jpg', 'key': 'u', 'origWidth': 409, 'origHeight': 410, 'width': 409, 'height': 410, 'widthPercent': 0.45, 'rescaleHeight': False, 'trialN': 10, 'loaded': True, 'loadedTime': 5327.400000095367, 'positionName': 'LEFT', 'positionCoords': [143.96, 227], 'bid': 1.09}, {'imgObject': {}, 'id': 'sushi w_condiments', 'src': '/static/foodstim60/sushi w_condiments.jpg', 'key': 'i', 'origWidth': 410, 'origHeight': 410, 'width': 410, 'height': 410, 'widthPercent': 0.45, 'rescaleHeight': False, 'trialN': 10, 'loaded': True, 'loadedTime': 5342.300000190735, 'positionName': 'RIGHT', 'positionCoords': [599.04, 227], 'bid': 0.92}]",24994.60000038147,1669843063770,apple slices,sushi w_condiments,1.09,0.92,-0.17000000000000004,sushi w_condiments,1916.1999998092651,1916,1916.5,True,i,27416.200000286102,2421.5999999046326,1669843066191,2421,HRV,HRV_0306,2022-11-30 21:24:14
11,"[{'imgObject': {}, 'id': 'mac & cheese', 'src': '/static/foodstim60/mac & cheese.jpg', 'key': 'u', 'origWidth': 410, 'origHeight': 410, 'width': 410, 'height': 410, 'widthPercent': 0.45, 'rescaleHeight': False, 'trialN': 11, 'loaded': True, 'loadedTime': 5351.10000038147, 'positionName': 'LEFT', 'positionCoords': [142.96, 227], 'bid': 5.36}, {'imgObject': {}, 'id': 'salmon', 'src': '/static/foodstim60/salmon.jpg', 'key': 'i', 'origWidth': 410, 'origHeight': 409, 'width': 410, 'height': 409, 'widthPercent': 0.45, 'rescaleHeight': False, 'trialN': 11, 'loaded': True, 'loadedTime': 5377.200000286102, 'positionName': 'RIGHT', 'positionCoords': [599.04, 227.5], 'bid': 9.63}]",27416.400000095367,1669843066191,mac & cheese,salmon,5.36,9.63,4.2700000000000005,salmon,1414.4000000953674,1416,1415.3000001907349,True,i,29340.900000095367,1924.5,1669843068116,1925,HRV,HRV_0306,2022-11-30 21:24:14
12,"[{'imgObject': {}, 'id': 'cantaloupe', 'src': '/static/foodstim60/cantaloupe.jpg', 'key': 'u', 'origWidth': 409, 'origHeight': 409, 'width': 409, 'height': 409, 'widthPercent': 0.45, 'rescaleHeight': False, 'trialN': 12, 'loaded': True, 'loadedTime': 5381, 'positionName': 'LEFT', 'positionCoords': [143.96, 227.5], 'bid': 0.31}, {'imgObject': {}, 'id': 'burrito', 'src': '/static/foodstim60/burrito.jpg', 'key': 'i', 'origWidth': 410, 'origHeight': 410, 'width': 410, 'height': 410, 'widthPercent': 0.45, 'rescaleHeight': False, 'trialN': 12, 'loaded': True, 'loadedTime': 5390.700000286102, 'positionName': 'RIGHT', 'positionCoords': [599.04, 227], 'bid': 5}]",29341.200000286102,1669843068116,cantaloupe,burrito,0.31,5.0,4.69,burrito,1505.6999998092651,1507,1506.4000000953674,True,i,31362.10000038147,2020.9000000953674,1669843070137,2021,HRV,HRV_0306,2022-11-30 21:24:14
13,"[{'imgObject': {}, 'id': 'sweetpotato', 'src': '/static/foodstim60/sweetpotato.jpg', 'key': 'u', 'origWidth': 410, 'origHeight': 410, 'width': 410, 'height': 410, 'widthPercent': 0.45, 'rescaleHeight': False, 'trialN': 13, 'loaded': True, 'loadedTime': 5170.800000190735, 'positionName': 'LEFT', 'positionCoords': [142.96, 227], 'bid': 2.13}, {'imgObject': {}, 'id': 'cheerios', 'src': '/static/foodstim60/cheerios.jpg', 'key': 'i', 'origWidth': 409, 'origHeight': 410, 'width': 409, 'height': 410, 'widthPercent': 0.45, 'rescaleHeight': False, 'trialN': 13, 'loaded': True, 'loadedTime': 5397.200000286102, 'positionName': 'RIGHT', 'positionCoords': [599.04, 227], 'bid': 1.9}]",31362.5,1669843070137,sweetpotato,cheerios,2.13,1.9,-0.22999999999999998,cheerios,2124.6000003814697,2126,2125.1000003814697,True,i,33994.0,2631.5,1669843072769,2632,HRV,HRV_0306,2022-11-30 21:24:14
14,"[{'imgObject': {}, 'id': 'salmon', 'src': '/static/foodstim60/salmon.jpg', 'key': 'u', 'origWidth': 410, 'origHeight': 409, 'width': 410, 'height': 409, 'widthPercent': 0.45, 'rescaleHeight': False, 'trialN': 14, 'loaded': True, 'loadedTime': 5358.10000038147, 'positionName': 'LEFT', 'positionCoords': [142.96, 227.5], 'bid': 9.63}, {'imgObject': {}, 'id': 'cheerios', 'src': '/static/foodstim60/cheerios.jpg', 'key': 'i', 'origWidth': 409, 'origHeight': 410, 'width': 409, 'height': 410, 'widthPercent': 0.45, 'rescaleHeight': False, 'trialN': 14, 'loaded': True, 'loadedTime': 5400.700000286102, 'positionName': 'RIGHT', 'positionCoords': [599.04, 227], 'bid': 1.9}]",33994.300000190735,1669843072769,salmon,cheerios,9.63,1.9,-7.73,salmon,1220.4000000953674,1221,1220.9000000953674,True,u,35733.7000002861,1739.4000000953674,1669843074509,1740,HRV,HRV_0306,2022-11-30 21:24:14
15,"[{'imgObject': {}, 'id': 'rigatoni and sauce', 'src': '/static/foodstim60/rigatoni and sauce.jpg', 'key': 'u', 'origWidth': 410, 'origHeight': 411, 'width': 410, 'height': 411, 'widthPercent': 0.45, 'rescaleHeight': False, 'trialN': 15, 'loaded': True, 'loadedTime': 5236.700000286102, 'positionName': 'LEFT', 'positionCoords': [142.96, 226.5], 'bid': 9.68}, {'imgObject': {}, 'id': 'grilled chicken strips', 'src': '/static/foodstim60/grilled chicken strips.jpg', 'key': 'i', 'origWidth': 410, 'origHeight': 411, 'width': 410, 'height': 411, 'widthPercent': 0.45, 'rescaleHeight': False, 'trialN': 15, 'loaded': True, 'loadedTime': 5166.60000038147, 'positionName': 'RIGHT', 'positionCoords': [599.04, 226.5], 'bid': 9.84}]",35734.10000038147,1669843074509,rigatoni and sauce,grilled chicken strips,9.68,9.84,0.16000000000000014,grilled chicken strips,1336.5,1337,1337.0999999046326,True,i,37581.800000190735,1847.6999998092651,1669843076357,1848,HRV,HRV_0306,2022-11-30 21:24:14
16,"[{'imgObject': {}, 'id': 'granola w milk', 'src': '/static/foodstim60/granola w milk.jpg', 'key': 'u', 'origWidth': 410, 'origHeight': 410, 'width': 410, 'height': 410, 'widthPercent': 0.45, 'rescaleHeight': False, 'trialN': 16, 'loaded': True, 'loadedTime': 5412.60000038147, 'positionName': 'LEFT', 'positionCoords': [142.96, 227], 'bid': 0.72}, {'imgObject': {}, 'id': 'seaweed', 'src': '/static/foodstim60/seaweed.jpg', 'key': 'i', 'origWidth': 410, 'origHeight': 410, 'width': 410, 'height': 410, 'widthPercent': 0.45, 'rescaleHeight': False, 'trialN': 16, 'loaded': True, 'loadedTime': 5429.5, 'positionName': 'RIGHT', 'positionCoords': [599.04, 227], 'bid': 0.22}]",37581.90000009537,1669843076357,granola w milk,seaweed,0.72,0.22,-0.5,granola w milk,1808.7000002861023,1809,1809.2000002861023,True,u,39904.90000009537,2323.0,1669843078680,2323,HRV,HRV_0306,2022-11-30 21:24:14
17,"[{'imgObject': {}, 'id': 'hotdog w must', 'src': '/static/foodstim60/hotdog w must.jpg', 'key': 'u', 'origWidth': 409, 'origHeight': 409, 'width': 409, 'height': 409, 'widthPercent': 0.45, 'rescaleHeight': False, 'trialN': 17, 'loaded': True, 'loadedTime': 5000.5, 'positionName': 'LEFT', 'positionCoords': [143.96, 227.5], 'bid': 7.69}, {'imgObject': {}, 'id': 'salad w chicken', 'src': '/static/foodstim60/salad w chicken.jpg', 'key': 'i', 'origWidth': 411, 'origHeight': 411, 'width': 411, 'height': 411, 'widthPercent': 0.45, 'rescaleHeight': False, 'trialN': 17, 'loaded': True, 'loadedTime': 5101.60000038147, 'positionName': 'RIGHT', 'positionCoords': [599.04, 226.5], 'bid': 5.43}]",39905.300000190735,1669843078680,hotdog w must,salad w chicken,7.69,5.43,-2.2600000000000007,hotdog w must,1637.1999998092651,1638,1637.9000000953674,True,u,42060.40000009537,2155.0999999046326,1669843080835,2155,HRV,HRV_0306,2022-11-30 21:24:14
18,"[{'imgObject': {}, 'id': 'mango', 'src': '/static/foodstim60/mango.jpg', 'key': 'u', 'origWidth': 411, 'origHeight': 411, 'width': 411, 'height': 411, 'widthPercent': 0.45, 'rescaleHeight': False, 'trialN': 18, 'loaded': True, 'loadedTime': 5445.200000286102, 'positionName': 'LEFT', 'positionCoords': [141.96, 226.5], 'bid': 0.5}, {'imgObject': {}, 'id': 'luckycharms', 'src': '/static/foodstim60/luckycharms.jpg', 'key': 'i', 'origWidth': 410, 'origHeight': 409, 'width': 410, 'height': 409, 'widthPercent': 0.45, 'rescaleHeight': False, 'trialN': 18, 'loaded': True, 'loadedTime': 5453.900000095367, 'positionName': 'RIGHT', 'positionCoords': [599.04, 227.5], 'bid': 0.06}]",42060.7000002861,1669843080836,mango,luckycharms,0.5,0.06,-0.44,mango,2066.0999999046326,2066,2066.5999999046326,True,u,44630.90000009537,2570.199999809265,1669843083406,2570,HRV,HRV_0306,2022-11-30 21:24:14
19,"[{'imgObject': {}, 'id': 'burrito', 'src': '/static/foodstim60/burrito.jpg', 'key': 'u', 'origWidth': 410, 'origHeight': 410, 'width': 410, 'height': 410, 'widthPercent': 0.45, 'rescaleHeight': False, 'trialN': 19, 'loaded': True, 'loadedTime': 5387.5, 'positionName': 'LEFT', 'positionCoords': [142.96, 227], 'bid': 5}, {'imgObject': {}, 'id': 'lox', 'src': '/static/foodstim60/lox.jpg', 'key': 'i', 'origWidth': 410, 'origHeight': 411, 'width': 410, 'height': 411, 'widthPercent': 0.45, 'rescaleHeight': False, 'trialN': 19, 'loaded': True, 'loadedTime': 5460.10000038147, 'positionName': 'RIGHT', 'positionCoords': [599.04, 226.5], 'bid': 2.25}]",44631.10000038147,1669843083406,burrito,lox,5.0,2.25,-2.75,burrito,1391.2999997138977,1392,1391.8999996185303,True,u,46540.5,1909.3999996185303,1669843085315,1909,HRV,HRV_0306,2022-11-30 21:24:14
20,"[{'imgObject': {}, 'id': 'burger', 'src': '/static/foodstim60/burger.jpg', 'key': 'u', 'origWidth': 409, 'origHeight': 409, 'width': 409, 'height': 409, 'widthPercent': 0.45, 'rescaleHeight': False, 'trialN': 20, 'loaded': True, 'loadedTime': 5298.200000286102, 'positionName': 'LEFT', 'positionCoords': [143.96, 227.5], 'bid': 9.94}, {'imgObject': {}, 'id': 'grilled chicken strips', 'src': '/static/foodstim60/grilled chicken strips.jpg', 'key': 'i', 'origWidth': 410, 'origHeight': 411, 'width': 410, 'height': 411, 'widthPercent': 0.45, 'rescaleHeight': False, 'trialN': 20, 'loaded': True, 'loadedTime': 5157.10000038147, 'positionName': 'RIGHT', 'positionCoords': [599.04, 226.5], 'bid': 9.84}]",46540.800000190735,1669843085316,burger,grilled chicken strips,9.94,9.84,-0.09999999999999964,grilled chicken strips,1201.5999999046326,1202,1202.1999998092651,True,i,48246.0,1705.1999998092651,1669843087021,1705,HRV,HRV_0306,2022-11-30 21:24:14
21,"[{'imgObject': {}, 'id': 'turkeysandwich', 'src': '/static/foodstim60/turkeysandwich.jpg', 'key': 'u', 'origWidth': 409, 'origHeight': 409, 'width': 409, 'height': 409, 'widthPercent': 0.45, 'rescaleHeight': False, 'trialN': 21, 'loaded': True, 'loadedTime': 5323.10000038147, 'positionName': 'LEFT', 'positionCoords': [143.96, 227.5], 'bid': 9.42}, {'imgObject': {}, 'id': 'salmon', 'src': '/static/foodstim60/salmon.jpg', 'key': 'i', 'origWidth': 410, 'origHeight': 409, 'width': 410, 'height': 409, 'widthPercent': 0.45, 'rescaleHeight': False, 'trialN': 21, 'loaded': True, 'loadedTime': 5372, 'positionName': 'RIGHT', 'positionCoords': [599.04, 227.5], 'bid': 9.63}]",48246.300000190735,1669843087021,turkeysandwich,salmon,9.42,9.63,0.21000000000000085,salmon,1496,1497,1496.6999998092651,True,i,50260.300000190735,2014.0,1669843089035,2014,HRV,HRV_0306,2022-11-30 21:24:14
22,"[{'imgObject': {}, 'id': 'Tribe humus pita', 'src': '/static/foodstim60/Tribe humus pita.jpg', 'key': 'u', 'origWidth': 411, 'origHeight': 411, 'width': 411, 'height': 411, 'widthPercent': 0.45, 'rescaleHeight': False, 'trialN': 22, 'loaded': True, 'loadedTime': 5471.10000038147, 'positionName': 'LEFT', 'positionCoords': [141.96, 226.5], 'bid': 5.64}, {'imgObject': {}, 'id': 'kiwi', 'src': '/static/foodstim60/kiwi.jpg', 'key': 'i', 'origWidth': 410, 'origHeight': 410, 'width': 410, 'height': 410, 'widthPercent': 0.45, 'rescaleHeight': False, 'trialN': 22, 'loaded': True, 'loadedTime': 5488.10000038147, 'positionName': 'RIGHT', 'positionCoords': [599.04, 227], 'bid': 0.92}]",50260.60000038147,1669843089035,Tribe humus pita,kiwi,5.64,0.92,-4.72,Tribe humus pita,1577.6999998092651,1579,1578.0999999046326,True,u,52353.7000002861,2093.0999999046326,1669843091129,2094,HRV,HRV_0306,2022-11-30 21:24:14
23,"[{'imgObject': {}, 'id': 'cocktailshrimp', 'src': '/static/foodstim60/cocktailshrimp.jpg', 'key': 'u', 'origWidth': 410, 'origHeight': 410, 'width': 410, 'height': 410, 'widthPercent': 0.45, 'rescaleHeight': False, 'trialN': 23, 'loaded': True, 'loadedTime': 5496.700000286102, 'positionName': 'LEFT', 'positionCoords': [142.96, 227], 'bid': 6.9}, {'imgObject': {}, 'id': 'apple slices', 'src': '/static/foodstim60/apple slices.jpg', 'key': 'i', 'origWidth': 409, 'origHeight': 410, 'width': 409, 'height': 410, 'widthPercent': 0.45, 'rescaleHeight': False, 'trialN': 23, 'loaded': True, 'loadedTime': 5330.800000190735, 'positionName': 'RIGHT', 'positionCoords': [599.04, 227], 'bid': 1.09}]",52353.90000009537,1669843091129,cocktailshrimp,apple slices,6.9,1.09,-5.8100000000000005,cocktailshrimp,1052.3000001907349,1053,1052.8000001907349,True,u,53922.300000190735,1568.4000000953674,1669843092697,1568,HRV,HRV_0306,2022-11-30 21:24:14
24,"[{'imgObject': {}, 'id': 'blueberries', 'src': '/static/foodstim60/blueberries.jpg', 'key': 'u', 'origWidth': 411, 'origHeight': 411, 'width': 411, 'height': 411, 'widthPercent': 0.45, 'rescaleHeight': False, 'trialN': 24, 'loaded': True, 'loadedTime': 5499, 'positionName': 'LEFT', 'positionCoords': [141.96, 226.5], 'bid': 0.52}, {'imgObject': {}, 'id': 'cantaloupe', 'src': '/static/foodstim60/cantaloupe.jpg', 'key': 'i', 'origWidth': 409, 'origHeight': 409, 'width': 409, 'height': 409, 'widthPercent': 0.45, 'rescaleHeight': False, 'trialN': 24, 'loaded': True, 'loadedTime': 5377.5, 'positionName': 'RIGHT', 'positionCoords': [599.04, 227.5], 'bid': 0.31}]",53922.5,1669843092697,blueberries,cantaloupe,0.52,0.31,-0.21000000000000002,cantaloupe,2268,2270,2268.5,True,i,56697.300000190735,2774.800000190735,1669843095473,2776,HRV,HRV_0306,2022-11-30 21:24:14
25,"[{'imgObject': {}, 'id': 'roastedpotatoes', 'src': '/static/foodstim60/roastedpotatoes.jpg', 'key': 'u', 'origWidth': 409, 'origHeight': 410, 'width': 409, 'height': 410, 'widthPercent': 0.45, 'rescaleHeight': False, 'trialN': 25, 'loaded': True, 'loadedTime': 5154.200000286102, 'positionName': 'LEFT', 'positionCoords': [143.96, 227], 'bid': 2.2}, {'imgObject': {}, 'id': 'ice cream sundae 002', 'src': '/static/foodstim60/ice cream sundae 002.jpg', 'key': 'i', 'origWidth': 409, 'origHeight': 409, 'width': 409, 'height': 409, 'widthPercent': 0.45, 'rescaleHeight': False, 'trialN': 25, 'loaded': True, 'loadedTime': 5509.10000038147, 'positionName': 'RIGHT', 'positionCoords': [599.04, 227.5], 'bid': 2.41}]",56697.60000038147,1669843095474,roastedpotatoes,ice cream sundae 002,2.2,2.41,0.20999999999999996,roastedpotatoes,1364.5,1365,1365.0999999046326,True,u,58577.60000038147,1880.0,1669843097353,1879,HRV,HRV_0306,2022-11-30 21:24:14
26,"[{'imgObject': {}, 'id': 'bagel plain', 'src': '/static/foodstim60/bagel plain.jpg', 'key': 'u', 'origWidth': 410, 'origHeight': 410, 'width': 410, 'height': 410, 'widthPercent': 0.45, 'rescaleHeight': False, 'trialN': 26, 'loaded': True, 'loadedTime': 5218.700000286102, 'positionName': 'LEFT', 'positionCoords': [142.96, 227], 'bid': 2.08}, {'imgObject': {}, 'id': 'eggsalad', 'src': '/static/foodstim60/eggsalad.jpg', 'key': 'i', 'origWidth': 410, 'origHeight': 409, 'width': 410, 'height': 409, 'widthPercent': 0.45, 'rescaleHeight': False, 'trialN': 26, 'loaded': True, 'loadedTime': 5519.60000038147, 'positionName': 'RIGHT', 'positionCoords': [599.04, 227.5], 'bid': 5}]",58577.90000009537,1669843097354,bagel plain,eggsalad,2.08,5.0,2.92,bagel plain,2332,2333,2333.300000190735,True,u,61415.7000002861,2837.800000190735,1669843100192,2838,HRV,HRV_0306,2022-11-30 21:24:14
27,"[{'imgObject': {}, 'id': 'cheerios', 'src': '/static/foodstim60/cheerios.jpg', 'key': 'u', 'origWidth': 409, 'origHeight': 410, 'width': 409, 'height': 410, 'widthPercent': 0.45, 'rescaleHeight': False, 'trialN': 27, 'loaded': True, 'loadedTime': 5401.60000038147, 'positionName': 'LEFT', 'positionCoords': [143.96, 227], 'bid': 1.9}, {'imgObject': {}, 'id': 'cherry tomato', 'src': '/static/foodstim60/cherry tomato.jpg', 'key': 'i', 'origWidth': 410, 'origHeight': 410, 'width': 410, 'height': 410, 'widthPercent': 0.45, 'rescaleHeight': False, 'trialN': 27, 'loaded': True, 'loadedTime': 5525.60000038147, 'positionName': 'RIGHT', 'positionCoords': [599.04, 227], 'bid': 1.8}]",61416.0,1669843100192,cheerios,cherry tomato,1.9,1.8,-0.09999999999999987,cherry tomato,1725.9000000953674,1726,1726.5,True,i,63657.10000038147,2241.1000003814697,1669843102433,2241,HRV,HRV_0306,2022-11-30 21:24:14
28,"[{'imgObject': {}, 'id': 'turkey sandwich', 'src': '/static/foodstim60/turkey sandwich.jpg', 'key': 'u', 'origWidth': 409, 'origHeight': 409, 'width': 409, 'height': 409, 'widthPercent': 0.45, 'rescaleHeight': False, 'trialN': 28, 'loaded': True, 'loadedTime': 5532, 'positionName': 'LEFT', 'positionCoords': [143.96, 227.5], 'bid': 6.38}, {'imgObject': {}, 'id': 'burger', 'src': '/static/foodstim60/burger.jpg', 'key': 'i', 'origWidth': 409, 'origHeight': 409, 'width': 409, 'height': 409, 'widthPercent': 0.45, 'rescaleHeight': False, 'trialN': 28, 'loaded': True, 'loadedTime': 5298.900000095367, 'positionName': 'RIGHT', 'positionCoords': [599.04, 227.5], 'bid': 9.94}]",63657.40000009537,1669843102433,turkey sandwich,burger,6.38,9.94,3.5599999999999996,burger,1284.3000001907349,1286,1285.2000002861023,True,i,65446.90000009537,1789.5,1669843104223,1790,HRV,HRV_0306,2022-11-30 21:24:14
29,"[{'imgObject': {}, 'id': 'omelette', 'src': '/static/foodstim60/omelette.jpg', 'key': 'u', 'origWidth': 410, 'origHeight': 409, 'width': 410, 'height': 409, 'widthPercent': 0.45, 'rescaleHeight': False, 'trialN': 29, 'loaded': True, 'loadedTime': 4983.10000038147, 'positionName': 'LEFT', 'positionCoords': [142.96, 227.5], 'bid': 3.66}, {'imgObject': {}, 'id': 'edamame', 'src': '/static/foodstim60/edamame.jpg', 'key': 'i', 'origWidth': 409, 'origHeight': 410, 'width': 409, 'height': 410, 'widthPercent': 0.45, 'rescaleHeight': False, 'trialN': 29, 'loaded': True, 'loadedTime': 5252.10000038147, 'positionName': 'RIGHT', 'positionCoords': [599.04, 227], 'bid': 1.71}]",65447.10000038147,1669843104223,omelette,edamame,3.66,1.71,-1.9500000000000002,omelette,2071.0999999046326,2072,2071.699999809265,True,u,68028.60000038147,2581.5,1669843106805,2582,HRV,HRV_0306,2022-11-30 21:24:14
30,"[{'imgObject': {}, 'id': 'olives', 'src': '/static/foodstim60/olives.jpg', 'key': 'u', 'origWidth': 410, 'origHeight': 410, 'width': 410, 'height': 410, 'widthPercent': 0.45, 'rescaleHeight': False, 'trialN': 30, 'loaded': True, 'loadedTime': 5134, 'positionName': 'LEFT', 'positionCoords': [142.96, 227], 'bid': 6.09}, {'imgObject': {}, 'id': 'grilled chicken strips', 'src': '/static/foodstim60/grilled chicken strips.jpg', 'key': 'i', 'origWidth': 410, 'origHeight': 411, 'width': 410, 'height': 411, 'widthPercent': 0.45, 'rescaleHeight': False, 'trialN': 30, 'loaded': True, 'loadedTime': 5165.800000190735, 'positionName': 'RIGHT', 'positionCoords': [599.04, 226.5], 'bid': 9.84}]",68028.90000009537,1669843106805,olives,grilled chicken strips,6.09,9.84,3.75,grilled chicken strips,1048.9000000953674,1049,1049.3000001907349,True,i,69589.10000038147,1560.2000002861023,1669843108365,1560,HRV,HRV_0306,2022-11-30 21:24:14
31,"[{'imgObject': {}, 'id': 'turkeysandwich', 'src': '/static/foodstim60/turkeysandwich.jpg', 'key': 'u', 'origWidth': 409, 'origHeight': 409, 'width': 409, 'height': 409, 'widthPercent': 0.45, 'rescaleHeight': False, 'trialN': 31, 'loaded': True, 'loadedTime': 5327.10000038147, 'positionName': 'LEFT', 'positionCoords': [143.96, 227.5], 'bid': 9.42}, {'imgObject': {}, 'id': 'olives', 'src': '/static/foodstim60/olives.jpg', 'key': 'i', 'origWidth': 410, 'origHeight': 410, 'width': 410, 'height': 410, 'widthPercent': 0.45, 'rescaleHeight': False, 'trialN': 31, 'loaded': True, 'loadedTime': 5122.10000038147, 'positionName': 'RIGHT', 'positionCoords': [599.04, 227], 'bid': 6.09}]",69589.40000009537,1669843108365,turkeysandwich,olives,9.42,6.09,-3.33,turkeysandwich,1056.3000001907349,1057,1056.8000001907349,True,u,71152.30000019073,1562.9000000953674,1669843109928,1563,HRV,HRV_0306,2022-11-30 21:24:14
32,"[{'imgObject': {}, 'id': 'sweetpotato', 'src': '/static/foodstim60/sweetpotato.jpg', 'key': 'u', 'origWidth': 410, 'origHeight': 410, 'width': 410, 'height': 410, 'widthPercent': 0.45, 'rescaleHeight': False, 'trialN': 32, 'loaded': True, 'loadedTime': 5199.5, 'positionName': 'LEFT', 'positionCoords': [142.96, 227], 'bid': 2.13}, {'imgObject': {}, 'id': 'baked potato', 'src': '/static/foodstim60/baked potato.jpg', 'key': 'i', 'origWidth': 409, 'origHeight': 410, 'width': 409, 'height': 410, 'widthPercent': 0.45, 'rescaleHeight': False, 'trialN': 32, 'loaded': True, 'loadedTime': 5553.200000286102, 'positionName': 'RIGHT', 'positionCoords': [599.04, 227], 'bid': 5.01}]",71152.7000002861,1669843109929,sweetpotato,baked potato,2.13,5.01,2.88,baked potato,1444.9000000953674,1445,1445.4000000953674,True,i,73117.10000038147,1964.4000000953674,1669843111893,1964,HRV,HRV_0306,2022-11-30 21:24:14
33,"[{'imgObject': {}, 'id': 'tacos', 'src': '/static/foodstim60/tacos.jpg', 'key': 'u', 'origWidth': 411, 'origHeight': 411, 'width': 411, 'height': 411, 'widthPercent': 0.45, 'rescaleHeight': False, 'trialN': 33, 'loaded': True, 'loadedTime': 5553.60000038147, 'positionName': 'LEFT', 'positionCoords': [141.96, 226.5], 'bid': 9.51}, {'imgObject': {}, 'id': 'turkey sandwich', 'src': '/static/foodstim60/turkey sandwich.jpg', 'key': 'i', 'origWidth': 409, 'origHeight': 409, 'width': 409, 'height': 409, 'widthPercent': 0.45, 'rescaleHeight': False, 'trialN': 33, 'loaded': True, 'loadedTime': 5532.60000038147, 'positionName': 'RIGHT', 'positionCoords': [599.04, 227.5], 'bid': 6.38}]",73117.40000009537,1669843111893,tacos,turkey sandwich,9.51,6.38,-3.13,tacos,1552.2000002861023,1553,1552.7000002861023,True,u,75176.30000019073,2058.9000000953674,1669843113952,2059,HRV,HRV_0306,2022-11-30 21:24:14
34,"[{'imgObject': {}, 'id': 'fried eggs', 'src': '/static/foodstim60/fried eggs.jpg', 'key': 'u', 'origWidth': 410, 'origHeight': 410, 'width': 410, 'height': 410, 'widthPercent': 0.45, 'rescaleHeight': False, 'trialN': 34, 'loaded': True, 'loadedTime': 5566.400000095367, 'positionName': 'LEFT', 'positionCoords': [142.96, 227], 'bid': 8.38}, {'imgObject': {}, 'id': 'rigatoni', 'src': '/static/foodstim60/rigatoni.jpg', 'key': 'i', 'origWidth': 411, 'origHeight': 411, 'width': 411, 'height': 411, 'widthPercent': 0.45, 'rescaleHeight': False, 'trialN': 34, 'loaded': True, 'loadedTime': 5572.60000038147, 'positionName': 'RIGHT', 'positionCoords': [599.04, 226.5], 'bid': 4.94}]",75176.60000038147,1669843113952,fried eggs,rigatoni,8.38,4.94,-3.4400000000000004,fried eggs,2172.8999996185303,2174,2173.3999996185303,True,u,77854.40000009537,2677.7999997138977,1669843116630,2678,HRV,HRV_0306,2022-11-30 21:24:14
35,"[{'imgObject': {}, 'id': 'kiwi', 'src': '/static/foodstim60/kiwi.jpg', 'key': 'u', 'origWidth': 410, 'origHeight': 410, 'width': 410, 'height': 410, 'widthPercent': 0.45, 'rescaleHeight': False, 'trialN': 35, 'loaded': True, 'loadedTime': 5484.10000038147, 'positionName': 'LEFT', 'positionCoords': [142.96, 227], 'bid': 0.92}, {'imgObject': {}, 'id': 'Grapes', 'src': '/static/foodstim60/Grapes.jpg', 'key': 'i', 'origWidth': 411, 'origHeight': 411, 'width': 411, 'height': 411, 'widthPercent': 0.45, 'rescaleHeight': False, 'trialN': 35, 'loaded': True, 'loadedTime': 5576.900000095367, 'positionName': 'RIGHT', 'positionCoords': [599.04, 226.5], 'bid': 1.21}]",77854.60000038147,1669843116631,kiwi,Grapes,0.92,1.21,0.2899999999999999,Grapes,2591.199999809265,2591,2591.699999809265,True,i,80950.7000002861,3096.0999999046326,1669843119727,3096,HRV,HRV_0306,2022-11-30 21:24:14
36,"[{'imgObject': {}, 'id': 'turkey sandwich', 'src': '/static/foodstim60/turkey sandwich.jpg', 'key': 'u', 'origWidth': 409, 'origHeight': 409, 'width': 409, 'height': 409, 'widthPercent': 0.45, 'rescaleHeight': False, 'trialN': 36, 'loaded': True, 'loadedTime': 5530.10000038147, 'positionName': 'LEFT', 'positionCoords': [143.96, 227.5], 'bid': 6.38}, {'imgObject': {}, 'id': 'blackbeanswithrice', 'src': '/static/foodstim60/blackbeanswithrice.jpg', 'key': 'i', 'origWidth': 410, 'origHeight': 410, 'width': 410, 'height': 410, 'widthPercent': 0.45, 'rescaleHeight': False, 'trialN': 36, 'loaded': True, 'loadedTime': 5582.200000286102, 'positionName': 'RIGHT', 'positionCoords': [599.04, 227], 'bid': 7.67}]",80950.80000019073,1669843119727,turkey sandwich,blackbeanswithrice,6.38,7.67,1.29,blackbeanswithrice,1726.5,1727,1727.1999998092651,True,i,83193.7000002861,2242.9000000953674,1669843121970,2243,HRV,HRV_0306,2022-11-30 21:24:14
37,"[{'imgObject': {}, 'id': 'cherries', 'src': '/static/foodstim60/cherries.jpg', 'key': 'u', 'origWidth': 410, 'origHeight': 411, 'width': 410, 'height': 411, 'widthPercent': 0.45, 'rescaleHeight': False, 'trialN': 37, 'loaded': True, 'loadedTime': 5582.700000286102, 'positionName': 'LEFT', 'positionCoords': [142.96, 226.5], 'bid': 0.74}, {'imgObject': {}, 'id': 'shreddedwheatwithmilk', 'src': '/static/foodstim60/shreddedwheatwithmilk.jpg', 'key': 'i', 'origWidth': 410, 'origHeight': 410, 'width': 410, 'height': 410, 'widthPercent': 0.45, 'rescaleHeight': False, 'trialN': 37, 'loaded': True, 'loadedTime': 5595.900000095367, 'positionName': 'RIGHT', 'positionCoords': [599.04, 227], 'bid': 0.52}]",83194.10000038147,1669843121970,cherries,shreddedwheatwithmilk,0.74,0.52,-0.21999999999999997,shreddedwheatwithmilk,2675.0999999046326,2676,2675.5999999046326,True,i,86376.0,3181.8999996185303,1669843125152,3182,HRV,HRV_0306,2022-11-30 21:24:14
38,"[{'imgObject': {}, 'id': 'strawberries', 'src': '/static/foodstim60/strawberries.jpg', 'key': 'u', 'origWidth': 410, 'origHeight': 410, 'width': 410, 'height': 410, 'widthPercent': 0.45, 'rescaleHeight': False, 'trialN': 38, 'loaded': True, 'loadedTime': 5619.900000095367, 'positionName': 'LEFT', 'positionCoords': [142.96, 227], 'bid': 1.14}, {'imgObject': {}, 'id': 'blueberries', 'src': '/static/foodstim60/blueberries.jpg', 'key': 'i', 'origWidth': 411, 'origHeight': 411, 'width': 411, 'height': 411, 'widthPercent': 0.45, 'rescaleHeight': False, 'trialN': 38, 'loaded': True, 'loadedTime': 5500.5, 'positionName': 'RIGHT', 'positionCoords': [599.04, 226.5], 'bid': 0.52}]",86376.40000009537,1669843125152,strawberries,blueberries,1.14,0.52,-0.6199999999999999,strawberries,1884.8000001907349,1886,1885.3000001907349,True,u,88777.10000038147,2400.7000002861023,1669843127553,2401,HRV,HRV_0306,2022-11-30 21:24:14
39,"[{'imgObject': {}, 'id': 'banana', 'src': '/static/foodstim60/banana.jpg', 'key': 'u', 'origWidth': 410, 'origHeight': 410, 'width': 410, 'height': 410, 'widthPercent': 0.45, 'rescaleHeight': False, 'trialN': 39, 'loaded': True, 'loadedTime': 5621.700000286102, 'positionName': 'LEFT', 'positionCoords': [142.96, 227], 'bid': 5.01}, {'imgObject': {}, 'id': 'eggsalad', 'src': '/static/foodstim60/eggsalad.jpg', 'key': 'i', 'origWidth': 410, 'origHeight': 409, 'width': 410, 'height': 409, 'widthPercent': 0.45, 'rescaleHeight': False, 'trialN': 39, 'loaded': True, 'loadedTime': 5515.700000286102, 'positionName': 'RIGHT', 'positionCoords': [599.04, 227.5], 'bid': 5}]",88777.30000019073,1669843127553,banana,eggsalad,5.01,5.0,-0.009999999999999787,banana,2836.199999809265,2837,2836.699999809265,True,u,92122.7000002861,3345.4000000953674,1669843130899,3346,HRV,HRV_0306,2022-11-30 21:24:14
40,"[{'imgObject': {}, 'id': 'seaweed', 'src': '/static/foodstim60/seaweed.jpg', 'key': 'u', 'origWidth': 410, 'origHeight': 410, 'width': 410, 'height': 410, 'widthPercent': 0.45, 'rescaleHeight': False, 'trialN': 40, 'loaded': True, 'loadedTime': 5431.400000095367, 'positionName': 'LEFT', 'positionCoords': [142.96, 227], 'bid': 0.22}, {'imgObject': {}, 'id': 'veggieswithdip', 'src': '/static/foodstim60/veggieswithdip.jpg', 'key': 'i', 'origWidth': 409, 'origHeight': 409, 'width': 409, 'height': 409, 'widthPercent': 0.45, 'rescaleHeight': False, 'trialN': 40, 'loaded': True, 'loadedTime': 5628.60000038147, 'positionName': 'RIGHT', 'positionCoords': [599.04, 227.5], 'bid': 4.54}]",92122.80000019073,1669843130899,seaweed,veggieswithdip,0.22,4.54,4.32,veggieswithdip,970.1999998092651,970,970.5999999046326,True,i,93600.30000019073,1477.5,1669843132376,1477,HRV,HRV_0306,2022-11-30 21:24:14
41,"[{'imgObject': {}, 'id': 'froot loops w milk', 'src': '/static/foodstim60/froot loops w milk.jpg', 'key': 'u', 'origWidth': 410, 'origHeight': 410, 'width': 410, 'height': 410, 'widthPercent': 0.45, 'rescaleHeight': False, 'trialN': 41, 'loaded': True, 'loadedTime': 5631.60000038147, 'positionName': 'LEFT', 'positionCoords': [142.96, 227], 'bid': 0.15}, {'imgObject': {}, 'id': 'kiwi', 'src': '/static/foodstim60/kiwi.jpg', 'key': 'i', 'origWidth': 410, 'origHeight': 410, 'width': 410, 'height': 410, 'widthPercent': 0.45, 'rescaleHeight': False, 'trialN': 41, 'loaded': True, 'loadedTime': 5488.900000095367, 'positionName': 'RIGHT', 'positionCoords': [599.04, 227], 'bid': 0.92}]",93600.60000038147,1669843132376,froot loops w milk,kiwi,0.15,0.92,0.77,kiwi,2060.3999996185303,2062,2061.0,True,i,96180.5,2579.8999996185303,1669843134956,2580,HRV,HRV_0306,2022-11-30 21:24:14
42,"[{'imgObject': {}, 'id': 'bagel plain', 'src': '/static/foodstim60/bagel plain.jpg', 'key': 'u', 'origWidth': 410, 'origHeight': 410, 'width': 410, 'height': 410, 'widthPercent': 0.45, 'rescaleHeight': False, 'trialN': 42, 'loaded': True, 'loadedTime': 5222.800000190735, 'positionName': 'LEFT', 'positionCoords': [142.96, 227], 'bid': 2.08}, {'imgObject': {}, 'id': 'sweetpotato', 'src': '/static/foodstim60/sweetpotato.jpg', 'key': 'i', 'origWidth': 410, 'origHeight': 410, 'width': 410, 'height': 410, 'widthPercent': 0.45, 'rescaleHeight': False, 'trialN': 42, 'loaded': True, 'loadedTime': 5178.60000038147, 'positionName': 'RIGHT', 'positionCoords': [599.04, 227], 'bid': 2.13}]",96180.7000002861,1669843134957,bagel plain,sweetpotato,2.08,2.13,0.04999999999999982,bagel plain,1560.2999997138977,1561,1561.0,True,u,98256.80000019073,2076.0999999046326,1669843137033,2076,HRV,HRV_0306,2022-11-30 21:24:14
43,"[{'imgObject': {}, 'id': 'granola w milk', 'src': '/static/foodstim60/granola w milk.jpg', 'key': 'u', 'origWidth': 410, 'origHeight': 410, 'width': 410, 'height': 410, 'widthPercent': 0.45, 'rescaleHeight': False, 'trialN': 43, 'loaded': True, 'loadedTime': 5408.700000286102, 'positionName': 'LEFT', 'positionCoords': [142.96, 227], 'bid': 0.72}, {'imgObject': {}, 'id': 'avocado', 'src': '/static/foodstim60/avocado.jpg', 'key': 'i', 'origWidth': 409, 'origHeight': 409, 'width': 409, 'height': 409, 'widthPercent': 0.45, 'rescaleHeight': False, 'trialN': 43, 'loaded': True, 'loadedTime': 5634.60000038147, 'positionName': 'RIGHT', 'positionCoords': [599.04, 227.5], 'bid': 5.2700000000000005}]",98257.10000038147,1669843137033,granola w milk,avocado,0.72,5.2700000000000005,4.550000000000001,avocado,1043.7999997138977,1044,1044.1999998092651,True,i,99811.80000019073,1554.6999998092651,1669843138588,1555,HRV,HRV_0306,2022-11-30 21:24:14
44,"[{'imgObject': {}, 'id': 'seaweed', 'src': '/static/foodstim60/seaweed.jpg', 'key': 'u', 'origWidth': 410, 'origHeight': 410, 'width': 410, 'height': 410, 'widthPercent': 0.45, 'rescaleHeight': False, 'trialN': 44, 'loaded': True, 'loadedTime': 5438.200000286102, 'positionName': 'LEFT', 'positionCoords': [142.96, 227], 'bid': 0.22}, {'imgObject': {}, 'id': 'Grapes', 'src': '/static/foodstim60/Grapes.jpg', 'key': 'i', 'origWidth': 411, 'origHeight': 411, 'width': 411, 'height': 411, 'widthPercent': 0.45, 'rescaleHeight': False, 'trialN': 44, 'loaded': True, 'loadedTime': 5579.200000286102, 'positionName': 'RIGHT', 'positionCoords': [599.04, 226.5], 'bid': 1.21}]",99812.10000038147,1669843138588,seaweed,Grapes,0.22,1.21,0.99,Grapes,1112.6999998092651,1114,1113.5999999046326,True,i,101445.7000002861,1633.5999999046326,1669843140222,1634,HRV,HRV_0306,2022-11-30 21:24:14
45,"[{'imgObject': {}, 'id': 'Tribe humus pita', 'src': '/static/foodstim60/Tribe humus pita.jpg', 'key': 'u', 'origWidth': 411, 'origHeight': 411, 'width': 411, 'height': 411, 'widthPercent': 0.45, 'rescaleHeight': False, 'trialN': 45, 'loaded': True, 'loadedTime': 5466.5, 'positionName': 'LEFT', 'positionCoords': [141.96, 226.5], 'bid': 5.64}, {'imgObject': {}, 'id': 'eggsalad', 'src': '/static/foodstim60/eggsalad.jpg', 'key': 'i', 'origWidth': 410, 'origHeight': 409, 'width': 410, 'height': 409, 'widthPercent': 0.45, 'rescaleHeight': False, 'trialN': 45, 'loaded': True, 'loadedTime': 5519.900000095367, 'positionName': 'RIGHT', 'positionCoords': [599.04, 227.5], 'bid': 5}]",101445.90000009537,1669843140222,Tribe humus pita,eggsalad,5.64,5.0,-0.6399999999999997,Tribe humus pita,1735.3000001907349,1736,1735.9000000953674,True,u,103686.40000009537,2240.5,1669843142462,2240,HRV,HRV_0306,2022-11-30 21:24:14
46,"[{'imgObject': {}, 'id': 'turkey sandwich', 'src': '/static/foodstim60/turkey sandwich.jpg', 'key': 'u', 'origWidth': 409, 'origHeight': 409, 'width': 409, 'height': 409, 'widthPercent': 0.45, 'rescaleHeight': False, 'trialN': 46, 'loaded': True, 'loadedTime': 5529.700000286102, 'positionName': 'LEFT', 'positionCoords': [143.96, 227.5], 'bid': 6.38}, {'imgObject': {}, 'id': 'cocktailshrimp', 'src': '/static/foodstim60/cocktailshrimp.jpg', 'key': 'i', 'origWidth': 410, 'origHeight': 410, 'width': 410, 'height': 410, 'widthPercent': 0.45, 'rescaleHeight': False, 'trialN': 46, 'loaded': True, 'loadedTime': 5497.10000038147, 'positionName': 'RIGHT', 'positionCoords': [599.04, 227], 'bid': 6.9}]",103686.60000038147,1669843142463,turkey sandwich,cocktailshrimp,6.38,6.9,0.5200000000000005,turkey sandwich,2670,2670,2670.5999999046326,True,u,106871.90000009537,3185.2999997138977,1669843145648,3185,HRV,HRV_0306,2022-11-30 21:24:14
47,"[{'imgObject': {}, 'id': 'blueberries', 'src': '/static/foodstim60/blueberries.jpg', 'key': 'u', 'origWidth': 411, 'origHeight': 411, 'width': 411, 'height': 411, 'widthPercent': 0.45, 'rescaleHeight': False, 'trialN': 47, 'loaded': True, 'loadedTime': 5506.60000038147, 'positionName': 'LEFT', 'positionCoords': [141.96, 226.5], 'bid': 0.52}, {'imgObject': {}, 'id': 'edamame', 'src': '/static/foodstim60/edamame.jpg', 'key': 'i', 'origWidth': 409, 'origHeight': 410, 'width': 409, 'height': 410, 'widthPercent': 0.45, 'rescaleHeight': False, 'trialN': 47, 'loaded': True, 'loadedTime': 5254.700000286102, 'positionName': 'RIGHT', 'positionCoords': [599.04, 227], 'bid': 1.71}]",106872.10000038147,1669843145648,blueberries,edamame,0.52,1.71,1.19,edamame,1228.5999999046326,1229,1229.1999998092651,True,i,108618.5,1746.3999996185303,1669843147394,1746,HRV,HRV_0306,2022-11-30 21:24:14
48,"[{'imgObject': {}, 'id': 'hashbrowns', 'src': '/static/foodstim60/hashbrowns.jpg', 'key': 'u', 'origWidth': 411, 'origHeight': 410, 'width': 411, 'height': 410, 'widthPercent': 0.45, 'rescaleHeight': False, 'trialN': 48, 'loaded': True, 'loadedTime': 5274.300000190735, 'positionName': 'LEFT', 'positionCoords': [141.96, 227], 'bid': 2.44}, {'imgObject': {}, 'id': 'popsicles', 'src': '/static/foodstim60/popsicles.jpg', 'key': 'i', 'origWidth': 410, 'origHeight': 410, 'width': 410, 'height': 410, 'widthPercent': 0.45, 'rescaleHeight': False, 'trialN': 48, 'loaded': True, 'loadedTime': 5637.200000286102, 'positionName': 'RIGHT', 'positionCoords': [599.04, 227], 'bid': 0.08}]",108618.60000038147,1669843147395,hashbrowns,popsicles,2.44,0.08,-2.36,hashbrowns,1137.8999996185303,1138,1138.3999996185303,True,u,110272.2000002861,1653.5999999046326,1669843149048,1653,HRV,HRV_0306,2022-11-30 21:24:14
49,"[{'imgObject': {}, 'id': 'orange slices', 'src': '/static/foodstim60/orange slices.jpg', 'key': 'u', 'origWidth': 409, 'origHeight': 410, 'width': 409, 'height': 410, 'widthPercent': 0.45, 'rescaleHeight': False, 'trialN': 49, 'loaded': True, 'loadedTime': 5086, 'positionName': 'LEFT', 'positionCoords': [143.96, 227], 'bid': 1.04}, {'imgObject': {}, 'id': 'raisin bran w milk', 'src': '/static/foodstim60/raisin bran w milk.jpg', 'key': 'i', 'origWidth': 411, 'origHeight': 411, 'width': 411, 'height': 411, 'widthPercent': 0.45, 'rescaleHeight': False, 'trialN': 49, 'loaded': True, 'loadedTime': 5644.700000286102, 'positionName': 'RIGHT', 'positionCoords': [599.04, 226.5], 'bid': 0.24}]",110272.40000009537,1669843149048,orange slices,raisin bran w milk,1.04,0.24,-0.8,raisin bran w milk,1684.0999999046326,1685,1684.7000002861023,True,i,112469.2000002861,2196.800000190735,1669843151245,2197,HRV,HRV_0306,2022-11-30 21:24:14
50,"[{'imgObject': {}, 'id': 'roastedpotatoes', 'src': '/static/foodstim60/roastedpotatoes.jpg', 'key': 'u', 'origWidth': 409, 'origHeight': 410, 'width': 409, 'height': 410, 'widthPercent': 0.45, 'rescaleHeight': False, 'trialN': 50, 'loaded': True, 'loadedTime': 5145.300000190735, 'positionName': 'LEFT', 'positionCoords': [143.96, 227], 'bid': 2.2}, {'imgObject': {}, 'id': 'banana', 'src': '/static/foodstim60/banana.jpg', 'key': 'i', 'origWidth': 410, 'origHeight': 410, 'width': 410, 'height': 410, 'widthPercent': 0.45, 'rescaleHeight': False, 'trialN': 50, 'loaded': True, 'loadedTime': 5620.300000190735, 'positionName': 'RIGHT', 'positionCoords': [599.04, 227], 'bid': 5.01}]",112469.5,1669843151245,roastedpotatoes,banana,2.2,5.01,2.8099999999999996,banana,3495.300000190735,3496,3495.9000000953674,True,i,116484.5,4015.0,1669843155262,4017,HRV,HRV_0306,2022-11-30 21:24:14
51,"[{'imgObject': {}, 'id': 'olives', 'src': '/static/foodstim60/olives.jpg', 'key': 'u', 'origWidth': 410, 'origHeight': 410, 'width': 410, 'height': 410, 'widthPercent': 0.45, 'rescaleHeight': False, 'trialN': 51, 'loaded': True, 'loadedTime': 5127.900000095367, 'positionName': 'LEFT', 'positionCoords': [142.96, 227], 'bid': 6.09}, {'imgObject': {}, 'id': 'Tribe humus pita', 'src': '/static/foodstim60/Tribe humus pita.jpg', 'key': 'i', 'origWidth': 411, 'origHeight': 411, 'width': 411, 'height': 411, 'widthPercent': 0.45, 'rescaleHeight': False, 'trialN': 51, 'loaded': True, 'loadedTime': 5470.5, 'positionName': 'RIGHT', 'positionCoords': [599.04, 226.5], 'bid': 5.64}]",116484.7000002861,1669843155263,olives,Tribe humus pita,6.09,5.64,-0.4500000000000002,Tribe humus pita,911.6999998092651,912,912.2999997138977,True,i,117904.60000038147,1419.9000000953674,1669843156682,1419,HRV,HRV_0306,2022-11-30 21:24:14
52,"[{'imgObject': {}, 'id': 'blackbeanswithrice', 'src': '/static/foodstim60/blackbeanswithrice.jpg', 'key': 'u', 'origWidth': 410, 'origHeight': 410, 'width': 410, 'height': 410, 'widthPercent': 0.45, 'rescaleHeight': False, 'trialN': 52, 'loaded': True, 'loadedTime': 5581.60000038147, 'positionName': 'LEFT', 'positionCoords': [142.96, 227], 'bid': 7.67}, {'imgObject': {}, 'id': 'bagel and cc', 'src': '/static/foodstim60/bagel and cc.jpg', 'key': 'i', 'origWidth': 410, 'origHeight': 410, 'width': 410, 'height': 410, 'widthPercent': 0.45, 'rescaleHeight': False, 'trialN': 52, 'loaded': True, 'loadedTime': 5262.10000038147, 'positionName': 'RIGHT', 'positionCoords': [599.04, 227], 'bid': 1.12}]",117904.80000019073,1669843156683,blackbeanswithrice,bagel and cc,7.67,1.12,-6.55,blackbeanswithrice,1611.5,1612,1612.0,True,u,120022.5,2117.699999809265,1669843158800,2117,HRV,HRV_0306,2022-11-30 21:24:14
53,"[{'imgObject': {}, 'id': 'tacos', 'src': '/static/foodstim60/tacos.jpg', 'key': 'u', 'origWidth': 411, 'origHeight': 411, 'width': 411, 'height': 411, 'widthPercent': 0.45, 'rescaleHeight': False, 'trialN': 53, 'loaded': True, 'loadedTime': 5557.800000190735, 'positionName': 'LEFT', 'positionCoords': [141.96, 226.5], 'bid': 9.51}, {'imgObject': {}, 'id': 'avocado', 'src': '/static/foodstim60/avocado.jpg', 'key': 'i', 'origWidth': 409, 'origHeight': 409, 'width': 409, 'height': 409, 'widthPercent': 0.45, 'rescaleHeight': False, 'trialN': 53, 'loaded': True, 'loadedTime': 5634.200000286102, 'positionName': 'RIGHT', 'positionCoords': [599.04, 227.5], 'bid': 5.2700000000000005}]",120022.80000019073,1669843158801,tacos,avocado,9.51,5.2700000000000005,-4.239999999999999,tacos,1005.5,1006,1006.0999999046326,True,u,121541.60000038147,1518.8000001907349,1669843160319,1518,HRV,HRV_0306,2022-11-30 21:24:14
54,"[{'imgObject': {}, 'id': 'rigatoni', 'src': '/static/foodstim60/rigatoni.jpg', 'key': 'u', 'origWidth': 411, 'origHeight': 411, 'width': 411, 'height': 411, 'widthPercent': 0.45, 'rescaleHeight': False, 'trialN': 54, 'loaded': True, 'loadedTime': 5570.300000190735, 'positionName': 'LEFT', 'positionCoords': [141.96, 226.5], 'bid': 4.94}, {'imgObject': {}, 'id': 'roastedpotatoes', 'src': '/static/foodstim60/roastedpotatoes.jpg', 'key': 'i', 'origWidth': 409, 'origHeight': 410, 'width': 409, 'height': 410, 'widthPercent': 0.45, 'rescaleHeight': False, 'trialN': 54, 'loaded': True, 'loadedTime': 5142.300000190735, 'positionName': 'RIGHT', 'positionCoords': [599.04, 227], 'bid': 2.2}]",121541.90000009537,1669843160320,rigatoni,roastedpotatoes,4.94,2.2,-2.74,rigatoni,1510.3000001907349,1511,1511.0999999046326,True,u,123567.5,2025.5999999046326,1669843162345,2025,HRV,HRV_0306,2022-11-30 21:24:14
55,"[{'imgObject': {}, 'id': 'raspberries', 'src': '/static/foodstim60/raspberries.jpg', 'key': 'u', 'origWidth': 411, 'origHeight': 411, 'width': 411, 'height': 411, 'widthPercent': 0.45, 'rescaleHeight': False, 'trialN': 55, 'loaded': True, 'loadedTime': 5646.800000190735, 'positionName': 'LEFT', 'positionCoords': [141.96, 226.5], 'bid': 0.8300000000000001}, {'imgObject': {}, 'id': 'cherries', 'src': '/static/foodstim60/cherries.jpg', 'key': 'i', 'origWidth': 410, 'origHeight': 411, 'width': 410, 'height': 411, 'widthPercent': 0.45, 'rescaleHeight': False, 'trialN': 55, 'loaded': True, 'loadedTime': 5586.200000286102, 'positionName': 'RIGHT', 'positionCoords': [599.04, 226.5], 'bid': 0.74}]",123567.80000019073,1669843162346,raspberries,cherries,0.8300000000000001,0.74,-0.09000000000000008,raspberries,2900.800000190735,2901,2901.4000000953674,True,u,126975.40000009537,3407.5999999046326,1669843165753,3407,HRV,HRV_0306,2022-11-30 21:24:14
56,"[{'imgObject': {}, 'id': 'mac & cheese', 'src': '/static/foodstim60/mac & cheese.jpg', 'key': 'u', 'origWidth': 410, 'origHeight': 410, 'width': 410, 'height': 410, 'widthPercent': 0.45, 'rescaleHeight': False, 'trialN': 56, 'loaded': True, 'loadedTime': 5353.10000038147, 'positionName': 'LEFT', 'positionCoords': [142.96, 227], 'bid': 5.36}, {'imgObject': {}, 'id': 'Tribe humus pita', 'src': '/static/foodstim60/Tribe humus pita.jpg', 'key': 'i', 'origWidth': 411, 'origHeight': 411, 'width': 411, 'height': 411, 'widthPercent': 0.45, 'rescaleHeight': False, 'trialN': 56, 'loaded': True, 'loadedTime': 5470.900000095367, 'positionName': 'RIGHT', 'positionCoords': [599.04, 226.5], 'bid': 5.64}]",126975.60000038147,1669843165753,mac & cheese,Tribe humus pita,5.36,5.64,0.27999999999999936,mac & cheese,3020.3999996185303,3021,3021.0,True,u,130508.2000002861,3532.5999999046326,1669843169286,3533,HRV,HRV_0306,2022-11-30 21:24:14
57,"[{'imgObject': {}, 'id': 'avocado', 'src': '/static/foodstim60/avocado.jpg', 'key': 'u', 'origWidth': 409, 'origHeight': 409, 'width': 409, 'height': 409, 'widthPercent': 0.45, 'rescaleHeight': False, 'trialN': 57, 'loaded': True, 'loadedTime': 5634.900000095367, 'positionName': 'LEFT', 'positionCoords': [143.96, 227.5], 'bid': 5.2700000000000005}, {'imgObject': {}, 'id': 'lox', 'src': '/static/foodstim60/lox.jpg', 'key': 'i', 'origWidth': 410, 'origHeight': 411, 'width': 410, 'height': 411, 'widthPercent': 0.45, 'rescaleHeight': False, 'trialN': 57, 'loaded': True, 'loadedTime': 5462.800000190735, 'positionName': 'RIGHT', 'positionCoords': [599.04, 226.5], 'bid': 2.25}]",130508.40000009537,1669843169286,avocado,lox,5.2700000000000005,2.25,-3.0200000000000005,avocado,1983.5999999046326,1984,1984.0999999046326,True,u,133005.10000038147,2496.7000002861023,1669843171783,2497,HRV,HRV_0306,2022-11-30 21:24:14
58,"[{'imgObject': {}, 'id': 'blackbeanswithrice', 'src': '/static/foodstim60/blackbeanswithrice.jpg', 'key': 'u', 'origWidth': 410, 'origHeight': 410, 'width': 410, 'height': 410, 'widthPercent': 0.45, 'rescaleHeight': False, 'trialN': 58, 'loaded': True, 'loadedTime': 5581.300000190735, 'positionName': 'LEFT', 'positionCoords': [142.96, 227], 'bid': 7.67}, {'imgObject': {}, 'id': 'hashbrowns', 'src': '/static/foodstim60/hashbrowns.jpg', 'key': 'i', 'origWidth': 411, 'origHeight': 410, 'width': 411, 'height': 410, 'widthPercent': 0.45, 'rescaleHeight': False, 'trialN': 58, 'loaded': True, 'loadedTime': 5282.60000038147, 'positionName': 'RIGHT', 'positionCoords': [599.04, 227], 'bid': 2.44}]",133005.40000009537,1669843171783,blackbeanswithrice,hashbrowns,7.67,2.44,-5.23,blackbeanswithrice,1310.5,1311,1311.0999999046326,True,u,134828.90000009537,1823.5,1669843173607,1824,HRV,HRV_0306,2022-11-30 21:24:14
59,"[{'imgObject': {}, 'id': 'banana', 'src': '/static/foodstim60/banana.jpg', 'key': 'u', 'origWidth': 410, 'origHeight': 410, 'width': 410, 'height': 410, 'widthPercent': 0.45, 'rescaleHeight': False, 'trialN': 59, 'loaded': True, 'loadedTime': 5622.700000286102, 'positionName': 'LEFT', 'positionCoords': [142.96, 227], 'bid': 5.01}, {'imgObject': {}, 'id': 'turkeysandwich', 'src': '/static/foodstim60/turkeysandwich.jpg', 'key': 'i', 'origWidth': 409, 'origHeight': 409, 'width': 409, 'height': 409, 'widthPercent': 0.45, 'rescaleHeight': False, 'trialN': 59, 'loaded': True, 'loadedTime': 5325.10000038147, 'positionName': 'RIGHT', 'positionCoords': [599.04, 227.5], 'bid': 9.42}]",134829.10000038147,1669843173607,banana,turkeysandwich,5.01,9.42,4.41,turkeysandwich,1518.7999997138977,1519,1519.2999997138977,True,i,136854.80000019073,2025.6999998092651,1669843175633,2026,HRV,HRV_0306,2022-11-30 21:24:14
60,"[{'imgObject': {}, 'id': 'strawberries', 'src': '/static/foodstim60/strawberries.jpg', 'key': 'u', 'origWidth': 410, 'origHeight': 410, 'width': 410, 'height': 410, 'widthPercent': 0.45, 'rescaleHeight': False, 'trialN': 60, 'loaded': True, 'loadedTime': 5615.200000286102, 'positionName': 'LEFT', 'positionCoords': [142.96, 227], 'bid': 1.14}, {'imgObject': {}, 'id': 'pear', 'src': '/static/foodstim60/pear.jpg', 'key': 'i', 'origWidth': 411, 'origHeight': 410, 'width': 411, 'height': 410, 'widthPercent': 0.45, 'rescaleHeight': False, 'trialN': 60, 'loaded': True, 'loadedTime': 5649.700000286102, 'positionName': 'RIGHT', 'positionCoords': [599.04, 227], 'bid': 1.3}]",136855.0,1669843175633,strawberries,pear,1.14,1.3,0.16000000000000014,strawberries,1492.9000000953674,1497,1496.8000001907349,True,u,138855.2000002861,2000.2000002861023,1669843177633,2000,HRV,HRV_0306,2022-11-30 21:24:14
61,"[{'imgObject': {}, 'id': 'fruitsalad', 'src': '/static/foodstim60/fruitsalad.jpg', 'key': 'u', 'origWidth': 410, 'origHeight': 410, 'width': 410, 'height': 410, 'widthPercent': 0.45, 'rescaleHeight': False, 'trialN': 61, 'loaded': True, 'loadedTime': 5651.200000286102, 'positionName': 'LEFT', 'positionCoords': [142.96, 227], 'bid': 1.77}, {'imgObject': {}, 'id': 'strawberries', 'src': '/static/foodstim60/strawberries.jpg', 'key': 'i', 'origWidth': 410, 'origHeight': 410, 'width': 410, 'height': 410, 'widthPercent': 0.45, 'rescaleHeight': False, 'trialN': 61, 'loaded': True, 'loadedTime': 5598.800000190735, 'positionName': 'RIGHT', 'positionCoords': [599.04, 227], 'bid': 1.14}]",138855.5,1669843177633,fruitsalad,strawberries,1.77,1.14,-0.6300000000000001,fruitsalad,1156.2000002861023,1157,1156.7000002861023,True,u,140522.5,1667.0,1669843179300,1667,HRV,HRV_0306,2022-11-30 21:24:14
62,"[{'imgObject': {}, 'id': 'burger', 'src': '/static/foodstim60/burger.jpg', 'key': 'u', 'origWidth': 409, 'origHeight': 409, 'width': 409, 'height': 409, 'widthPercent': 0.45, 'rescaleHeight': False, 'trialN': 62, 'loaded': True, 'loadedTime': 5298.60000038147, 'positionName': 'LEFT', 'positionCoords': [143.96, 227.5], 'bid': 9.94}, {'imgObject': {}, 'id': 'steak', 'src': '/static/foodstim60/steak.jpg', 'key': 'i', 'origWidth': 410, 'origHeight': 410, 'width': 410, 'height': 410, 'widthPercent': 0.45, 'rescaleHeight': False, 'trialN': 62, 'loaded': True, 'loadedTime': 5208.60000038147, 'positionName': 'RIGHT', 'positionCoords': [599.04, 227], 'bid': 9.72}]",140523.0,1669843179301,burger,steak,9.94,9.72,-0.21999999999999886,steak,1072.7000002861023,1073,1073.2000002861023,True,i,142112.30000019073,1589.3000001907349,1669843180890,1589,HRV,HRV_0306,2022-11-30 21:24:14
63,"[{'imgObject': {}, 'id': 'chickenfingers', 'src': '/static/foodstim60/chickenfingers.jpg', 'key': 'u', 'origWidth': 410, 'origHeight': 410, 'width': 410, 'height': 410, 'widthPercent': 0.45, 'rescaleHeight': False, 'trialN': 63, 'loaded': True, 'loadedTime': 5656, 'positionName': 'LEFT', 'positionCoords': [142.96, 227], 'bid': 9.28}, {'imgObject': {}, 'id': 'baked potato', 'src': '/static/foodstim60/baked potato.jpg', 'key': 'i', 'origWidth': 409, 'origHeight': 410, 'width': 409, 'height': 410, 'widthPercent': 0.45, 'rescaleHeight': False, 'trialN': 63, 'loaded': True, 'loadedTime': 5551.10000038147, 'positionName': 'RIGHT', 'positionCoords': [599.04, 227], 'bid': 5.01}]",142112.5,1669843180890,chickenfingers,baked potato,9.28,5.01,-4.27,chickenfingers,1275,1277,1276.6000003814697,True,u,143902.80000019073,1790.3000001907349,1669843182681,1791,HRV,HRV_0306,2022-11-30 21:24:14
64,"[{'imgObject': {}, 'id': 'sushi w_condiments', 'src': '/static/foodstim60/sushi w_condiments.jpg', 'key': 'u', 'origWidth': 410, 'origHeight': 410, 'width': 410, 'height': 410, 'widthPercent': 0.45, 'rescaleHeight': False, 'trialN': 64, 'loaded': True, 'loadedTime': 5337.10000038147, 'positionName': 'LEFT', 'positionCoords': [142.96, 227], 'bid': 0.92}, {'imgObject': {}, 'id': 'kiwi', 'src': '/static/foodstim60/kiwi.jpg', 'key': 'i', 'origWidth': 410, 'origHeight': 410, 'width': 410, 'height': 410, 'widthPercent': 0.45, 'rescaleHeight': False, 'trialN': 64, 'loaded': True, 'loadedTime': 5488.400000095367, 'positionName': 'RIGHT', 'positionCoords': [599.04, 227], 'bid': 0.92}]",143903.10000038147,1669843182681,sushi w_condiments,kiwi,0.92,0.92,0.0,sushi w_condiments,1196.5,1197,1197.0999999046326,True,u,145607.2000002861,1704.0999999046326,1669843184385,1704,HRV,HRV_0306,2022-11-30 21:24:14
65,"[{'imgObject': {}, 'id': 'lox', 'src': '/static/foodstim60/lox.jpg', 'key': 'u', 'origWidth': 410, 'origHeight': 411, 'width': 410, 'height': 411, 'widthPercent': 0.45, 'rescaleHeight': False, 'trialN': 65, 'loaded': True, 'loadedTime': 5464.700000286102, 'positionName': 'LEFT', 'positionCoords': [142.96, 226.5], 'bid': 2.25}, {'imgObject': {}, 'id': 'burger', 'src': '/static/foodstim60/burger.jpg', 'key': 'i', 'origWidth': 409, 'origHeight': 409, 'width': 409, 'height': 409, 'widthPercent': 0.45, 'rescaleHeight': False, 'trialN': 65, 'loaded': True, 'loadedTime': 5301, 'positionName': 'RIGHT', 'positionCoords': [599.04, 227.5], 'bid': 9.94}]",145607.5,1669843184385,lox,burger,2.25,9.94,7.6899999999999995,burger,908.1000003814697,909,908.8000001907349,True,i,147020.80000019073,1413.3000001907349,1669843185799,1414,HRV,HRV_0306,2022-11-30 21:24:14
66,"[{'imgObject': {}, 'id': 'mac & cheese', 'src': '/static/foodstim60/mac & cheese.jpg', 'key': 'u', 'origWidth': 410, 'origHeight': 410, 'width': 410, 'height': 410, 'widthPercent': 0.45, 'rescaleHeight': False, 'trialN': 66, 'loaded': True, 'loadedTime': 5345.10000038147, 'positionName': 'LEFT', 'positionCoords': [142.96, 227], 'bid': 5.36}, {'imgObject': {}, 'id': 'eggs', 'src': '/static/foodstim60/eggs.jpg', 'key': 'i', 'origWidth': 409, 'origHeight': 409, 'width': 409, 'height': 409, 'widthPercent': 0.45, 'rescaleHeight': False, 'trialN': 66, 'loaded': True, 'loadedTime': 5061.900000095367, 'positionName': 'RIGHT', 'positionCoords': [599.04, 227.5], 'bid': 8.64}]",147021.10000038147,1669843185799,mac & cheese,eggs,5.36,8.64,3.2800000000000002,mac & cheese,1302.3999996185303,1303,1302.7999997138977,True,u,148841.40000009537,1820.2999997138977,1669843187619,1820,HRV,HRV_0306,2022-11-30 21:24:14
67,"[{'imgObject': {}, 'id': 'fried eggs', 'src': '/static/foodstim60/fried eggs.jpg', 'key': 'u', 'origWidth': 410, 'origHeight': 410, 'width': 410, 'height': 410, 'widthPercent': 0.45, 'rescaleHeight': False, 'trialN': 67, 'loaded': True, 'loadedTime': 5564.400000095367, 'positionName': 'LEFT', 'positionCoords': [142.96, 227], 'bid': 8.38}, {'imgObject': {}, 'id': 'chicken nuggets2', 'src': '/static/foodstim60/chicken nuggets2.jpg', 'key': 'i', 'origWidth': 410, 'origHeight': 409, 'width': 410, 'height': 409, 'widthPercent': 0.45, 'rescaleHeight': False, 'trialN': 67, 'loaded': True, 'loadedTime': 5659.200000286102, 'positionName': 'RIGHT', 'positionCoords': [599.04, 227.5], 'bid': 8.950000000000001}]",148841.60000038147,1669843187619,fried eggs,chicken nuggets2,8.38,8.950000000000001,0.5700000000000003,chicken nuggets2,1394.2999997138977,1395,1394.7999997138977,True,i,150748.60000038147,1907.0,1669843189527,1908,HRV,HRV_0306,2022-11-30 21:24:14
68,"[{'imgObject': {}, 'id': 'cantaloupe', 'src': '/static/foodstim60/cantaloupe.jpg', 'key': 'u', 'origWidth': 409, 'origHeight': 409, 'width': 409, 'height': 409, 'widthPercent': 0.45, 'rescaleHeight': False, 'trialN': 68, 'loaded': True, 'loadedTime': 5385.300000190735, 'positionName': 'LEFT', 'positionCoords': [143.96, 227.5], 'bid': 0.31}, {'imgObject': {}, 'id': 'mashed potato', 'src': '/static/foodstim60/mashed potato.jpg', 'key': 'i', 'origWidth': 409, 'origHeight': 409, 'width': 409, 'height': 409, 'widthPercent': 0.45, 'rescaleHeight': False, 'trialN': 68, 'loaded': True, 'loadedTime': 5016.5, 'positionName': 'RIGHT', 'positionCoords': [599.04, 227.5], 'bid': 1.51}]",150748.90000009537,1669843189527,cantaloupe,mashed potato,0.31,1.51,1.2,mashed potato,1326.5,1327,1327.0,True,i,152590.60000038147,1841.7000002861023,1669843191368,1841,HRV,HRV_0306,2022-11-30 21:24:14
69,"[{'imgObject': {}, 'id': 'rigatoni and sauce', 'src': '/static/foodstim60/rigatoni and sauce.jpg', 'key': 'u', 'origWidth': 410, 'origHeight': 411, 'width': 410, 'height': 411, 'widthPercent': 0.45, 'rescaleHeight': False, 'trialN': 69, 'loaded': True, 'loadedTime': 5236.300000190735, 'positionName': 'LEFT', 'positionCoords': [142.96, 226.5], 'bid': 9.68}, {'imgObject': {}, 'id': 'eggs', 'src': '/static/foodstim60/eggs.jpg', 'key': 'i', 'origWidth': 409, 'origHeight': 409, 'width': 409, 'height': 409, 'widthPercent': 0.45, 'rescaleHeight': False, 'trialN': 69, 'loaded': True, 'loadedTime': 5065.300000190735, 'positionName': 'RIGHT', 'positionCoords': [599.04, 227.5], 'bid': 8.64}]",152590.80000019073,1669843191369,rigatoni and sauce,eggs,9.68,8.64,-1.0399999999999991,rigatoni and sauce,1220.5,1221,1221.0999999046326,True,u,154321.40000009537,1730.5999999046326,1669843193099,1730,HRV,HRV_0306,2022-11-30 21:24:14
70,"[{'imgObject': {}, 'id': 'veggieswithdip', 'src': '/static/foodstim60/veggieswithdip.jpg', 'key': 'u', 'origWidth': 409, 'origHeight': 409, 'width': 409, 'height': 409, 'widthPercent': 0.45, 'rescaleHeight': False, 'trialN': 70, 'loaded': True, 'loadedTime': 5625, 'positionName': 'LEFT', 'positionCoords': [143.96, 227.5], 'bid': 4.54}, {'imgObject': {}, 'id': 'omelette', 'src': '/static/foodstim60/omelette.jpg', 'key': 'i', 'origWidth': 410, 'origHeight': 409, 'width': 410, 'height': 409, 'widthPercent': 0.45, 'rescaleHeight': False, 'trialN': 70, 'loaded': True, 'loadedTime': 4976.10000038147, 'positionName': 'RIGHT', 'positionCoords': [599.04, 227.5], 'bid': 3.66}]",154321.60000038147,1669843193099,veggieswithdip,omelette,4.54,3.66,-0.8799999999999999,omelette,2329.699999809265,2331,2330.0999999046326,True,i,157158.90000009537,2837.2999997138977,1669843195937,2838,HRV,HRV_0306,2022-11-30 21:24:14
71,"[{'imgObject': {}, 'id': 'mango', 'src': '/static/foodstim60/mango.jpg', 'key': 'u', 'origWidth': 411, 'origHeight': 411, 'width': 411, 'height': 411, 'widthPercent': 0.45, 'rescaleHeight': False, 'trialN': 71, 'loaded': True, 'loadedTime': 5447.800000190735, 'positionName': 'LEFT', 'positionCoords': [141.96, 226.5], 'bid': 0.5}, {'imgObject': {}, 'id': 'blueberries', 'src': '/static/foodstim60/blueberries.jpg', 'key': 'i', 'origWidth': 411, 'origHeight': 411, 'width': 411, 'height': 411, 'widthPercent': 0.45, 'rescaleHeight': False, 'trialN': 71, 'loaded': True, 'loadedTime': 5506.900000095367, 'positionName': 'RIGHT', 'positionCoords': [599.04, 226.5], 'bid': 0.52}]",157159.0,1669843195937,mango,blueberries,0.5,0.52,0.020000000000000018,mango,2932.2000002861023,2933,2932.7000002861023,True,u,160600.80000019073,3441.800000190735,1669843199379,3442,HRV,HRV_0306,2022-11-30 21:24:14
72,"[{'imgObject': {}, 'id': 'raisin bran w milk', 'src': '/static/foodstim60/raisin bran w milk.jpg', 'key': 'u', 'origWidth': 411, 'origHeight': 411, 'width': 411, 'height': 411, 'widthPercent': 0.45, 'rescaleHeight': False, 'trialN': 72, 'loaded': True, 'loadedTime': 5642.400000095367, 'positionName': 'LEFT', 'positionCoords': [141.96, 226.5], 'bid': 0.24}, {'imgObject': {}, 'id': 'pear', 'src': '/static/foodstim60/pear.jpg', 'key': 'i', 'origWidth': 411, 'origHeight': 410, 'width': 411, 'height': 410, 'widthPercent': 0.45, 'rescaleHeight': False, 'trialN': 72, 'loaded': True, 'loadedTime': 5648.200000286102, 'positionName': 'RIGHT', 'positionCoords': [599.04, 227], 'bid': 1.3}]",160601.10000038147,1669843199379,raisin bran w milk,pear,0.24,1.3,1.06,raisin bran w milk,2098.3999996185303,2099,2099.0999999046326,True,u,163218.80000019073,2617.699999809265,1669843201997,2618,HRV,HRV_0306,2022-11-30 21:24:14
73,"[{'imgObject': {}, 'id': 'tacos', 'src': '/static/foodstim60/tacos.jpg', 'key': 'u', 'origWidth': 411, 'origHeight': 411, 'width': 411, 'height': 411, 'widthPercent': 0.45, 'rescaleHeight': False, 'trialN': 73, 'loaded': True, 'loadedTime': 5557.5, 'positionName': 'LEFT', 'positionCoords': [141.96, 226.5], 'bid': 9.51}, {'imgObject': {}, 'id': 'salmon', 'src': '/static/foodstim60/salmon.jpg', 'key': 'i', 'origWidth': 410, 'origHeight': 409, 'width': 410, 'height': 409, 'widthPercent': 0.45, 'rescaleHeight': False, 'trialN': 73, 'loaded': True, 'loadedTime': 5372.60000038147, 'positionName': 'RIGHT', 'positionCoords': [599.04, 227.5], 'bid': 9.63}]",163219.10000038147,1669843201997,tacos,salmon,9.51,9.63,0.120000000000001,salmon,832,832,832.5,True,i,164561.0,1341.8999996185303,1669843203339,1342,HRV,HRV_0306,2022-11-30 21:24:14
74,"[{'imgObject': {}, 'id': 'pear', 'src': '/static/foodstim60/pear.jpg', 'key': 'u', 'origWidth': 411, 'origHeight': 410, 'width': 411, 'height': 410, 'widthPercent': 0.45, 'rescaleHeight': False, 'trialN': 74, 'loaded': True, 'loadedTime': 5650.5, 'positionName': 'LEFT', 'positionCoords': [141.96, 227], 'bid': 1.3}, {'imgObject': {}, 'id': 'fried eggs', 'src': '/static/foodstim60/fried eggs.jpg', 'key': 'i', 'origWidth': 410, 'origHeight': 410, 'width': 410, 'height': 410, 'widthPercent': 0.45, 'rescaleHeight': False, 'trialN': 74, 'loaded': True, 'loadedTime': 5560.10000038147, 'positionName': 'RIGHT', 'positionCoords': [599.04, 227], 'bid': 8.38}]",164561.2000002861,1669843203339,pear,fried eggs,1.3,8.38,7.080000000000001,fried eggs,1241.7999997138977,1242,1242.4000000953674,True,i,166323.80000019073,1762.5999999046326,1669843205102,1763,HRV,HRV_0306,2022-11-30 21:24:14
75,"[{'imgObject': {}, 'id': 'granola w milk', 'src': '/static/foodstim60/granola w milk.jpg', 'key': 'u', 'origWidth': 410, 'origHeight': 410, 'width': 410, 'height': 410, 'widthPercent': 0.45, 'rescaleHeight': False, 'trialN': 75, 'loaded': True, 'loadedTime': 5403.60000038147, 'positionName': 'LEFT', 'positionCoords': [142.96, 227], 'bid': 0.72}, {'imgObject': {}, 'id': 'raspberries', 'src': '/static/foodstim60/raspberries.jpg', 'key': 'i', 'origWidth': 411, 'origHeight': 411, 'width': 411, 'height': 411, 'widthPercent': 0.45, 'rescaleHeight': False, 'trialN': 75, 'loaded': True, 'loadedTime': 5647.10000038147, 'positionName': 'RIGHT', 'positionCoords': [599.04, 226.5], 'bid': 0.8300000000000001}]",166324.0,1669843205102,granola w milk,raspberries,0.72,0.8300000000000001,0.1100000000000001,granola w milk,1927,1927,1927.6000003814697,True,u,168761.10000038147,2437.1000003814697,1669843207539,2437,HRV,HRV_0306,2022-11-30 21:24:14
76,"[{'imgObject': {}, 'id': 'mango', 'src': '/static/foodstim60/mango.jpg', 'key': 'u', 'origWidth': 411, 'origHeight': 411, 'width': 411, 'height': 411, 'widthPercent': 0.45, 'rescaleHeight': False, 'trialN': 76, 'loaded': True, 'loadedTime': 5440.10000038147, 'positionName': 'LEFT', 'positionCoords': [141.96, 226.5], 'bid': 0.5}, {'imgObject': {}, 'id': 'raisin bran w milk', 'src': '/static/foodstim60/raisin bran w milk.jpg', 'key': 'i', 'origWidth': 411, 'origHeight': 411, 'width': 411, 'height': 411, 'widthPercent': 0.45, 'rescaleHeight': False, 'trialN': 76, 'loaded': True, 'loadedTime': 5642.200000286102, 'positionName': 'RIGHT', 'positionCoords': [599.04, 226.5], 'bid': 0.24}]",168761.2000002861,1669843207539,mango,raisin bran w milk,0.5,0.24,-0.26,raisin bran w milk,1089.7999997138977,1090,1090.5,True,i,170361.60000038147,1600.4000000953674,1669843209139,1600,HRV,HRV_0306,2022-11-30 21:24:14
77,"[{'imgObject': {}, 'id': 'granola w milk', 'src': '/static/foodstim60/granola w milk.jpg', 'key': 'u', 'origWidth': 410, 'origHeight': 410, 'width': 410, 'height': 410, 'widthPercent': 0.45, 'rescaleHeight': False, 'trialN': 77, 'loaded': True, 'loadedTime': 5410.700000286102, 'positionName': 'LEFT', 'positionCoords': [142.96, 227], 'bid': 0.72}, {'imgObject': {}, 'id': 'cherry tomato', 'src': '/static/foodstim60/cherry tomato.jpg', 'key': 'i', 'origWidth': 410, 'origHeight': 410, 'width': 410, 'height': 410, 'widthPercent': 0.45, 'rescaleHeight': False, 'trialN': 77, 'loaded': True, 'loadedTime': 5526.300000190735, 'positionName': 'RIGHT', 'positionCoords': [599.04, 227], 'bid': 1.8}]",170361.90000009537,1669843209140,granola w milk,cherry tomato,0.72,1.8,1.08,granola w milk,1201,1201,1201.5,True,u,172083.60000038147,1721.7000002861023,1669843210861,1721,HRV,HRV_0306,2022-11-30 21:24:14
78,"[{'imgObject': {}, 'id': 'bagel plain', 'src': '/static/foodstim60/bagel plain.jpg', 'key': 'u', 'origWidth': 410, 'origHeight': 410, 'width': 410, 'height': 410, 'widthPercent': 0.45, 'rescaleHeight': False, 'trialN': 78, 'loaded': True, 'loadedTime': 5223.10000038147, 'positionName': 'LEFT', 'positionCoords': [142.96, 227], 'bid': 2.08}, {'imgObject': {}, 'id': 'cherry tomato', 'src': '/static/foodstim60/cherry tomato.jpg', 'key': 'i', 'origWidth': 410, 'origHeight': 410, 'width': 410, 'height': 410, 'widthPercent': 0.45, 'rescaleHeight': False, 'trialN': 78, 'loaded': True, 'loadedTime': 5525.900000095367, 'positionName': 'RIGHT', 'positionCoords': [599.04, 227], 'bid': 1.8}]",172083.80000019073,1669843210862,bagel plain,cherry tomato,2.08,1.8,-0.28,bagel plain,1271.4000000953674,1272,1272.0,True,u,173867.60000038147,1783.8000001907349,1669843212645,1783,HRV,HRV_0306,2022-11-30 21:24:14
79,"[{'imgObject': {}, 'id': 'blackbeanswithrice', 'src': '/static/foodstim60/blackbeanswithrice.jpg', 'key': 'u', 'origWidth': 410, 'origHeight': 410, 'width': 410, 'height': 410, 'widthPercent': 0.45, 'rescaleHeight': False, 'trialN': 79, 'loaded': True, 'loadedTime': 5582.5, 'positionName': 'LEFT', 'positionCoords': [142.96, 227], 'bid': 7.67}, {'imgObject': {}, 'id': 'hotdog w must', 'src': '/static/foodstim60/hotdog w must.jpg', 'key': 'i', 'origWidth': 409, 'origHeight': 409, 'width': 409, 'height': 409, 'widthPercent': 0.45, 'rescaleHeight': False, 'trialN': 79, 'loaded': True, 'loadedTime': 4997.200000286102, 'positionName': 'RIGHT', 'positionCoords': [599.04, 227.5], 'bid': 7.69}]",173867.80000019073,1669843212646,blackbeanswithrice,hotdog w must,7.67,7.69,0.020000000000000462,blackbeanswithrice,1983,1983,1983.5999999046326,True,u,176361.2000002861,2493.4000000953674,1669843215139,2493,HRV,HRV_0306,2022-11-30 21:24:14
80,"[{'imgObject': {}, 'id': 'shreddedwheatwithmilk', 'src': '/static/foodstim60/shreddedwheatwithmilk.jpg', 'key': 'u', 'origWidth': 410, 'origHeight': 410, 'width': 410, 'height': 410, 'widthPercent': 0.45, 'rescaleHeight': False, 'trialN': 80, 'loaded': True, 'loadedTime': 5590.800000190735, 'positionName': 'LEFT', 'positionCoords': [142.96, 227], 'bid': 0.52}, {'imgObject': {}, 'id': 'froot loops w milk', 'src': '/static/foodstim60/froot loops w milk.jpg', 'key': 'i', 'origWidth': 410, 'origHeight': 410, 'width': 410, 'height': 410, 'widthPercent': 0.45, 'rescaleHeight': False, 'trialN': 80, 'loaded': True, 'loadedTime': 5631.900000095367, 'positionName': 'RIGHT', 'positionCoords': [599.04, 227], 'bid': 0.15}]",176361.40000009537,1669843215139,shreddedwheatwithmilk,froot loops w milk,0.52,0.15,-0.37,shreddedwheatwithmilk,2185.300000190735,2182,2186.0,True,u,179054.0,2692.5999999046326,1669843217827,2688,HRV,HRV_0306,2022-11-30 21:24:14
81,"[{'imgObject': {}, 'id': 'kiwi', 'src': '/static/foodstim60/kiwi.jpg', 'key': 'u', 'origWidth': 410, 'origHeight': 410, 'width': 410, 'height': 410, 'widthPercent': 0.45, 'rescaleHeight': False, 'trialN': 81, 'loaded': True, 'loadedTime': 5488.700000286102, 'positionName': 'LEFT', 'positionCoords': [142.96, 227], 'bid': 0.92}, {'imgObject': {}, 'id': 'sweetpotato', 'src': '/static/foodstim60/sweetpotato.jpg', 'key': 'i', 'origWidth': 410, 'origHeight': 410, 'width': 410, 'height': 410, 'widthPercent': 0.45, 'rescaleHeight': False, 'trialN': 81, 'loaded': True, 'loadedTime': 5175.5, 'positionName': 'RIGHT', 'positionCoords': [599.04, 227], 'bid': 2.13}]",179054.30000019073,1669843217828,kiwi,sweetpotato,0.92,2.13,1.21,sweetpotato,2348.300000190735,2348,2348.699999809265,True,i,181916.30000019073,2862.0,1669843220690,2862,HRV,HRV_0306,2022-11-30 21:24:14
82,"[{'imgObject': {}, 'id': 'ice cream sundae 002', 'src': '/static/foodstim60/ice cream sundae 002.jpg', 'key': 'u', 'origWidth': 409, 'origHeight': 409, 'width': 409, 'height': 409, 'widthPercent': 0.45, 'rescaleHeight': False, 'trialN': 82, 'loaded': True, 'loadedTime': 5507.200000286102, 'positionName': 'LEFT', 'positionCoords': [143.96, 227.5], 'bid': 2.41}, {'imgObject': {}, 'id': 'luckycharms', 'src': '/static/foodstim60/luckycharms.jpg', 'key': 'i', 'origWidth': 410, 'origHeight': 409, 'width': 410, 'height': 409, 'widthPercent': 0.45, 'rescaleHeight': False, 'trialN': 82, 'loaded': True, 'loadedTime': 5454.200000286102, 'positionName': 'RIGHT', 'positionCoords': [599.04, 227.5], 'bid': 0.06}]",181916.60000038147,1669843220690,ice cream sundae 002,luckycharms,2.41,0.06,-2.35,ice cream sundae 002,2214.3999996185303,2215,2214.8999996185303,True,u,184640.30000019073,2723.699999809265,1669843223414,2724,HRV,HRV_0306,2022-11-30 21:24:14
83,"[{'imgObject': {}, 'id': 'mango', 'src': '/static/foodstim60/mango.jpg', 'key': 'u', 'origWidth': 411, 'origHeight': 411, 'width': 411, 'height': 411, 'widthPercent': 0.45, 'rescaleHeight': False, 'trialN': 83, 'loaded': True, 'loadedTime': 5449.800000190735, 'positionName': 'LEFT', 'positionCoords': [141.96, 226.5], 'bid': 0.5}, {'imgObject': {}, 'id': 'yogurt no spoon', 'src': '/static/foodstim60/yogurt no spoon.jpg', 'key': 'i', 'origWidth': 411, 'origHeight': 410, 'width': 411, 'height': 410, 'widthPercent': 0.45, 'rescaleHeight': False, 'trialN': 83, 'loaded': True, 'loadedTime': 5288.10000038147, 'positionName': 'RIGHT', 'positionCoords': [599.04, 227], 'bid': 1.61}]",184640.60000038147,1669843223414,mango,yogurt no spoon,0.5,1.61,1.11,yogurt no spoon,2185.7999997138977,2186,2186.5,True,i,187346.60000038147,2706.0,1669843226120,2706,HRV,HRV_0306,2022-11-30 21:24:14
84,"[{'imgObject': {}, 'id': 'turkeysandwich', 'src': '/static/foodstim60/turkeysandwich.jpg', 'key': 'u', 'origWidth': 409, 'origHeight': 409, 'width': 409, 'height': 409, 'widthPercent': 0.45, 'rescaleHeight': False, 'trialN': 84, 'loaded': True, 'loadedTime': 5320.60000038147, 'positionName': 'LEFT', 'positionCoords': [143.96, 227.5], 'bid': 9.42}, {'imgObject': {}, 'id': 'chickenfingers', 'src': '/static/foodstim60/chickenfingers.jpg', 'key': 'i', 'origWidth': 410, 'origHeight': 410, 'width': 410, 'height': 410, 'widthPercent': 0.45, 'rescaleHeight': False, 'trialN': 84, 'loaded': True, 'loadedTime': 5655.60000038147, 'positionName': 'RIGHT', 'positionCoords': [599.04, 227], 'bid': 9.28}]",187346.80000019073,1669843226120,turkeysandwich,chickenfingers,9.42,9.28,-0.14000000000000057,chickenfingers,1743.5999999046326,1744,1744.0,True,i,189606.5,2259.699999809265,1669843228380,2260,HRV,HRV_0306,2022-11-30 21:24:14
85,"[{'imgObject': {}, 'id': 'cocktailshrimp', 'src': '/static/foodstim60/cocktailshrimp.jpg', 'key': 'u', 'origWidth': 410, 'origHeight': 410, 'width': 410, 'height': 410, 'widthPercent': 0.45, 'rescaleHeight': False, 'trialN': 85, 'loaded': True, 'loadedTime': 5492.800000190735, 'positionName': 'LEFT', 'positionCoords': [142.96, 227], 'bid': 6.9}, {'imgObject': {}, 'id': 'avocado', 'src': '/static/foodstim60/avocado.jpg', 'key': 'i', 'origWidth': 409, 'origHeight': 409, 'width': 409, 'height': 409, 'widthPercent': 0.45, 'rescaleHeight': False, 'trialN': 85, 'loaded': True, 'loadedTime': 5635.200000286102, 'positionName': 'RIGHT', 'positionCoords': [599.04, 227.5], 'bid': 5.2700000000000005}]",189607.10000038147,1669843228380,cocktailshrimp,avocado,6.9,5.2700000000000005,-1.63,cocktailshrimp,2419.199999809265,2420,2419.7999997138977,True,u,192534.10000038147,2927.0,1669843231307,2927,HRV,HRV_0306,2022-11-30 21:24:14
86,"[{'imgObject': {}, 'id': 'strawberries', 'src': '/static/foodstim60/strawberries.jpg', 'key': 'u', 'origWidth': 410, 'origHeight': 410, 'width': 410, 'height': 410, 'widthPercent': 0.45, 'rescaleHeight': False, 'trialN': 86, 'loaded': True, 'loadedTime': 5614.700000286102, 'positionName': 'LEFT', 'positionCoords': [142.96, 227], 'bid': 1.14}, {'imgObject': {}, 'id': 'bagel and cc', 'src': '/static/foodstim60/bagel and cc.jpg', 'key': 'i', 'origWidth': 410, 'origHeight': 410, 'width': 410, 'height': 410, 'widthPercent': 0.45, 'rescaleHeight': False, 'trialN': 86, 'loaded': True, 'loadedTime': 5256.700000286102, 'positionName': 'RIGHT', 'positionCoords': [599.04, 227], 'bid': 1.12}]",192534.40000009537,1669843231308,strawberries,bagel and cc,1.14,1.12,-0.019999999999999796,bagel and cc,2004.2000002861023,2004,2004.8000001907349,True,i,195055.0,2520.5999999046326,1669843233828,2520,HRV,HRV_0306,2022-11-30 21:24:14
87,"[{'imgObject': {}, 'id': 'lox', 'src': '/static/foodstim60/lox.jpg', 'key': 'u', 'origWidth': 410, 'origHeight': 411, 'width': 410, 'height': 411, 'widthPercent': 0.45, 'rescaleHeight': False, 'trialN': 87, 'loaded': True, 'loadedTime': 5461.800000190735, 'positionName': 'LEFT', 'positionCoords': [142.96, 226.5], 'bid': 2.25}, {'imgObject': {}, 'id': 'orange slices', 'src': '/static/foodstim60/orange slices.jpg', 'key': 'i', 'origWidth': 409, 'origHeight': 410, 'width': 409, 'height': 410, 'widthPercent': 0.45, 'rescaleHeight': False, 'trialN': 87, 'loaded': True, 'loadedTime': 5082.5, 'positionName': 'RIGHT', 'positionCoords': [599.04, 227], 'bid': 1.04}]",195055.2000002861,1669843233829,lox,orange slices,2.25,1.04,-1.21,orange slices,1898.9000000953674,1899,1899.4000000953674,True,i,197469.60000038147,2414.4000000953674,1669843236243,2414,HRV,HRV_0306,2022-11-30 21:24:14
88,"[{'imgObject': {}, 'id': 'burrito', 'src': '/static/foodstim60/burrito.jpg', 'key': 'u', 'origWidth': 410, 'origHeight': 410, 'width': 410, 'height': 410, 'widthPercent': 0.45, 'rescaleHeight': False, 'trialN': 88, 'loaded': True, 'loadedTime': 5393, 'positionName': 'LEFT', 'positionCoords': [142.96, 227], 'bid': 5}, {'imgObject': {}, 'id': 'rigatoni', 'src': '/static/foodstim60/rigatoni.jpg', 'key': 'i', 'origWidth': 411, 'origHeight': 411, 'width': 411, 'height': 411, 'widthPercent': 0.45, 'rescaleHeight': False, 'trialN': 88, 'loaded': True, 'loadedTime': 5573, 'positionName': 'RIGHT', 'positionCoords': [599.04, 226.5], 'bid': 4.94}]",197469.90000009537,1669843236243,burrito,rigatoni,5.0,4.94,-0.05999999999999961,burrito,2252.0999999046326,2254,2253.4000000953674,True,u,200242.5,2772.5999999046326,1669843239016,2773,HRV,HRV_0306,2022-11-30 21:24:14
89,"[{'imgObject': {}, 'id': 'hotdog w must', 'src': '/static/foodstim60/hotdog w must.jpg', 'key': 'u', 'origWidth': 409, 'origHeight': 409, 'width': 409, 'height': 409, 'widthPercent': 0.45, 'rescaleHeight': False, 'trialN': 89, 'loaded': True, 'loadedTime': 4992.700000286102, 'positionName': 'LEFT', 'positionCoords': [143.96, 227.5], 'bid': 7.69}, {'imgObject': {}, 'id': 'steak', 'src': '/static/foodstim60/steak.jpg', 'key': 'i', 'origWidth': 410, 'origHeight': 410, 'width': 410, 'height': 410, 'widthPercent': 0.45, 'rescaleHeight': False, 'trialN': 89, 'loaded': True, 'loadedTime': 5208.400000095367, 'positionName': 'RIGHT', 'positionCoords': [599.04, 227], 'bid': 9.72}]",200242.80000019073,1669843239016,hotdog w must,steak,7.69,9.72,2.0300000000000002,steak,1055.1999998092651,1056,1055.6999998092651,True,i,201809.5,1566.6999998092651,1669843240583,1567,HRV,HRV_0306,2022-11-30 21:24:14
90,"[{'imgObject': {}, 'id': 'strawberries', 'src': '/static/foodstim60/strawberries.jpg', 'key': 'u', 'origWidth': 410, 'origHeight': 410, 'width': 410, 'height': 410, 'widthPercent': 0.45, 'rescaleHeight': False, 'trialN': 90, 'loaded': True, 'loadedTime': 5617.300000190735, 'positionName': 'LEFT', 'positionCoords': [142.96, 227], 'bid': 1.14}, {'imgObject': {}, 'id': 'froot loops w milk', 'src': '/static/foodstim60/froot loops w milk.jpg', 'key': 'i', 'origWidth': 410, 'origHeight': 410, 'width': 410, 'height': 410, 'widthPercent': 0.45, 'rescaleHeight': False, 'trialN': 90, 'loaded': True, 'loadedTime': 5629.800000190735, 'positionName': 'RIGHT', 'positionCoords': [599.04, 227], 'bid': 0.15}]",213707.90000009537,1669843252481,strawberries,froot loops w milk,1.14,0.15,-0.9899999999999999,strawberries,1413.8000001907349,1415,1414.3000001907349,True,u,215634.5,1926.5999999046326,1669843254408,1927,HRV,HRV_0306,2022-11-30 21:24:14
91,"[{'imgObject': {}, 'id': 'froot loops w milk', 'src': '/static/foodstim60/froot loops w milk.jpg', 'key': 'u', 'origWidth': 410, 'origHeight': 410, 'width': 410, 'height': 410, 'widthPercent': 0.45, 'rescaleHeight': False, 'trialN': 91, 'loaded': True, 'loadedTime': 5632.200000286102, 'positionName': 'LEFT', 'positionCoords': [142.96, 227], 'bid': 0.15}, {'imgObject': {}, 'id': 'omelette', 'src': '/static/foodstim60/omelette.jpg', 'key': 'i', 'origWidth': 410, 'origHeight': 409, 'width': 410, 'height': 409, 'widthPercent': 0.45, 'rescaleHeight': False, 'trialN': 91, 'loaded': True, 'loadedTime': 4986.5, 'positionName': 'RIGHT', 'positionCoords': [599.04, 227.5], 'bid': 3.66}]",215634.80000019073,1669843254408,froot loops w milk,omelette,0.15,3.66,3.5100000000000002,omelette,1006.8000001907349,1007,1007.3000001907349,True,i,217143.90000009537,1509.0999999046326,1669843255917,1509,HRV,HRV_0306,2022-11-30 21:24:14
92,"[{'imgObject': {}, 'id': 'veggieswithdip', 'src': '/static/foodstim60/veggieswithdip.jpg', 'key': 'u', 'origWidth': 409, 'origHeight': 409, 'width': 409, 'height': 409, 'widthPercent': 0.45, 'rescaleHeight': False, 'trialN': 92, 'loaded': True, 'loadedTime': 5629.5, 'positionName': 'LEFT', 'positionCoords': [143.96, 227.5], 'bid': 4.54}, {'imgObject': {}, 'id': 'sweetpotato', 'src': '/static/foodstim60/sweetpotato.jpg', 'key': 'i', 'origWidth': 410, 'origHeight': 410, 'width': 410, 'height': 410, 'widthPercent': 0.45, 'rescaleHeight': False, 'trialN': 92, 'loaded': True, 'loadedTime': 5181.60000038147, 'positionName': 'RIGHT', 'positionCoords': [599.04, 227], 'bid': 2.13}]",217144.10000038147,1669843255917,veggieswithdip,sweetpotato,4.54,2.13,-2.41,sweetpotato,1209.5,1210,1210.0,True,i,218868.40000009537,1724.2999997138977,1669843257642,1725,HRV,HRV_0306,2022-11-30 21:24:14
93,"[{'imgObject': {}, 'id': 'raspberries', 'src': '/static/foodstim60/raspberries.jpg', 'key': 'u', 'origWidth': 411, 'origHeight': 411, 'width': 411, 'height': 411, 'widthPercent': 0.45, 'rescaleHeight': False, 'trialN': 93, 'loaded': True, 'loadedTime': 5647.300000190735, 'positionName': 'LEFT', 'positionCoords': [141.96, 226.5], 'bid': 0.8300000000000001}, {'imgObject': {}, 'id': 'salad w chicken', 'src': '/static/foodstim60/salad w chicken.jpg', 'key': 'i', 'origWidth': 411, 'origHeight': 411, 'width': 411, 'height': 411, 'widthPercent': 0.45, 'rescaleHeight': False, 'trialN': 93, 'loaded': True, 'loadedTime': 5088.900000095367, 'positionName': 'RIGHT', 'positionCoords': [599.04, 226.5], 'bid': 5.43}]",218868.7000002861,1669843257642,raspberries,salad w chicken,0.8300000000000001,5.43,4.6,salad w chicken,1260.7999997138977,1261,1261.2999997138977,True,i,220639.40000009537,1770.6999998092651,1669843259413,1771,HRV,HRV_0306,2022-11-30 21:24:14
94,"[{'imgObject': {}, 'id': 'omelette', 'src': '/static/foodstim60/omelette.jpg', 'key': 'u', 'origWidth': 410, 'origHeight': 409, 'width': 410, 'height': 409, 'widthPercent': 0.45, 'rescaleHeight': False, 'trialN': 94, 'loaded': True, 'loadedTime': 4989.800000190735, 'positionName': 'LEFT', 'positionCoords': [142.96, 227.5], 'bid': 3.66}, {'imgObject': {}, 'id': 'rigatoni', 'src': '/static/foodstim60/rigatoni.jpg', 'key': 'i', 'origWidth': 411, 'origHeight': 411, 'width': 411, 'height': 411, 'widthPercent': 0.45, 'rescaleHeight': False, 'trialN': 94, 'loaded': True, 'loadedTime': 5570, 'positionName': 'RIGHT', 'positionCoords': [599.04, 226.5], 'bid': 4.94}]",220639.60000038147,1669843259413,omelette,rigatoni,3.66,4.94,1.2800000000000002,rigatoni,2081.7999997138977,2082,2082.2999997138977,True,i,223228.2000002861,2588.5999999046326,1669843262002,2589,HRV,HRV_0306,2022-11-30 21:24:14
95,"[{'imgObject': {}, 'id': 'popsicles', 'src': '/static/foodstim60/popsicles.jpg', 'key': 'u', 'origWidth': 410, 'origHeight': 410, 'width': 410, 'height': 410, 'widthPercent': 0.45, 'rescaleHeight': False, 'trialN': 95, 'loaded': True, 'loadedTime': 5640, 'positionName': 'LEFT', 'positionCoords': [142.96, 227], 'bid': 0.08}, {'imgObject': {}, 'id': 'luckycharms', 'src': '/static/foodstim60/luckycharms.jpg', 'key': 'i', 'origWidth': 410, 'origHeight': 409, 'width': 410, 'height': 409, 'widthPercent': 0.45, 'rescaleHeight': False, 'trialN': 95, 'loaded': True, 'loadedTime': 5458.10000038147, 'positionName': 'RIGHT', 'positionCoords': [599.04, 227.5], 'bid': 0.06}]",223228.5,1669843262002,popsicles,luckycharms,0.08,0.06,-0.020000000000000004,luckycharms,1517.3000001907349,1518,1517.9000000953674,True,i,225257.0,2028.5,1669843264030,2028,HRV,HRV_0306,2022-11-30 21:24:14
96,"[{'imgObject': {}, 'id': 'chicken nuggets2', 'src': '/static/foodstim60/chicken nuggets2.jpg', 'key': 'u', 'origWidth': 410, 'origHeight': 409, 'width': 410, 'height': 409, 'widthPercent': 0.45, 'rescaleHeight': False, 'trialN': 96, 'loaded': True, 'loadedTime': 5659.900000095367, 'positionName': 'LEFT', 'positionCoords': [142.96, 227.5], 'bid': 8.950000000000001}, {'imgObject': {}, 'id': 'steak', 'src': '/static/foodstim60/steak.jpg', 'key': 'i', 'origWidth': 410, 'origHeight': 410, 'width': 410, 'height': 410, 'widthPercent': 0.45, 'rescaleHeight': False, 'trialN': 96, 'loaded': True, 'loadedTime': 5204.700000286102, 'positionName': 'RIGHT', 'positionCoords': [599.04, 227], 'bid': 9.72}]",225257.2000002861,1669843264030,chicken nuggets2,steak,8.950000000000001,9.72,0.7699999999999996,chicken nuggets2,1720.0999999046326,1721,1720.5999999046326,True,u,227478.30000019073,2221.0999999046326,1669843266252,2222,HRV,HRV_0306,2022-11-30 21:24:14
97,"[{'imgObject': {}, 'id': 'mango', 'src': '/static/foodstim60/mango.jpg', 'key': 'u', 'origWidth': 411, 'origHeight': 411, 'width': 411, 'height': 411, 'widthPercent': 0.45, 'rescaleHeight': False, 'trialN': 97, 'loaded': True, 'loadedTime': 5443.200000286102, 'positionName': 'LEFT', 'positionCoords': [141.96, 226.5], 'bid': 0.5}, {'imgObject': {}, 'id': 'eggsalad', 'src': '/static/foodstim60/eggsalad.jpg', 'key': 'i', 'origWidth': 410, 'origHeight': 409, 'width': 410, 'height': 409, 'widthPercent': 0.45, 'rescaleHeight': False, 'trialN': 97, 'loaded': True, 'loadedTime': 5512.300000190735, 'positionName': 'RIGHT', 'positionCoords': [599.04, 227.5], 'bid': 5}]",227478.5,1669843266252,mango,eggsalad,0.5,5.0,4.5,eggsalad,1706.8000001907349,1707,1707.2000002861023,True,i,229696.90000009537,2218.4000000953674,1669843268470,2218,HRV,HRV_0306,2022-11-30 21:24:14
98,"[{'imgObject': {}, 'id': 'cantaloupe', 'src': '/static/foodstim60/cantaloupe.jpg', 'key': 'u', 'origWidth': 409, 'origHeight': 409, 'width': 409, 'height': 409, 'widthPercent': 0.45, 'rescaleHeight': False, 'trialN': 98, 'loaded': True, 'loadedTime': 5385.60000038147, 'positionName': 'LEFT', 'positionCoords': [143.96, 227.5], 'bid': 0.31}, {'imgObject': {}, 'id': 'raspberries', 'src': '/static/foodstim60/raspberries.jpg', 'key': 'i', 'origWidth': 411, 'origHeight': 411, 'width': 411, 'height': 411, 'widthPercent': 0.45, 'rescaleHeight': False, 'trialN': 98, 'loaded': True, 'loadedTime': 5645.300000190735, 'positionName': 'RIGHT', 'positionCoords': [599.04, 226.5], 'bid': 0.8300000000000001}]",229697.10000038147,1669843268470,cantaloupe,raspberries,0.31,0.8300000000000001,0.52,cantaloupe,2664,2665,2664.699999809265,True,u,232866.2000002861,3169.0999999046326,1669843271640,3170,HRV,HRV_0306,2022-11-30 21:24:14
99,"[{'imgObject': {}, 'id': 'steak', 'src': '/static/foodstim60/steak.jpg', 'key': 'u', 'origWidth': 410, 'origHeight': 410, 'width': 410, 'height': 410, 'widthPercent': 0.45, 'rescaleHeight': False, 'trialN': 99, 'loaded': True, 'loadedTime': 5210.700000286102, 'positionName': 'LEFT', 'positionCoords': [142.96, 227], 'bid': 9.72}, {'imgObject': {}, 'id': 'Tribe humus pita', 'src': '/static/foodstim60/Tribe humus pita.jpg', 'key': 'i', 'origWidth': 411, 'origHeight': 411, 'width': 411, 'height': 411, 'widthPercent': 0.45, 'rescaleHeight': False, 'trialN': 99, 'loaded': True, 'loadedTime': 5465.10000038147, 'positionName': 'RIGHT', 'positionCoords': [599.04, 226.5], 'bid': 5.64}]",232866.5,1669843271640,steak,Tribe humus pita,9.72,5.64,-4.080000000000001,steak,1438.6000003814697,1439,1439.2000002861023,True,u,234813.7000002861,1947.2000002861023,1669843273587,1947,HRV,HRV_0306,2022-11-30 21:24:14
100,"[{'imgObject': {}, 'id': 'cantaloupe', 'src': '/static/foodstim60/cantaloupe.jpg', 'key': 'u', 'origWidth': 409, 'origHeight': 409, 'width': 409, 'height': 409, 'widthPercent': 0.45, 'rescaleHeight': False, 'trialN': 100, 'loaded': True, 'loadedTime': 5385, 'positionName': 'LEFT', 'positionCoords': [143.96, 227.5], 'bid': 0.31}, {'imgObject': {}, 'id': 'apple slices', 'src': '/static/foodstim60/apple slices.jpg', 'key': 'i', 'origWidth': 409, 'origHeight': 410, 'width': 409, 'height': 410, 'widthPercent': 0.45, 'rescaleHeight': False, 'trialN': 100, 'loaded': True, 'loadedTime': 5335.10000038147, 'positionName': 'RIGHT', 'positionCoords': [599.04, 227], 'bid': 1.09}]",234813.90000009537,1669843273587,cantaloupe,apple slices,0.31,1.09,0.78,cantaloupe,2243.5,2244,2244.0,True,u,237569.10000038147,2755.2000002861023,1669843276342,2755,HRV,HRV_0306,2022-11-30 21:24:14
101,"[{'imgObject': {}, 'id': 'bagel plain', 'src': '/static/foodstim60/bagel plain.jpg', 'key': 'u', 'origWidth': 410, 'origHeight': 410, 'width': 410, 'height': 410, 'widthPercent': 0.45, 'rescaleHeight': False, 'trialN': 101, 'loaded': True, 'loadedTime': 5218.400000095367, 'positionName': 'LEFT', 'positionCoords': [142.96, 227], 'bid': 2.08}, {'imgObject': {}, 'id': 'omelette', 'src': '/static/foodstim60/omelette.jpg', 'key': 'i', 'origWidth': 410, 'origHeight': 409, 'width': 410, 'height': 409, 'widthPercent': 0.45, 'rescaleHeight': False, 'trialN': 101, 'loaded': True, 'loadedTime': 4980, 'positionName': 'RIGHT', 'positionCoords': [599.04, 227.5], 'bid': 3.66}]",237569.30000019073,1669843276343,bagel plain,omelette,2.08,3.66,1.58,bagel plain,1855.6999998092651,1861,1856.4000000953674,True,u,239931.10000038147,2361.800000190735,1669843278710,2367,HRV,HRV_0306,2022-11-30 21:24:14
102,"[{'imgObject': {}, 'id': 'raisin bran w milk', 'src': '/static/foodstim60/raisin bran w milk.jpg', 'key': 'u', 'origWidth': 411, 'origHeight': 411, 'width': 411, 'height': 411, 'widthPercent': 0.45, 'rescaleHeight': False, 'trialN': 102, 'loaded': True, 'loadedTime': 5645, 'positionName': 'LEFT', 'positionCoords': [141.96, 226.5], 'bid': 0.24}, {'imgObject': {}, 'id': 'rigatoni', 'src': '/static/foodstim60/rigatoni.jpg', 'key': 'i', 'origWidth': 411, 'origHeight': 411, 'width': 411, 'height': 411, 'widthPercent': 0.45, 'rescaleHeight': False, 'trialN': 102, 'loaded': True, 'loadedTime': 5570.60000038147, 'positionName': 'RIGHT', 'positionCoords': [599.04, 226.5], 'bid': 4.94}]",239931.40000009537,1669843278710,raisin bran w milk,rigatoni,0.24,4.94,4.7,raisin bran w milk,1341.5,1342,1342.2000002861023,True,u,241786.5,1855.0999999046326,1669843280565,1855,HRV,HRV_0306,2022-11-30 21:24:14
103,"[{'imgObject': {}, 'id': 'baked potato', 'src': '/static/foodstim60/baked potato.jpg', 'key': 'u', 'origWidth': 409, 'origHeight': 410, 'width': 409, 'height': 410, 'widthPercent': 0.45, 'rescaleHeight': False, 'trialN': 103, 'loaded': True, 'loadedTime': 5548.60000038147, 'positionName': 'LEFT', 'positionCoords': [143.96, 227], 'bid': 5.01}, {'imgObject': {}, 'id': 'avocado', 'src': '/static/foodstim60/avocado.jpg', 'key': 'i', 'origWidth': 409, 'origHeight': 409, 'width': 409, 'height': 409, 'widthPercent': 0.45, 'rescaleHeight': False, 'trialN': 103, 'loaded': True, 'loadedTime': 5635.5, 'positionName': 'RIGHT', 'positionCoords': [599.04, 227.5], 'bid': 5.2700000000000005}]",241786.80000019073,1669843280565,baked potato,avocado,5.01,5.2700000000000005,0.2600000000000007,baked potato,2262.0999999046326,2263,2262.699999809265,True,u,244559.2000002861,2772.4000000953674,1669843283338,2773,HRV,HRV_0306,2022-11-30 21:24:14
104,"[{'imgObject': {}, 'id': 'salmon', 'src': '/static/foodstim60/salmon.jpg', 'key': 'u', 'origWidth': 410, 'origHeight': 409, 'width': 410, 'height': 409, 'widthPercent': 0.45, 'rescaleHeight': False, 'trialN': 104, 'loaded': True, 'loadedTime': 5355.10000038147, 'positionName': 'LEFT', 'positionCoords': [142.96, 227.5], 'bid': 9.63}, {'imgObject': {}, 'id': 'fried eggs', 'src': '/static/foodstim60/fried eggs.jpg', 'key': 'i', 'origWidth': 410, 'origHeight': 410, 'width': 410, 'height': 410, 'widthPercent': 0.45, 'rescaleHeight': False, 'trialN': 104, 'loaded': True, 'loadedTime': 5564.200000286102, 'positionName': 'RIGHT', 'positionCoords': [599.04, 227], 'bid': 8.38}]",244559.5,1669843283338,salmon,fried eggs,9.63,8.38,-1.25,salmon,1649.3000001907349,1650,1649.8000001907349,True,u,246719.30000019073,2159.800000190735,1669843285498,2160,HRV,HRV_0306,2022-11-30 21:24:14
105,"[{'imgObject': {}, 'id': 'rigatoni and sauce', 'src': '/static/foodstim60/rigatoni and sauce.jpg', 'key': 'u', 'origWidth': 410, 'origHeight': 411, 'width': 410, 'height': 411, 'widthPercent': 0.45, 'rescaleHeight': False, 'trialN': 105, 'loaded': True, 'loadedTime': 5237.700000286102, 'positionName': 'LEFT', 'positionCoords': [142.96, 226.5], 'bid': 9.68}, {'imgObject': {}, 'id': 'blackbeanswithrice', 'src': '/static/foodstim60/blackbeanswithrice.jpg', 'key': 'i', 'origWidth': 410, 'origHeight': 410, 'width': 410, 'height': 410, 'widthPercent': 0.45, 'rescaleHeight': False, 'trialN': 105, 'loaded': True, 'loadedTime': 5581.900000095367, 'positionName': 'RIGHT', 'positionCoords': [599.04, 227], 'bid': 7.67}]",246719.5,1669843285498,rigatoni and sauce,blackbeanswithrice,9.68,7.67,-2.01,rigatoni and sauce,3009.5,3010,3010.0,True,u,250238.30000019073,3518.800000190735,1669843289017,3519,HRV,HRV_0306,2022-11-30 21:24:14
106,"[{'imgObject': {}, 'id': 'raisin bran w milk', 'src': '/static/foodstim60/raisin bran w milk.jpg', 'key': 'u', 'origWidth': 411, 'origHeight': 411, 'width': 411, 'height': 411, 'widthPercent': 0.45, 'rescaleHeight': False, 'trialN': 106, 'loaded': True, 'loadedTime': 5640.300000190735, 'positionName': 'LEFT', 'positionCoords': [141.96, 226.5], 'bid': 0.24}, {'imgObject': {}, 'id': 'cherries', 'src': '/static/foodstim60/cherries.jpg', 'key': 'i', 'origWidth': 410, 'origHeight': 411, 'width': 410, 'height': 411, 'widthPercent': 0.45, 'rescaleHeight': False, 'trialN': 106, 'loaded': True, 'loadedTime': 5588.5, 'positionName': 'RIGHT', 'positionCoords': [599.04, 226.5], 'bid': 0.74}]",250238.60000038147,1669843289017,raisin bran w milk,cherries,0.24,0.74,0.5,raisin bran w milk,2234,2234,2234.5,True,u,252986.40000009537,2747.7999997138977,1669843291765,2748,HRV,HRV_0306,2022-11-30 21:24:14
107,"[{'imgObject': {}, 'id': 'bagel plain', 'src': '/static/foodstim60/bagel plain.jpg', 'key': 'u', 'origWidth': 410, 'origHeight': 410, 'width': 410, 'height': 410, 'widthPercent': 0.45, 'rescaleHeight': False, 'trialN': 107, 'loaded': True, 'loadedTime': 5220.800000190735, 'positionName': 'LEFT', 'positionCoords': [142.96, 227], 'bid': 2.08}, {'imgObject': {}, 'id': 'raspberries', 'src': '/static/foodstim60/raspberries.jpg', 'key': 'i', 'origWidth': 411, 'origHeight': 411, 'width': 411, 'height': 411, 'widthPercent': 0.45, 'rescaleHeight': False, 'trialN': 107, 'loaded': True, 'loadedTime': 5647.900000095367, 'positionName': 'RIGHT', 'positionCoords': [599.04, 226.5], 'bid': 0.8300000000000001}]",252986.5,1669843291765,bagel plain,raspberries,2.08,0.8300000000000001,-1.25,bagel plain,1134,1135,1134.8000001907349,True,u,254625.40000009537,1638.9000000953674,1669843293404,1639,HRV,HRV_0306,2022-11-30 21:24:14
108,"[{'imgObject': {}, 'id': 'mac & cheese', 'src': '/static/foodstim60/mac & cheese.jpg', 'key': 'u', 'origWidth': 410, 'origHeight': 410, 'width': 410, 'height': 410, 'widthPercent': 0.45, 'rescaleHeight': False, 'trialN': 108, 'loaded': True, 'loadedTime': 5349.10000038147, 'positionName': 'LEFT', 'positionCoords': [142.96, 227], 'bid': 5.36}, {'imgObject': {}, 'id': 'blackbeanswithrice', 'src': '/static/foodstim60/blackbeanswithrice.jpg', 'key': 'i', 'origWidth': 410, 'origHeight': 410, 'width': 410, 'height': 410, 'widthPercent': 0.45, 'rescaleHeight': False, 'trialN': 108, 'loaded': True, 'loadedTime': 5579.800000190735, 'positionName': 'RIGHT', 'positionCoords': [599.04, 227], 'bid': 7.67}]",254625.7000002861,1669843293404,mac & cheese,blackbeanswithrice,5.36,7.67,2.3099999999999996,blackbeanswithrice,3326.7999997138977,3327,3327.199999809265,True,i,258468.0,3842.2999997138977,1669843297246,3842,HRV,HRV_0306,2022-11-30 21:24:14
