success,trial_type,trial_index,time_elapsed,internal_node_id,missTrial,missTrialMsg,Block,TrialNumber,TrialTime,trialTimeDiff,FPS_avg,FPS_med,FPS_mode,TrialDur,winResizeTime,rt,block,button_pressed,MotCoh,MotDir,ColCoh,Color,ChoiceKey,Choice,Accuracy,RT,nFrames,FPS,PPD,onsetDelay,fullScreenExitTime,canvCenter,TrialType,Score,BlockTrial,stimulus,button_labels,exp,subjectId,date
True,fullscreen,0,32423,0.0-0.0,True,undefinedblurEvent ,0.0,0.0,,,,,,,,,,,,,,,,,,,,,,,,,,,,,,HRV,HRV_0306,2022-11-30 21:52:39
,wl-check-fps,1,36439,0.0-1.0,,,0.0,1.0,"[33934.8, 33945, 33952.9, 33967.2, 33979.3, 33992.8, 34006.3, 34019.6, 34045.5, 34050.8, 34082.2, 34088.4, 34106.9, 34118.7, 34127.2, 34139.1, 34152.1, 34166.2, 34179.1, 34192.1, 34207.1, 34219.3, 34233.3, 34246.3, 34259.3, 34272.2, 34286.9, 34300.5, 34312.4, 34326.3, 34344.1, 34353.9, 34370.6, 34383.4, 34393.9, 34405.9, 34418.9, 34432, 34446, 34459, 34472.1, 34486.1, 34499, 34512.1, 34527.4, 34539, 34552.1, 34566, 34579, 34592.4, 34606.1, 34619, 34632, 34646.1, 34659, 34672.7, 34686.1, 34699, 34712.9, 34726.2, 34739, 34752.9, 34766.2, 34779, 34792.7, 34809.8, 34819, 34832.7, 34846, 34859, 34872.2, 34886.1, 34899, 34912.8, 34926, 34939, 34952.8, 34966.1, 34979.1, 34992.7, 35009, 35022.2, 35035.7, 35046, 35058.9, 35072, 35086, 35099.1, 35113.6, 35126.2, 35139.3, 35152.2, 35166.3, 35179.2, 35192.2, 35206.2, 35219.3, 35232.2, 35246.2, 35259.2, 35272.1, 35286.2, 35299.2, 35312.3, 35327.1, 35340.6, 35353, 35367.2, 35380.2, 35393, 35407.1, 35419, 35432.5, 35446.1, 35459, 35472.8, 35486.1, 35499, 35512.7, 35529.8, 35543.3, 35556.1, 35566, 35582.3, 35595.3, 35606, 35619, 35632.1, 35646.1, 35659.1, 35672.1, 35686.1, 35699, 35712.7, 35726, 35739.1, 35752.1, 35766.1, 35779.1, 35792.1, 35810.8, 35819.2, 35832, 35846.1, 35859.2, 35872, 35886.1, 35899.2, 35912.2, 35926.2, 35939.1, 35952.1, 35966.1, 35979.1, 35992.2, 36006.1, 36019.1, 36032.3, 36046.2, 36059.1, 36072.1, 36086.1, 36099.1, 36112.2, 36126.1, 36139.1, 36152.1, 36166.1, 36179.2, 36192.1, 36206.1, 36219.1, 36232.2, 36246.2, 36259.2, 36272.1, 36286.1, 36299.1, 36312.1, 36326.1, 36339.2, 36352.1, 36366.2, 36379.1, 36392.1, 36406.2, 36419, 36432.1, 36446.2, 36459.1, 36472.1, 36486.2, 36499.1, 36512.1, 36528, 36539.2, 36552.3, 36566.2, 36579.1, 36592.1, 36606.2, 36619.1, 36632.8, 36646.1, 36659.1, 36672.2, 36686.2, 36699.2, 36712.3, 36726.2, 36739.2, 36752.3, 36766.1, 36779.1, 36792.3, 36810.4, 36819.2, 36832.2, 36846.2, 36859.1, 36872.8, 36886.1, 36899.1, 36912.2, 36926.1, 36942.6, 36956.3, 36969.1, 36981.3, 36992, 37006.1, 37019.2, 37032, 37046.2, 37059.1, 37072.2, 37086.3, 37099.1, 37112.2, 37126.1, 37139.2, 37152, 37166.2, 37179.2, 37192, 37206.2, 37219.2, 37232.1, 37246.2, 37259.2, 37272.2, 37286.2, 37299.2, 37312.2, 37326.1, 37339.1, 37352.3, 37366.2, 37379.3, 37393, 37406.1, 37419.2, 37432.2, 37446.1, 37459.2, 37472.3, 37486.2, 37499.1, 37512.2, 37526.5, 37539.1, 37552.2, 37566.3, 37580.3, 37592.7, 37609.2, 37622.2, 37632.4, 37645.6, 37660.3, 37672.3, 37686.3, 37700.2, 37712.3, 37726.3, 37740.3, 37752.3, 37766.2, 37783.3, 37795.7, 37809.2, 37823.3, 37832.5, 37846.3, 37859.1, 37872.1, 37886.2, 37899.2, 37912.3, 37926.3]","[5.7, 10.2, 7.9, 14.3, 12.1, 13.5, 13.5, 13.3, 25.9, 5.3, 31.4, 6.2, 18.5, 11.8, 8.5, 11.9, 13, 14.1, 12.9, 13, 15, 12.2, 14, 13, 13, 12.9, 14.7, 13.6, 11.9, 13.9, 17.8, 9.8, 16.7, 12.8, 10.5, 12, 13, 13.1, 14, 13, 13.1, 14, 12.9, 13.1, 15.3, 11.6, 13.1, 13.9, 13, 13.4, 13.7, 12.9, 13, 14.1, 12.9, 13.7, 13.4, 12.9, 13.9, 13.3, 12.8, 13.9, 13.3, 12.8, 13.7, 17.1, 9.2, 13.7, 13.3, 13, 13.2, 13.9, 12.9, 13.8, 13.2, 13, 13.8, 13.3, 13, 13.6, 16.3, 13.2, 13.5, 10.3, 12.9, 13.1, 14, 13.1, 14.5, 12.6, 13.1, 12.9, 14.1, 12.9, 13, 14, 13.1, 12.9, 14, 13, 12.9, 14.1, 13, 13.1, 14.8, 13.5, 12.4, 14.2, 13, 12.8, 14.1, 11.9, 13.5, 13.6, 12.9, 13.8, 13.3, 12.9, 13.7, 17.1, 13.5, 12.8, 9.9, 16.3, 13, 10.7, 13, 13.1, 14, 13, 13, 14, 12.9, 13.7, 13.3, 13.1, 13, 14, 13, 13, 18.7, 8.4, 12.8, 14.1, 13.1, 12.8, 14.1, 13.1, 13, 14, 12.9, 13, 14, 13, 13.1, 13.9, 13, 13.2, 13.9, 12.9, 13, 14, 13, 13.1, 13.9, 13, 13, 14, 13.1, 12.9, 14, 13, 13.1, 14, 13, 12.9, 14, 13, 13, 14, 13.1, 12.9, 14.1, 12.9, 13, 14.1, 12.8, 13.1, 14.1, 12.9, 13, 14.1, 12.9, 13, 15.9, 11.2, 13.1, 13.9, 12.9, 13, 14.1, 12.9, 13.7, 13.3, 13, 13.1, 14, 13, 13.1, 13.9, 13, 13.1, 13.8, 13, 13.2, 18.1, 8.8, 13, 14, 12.9, 13.7, 13.3, 13, 13.1, 13.9, 16.5, 13.7, 12.8, 12.2, 10.7, 14.1, 13.1, 12.8, 14.2, 12.9, 13.1, 14.1, 12.8, 13.1, 13.9, 13.1, 12.8, 14.2, 13, 12.8, 14.2, 13, 12.9, 14.1, 13, 13, 14, 13, 13, 13.9, 13, 13.2, 13.9, 13.1, 13.7, 13.1, 13.1, 13, 13.9, 13.1, 13.1, 13.9, 12.9, 13.1, 14.3, 12.6, 13.1, 14.1, 14, 12.4, 16.5, 13, 10.2, 13.2, 14.7, 12, 14, 13.9, 12.1, 14, 14, 12, 13.9, 17.1, 12.4, 13.5, 14.1, 9.2, 13.8, 12.8, 13, 14.1, 13, 13.1, 14]",75.0,74.0,77.0,4010.2,[],,,,,,,,,,,,,,,,,,,,,,,HRV,HRV_0306,2022-11-30 21:52:39
,wl-html-keyboard-response,2,55709,0.0-2.0-0.0,,,0.0,2.0,,,,,,,,17247.800000190735,0.0,0,,,,,,,,,,,,,,,,,,,,HRV,HRV_0306,2022-11-30 21:52:39
,wl-rdm,3,66635,0.0-3.0-0.0,False,,0.0,3.0,,,,,,,[],,,,0.0,0.0,87.9,0.0,u,0.0,True,5344.300000190735,399.0,77.0,40.0,3000.0,[],"[576, 432]",ColorTask_Demo,,,,,HRV,HRV_0306,2022-11-30 21:52:39
,wl-rdm,4,72222,0.0-3.0-1.0,False,,0.0,4.0,,,,,,,[],,,,0.0,0.0,87.9,1.0,i,1.0,True,1512.5999999046326,112.0,77.0,40.0,2000.0,[],"[576, 432]",ColorTask_Demo,,,,,HRV,HRV_0306,2022-11-30 21:52:39
,wl-html-keyboard-response,5,81252,0.0-3.0-2.0,,,0.0,5.0,,,,,,,,7021.299999713898,0.0,1,,,,,,,,,,,,,,,,,,,,HRV,HRV_0306,2022-11-30 21:52:39
,wl-html-keyboard-response,6,93996,0.0-4.0-0.0,,,0.0,6.0,,,,,,,,10734.89999961853,0.0,0,,,,,,,,,,,,,,,,,,,,HRV,HRV_0306,2022-11-30 21:52:39
,wl-html-keyboard-response,7,102148,0.0-5.0-0.0,,,0.0,7.0,,,,,,,,6142.5,0.0,0,,,,,,,,,,,,,,,,,,,,HRV,HRV_0306,2022-11-30 21:52:39
,wl-rdm,8,104354,0.0-6.0-0.0,False,,0.0,8.0,,,,,,,[],,,,,,56.4,1.0,i,1.0,True,781.4999995231628,58.0,77.0,40.0,361.59221970392724,[],"[576, 432]",ColorTask,1.0,1.0,,,HRV,HRV_0306,2022-11-30 21:52:39
,wl-rdm,9,106674,0.0-6.1-0.1,False,,0.0,9.0,,,,,,,[],,,,,,53.2,0.0,i,1.0,False,954.6000003814697,72.0,77.0,40.0,310.4761014527048,[],"[576, 432]",ColorTask,0.0,2.0,,,HRV,HRV_0306,2022-11-30 21:52:39
,wl-rdm,10,109235,0.0-6.2-0.2,False,,0.0,10.0,,,,,,,[],,,,,,73.6,1.0,i,1.0,True,1154.2999997138977,87.0,77.0,40.0,349.70456763505996,[],"[576, 432]",ColorTask,1.0,3.0,,,HRV,HRV_0306,2022-11-30 21:52:39
,wl-rdm,11,111355,0.0-6.3-0.3,False,,0.0,11.0,,,,,,,[],,,,,,73.6,1.0,i,1.0,True,848.2000002861023,64.0,77.0,40.0,225.7715535075701,[],"[576, 432]",ColorTask,2.0,4.0,,,HRV,HRV_0306,2022-11-30 21:52:39
,wl-rdm,12,113541,0.0-6.4-0.4,False,,0.0,12.0,,,,,,,[],,,,,,50.0,1.0,i,1.0,True,766.4000000953674,58.0,77.0,40.0,363.63391368245243,[],"[576, 432]",ColorTask,3.0,5.0,,,HRV,HRV_0306,2022-11-30 21:52:39
,wl-rdm,13,115555,0.0-6.5-0.5,False,,0.0,13.0,,,,,,,[],,,,,,50.0,1.0,i,1.0,True,684.7000002861023,52.0,77.0,40.0,277.7736269395601,[],"[576, 432]",ColorTask,4.0,6.0,,,HRV,HRV_0306,2022-11-30 21:52:39
,wl-rdm,14,117942,0.0-6.6-0.6,False,,0.0,14.0,,,,,,,[],,,,,,56.4,0.0,i,1.0,False,1111.8000001907349,83.0,77.0,40.0,229.19976160387017,[],"[576, 432]",ColorTask,3.0,7.0,,,HRV,HRV_0306,2022-11-30 21:52:39
,wl-rdm,15,120128,0.0-6.7-0.7,False,,0.0,15.0,,,,,,,[],,,,,,56.4,0.0,i,1.0,False,816.8999996185303,62.0,77.0,40.0,319.26028985289867,[],"[576, 432]",ColorTask,2.0,8.0,,,HRV,HRV_0306,2022-11-30 21:52:39
,wl-rdm,16,122062,0.0-6.8-0.8,False,,0.0,16.0,,,,,,,[],,,,,,53.2,0.0,u,0.0,True,643.4000000953674,49.0,77.0,40.0,244.40212220912963,[],"[576, 432]",ColorTask,3.0,9.0,,,HRV,HRV_0306,2022-11-30 21:52:39
,wl-rdm,17,123995,0.0-6.9-0.9,False,,0.0,17.0,,,,,,,[],,,,,,62.5,1.0,u,0.0,False,590.8999996185303,45.0,77.0,40.0,293.93435507016255,[],"[576, 432]",ColorTask,2.0,10.0,,,HRV,HRV_0306,2022-11-30 21:52:39
,wl-rdm,18,126821,0.0-6.10-0.10,False,,0.0,18.0,,,,,,,[],,,,,,53.2,0.0,i,1.0,False,1387.3999996185303,104.0,77.0,40.0,384.0752727084713,[],"[576, 432]",ColorTask,1.0,11.0,,,HRV,HRV_0306,2022-11-30 21:52:39
,wl-rdm,19,129661,0.0-6.11-0.11,False,,0.0,19.0,,,,,,,[],,,,,,87.9,0.0,u,0.0,True,1530.0,114.0,77.0,40.0,241.71572308203898,[],"[576, 432]",ColorTask,2.0,12.0,,,HRV,HRV_0306,2022-11-30 21:52:39
,wl-rdm,20,131902,0.0-6.12-0.12,False,,0.0,20.0,,,,,,,[],,,,,,56.4,1.0,i,1.0,True,939.6000003814697,71.0,77.0,40.0,243.48297327612212,[],"[576, 432]",ColorTask,3.0,13.0,,,HRV,HRV_0306,2022-11-30 21:52:39
,wl-rdm,21,134768,0.0-6.13-0.13,False,,0.0,21.0,,,,,,,[],,,,,,73.6,0.0,i,1.0,False,1564.0999999046326,118.0,77.0,40.0,240.44819666935103,[],"[576, 432]",ColorTask,2.0,14.0,,,HRV,HRV_0306,2022-11-30 21:52:39
,wl-rdm,22,137275,0.0-6.14-0.14,False,,0.0,22.0,,,,,,,[],,,,,,87.9,0.0,u,0.0,True,1062.0,79.0,77.0,40.0,399.80979218652124,[],"[576, 432]",ColorTask,3.0,15.0,,,HRV,HRV_0306,2022-11-30 21:52:39
,wl-rdm,23,139461,0.0-6.15-0.15,False,,0.0,23.0,,,,,,,[],,,,,,73.6,0.0,u,0.0,True,906.4000000953674,68.0,77.0,40.0,238.84913705024925,[],"[576, 432]",ColorTask,4.0,16.0,,,HRV,HRV_0306,2022-11-30 21:52:39
,wl-rdm,24,141768,0.0-6.16-0.16,False,,0.0,24.0,,,,,,,[],,,,,,62.5,1.0,u,0.0,False,858.0999999046326,64.0,77.0,40.0,392.6817400376209,[],"[576, 432]",ColorTask,3.0,17.0,,,HRV,HRV_0306,2022-11-30 21:52:39
,wl-rdm,25,144101,0.0-6.17-0.17,False,,0.0,25.0,,,,,,,[],,,,,,87.9,0.0,u,0.0,True,1061.5999999046326,80.0,77.0,40.0,230.36102245811603,[],"[576, 432]",ColorTask,4.0,18.0,,,HRV,HRV_0306,2022-11-30 21:52:39
,wl-rdm,26,146289,0.0-6.18-0.18,False,,0.0,26.0,,,,,,,[],,,,,,87.9,1.0,i,1.0,True,810.9000000953674,61.0,77.0,40.0,331.0115755230252,[],"[576, 432]",ColorTask,5.0,19.0,,,HRV,HRV_0306,2022-11-30 21:52:39
,wl-rdm,27,148568,0.0-6.19-0.19,False,,0.0,27.0,,,,,,,[],,,,,,87.9,0.0,u,0.0,True,991.4999995231628,75.0,77.0,40.0,227.31717970487134,[],"[576, 432]",ColorTask,6.0,20.0,,,HRV,HRV_0306,2022-11-30 21:52:39
,wl-rdm,28,151062,0.0-6.20-0.20,False,,0.0,28.0,,,,,,,[],,,,,,50.0,1.0,u,0.0,False,1173.4000000953674,86.0,77.0,40.0,276.63956697608984,[],"[576, 432]",ColorTask,5.0,21.0,,,HRV,HRV_0306,2022-11-30 21:52:39
,wl-rdm,29,153261,0.0-6.21-0.21,False,,0.0,29.0,,,,,,,[],,,,,,73.6,1.0,i,1.0,True,853.6000003814697,64.0,77.0,40.0,305.3475879809289,[],"[576, 432]",ColorTask,6.0,22.0,,,HRV,HRV_0306,2022-11-30 21:52:39
,wl-rdm,30,155487,0.0-6.22-0.22,False,,0.0,30.0,,,,,,,[],,,,,,56.4,1.0,i,1.0,True,964.8000001907349,72.0,77.0,40.0,203.14624175028362,[],"[576, 432]",ColorTask,7.0,23.0,,,HRV,HRV_0306,2022-11-30 21:52:39
,wl-rdm,31,157648,0.0-6.23-0.23,False,,0.0,31.0,,,,,,,[],,,,,,73.6,0.0,u,0.0,True,904.3000001907349,67.0,77.0,40.0,210.93864503387297,[],"[576, 432]",ColorTask,8.0,24.0,,,HRV,HRV_0306,2022-11-30 21:52:39
,wl-rdm,32,160553,0.0-6.24-0.24,False,,0.0,32.0,,,,,,,[],,,,,,62.5,0.0,u,0.0,True,1565.3999996185303,117.0,77.0,40.0,289.1465500566499,[],"[576, 432]",ColorTask,9.0,25.0,,,HRV,HRV_0306,2022-11-30 21:52:39
,wl-rdm,33,162928,0.0-6.25-0.25,False,,0.0,33.0,,,,,,,[],,,,,,62.5,0.0,i,1.0,False,967.5000004768372,73.0,77.0,40.0,361.6421219233699,[],"[576, 432]",ColorTask,8.0,26.0,,,HRV,HRV_0306,2022-11-30 21:52:39
,wl-rdm,34,165807,0.0-6.26-0.26,False,,0.0,34.0,,,,,,,[],,,,,,53.2,0.0,u,0.0,True,1563.8999996185303,116.0,77.0,40.0,265.6385827889475,[],"[576, 432]",ColorTask,9.0,27.0,,,HRV,HRV_0306,2022-11-30 21:52:39
,wl-rdm,35,168207,0.0-6.27-0.27,False,,0.0,35.0,,,,,,,[],,,,,,87.9,1.0,i,1.0,True,979.0,74.0,77.0,40.0,365.9400735122821,[],"[576, 432]",ColorTask,10.0,28.0,,,HRV,HRV_0306,2022-11-30 21:52:39
,wl-rdm,36,170674,0.0-6.28-0.28,False,,0.0,36.0,,,,,,,[],,,,,,87.9,0.0,u,0.0,True,1154.8000001907349,87.0,77.0,40.0,254.93173963134907,[],"[576, 432]",ColorTask,11.0,29.0,,,HRV,HRV_0306,2022-11-30 21:52:39
,wl-rdm,37,173127,0.0-6.29-0.29,False,,0.0,37.0,,,,,,,[],,,,,,73.6,1.0,i,1.0,True,1104.4000000953674,83.0,77.0,40.0,296.43924452152663,[],"[576, 432]",ColorTask,12.0,30.0,,,HRV,HRV_0306,2022-11-30 21:52:39
,wl-rdm,38,175741,0.0-6.30-0.30,False,,0.0,38.0,,,,,,,[],,,,,,53.2,1.0,i,1.0,True,1306.300000667572,97.0,77.0,40.0,261.48930545309895,[],"[576, 432]",ColorTask,13.0,31.0,,,HRV,HRV_0306,2022-11-30 21:52:39
,wl-rdm,39,178354,0.0-6.31-0.31,False,,0.0,39.0,,,,,,,[],,,,,,62.5,0.0,i,1.0,False,1328.0,99.0,77.0,40.0,227.24398699056994,[],"[576, 432]",ColorTask,12.0,32.0,,,HRV,HRV_0306,2022-11-30 21:52:39
,wl-rdm,40,180782,0.0-6.32-0.32,False,,0.0,40.0,,,,,,,[],,,,,,56.4,0.0,i,1.0,False,1153.0999999046326,87.0,77.0,40.0,214.60622047427515,[],"[576, 432]",ColorTask,11.0,33.0,,,HRV,HRV_0306,2022-11-30 21:52:39
,wl-rdm,41,183475,0.0-6.33-0.33,False,,0.0,41.0,,,,,,,[],,,,,,50.0,0.0,u,0.0,True,1407.6999998092651,106.0,77.0,40.0,239.16395456118317,[],"[576, 432]",ColorTask,12.0,34.0,,,HRV,HRV_0306,2022-11-30 21:52:39
,wl-rdm,42,186195,0.0-6.34-0.34,False,,0.0,42.0,,,,,,,[],,,,,,50.0,0.0,i,1.0,False,1367.6000003814697,103.0,77.0,40.0,299.4722618917953,[],"[576, 432]",ColorTask,11.0,35.0,,,HRV,HRV_0306,2022-11-30 21:52:39
,wl-rdm,43,188528,0.0-6.35-0.35,False,,0.0,43.0,,,,,,,[],,,,,,53.2,1.0,i,1.0,True,1058.8999996185303,80.0,77.0,40.0,215.9624114811129,[],"[576, 432]",ColorTask,12.0,36.0,,,HRV,HRV_0306,2022-11-30 21:52:39
,wl-rdm,44,190715,0.0-6.36-0.36,False,,0.0,44.0,,,,,,,[],,,,,,50.0,0.0,i,1.0,False,914.1999998092651,69.0,77.0,40.0,219.22449652495797,[],"[576, 432]",ColorTask,11.0,37.0,,,HRV,HRV_0306,2022-11-30 21:52:39
,wl-rdm,45,193541,0.0-6.37-0.37,False,,0.0,45.0,,,,,,,[],,,,,,50.0,1.0,i,1.0,True,1533.4000000953674,115.0,77.0,40.0,245.52183236654668,[],"[576, 432]",ColorTask,12.0,38.0,,,HRV,HRV_0306,2022-11-30 21:52:39
,wl-rdm,46,195901,0.0-6.38-0.38,False,,0.0,46.0,,,,,,,[],,,,,,87.9,1.0,i,1.0,True,932.9000000953674,70.0,77.0,40.0,377.83782414660976,[],"[576, 432]",ColorTask,13.0,39.0,,,HRV,HRV_0306,2022-11-30 21:52:39
,wl-rdm,47,198221,0.0-6.39-0.39,False,,0.0,47.0,,,,,,,[],,,,,,87.9,1.0,i,1.0,True,1076.3999996185303,81.0,77.0,40.0,202.8355503888014,[],"[576, 432]",ColorTask,14.0,40.0,,,HRV,HRV_0306,2022-11-30 21:52:39
,wl-rdm,48,200504,0.0-6.40-0.40,False,,0.0,48.0,,,,,,,[],,,,,,87.9,0.0,u,0.0,True,992.3000001907349,74.0,77.0,40.0,227.7200891664754,[],"[576, 432]",ColorTask,15.0,41.0,,,HRV,HRV_0306,2022-11-30 21:52:39
,wl-rdm,49,203424,0.0-6.41-0.41,False,,0.0,49.0,,,,,,,[],,,,,,62.5,0.0,i,1.0,False,1619.5999999046326,122.0,77.0,40.0,249.4334499286081,[],"[576, 432]",ColorTask,14.0,42.0,,,HRV,HRV_0306,2022-11-30 21:52:39
,wl-rdm,50,206300,0.0-6.42-0.42,False,,0.0,50.0,,,,,,,[],,,,,,50.0,1.0,i,1.0,True,1561.0999999046326,115.0,77.0,40.0,269.3566627911554,[],"[576, 432]",ColorTask,15.0,43.0,,,HRV,HRV_0306,2022-11-30 21:52:39
,wl-rdm,51,208954,0.0-6.43-0.43,False,,0.0,51.0,,,,,,,[],,,,,,62.5,1.0,i,1.0,True,1248.1999998092651,93.0,77.0,40.0,350.1478021686352,[],"[576, 432]",ColorTask,16.0,44.0,,,HRV,HRV_0306,2022-11-30 21:52:39
,wl-rdm,52,211341,0.0-6.44-0.44,False,,0.0,52.0,,,,,,,[],,,,,,50.0,1.0,i,1.0,True,1125.4999995231628,83.0,77.0,40.0,200.74504243191055,[],"[576, 432]",ColorTask,17.0,45.0,,,HRV,HRV_0306,2022-11-30 21:52:39
,wl-rdm,53,213501,0.0-6.45-0.45,False,,0.0,53.0,,,,,,,[],,,,,,50.0,1.0,i,1.0,True,866.8000001907349,65.0,77.0,40.0,245.70901470082245,[],"[576, 432]",ColorTask,18.0,46.0,,,HRV,HRV_0306,2022-11-30 21:52:39
,wl-rdm,54,216021,0.0-6.46-0.46,False,,0.0,54.0,,,,,,,[],,,,,,53.2,1.0,i,1.0,True,1126.8000001907349,85.0,77.0,40.0,338.4570863527977,[],"[576, 432]",ColorTask,19.0,47.0,,,HRV,HRV_0306,2022-11-30 21:52:39
,wl-rdm,55,218583,0.0-6.47-0.47,False,,0.0,55.0,,,,,,,[],,,,,,62.5,1.0,i,1.0,True,1293.8999996185303,97.0,77.0,40.0,222.97931743485236,[],"[576, 432]",ColorTask,20.0,48.0,,,HRV,HRV_0306,2022-11-30 21:52:39
,wl-rdm,56,221100,0.0-6.48-0.48,False,,0.0,56.0,,,,,,,[],,,,,,87.9,1.0,i,1.0,True,1072.4000000953674,81.0,77.0,40.0,396.29271947511324,[],"[576, 432]",ColorTask,21.0,49.0,,,HRV,HRV_0306,2022-11-30 21:52:39
,wl-rdm,57,223820,0.0-6.49-0.49,False,,0.0,57.0,,,,,,,[],,,,,,73.6,1.0,i,1.0,True,1333.1999998092651,100.0,77.0,40.0,333.68886396434357,[],"[576, 432]",ColorTask,22.0,50.0,,,HRV,HRV_0306,2022-11-30 21:52:39
,wl-rdm,58,226100,0.0-6.50-0.50,False,,0.0,58.0,,,,,,,[],,,,,,73.6,1.0,i,1.0,True,872.7999997138977,66.0,77.0,40.0,359.285781181442,[],"[576, 432]",ColorTask,23.0,51.0,,,HRV,HRV_0306,2022-11-30 21:52:39
,wl-rdm,59,228766,0.0-6.51-0.51,False,,0.0,59.0,,,,,,,[],,,,,,50.0,0.0,u,0.0,True,1338.2000002861023,101.0,77.0,40.0,275.2653115242913,[],"[576, 432]",ColorTask,24.0,52.0,,,HRV,HRV_0306,2022-11-30 21:52:39
,wl-rdm,60,231423,0.0-6.52-0.52,False,,0.0,60.0,,,,,,,[],,,,,,53.2,1.0,u,0.0,False,1245.8999996185303,94.0,77.0,40.0,356.75479911279683,[],"[576, 432]",ColorTask,23.0,53.0,,,HRV,HRV_0306,2022-11-30 21:52:39
,wl-rdm,61,233660,0.0-6.53-0.53,False,,0.0,61.0,,,,,,,[],,,,,,87.9,0.0,u,0.0,True,951.5,72.0,77.0,40.0,235.18979424804448,[],"[576, 432]",ColorTask,24.0,54.0,,,HRV,HRV_0306,2022-11-30 21:52:39
,wl-rdm,62,236462,0.0-6.54-0.54,False,,0.0,62.0,,,,,,,[],,,,,,56.4,0.0,u,0.0,True,1400.1999998092651,105.0,77.0,40.0,349.9160938931052,[],"[576, 432]",ColorTask,25.0,55.0,,,HRV,HRV_0306,2022-11-30 21:52:39
,wl-rdm,63,238889,0.0-6.55-0.55,False,,0.0,63.0,,,,,,,[],,,,,,50.0,0.0,u,0.0,True,1098.5999999046326,83.0,77.0,40.0,279.42293301138176,[],"[576, 432]",ColorTask,26.0,56.0,,,HRV,HRV_0306,2022-11-30 21:52:39
,wl-rdm,64,241595,0.0-6.56-0.56,False,,0.0,64.0,,,,,,,[],,,,,,62.5,1.0,u,0.0,False,1367.9000000953674,102.0,77.0,40.0,279.82046379490396,[],"[576, 432]",ColorTask,25.0,57.0,,,HRV,HRV_0306,2022-11-30 21:52:39
,wl-rdm,65,243969,0.0-6.57-0.57,False,,0.0,65.0,,,,,,,[],,,,,,50.0,0.0,u,0.0,True,929.0999999046326,70.0,77.0,40.0,392.06479215924264,[],"[576, 432]",ColorTask,26.0,58.0,,,HRV,HRV_0306,2022-11-30 21:52:39
,wl-rdm,66,246622,0.0-6.58-0.58,False,,0.0,66.0,,,,,,,[],,,,,,56.4,1.0,i,1.0,True,1326.3000001907349,100.0,77.0,40.0,272.3595641517616,[],"[576, 432]",ColorTask,27.0,59.0,,,HRV,HRV_0306,2022-11-30 21:52:39
,wl-rdm,67,249142,0.0-6.59-0.59,False,,0.0,67.0,,,,,,,[],,,,,,62.5,0.0,i,1.0,False,1147.2999997138977,85.0,77.0,40.0,323.3190879760072,[],"[576, 432]",ColorTask,26.0,60.0,,,HRV,HRV_0306,2022-11-30 21:52:39
,wl-rdm,68,251515,0.0-6.60-0.60,False,,0.0,68.0,,,,,,,[],,,,,,87.9,1.0,i,1.0,True,1048.1999998092651,78.0,77.0,40.0,274.24537086728793,[],"[576, 432]",ColorTask,27.0,61.0,,,HRV,HRV_0306,2022-11-30 21:52:39
,wl-rdm,69,253941,0.0-6.61-0.61,False,,0.0,69.0,,,,,,,[],,,,,,73.6,1.0,i,1.0,True,1032.4000000953674,78.0,77.0,40.0,344.6367041976465,[],"[576, 432]",ColorTask,28.0,62.0,,,HRV,HRV_0306,2022-11-30 21:52:39
,wl-rdm,70,256154,0.0-6.62-0.62,False,,0.0,70.0,,,,,,,[],,,,,,50.0,0.0,i,1.0,False,928.1000003814697,70.0,77.0,40.0,236.9882437174944,[],"[576, 432]",ColorTask,27.0,63.0,,,HRV,HRV_0306,2022-11-30 21:52:39
,wl-rdm,71,258767,0.0-6.63-0.63,False,,0.0,71.0,,,,,,,[],,,,,,56.4,0.0,u,0.0,True,1177.5,89.0,77.0,40.0,384.8617266812822,[],"[576, 432]",ColorTask,28.0,64.0,,,HRV,HRV_0306,2022-11-30 21:52:39
,wl-rdm,72,261287,0.0-6.64-0.64,False,,0.0,72.0,,,,,,,[],,,,,,53.2,1.0,i,1.0,True,1183.6999998092651,89.0,77.0,40.0,281.5149344349986,[],"[576, 432]",ColorTask,29.0,65.0,,,HRV,HRV_0306,2022-11-30 21:52:39
,wl-rdm,73,263994,0.0-6.65-0.65,False,,0.0,73.0,,,,,,,[],,,,,,62.5,1.0,i,1.0,True,1287.5,97.0,77.0,40.0,360.01450829285704,[],"[576, 432]",ColorTask,30.0,66.0,,,HRV,HRV_0306,2022-11-30 21:52:39
,wl-rdm,74,267368,0.0-6.66-0.66,False,,0.0,74.0,,,,,,,[],,,,,,53.2,1.0,i,1.0,True,2117.0999999046326,159.0,77.0,40.0,203.19259019418666,[],"[576, 432]",ColorTask,31.0,67.0,,,HRV,HRV_0306,2022-11-30 21:52:39
,wl-rdm,75,269781,0.0-6.67-0.67,False,,0.0,75.0,,,,,,,[],,,,,,56.4,0.0,i,1.0,False,1085.0999999046326,81.0,77.0,40.0,269.225928273706,[],"[576, 432]",ColorTask,30.0,68.0,,,HRV,HRV_0306,2022-11-30 21:52:39
,wl-rdm,76,272114,0.0-6.68-0.68,False,,0.0,76.0,,,,,,,[],,,,,,87.9,0.0,u,0.0,True,928.2999997138977,70.0,77.0,40.0,350.2123731325612,[],"[576, 432]",ColorTask,31.0,69.0,,,HRV,HRV_0306,2022-11-30 21:52:39
,wl-rdm,77,274981,0.0-6.69-0.69,False,,0.0,77.0,,,,,,,[],,,,,,56.4,1.0,i,1.0,True,1480.4999995231628,109.0,77.0,40.0,341.22219373008,[],"[576, 432]",ColorTask,32.0,70.0,,,HRV,HRV_0306,2022-11-30 21:52:39
,wl-rdm,78,277514,0.0-6.70-0.70,False,,0.0,78.0,,,,,,,[],,,,,,53.2,0.0,i,1.0,False,1194.6000003814697,89.0,77.0,40.0,281.8113073586995,[],"[576, 432]",ColorTask,31.0,71.0,,,HRV,HRV_0306,2022-11-30 21:52:39
,wl-rdm,79,279820,0.0-6.71-0.71,False,,0.0,79.0,,,,,,,[],,,,,,53.2,1.0,i,1.0,True,959.7999997138977,71.0,77.0,40.0,296.4640846768002,[],"[576, 432]",ColorTask,32.0,72.0,,,HRV,HRV_0306,2022-11-30 21:52:39
,wl-rdm,80,282220,0.0-6.72-0.72,False,,0.0,80.0,,,,,,,[],,,,,,73.6,0.0,u,0.0,True,1139.1000003814697,86.0,77.0,40.0,209.09729168350952,[],"[576, 432]",ColorTask,33.0,73.0,,,HRV,HRV_0306,2022-11-30 21:52:39
,wl-rdm,81,285127,0.0-6.73-0.73,False,,0.0,81.0,,,,,,,[],,,,,,56.4,0.0,u,0.0,True,1537.6999998092651,116.0,77.0,40.0,316.3688545223473,[],"[576, 432]",ColorTask,34.0,74.0,,,HRV,HRV_0306,2022-11-30 21:52:39
,wl-rdm,82,287620,0.0-6.74-0.74,False,,0.0,82.0,,,,,,,[],,,,,,62.5,1.0,i,1.0,True,1199.8999996185303,90.0,77.0,40.0,252.92195909825992,[],"[576, 432]",ColorTask,35.0,75.0,,,HRV,HRV_0306,2022-11-30 21:52:39
,wl-rdm,83,290248,0.0-6.75-0.75,False,,0.0,83.0,,,,,,,[],,,,,,62.5,0.0,u,0.0,True,1223.6999998092651,92.0,77.0,40.0,350.52309167482434,[],"[576, 432]",ColorTask,36.0,76.0,,,HRV,HRV_0306,2022-11-30 21:52:39
,wl-rdm,84,292820,0.0-6.76-0.76,False,,0.0,84.0,,,,,,,[],,,,,,73.6,0.0,i,1.0,False,1293.3000001907349,96.0,77.0,40.0,232.41419595121658,[],"[576, 432]",ColorTask,35.0,77.0,,,HRV,HRV_0306,2022-11-30 21:52:39
,wl-rdm,85,295540,0.0-6.77-0.77,False,,0.0,85.0,,,,,,,[],,,,,,53.2,0.0,i,1.0,False,1286.800000667572,95.0,77.0,40.0,374.42145117150085,[],"[576, 432]",ColorTask,34.0,78.0,,,HRV,HRV_0306,2022-11-30 21:52:39
,wl-rdm,86,297940,0.0-6.78-0.78,False,,0.0,86.0,,,,,,,[],,,,,,56.4,0.0,u,0.0,True,1098.6999998092651,83.0,77.0,40.0,240.14291178294235,[],"[576, 432]",ColorTask,35.0,79.0,,,HRV,HRV_0306,2022-11-30 21:52:39
,wl-rdm,87,300620,0.0-6.79-0.79,False,,0.0,87.0,,,,,,,[],,,,,,73.6,1.0,i,1.0,True,1365.0999999046326,103.0,77.0,40.0,264.7872483322856,[],"[576, 432]",ColorTask,36.0,80.0,,,HRV,HRV_0306,2022-11-30 21:52:39
,wl-rdm,88,304380,0.0-6.80-0.80,False,,0.0,88.0,,,,,,,[],,,,,,50.0,0.0,i,1.0,False,2485.3999996185303,187.0,77.0,40.0,217.4787368281698,[],"[576, 432]",ColorTask,35.0,81.0,,,HRV,HRV_0306,2022-11-30 21:52:39
,wl-rdm,89,306847,0.0-6.81-0.81,False,,0.0,89.0,,,,,,,[],,,,,,73.6,1.0,i,1.0,True,1183.8000001907349,89.0,77.0,40.0,228.31160848826264,[],"[576, 432]",ColorTask,36.0,82.0,,,HRV,HRV_0306,2022-11-30 21:52:39
,wl-rdm,90,309354,0.0-6.82-0.82,False,,0.0,90.0,,,,,,,[],,,,,,87.9,1.0,i,1.0,True,1077.6999998092651,81.0,77.0,40.0,353.9766526498663,[],"[576, 432]",ColorTask,37.0,83.0,,,HRV,HRV_0306,2022-11-30 21:52:39
,wl-rdm,91,312620,0.0-6.83-0.83,False,,0.0,91.0,,,,,,,[],,,,,,56.4,1.0,u,0.0,False,1993.2999997138977,149.0,77.0,40.0,214.51691941820076,[],"[576, 432]",ColorTask,36.0,84.0,,,HRV,HRV_0306,2022-11-30 21:52:39
,wl-rdm,92,315687,0.0-6.84-0.84,False,,0.0,92.0,,,,,,,[],,,,,,62.5,0.0,u,0.0,True,1675.5999999046326,126.0,77.0,40.0,335.32806741891204,[],"[576, 432]",ColorTask,37.0,85.0,,,HRV,HRV_0306,2022-11-30 21:52:39
,wl-rdm,93,318728,0.0-6.85-0.85,False,,0.0,93.0,,,,,,,[],,,,,,87.9,1.0,i,1.0,True,1757.1000003814697,132.0,77.0,40.0,232.39177647948216,[],"[576, 432]",ColorTask,38.0,86.0,,,HRV,HRV_0306,2022-11-30 21:52:39
,wl-rdm,94,321753,0.0-6.86-0.86,False,,0.0,94.0,,,,,,,[],,,,,,73.6,0.0,u,0.0,True,1740.6999998092651,131.0,77.0,40.0,238.49743090746807,[],"[576, 432]",ColorTask,39.0,87.0,,,HRV,HRV_0306,2022-11-30 21:52:39
,wl-rdm,95,324006,0.0-6.87-0.87,False,,0.0,95.0,,,,,,,[],,,,,,53.2,0.0,i,1.0,False,911.5,68.0,77.0,40.0,291.9122289143731,[],"[576, 432]",ColorTask,38.0,88.0,,,HRV,HRV_0306,2022-11-30 21:52:39
,wl-rdm,96,326406,0.0-6.88-0.88,False,,0.0,96.0,,,,,,,[],,,,,,53.2,1.0,i,1.0,True,1111.7000002861023,84.0,77.0,40.0,232.1432309268306,[],"[576, 432]",ColorTask,39.0,89.0,,,HRV,HRV_0306,2022-11-30 21:52:39
,wl-rdm,97,329619,0.0-6.89-0.89,False,,0.0,97.0,,,,,,,[],,,,,,50.0,1.0,u,0.0,False,1866.5,139.0,77.0,40.0,295.40920508628204,[],"[576, 432]",ColorTask,38.0,90.0,,,HRV,HRV_0306,2022-11-30 21:52:39
,wl-rdm,98,332966,0.0-6.90-0.90,False,,0.0,98.0,,,,,,,[],,,,,,62.5,0.0,u,0.0,True,1950.5,145.0,77.0,40.0,338.63394922080073,[],"[576, 432]",ColorTask,39.0,91.0,,,HRV,HRV_0306,2022-11-30 21:52:39
,wl-rdm,99,336833,0.0-6.91-0.91,False,,0.0,99.0,,,,,,,[],,,,,,73.6,0.0,u,0.0,True,2448.0,183.0,77.0,40.0,364.13465090788543,[],"[576, 432]",ColorTask,40.0,92.0,,,HRV,HRV_0306,2022-11-30 21:52:39
,wl-rdm,100,339073,0.0-6.92-0.92,False,,0.0,100.0,,,,,,,[],,,,,,62.5,1.0,i,1.0,True,981.5,74.0,77.0,40.0,201.02333089631324,[],"[576, 432]",ColorTask,41.0,93.0,,,HRV,HRV_0306,2022-11-30 21:52:39
,wl-rdm,101,342513,0.0-6.93-0.93,False,,0.0,101.0,,,,,,,[],,,,,,53.2,0.0,i,1.0,False,2034.5999999046326,152.0,77.0,40.0,350.4846158629588,[],"[576, 432]",ColorTask,40.0,94.0,,,HRV,HRV_0306,2022-11-30 21:52:39
,wl-rdm,102,344859,0.0-6.94-0.94,False,,0.0,102.0,,,,,,,[],,,,,,62.5,1.0,i,1.0,True,1058.8999996185303,80.0,77.0,40.0,238.57584226755117,[],"[576, 432]",ColorTask,41.0,95.0,,,HRV,HRV_0306,2022-11-30 21:52:39
,wl-rdm,103,347536,0.0-6.95-0.95,False,,0.0,103.0,,,,,,,[],,,,,,87.9,0.0,u,0.0,True,1237.0999999046326,93.0,77.0,40.0,385.17672832784365,[],"[576, 432]",ColorTask,42.0,96.0,,,HRV,HRV_0306,2022-11-30 21:52:39
,wl-rdm,104,350792,0.0-6.96-0.96,False,,0.0,104.0,,,,,,,[],,,,,,73.6,0.0,u,0.0,True,1857.0,140.0,77.0,40.0,348.5215717222561,[],"[576, 432]",ColorTask,43.0,97.0,,,HRV,HRV_0306,2022-11-30 21:52:39
,wl-rdm,105,354061,0.0-6.97-0.97,False,,0.0,105.0,,,,,,,[],,,,,,56.4,1.0,i,1.0,True,1959.8000001907349,147.0,77.0,40.0,248.56422898818187,[],"[576, 432]",ColorTask,44.0,98.0,,,HRV,HRV_0306,2022-11-30 21:52:39
,wl-rdm,106,356287,0.0-6.98-0.98,False,,0.0,106.0,,,,,,,[],,,,,,87.9,1.0,i,1.0,True,957.5999999046326,72.0,77.0,40.0,220.26343831423696,[],"[576, 432]",ColorTask,45.0,99.0,,,HRV,HRV_0306,2022-11-30 21:52:39
,wl-rdm,107,359780,0.0-6.99-0.99,False,,0.0,107.0,,,,,,,[],,,,,,56.4,1.0,i,1.0,True,2166.0999999046326,163.0,77.0,40.0,275.49498614234477,[],"[576, 432]",ColorTask,46.0,100.0,,,HRV,HRV_0306,2022-11-30 21:52:39
,wl-rdm,108,362380,0.0-6.100-0.100,False,,0.0,108.0,,,,,,,[],,,,,,50.0,1.0,i,1.0,True,1306.3000001907349,98.0,77.0,40.0,251.6158611241861,[],"[576, 432]",ColorTask,47.0,101.0,,,HRV,HRV_0306,2022-11-30 21:52:39
,wl-rdm,109,365233,0.0-6.101-0.101,False,,0.0,109.0,,,,,,,[],,,,,,56.4,0.0,u,0.0,True,1500.8000001907349,113.0,77.0,40.0,296.9327785255262,[],"[576, 432]",ColorTask,48.0,102.0,,,HRV,HRV_0306,2022-11-30 21:52:39
,wl-rdm,110,368087,0.0-6.102-0.102,False,,0.0,110.0,,,,,,,[],,,,,,56.4,1.0,i,1.0,True,1417.0,106.0,77.0,40.0,385.76367487476,[],"[576, 432]",ColorTask,49.0,103.0,,,HRV,HRV_0306,2022-11-30 21:52:39
,wl-rdm,111,370660,0.0-6.103-0.103,False,,0.0,111.0,,,,,,,[],,,,,,53.2,1.0,u,0.0,False,1219.0,91.0,77.0,40.0,294.9243507443433,[],"[576, 432]",ColorTask,48.0,104.0,,,HRV,HRV_0306,2022-11-30 21:52:39
,wl-rdm,112,373036,0.0-6.104-0.104,False,,0.0,112.0,,,,,,,[],,,,,,50.0,0.0,i,1.0,False,1043.2999997138977,79.0,77.0,40.0,278.8278321422722,[],"[576, 432]",ColorTask,47.0,105.0,,,HRV,HRV_0306,2022-11-30 21:52:39
,wl-rdm,113,375699,0.0-6.105-0.105,False,,0.0,113.0,,,,,,,[],,,,,,62.5,0.0,u,0.0,True,1405.3000001907349,106.0,77.0,40.0,208.46006078739765,[],"[576, 432]",ColorTask,48.0,106.0,,,HRV,HRV_0306,2022-11-30 21:52:39
,wl-rdm,114,378153,0.0-6.106-0.106,False,,0.0,114.0,,,,,,,[],,,,,,53.2,0.0,u,0.0,True,1128.1999998092651,85.0,77.0,40.0,269.3791200236286,[],"[576, 432]",ColorTask,49.0,107.0,,,HRV,HRV_0306,2022-11-30 21:52:39
,wl-rdm,115,380512,0.0-6.107-0.107,False,,0.0,115.0,,,,,,,[],,,,,,73.6,0.0,u,0.0,True,1075.0,80.0,77.0,40.0,238.94114738448377,[],"[576, 432]",ColorTask,50.0,108.0,,,HRV,HRV_0306,2022-11-30 21:52:39
,wl-html-keyboard-response,116,527770,0.0-7.0-0.0,,,1.0,116.0,,,,,,,,145243.19999980927,1.0,0,,,,,,,,,,,,,,,,,,,,HRV,HRV_0306,2022-11-30 21:52:39
,wl-rdm,117,530448,0.0-8.0-0.0,False,,1.0,117.0,,,,,,,[],,,,,,56.4,1.0,i,1.0,True,1365.2000002861023,103.0,77.0,40.0,242.360926710459,[],"[576, 432]",ColorTask,51.0,1.0,,,HRV,HRV_0306,2022-11-30 21:52:39
,wl-rdm,118,532271,0.0-8.1-0.1,False,,1.0,118.0,,,,,,,[],,,,,,87.9,0.0,i,1.0,False,474.80000019073486,36.0,77.0,40.0,280.12588024558545,[],"[576, 432]",ColorTask,50.0,2.0,,,HRV,HRV_0306,2022-11-30 21:52:39
,wl-rdm,119,534180,0.0-8.2-0.2,False,,1.0,119.0,,,,,,,[],,,,,,73.6,1.0,i,1.0,True,619.5,47.0,77.0,40.0,233.58915389813092,[],"[576, 432]",ColorTask,51.0,3.0,,,HRV,HRV_0306,2022-11-30 21:52:39
,wl-rdm,120,536046,0.0-8.3-0.3,False,,1.0,120.0,,,,,,,[],,,,,,56.4,1.0,i,1.0,True,543.5,41.0,77.0,40.0,276.35693955590096,[],"[576, 432]",ColorTask,52.0,4.0,,,HRV,HRV_0306,2022-11-30 21:52:39
,wl-rdm,121,537819,0.0-8.4-0.4,False,,1.0,121.0,,,,,,,[],,,,,,62.5,0.0,i,1.0,False,498.59999990463257,38.0,77.0,40.0,220.11199050420967,[],"[576, 432]",ColorTask,51.0,5.0,,,HRV,HRV_0306,2022-11-30 21:52:39
,wl-rdm,122,539846,0.0-8.5-0.5,False,,1.0,122.0,,,,,,,[],,,,,,62.5,1.0,i,1.0,True,724.6999998092651,55.0,77.0,40.0,239.72768887984356,[],"[576, 432]",ColorTask,52.0,6.0,,,HRV,HRV_0306,2022-11-30 21:52:39
,wl-rdm,123,541860,0.0-8.6-0.6,False,,1.0,123.0,,,,,,,[],,,,,,56.4,1.0,i,1.0,True,613.1000003814697,46.0,77.0,40.0,353.6663775477822,[],"[576, 432]",ColorTask,53.0,7.0,,,HRV,HRV_0306,2022-11-30 21:52:39
,wl-rdm,124,543727,0.0-8.7-0.7,False,,1.0,124.0,,,,,,,[],,,,,,62.5,1.0,i,1.0,True,571.0,43.0,77.0,40.0,246.0944230985461,[],"[576, 432]",ColorTask,54.0,8.0,,,HRV,HRV_0306,2022-11-30 21:52:39
,wl-rdm,125,545885,0.0-8.8-0.8,False,,1.0,125.0,,,,,,,[],,,,,,53.2,1.0,i,1.0,True,835.4000000953674,62.0,77.0,40.0,279.0212213942548,[],"[576, 432]",ColorTask,55.0,9.0,,,HRV,HRV_0306,2022-11-30 21:52:39
,wl-rdm,126,547832,0.0-8.9-0.9,False,,1.0,126.0,,,,,,,[],,,,,,62.5,1.0,i,1.0,True,595.0,45.0,77.0,40.0,301.2741352214658,[],"[576, 432]",ColorTask,56.0,10.0,,,HRV,HRV_0306,2022-11-30 21:52:39
,wl-rdm,127,550005,0.0-8.10-0.10,False,,1.0,127.0,,,,,,,[],,,,,,53.2,1.0,u,0.0,False,774.6999998092651,60.0,77.0,40.0,335.1829113226738,[],"[576, 432]",ColorTask,55.0,11.0,,,HRV,HRV_0306,2022-11-30 21:52:39
,wl-rdm,128,551966,0.0-8.11-0.11,False,,1.0,128.0,,,,,,,[],,,,,,87.9,1.0,i,1.0,True,690.4000000953674,52.0,77.0,40.0,217.9097455256443,[],"[576, 432]",ColorTask,56.0,12.0,,,HRV,HRV_0306,2022-11-30 21:52:39
,wl-rdm,129,554098,0.0-8.12-0.12,False,,1.0,129.0,,,,,,,[],,,,,,62.5,1.0,i,1.0,True,752.8000001907349,57.0,77.0,40.0,325.4882865780207,[],"[576, 432]",ColorTask,57.0,13.0,,,HRV,HRV_0306,2022-11-30 21:52:39
,wl-rdm,130,556139,0.0-8.13-0.13,False,,1.0,130.0,,,,,,,[],,,,,,53.2,0.0,u,0.0,True,745.0999999046326,58.0,77.0,40.0,219.4707770056667,[],"[576, 432]",ColorTask,58.0,14.0,,,HRV,HRV_0306,2022-11-30 21:52:39
,wl-rdm,131,558099,0.0-8.14-0.14,False,,1.0,131.0,,,,,,,[],,,,,,73.6,0.0,u,0.0,True,627.2999997138977,47.0,77.0,40.0,287.202960987157,[],"[576, 432]",ColorTask,59.0,15.0,,,HRV,HRV_0306,2022-11-30 21:52:39
,wl-rdm,132,560286,0.0-8.15-0.15,False,,1.0,132.0,,,,,,,[],,,,,,62.5,0.0,u,0.0,True,796.9000000953674,60.0,77.0,40.0,336.56722702606123,[],"[576, 432]",ColorTask,60.0,16.0,,,HRV,HRV_0306,2022-11-30 21:52:39
,wl-rdm,133,562528,0.0-8.16-0.16,False,,1.0,133.0,,,,,,,[],,,,,,73.6,1.0,i,1.0,True,890.5999999046326,67.0,77.0,40.0,299.86476512132265,[],"[576, 432]",ColorTask,61.0,17.0,,,HRV,HRV_0306,2022-11-30 21:52:39
,wl-rdm,134,564862,0.0-8.17-0.17,False,,1.0,134.0,,,,,,,[],,,,,,50.0,1.0,i,1.0,True,949.4000000953674,71.0,77.0,40.0,343.4478504635945,[],"[576, 432]",ColorTask,62.0,18.0,,,HRV,HRV_0306,2022-11-30 21:52:39
,wl-rdm,135,567125,0.0-8.18-0.18,False,,1.0,135.0,,,,,,,[],,,,,,62.5,0.0,u,0.0,True,877.4000000953674,66.0,77.0,40.0,340.60239604657227,[],"[576, 432]",ColorTask,63.0,19.0,,,HRV,HRV_0306,2022-11-30 21:52:39
,wl-rdm,136,569458,0.0-8.19-0.19,False,,1.0,136.0,,,,,,,[],,,,,,53.2,1.0,i,1.0,True,933.6999998092651,70.0,77.0,40.0,360.08504685695345,[],"[576, 432]",ColorTask,64.0,20.0,,,HRV,HRV_0306,2022-11-30 21:52:39
,wl-rdm,137,571525,0.0-8.20-0.20,False,,1.0,137.0,,,,,,,[],,,,,,87.9,0.0,u,0.0,True,712.5999999046326,51.0,77.0,40.0,299.28561008684994,[],"[576, 432]",ColorTask,65.0,21.0,,,HRV,HRV_0306,2022-11-30 21:52:39
,wl-rdm,138,573685,0.0-8.21-0.21,False,,1.0,138.0,,,,,,,[],,,,,,56.4,0.0,i,1.0,False,797.0,60.0,77.0,40.0,311.2393378764024,[],"[576, 432]",ColorTask,64.0,22.0,,,HRV,HRV_0306,2022-11-30 21:52:39
,wl-rdm,139,575938,0.0-8.22-0.22,False,,1.0,139.0,,,,,,,[],,,,,,50.0,0.0,u,0.0,True,983.9000000953674,72.0,77.0,40.0,218.84312812961045,[],"[576, 432]",ColorTask,65.0,23.0,,,HRV,HRV_0306,2022-11-30 21:52:39
,wl-rdm,140,578084,0.0-8.23-0.23,False,,1.0,140.0,,,,,,,[],,,,,,50.0,0.0,i,1.0,False,832.0999999046326,63.0,77.0,40.0,265.2243696089391,[],"[576, 432]",ColorTask,64.0,24.0,,,HRV,HRV_0306,2022-11-30 21:52:39
,wl-rdm,141,580432,0.0-8.24-0.24,False,,1.0,141.0,,,,,,,[],,,,,,50.0,1.0,i,1.0,True,941.8000001907349,71.0,77.0,40.0,350.13683774107756,[],"[576, 432]",ColorTask,65.0,25.0,,,HRV,HRV_0306,2022-11-30 21:52:39
,wl-rdm,142,582431,0.0-8.25-0.25,False,,1.0,142.0,,,,,,,[],,,,,,87.9,0.0,u,0.0,True,741.7000002861023,56.0,77.0,40.0,210.7215965932017,[],"[576, 432]",ColorTask,66.0,26.0,,,HRV,HRV_0306,2022-11-30 21:52:39
,wl-rdm,143,584751,0.0-8.26-0.26,False,,1.0,143.0,,,,,,,[],,,,,,62.5,0.0,u,0.0,True,994.2000002861023,75.0,77.0,40.0,253.16102119101615,[],"[576, 432]",ColorTask,67.0,27.0,,,HRV,HRV_0306,2022-11-30 21:52:39
,wl-rdm,144,586897,0.0-8.27-0.27,False,,1.0,144.0,,,,,,,[],,,,,,53.2,0.0,i,1.0,False,792.8000001907349,60.0,77.0,40.0,297.30052075497684,[],"[576, 432]",ColorTask,66.0,28.0,,,HRV,HRV_0306,2022-11-30 21:52:39
,wl-rdm,145,589018,0.0-8.28-0.28,False,,1.0,145.0,,,,,,,[],,,,,,87.9,1.0,i,1.0,True,816.5,61.0,77.0,40.0,267.0450251760617,[],"[576, 432]",ColorTask,67.0,29.0,,,HRV,HRV_0306,2022-11-30 21:52:39
,wl-rdm,146,590964,0.0-8.29-0.29,False,,1.0,146.0,,,,,,,[],,,,,,73.6,1.0,i,1.0,True,677.1999998092651,51.0,77.0,40.0,219.1059891610851,[],"[576, 432]",ColorTask,68.0,30.0,,,HRV,HRV_0306,2022-11-30 21:52:39
,wl-rdm,147,593338,0.0-8.30-0.30,False,,1.0,147.0,,,,,,,[],,,,,,56.4,0.0,u,0.0,True,960.3999996185303,72.0,77.0,40.0,363.8747006053347,[],"[576, 432]",ColorTask,69.0,31.0,,,HRV,HRV_0306,2022-11-30 21:52:39
,wl-rdm,148,596193,0.0-8.31-0.31,False,,1.0,148.0,,,,,,,[],,,,,,53.2,0.0,i,1.0,False,1514.5999999046326,113.0,77.0,40.0,292.05051291737215,[],"[576, 432]",ColorTask,68.0,32.0,,,HRV,HRV_0306,2022-11-30 21:52:39
,wl-rdm,149,598218,0.0-8.32-0.32,False,,1.0,149.0,,,,,,,[],,,,,,87.9,0.0,u,0.0,True,685.8000001907349,52.0,77.0,40.0,288.4268275809849,[],"[576, 432]",ColorTask,69.0,33.0,,,HRV,HRV_0306,2022-11-30 21:52:39
,wl-rdm,150,600232,0.0-8.33-0.33,False,,1.0,150.0,,,,,,,[],,,,,,56.4,1.0,i,1.0,True,741.4000000953674,56.0,77.0,40.0,217.71818606485147,[],"[576, 432]",ColorTask,70.0,34.0,,,HRV,HRV_0306,2022-11-30 21:52:39
,wl-rdm,151,602341,0.0-8.34-0.34,False,,1.0,151.0,,,,,,,[],,,,,,73.6,1.0,i,1.0,True,813.8999996185303,61.0,77.0,40.0,241.23741901100806,[],"[576, 432]",ColorTask,71.0,35.0,,,HRV,HRV_0306,2022-11-30 21:52:39
,wl-rdm,152,604658,0.0-8.35-0.35,False,,1.0,152.0,,,,,,,[],,,,,,50.0,0.0,u,0.0,True,920.699999332428,69.0,77.0,40.0,351.4867179473456,[],"[576, 432]",ColorTask,72.0,36.0,,,HRV,HRV_0306,2022-11-30 21:52:39
,wl-rdm,153,606886,0.0-8.36-0.36,False,,1.0,153.0,,,,,,,[],,,,,,50.0,0.0,i,1.0,False,939.5,71.0,77.0,40.0,234.1612460685002,[],"[576, 432]",ColorTask,71.0,37.0,,,HRV,HRV_0306,2022-11-30 21:52:39
,wl-rdm,154,609684,0.0-8.37-0.37,False,,1.0,154.0,,,,,,,[],,,,,,87.9,0.0,u,0.0,True,1510.5,114.0,77.0,40.0,237.64532618470912,[],"[576, 432]",ColorTask,72.0,38.0,,,HRV,HRV_0306,2022-11-30 21:52:39
,wl-rdm,155,611871,0.0-8.38-0.38,False,,1.0,155.0,,,,,,,[],,,,,,87.9,0.0,u,0.0,True,832.3000001907349,63.0,77.0,40.0,307.5194104249904,[],"[576, 432]",ColorTask,73.0,39.0,,,HRV,HRV_0306,2022-11-30 21:52:39
,wl-rdm,156,613992,0.0-8.39-0.39,False,,1.0,156.0,,,,,,,[],,,,,,56.4,1.0,i,1.0,True,831.5,63.0,77.0,40.0,234.15736414215192,[],"[576, 432]",ColorTask,74.0,40.0,,,HRV,HRV_0306,2022-11-30 21:52:39
,wl-rdm,157,616672,0.0-8.40-0.40,False,,1.0,157.0,,,,,,,[],,,,,,87.9,0.0,u,0.0,True,1374.6999998092651,105.0,77.0,40.0,222.0667825919598,[],"[576, 432]",ColorTask,75.0,41.0,,,HRV,HRV_0306,2022-11-30 21:52:39
,wl-rdm,158,619085,0.0-8.41-0.41,False,,1.0,158.0,,,,,,,[],,,,,,53.2,0.0,i,1.0,False,1131.1999998092651,85.0,77.0,40.0,238.8518888574736,[],"[576, 432]",ColorTask,74.0,42.0,,,HRV,HRV_0306,2022-11-30 21:52:39
,wl-rdm,159,621458,0.0-8.42-0.42,False,,1.0,159.0,,,,,,,[],,,,,,56.4,1.0,i,1.0,True,1004.5,75.0,77.0,40.0,307.81461985058496,[],"[576, 432]",ColorTask,75.0,43.0,,,HRV,HRV_0306,2022-11-30 21:52:39
,wl-rdm,160,623765,0.0-8.43-0.43,False,,1.0,160.0,,,,,,,[],,,,,,87.9,1.0,i,1.0,True,951.7999997138977,72.0,77.0,40.0,298.4719795144935,[],"[576, 432]",ColorTask,76.0,44.0,,,HRV,HRV_0306,2022-11-30 21:52:39
,wl-rdm,161,627218,0.0-8.44-0.44,False,,1.0,161.0,,,,,,,[],,,,,,53.2,1.0,i,1.0,True,2107.7000002861023,158.0,77.0,40.0,297.8445954460285,[],"[576, 432]",ColorTask,77.0,45.0,,,HRV,HRV_0306,2022-11-30 21:52:39
,wl-rdm,162,629444,0.0-8.45-0.45,False,,1.0,162.0,,,,,,,[],,,,,,50.0,1.0,i,1.0,True,951.5999999046326,69.0,77.0,40.0,217.5390038757179,[],"[576, 432]",ColorTask,78.0,46.0,,,HRV,HRV_0306,2022-11-30 21:52:39
,wl-rdm,163,632339,0.0-8.46-0.46,False,,1.0,163.0,,,,,,,[],,,,,,56.4,0.0,u,0.0,True,1640.5,123.0,77.0,40.0,206.80001732509007,[],"[576, 432]",ColorTask,79.0,47.0,,,HRV,HRV_0306,2022-11-30 21:52:39
,wl-rdm,164,635058,0.0-8.47-0.47,False,,1.0,164.0,,,,,,,[],,,,,,62.5,0.0,u,0.0,True,1293.2999997138977,97.0,77.0,40.0,384.6168155175463,[],"[576, 432]",ColorTask,80.0,48.0,,,HRV,HRV_0306,2022-11-30 21:52:39
,wl-rdm,165,637419,0.0-8.48-0.48,False,,1.0,165.0,,,,,,,[],,,,,,87.9,1.0,i,1.0,True,912.1000003814697,68.0,77.0,40.0,387.680454925557,[],"[576, 432]",ColorTask,81.0,49.0,,,HRV,HRV_0306,2022-11-30 21:52:39
,wl-rdm,166,640407,0.0-8.49-0.49,False,,1.0,166.0,,,,,,,[],,,,,,62.5,1.0,i,1.0,True,1730.8000001907349,130.0,77.0,40.0,203.28264813333413,[],"[576, 432]",ColorTask,82.0,50.0,,,HRV,HRV_0306,2022-11-30 21:52:39
,wl-rdm,167,642524,0.0-8.50-0.50,False,,1.0,167.0,,,,,,,[],,,,,,73.6,1.0,i,1.0,True,863.6000003814697,65.0,77.0,40.0,210.67748628042784,[],"[576, 432]",ColorTask,83.0,51.0,,,HRV,HRV_0306,2022-11-30 21:52:39
,wl-rdm,168,644844,0.0-8.51-0.51,False,,1.0,168.0,,,,,,,[],,,,,,50.0,1.0,u,0.0,False,965.7000002861023,73.0,77.0,40.0,294.0174913217358,[],"[576, 432]",ColorTask,82.0,52.0,,,HRV,HRV_0306,2022-11-30 21:52:39
,wl-rdm,169,647057,0.0-8.52-0.52,False,,1.0,169.0,,,,,,,[],,,,,,62.5,1.0,i,1.0,True,801.0999999046326,60.0,77.0,40.0,368.84292662737334,[],"[576, 432]",ColorTask,83.0,53.0,,,HRV,HRV_0306,2022-11-30 21:52:39
,wl-rdm,170,649110,0.0-8.53-0.53,False,,1.0,170.0,,,,,,,[],,,,,,73.6,1.0,i,1.0,True,697.0999999046326,49.0,77.0,40.0,309.4959151213835,[],"[576, 432]",ColorTask,84.0,54.0,,,HRV,HRV_0306,2022-11-30 21:52:39
,wl-rdm,171,653377,0.0-8.54-0.54,True,RT_timeout ,1.0,170.0,,,,,,,[],,,,,,53.2,0.0,,,,,226.0,77.0,40.0,213.65420439293325,[],"[576, 432]",ColorTask,83.0,55.0,,,HRV,HRV_0306,2022-11-30 21:52:39
,wl-rdm,172,655699,0.0-8.55-0.55,False,,1.0,171.0,,,,,,,[],,,,,,53.2,1.0,u,0.0,False,1019.4999995231628,74.0,77.0,40.0,248.58937117854387,[],"[576, 432]",ColorTask,82.0,56.0,,,HRV,HRV_0306,2022-11-30 21:52:39
,wl-rdm,173,657872,0.0-8.56-0.56,False,,1.0,172.0,,,,,,,[],,,,,,62.5,1.0,i,1.0,True,831.1999998092651,63.0,77.0,40.0,284.58554142124655,[],"[576, 432]",ColorTask,83.0,57.0,,,HRV,HRV_0306,2022-11-30 21:52:39
,wl-rdm,174,660178,0.0-8.57-0.57,False,,1.0,173.0,,,,,,,[],,,,,,56.4,0.0,i,1.0,False,966.5,73.0,77.0,40.0,284.0251930335619,[],"[576, 432]",ColorTask,82.0,58.0,,,HRV,HRV_0306,2022-11-30 21:52:39
,wl-rdm,175,662378,0.0-8.58-0.58,False,,1.0,174.0,,,,,,,[],,,,,,87.9,0.0,u,0.0,True,906.8000001907349,68.0,77.0,40.0,243.05626912941779,[],"[576, 432]",ColorTask,83.0,59.0,,,HRV,HRV_0306,2022-11-30 21:52:39
,wl-rdm,176,664458,0.0-8.59-0.59,False,,1.0,175.0,,,,,,,[],,,,,,53.2,1.0,u,0.0,False,792.9000000953674,58.0,77.0,40.0,238.01044758500893,[],"[576, 432]",ColorTask,82.0,60.0,,,HRV,HRV_0306,2022-11-30 21:52:39
,wl-rdm,177,666725,0.0-8.60-0.60,False,,1.0,176.0,,,,,,,[],,,,,,56.4,1.0,u,0.0,False,829.2000002861023,63.0,77.0,40.0,377.704493989917,[],"[576, 432]",ColorTask,81.0,61.0,,,HRV,HRV_0306,2022-11-30 21:52:39
,wl-rdm,178,668898,0.0-8.61-0.61,False,,1.0,177.0,,,,,,,[],,,,,,87.9,1.0,i,1.0,True,765.9000000953674,58.0,77.0,40.0,354.0761794101655,[],"[576, 432]",ColorTask,82.0,62.0,,,HRV,HRV_0306,2022-11-30 21:52:39
,wl-rdm,179,671098,0.0-8.62-0.62,False,,1.0,178.0,,,,,,,[],,,,,,50.0,1.0,u,0.0,False,912.5999999046326,69.0,77.0,40.0,222.3898848233599,[],"[576, 432]",ColorTask,81.0,63.0,,,HRV,HRV_0306,2022-11-30 21:52:39
,wl-rdm,180,673178,0.0-8.63-0.63,False,,1.0,179.0,,,,,,,[],,,,,,73.6,0.0,i,1.0,False,719.5999999046326,52.0,77.0,40.0,316.0109111622953,[],"[576, 432]",ColorTask,80.0,64.0,,,HRV,HRV_0306,2022-11-30 21:52:39
,wl-rdm,181,675537,0.0-8.64-0.64,False,,1.0,180.0,,,,,,,[],,,,,,53.2,1.0,i,1.0,True,1039.7999997138977,78.0,77.0,40.0,271.2594837659784,[],"[576, 432]",ColorTask,81.0,65.0,,,HRV,HRV_0306,2022-11-30 21:52:39
,wl-rdm,182,677564,0.0-8.65-0.65,False,,1.0,181.0,,,,,,,[],,,,,,56.4,0.0,i,1.0,False,690.5,51.0,77.0,40.0,292.0284160428356,[],"[576, 432]",ColorTask,80.0,66.0,,,HRV,HRV_0306,2022-11-30 21:52:39
,wl-rdm,183,679537,0.0-8.66-0.66,False,,1.0,182.0,,,,,,,[],,,,,,87.9,1.0,i,1.0,True,699.5,53.0,77.0,40.0,224.08087213707566,[],"[576, 432]",ColorTask,81.0,67.0,,,HRV,HRV_0306,2022-11-30 21:52:39
,wl-rdm,184,681604,0.0-8.67-0.67,False,,1.0,183.0,,,,,,,[],,,,,,50.0,0.0,u,0.0,True,750.3000001907349,55.0,77.0,40.0,262.38853236865293,[],"[576, 432]",ColorTask,82.0,68.0,,,HRV,HRV_0306,2022-11-30 21:52:39
,wl-rdm,185,683765,0.0-8.68-0.68,False,,1.0,184.0,,,,,,,[],,,,,,73.6,0.0,u,0.0,True,904.1999998092651,68.0,77.0,40.0,209.92394745623918,[],"[576, 432]",ColorTask,83.0,69.0,,,HRV,HRV_0306,2022-11-30 21:52:39
,wl-rdm,186,685805,0.0-8.69-0.69,False,,1.0,185.0,,,,,,,[],,,,,,62.5,0.0,i,1.0,False,672.3999996185303,51.0,77.0,40.0,317.3781560140964,[],"[576, 432]",ColorTask,82.0,70.0,,,HRV,HRV_0306,2022-11-30 21:52:39
,wl-rdm,187,687764,0.0-8.70-0.70,False,,1.0,186.0,,,,,,,[],,,,,,50.0,1.0,u,0.0,False,707.9999995231628,54.0,77.0,40.0,202.97970197716504,[],"[576, 432]",ColorTask,81.0,71.0,,,HRV,HRV_0306,2022-11-30 21:52:39
,wl-rdm,188,690018,0.0-8.71-0.71,False,,1.0,187.0,,,,,,,[],,,,,,73.6,0.0,u,0.0,True,813.3999996185303,61.0,77.0,40.0,392.22240356636576,[],"[576, 432]",ColorTask,82.0,72.0,,,HRV,HRV_0306,2022-11-30 21:52:39
,wl-rdm,189,692137,0.0-8.72-0.72,False,,1.0,188.0,,,,,,,[],,,,,,73.6,0.0,i,1.0,False,747.5000004768372,56.0,77.0,40.0,322.18267748138726,[],"[576, 432]",ColorTask,81.0,73.0,,,HRV,HRV_0306,2022-11-30 21:52:39
,wl-rdm,190,694244,0.0-8.73-0.73,False,,1.0,189.0,,,,,,,[],,,,,,56.4,0.0,u,0.0,True,844.0999999046326,64.0,77.0,40.0,209.13489544551138,[],"[576, 432]",ColorTask,82.0,74.0,,,HRV,HRV_0306,2022-11-30 21:52:39
,wl-rdm,191,696338,0.0-8.74-0.74,False,,1.0,190.0,,,,,,,[],,,,,,50.0,0.0,u,0.0,True,666.2999997138977,50.0,77.0,40.0,373.6846996583065,[],"[576, 432]",ColorTask,83.0,75.0,,,HRV,HRV_0306,2022-11-30 21:52:39
,wl-rdm,192,698457,0.0-8.75-0.75,False,,1.0,191.0,,,,,,,[],,,,,,73.6,0.0,u,0.0,True,787.1999998092651,59.0,77.0,40.0,282.4625078343534,[],"[576, 432]",ColorTask,84.0,76.0,,,HRV,HRV_0306,2022-11-30 21:52:39
,wl-rdm,193,700510,0.0-8.76-0.76,False,,1.0,192.0,,,,,,,[],,,,,,56.4,0.0,i,1.0,False,674.6999998092651,51.0,77.0,40.0,325.71644949600056,[],"[576, 432]",ColorTask,83.0,77.0,,,HRV,HRV_0306,2022-11-30 21:52:39
,wl-rdm,194,702538,0.0-8.77-0.77,False,,1.0,193.0,,,,,,,[],,,,,,73.6,1.0,u,0.0,False,726.1999998092651,55.0,77.0,40.0,237.98086328448036,[],"[576, 432]",ColorTask,82.0,78.0,,,HRV,HRV_0306,2022-11-30 21:52:39
,wl-rdm,195,704603,0.0-8.78-0.78,False,,1.0,194.0,,,,,,,[],,,,,,50.0,0.0,u,0.0,True,730.5999999046326,55.0,77.0,40.0,292.26979850899835,[],"[576, 432]",ColorTask,83.0,79.0,,,HRV,HRV_0306,2022-11-30 21:52:39
,wl-rdm,196,706643,0.0-8.79-0.79,False,,1.0,195.0,,,,,,,[],,,,,,50.0,1.0,u,0.0,False,704.3999996185303,53.0,77.0,40.0,283.31361288480514,[],"[576, 432]",ColorTask,82.0,80.0,,,HRV,HRV_0306,2022-11-30 21:52:39
,wl-rdm,197,708616,0.0-8.80-0.80,False,,1.0,196.0,,,,,,,[],,,,,,62.5,1.0,i,1.0,True,672.8000001907349,51.0,77.0,40.0,249.39619666910593,[],"[576, 432]",ColorTask,83.0,81.0,,,HRV,HRV_0306,2022-11-30 21:52:39
,wl-rdm,198,710804,0.0-8.81-0.81,False,,1.0,197.0,,,,,,,[],,,,,,62.5,0.0,u,0.0,True,858.2999997138977,65.0,77.0,40.0,274.65738689649424,[],"[576, 432]",ColorTask,84.0,82.0,,,HRV,HRV_0306,2022-11-30 21:52:39
,wl-rdm,199,712857,0.0-8.82-0.82,False,,1.0,198.0,,,,,,,[],,,,,,62.5,0.0,i,1.0,False,747.8000001907349,56.0,77.0,40.0,254.84259025356232,[],"[576, 432]",ColorTask,83.0,83.0,,,HRV,HRV_0306,2022-11-30 21:52:39
,wl-rdm,200,715031,0.0-8.83-0.83,False,,1.0,199.0,,,,,,,[],,,,,,53.2,0.0,i,1.0,False,863.7999997138977,65.0,77.0,40.0,266.75781190746847,[],"[576, 432]",ColorTask,82.0,84.0,,,HRV,HRV_0306,2022-11-30 21:52:39
,wl-rdm,201,717059,0.0-8.84-0.84,False,,1.0,200.0,,,,,,,[],,,,,,73.6,0.0,u,0.0,True,746.4000000953674,56.0,77.0,40.0,234.3887808975728,[],"[576, 432]",ColorTask,83.0,85.0,,,HRV,HRV_0306,2022-11-30 21:52:39
,wl-rdm,202,719139,0.0-8.85-0.85,False,,1.0,201.0,,,,,,,[],,,,,,73.6,1.0,i,1.0,True,746.0999999046326,56.0,77.0,40.0,284.486582790685,[],"[576, 432]",ColorTask,84.0,86.0,,,HRV,HRV_0306,2022-11-30 21:52:39
,wl-rdm,203,721125,0.0-8.86-0.86,False,,1.0,202.0,,,,,,,[],,,,,,87.9,0.0,u,0.0,True,650.0000004768372,49.0,77.0,40.0,292.58366095411606,[],"[576, 432]",ColorTask,85.0,87.0,,,HRV,HRV_0306,2022-11-30 21:52:39
,wl-rdm,204,723285,0.0-8.87-0.87,False,,1.0,203.0,,,,,,,[],,,,,,50.0,0.0,u,0.0,True,791.9000000953674,60.0,77.0,40.0,314.0913831260852,[],"[576, 432]",ColorTask,86.0,88.0,,,HRV,HRV_0306,2022-11-30 21:52:39
,wl-rdm,205,725312,0.0-8.88-0.88,False,,1.0,204.0,,,,,,,[],,,,,,73.6,1.0,i,1.0,True,723.3999996185303,55.0,77.0,40.0,246.54204471469944,[],"[576, 432]",ColorTask,87.0,89.0,,,HRV,HRV_0306,2022-11-30 21:52:39
,wl-rdm,206,727326,0.0-8.89-0.89,False,,1.0,205.0,,,,,,,[],,,,,,62.5,0.0,u,0.0,True,730.1999998092651,55.0,77.0,40.0,234.4615898087625,[],"[576, 432]",ColorTask,88.0,90.0,,,HRV,HRV_0306,2022-11-30 21:52:39
,wl-rdm,207,729485,0.0-8.90-0.90,False,,1.0,206.0,,,,,,,[],,,,,,56.4,0.0,u,0.0,True,850.9000000953674,63.0,77.0,40.0,259.8135596931961,[],"[576, 432]",ColorTask,89.0,91.0,,,HRV,HRV_0306,2022-11-30 21:52:39
,wl-rdm,208,731591,0.0-8.91-0.91,False,,1.0,207.0,,,,,,,[],,,,,,53.2,0.0,u,0.0,True,741.0,56.0,77.0,40.0,309.07138188852196,[],"[576, 432]",ColorTask,90.0,92.0,,,HRV,HRV_0306,2022-11-30 21:52:39
,wl-rdm,209,733644,0.0-8.92-0.92,False,,1.0,208.0,,,,,,,[],,,,,,56.4,1.0,u,0.0,False,677.0000004768372,51.0,77.0,40.0,320.6395564645437,[],"[576, 432]",ColorTask,89.0,93.0,,,HRV,HRV_0306,2022-11-30 21:52:39
,wl-rdm,210,735724,0.0-8.93-0.93,False,,1.0,209.0,,,,,,,[],,,,,,50.0,1.0,i,1.0,True,673.6999998092651,51.0,77.0,40.0,363.5098493860751,[],"[576, 432]",ColorTask,90.0,94.0,,,HRV,HRV_0306,2022-11-30 21:52:39
,wl-rdm,211,737897,0.0-8.94-0.94,False,,1.0,210.0,,,,,,,[],,,,,,73.6,0.0,u,0.0,True,813.6999998092651,61.0,77.0,40.0,314.76465993318925,[],"[576, 432]",ColorTask,91.0,95.0,,,HRV,HRV_0306,2022-11-30 21:52:39
,wl-rdm,212,739924,0.0-8.95-0.95,False,,1.0,211.0,,,,,,,[],,,,,,87.9,1.0,i,1.0,True,770.1999998092651,58.0,77.0,40.0,206.2441392496497,[],"[576, 432]",ColorTask,92.0,96.0,,,HRV,HRV_0306,2022-11-30 21:52:39
,wl-rdm,213,742204,0.0-8.96-0.96,False,,1.0,212.0,,,,,,,[],,,,,,73.6,0.0,u,0.0,True,911.0,69.0,77.0,40.0,312.78958283730094,[],"[576, 432]",ColorTask,93.0,97.0,,,HRV,HRV_0306,2022-11-30 21:52:39
,wl-rdm,214,744431,0.0-8.97-0.97,False,,1.0,213.0,,,,,,,[],,,,,,62.5,1.0,u,0.0,False,808.1999998092651,61.0,77.0,40.0,369.6273923283189,[],"[576, 432]",ColorTask,92.0,98.0,,,HRV,HRV_0306,2022-11-30 21:52:39
,wl-rdm,215,746325,0.0-8.98-0.98,False,,1.0,214.0,,,,,,,[],,,,,,87.9,1.0,i,1.0,True,618.9000000953674,47.0,77.0,40.0,222.68380426396456,[],"[576, 432]",ColorTask,93.0,99.0,,,HRV,HRV_0306,2022-11-30 21:52:39
,wl-rdm,216,748458,0.0-8.99-0.99,False,,1.0,215.0,,,,,,,[],,,,,,53.2,1.0,u,0.0,False,759.7000002861023,57.0,77.0,40.0,331.6607334151502,[],"[576, 432]",ColorTask,92.0,100.0,,,HRV,HRV_0306,2022-11-30 21:52:39
,wl-rdm,217,750378,0.0-8.100-0.100,False,,1.0,216.0,,,,,,,[],,,,,,87.9,1.0,i,1.0,True,639.6000003814697,46.0,77.0,40.0,236.60251480996482,[],"[576, 432]",ColorTask,93.0,101.0,,,HRV,HRV_0306,2022-11-30 21:52:39
,wl-rdm,218,752501,0.0-8.101-0.101,False,,1.0,217.0,,,,,,,[],,,,,,56.4,1.0,i,1.0,True,845.8000001907349,64.0,77.0,40.0,216.24862580510552,[],"[576, 432]",ColorTask,94.0,102.0,,,HRV,HRV_0306,2022-11-30 21:52:39
,wl-rdm,219,754619,0.0-8.102-0.102,False,,1.0,218.0,,,,,,,[],,,,,,53.2,0.0,i,1.0,False,833.5,62.0,77.0,40.0,231.559967410599,[],"[576, 432]",ColorTask,93.0,103.0,,,HRV,HRV_0306,2022-11-30 21:52:39
,wl-rdm,220,756937,0.0-8.103-0.103,False,,1.0,219.0,,,,,,,[],,,,,,53.2,1.0,u,0.0,False,1018.6999998092651,77.0,77.0,40.0,237.4994809501846,[],"[576, 432]",ColorTask,92.0,104.0,,,HRV,HRV_0306,2022-11-30 21:52:39
,wl-rdm,221,758937,0.0-8.104-0.104,False,,1.0,220.0,,,,,,,[],,,,,,50.0,1.0,i,1.0,True,733.3000001907349,54.0,77.0,40.0,220.49441566874714,[],"[576, 432]",ColorTask,93.0,105.0,,,HRV,HRV_0306,2022-11-30 21:52:39
,wl-rdm,222,761244,0.0-8.105-0.105,False,,1.0,221.0,,,,,,,[],,,,,,53.2,0.0,i,1.0,False,1036.9000000953674,78.0,77.0,40.0,224.24727730377975,[],"[576, 432]",ColorTask,92.0,106.0,,,HRV,HRV_0306,2022-11-30 21:52:39
,wl-rdm,223,763337,0.0-8.106-0.106,False,,1.0,222.0,,,,,,,[],,,,,,56.4,0.0,i,1.0,False,792.2000002861023,60.0,77.0,40.0,243.55691253068966,[],"[576, 432]",ColorTask,91.0,107.0,,,HRV,HRV_0306,2022-11-30 21:52:39
,wl-rdm,224,765537,0.0-8.107-0.107,False,,1.0,223.0,,,,,,,[],,,,,,53.2,0.0,u,0.0,True,947.0999999046326,71.0,77.0,40.0,208.91823647909297,[],"[576, 432]",ColorTask,92.0,108.0,,,HRV,HRV_0306,2022-11-30 21:52:39
,wl-rdm,225,767938,0.0-8.108-0.108,False,,1.0,224.0,,,,,,,[],,,,,,50.0,0.0,i,1.0,False,1071.8999996185303,80.0,77.0,40.0,290.9743649448768,[],"[576, 432]",ColorTask,91.0,109.0,,,HRV,HRV_0306,2022-11-30 21:52:39
,wl-html-button-response,226,773310,0.0-9.0-0.0,,,,,,,,,,,,5363.799999713898,,0,,,,,,,,,,,,,,,,,,<h3>End of this session. Thank you!</h3><br>,['Close window'],HRV,HRV_0306,2022-11-30 21:52:39
