trialN,stimuli,question,trialStartTime,trialStartTime_UNIX,stimulus1,rt,receivedResponse,rating,trialEndTime,trialDuration,stimulus1Loaded,exp,subjectId,date
0,"[{'imgObject': {}, 'id': 'popsicles', 'src': '/static/foodstim60/popsicles.jpg', 'key': 'NaN', 'origWidth': 410, 'origHeight': 410, 'width': 410, 'height': 410, 'widthPercent': 0.8, 'rescaleHeight': True, 'trialN': 0, 'loaded': True, 'loadedTime': 2905.7999999998137, 'positionName': 'CENTER', 'positionCoords': [595, 245]}]",Rate how much you want to eat this food from 0 (least) to 10 (most).,3406.7999999998137,1669832549362,popsicles,3184.0999999996275,True,5.0,6590.899999999441,3184.0999999996275,True,HRV,HRV_0035,2022-11-30 18:24:56
1,"[{'imgObject': {}, 'id': 'olives', 'src': '/static/foodstim60/olives.jpg', 'key': 'NaN', 'origWidth': 410, 'origHeight': 410, 'width': 410, 'height': 410, 'widthPercent': 0.8, 'rescaleHeight': True, 'trialN': 1, 'loaded': True, 'loadedTime': 2918.699999999255, 'positionName': 'CENTER', 'positionCoords': [595, 245]}]",Rate how much you want to eat this food from 0 (least) to 10 (most).,6595.299999999814,1669832552550,olives,2096.399999999441,True,0.33,8691.699999999255,2096.399999999441,True,HRV,HRV_0035,2022-11-30 18:24:56
2,"[{'imgObject': {}, 'id': 'sweetpotato', 'src': '/static/foodstim60/sweetpotato.jpg', 'key': 'NaN', 'origWidth': 410, 'origHeight': 410, 'width': 410, 'height': 410, 'widthPercent': 0.8, 'rescaleHeight': True, 'trialN': 2, 'loaded': True, 'loadedTime': 2933.5999999996275, 'positionName': 'CENTER', 'positionCoords': [595, 245]}]",Rate how much you want to eat this food from 0 (least) to 10 (most).,8694.0,1669832554649,sweetpotato,2254.5999999996275,True,9.1,10948.599999999627,2254.5999999996275,True,HRV,HRV_0035,2022-11-30 18:24:56
3,"[{'imgObject': {}, 'id': 'orange slices', 'src': '/static/foodstim60/orange slices.jpg', 'key': 'NaN', 'origWidth': 409, 'origHeight': 410, 'width': 409, 'height': 410, 'widthPercent': 0.8, 'rescaleHeight': True, 'trialN': 3, 'loaded': True, 'loadedTime': 2951, 'positionName': 'CENTER', 'positionCoords': [595.5, 245]}]",Rate how much you want to eat this food from 0 (least) to 10 (most).,10949.799999999814,1669832556905,orange slices,1671.5,True,8.72,12621.299999999814,1671.5,True,HRV,HRV_0035,2022-11-30 18:24:56
4,"[{'imgObject': {}, 'id': 'turkey sandwich', 'src': '/static/foodstim60/turkey sandwich.jpg', 'key': 'NaN', 'origWidth': 409, 'origHeight': 409, 'width': 409, 'height': 409, 'widthPercent': 0.8, 'rescaleHeight': True, 'trialN': 4, 'loaded': True, 'loadedTime': 2957.7999999998137, 'positionName': 'CENTER', 'positionCoords': [595.5, 245.5]}]",Rate how much you want to eat this food from 0 (least) to 10 (most).,12622.399999999441,1669832558577,turkey sandwich,3130.7999999998137,True,7.47,15753.199999999255,3130.7999999998137,True,HRV,HRV_0035,2022-11-30 18:24:56
5,"[{'imgObject': {}, 'id': 'apple slices', 'src': '/static/foodstim60/apple slices.jpg', 'key': 'NaN', 'origWidth': 409, 'origHeight': 410, 'width': 409, 'height': 410, 'widthPercent': 0.8, 'rescaleHeight': True, 'trialN': 5, 'loaded': True, 'loadedTime': 2975.699999999255, 'positionName': 'CENTER', 'positionCoords': [595.5, 245]}]",Rate how much you want to eat this food from 0 (least) to 10 (most).,15754.399999999441,1669832561709,apple slices,2907.0,True,0.2,18661.39999999944,2907.0,True,HRV,HRV_0035,2022-11-30 18:24:56
6,"[{'imgObject': {}, 'id': 'Tribe humus pita', 'src': '/static/foodstim60/Tribe humus pita.jpg', 'key': 'NaN', 'origWidth': 411, 'origHeight': 411, 'width': 411, 'height': 411, 'widthPercent': 0.8, 'rescaleHeight': True, 'trialN': 6, 'loaded': True, 'loadedTime': 2986.899999999441, 'positionName': 'CENTER', 'positionCoords': [594.5, 244.5]}]",Rate how much you want to eat this food from 0 (least) to 10 (most).,18662.599999999627,1669832564618,Tribe humus pita,1476.9000000003725,True,8.58,20139.5,1476.9000000003725,True,HRV,HRV_0035,2022-11-30 18:24:56
7,"[{'imgObject': {}, 'id': 'rigatoni and sauce', 'src': '/static/foodstim60/rigatoni and sauce.jpg', 'key': 'NaN', 'origWidth': 410, 'origHeight': 411, 'width': 410, 'height': 411, 'widthPercent': 0.8, 'rescaleHeight': True, 'trialN': 7, 'loaded': True, 'loadedTime': 3003, 'positionName': 'CENTER', 'positionCoords': [595, 244.5]}]",Rate how much you want to eat this food from 0 (least) to 10 (most).,20140.599999999627,1669832566096,rigatoni and sauce,1631.9000000003725,True,9.52,21772.5,1631.9000000003725,True,HRV,HRV_0035,2022-11-30 18:24:56
8,"[{'imgObject': {}, 'id': 'mac & cheese', 'src': '/static/foodstim60/mac & cheese.jpg', 'key': 'NaN', 'origWidth': 410, 'origHeight': 410, 'width': 410, 'height': 410, 'widthPercent': 0.8, 'rescaleHeight': True, 'trialN': 8, 'loaded': True, 'loadedTime': 3028.899999999441, 'positionName': 'CENTER', 'positionCoords': [595, 245]}]",Rate how much you want to eat this food from 0 (least) to 10 (most).,21773.89999999944,1669832567729,mac & cheese,1525.7999999998137,True,9.1,23299.699999999255,1525.7999999998137,True,HRV,HRV_0035,2022-11-30 18:24:56
9,"[{'imgObject': {}, 'id': 'omelette', 'src': '/static/foodstim60/omelette.jpg', 'key': 'NaN', 'origWidth': 410, 'origHeight': 409, 'width': 410, 'height': 409, 'widthPercent': 0.8, 'rescaleHeight': True, 'trialN': 9, 'loaded': True, 'loadedTime': 3039.5, 'positionName': 'CENTER', 'positionCoords': [595, 245.5]}]",Rate how much you want to eat this food from 0 (least) to 10 (most).,23300.89999999944,1669832569256,omelette,1603.5,True,7.72,24904.39999999944,1603.5,True,HRV,HRV_0035,2022-11-30 18:24:56
10,"[{'imgObject': {}, 'id': 'mango', 'src': '/static/foodstim60/mango.jpg', 'key': 'NaN', 'origWidth': 411, 'origHeight': 411, 'width': 411, 'height': 411, 'widthPercent': 0.8, 'rescaleHeight': True, 'trialN': 10, 'loaded': True, 'loadedTime': 3060.199999999255, 'positionName': 'CENTER', 'positionCoords': [594.5, 244.5]}]",Rate how much you want to eat this food from 0 (least) to 10 (most).,24905.799999999814,1669832570861,mango,1554.8999999994412,True,9.1,26460.699999999255,1554.8999999994412,True,HRV,HRV_0035,2022-11-30 18:24:56
11,"[{'imgObject': {}, 'id': 'mashed potato', 'src': '/static/foodstim60/mashed potato.jpg', 'key': 'NaN', 'origWidth': 409, 'origHeight': 409, 'width': 409, 'height': 409, 'widthPercent': 0.8, 'rescaleHeight': True, 'trialN': 11, 'loaded': True, 'loadedTime': 3065.699999999255, 'positionName': 'CENTER', 'positionCoords': [595.5, 245.5]}]",Rate how much you want to eat this food from 0 (least) to 10 (most).,26461.89999999944,1669832572417,mashed potato,2400.4000000003725,True,5.16,28862.299999999814,2400.4000000003725,True,HRV,HRV_0035,2022-11-30 18:24:56
12,"[{'imgObject': {}, 'id': 'raisin bran w milk', 'src': '/static/foodstim60/raisin bran w milk.jpg', 'key': 'NaN', 'origWidth': 411, 'origHeight': 411, 'width': 411, 'height': 411, 'widthPercent': 0.8, 'rescaleHeight': True, 'trialN': 12, 'loaded': True, 'loadedTime': 3087.0999999996275, 'positionName': 'CENTER', 'positionCoords': [594.5, 244.5]}]",Rate how much you want to eat this food from 0 (least) to 10 (most).,28863.599999999627,1669832574819,raisin bran w milk,1769.0,True,6.03,30632.599999999627,1769.0,True,HRV,HRV_0035,2022-11-30 18:24:56
13,"[{'imgObject': {}, 'id': 'salad w chicken', 'src': '/static/foodstim60/salad w chicken.jpg', 'key': 'NaN', 'origWidth': 411, 'origHeight': 411, 'width': 411, 'height': 411, 'widthPercent': 0.8, 'rescaleHeight': True, 'trialN': 13, 'loaded': True, 'loadedTime': 3094.2999999998137, 'positionName': 'CENTER', 'positionCoords': [594.5, 244.5]}]",Rate how much you want to eat this food from 0 (least) to 10 (most).,30633.89999999944,1669832576589,salad w chicken,1633.6000000005588,True,0.48,32267.5,1633.6000000005588,True,HRV,HRV_0035,2022-11-30 18:24:56
14,"[{'imgObject': {}, 'id': 'avocado', 'src': '/static/foodstim60/avocado.jpg', 'key': 'NaN', 'origWidth': 409, 'origHeight': 409, 'width': 409, 'height': 409, 'widthPercent': 0.8, 'rescaleHeight': True, 'trialN': 14, 'loaded': True, 'loadedTime': 3099.7999999998137, 'positionName': 'CENTER', 'positionCoords': [595.5, 245.5]}]",Rate how much you want to eat this food from 0 (least) to 10 (most).,32268.799999999814,1669832578224,avocado,1524.8999999994412,True,0.26,33793.699999999255,1524.8999999994412,True,HRV,HRV_0035,2022-11-30 18:24:56
15,"[{'imgObject': {}, 'id': 'bagel plain', 'src': '/static/foodstim60/bagel plain.jpg', 'key': 'NaN', 'origWidth': 410, 'origHeight': 410, 'width': 410, 'height': 410, 'widthPercent': 0.8, 'rescaleHeight': True, 'trialN': 15, 'loaded': True, 'loadedTime': 3105.0999999996275, 'positionName': 'CENTER', 'positionCoords': [595, 245]}]",Rate how much you want to eat this food from 0 (least) to 10 (most).,33794.89999999944,1669832579750,bagel plain,1768.0,True,5.03,35562.89999999944,1768.0,True,HRV,HRV_0035,2022-11-30 18:24:56
16,"[{'imgObject': {}, 'id': 'blueberries', 'src': '/static/foodstim60/blueberries.jpg', 'key': 'NaN', 'origWidth': 411, 'origHeight': 411, 'width': 411, 'height': 411, 'widthPercent': 0.8, 'rescaleHeight': True, 'trialN': 16, 'loaded': True, 'loadedTime': 3111.0999999996275, 'positionName': 'CENTER', 'positionCoords': [594.5, 244.5]}]",Rate how much you want to eat this food from 0 (least) to 10 (most).,35564.199999999255,1669832581519,blueberries,1554.7000000001863,True,9.53,37118.89999999944,1554.7000000001863,True,HRV,HRV_0035,2022-11-30 18:24:56
17,"[{'imgObject': {}, 'id': 'banana', 'src': '/static/foodstim60/banana.jpg', 'key': 'NaN', 'origWidth': 410, 'origHeight': 410, 'width': 410, 'height': 410, 'widthPercent': 0.8, 'rescaleHeight': True, 'trialN': 17, 'loaded': True, 'loadedTime': 3116.0999999996275, 'positionName': 'CENTER', 'positionCoords': [595, 245]}]",Rate how much you want to eat this food from 0 (least) to 10 (most).,37120.39999999944,1669832583075,banana,3207.2000000001863,True,5.0600000000000005,40327.59999999963,3207.2000000001863,True,HRV,HRV_0035,2022-11-30 18:24:56
18,"[{'imgObject': {}, 'id': 'veggieswithdip', 'src': '/static/foodstim60/veggieswithdip.jpg', 'key': 'NaN', 'origWidth': 409, 'origHeight': 409, 'width': 409, 'height': 409, 'widthPercent': 0.8, 'rescaleHeight': True, 'trialN': 18, 'loaded': True, 'loadedTime': 3124.7999999998137, 'positionName': 'CENTER', 'positionCoords': [595.5, 245.5]}]",Rate how much you want to eat this food from 0 (least) to 10 (most).,40329.09999999963,1669832586284,veggieswithdip,1758.4000000003725,True,0.15,42087.5,1758.4000000003725,True,HRV,HRV_0035,2022-11-30 18:24:56
19,"[{'imgObject': {}, 'id': 'salmon', 'src': '/static/foodstim60/salmon.jpg', 'key': 'NaN', 'origWidth': 410, 'origHeight': 409, 'width': 410, 'height': 409, 'widthPercent': 0.8, 'rescaleHeight': True, 'trialN': 19, 'loaded': True, 'loadedTime': 3133.699999999255, 'positionName': 'CENTER', 'positionCoords': [595, 245.5]}]",Rate how much you want to eat this food from 0 (least) to 10 (most).,42088.89999999944,1669832588044,salmon,1652.0,True,5.0,43740.89999999944,1652.0,True,HRV,HRV_0035,2022-11-30 18:24:56
20,"[{'imgObject': {}, 'id': 'steak', 'src': '/static/foodstim60/steak.jpg', 'key': 'NaN', 'origWidth': 410, 'origHeight': 410, 'width': 410, 'height': 410, 'widthPercent': 0.8, 'rescaleHeight': True, 'trialN': 20, 'loaded': True, 'loadedTime': 3139.399999999441, 'positionName': 'CENTER', 'positionCoords': [595, 245]}]",Rate how much you want to eat this food from 0 (least) to 10 (most).,43742.5,1669832589698,steak,1534.7999999998137,True,0.48,45277.299999999814,1534.7999999998137,True,HRV,HRV_0035,2022-11-30 18:24:56
21,"[{'imgObject': {}, 'id': 'cherries', 'src': '/static/foodstim60/cherries.jpg', 'key': 'NaN', 'origWidth': 410, 'origHeight': 411, 'width': 410, 'height': 411, 'widthPercent': 0.8, 'rescaleHeight': True, 'trialN': 21, 'loaded': True, 'loadedTime': 3145, 'positionName': 'CENTER', 'positionCoords': [595, 244.5]}]",Rate how much you want to eat this food from 0 (least) to 10 (most).,45278.799999999814,1669832591234,cherries,2361.7000000001863,True,2.5500000000000003,47640.5,2361.7000000001863,True,HRV,HRV_0035,2022-11-30 18:24:56
22,"[{'imgObject': {}, 'id': 'hashbrowns', 'src': '/static/foodstim60/hashbrowns.jpg', 'key': 'NaN', 'origWidth': 411, 'origHeight': 410, 'width': 411, 'height': 410, 'widthPercent': 0.8, 'rescaleHeight': True, 'trialN': 22, 'loaded': True, 'loadedTime': 3149.7999999998137, 'positionName': 'CENTER', 'positionCoords': [594.5, 245]}]",Rate how much you want to eat this food from 0 (least) to 10 (most).,47642.09999999963,1669832593597,hashbrowns,1524.5,True,5.89,49166.59999999963,1524.5,True,HRV,HRV_0035,2022-11-30 18:24:56
23,"[{'imgObject': {}, 'id': 'ice cream sundae 002', 'src': '/static/foodstim60/ice cream sundae 002.jpg', 'key': 'NaN', 'origWidth': 409, 'origHeight': 409, 'width': 409, 'height': 409, 'widthPercent': 0.8, 'rescaleHeight': True, 'trialN': 23, 'loaded': True, 'loadedTime': 3154.899999999441, 'positionName': 'CENTER', 'positionCoords': [595.5, 245.5]}]",Rate how much you want to eat this food from 0 (least) to 10 (most).,49168.199999999255,1669832595123,ice cream sundae 002,1418.5,True,7.2700000000000005,50586.699999999255,1418.5,True,HRV,HRV_0035,2022-11-30 18:24:56
24,"[{'imgObject': {}, 'id': 'cantaloupe', 'src': '/static/foodstim60/cantaloupe.jpg', 'key': 'NaN', 'origWidth': 409, 'origHeight': 409, 'width': 409, 'height': 409, 'widthPercent': 0.8, 'rescaleHeight': True, 'trialN': 24, 'loaded': True, 'loadedTime': 3160.0999999996275, 'positionName': 'CENTER', 'positionCoords': [595.5, 245.5]}]",Rate how much you want to eat this food from 0 (least) to 10 (most).,50588.299999999814,1669832596543,cantaloupe,2828.5999999996275,True,2.88,53416.89999999944,2828.5999999996275,True,HRV,HRV_0035,2022-11-30 18:24:56
25,"[{'imgObject': {}, 'id': 'chicken nuggets2', 'src': '/static/foodstim60/chicken nuggets2.jpg', 'key': 'NaN', 'origWidth': 410, 'origHeight': 409, 'width': 410, 'height': 409, 'widthPercent': 0.8, 'rescaleHeight': True, 'trialN': 25, 'loaded': True, 'loadedTime': 3165.699999999255, 'positionName': 'CENTER', 'positionCoords': [595, 245.5]}]",Rate how much you want to eat this food from 0 (least) to 10 (most).,53418.199999999255,1669832599373,chicken nuggets2,1825.9000000003725,True,5.12,55244.09999999963,1825.9000000003725,True,HRV,HRV_0035,2022-11-30 18:24:56
26,"[{'imgObject': {}, 'id': 'cherry tomato', 'src': '/static/foodstim60/cherry tomato.jpg', 'key': 'NaN', 'origWidth': 410, 'origHeight': 410, 'width': 410, 'height': 410, 'widthPercent': 0.8, 'rescaleHeight': True, 'trialN': 26, 'loaded': True, 'loadedTime': 3174.199999999255, 'positionName': 'CENTER', 'positionCoords': [595, 245]}]",Rate how much you want to eat this food from 0 (least) to 10 (most).,55245.09999999963,1669832601200,cherry tomato,2682.9000000003725,True,0.16,57928.0,2682.9000000003725,True,HRV,HRV_0035,2022-11-30 18:24:56
27,"[{'imgObject': {}, 'id': 'eggsalad', 'src': '/static/foodstim60/eggsalad.jpg', 'key': 'NaN', 'origWidth': 410, 'origHeight': 409, 'width': 410, 'height': 409, 'widthPercent': 0.8, 'rescaleHeight': True, 'trialN': 27, 'loaded': True, 'loadedTime': 3188.5, 'positionName': 'CENTER', 'positionCoords': [595, 245.5]}]",Rate how much you want to eat this food from 0 (least) to 10 (most).,57929.39999999944,1669832603884,eggsalad,3664.7000000001863,True,8.55,61594.09999999963,3664.7000000001863,True,HRV,HRV_0035,2022-11-30 18:24:56
28,"[{'imgObject': {}, 'id': 'froot loops w milk', 'src': '/static/foodstim60/froot loops w milk.jpg', 'key': 'NaN', 'origWidth': 410, 'origHeight': 410, 'width': 410, 'height': 410, 'widthPercent': 0.8, 'rescaleHeight': True, 'trialN': 28, 'loaded': True, 'loadedTime': 3194, 'positionName': 'CENTER', 'positionCoords': [595, 245]}]",Rate how much you want to eat this food from 0 (least) to 10 (most).,61595.39999999944,1669832607550,froot loops w milk,2283.7999999998137,True,0.73,63879.199999999255,2283.7999999998137,True,HRV,HRV_0035,2022-11-30 18:24:56
29,"[{'imgObject': {}, 'id': 'burrito', 'src': '/static/foodstim60/burrito.jpg', 'key': 'NaN', 'origWidth': 410, 'origHeight': 410, 'width': 410, 'height': 410, 'widthPercent': 0.8, 'rescaleHeight': True, 'trialN': 29, 'loaded': True, 'loadedTime': 3199.399999999441, 'positionName': 'CENTER', 'positionCoords': [595, 245]}]",Rate how much you want to eat this food from 0 (least) to 10 (most).,63880.299999999814,1669832609835,burrito,3402.7000000001863,True,0.41000000000000003,67283.0,3402.7000000001863,True,HRV,HRV_0035,2022-11-30 18:24:56
30,"[{'imgObject': {}, 'id': 'corn cob', 'src': '/static/foodstim60/corn cob.jpg', 'key': 'NaN', 'origWidth': 411, 'origHeight': 411, 'width': 411, 'height': 411, 'widthPercent': 0.8, 'rescaleHeight': True, 'trialN': 30, 'loaded': True, 'loadedTime': 3204.5, 'positionName': 'CENTER', 'positionCoords': [594.5, 244.5]}]",Rate how much you want to eat this food from 0 (least) to 10 (most).,67284.39999999944,1669832613239,corn cob,4364.5,True,0.92,71648.89999999944,4364.5,True,HRV,HRV_0035,2022-11-30 18:24:56
31,"[{'imgObject': {}, 'id': 'cocktailshrimp', 'src': '/static/foodstim60/cocktailshrimp.jpg', 'key': 'NaN', 'origWidth': 410, 'origHeight': 410, 'width': 410, 'height': 410, 'widthPercent': 0.8, 'rescaleHeight': True, 'trialN': 31, 'loaded': True, 'loadedTime': 3210.5, 'positionName': 'CENTER', 'positionCoords': [595, 245]}]",Rate how much you want to eat this food from 0 (least) to 10 (most).,71650.29999999981,1669832617605,cocktailshrimp,1884.7999999998137,True,5.0600000000000005,73535.09999999963,1884.7999999998137,True,HRV,HRV_0035,2022-11-30 18:24:56
32,"[{'imgObject': {}, 'id': 'hotdog w must', 'src': '/static/foodstim60/hotdog w must.jpg', 'key': 'NaN', 'origWidth': 409, 'origHeight': 409, 'width': 409, 'height': 409, 'widthPercent': 0.8, 'rescaleHeight': True, 'trialN': 32, 'loaded': True, 'loadedTime': 3215.5999999996275, 'positionName': 'CENTER', 'positionCoords': [595.5, 245.5]}]",Rate how much you want to eat this food from 0 (least) to 10 (most).,73536.39999999944,1669832619491,hotdog w must,1651.5,True,1.42,75187.89999999944,1651.5,True,HRV,HRV_0035,2022-11-30 18:24:56
33,"[{'imgObject': {}, 'id': 'edamame', 'src': '/static/foodstim60/edamame.jpg', 'key': 'NaN', 'origWidth': 409, 'origHeight': 410, 'width': 409, 'height': 410, 'widthPercent': 0.8, 'rescaleHeight': True, 'trialN': 33, 'loaded': True, 'loadedTime': 3220.2999999998137, 'positionName': 'CENTER', 'positionCoords': [595.5, 245]}]",Rate how much you want to eat this food from 0 (least) to 10 (most).,75189.19999999925,1669832621144,edamame,1613.4000000003725,True,0.16,76802.59999999963,1613.4000000003725,True,HRV,HRV_0035,2022-11-30 18:24:56
34,"[{'imgObject': {}, 'id': 'yogurt no spoon', 'src': '/static/foodstim60/yogurt no spoon.jpg', 'key': 'NaN', 'origWidth': 411, 'origHeight': 410, 'width': 411, 'height': 410, 'widthPercent': 0.8, 'rescaleHeight': True, 'trialN': 34, 'loaded': True, 'loadedTime': 3225.699999999255, 'positionName': 'CENTER', 'positionCoords': [594.5, 245]}]",Rate how much you want to eat this food from 0 (least) to 10 (most).,76804.29999999981,1669832622759,yogurt no spoon,1641.0999999996275,True,6.87,78445.39999999944,1641.0999999996275,True,HRV,HRV_0035,2022-11-30 18:24:56
35,"[{'imgObject': {}, 'id': 'fruitsalad', 'src': '/static/foodstim60/fruitsalad.jpg', 'key': 'NaN', 'origWidth': 410, 'origHeight': 410, 'width': 410, 'height': 410, 'widthPercent': 0.8, 'rescaleHeight': True, 'trialN': 35, 'loaded': True, 'loadedTime': 3230.7999999998137, 'positionName': 'CENTER', 'positionCoords': [595, 245]}]",Rate how much you want to eat this food from 0 (least) to 10 (most).,78447.0,1669832624402,fruitsalad,2915.899999999441,True,7.5,81362.89999999944,2915.899999999441,True,HRV,HRV_0035,2022-11-30 18:24:56
36,"[{'imgObject': {}, 'id': 'Grapes', 'src': '/static/foodstim60/Grapes.jpg', 'key': 'NaN', 'origWidth': 411, 'origHeight': 411, 'width': 411, 'height': 411, 'widthPercent': 0.8, 'rescaleHeight': True, 'trialN': 36, 'loaded': True, 'loadedTime': 3251.399999999441, 'positionName': 'CENTER', 'positionCoords': [594.5, 244.5]}]",Rate how much you want to eat this food from 0 (least) to 10 (most).,81364.69999999925,1669832627320,Grapes,1758.300000000745,True,9.22,83123.0,1758.300000000745,True,HRV,HRV_0035,2022-11-30 18:24:56
37,"[{'imgObject': {}, 'id': 'pear', 'src': '/static/foodstim60/pear.jpg', 'key': 'NaN', 'origWidth': 411, 'origHeight': 410, 'width': 411, 'height': 410, 'widthPercent': 0.8, 'rescaleHeight': True, 'trialN': 37, 'loaded': True, 'loadedTime': 3258, 'positionName': 'CENTER', 'positionCoords': [594.5, 245]}]",Rate how much you want to eat this food from 0 (least) to 10 (most).,83125.0,1669832629080,pear,1641.0,True,0.15,84766.0,1641.0,True,HRV,HRV_0035,2022-11-30 18:24:56
38,"[{'imgObject': {}, 'id': 'baked potato', 'src': '/static/foodstim60/baked potato.jpg', 'key': 'NaN', 'origWidth': 409, 'origHeight': 410, 'width': 409, 'height': 410, 'widthPercent': 0.8, 'rescaleHeight': True, 'trialN': 38, 'loaded': True, 'loadedTime': 3263, 'positionName': 'CENTER', 'positionCoords': [595.5, 245]}]",Rate how much you want to eat this food from 0 (least) to 10 (most).,84767.59999999963,1669832630723,baked potato,1933.5,True,7.640000000000001,86701.09999999963,1933.5,True,HRV,HRV_0035,2022-11-30 18:24:56
39,"[{'imgObject': {}, 'id': 'turkeysandwich', 'src': '/static/foodstim60/turkeysandwich.jpg', 'key': 'NaN', 'origWidth': 409, 'origHeight': 409, 'width': 409, 'height': 409, 'widthPercent': 0.8, 'rescaleHeight': True, 'trialN': 39, 'loaded': True, 'loadedTime': 3267.699999999255, 'positionName': 'CENTER', 'positionCoords': [595.5, 245.5]}]",Rate how much you want to eat this food from 0 (least) to 10 (most).,86702.89999999944,1669832632658,turkeysandwich,1505.7999999998137,True,8.73,88208.69999999925,1505.7999999998137,True,HRV,HRV_0035,2022-11-30 18:24:56
40,"[{'imgObject': {}, 'id': 'eggs', 'src': '/static/foodstim60/eggs.jpg', 'key': 'NaN', 'origWidth': 409, 'origHeight': 409, 'width': 409, 'height': 409, 'widthPercent': 0.8, 'rescaleHeight': True, 'trialN': 40, 'loaded': True, 'loadedTime': 3272.699999999255, 'positionName': 'CENTER', 'positionCoords': [595.5, 245.5]}]",Rate how much you want to eat this food from 0 (least) to 10 (most).,88212.09999999963,1669832634167,eggs,1630.2999999998137,True,6.41,89842.39999999944,1630.2999999998137,True,HRV,HRV_0035,2022-11-30 18:24:56
41,"[{'imgObject': {}, 'id': 'kiwi', 'src': '/static/foodstim60/kiwi.jpg', 'key': 'NaN', 'origWidth': 410, 'origHeight': 410, 'width': 410, 'height': 410, 'widthPercent': 0.8, 'rescaleHeight': True, 'trialN': 41, 'loaded': True, 'loadedTime': 3277.5, 'positionName': 'CENTER', 'positionCoords': [595, 245]}]",Rate how much you want to eat this food from 0 (least) to 10 (most).,89843.39999999944,1669832635798,kiwi,1612.7000000001863,True,9.78,91456.09999999963,1612.7000000001863,True,HRV,HRV_0035,2022-11-30 18:24:56
42,"[{'imgObject': {}, 'id': 'shreddedwheatwithmilk', 'src': '/static/foodstim60/shreddedwheatwithmilk.jpg', 'key': 'NaN', 'origWidth': 410, 'origHeight': 410, 'width': 410, 'height': 410, 'widthPercent': 0.8, 'rescaleHeight': True, 'trialN': 42, 'loaded': True, 'loadedTime': 3282.5, 'positionName': 'CENTER', 'positionCoords': [595, 245]}]",Rate how much you want to eat this food from 0 (least) to 10 (most).,91457.0,1669832637412,shreddedwheatwithmilk,1856.5,True,9.15,93313.5,1856.5,True,HRV,HRV_0035,2022-11-30 18:24:56
43,"[{'imgObject': {}, 'id': 'luckycharms', 'src': '/static/foodstim60/luckycharms.jpg', 'key': 'NaN', 'origWidth': 410, 'origHeight': 409, 'width': 410, 'height': 409, 'widthPercent': 0.8, 'rescaleHeight': True, 'trialN': 43, 'loaded': True, 'loadedTime': 3288.199999999255, 'positionName': 'CENTER', 'positionCoords': [595, 245.5]}]",Rate how much you want to eat this food from 0 (least) to 10 (most).,93314.89999999944,1669832639270,luckycharms,183.0,True,9.15,93497.89999999944,183.0,True,HRV,HRV_0035,2022-11-30 18:24:56
44,"[{'imgObject': {}, 'id': 'sushi w_condiments', 'src': '/static/foodstim60/sushi w_condiments.jpg', 'key': 'NaN', 'origWidth': 410, 'origHeight': 410, 'width': 410, 'height': 410, 'widthPercent': 0.8, 'rescaleHeight': True, 'trialN': 44, 'loaded': True, 'loadedTime': 3293.0999999996275, 'positionName': 'CENTER', 'positionCoords': [595, 245]}]",Rate how much you want to eat this food from 0 (least) to 10 (most).,93498.89999999944,1669832639454,sushi w_condiments,2488.600000000559,True,7.63,95987.5,2488.600000000559,True,HRV,HRV_0035,2022-11-30 18:24:56
45,"[{'imgObject': {}, 'id': 'grilled chicken strips', 'src': '/static/foodstim60/grilled chicken strips.jpg', 'key': 'NaN', 'origWidth': 410, 'origHeight': 411, 'width': 410, 'height': 411, 'widthPercent': 0.8, 'rescaleHeight': True, 'trialN': 45, 'loaded': True, 'loadedTime': 3298.2999999998137, 'positionName': 'CENTER', 'positionCoords': [595, 244.5]}]",Rate how much you want to eat this food from 0 (least) to 10 (most).,95988.59999999963,1669832641944,grilled chicken strips,1612.9000000003725,True,5.05,97601.5,1612.9000000003725,True,HRV,HRV_0035,2022-11-30 18:24:56
46,"[{'imgObject': {}, 'id': 'tacos', 'src': '/static/foodstim60/tacos.jpg', 'key': 'NaN', 'origWidth': 411, 'origHeight': 411, 'width': 411, 'height': 411, 'widthPercent': 0.8, 'rescaleHeight': True, 'trialN': 46, 'loaded': True, 'loadedTime': 3303.5999999996275, 'positionName': 'CENTER', 'positionCoords': [594.5, 244.5]}]",Rate how much you want to eat this food from 0 (least) to 10 (most).,97602.39999999944,1669832643557,tacos,3820.5,True,4.91,101422.89999999944,3820.5,True,HRV,HRV_0035,2022-11-30 18:24:56
47,"[{'imgObject': {}, 'id': 'chickenfingers', 'src': '/static/foodstim60/chickenfingers.jpg', 'key': 'NaN', 'origWidth': 410, 'origHeight': 410, 'width': 410, 'height': 410, 'widthPercent': 0.8, 'rescaleHeight': True, 'trialN': 47, 'loaded': True, 'loadedTime': 3308.5, 'positionName': 'CENTER', 'positionCoords': [595, 245]}]",Rate how much you want to eat this food from 0 (least) to 10 (most).,101424.39999999944,1669832647379,chickenfingers,1613.1000000005588,True,7.46,103037.5,1613.1000000005588,True,HRV,HRV_0035,2022-11-30 18:24:56
48,"[{'imgObject': {}, 'id': 'granola w milk', 'src': '/static/foodstim60/granola w milk.jpg', 'key': 'NaN', 'origWidth': 410, 'origHeight': 410, 'width': 410, 'height': 410, 'widthPercent': 0.8, 'rescaleHeight': True, 'trialN': 48, 'loaded': True, 'loadedTime': 3328.699999999255, 'positionName': 'CENTER', 'positionCoords': [595, 245]}]",Rate how much you want to eat this food from 0 (least) to 10 (most).,103038.79999999981,1669832648994,granola w milk,2031.0999999996275,True,6.8500000000000005,105069.89999999944,2031.0999999996275,True,HRV,HRV_0035,2022-11-30 18:24:56
49,"[{'imgObject': {}, 'id': 'bagel and cc', 'src': '/static/foodstim60/bagel and cc.jpg', 'key': 'NaN', 'origWidth': 410, 'origHeight': 410, 'width': 410, 'height': 410, 'widthPercent': 0.8, 'rescaleHeight': True, 'trialN': 49, 'loaded': True, 'loadedTime': 3335.0999999996275, 'positionName': 'CENTER', 'positionCoords': [595, 245]}]",Rate how much you want to eat this food from 0 (least) to 10 (most).,105071.09999999963,1669832651026,bagel and cc,3139.0999999996275,True,7.7,108210.19999999925,3139.0999999996275,True,HRV,HRV_0035,2022-11-30 18:24:56
50,"[{'imgObject': {}, 'id': 'rigatoni', 'src': '/static/foodstim60/rigatoni.jpg', 'key': 'NaN', 'origWidth': 411, 'origHeight': 411, 'width': 411, 'height': 411, 'widthPercent': 0.8, 'rescaleHeight': True, 'trialN': 50, 'loaded': True, 'loadedTime': 3339.899999999441, 'positionName': 'CENTER', 'positionCoords': [594.5, 244.5]}]",Rate how much you want to eat this food from 0 (least) to 10 (most).,108211.5,1669832654166,rigatoni,2711.2999999998137,True,1.17,110922.79999999981,2711.2999999998137,True,HRV,HRV_0035,2022-11-30 18:24:56
51,"[{'imgObject': {}, 'id': 'lox', 'src': '/static/foodstim60/lox.jpg', 'key': 'NaN', 'origWidth': 410, 'origHeight': 411, 'width': 410, 'height': 411, 'widthPercent': 0.8, 'rescaleHeight': True, 'trialN': 51, 'loaded': True, 'loadedTime': 3345.399999999441, 'positionName': 'CENTER', 'positionCoords': [595, 244.5]}]",Rate how much you want to eat this food from 0 (least) to 10 (most).,110924.5,1669832656879,lox,1855.2999999998137,True,7.8,112779.79999999981,1855.2999999998137,True,HRV,HRV_0035,2022-11-30 18:24:56
52,"[{'imgObject': {}, 'id': 'seaweed', 'src': '/static/foodstim60/seaweed.jpg', 'key': 'NaN', 'origWidth': 410, 'origHeight': 410, 'width': 410, 'height': 410, 'widthPercent': 0.8, 'rescaleHeight': True, 'trialN': 52, 'loaded': True, 'loadedTime': 3350.0999999996275, 'positionName': 'CENTER', 'positionCoords': [595, 245]}]",Rate how much you want to eat this food from 0 (least) to 10 (most).,112781.29999999981,1669832658736,seaweed,1593.3999999994412,True,0.25,114374.69999999925,1593.3999999994412,True,HRV,HRV_0035,2022-11-30 18:24:56
53,"[{'imgObject': {}, 'id': 'roastedpotatoes', 'src': '/static/foodstim60/roastedpotatoes.jpg', 'key': 'NaN', 'origWidth': 409, 'origHeight': 410, 'width': 409, 'height': 410, 'widthPercent': 0.8, 'rescaleHeight': True, 'trialN': 53, 'loaded': True, 'loadedTime': 3355.2999999998137, 'positionName': 'CENTER', 'positionCoords': [595.5, 245]}]",Rate how much you want to eat this food from 0 (least) to 10 (most).,114376.19999999925,1669832660331,roastedpotatoes,1525.1000000005588,True,6.3100000000000005,115901.29999999981,1525.1000000005588,True,HRV,HRV_0035,2022-11-30 18:24:56
54,"[{'imgObject': {}, 'id': 'raspberries', 'src': '/static/foodstim60/raspberries.jpg', 'key': 'NaN', 'origWidth': 411, 'origHeight': 411, 'width': 411, 'height': 411, 'widthPercent': 0.8, 'rescaleHeight': True, 'trialN': 54, 'loaded': True, 'loadedTime': 3360.699999999255, 'positionName': 'CENTER', 'positionCoords': [594.5, 244.5]}]",Rate how much you want to eat this food from 0 (least) to 10 (most).,115902.69999999925,1669832661858,raspberries,3547.9000000003725,True,8.94,119450.59999999963,3547.9000000003725,True,HRV,HRV_0035,2022-11-30 18:24:56
55,"[{'imgObject': {}, 'id': 'cheerios', 'src': '/static/foodstim60/cheerios.jpg', 'key': 'NaN', 'origWidth': 409, 'origHeight': 410, 'width': 409, 'height': 410, 'widthPercent': 0.8, 'rescaleHeight': True, 'trialN': 55, 'loaded': True, 'loadedTime': 3366.0999999996275, 'positionName': 'CENTER', 'positionCoords': [595.5, 245]}]",Rate how much you want to eat this food from 0 (least) to 10 (most).,119452.19999999925,1669832665407,cheerios,1680.4000000003725,True,7.36,121132.59999999963,1680.4000000003725,True,HRV,HRV_0035,2022-11-30 18:24:56
56,"[{'imgObject': {}, 'id': 'burger', 'src': '/static/foodstim60/burger.jpg', 'key': 'NaN', 'origWidth': 409, 'origHeight': 409, 'width': 409, 'height': 409, 'widthPercent': 0.8, 'rescaleHeight': True, 'trialN': 56, 'loaded': True, 'loadedTime': 3371.0999999996275, 'positionName': 'CENTER', 'positionCoords': [595.5, 245.5]}]",Rate how much you want to eat this food from 0 (least) to 10 (most).,121134.29999999981,1669832667089,burger,1816.0999999996275,True,4.87,122950.39999999944,1816.0999999996275,True,HRV,HRV_0035,2022-11-30 18:24:56
57,"[{'imgObject': {}, 'id': 'blackbeanswithrice', 'src': '/static/foodstim60/blackbeanswithrice.jpg', 'key': 'NaN', 'origWidth': 410, 'origHeight': 410, 'width': 410, 'height': 410, 'widthPercent': 0.8, 'rescaleHeight': True, 'trialN': 57, 'loaded': True, 'loadedTime': 3376.399999999441, 'positionName': 'CENTER', 'positionCoords': [595, 245]}]",Rate how much you want to eat this food from 0 (least) to 10 (most).,122952.19999999925,1669832668907,blackbeanswithrice,2867.100000000559,True,6.1000000000000005,125819.29999999981,2867.100000000559,True,HRV,HRV_0035,2022-11-30 18:24:56
58,"[{'imgObject': {}, 'id': 'strawberries', 'src': '/static/foodstim60/strawberries.jpg', 'key': 'NaN', 'origWidth': 410, 'origHeight': 410, 'width': 410, 'height': 410, 'widthPercent': 0.8, 'rescaleHeight': True, 'trialN': 58, 'loaded': True, 'loadedTime': 3381.5, 'positionName': 'CENTER', 'positionCoords': [595, 245]}]",Rate how much you want to eat this food from 0 (least) to 10 (most).,125820.29999999981,1669832671775,strawberries,1593.5,True,8.85,127413.79999999981,1593.5,True,HRV,HRV_0035,2022-11-30 18:24:56
59,"[{'imgObject': {}, 'id': 'fried eggs', 'src': '/static/foodstim60/fried eggs.jpg', 'key': 'NaN', 'origWidth': 410, 'origHeight': 410, 'width': 410, 'height': 410, 'widthPercent': 0.8, 'rescaleHeight': True, 'trialN': 59, 'loaded': True, 'loadedTime': 3386.7999999998137, 'positionName': 'CENTER', 'positionCoords': [595, 245]}]",Rate how much you want to eat this food from 0 (least) to 10 (most).,127414.69999999925,1669832673370,fried eggs,1593.1000000005588,True,7.62,129007.79999999981,1593.1000000005588,True,HRV,HRV_0035,2022-11-30 18:24:56
