success,trial_type,trial_index,time_elapsed,internal_node_id,Block,TrialNumber,TrialTime,trialTimeDiff,FPS_avg,FPS_med,FPS_mode,TrialDur,winResizeTime,rt,block,button_pressed,MotCoh,MotDir,ColCoh,Color,ChoiceKey,Choice,Accuracy,RT,nFrames,FPS,PPD,missTrial,missTrialMsg,onsetDelay,fullScreenExitTime,canvCenter,TrialType,Score,BlockTrial,stimulus,button_labels,exp,subjectId,date
True,fullscreen,0,3037,0.0-0.0,0.0,1.0,,,,,,,,,,,,,,,,,,,,,,,,,,,,,,,,HRV,HRV_0035,2022-11-30 18:39:33
,wl-check-fps,1,8056,0.0-1.0,0.0,2.0,"[3829.1, 3845.5, 3867.4, 3882, 3897.7, 3913.2, 3927.6, 3947.2, 3961.9, 3978.4, 3995, 4012, 4028.3, 4045, 4061.5, 4079.3, 4094.8, 4113.3, 4128.2, 4144.9, 4161.5, 4178.1, 4194.8, 4211.7, 4228.1, 4244.8, 4261.5, 4278.1, 4296.4, 4311.5, 4328.3, 4346, 4361.3, 4378.1, 4394.9, 4413, 4429.5, 4445.4, 4461.5, 4477.9, 4494.7, 4511.5, 4528.2, 4544.7, 4561.6, 4577.9, 4594.7, 4611.3, 4627.8, 4644.9, 4661.3, 4677.9, 4694.5, 4711.4, 4728.8, 4744.8, 4761.2, 4778, 4795.7, 4810.7, 4827.8, 4844.6, 4860.8, 4877.9, 4894.6, 4912, 4928.4, 4944.9, 4961.2, 4978.1, 4994, 5011.2, 5031.5, 5051.2, 5068.5, 5078.7, 5094.9, 5111.4, 5127.7, 5144.9, 5161.2, 5177.9, 5194.1, 5211.5, 5228.2, 5245, 5262.1, 5278, 5294.8, 5311.4, 5328, 5344.6, 5361.2, 5377.8, 5395.1, 5411.1, 5429.5, 5444.5, 5463.2, 5478.1, 5494.6, 5511.3, 5528, 5544.5, 5561.2, 5577.8, 5594.4, 5611.3, 5629.6, 5644.5, 5661.2, 5677.6, 5694.4, 5712.9, 5727.8, 5745.8, 5761.1, 5777.8, 5794.9, 5811.2, 5827.8, 5844.7, 5861.1, 5877.7, 5894.4, 5910.9, 5927.6, 5944.4, 5963.7, 5977.7, 5994.7, 6010.9, 6027.8, 6045.3, 6062.8, 6077.6, 6093.9, 6110.8, 6127.6, 6147.3, 6160.9, 6177.9, 6195.2, 6211.8, 6228.2, 6245.6, 6262.7, 6278.7, 6294.3, 6312.4, 6329.3, 6345.5, 6362.9, 6377.7, 6395.1, 6412.6, 6429.9, 6445.9, 6462.7, 6478.7, 6494.1, 6512.8, 6528.1, 6544.5, 6561.6, 6577.2, 6594, 6610.9, 6628.3, 6644.6, 6662.2, 6678, 6695.7, 6711.9, 6728.7, 6745.7, 6762.2, 6778.5, 6795.7, 6811.5, 6828.4, 6845.6, 6862.2, 6877.5, 6895.8, 6912.5, 6927.4, 6945.5, 6960.9, 6977.2, 6994.9, 7010.8, 7026.8, 7045.5, 7060.9, 7077.6, 7093.8, 7110.8, 7126.5, 7144.6, 7161.7, 7177.2, 7194, 7211.2, 7228.9, 7244.4, 7262.3, 7277.7, 7295.6, 7311.9, 7327.3, 7345.6, 7362.6, 7378.4, 7395.2, 7411.3, 7429, 7446.1, 7461.3, 7478.1, 7495.1, 7512, 7528.7, 7544.2, 7561.4, 7578.2, 7595.1, 7612.4, 7627.2, 7645.4, 7661.9, 7678.9, 7695, 7710.8, 7727.3, 7745.6, 7760.4, 7777.2, 7795.5, 7811.3, 7827.3, 7845.4, 7861.1, 7877.2, 7894.5, 7912, 7927.2, 7945.3, 7960.3, 7978.1, 7993.9, 8010.7, 8028.8, 8044, 8062.5, 8078.1, 8095.4, 8112, 8127.1, 8145.2, 8160.4, 8177.1, 8194.5, 8210.2, 8227.1, 8244, 8260.3, 8278.1, 8294.6, 8311.4, 8328.6, 8345.4, 8361.4, 8378.4, 8395.1, 8410.6, 8428.7, 8444.9, 8460.1, 8477.5, 8495.3, 8510.4, 8527.9, 8545.2, 8560.1, 8577.4, 8593.5, 8610.3, 8627.8, 8645, 8661.8, 8678.5, 8695.2, 8710.7, 8728.9, 8745.2, 8760.7, 8777.6, 8795.4, 8811.6]","[15.4, 16.4, 21.9, 14.6, 15.7, 15.5, 14.4, 19.6, 14.7, 16.5, 16.6, 17, 16.3, 16.7, 16.5, 17.8, 15.5, 18.5, 14.9, 16.7, 16.6, 16.6, 16.7, 16.9, 16.4, 16.7, 16.7, 16.6, 18.3, 15.1, 16.8, 17.7, 15.3, 16.8, 16.8, 18.1, 16.5, 15.9, 16.1, 16.4, 16.8, 16.8, 16.7, 16.5, 16.9, 16.3, 16.8, 16.6, 16.5, 17.1, 16.4, 16.6, 16.6, 16.9, 17.4, 16, 16.4, 16.8, 17.7, 15, 17.1, 16.8, 16.2, 17.1, 16.7, 17.4, 16.4, 16.5, 16.3, 16.9, 15.9, 17.2, 20.3, 19.7, 17.3, 10.2, 16.2, 16.5, 16.3, 17.2, 16.3, 16.7, 16.2, 17.4, 16.7, 16.8, 17.1, 15.9, 16.8, 16.6, 16.6, 16.6, 16.6, 16.6, 17.3, 16, 18.4, 15, 18.7, 14.9, 16.5, 16.7, 16.7, 16.5, 16.7, 16.6, 16.6, 16.9, 18.3, 14.9, 16.7, 16.4, 16.8, 18.5, 14.9, 18, 15.3, 16.7, 17.1, 16.3, 16.6, 16.9, 16.4, 16.6, 16.7, 16.5, 16.7, 16.8, 19.3, 14, 17, 16.2, 16.9, 17.5, 17.5, 14.8, 16.3, 16.9, 16.8, 19.7, 13.6, 17, 17.3, 16.6, 16.4, 17.4, 17.1, 16, 15.6, 18.1, 16.9, 16.2, 17.4, 14.8, 17.4, 17.5, 17.3, 16, 16.8, 16, 15.4, 18.7, 15.3, 16.4, 17.1, 15.6, 16.8, 16.9, 17.4, 16.3, 17.6, 15.8, 17.7, 16.2, 16.8, 17, 16.5, 16.3, 17.2, 15.8, 16.9, 17.2, 16.6, 15.3, 18.3, 16.7, 14.9, 18.1, 15.4, 16.3, 17.7, 15.9, 16, 18.7, 15.4, 16.7, 16.2, 17, 15.7, 18.1, 17.1, 15.5, 16.8, 17.2, 17.7, 15.5, 17.9, 15.4, 17.9, 16.3, 15.4, 18.3, 17, 15.8, 16.8, 16.1, 17.7, 17.1, 15.2, 16.8, 17, 16.9, 16.7, 15.5, 17.2, 16.8, 16.9, 17.3, 14.8, 18.2, 16.5, 17, 16.1, 15.8, 16.5, 18.3, 14.8, 16.8, 18.3, 15.8, 16, 18.1, 15.7, 16.1, 17.3, 17.5, 15.2, 18.1, 15, 17.8, 15.8, 16.8, 18.1, 15.2, 18.5, 15.6, 17.3, 16.6, 15.1, 18.1, 15.2, 16.7, 17.4, 15.7, 16.9, 16.9, 16.3, 17.8, 16.5, 16.8, 17.2, 16.8, 16, 17, 16.7, 15.5, 18.1, 16.2, 15.2, 17.4, 17.8, 15.1, 17.5, 17.3, 14.9, 17.3, 16.1, 16.8, 17.5, 17.2, 16.8, 16.7, 16.7, 15.5, 18.2, 16.3, 15.5, 16.9, 17.8, 16.2]",60.0,57.0,60.0,5013.9,[],,,,,,,,,,,,,,,,,,,,,,,,,HRV,HRV_0035,2022-11-30 18:39:33
,wl-html-keyboard-response,2,17145,0.0-2.0-0.0,0.0,3.0,,,,,,,,7067.399999999441,0.0,0,,,,,,,,,,,,,,,,,,,,,,HRV,HRV_0035,2022-11-30 18:39:33
,wl-rdm,3,24783,0.0-3.0-0.0,0.0,4.0,,,,,,,[],,,,0.0,0.0,87.9,0.0,u,0.0,True,2007.0,121.0,60.0,40.0,False,,3000.0,[],"[800, 450]",ColorTask_Demo,,,,,HRV,HRV_0035,2022-11-30 18:39:33
,wl-rdm,4,29215,0.0-3.0-1.0,0.0,5.0,,,,,,,[],,,,0.0,0.0,87.9,1.0,i,1.0,True,342.40000000130385,21.0,60.0,40.0,False,,2000.0,[],"[800, 450]",ColorTask_Demo,,,,,HRV,HRV_0035,2022-11-30 18:39:33
,wl-html-keyboard-response,5,33301,0.0-3.0-2.0,0.0,6.0,,,,,,,,2080.5999999996275,0.0,1,,,,,,,,,,,,,,,,,,,,,,HRV,HRV_0035,2022-11-30 18:39:33
,wl-html-keyboard-response,6,41925,0.0-4.0-0.0,0.0,7.0,,,,,,,,6615.200000000186,0.0,0,,,,,,,,,,,,,,,,,,,,,,HRV,HRV_0035,2022-11-30 18:39:33
,wl-html-keyboard-response,7,49909,0.0-5.0-0.0,0.0,8.0,,,,,,,,5974.5,0.0,0,,,,,,,,,,,,,,,,,,,,,,HRV,HRV_0035,2022-11-30 18:39:33
,wl-rdm,8,51875,0.0-6.0-0.0,0.0,9.0,,,,,,,[],,,,,,53.2,1.0,i,1.0,True,624.0000000009313,38.0,60.0,40.0,False,,269.25491396278807,[],"[800, 450]",ColorTask,1.0,1.0,,,HRV,HRV_0035,2022-11-30 18:39:33
,wl-rdm,9,53725,0.0-6.1-0.1,0.0,10.0,,,,,,,[],,,,,,56.4,1.0,i,1.0,True,516.6999999992549,31.0,60.0,40.0,False,,252.4573665769717,[],"[800, 450]",ColorTask,2.0,2.0,,,HRV,HRV_0035,2022-11-30 18:39:33
,wl-rdm,10,55591,0.0-6.2-0.2,0.0,11.0,,,,,,,[],,,,,,50.0,0.0,i,1.0,False,580.0000000009313,35.0,60.0,40.0,False,,227.85214537496398,[],"[800, 450]",ColorTask,1.0,3.0,,,HRV,HRV_0035,2022-11-30 18:39:33
,wl-rdm,11,57774,0.0-6.3-0.3,0.0,12.0,,,,,,,[],,,,,,87.9,1.0,i,1.0,True,726.7000000001863,44.0,60.0,40.0,False,,391.87654001089123,[],"[800, 450]",ColorTask,2.0,4.0,,,HRV,HRV_0035,2022-11-30 18:39:33
,wl-rdm,12,60073,0.0-6.4-0.4,0.0,13.0,,,,,,,[],,,,,,56.4,1.0,u,0.0,False,984.5999999996275,59.0,60.0,40.0,False,,237.02599722252634,[],"[800, 450]",ColorTask,1.0,5.0,,,HRV,HRV_0035,2022-11-30 18:39:33
,wl-rdm,13,62223,0.0-6.5-0.5,0.0,14.0,,,,,,,[],,,,,,73.6,1.0,i,1.0,True,806.4000000003725,46.0,60.0,40.0,False,,263.9628977396742,[],"[800, 450]",ColorTask,2.0,6.0,,,HRV,HRV_0035,2022-11-30 18:39:33
,wl-rdm,14,64305,0.0-6.6-0.6,0.0,15.0,,,,,,,[],,,,,,73.6,1.0,i,1.0,True,773.5999999996275,47.0,60.0,40.0,False,,241.5572981285761,[],"[800, 450]",ColorTask,3.0,7.0,,,HRV,HRV_0035,2022-11-30 18:39:33
,wl-rdm,15,66255,0.0-6.7-0.7,0.0,16.0,,,,,,,[],,,,,,56.4,1.0,u,0.0,False,646.7000000001863,39.0,60.0,40.0,False,,233.60050627409944,[],"[800, 450]",ColorTask,2.0,8.0,,,HRV,HRV_0035,2022-11-30 18:39:33
,wl-rdm,16,68338,0.0-6.8-0.8,0.0,17.0,,,,,,,[],,,,,,87.9,0.0,u,0.0,True,607.2999999998137,37.0,60.0,40.0,False,,399.4610456135895,[],"[800, 450]",ColorTask,3.0,9.0,,,HRV,HRV_0035,2022-11-30 18:39:33
,wl-rdm,17,70570,0.0-6.9-0.9,0.0,18.0,,,,,,,[],,,,,,53.2,0.0,u,0.0,True,859.7000000001863,52.0,60.0,40.0,False,,299.3583943804837,[],"[800, 450]",ColorTask,4.0,10.0,,,HRV,HRV_0035,2022-11-30 18:39:33
,wl-rdm,18,72586,0.0-6.10-0.10,0.0,19.0,,,,,,,[],,,,,,62.5,0.0,u,0.0,True,707.9000000003725,43.0,60.0,40.0,False,,235.24524378875094,[],"[800, 450]",ColorTask,5.0,11.0,,,HRV,HRV_0035,2022-11-30 18:39:33
,wl-rdm,19,74470,0.0-6.11-0.11,0.0,20.0,,,,,,,[],,,,,,73.6,0.0,u,0.0,True,533.7999999988824,32.0,60.0,40.0,False,,270.98674697590667,[],"[800, 450]",ColorTask,6.0,12.0,,,HRV,HRV_0035,2022-11-30 18:39:33
,wl-rdm,20,76434,0.0-6.12-0.12,0.0,21.0,,,,,,,[],,,,,,87.9,1.0,i,1.0,True,610.5000000009313,37.0,60.0,40.0,False,,286.13292069876786,[],"[800, 450]",ColorTask,7.0,13.0,,,HRV,HRV_0035,2022-11-30 18:39:33
,wl-rdm,21,78418,0.0-6.13-0.13,0.0,22.0,,,,,,,[],,,,,,56.4,1.0,i,1.0,True,707.5,43.0,60.0,40.0,False,,202.89318460054227,[],"[800, 450]",ColorTask,8.0,14.0,,,HRV,HRV_0035,2022-11-30 18:39:33
,wl-rdm,22,80316,0.0-6.14-0.14,0.0,23.0,,,,,,,[],,,,,,56.4,1.0,i,1.0,True,613.3000000007451,37.0,60.0,40.0,False,,216.21134325935284,[],"[800, 450]",ColorTask,9.0,15.0,,,HRV,HRV_0035,2022-11-30 18:39:33
,wl-rdm,23,82215,0.0-6.15-0.15,0.0,24.0,,,,,,,[],,,,,,56.4,0.0,i,1.0,False,524.3999999994412,32.0,60.0,40.0,False,,290.9767187478178,[],"[800, 450]",ColorTask,8.0,16.0,,,HRV,HRV_0035,2022-11-30 18:39:33
,wl-rdm,24,84267,0.0-6.16-0.16,0.0,25.0,,,,,,,[],,,,,,62.5,0.0,u,0.0,True,627.3999999994412,38.0,60.0,40.0,False,,344.94765849924147,[],"[800, 450]",ColorTask,9.0,17.0,,,HRV,HRV_0035,2022-11-30 18:39:33
,wl-rdm,25,86383,0.0-6.17-0.17,0.0,26.0,,,,,,,[],,,,,,50.0,1.0,u,0.0,False,675.0999999996275,41.0,60.0,40.0,False,,370.71458692330344,[],"[800, 450]",ColorTask,8.0,18.0,,,HRV,HRV_0035,2022-11-30 18:39:33
,wl-rdm,26,88682,0.0-6.18-0.18,0.0,27.0,,,,,,,[],,,,,,62.5,1.0,u,0.0,False,840.2999999988824,51.0,60.0,40.0,False,,374.85272265233004,[],"[800, 450]",ColorTask,7.0,19.0,,,HRV,HRV_0035,2022-11-30 18:39:33
,wl-rdm,27,90764,0.0-6.19-0.19,0.0,28.0,,,,,,,[],,,,,,62.5,1.0,i,1.0,True,677.2999999998137,41.0,60.0,40.0,False,,324.63467496401984,[],"[800, 450]",ColorTask,8.0,20.0,,,HRV,HRV_0035,2022-11-30 18:39:33
,wl-rdm,28,93113,0.0-6.20-0.20,0.0,29.0,,,,,,,[],,,,,,53.2,0.0,u,0.0,True,1059.6000000005588,64.0,60.0,40.0,False,,200.96245692022347,[],"[800, 450]",ColorTask,9.0,21.0,,,HRV,HRV_0035,2022-11-30 18:39:33
,wl-rdm,29,95063,0.0-6.21-0.21,0.0,30.0,,,,,,,[],,,,,,87.9,0.0,u,0.0,True,639.4999999990687,38.0,60.0,40.0,False,,221.10889477531555,[],"[800, 450]",ColorTask,10.0,22.0,,,HRV,HRV_0035,2022-11-30 18:39:33
,wl-rdm,30,97062,0.0-6.22-0.22,0.0,31.0,,,,,,,[],,,,,,73.6,0.0,i,1.0,False,680.3999999994412,41.0,60.0,40.0,False,,236.29389954617645,[],"[800, 450]",ColorTask,9.0,23.0,,,HRV,HRV_0035,2022-11-30 18:39:33
,wl-rdm,31,99012,0.0-6.23-0.23,0.0,32.0,,,,,,,[],,,,,,56.4,0.0,i,1.0,False,656.0999999996275,40.0,60.0,40.0,False,,207.79089954245285,[],"[800, 450]",ColorTask,8.0,24.0,,,HRV,HRV_0035,2022-11-30 18:39:33
,wl-rdm,32,100928,0.0-6.24-0.24,0.0,33.0,,,,,,,[],,,,,,53.2,0.0,u,0.0,True,626.2999999998137,38.0,60.0,40.0,False,,201.53645006571358,[],"[800, 450]",ColorTask,9.0,25.0,,,HRV,HRV_0035,2022-11-30 18:39:33
,wl-rdm,33,102793,0.0-6.25-0.25,0.0,34.0,,,,,,,[],,,,,,87.9,1.0,i,1.0,True,540.1000000005588,33.0,60.0,40.0,False,,237.64545370922968,[],"[800, 450]",ColorTask,10.0,26.0,,,HRV,HRV_0035,2022-11-30 18:39:33
,wl-rdm,34,105010,0.0-6.26-0.26,0.0,35.0,,,,,,,[],,,,,,50.0,0.0,i,1.0,False,807.6999999992549,49.0,60.0,40.0,False,,327.6638268614329,[],"[800, 450]",ColorTask,9.0,27.0,,,HRV,HRV_0035,2022-11-30 18:39:33
,wl-rdm,35,107075,0.0-6.27-0.27,0.0,36.0,,,,,,,[],,,,,,50.0,1.0,u,0.0,False,692.1000000005588,42.0,60.0,40.0,False,,292.28892429848827,[],"[800, 450]",ColorTask,8.0,28.0,,,HRV,HRV_0035,2022-11-30 18:39:33
,wl-rdm,36,109375,0.0-6.28-0.28,0.0,37.0,,,,,,,[],,,,,,50.0,1.0,u,0.0,False,914.3999999994412,55.0,60.0,40.0,False,,302.3496026397668,[],"[800, 450]",ColorTask,7.0,29.0,,,HRV,HRV_0035,2022-11-30 18:39:33
,wl-rdm,37,111259,0.0-6.29-0.29,0.0,38.0,,,,,,,[],,,,,,87.9,1.0,i,1.0,True,612.5,37.0,60.0,40.0,False,,207.76425417292108,[],"[800, 450]",ColorTask,8.0,30.0,,,HRV,HRV_0035,2022-11-30 18:39:33
,wl-rdm,38,113373,0.0-6.30-0.30,0.0,39.0,,,,,,,[],,,,,,73.6,0.0,u,0.0,True,724.9000000003725,44.0,60.0,40.0,False,,321.4304177069032,[],"[800, 450]",ColorTask,9.0,31.0,,,HRV,HRV_0035,2022-11-30 18:39:33
,wl-rdm,39,115822,0.0-6.31-0.31,0.0,40.0,,,,,,,[],,,,,,50.0,0.0,i,1.0,False,1060.6000000005588,64.0,60.0,40.0,False,,312.6040503345872,[],"[800, 450]",ColorTask,8.0,32.0,,,HRV,HRV_0035,2022-11-30 18:39:33
,wl-rdm,40,117940,0.0-6.32-0.32,0.0,41.0,,,,,,,[],,,,,,73.6,0.0,u,0.0,True,807.5,49.0,60.0,40.0,False,,240.47998269333095,[],"[800, 450]",ColorTask,9.0,33.0,,,HRV,HRV_0035,2022-11-30 18:39:33
,wl-rdm,41,119938,0.0-6.33-0.33,0.0,42.0,,,,,,,[],,,,,,56.4,0.0,u,0.0,True,659.5,40.0,60.0,40.0,False,,252.677784815417,[],"[800, 450]",ColorTask,10.0,34.0,,,HRV,HRV_0035,2022-11-30 18:39:33
,wl-rdm,42,121988,0.0-6.34-0.34,0.0,43.0,,,,,,,[],,,,,,62.5,0.0,u,0.0,True,774.0,47.0,60.0,40.0,False,,200.38952986202682,[],"[800, 450]",ColorTask,11.0,35.0,,,HRV,HRV_0035,2022-11-30 18:39:33
,wl-rdm,43,124071,0.0-6.35-0.35,0.0,44.0,,,,,,,[],,,,,,62.5,1.0,i,1.0,True,622.2000000001863,38.0,60.0,40.0,False,,372.9591024059249,[],"[800, 450]",ColorTask,12.0,36.0,,,HRV,HRV_0035,2022-11-30 18:39:33
,wl-rdm,44,126087,0.0-6.36-0.36,0.0,45.0,,,,,,,[],,,,,,56.4,0.0,u,0.0,True,711.7999999998137,43.0,60.0,40.0,False,,230.8370010176455,[],"[800, 450]",ColorTask,13.0,37.0,,,HRV,HRV_0035,2022-11-30 18:39:33
,wl-rdm,45,128202,0.0-6.37-0.37,0.0,46.0,,,,,,,[],,,,,,53.2,1.0,i,1.0,True,727.6999999992549,44.0,60.0,40.0,False,,303.4689287494112,[],"[800, 450]",ColorTask,14.0,38.0,,,HRV,HRV_0035,2022-11-30 18:39:33
,wl-rdm,46,130270,0.0-6.38-0.38,0.0,47.0,,,,,,,[],,,,,,73.6,1.0,i,1.0,True,706.5,43.0,60.0,40.0,False,,266.6217204921159,[],"[800, 450]",ColorTask,15.0,39.0,,,HRV,HRV_0035,2022-11-30 18:39:33
,wl-rdm,47,132334,0.0-6.39-0.39,0.0,48.0,,,,,,,[],,,,,,73.6,1.0,i,1.0,True,673.2000000011176,41.0,60.0,40.0,False,,310.6227170295774,[],"[800, 450]",ColorTask,16.0,40.0,,,HRV,HRV_0035,2022-11-30 18:39:33
,wl-rdm,48,134351,0.0-6.40-0.40,0.0,49.0,,,,,,,[],,,,,,50.0,0.0,u,0.0,True,640.2999999998137,39.0,60.0,40.0,False,,293.1063166693889,[],"[800, 450]",ColorTask,17.0,41.0,,,HRV,HRV_0035,2022-11-30 18:39:33
,wl-rdm,49,136285,0.0-6.41-0.41,0.0,50.0,,,,,,,[],,,,,,50.0,1.0,i,1.0,True,623.6999999992549,38.0,60.0,40.0,False,,242.0550323818531,[],"[800, 450]",ColorTask,18.0,42.0,,,HRV,HRV_0035,2022-11-30 18:39:33
,wl-rdm,50,138250,0.0-6.42-0.42,0.0,51.0,,,,,,,[],,,,,,87.9,1.0,i,1.0,True,658.0,40.0,60.0,40.0,False,,228.9095717450404,[],"[800, 450]",ColorTask,19.0,43.0,,,HRV,HRV_0035,2022-11-30 18:39:33
,wl-rdm,51,140184,0.0-6.43-0.43,0.0,52.0,,,,,,,[],,,,,,62.5,1.0,i,1.0,True,561.9999999990687,34.0,60.0,40.0,False,,285.82932470980006,[],"[800, 450]",ColorTask,20.0,44.0,,,HRV,HRV_0035,2022-11-30 18:39:33
,wl-rdm,52,142082,0.0-6.44-0.44,0.0,53.0,,,,,,,[],,,,,,87.9,0.0,u,0.0,True,585.2000000001863,35.0,60.0,40.0,False,,231.76982867675721,[],"[800, 450]",ColorTask,21.0,45.0,,,HRV,HRV_0035,2022-11-30 18:39:33
,wl-rdm,53,143931,0.0-6.45-0.45,0.0,54.0,,,,,,,[],,,,,,56.4,1.0,u,0.0,False,524.5,32.0,60.0,40.0,False,,263.40275963521503,[],"[800, 450]",ColorTask,20.0,46.0,,,HRV,HRV_0035,2022-11-30 18:39:33
,wl-rdm,54,145815,0.0-6.46-0.46,0.0,55.0,,,,,,,[],,,,,,50.0,0.0,i,1.0,False,558.5,34.0,60.0,40.0,False,,250.98344366708704,[],"[800, 450]",ColorTask,19.0,47.0,,,HRV,HRV_0035,2022-11-30 18:39:33
,wl-rdm,55,147880,0.0-6.47-0.47,0.0,56.0,,,,,,,[],,,,,,53.2,0.0,i,1.0,False,608.7999999998137,37.0,60.0,40.0,False,,373.2936611311129,[],"[800, 450]",ColorTask,18.0,48.0,,,HRV,HRV_0035,2022-11-30 18:39:33
,wl-rdm,56,149981,0.0-6.48-0.48,0.0,57.0,,,,,,,[],,,,,,62.5,0.0,u,0.0,True,809.1000000005588,49.0,60.0,40.0,False,,211.96564726416057,[],"[800, 450]",ColorTask,19.0,49.0,,,HRV,HRV_0035,2022-11-30 18:39:33
,wl-rdm,57,151964,0.0-6.49-0.49,0.0,58.0,,,,,,,[],,,,,,87.9,1.0,i,1.0,True,677.0,41.0,60.0,40.0,False,,234.2130475317894,[],"[800, 450]",ColorTask,20.0,50.0,,,HRV,HRV_0035,2022-11-30 18:39:33
,wl-rdm,58,154579,0.0-6.50-0.50,0.0,59.0,,,,,,,[],,,,,,56.4,1.0,i,1.0,True,1305.8999999994412,79.0,60.0,40.0,False,,221.0252426649405,[],"[800, 450]",ColorTask,21.0,51.0,,,HRV,HRV_0035,2022-11-30 18:39:33
,wl-rdm,59,157144,0.0-6.51-0.51,0.0,60.0,,,,,,,[],,,,,,56.4,0.0,i,1.0,False,1096.5999999996275,66.0,60.0,40.0,False,,392.54846783410676,[],"[800, 450]",ColorTask,20.0,52.0,,,HRV,HRV_0035,2022-11-30 18:39:33
,wl-rdm,60,159276,0.0-6.52-0.52,0.0,61.0,,,,,,,[],,,,,,53.2,0.0,i,1.0,False,790.2999999998137,48.0,60.0,40.0,False,,256.37100170398094,[],"[800, 450]",ColorTask,19.0,53.0,,,HRV,HRV_0035,2022-11-30 18:39:33
,wl-rdm,61,161292,0.0-6.53-0.53,0.0,62.0,,,,,,,[],,,,,,87.9,0.0,u,0.0,True,708.0,43.0,60.0,40.0,False,,236.14575335988098,[],"[800, 450]",ColorTask,20.0,54.0,,,HRV,HRV_0035,2022-11-30 18:39:33
,wl-rdm,62,163560,0.0-6.54-0.54,0.0,63.0,,,,,,,[],,,,,,62.5,1.0,i,1.0,True,843.6999999992549,51.0,60.0,40.0,False,,360.3018830751423,[],"[800, 450]",ColorTask,21.0,55.0,,,HRV,HRV_0035,2022-11-30 18:39:33
,wl-rdm,63,165610,0.0-6.55-0.55,0.0,64.0,,,,,,,[],,,,,,53.2,1.0,u,0.0,False,693.4000000013039,42.0,60.0,40.0,False,,288.4275403446495,[],"[800, 450]",ColorTask,20.0,56.0,,,HRV,HRV_0035,2022-11-30 18:39:33
,wl-rdm,64,167592,0.0-6.56-0.56,0.0,65.0,,,,,,,[],,,,,,73.6,0.0,u,0.0,True,663.8000000007451,40.0,60.0,40.0,False,,254.65714577498315,[],"[800, 450]",ColorTask,21.0,57.0,,,HRV,HRV_0035,2022-11-30 18:39:33
,wl-rdm,65,169858,0.0-6.57-0.57,0.0,66.0,,,,,,,[],,,,,,73.6,0.0,u,0.0,True,896.2999999998137,54.0,60.0,40.0,False,,290.7188545220364,[],"[800, 450]",ColorTask,22.0,58.0,,,HRV,HRV_0035,2022-11-30 18:39:33
,wl-rdm,66,171824,0.0-6.58-0.58,0.0,67.0,,,,,,,[],,,,,,87.9,0.0,u,0.0,True,544.5,33.0,60.0,40.0,False,,351.7038651526517,[],"[800, 450]",ColorTask,23.0,59.0,,,HRV,HRV_0035,2022-11-30 18:39:33
,wl-rdm,67,173724,0.0-6.59-0.59,0.0,68.0,,,,,,,[],,,,,,53.2,0.0,i,1.0,False,524.6000000005588,32.0,60.0,40.0,False,,297.5816036665693,[],"[800, 450]",ColorTask,22.0,60.0,,,HRV,HRV_0035,2022-11-30 18:39:33
,wl-rdm,68,175772,0.0-6.60-0.60,0.0,69.0,,,,,,,[],,,,,,62.5,1.0,i,1.0,True,757.1000000005588,46.0,60.0,40.0,False,,209.08434143488867,[],"[800, 450]",ColorTask,23.0,61.0,,,HRV,HRV_0035,2022-11-30 18:39:33
,wl-rdm,69,177856,0.0-6.61-0.61,0.0,70.0,,,,,,,[],,,,,,50.0,1.0,i,1.0,True,707.7999999988824,43.0,60.0,40.0,False,,297.2310640759535,[],"[800, 450]",ColorTask,24.0,62.0,,,HRV,HRV_0035,2022-11-30 18:39:33
,wl-rdm,70,179904,0.0-6.62-0.62,0.0,71.0,,,,,,,[],,,,,,73.6,1.0,i,1.0,True,741.4000000003725,45.0,60.0,40.0,False,,223.52938497096258,[],"[800, 450]",ColorTask,25.0,63.0,,,HRV,HRV_0035,2022-11-30 18:39:33
,wl-rdm,71,181921,0.0-6.63-0.63,0.0,72.0,,,,,,,[],,,,,,87.9,1.0,i,1.0,True,593.7999999988824,36.0,60.0,40.0,False,,365.41332686747273,[],"[800, 450]",ColorTask,26.0,64.0,,,HRV,HRV_0035,2022-11-30 18:39:33
,wl-rdm,72,183970,0.0-6.64-0.64,0.0,73.0,,,,,,,[],,,,,,73.6,1.0,i,1.0,True,761.1000000005588,46.0,60.0,40.0,False,,229.6967261856489,[],"[800, 450]",ColorTask,27.0,65.0,,,HRV,HRV_0035,2022-11-30 18:39:33
,wl-rdm,73,185987,0.0-6.65-0.65,0.0,74.0,,,,,,,[],,,,,,50.0,1.0,i,1.0,True,579.0,35.0,60.0,40.0,False,,357.69552415813354,[],"[800, 450]",ColorTask,28.0,66.0,,,HRV,HRV_0035,2022-11-30 18:39:33
,wl-rdm,74,188120,0.0-6.66-0.66,0.0,75.0,,,,,,,[],,,,,,53.2,1.0,i,1.0,True,692.4000000003725,42.0,60.0,40.0,False,,381.40389871607545,[],"[800, 450]",ColorTask,29.0,67.0,,,HRV,HRV_0035,2022-11-30 18:39:33
,wl-rdm,75,190153,0.0-6.67-0.67,0.0,76.0,,,,,,,[],,,,,,50.0,0.0,i,1.0,False,604.9000000003725,37.0,60.0,40.0,False,,361.9733304477047,[],"[800, 450]",ColorTask,28.0,68.0,,,HRV,HRV_0035,2022-11-30 18:39:33
,wl-rdm,76,192619,0.0-6.68-0.68,0.0,77.0,,,,,,,[],,,,,,73.6,0.0,u,0.0,True,1092.3999999994412,66.0,60.0,40.0,False,,300.26885155502003,[],"[800, 450]",ColorTask,29.0,69.0,,,HRV,HRV_0035,2022-11-30 18:39:33
,wl-rdm,77,194585,0.0-6.69-0.69,0.0,78.0,,,,,,,[],,,,,,62.5,1.0,i,1.0,True,697.0,42.0,60.0,40.0,False,,204.95808429455846,[],"[800, 450]",ColorTask,30.0,70.0,,,HRV,HRV_0035,2022-11-30 18:39:33
,wl-rdm,78,196467,0.0-6.70-0.70,0.0,79.0,,,,,,,[],,,,,,53.2,0.0,i,1.0,False,591.0999999996275,36.0,60.0,40.0,False,,209.10487670296172,[],"[800, 450]",ColorTask,29.0,71.0,,,HRV,HRV_0035,2022-11-30 18:39:33
,wl-rdm,79,198416,0.0-6.71-0.71,0.0,80.0,,,,,,,[],,,,,,53.2,1.0,i,1.0,True,607.0999999996275,37.0,60.0,40.0,False,,259.48201715226645,[],"[800, 450]",ColorTask,30.0,72.0,,,HRV,HRV_0035,2022-11-30 18:39:33
,wl-rdm,80,200616,0.0-6.72-0.72,0.0,81.0,,,,,,,[],,,,,,53.2,1.0,i,1.0,True,859.2000000001863,52.0,60.0,40.0,False,,260.90793471719485,[],"[800, 450]",ColorTask,31.0,73.0,,,HRV,HRV_0035,2022-11-30 18:39:33
,wl-rdm,81,202765,0.0-6.73-0.73,0.0,82.0,,,,,,,[],,,,,,56.4,1.0,u,0.0,False,707.2000000001863,43.0,60.0,40.0,False,,359.0298690250895,[],"[800, 450]",ColorTask,30.0,74.0,,,HRV,HRV_0035,2022-11-30 18:39:33
,wl-rdm,82,205164,0.0-6.74-0.74,0.0,83.0,,,,,,,[],,,,,,50.0,1.0,i,1.0,True,924.5,56.0,60.0,40.0,False,,383.6695474136744,[],"[800, 450]",ColorTask,31.0,75.0,,,HRV,HRV_0035,2022-11-30 18:39:33
,wl-rdm,83,207331,0.0-6.75-0.75,0.0,84.0,,,,,,,[],,,,,,50.0,0.0,u,0.0,True,839.0,51.0,60.0,40.0,False,,234.28117439014383,[],"[800, 450]",ColorTask,32.0,76.0,,,HRV,HRV_0035,2022-11-30 18:39:33
,wl-rdm,84,209281,0.0-6.76-0.76,0.0,85.0,,,,,,,[],,,,,,53.2,1.0,i,1.0,True,594.6000000005588,36.0,60.0,40.0,False,,280.07905667884626,[],"[800, 450]",ColorTask,33.0,77.0,,,HRV,HRV_0035,2022-11-30 18:39:33
,wl-rdm,85,211313,0.0-6.77-0.77,0.0,86.0,,,,,,,[],,,,,,62.5,1.0,u,0.0,False,578.7000000011176,35.0,60.0,40.0,False,,397.8737125244065,[],"[800, 450]",ColorTask,32.0,78.0,,,HRV,HRV_0035,2022-11-30 18:39:33
,wl-rdm,86,213212,0.0-6.78-0.78,0.0,87.0,,,,,,,[],,,,,,56.4,0.0,i,1.0,False,545.7999999998137,33.0,60.0,40.0,False,,291.81952411548986,[],"[800, 450]",ColorTask,31.0,79.0,,,HRV,HRV_0035,2022-11-30 18:39:33
,wl-rdm,87,215128,0.0-6.79-0.79,0.0,88.0,,,,,,,[],,,,,,62.5,0.0,u,0.0,True,625.5,38.0,60.0,40.0,False,,214.25561893259234,[],"[800, 450]",ColorTask,32.0,80.0,,,HRV,HRV_0035,2022-11-30 18:39:33
,wl-rdm,88,217094,0.0-6.80-0.80,0.0,89.0,,,,,,,[],,,,,,87.9,0.0,u,0.0,True,566.2999999998137,34.0,60.0,40.0,False,,316.3393786723914,[],"[800, 450]",ColorTask,33.0,81.0,,,HRV,HRV_0035,2022-11-30 18:39:33
,wl-rdm,89,219028,0.0-6.81-0.81,0.0,90.0,,,,,,,[],,,,,,62.5,0.0,i,1.0,False,544.9000000003725,33.0,60.0,40.0,False,,324.10308752363477,[],"[800, 450]",ColorTask,32.0,82.0,,,HRV,HRV_0035,2022-11-30 18:39:33
,wl-rdm,90,220977,0.0-6.82-0.82,0.0,91.0,,,,,,,[],,,,,,73.6,1.0,i,1.0,True,644.0000000009313,39.0,60.0,40.0,False,,218.24645868275195,[],"[800, 450]",ColorTask,33.0,83.0,,,HRV,HRV_0035,2022-11-30 18:39:33
,wl-rdm,91,222943,0.0-6.83-0.83,0.0,92.0,,,,,,,[],,,,,,73.6,1.0,i,1.0,True,678.4000000003725,41.0,60.0,40.0,False,,226.3955041832139,[],"[800, 450]",ColorTask,34.0,84.0,,,HRV,HRV_0035,2022-11-30 18:39:33
,wl-rdm,92,225042,0.0-6.84-0.84,0.0,93.0,,,,,,,[],,,,,,62.5,0.0,u,0.0,True,789.8999999994412,48.0,60.0,40.0,False,,250.0026941391091,[],"[800, 450]",ColorTask,35.0,85.0,,,HRV,HRV_0035,2022-11-30 18:39:33
,wl-rdm,93,227059,0.0-6.85-0.85,0.0,94.0,,,,,,,[],,,,,,87.9,1.0,i,1.0,True,547.3000000007451,33.0,60.0,40.0,False,,389.4313954473464,[],"[800, 450]",ColorTask,36.0,86.0,,,HRV,HRV_0035,2022-11-30 18:39:33
,wl-rdm,94,229424,0.0-6.86-0.86,0.0,95.0,,,,,,,[],,,,,,62.5,1.0,i,1.0,True,974.9000000003725,59.0,60.0,40.0,False,,326.6659677389183,[],"[800, 450]",ColorTask,37.0,87.0,,,HRV,HRV_0035,2022-11-30 18:39:33
,wl-rdm,95,231374,0.0-6.87-0.87,0.0,96.0,,,,,,,[],,,,,,56.4,0.0,i,1.0,False,607.1999999992549,37.0,60.0,40.0,False,,276.65856917791916,[],"[800, 450]",ColorTask,36.0,88.0,,,HRV,HRV_0035,2022-11-30 18:39:33
,wl-rdm,96,233341,0.0-6.88-0.88,0.0,97.0,,,,,,,[],,,,,,87.9,0.0,u,0.0,True,593.2000000001863,36.0,60.0,40.0,False,,293.382271369337,[],"[800, 450]",ColorTask,37.0,89.0,,,HRV,HRV_0035,2022-11-30 18:39:33
,wl-rdm,97,235657,0.0-6.89-0.89,0.0,98.0,,,,,,,[],,,,,,62.5,0.0,u,0.0,True,957.1999999992549,58.0,60.0,40.0,False,,294.8139684075624,[],"[800, 450]",ColorTask,38.0,90.0,,,HRV,HRV_0035,2022-11-30 18:39:33
,wl-rdm,98,237656,0.0-6.90-0.90,0.0,99.0,,,,,,,[],,,,,,87.9,0.0,u,0.0,True,709.7999999998137,43.0,60.0,40.0,False,,210.36115258050953,[],"[800, 450]",ColorTask,39.0,91.0,,,HRV,HRV_0035,2022-11-30 18:39:33
,wl-rdm,99,239706,0.0-6.91-0.91,0.0,100.0,,,,,,,[],,,,,,73.6,0.0,i,1.0,False,725.5,44.0,60.0,40.0,False,,234.5616046542521,[],"[800, 450]",ColorTask,38.0,92.0,,,HRV,HRV_0035,2022-11-30 18:39:33
,wl-rdm,100,241722,0.0-6.92-0.92,0.0,101.0,,,,,,,[],,,,,,50.0,0.0,i,1.0,False,641.1000000005588,39.0,60.0,40.0,False,,289.09644829987025,[],"[800, 450]",ColorTask,37.0,93.0,,,HRV,HRV_0035,2022-11-30 18:39:33
,wl-rdm,101,243637,0.0-6.93-0.93,0.0,102.0,,,,,,,[],,,,,,87.9,1.0,i,1.0,True,643.3999999994412,39.0,60.0,40.0,False,,200.93315917251067,[],"[800, 450]",ColorTask,38.0,94.0,,,HRV,HRV_0035,2022-11-30 18:39:33
,wl-rdm,102,245571,0.0-6.94-0.94,0.0,103.0,,,,,,,[],,,,,,56.4,0.0,i,1.0,False,625.8000000007451,38.0,60.0,40.0,False,,229.52502076974898,[],"[800, 450]",ColorTask,37.0,95.0,,,HRV,HRV_0035,2022-11-30 18:39:33
,wl-rdm,103,247703,0.0-6.95-0.95,0.0,104.0,,,,,,,[],,,,,,53.2,1.0,u,0.0,False,706.7000000001863,42.0,60.0,40.0,False,,363.31252802218796,[],"[800, 450]",ColorTask,36.0,96.0,,,HRV,HRV_0035,2022-11-30 18:39:33
,wl-rdm,104,250402,0.0-6.96-0.96,0.0,105.0,,,,,,,[],,,,,,53.2,1.0,i,1.0,True,1307.0999999996275,79.0,60.0,40.0,False,,330.62440460913825,[],"[800, 450]",ColorTask,37.0,97.0,,,HRV,HRV_0035,2022-11-30 18:39:33
,wl-rdm,105,252436,0.0-6.97-0.97,0.0,106.0,,,,,,,[],,,,,,50.0,1.0,i,1.0,True,692.6000000005588,42.0,60.0,40.0,False,,270.9037178310606,[],"[800, 450]",ColorTask,38.0,98.0,,,HRV,HRV_0035,2022-11-30 18:39:33
,wl-rdm,106,254752,0.0-6.98-0.98,0.0,107.0,,,,,,,[],,,,,,53.2,0.0,i,1.0,False,991.9999999990687,60.0,60.0,40.0,False,,251.6443113747124,[],"[800, 450]",ColorTask,37.0,99.0,,,HRV,HRV_0035,2022-11-30 18:39:33
,wl-rdm,107,256901,0.0-6.99-0.99,0.0,108.0,,,,,,,[],,,,,,56.4,1.0,i,1.0,True,777.2000000001863,47.0,60.0,40.0,False,,310.763651896824,[],"[800, 450]",ColorTask,38.0,100.0,,,HRV,HRV_0035,2022-11-30 18:39:33
,wl-rdm,108,258800,0.0-6.100-0.100,0.0,109.0,,,,,,,[],,,,,,50.0,0.0,i,1.0,False,575.5999999996275,34.0,60.0,40.0,False,,252.29210524330747,[],"[800, 450]",ColorTask,37.0,101.0,,,HRV,HRV_0035,2022-11-30 18:39:33
,wl-rdm,109,260717,0.0-6.101-0.101,0.0,110.0,,,,,,,[],,,,,,53.2,0.0,u,0.0,True,626.2000000001863,38.0,60.0,40.0,False,,208.64181163640967,[],"[800, 450]",ColorTask,38.0,102.0,,,HRV,HRV_0035,2022-11-30 18:39:33
,wl-rdm,110,262649,0.0-6.102-0.102,0.0,111.0,,,,,,,[],,,,,,73.6,1.0,u,0.0,False,563.5,34.0,60.0,40.0,False,,315.58634130508125,[],"[800, 450]",ColorTask,37.0,103.0,,,HRV,HRV_0035,2022-11-30 18:39:33
,wl-rdm,111,264649,0.0-6.103-0.103,0.0,112.0,,,,,,,[],,,,,,62.5,0.0,u,0.0,True,577.2999999998137,35.0,60.0,40.0,False,,365.74036608124266,[],"[800, 450]",ColorTask,38.0,104.0,,,HRV,HRV_0035,2022-11-30 18:39:33
,wl-rdm,112,266764,0.0-6.104-0.104,0.0,113.0,,,,,,,[],,,,,,73.6,0.0,u,0.0,True,675.5,41.0,60.0,40.0,False,,358.93287003393505,[],"[800, 450]",ColorTask,39.0,105.0,,,HRV,HRV_0035,2022-11-30 18:39:33
,wl-rdm,113,269297,0.0-6.105-0.105,0.0,114.0,,,,,,,[],,,,,,56.4,0.0,u,0.0,True,1139.800000000745,69.0,60.0,40.0,False,,333.38300523621706,[],"[800, 450]",ColorTask,40.0,106.0,,,HRV,HRV_0035,2022-11-30 18:39:33
,wl-rdm,114,271630,0.0-6.106-0.106,0.0,115.0,,,,,,,[],,,,,,87.9,0.0,u,0.0,True,907.6000000005588,55.0,60.0,40.0,False,,359.79318919586717,[],"[800, 450]",ColorTask,41.0,107.0,,,HRV,HRV_0035,2022-11-30 18:39:33
,wl-rdm,115,273927,0.0-6.107-0.107,0.0,116.0,,,,,,,[],,,,,,50.0,1.0,u,0.0,False,871.8000000007451,53.0,60.0,40.0,False,,365.741563755278,[],"[800, 450]",ColorTask,40.0,108.0,,,HRV,HRV_0035,2022-11-30 18:39:33
,wl-html-keyboard-response,116,281912,0.0-7.0-0.0,1.0,117.0,,,,,,,,5970.299999999814,1.0,0,,,,,,,,,,,,,,,,,,,,,,HRV,HRV_0035,2022-11-30 18:39:33
,wl-rdm,117,283893,0.0-8.0-0.0,1.0,118.0,,,,,,,[],,,,,,56.4,1.0,i,1.0,True,691.0,42.0,60.0,40.0,False,,215.06892461962238,[],"[800, 450]",ColorTask,41.0,1.0,,,HRV,HRV_0035,2022-11-30 18:39:33
,wl-rdm,118,285959,0.0-8.1-0.1,1.0,119.0,,,,,,,[],,,,,,53.2,1.0,u,0.0,False,677.5,41.0,60.0,40.0,False,,303.16566945097526,[],"[800, 450]",ColorTask,40.0,2.0,,,HRV,HRV_0035,2022-11-30 18:39:33
,wl-rdm,119,288158,0.0-8.2-0.2,1.0,120.0,,,,,,,[],,,,,,62.5,0.0,i,1.0,False,799.7999999998137,48.0,60.0,40.0,False,,326.44512887646675,[],"[800, 450]",ColorTask,39.0,3.0,,,HRV,HRV_0035,2022-11-30 18:39:33
,wl-rdm,120,289975,0.0-8.3-0.3,1.0,121.0,,,,,,,[],,,,,,87.9,1.0,i,1.0,True,490.19999999925494,30.0,60.0,40.0,False,,264.1892862623373,[],"[800, 450]",ColorTask,40.0,4.0,,,HRV,HRV_0035,2022-11-30 18:39:33
,wl-rdm,121,291940,0.0-8.4-0.4,1.0,122.0,,,,,,,[],,,,,,53.2,0.0,i,1.0,False,629.2000000001863,38.0,60.0,40.0,False,,269.22914826101584,[],"[800, 450]",ColorTask,39.0,5.0,,,HRV,HRV_0035,2022-11-30 18:39:33
,wl-rdm,122,293941,0.0-8.5-0.5,1.0,123.0,,,,,,,[],,,,,,50.0,0.0,u,0.0,True,690.0999999996275,42.0,60.0,40.0,False,,223.608892535005,[],"[800, 450]",ColorTask,40.0,6.0,,,HRV,HRV_0035,2022-11-30 18:39:33
,wl-rdm,123,295905,0.0-8.6-0.6,1.0,124.0,,,,,,,[],,,,,,53.2,1.0,i,1.0,True,590.6999999992549,36.0,60.0,40.0,False,,284.6797608367085,[],"[800, 450]",ColorTask,41.0,7.0,,,HRV,HRV_0035,2022-11-30 18:39:33
,wl-rdm,124,297955,0.0-8.7-0.7,1.0,125.0,,,,,,,[],,,,,,53.2,1.0,i,1.0,True,724.0999999996275,44.0,60.0,40.0,False,,234.379693171791,[],"[800, 450]",ColorTask,42.0,8.0,,,HRV,HRV_0035,2022-11-30 18:39:33
,wl-rdm,125,299871,0.0-8.8-0.8,1.0,126.0,,,,,,,[],,,,,,50.0,1.0,i,1.0,True,592.7999999988824,36.0,60.0,40.0,False,,261.02812767833314,[],"[800, 450]",ColorTask,43.0,9.0,,,HRV,HRV_0035,2022-11-30 18:39:33
,wl-rdm,126,301687,0.0-8.9-0.9,1.0,127.0,,,,,,,[],,,,,,53.2,0.0,i,1.0,False,511.59999999962747,31.0,60.0,40.0,False,,245.90211407045268,[],"[800, 450]",ColorTask,42.0,10.0,,,HRV,HRV_0035,2022-11-30 18:39:33
,wl-rdm,127,303787,0.0-8.10-0.10,1.0,128.0,,,,,,,[],,,,,,56.4,0.0,u,0.0,True,728.8999999994412,44.0,60.0,40.0,False,,282.68500412850625,[],"[800, 450]",ColorTask,43.0,11.0,,,HRV,HRV_0035,2022-11-30 18:39:33
,wl-rdm,128,305803,0.0-8.11-0.11,1.0,129.0,,,,,,,[],,,,,,87.9,0.0,u,0.0,True,629.2999999998137,38.0,60.0,40.0,False,,316.24136205227046,[],"[800, 450]",ColorTask,44.0,12.0,,,HRV,HRV_0035,2022-11-30 18:39:33
,wl-rdm,129,307852,0.0-8.12-0.12,1.0,130.0,,,,,,,[],,,,,,73.6,1.0,u,0.0,False,739.8000000007451,45.0,60.0,40.0,False,,218.041827337312,[],"[800, 450]",ColorTask,43.0,13.0,,,HRV,HRV_0035,2022-11-30 18:39:33
,wl-rdm,130,310418,0.0-8.13-0.13,1.0,131.0,,,,,,,[],,,,,,50.0,0.0,u,0.0,True,1271.9999999990687,77.0,60.0,40.0,False,,207.1549196214223,[],"[800, 450]",ColorTask,44.0,14.0,,,HRV,HRV_0035,2022-11-30 18:39:33
,wl-rdm,131,312651,0.0-8.14-0.14,1.0,132.0,,,,,,,[],,,,,,50.0,1.0,u,0.0,False,883.3000000007451,53.0,60.0,40.0,False,,264.49798019231486,[],"[800, 450]",ColorTask,43.0,15.0,,,HRV,HRV_0035,2022-11-30 18:39:33
,wl-rdm,132,314834,0.0-8.15-0.15,1.0,133.0,,,,,,,[],,,,,,62.5,1.0,i,1.0,True,740.2999999998137,45.0,60.0,40.0,False,,358.9977918988815,[],"[800, 450]",ColorTask,44.0,16.0,,,HRV,HRV_0035,2022-11-30 18:39:33
,wl-rdm,133,316900,0.0-8.16-0.16,1.0,134.0,,,,,,,[],,,,,,87.9,0.0,u,0.0,True,696.5999999996275,42.0,60.0,40.0,False,,303.6374534590587,[],"[800, 450]",ColorTask,45.0,17.0,,,HRV,HRV_0035,2022-11-30 18:39:33
,wl-rdm,134,319150,0.0-8.17-0.17,1.0,135.0,,,,,,,[],,,,,,53.2,1.0,i,1.0,True,840.2999999998137,51.0,60.0,40.0,False,,318.75991928905717,[],"[800, 450]",ColorTask,46.0,18.0,,,HRV,HRV_0035,2022-11-30 18:39:33
,wl-rdm,135,321231,0.0-8.18-0.18,1.0,136.0,,,,,,,[],,,,,,56.4,0.0,i,1.0,False,730.6000000005588,44.0,60.0,40.0,False,,292.38443934037514,[],"[800, 450]",ColorTask,45.0,19.0,,,HRV,HRV_0035,2022-11-30 18:39:33
,wl-rdm,136,323465,0.0-8.19-0.19,1.0,137.0,,,,,,,[],,,,,,87.9,0.0,u,0.0,True,923.7000000001863,56.0,60.0,40.0,False,,245.2343131244775,[],"[800, 450]",ColorTask,46.0,20.0,,,HRV,HRV_0035,2022-11-30 18:39:33
,wl-rdm,137,325814,0.0-8.20-0.20,1.0,138.0,,,,,,,[],,,,,,73.6,1.0,i,1.0,True,992.5000000009313,60.0,60.0,40.0,False,,278.6696137317354,[],"[800, 450]",ColorTask,47.0,21.0,,,HRV,HRV_0035,2022-11-30 18:39:33
,wl-rdm,138,327913,0.0-8.21-0.21,1.0,139.0,,,,,,,[],,,,,,73.6,0.0,i,1.0,False,759.7000000001863,46.0,60.0,40.0,False,,260.1670880642421,[],"[800, 450]",ColorTask,46.0,22.0,,,HRV,HRV_0035,2022-11-30 18:39:33
,wl-rdm,139,329997,0.0-8.22-0.22,1.0,140.0,,,,,,,[],,,,,,56.4,0.0,i,1.0,False,676.4999999990687,41.0,60.0,40.0,False,,337.2798232006079,[],"[800, 450]",ColorTask,45.0,23.0,,,HRV,HRV_0035,2022-11-30 18:39:33
,wl-rdm,140,332095,0.0-8.23-0.23,1.0,141.0,,,,,,,[],,,,,,53.2,0.0,i,1.0,False,743.6999999992549,45.0,60.0,40.0,False,,271.91127958433117,[],"[800, 450]",ColorTask,44.0,24.0,,,HRV,HRV_0035,2022-11-30 18:39:33
,wl-rdm,141,334362,0.0-8.24-0.24,1.0,142.0,,,,,,,[],,,,,,53.2,0.0,i,1.0,False,958.0,58.0,60.0,40.0,False,,226.02784019725826,[],"[800, 450]",ColorTask,43.0,25.0,,,HRV,HRV_0035,2022-11-30 18:39:33
,wl-rdm,142,336762,0.0-8.25-0.25,1.0,143.0,,,,,,,[],,,,,,62.5,1.0,i,1.0,True,1076.5,65.0,60.0,40.0,False,,235.92208359313918,[],"[800, 450]",ColorTask,44.0,26.0,,,HRV,HRV_0035,2022-11-30 18:39:33
,wl-rdm,143,338644,0.0-8.26-0.26,1.0,144.0,,,,,,,[],,,,,,50.0,1.0,i,1.0,True,576.4000000003725,35.0,60.0,40.0,False,,244.22433127814503,[],"[800, 450]",ColorTask,45.0,27.0,,,HRV,HRV_0035,2022-11-30 18:39:33
,wl-rdm,144,340627,0.0-8.27-0.27,1.0,145.0,,,,,,,[],,,,,,56.4,1.0,u,0.0,False,696.5,42.0,60.0,40.0,False,,210.59444758033908,[],"[800, 450]",ColorTask,44.0,28.0,,,HRV,HRV_0035,2022-11-30 18:39:33
,wl-rdm,145,342476,0.0-8.28-0.28,1.0,146.0,,,,,,,[],,,,,,62.5,1.0,u,0.0,False,482.79999999981374,28.0,60.0,40.0,False,,296.84423243681147,[],"[800, 450]",ColorTask,43.0,29.0,,,HRV,HRV_0035,2022-11-30 18:39:33
,wl-rdm,146,344560,0.0-8.29-0.29,1.0,147.0,,,,,,,[],,,,,,87.9,0.0,u,0.0,True,742.5999999996275,45.0,60.0,40.0,False,,275.97313225455235,[],"[800, 450]",ColorTask,44.0,30.0,,,HRV,HRV_0035,2022-11-30 18:39:33
,wl-rdm,147,346858,0.0-8.30-0.30,1.0,148.0,,,,,,,[],,,,,,62.5,0.0,u,0.0,True,924.5,56.0,60.0,40.0,False,,301.4623798215113,[],"[800, 450]",ColorTask,45.0,31.0,,,HRV,HRV_0035,2022-11-30 18:39:33
,wl-rdm,148,348841,0.0-8.31-0.31,1.0,149.0,,,,,,,[],,,,,,87.9,1.0,i,1.0,True,593.1000000005588,36.0,60.0,40.0,False,,304.42956910773563,[],"[800, 450]",ColorTask,46.0,32.0,,,HRV,HRV_0035,2022-11-30 18:39:33
,wl-rdm,149,350674,0.0-8.32-0.32,1.0,150.0,,,,,,,[],,,,,,62.5,0.0,i,1.0,False,522.9000000003725,32.0,60.0,40.0,False,,247.29155340849056,[],"[800, 450]",ColorTask,45.0,33.0,,,HRV,HRV_0035,2022-11-30 18:39:33
,wl-rdm,150,352607,0.0-8.33-0.33,1.0,151.0,,,,,,,[],,,,,,73.6,1.0,i,1.0,True,536.0,32.0,60.0,40.0,False,,320.3597645207948,[],"[800, 450]",ColorTask,46.0,34.0,,,HRV,HRV_0035,2022-11-30 18:39:33
,wl-rdm,151,354805,0.0-8.34-0.34,1.0,152.0,,,,,,,[],,,,,,50.0,0.0,u,0.0,True,741.6000000005588,45.0,60.0,40.0,False,,367.6533236880473,[],"[800, 450]",ColorTask,47.0,35.0,,,HRV,HRV_0035,2022-11-30 18:39:33
,wl-rdm,152,356855,0.0-8.35-0.35,1.0,153.0,,,,,,,[],,,,,,87.9,0.0,u,0.0,True,657.5,40.0,60.0,40.0,False,,307.8036784920444,[],"[800, 450]",ColorTask,48.0,36.0,,,HRV,HRV_0035,2022-11-30 18:39:33
,wl-rdm,153,358921,0.0-8.36-0.36,1.0,154.0,,,,,,,[],,,,,,50.0,0.0,i,1.0,False,791.0,48.0,60.0,40.0,False,,200.60503084053803,[],"[800, 450]",ColorTask,47.0,37.0,,,HRV,HRV_0035,2022-11-30 18:39:33
,wl-rdm,154,360937,0.0-8.37-0.37,1.0,155.0,,,,,,,[],,,,,,87.9,0.0,u,0.0,True,740.5,45.0,60.0,40.0,False,,215.68446422195206,[],"[800, 450]",ColorTask,48.0,38.0,,,HRV,HRV_0035,2022-11-30 18:39:33
,wl-rdm,155,362871,0.0-8.38-0.38,1.0,156.0,,,,,,,[],,,,,,56.4,0.0,u,0.0,True,643.5,39.0,60.0,40.0,False,,211.6470068674076,[],"[800, 450]",ColorTask,49.0,39.0,,,HRV,HRV_0035,2022-11-30 18:39:33
,wl-rdm,156,364820,0.0-8.39-0.39,1.0,157.0,,,,,,,[],,,,,,62.5,0.0,u,0.0,True,562.0000000009313,34.0,60.0,40.0,False,,313.8312230398169,[],"[800, 450]",ColorTask,50.0,40.0,,,HRV,HRV_0035,2022-11-30 18:39:33
,wl-rdm,157,366770,0.0-8.40-0.40,1.0,158.0,,,,,,,[],,,,,,56.4,0.0,u,0.0,True,624.7999999998137,38.0,60.0,40.0,False,,245.12181626516266,[],"[800, 450]",ColorTask,51.0,41.0,,,HRV,HRV_0035,2022-11-30 18:39:33
,wl-rdm,158,368834,0.0-8.41-0.41,1.0,159.0,,,,,,,[],,,,,,73.6,0.0,u,0.0,True,627.2999999998137,38.0,60.0,40.0,False,,357.94533150583493,[],"[800, 450]",ColorTask,52.0,42.0,,,HRV,HRV_0035,2022-11-30 18:39:33
,wl-rdm,159,370851,0.0-8.42-0.42,1.0,160.0,,,,,,,[],,,,,,62.5,1.0,i,1.0,True,712.7000000011176,43.0,60.0,40.0,False,,225.08713903228667,[],"[800, 450]",ColorTask,53.0,43.0,,,HRV,HRV_0035,2022-11-30 18:39:33
,wl-rdm,160,372851,0.0-8.43-0.43,1.0,161.0,,,,,,,[],,,,,,56.4,1.0,u,0.0,False,581.3000000007451,35.0,60.0,40.0,False,,336.30462671126867,[],"[800, 450]",ColorTask,52.0,44.0,,,HRV,HRV_0035,2022-11-30 18:39:33
,wl-rdm,161,374932,0.0-8.44-0.44,1.0,162.0,,,,,,,[],,,,,,73.6,1.0,u,0.0,False,676.7999999998137,41.0,60.0,40.0,False,,341.4879048546577,[],"[800, 450]",ColorTask,51.0,45.0,,,HRV,HRV_0035,2022-11-30 18:39:33
,wl-rdm,162,377000,0.0-8.45-0.45,1.0,163.0,,,,,,,[],,,,,,50.0,0.0,u,0.0,True,760.1999999992549,46.0,60.0,40.0,False,,220.27505707592422,[],"[800, 450]",ColorTask,52.0,46.0,,,HRV,HRV_0035,2022-11-30 18:39:33
,wl-rdm,163,379066,0.0-8.46-0.46,1.0,164.0,,,,,,,[],,,,,,62.5,0.0,u,0.0,True,640.8999999994412,39.0,60.0,40.0,False,,335.3635890686592,[],"[800, 450]",ColorTask,53.0,47.0,,,HRV,HRV_0035,2022-11-30 18:39:33
,wl-rdm,164,381197,0.0-8.47-0.47,1.0,165.0,,,,,,,[],,,,,,62.5,1.0,u,0.0,False,828.9000000003725,50.0,60.0,40.0,False,,231.10733539814112,[],"[800, 450]",ColorTask,52.0,48.0,,,HRV,HRV_0035,2022-11-30 18:39:33
,wl-rdm,165,383648,0.0-8.48-0.48,1.0,166.0,,,,,,,[],,,,,,50.0,1.0,u,0.0,False,1077.0,65.0,60.0,40.0,False,,309.04029429531045,[],"[800, 450]",ColorTask,51.0,49.0,,,HRV,HRV_0035,2022-11-30 18:39:33
,wl-rdm,166,385830,0.0-8.49-0.49,1.0,167.0,,,,,,,[],,,,,,53.2,0.0,u,0.0,True,762.4000000003725,46.0,60.0,40.0,False,,340.4735167289778,[],"[800, 450]",ColorTask,52.0,50.0,,,HRV,HRV_0035,2022-11-30 18:39:33
,wl-rdm,167,387862,0.0-8.50-0.50,1.0,168.0,,,,,,,[],,,,,,56.4,1.0,u,0.0,False,709.0999999996275,43.0,60.0,40.0,False,,247.06900877471247,[],"[800, 450]",ColorTask,51.0,51.0,,,HRV,HRV_0035,2022-11-30 18:39:33
,wl-rdm,168,390012,0.0-8.51-0.51,1.0,169.0,,,,,,,[],,,,,,53.2,1.0,u,0.0,False,739.8000000007451,45.0,60.0,40.0,False,,343.51476254412995,[],"[800, 450]",ColorTask,50.0,52.0,,,HRV,HRV_0035,2022-11-30 18:39:33
,wl-rdm,169,392362,0.0-8.52-0.52,1.0,170.0,,,,,,,[],,,,,,53.2,0.0,u,0.0,True,1040.5,63.0,60.0,40.0,False,,208.73494555869829,[],"[800, 450]",ColorTask,51.0,53.0,,,HRV,HRV_0035,2022-11-30 18:39:33
,wl-rdm,170,394744,0.0-8.53-0.53,1.0,171.0,,,,,,,[],,,,,,50.0,0.0,i,1.0,False,1112.2999999988824,67.0,60.0,40.0,False,,212.98159673079624,[],"[800, 450]",ColorTask,50.0,54.0,,,HRV,HRV_0035,2022-11-30 18:39:33
,wl-rdm,171,396678,0.0-8.54-0.54,1.0,172.0,,,,,,,[],,,,,,87.9,1.0,i,1.0,True,659.6999999992549,40.0,60.0,40.0,False,,210.0648061546651,[],"[800, 450]",ColorTask,51.0,55.0,,,HRV,HRV_0035,2022-11-30 18:39:33
,wl-rdm,172,398661,0.0-8.55-0.55,1.0,173.0,,,,,,,[],,,,,,53.2,0.0,i,1.0,False,657.3999999994412,40.0,60.0,40.0,False,,240.38158900041284,[],"[800, 450]",ColorTask,50.0,56.0,,,HRV,HRV_0035,2022-11-30 18:39:33
,wl-rdm,173,400792,0.0-8.56-0.56,1.0,174.0,,,,,,,[],,,,,,53.2,1.0,u,0.0,False,827.8999999994412,50.0,60.0,40.0,False,,218.5749534894971,[],"[800, 450]",ColorTask,49.0,57.0,,,HRV,HRV_0035,2022-11-30 18:39:33
,wl-rdm,174,402891,0.0-8.57-0.57,1.0,175.0,,,,,,,[],,,,,,53.2,1.0,u,0.0,False,706.6000000005588,43.0,60.0,40.0,False,,333.77900473090483,[],"[800, 450]",ColorTask,48.0,58.0,,,HRV,HRV_0035,2022-11-30 18:39:33
,wl-rdm,175,404991,0.0-8.58-0.58,1.0,176.0,,,,,,,[],,,,,,73.6,1.0,i,1.0,True,776.5999999996275,47.0,60.0,40.0,False,,247.16481637192945,[],"[800, 450]",ColorTask,49.0,59.0,,,HRV,HRV_0035,2022-11-30 18:39:33
,wl-rdm,176,407191,0.0-8.59-0.59,1.0,177.0,,,,,,,[],,,,,,56.4,0.0,u,0.0,True,741.7999999998137,45.0,60.0,40.0,False,,376.8959546349847,[],"[800, 450]",ColorTask,50.0,60.0,,,HRV,HRV_0035,2022-11-30 18:39:33
,wl-rdm,177,409357,0.0-8.60-0.60,1.0,178.0,,,,,,,[],,,,,,73.6,0.0,u,0.0,True,691.7999999998137,42.0,60.0,40.0,False,,395.79512228565034,[],"[800, 450]",ColorTask,51.0,61.0,,,HRV,HRV_0035,2022-11-30 18:39:33
,wl-rdm,178,411523,0.0-8.61-0.61,1.0,179.0,,,,,,,[],,,,,,50.0,0.0,u,0.0,True,813.2000000001863,49.0,60.0,40.0,False,,280.9501047275389,[],"[800, 450]",ColorTask,52.0,62.0,,,HRV,HRV_0035,2022-11-30 18:39:33
,wl-rdm,179,413340,0.0-8.62-0.62,1.0,180.0,,,,,,,[],,,,,,73.6,0.0,i,1.0,False,492.8999999994412,30.0,60.0,40.0,False,,245.4744527873115,[],"[800, 450]",ColorTask,51.0,63.0,,,HRV,HRV_0035,2022-11-30 18:39:33
,wl-rdm,180,415272,0.0-8.63-0.63,1.0,181.0,,,,,,,[],,,,,,50.0,1.0,u,0.0,False,625.0999999996275,38.0,60.0,40.0,False,,222.3953130236896,[],"[800, 450]",ColorTask,50.0,64.0,,,HRV,HRV_0035,2022-11-30 18:39:33
,wl-rdm,181,417256,0.0-8.64-0.64,1.0,182.0,,,,,,,[],,,,,,73.6,0.0,i,1.0,False,692.0,42.0,60.0,40.0,False,,218.27453276245183,[],"[800, 450]",ColorTask,49.0,65.0,,,HRV,HRV_0035,2022-11-30 18:39:33
,wl-rdm,182,419187,0.0-8.65-0.65,1.0,183.0,,,,,,,[],,,,,,56.4,0.0,u,0.0,True,647.6000000005588,39.0,60.0,40.0,False,,213.48329525009277,[],"[800, 450]",ColorTask,50.0,66.0,,,HRV,HRV_0035,2022-11-30 18:39:33
,wl-rdm,183,421722,0.0-8.66-0.66,1.0,184.0,,,,,,,[],,,,,,53.2,0.0,i,1.0,False,1141.4999999990687,69.0,60.0,40.0,False,,311.44620803686576,[],"[800, 450]",ColorTask,49.0,67.0,,,HRV,HRV_0035,2022-11-30 18:39:33
,wl-rdm,184,423871,0.0-8.67-0.67,1.0,185.0,,,,,,,[],,,,,,87.9,1.0,i,1.0,True,810.0999999996275,49.0,60.0,40.0,False,,256.3489380649458,[],"[800, 450]",ColorTask,50.0,68.0,,,HRV,HRV_0035,2022-11-30 18:39:33
,wl-rdm,185,425953,0.0-8.68-0.68,1.0,186.0,,,,,,,[],,,,,,56.4,1.0,i,1.0,True,723.5,44.0,60.0,40.0,False,,292.4509839535705,[],"[800, 450]",ColorTask,51.0,69.0,,,HRV,HRV_0035,2022-11-30 18:39:33
,wl-rdm,186,427886,0.0-8.69-0.69,1.0,187.0,,,,,,,[],,,,,,53.2,1.0,u,0.0,False,590.4000000003725,36.0,60.0,40.0,False,,251.7151962334532,[],"[800, 450]",ColorTask,50.0,70.0,,,HRV,HRV_0035,2022-11-30 18:39:33
,wl-rdm,187,429819,0.0-8.70-0.70,1.0,188.0,,,,,,,[],,,,,,73.6,0.0,u,0.0,True,627.9999999990687,38.0,60.0,40.0,False,,217.84169956394325,[],"[800, 450]",ColorTask,51.0,71.0,,,HRV,HRV_0035,2022-11-30 18:39:33
,wl-rdm,188,431718,0.0-8.71-0.71,1.0,189.0,,,,,,,[],,,,,,56.4,0.0,i,1.0,False,591.4999999990687,36.0,60.0,40.0,False,,218.50328126079242,[],"[800, 450]",ColorTask,50.0,72.0,,,HRV,HRV_0035,2022-11-30 18:39:33
,wl-rdm,189,433634,0.0-8.72-0.72,1.0,190.0,,,,,,,[],,,,,,73.6,1.0,i,1.0,True,623.2000000001863,38.0,60.0,40.0,False,,221.17708774663288,[],"[800, 450]",ColorTask,51.0,73.0,,,HRV,HRV_0035,2022-11-30 18:39:33
,wl-rdm,190,435484,0.0-8.73-0.73,1.0,191.0,,,,,,,[],,,,,,62.5,0.0,i,1.0,False,558.8999999994412,33.0,60.0,40.0,False,,218.57988180247193,[],"[800, 450]",ColorTask,50.0,74.0,,,HRV,HRV_0035,2022-11-30 18:39:33
,wl-rdm,191,437467,0.0-8.74-0.74,1.0,192.0,,,,,,,[],,,,,,50.0,0.0,i,1.0,False,660.7999999998137,40.0,60.0,40.0,False,,244.213381398213,[],"[800, 450]",ColorTask,49.0,75.0,,,HRV,HRV_0035,2022-11-30 18:39:33
,wl-rdm,192,439365,0.0-8.75-0.75,1.0,193.0,,,,,,,[],,,,,,87.9,0.0,u,0.0,True,528.3999999994412,32.0,60.0,40.0,False,,284.3288879441267,[],"[800, 450]",ColorTask,50.0,76.0,,,HRV,HRV_0035,2022-11-30 18:39:33
,wl-rdm,193,441516,0.0-8.76-0.76,1.0,194.0,,,,,,,[],,,,,,73.6,0.0,i,1.0,False,733.2999999998137,44.0,60.0,40.0,False,,343.123587928981,[],"[800, 450]",ColorTask,49.0,77.0,,,HRV,HRV_0035,2022-11-30 18:39:33
,wl-rdm,194,443465,0.0-8.77-0.77,1.0,195.0,,,,,,,[],,,,,,87.9,0.0,u,0.0,True,627.3000000007451,38.0,60.0,40.0,False,,256.90640350058146,[],"[800, 450]",ColorTask,50.0,78.0,,,HRV,HRV_0035,2022-11-30 18:39:33
,wl-rdm,195,445497,0.0-8.78-0.78,1.0,196.0,,,,,,,[],,,,,,87.9,1.0,i,1.0,True,623.9000000013039,38.0,60.0,40.0,False,,321.55332387952444,[],"[800, 450]",ColorTask,51.0,79.0,,,HRV,HRV_0035,2022-11-30 18:39:33
,wl-rdm,196,447481,0.0-8.79-0.79,1.0,197.0,,,,,,,[],,,,,,87.9,1.0,i,1.0,True,594.9000000003725,36.0,60.0,40.0,False,,308.38078965419794,[],"[800, 450]",ColorTask,52.0,80.0,,,HRV,HRV_0035,2022-11-30 18:39:33
,wl-rdm,197,449530,0.0-8.80-0.80,1.0,198.0,,,,,,,[],,,,,,56.4,1.0,u,0.0,False,591.0,36.0,60.0,40.0,False,,384.1210317794262,[],"[800, 450]",ColorTask,51.0,81.0,,,HRV,HRV_0035,2022-11-30 18:39:33
,wl-rdm,198,451680,0.0-8.81-0.81,1.0,199.0,,,,,,,[],,,,,,56.4,1.0,i,1.0,True,829.5,50.0,60.0,40.0,False,,260.90087242617824,[],"[800, 450]",ColorTask,52.0,82.0,,,HRV,HRV_0035,2022-11-30 18:39:33
,wl-rdm,199,453778,0.0-8.82-0.82,1.0,200.0,,,,,,,[],,,,,,62.5,1.0,i,1.0,True,808.2999999998137,49.0,60.0,40.0,False,,206.3257498986711,[],"[800, 450]",ColorTask,53.0,83.0,,,HRV,HRV_0035,2022-11-30 18:39:33
,wl-rdm,200,456194,0.0-8.83-0.83,1.0,201.0,,,,,,,[],,,,,,50.0,1.0,i,1.0,True,1109.199999999255,67.0,60.0,40.0,False,,228.5264913026261,[],"[800, 450]",ColorTask,54.0,84.0,,,HRV,HRV_0035,2022-11-30 18:39:33
,wl-rdm,201,458417,0.0-8.84-0.84,1.0,202.0,,,,,,,[],,,,,,56.4,1.0,i,1.0,True,743.0000000009313,45.0,60.0,40.0,False,,394.95542420972777,[],"[800, 450]",ColorTask,55.0,85.0,,,HRV,HRV_0035,2022-11-30 18:39:33
,wl-rdm,202,460310,0.0-8.85-0.85,1.0,203.0,,,,,,,[],,,,,,87.9,1.0,i,1.0,True,610.6000000005588,37.0,60.0,40.0,False,,203.01424647079338,[],"[800, 450]",ColorTask,56.0,86.0,,,HRV,HRV_0035,2022-11-30 18:39:33
,wl-rdm,203,462460,0.0-8.86-0.86,1.0,204.0,,,,,,,[],,,,,,73.6,0.0,i,1.0,False,845.1000000005588,51.0,60.0,40.0,False,,227.11429204312384,[],"[800, 450]",ColorTask,55.0,87.0,,,HRV,HRV_0035,2022-11-30 18:39:33
,wl-rdm,204,464642,0.0-8.87-0.87,1.0,205.0,,,,,,,[],,,,,,73.6,1.0,i,1.0,True,823.5999999996275,50.0,60.0,40.0,False,,296.8952053730056,[],"[800, 450]",ColorTask,56.0,88.0,,,HRV,HRV_0035,2022-11-30 18:39:33
,wl-rdm,205,466725,0.0-8.88-0.88,1.0,206.0,,,,,,,[],,,,,,73.6,0.0,i,1.0,False,731.7000000001863,44.0,60.0,40.0,False,,276.9301142190615,[],"[800, 450]",ColorTask,55.0,89.0,,,HRV,HRV_0035,2022-11-30 18:39:33
,wl-rdm,206,469341,0.0-8.89-0.89,1.0,207.0,,,,,,,[],,,,,,73.6,1.0,i,1.0,True,1342.199999999255,81.0,60.0,40.0,False,,201.21195797941476,[],"[800, 450]",ColorTask,56.0,90.0,,,HRV,HRV_0035,2022-11-30 18:39:33
,wl-rdm,207,471406,0.0-8.90-0.90,1.0,208.0,,,,,,,[],,,,,,62.5,1.0,i,1.0,True,781.9000000003725,47.0,60.0,40.0,False,,216.07255929280063,[],"[800, 450]",ColorTask,57.0,91.0,,,HRV,HRV_0035,2022-11-30 18:39:33
,wl-rdm,208,473590,0.0-8.91-0.91,1.0,209.0,,,,,,,[],,,,,,87.9,0.0,u,0.0,True,773.2999999998137,47.0,60.0,40.0,False,,316.2478931991977,[],"[800, 450]",ColorTask,58.0,92.0,,,HRV,HRV_0035,2022-11-30 18:39:33
,wl-rdm,209,475689,0.0-8.92-0.92,1.0,210.0,,,,,,,[],,,,,,62.5,0.0,u,0.0,True,723.8000000007451,44.0,60.0,40.0,False,,304.33149382308284,[],"[800, 450]",ColorTask,59.0,93.0,,,HRV,HRV_0035,2022-11-30 18:39:33
,wl-rdm,210,478288,0.0-8.93-0.93,1.0,211.0,,,,,,,[],,,,,,53.2,0.0,u,0.0,True,1308.2999999998137,79.0,60.0,40.0,False,,218.61508059910403,[],"[800, 450]",ColorTask,60.0,94.0,,,HRV,HRV_0035,2022-11-30 18:39:33
,wl-rdm,211,480621,0.0-8.94-0.94,1.0,212.0,,,,,,,[],,,,,,56.4,1.0,i,1.0,True,876.0999999996275,53.0,60.0,40.0,False,,376.9465201876924,[],"[800, 450]",ColorTask,61.0,95.0,,,HRV,HRV_0035,2022-11-30 18:39:33
,wl-rdm,212,483303,0.0-8.95-0.95,1.0,213.0,,,,,,,[],,,,,,50.0,0.0,i,1.0,False,1308.3999999994412,79.0,60.0,40.0,False,,288.19935561429,[],"[800, 450]",ColorTask,60.0,96.0,,,HRV,HRV_0035,2022-11-30 18:39:33
,wl-rdm,213,486302,0.0-8.96-0.96,1.0,214.0,,,,,,,[],,,,,,62.5,1.0,i,1.0,True,1691.199999999255,102.0,60.0,40.0,False,,234.41453391331405,[],"[800, 450]",ColorTask,61.0,97.0,,,HRV,HRV_0035,2022-11-30 18:39:33
,wl-rdm,214,488601,0.0-8.97-0.97,1.0,215.0,,,,,,,[],,,,,,56.4,0.0,i,1.0,False,979.2999999998137,59.0,60.0,40.0,False,,261.26085921604357,[],"[800, 450]",ColorTask,60.0,98.0,,,HRV,HRV_0035,2022-11-30 18:39:33
,wl-rdm,215,490685,0.0-8.98-0.98,1.0,216.0,,,,,,,[],,,,,,62.5,0.0,u,0.0,True,763.5,46.0,60.0,40.0,False,,234.85332983947512,[],"[800, 450]",ColorTask,61.0,99.0,,,HRV,HRV_0035,2022-11-30 18:39:33
,wl-rdm,216,492833,0.0-8.99-0.99,1.0,217.0,,,,,,,[],,,,,,62.5,0.0,i,1.0,False,792.5,48.0,60.0,40.0,False,,283.98246581923144,[],"[800, 450]",ColorTask,60.0,100.0,,,HRV,HRV_0035,2022-11-30 18:39:33
,wl-rdm,217,495084,0.0-8.100-0.100,1.0,218.0,,,,,,,[],,,,,,50.0,1.0,i,1.0,True,791.9999999990687,48.0,60.0,40.0,False,,370.86274064309407,[],"[800, 450]",ColorTask,61.0,101.0,,,HRV,HRV_0035,2022-11-30 18:39:33
,wl-rdm,218,497349,0.0-8.101-0.101,1.0,219.0,,,,,,,[],,,,,,53.2,1.0,i,1.0,True,894.0,54.0,60.0,40.0,False,,284.1338778703296,[],"[800, 450]",ColorTask,62.0,102.0,,,HRV,HRV_0035,2022-11-30 18:39:33
,wl-rdm,219,499215,0.0-8.102-0.102,1.0,220.0,,,,,,,[],,,,,,73.6,1.0,i,1.0,True,575.2000000001863,35.0,60.0,40.0,False,,205.71273420088144,[],"[800, 450]",ColorTask,63.0,103.0,,,HRV,HRV_0035,2022-11-30 18:39:33
,wl-rdm,220,501649,0.0-8.103-0.103,1.0,221.0,,,,,,,[],,,,,,50.0,1.0,i,1.0,True,990.6000000005588,60.0,60.0,40.0,False,,373.3793776562334,[],"[800, 450]",ColorTask,64.0,104.0,,,HRV,HRV_0035,2022-11-30 18:39:33
,wl-rdm,221,503665,0.0-8.104-0.104,1.0,222.0,,,,,,,[],,,,,,87.9,1.0,i,1.0,True,594.7999999998137,36.0,60.0,40.0,False,,350.80857360405344,[],"[800, 450]",ColorTask,65.0,105.0,,,HRV,HRV_0035,2022-11-30 18:39:33
,wl-rdm,222,505780,0.0-8.105-0.105,1.0,223.0,,,,,,,[],,,,,,62.5,1.0,u,0.0,False,743.4999999990687,45.0,60.0,40.0,False,,293.1318421376696,[],"[800, 450]",ColorTask,64.0,106.0,,,HRV,HRV_0035,2022-11-30 18:39:33
,wl-rdm,223,507596,0.0-8.106-0.106,1.0,224.0,,,,,,,[],,,,,,87.9,1.0,i,1.0,True,540.3000000007451,33.0,60.0,40.0,False,,209.4427077049685,[],"[800, 450]",ColorTask,65.0,107.0,,,HRV,HRV_0035,2022-11-30 18:39:33
,wl-rdm,224,509395,0.0-8.107-0.107,1.0,225.0,,,,,,,[],,,,,,50.0,1.0,i,1.0,True,525.2999999998137,32.0,60.0,40.0,False,,217.02960751780915,[],"[800, 450]",ColorTask,66.0,108.0,,,HRV,HRV_0035,2022-11-30 18:39:33
,wl-html-button-response,225,511110,0.0-9.0-0.0,,,,,,,,,,1709.2999999998137,,0,,,,,,,,,,,,,,,,,,,,<h3>End of this session. Thank you!</h3><br>,['Close window'],HRV,HRV_0035,2022-11-30 18:39:33
