trialN,stimuli,trialStartTime,trialStartTime_UNIX,stimulus1,stimulus2,stimulus1Bid,stimulus2Bid,delta,selected,rt,rt_UNIX,rt_perfnow,receivedResponse,rsp,trialEndTime,trialDuration,trialEndTime_UNIX,trialDuration_UNIX,exp,subjectId,date
0,"[{'imgObject': {}, 'id': 'bagel plain', 'src': '/static/foodstim60/bagel plain.jpg', 'key': 'u', 'origWidth': 410, 'origHeight': 410, 'width': 410, 'height': 410, 'widthPercent': 0.45, 'rescaleHeight': False, 'trialN': 0, 'loaded': True, 'loadedTime': 4132.4000000003725, 'positionName': 'LEFT', 'positionCoords': [358, 245], 'bid': 5.03}, {'imgObject': {}, 'id': 'cherries', 'src': '/static/foodstim60/cherries.jpg', 'key': 'i', 'origWidth': 410, 'origHeight': 411, 'width': 410, 'height': 411, 'widthPercent': 0.45, 'rescaleHeight': False, 'trialN': 0, 'loaded': True, 'loadedTime': 4148.799999999814, 'positionName': 'RIGHT', 'positionCoords': [832, 244.5], 'bid': 2.5500000000000003}]",5318.5,1669832746406,bagel plain,cherries,5.03,2.5500000000000003,-2.48,bagel plain,1389.4000000003725,1405,1405.0,True,u,7239.4000000003725,1920.9000000003725,1669832748327,1921,HRV,HRV_0035,2022-11-30 18:30:54
1,"[{'imgObject': {}, 'id': 'sweetpotato', 'src': '/static/foodstim60/sweetpotato.jpg', 'key': 'u', 'origWidth': 410, 'origHeight': 410, 'width': 410, 'height': 410, 'widthPercent': 0.45, 'rescaleHeight': False, 'trialN': 1, 'loaded': True, 'loadedTime': 4196.100000000559, 'positionName': 'LEFT', 'positionCoords': [358, 245], 'bid': 9.1}, {'imgObject': {}, 'id': 'turkey sandwich', 'src': '/static/foodstim60/turkey sandwich.jpg', 'key': 'i', 'origWidth': 409, 'origHeight': 409, 'width': 409, 'height': 409, 'widthPercent': 0.45, 'rescaleHeight': False, 'trialN': 1, 'loaded': True, 'loadedTime': 4210.700000000186, 'positionName': 'RIGHT', 'positionCoords': [832, 245.5], 'bid': 7.47}]",7240.100000000559,1669832748327,sweetpotato,turkey sandwich,9.1,7.47,-1.63,turkey sandwich,966.5999999996275,968,967.5999999996275,True,i,8722.700000000186,1482.5999999996275,1669832749810,1483,HRV,HRV_0035,2022-11-30 18:30:54
2,"[{'imgObject': {}, 'id': 'raisin bran w milk', 'src': '/static/foodstim60/raisin bran w milk.jpg', 'key': 'u', 'origWidth': 411, 'origHeight': 411, 'width': 411, 'height': 411, 'widthPercent': 0.45, 'rescaleHeight': False, 'trialN': 2, 'loaded': True, 'loadedTime': 4245, 'positionName': 'LEFT', 'positionCoords': [357, 244.5], 'bid': 6.03}, {'imgObject': {}, 'id': 'roastedpotatoes', 'src': '/static/foodstim60/roastedpotatoes.jpg', 'key': 'i', 'origWidth': 409, 'origHeight': 410, 'width': 409, 'height': 410, 'widthPercent': 0.45, 'rescaleHeight': False, 'trialN': 2, 'loaded': True, 'loadedTime': 4270.799999999814, 'positionName': 'RIGHT', 'positionCoords': [832, 245], 'bid': 6.3100000000000005}]",8723.0,1669832749810,raisin bran w milk,roastedpotatoes,6.03,6.3100000000000005,0.28000000000000025,roastedpotatoes,751.2000000001863,753,752.6000000005588,True,i,9982.700000000186,1259.7000000001863,1669832751070,1260,HRV,HRV_0035,2022-11-30 18:30:54
3,"[{'imgObject': {}, 'id': 'bagel and cc', 'src': '/static/foodstim60/bagel and cc.jpg', 'key': 'u', 'origWidth': 410, 'origHeight': 410, 'width': 410, 'height': 410, 'widthPercent': 0.45, 'rescaleHeight': False, 'trialN': 3, 'loaded': True, 'loadedTime': 4287.9000000003725, 'positionName': 'LEFT', 'positionCoords': [358, 245], 'bid': 7.7}, {'imgObject': {}, 'id': 'rigatoni and sauce', 'src': '/static/foodstim60/rigatoni and sauce.jpg', 'key': 'i', 'origWidth': 410, 'origHeight': 411, 'width': 410, 'height': 411, 'widthPercent': 0.45, 'rescaleHeight': False, 'trialN': 3, 'loaded': True, 'loadedTime': 4312.5, 'positionName': 'RIGHT', 'positionCoords': [832, 244.5], 'bid': 9.52}]",9983.5,1669832751071,bagel and cc,rigatoni and sauce,7.7,9.52,1.8199999999999994,rigatoni and sauce,870.2999999998137,872,872.0,True,i,11370.0,1386.5,1669832752457,1386,HRV,HRV_0035,2022-11-30 18:30:54
4,"[{'imgObject': {}, 'id': 'apple slices', 'src': '/static/foodstim60/apple slices.jpg', 'key': 'u', 'origWidth': 409, 'origHeight': 410, 'width': 409, 'height': 410, 'widthPercent': 0.45, 'rescaleHeight': False, 'trialN': 4, 'loaded': True, 'loadedTime': 4356.4000000003725, 'positionName': 'LEFT', 'positionCoords': [359, 245], 'bid': 0.2}, {'imgObject': {}, 'id': 'avocado', 'src': '/static/foodstim60/avocado.jpg', 'key': 'i', 'origWidth': 409, 'origHeight': 409, 'width': 409, 'height': 409, 'widthPercent': 0.45, 'rescaleHeight': False, 'trialN': 4, 'loaded': True, 'loadedTime': 4379.600000000559, 'positionName': 'RIGHT', 'positionCoords': [832, 245.5], 'bid': 0.26}]",11370.299999999814,1669832752458,apple slices,avocado,0.2,0.26,0.06,avocado,1287.2000000001863,1288,1288.4000000003725,True,i,13168.700000000186,1798.4000000003725,1669832754256,1798,HRV,HRV_0035,2022-11-30 18:30:54
5,"[{'imgObject': {}, 'id': 'eggs', 'src': '/static/foodstim60/eggs.jpg', 'key': 'u', 'origWidth': 409, 'origHeight': 409, 'width': 409, 'height': 409, 'widthPercent': 0.45, 'rescaleHeight': False, 'trialN': 5, 'loaded': True, 'loadedTime': 4412.600000000559, 'positionName': 'LEFT', 'positionCoords': [359, 245.5], 'bid': 6.41}, {'imgObject': {}, 'id': 'chicken nuggets2', 'src': '/static/foodstim60/chicken nuggets2.jpg', 'key': 'i', 'origWidth': 410, 'origHeight': 409, 'width': 410, 'height': 409, 'widthPercent': 0.45, 'rescaleHeight': False, 'trialN': 5, 'loaded': True, 'loadedTime': 4421.4000000003725, 'positionName': 'RIGHT', 'positionCoords': [832, 245.5], 'bid': 5.12}]",13169.100000000559,1669832754256,eggs,chicken nuggets2,6.41,5.12,-1.29,chicken nuggets2,802.3999999994412,805,804.2999999998137,True,i,14482.0,1312.8999999994412,1669832755569,1313,HRV,HRV_0035,2022-11-30 18:30:54
6,"[{'imgObject': {}, 'id': 'cherry tomato', 'src': '/static/foodstim60/cherry tomato.jpg', 'key': 'u', 'origWidth': 410, 'origHeight': 410, 'width': 410, 'height': 410, 'widthPercent': 0.45, 'rescaleHeight': False, 'trialN': 6, 'loaded': True, 'loadedTime': 4442.700000000186, 'positionName': 'LEFT', 'positionCoords': [358, 245], 'bid': 0.16}, {'imgObject': {}, 'id': 'granola w milk', 'src': '/static/foodstim60/granola w milk.jpg', 'key': 'i', 'origWidth': 410, 'origHeight': 410, 'width': 410, 'height': 410, 'widthPercent': 0.45, 'rescaleHeight': False, 'trialN': 6, 'loaded': True, 'loadedTime': 4488.4000000003725, 'positionName': 'RIGHT', 'positionCoords': [832, 245], 'bid': 6.8500000000000005}]",14483.299999999814,1669832755571,cherry tomato,granola w milk,0.16,6.8500000000000005,6.69,granola w milk,1075.1000000005588,1077,1077.0,True,i,16071.5,1588.2000000001863,1669832757159,1588,HRV,HRV_0035,2022-11-30 18:30:54
7,"[{'imgObject': {}, 'id': 'kiwi', 'src': '/static/foodstim60/kiwi.jpg', 'key': 'u', 'origWidth': 410, 'origHeight': 410, 'width': 410, 'height': 410, 'widthPercent': 0.45, 'rescaleHeight': False, 'trialN': 7, 'loaded': True, 'loadedTime': 4505.100000000559, 'positionName': 'LEFT', 'positionCoords': [358, 245], 'bid': 9.78}, {'imgObject': {}, 'id': 'mac & cheese', 'src': '/static/foodstim60/mac & cheese.jpg', 'key': 'i', 'origWidth': 410, 'origHeight': 410, 'width': 410, 'height': 410, 'widthPercent': 0.45, 'rescaleHeight': False, 'trialN': 7, 'loaded': True, 'loadedTime': 4562.600000000559, 'positionName': 'RIGHT', 'positionCoords': [832, 245], 'bid': 9.1}]",16072.299999999814,1669832757160,kiwi,mac & cheese,9.78,9.1,-0.6799999999999997,kiwi,1048.0,1049,1049.4000000003725,True,u,17630.200000000186,1557.9000000003725,1669832758717,1557,HRV,HRV_0035,2022-11-30 18:30:54
8,"[{'imgObject': {}, 'id': 'Grapes', 'src': '/static/foodstim60/Grapes.jpg', 'key': 'u', 'origWidth': 411, 'origHeight': 411, 'width': 411, 'height': 411, 'widthPercent': 0.45, 'rescaleHeight': False, 'trialN': 8, 'loaded': True, 'loadedTime': 4590.299999999814, 'positionName': 'LEFT', 'positionCoords': [357, 244.5], 'bid': 9.22}, {'imgObject': {}, 'id': 'baked potato', 'src': '/static/foodstim60/baked potato.jpg', 'key': 'i', 'origWidth': 409, 'origHeight': 410, 'width': 409, 'height': 410, 'widthPercent': 0.45, 'rescaleHeight': False, 'trialN': 8, 'loaded': True, 'loadedTime': 4636, 'positionName': 'RIGHT', 'positionCoords': [832, 245], 'bid': 7.640000000000001}]",17630.299999999814,1669832758718,Grapes,baked potato,9.22,7.640000000000001,-1.58,Grapes,1156.9000000003725,1158,1158.5,True,u,19298.799999999814,1668.5,1669832760386,1668,HRV,HRV_0035,2022-11-30 18:30:54
9,"[{'imgObject': {}, 'id': 'shreddedwheatwithmilk', 'src': '/static/foodstim60/shreddedwheatwithmilk.jpg', 'key': 'u', 'origWidth': 410, 'origHeight': 410, 'width': 410, 'height': 410, 'widthPercent': 0.45, 'rescaleHeight': False, 'trialN': 9, 'loaded': True, 'loadedTime': 4649.700000000186, 'positionName': 'LEFT', 'positionCoords': [358, 245], 'bid': 9.15}, {'imgObject': {}, 'id': 'chicken nuggets2', 'src': '/static/foodstim60/chicken nuggets2.jpg', 'key': 'i', 'origWidth': 410, 'origHeight': 409, 'width': 410, 'height': 409, 'widthPercent': 0.45, 'rescaleHeight': False, 'trialN': 9, 'loaded': True, 'loadedTime': 4433, 'positionName': 'RIGHT', 'positionCoords': [832, 245.5], 'bid': 5.12}]",19299.299999999814,1669832760387,shreddedwheatwithmilk,chicken nuggets2,9.15,5.12,-4.03,chicken nuggets2,938.9000000003725,939,939.5,True,i,20751.900000000373,1452.6000000005588,1669832761839,1452,HRV,HRV_0035,2022-11-30 18:30:54
10,"[{'imgObject': {}, 'id': 'yogurt no spoon', 'src': '/static/foodstim60/yogurt no spoon.jpg', 'key': 'u', 'origWidth': 411, 'origHeight': 410, 'width': 411, 'height': 410, 'widthPercent': 0.45, 'rescaleHeight': False, 'trialN': 10, 'loaded': True, 'loadedTime': 4731.299999999814, 'positionName': 'LEFT', 'positionCoords': [357, 245], 'bid': 6.87}, {'imgObject': {}, 'id': 'edamame', 'src': '/static/foodstim60/edamame.jpg', 'key': 'i', 'origWidth': 409, 'origHeight': 410, 'width': 409, 'height': 410, 'widthPercent': 0.45, 'rescaleHeight': False, 'trialN': 10, 'loaded': True, 'loadedTime': 4755.5, 'positionName': 'RIGHT', 'positionCoords': [832, 245], 'bid': 0.16}]",20752.60000000056,1669832761840,yogurt no spoon,edamame,6.87,0.16,-6.71,yogurt no spoon,910.5,912,911.8999999994412,True,u,22174.799999999814,1422.199999999255,1669832763262,1422,HRV,HRV_0035,2022-11-30 18:30:54
11,"[{'imgObject': {}, 'id': 'cherries', 'src': '/static/foodstim60/cherries.jpg', 'key': 'u', 'origWidth': 410, 'origHeight': 411, 'width': 410, 'height': 411, 'widthPercent': 0.45, 'rescaleHeight': False, 'trialN': 11, 'loaded': True, 'loadedTime': 4144, 'positionName': 'LEFT', 'positionCoords': [358, 244.5], 'bid': 2.5500000000000003}, {'imgObject': {}, 'id': 'eggsalad', 'src': '/static/foodstim60/eggsalad.jpg', 'key': 'i', 'origWidth': 410, 'origHeight': 409, 'width': 410, 'height': 409, 'widthPercent': 0.45, 'rescaleHeight': False, 'trialN': 11, 'loaded': True, 'loadedTime': 4797.5, 'positionName': 'RIGHT', 'positionCoords': [832, 245.5], 'bid': 8.55}]",22175.200000000186,1669832763263,cherries,eggsalad,2.5500000000000003,8.55,6.0,eggsalad,1490.7999999998137,1491,1491.4000000003725,True,i,24170.0,1994.7999999998137,1669832765257,1994,HRV,HRV_0035,2022-11-30 18:30:54
12,"[{'imgObject': {}, 'id': 'raspberries', 'src': '/static/foodstim60/raspberries.jpg', 'key': 'u', 'origWidth': 411, 'origHeight': 411, 'width': 411, 'height': 411, 'widthPercent': 0.45, 'rescaleHeight': False, 'trialN': 12, 'loaded': True, 'loadedTime': 4814.600000000559, 'positionName': 'LEFT', 'positionCoords': [357, 244.5], 'bid': 8.94}, {'imgObject': {}, 'id': 'mango', 'src': '/static/foodstim60/mango.jpg', 'key': 'i', 'origWidth': 411, 'origHeight': 411, 'width': 411, 'height': 411, 'widthPercent': 0.45, 'rescaleHeight': False, 'trialN': 12, 'loaded': True, 'loadedTime': 4835.799999999814, 'positionName': 'RIGHT', 'positionCoords': [832, 244.5], 'bid': 9.1}]",24170.299999999814,1669832765258,raspberries,mango,8.94,9.1,0.16000000000000014,mango,1273.7000000001863,1275,1275.2000000001863,True,i,25951.900000000373,1781.6000000005588,1669832767039,1781,HRV,HRV_0035,2022-11-30 18:30:54
13,"[{'imgObject': {}, 'id': 'froot loops w milk', 'src': '/static/foodstim60/froot loops w milk.jpg', 'key': 'u', 'origWidth': 410, 'origHeight': 410, 'width': 410, 'height': 410, 'widthPercent': 0.45, 'rescaleHeight': False, 'trialN': 13, 'loaded': True, 'loadedTime': 4849.700000000186, 'positionName': 'LEFT', 'positionCoords': [358, 245], 'bid': 0.73}, {'imgObject': {}, 'id': 'mashed potato', 'src': '/static/foodstim60/mashed potato.jpg', 'key': 'i', 'origWidth': 409, 'origHeight': 409, 'width': 409, 'height': 409, 'widthPercent': 0.45, 'rescaleHeight': False, 'trialN': 13, 'loaded': True, 'loadedTime': 4883.5, 'positionName': 'RIGHT', 'positionCoords': [832, 245.5], 'bid': 5.16}]",25952.400000000373,1669832767040,froot loops w milk,mashed potato,0.73,5.16,4.43,mashed potato,1285.3999999994412,1286,1286.5999999996275,True,i,27746.700000000186,1794.2999999998137,1669832768834,1794,HRV,HRV_0035,2022-11-30 18:30:54
14,"[{'imgObject': {}, 'id': 'fried eggs', 'src': '/static/foodstim60/fried eggs.jpg', 'key': 'u', 'origWidth': 410, 'origHeight': 410, 'width': 410, 'height': 410, 'widthPercent': 0.45, 'rescaleHeight': False, 'trialN': 14, 'loaded': True, 'loadedTime': 4898, 'positionName': 'LEFT', 'positionCoords': [358, 245], 'bid': 7.62}, {'imgObject': {}, 'id': 'steak', 'src': '/static/foodstim60/steak.jpg', 'key': 'i', 'origWidth': 410, 'origHeight': 410, 'width': 410, 'height': 410, 'widthPercent': 0.45, 'rescaleHeight': False, 'trialN': 14, 'loaded': True, 'loadedTime': 4919.700000000186, 'positionName': 'RIGHT', 'positionCoords': [832, 245], 'bid': 0.48}]",27747.0,1669832768834,fried eggs,steak,7.62,0.48,-7.140000000000001,fried eggs,1037.1000000005588,1039,1038.7999999998137,True,u,29297.900000000373,1550.9000000003725,1669832770385,1551,HRV,HRV_0035,2022-11-30 18:30:54
15,"[{'imgObject': {}, 'id': 'omelette', 'src': '/static/foodstim60/omelette.jpg', 'key': 'u', 'origWidth': 410, 'origHeight': 409, 'width': 410, 'height': 409, 'widthPercent': 0.45, 'rescaleHeight': False, 'trialN': 15, 'loaded': True, 'loadedTime': 4953.299999999814, 'positionName': 'LEFT', 'positionCoords': [358, 245.5], 'bid': 7.72}, {'imgObject': {}, 'id': 'baked potato', 'src': '/static/foodstim60/baked potato.jpg', 'key': 'i', 'origWidth': 409, 'origHeight': 410, 'width': 409, 'height': 410, 'widthPercent': 0.45, 'rescaleHeight': False, 'trialN': 15, 'loaded': True, 'loadedTime': 4627.799999999814, 'positionName': 'RIGHT', 'positionCoords': [832, 245], 'bid': 7.640000000000001}]",29298.299999999814,1669832770386,omelette,baked potato,7.72,7.640000000000001,-0.07999999999999918,omelette,1152.2000000001863,1153,1153.7000000001863,True,u,30959.700000000186,1661.4000000003725,1669832772047,1661,HRV,HRV_0035,2022-11-30 18:30:54
16,"[{'imgObject': {}, 'id': 'banana', 'src': '/static/foodstim60/banana.jpg', 'key': 'u', 'origWidth': 410, 'origHeight': 410, 'width': 410, 'height': 410, 'widthPercent': 0.45, 'rescaleHeight': False, 'trialN': 16, 'loaded': True, 'loadedTime': 4964.100000000559, 'positionName': 'LEFT', 'positionCoords': [358, 245], 'bid': 5.0600000000000005}, {'imgObject': {}, 'id': 'steak', 'src': '/static/foodstim60/steak.jpg', 'key': 'i', 'origWidth': 410, 'origHeight': 410, 'width': 410, 'height': 410, 'widthPercent': 0.45, 'rescaleHeight': False, 'trialN': 16, 'loaded': True, 'loadedTime': 4915.600000000559, 'positionName': 'RIGHT', 'positionCoords': [832, 245], 'bid': 0.48}]",30960.10000000056,1669832772047,banana,steak,5.0600000000000005,0.48,-4.58,banana,1436.0,1438,1437.7999999998137,True,u,32909.0,1948.8999999994412,1669832773996,1949,HRV,HRV_0035,2022-11-30 18:30:54
17,"[{'imgObject': {}, 'id': 'apple slices', 'src': '/static/foodstim60/apple slices.jpg', 'key': 'u', 'origWidth': 409, 'origHeight': 410, 'width': 409, 'height': 410, 'widthPercent': 0.45, 'rescaleHeight': False, 'trialN': 17, 'loaded': True, 'loadedTime': 4360.200000000186, 'positionName': 'LEFT', 'positionCoords': [359, 245], 'bid': 0.2}, {'imgObject': {}, 'id': 'hotdog w must', 'src': '/static/foodstim60/hotdog w must.jpg', 'key': 'i', 'origWidth': 409, 'origHeight': 409, 'width': 409, 'height': 409, 'widthPercent': 0.45, 'rescaleHeight': False, 'trialN': 17, 'loaded': True, 'loadedTime': 4969.700000000186, 'positionName': 'RIGHT', 'positionCoords': [832, 245.5], 'bid': 1.42}]",32909.40000000037,1669832773997,apple slices,hotdog w must,0.2,1.42,1.22,hotdog w must,915.5999999996275,917,917.2000000001863,True,i,34344.60000000056,1435.2000000001863,1669832775432,1435,HRV,HRV_0035,2022-11-30 18:30:54
18,"[{'imgObject': {}, 'id': 'blackbeanswithrice', 'src': '/static/foodstim60/blackbeanswithrice.jpg', 'key': 'u', 'origWidth': 410, 'origHeight': 410, 'width': 410, 'height': 410, 'widthPercent': 0.45, 'rescaleHeight': False, 'trialN': 18, 'loaded': True, 'loadedTime': 4985.9000000003725, 'positionName': 'LEFT', 'positionCoords': [358, 245], 'bid': 6.1000000000000005}, {'imgObject': {}, 'id': 'fried eggs', 'src': '/static/foodstim60/fried eggs.jpg', 'key': 'i', 'origWidth': 410, 'origHeight': 410, 'width': 410, 'height': 410, 'widthPercent': 0.45, 'rescaleHeight': False, 'trialN': 18, 'loaded': True, 'loadedTime': 4892.799999999814, 'positionName': 'RIGHT', 'positionCoords': [832, 245], 'bid': 7.62}]",34344.90000000037,1669832775432,blackbeanswithrice,fried eggs,6.1000000000000005,7.62,1.5199999999999996,fried eggs,1082.0,1084,1083.3999999994412,True,i,35938.299999999814,1593.3999999994412,1669832777026,1594,HRV,HRV_0035,2022-11-30 18:30:54
19,"[{'imgObject': {}, 'id': 'cherry tomato', 'src': '/static/foodstim60/cherry tomato.jpg', 'key': 'u', 'origWidth': 410, 'origHeight': 410, 'width': 410, 'height': 410, 'widthPercent': 0.45, 'rescaleHeight': False, 'trialN': 19, 'loaded': True, 'loadedTime': 4475.5, 'positionName': 'LEFT', 'positionCoords': [358, 245], 'bid': 0.16}, {'imgObject': {}, 'id': 'burger', 'src': '/static/foodstim60/burger.jpg', 'key': 'i', 'origWidth': 409, 'origHeight': 409, 'width': 409, 'height': 409, 'widthPercent': 0.45, 'rescaleHeight': False, 'trialN': 19, 'loaded': True, 'loadedTime': 5033.299999999814, 'positionName': 'RIGHT', 'positionCoords': [832, 245.5], 'bid': 4.87}]",35938.60000000056,1669832777026,cherry tomato,burger,0.16,4.87,4.71,burger,1401.0999999996275,1402,1402.0,True,i,37856.0,1917.3999999994412,1669832778943,1917,HRV,HRV_0035,2022-11-30 18:30:54
20,"[{'imgObject': {}, 'id': 'Tribe humus pita', 'src': '/static/foodstim60/Tribe humus pita.jpg', 'key': 'u', 'origWidth': 411, 'origHeight': 411, 'width': 411, 'height': 411, 'widthPercent': 0.45, 'rescaleHeight': False, 'trialN': 20, 'loaded': True, 'loadedTime': 5053.100000000559, 'positionName': 'LEFT', 'positionCoords': [357, 244.5], 'bid': 8.58}, {'imgObject': {}, 'id': 'Grapes', 'src': '/static/foodstim60/Grapes.jpg', 'key': 'i', 'origWidth': 411, 'origHeight': 411, 'width': 411, 'height': 411, 'widthPercent': 0.45, 'rescaleHeight': False, 'trialN': 20, 'loaded': True, 'loadedTime': 4598.100000000559, 'positionName': 'RIGHT', 'positionCoords': [832, 244.5], 'bid': 9.22}]",37856.299999999814,1669832778944,Tribe humus pita,Grapes,8.58,9.22,0.6400000000000006,Grapes,3281.7000000001863,3282,3282.800000000745,True,i,41652.60000000056,3796.300000000745,1669832782740,3796,HRV,HRV_0035,2022-11-30 18:30:54
21,"[{'imgObject': {}, 'id': 'blackbeanswithrice', 'src': '/static/foodstim60/blackbeanswithrice.jpg', 'key': 'u', 'origWidth': 410, 'origHeight': 410, 'width': 410, 'height': 410, 'widthPercent': 0.45, 'rescaleHeight': False, 'trialN': 21, 'loaded': True, 'loadedTime': 4985.200000000186, 'positionName': 'LEFT', 'positionCoords': [358, 245], 'bid': 6.1000000000000005}, {'imgObject': {}, 'id': 'hotdog w must', 'src': '/static/foodstim60/hotdog w must.jpg', 'key': 'i', 'origWidth': 409, 'origHeight': 409, 'width': 409, 'height': 409, 'widthPercent': 0.45, 'rescaleHeight': False, 'trialN': 21, 'loaded': True, 'loadedTime': 4964.299999999814, 'positionName': 'RIGHT', 'positionCoords': [832, 245.5], 'bid': 1.42}]",41653.40000000037,1669832782741,blackbeanswithrice,hotdog w must,6.1000000000000005,1.42,-4.680000000000001,blackbeanswithrice,3234.7000000001863,3235,3235.5,True,u,45400.700000000186,3747.2999999998137,1669832786488,3747,HRV,HRV_0035,2022-11-30 18:30:54
22,"[{'imgObject': {}, 'id': 'rigatoni and sauce', 'src': '/static/foodstim60/rigatoni and sauce.jpg', 'key': 'u', 'origWidth': 410, 'origHeight': 411, 'width': 410, 'height': 411, 'widthPercent': 0.45, 'rescaleHeight': False, 'trialN': 22, 'loaded': True, 'loadedTime': 4329.299999999814, 'positionName': 'LEFT', 'positionCoords': [358, 244.5], 'bid': 9.52}, {'imgObject': {}, 'id': 'mango', 'src': '/static/foodstim60/mango.jpg', 'key': 'i', 'origWidth': 411, 'origHeight': 411, 'width': 411, 'height': 411, 'widthPercent': 0.45, 'rescaleHeight': False, 'trialN': 22, 'loaded': True, 'loadedTime': 4825.700000000186, 'positionName': 'RIGHT', 'positionCoords': [832, 244.5], 'bid': 9.1}]",45400.90000000037,1669832786488,rigatoni and sauce,mango,9.52,9.1,-0.41999999999999993,rigatoni and sauce,1064.8999999994412,1066,1065.7000000001863,True,u,46980.10000000056,1579.2000000001863,1669832788067,1579,HRV,HRV_0035,2022-11-30 18:30:54
23,"[{'imgObject': {}, 'id': 'seaweed', 'src': '/static/foodstim60/seaweed.jpg', 'key': 'u', 'origWidth': 410, 'origHeight': 410, 'width': 410, 'height': 410, 'widthPercent': 0.45, 'rescaleHeight': False, 'trialN': 23, 'loaded': True, 'loadedTime': 5053.4000000003725, 'positionName': 'LEFT', 'positionCoords': [358, 245], 'bid': 0.25}, {'imgObject': {}, 'id': 'cheerios', 'src': '/static/foodstim60/cheerios.jpg', 'key': 'i', 'origWidth': 409, 'origHeight': 410, 'width': 409, 'height': 410, 'widthPercent': 0.45, 'rescaleHeight': False, 'trialN': 23, 'loaded': True, 'loadedTime': 5076.299999999814, 'positionName': 'RIGHT', 'positionCoords': [832, 245], 'bid': 7.36}]",46980.40000000037,1669832788068,seaweed,cheerios,0.25,7.36,7.11,cheerios,993.2000000001863,994,994.5999999996275,True,i,48494.0,1513.5999999996275,1669832789581,1513,HRV,HRV_0035,2022-11-30 18:30:54
24,"[{'imgObject': {}, 'id': 'ice cream sundae 002', 'src': '/static/foodstim60/ice cream sundae 002.jpg', 'key': 'u', 'origWidth': 409, 'origHeight': 409, 'width': 409, 'height': 409, 'widthPercent': 0.45, 'rescaleHeight': False, 'trialN': 24, 'loaded': True, 'loadedTime': 5078.9000000003725, 'positionName': 'LEFT', 'positionCoords': [359, 245.5], 'bid': 7.27}, {'imgObject': {}, 'id': 'granola w milk', 'src': '/static/foodstim60/granola w milk.jpg', 'key': 'i', 'origWidth': 410, 'origHeight': 410, 'width': 410, 'height': 410, 'widthPercent': 0.45, 'rescaleHeight': False, 'trialN': 24, 'loaded': True, 'loadedTime': 4483.4000000003725, 'positionName': 'RIGHT', 'positionCoords': [832, 245], 'bid': 6.8500000000000005}]",48494.60000000056,1669832789582,ice cream sundae 002,granola w milk,7.27,6.8500000000000005,-0.41999999999999904,granola w milk,3045.5999999996275,3047,3047.0999999996275,True,i,52051.10000000056,3556.5,1669832793139,3557,HRV,HRV_0035,2022-11-30 18:30:54
25,"[{'imgObject': {}, 'id': 'blackbeanswithrice', 'src': '/static/foodstim60/blackbeanswithrice.jpg', 'key': 'u', 'origWidth': 410, 'origHeight': 410, 'width': 410, 'height': 410, 'widthPercent': 0.45, 'rescaleHeight': False, 'trialN': 25, 'loaded': True, 'loadedTime': 4985.700000000186, 'positionName': 'LEFT', 'positionCoords': [358, 245], 'bid': 6.1000000000000005}, {'imgObject': {}, 'id': 'raisin bran w milk', 'src': '/static/foodstim60/raisin bran w milk.jpg', 'key': 'i', 'origWidth': 411, 'origHeight': 411, 'width': 411, 'height': 411, 'widthPercent': 0.45, 'rescaleHeight': False, 'trialN': 25, 'loaded': True, 'loadedTime': 4248.9000000003725, 'positionName': 'RIGHT', 'positionCoords': [832, 244.5], 'bid': 6.03}]",52051.90000000037,1669832793139,blackbeanswithrice,raisin bran w milk,6.1000000000000005,6.03,-0.07000000000000028,raisin bran w milk,1329.7000000001863,1331,1330.3999999994412,True,i,53901.700000000186,1849.7999999998137,1669832794989,1850,HRV,HRV_0035,2022-11-30 18:30:54
26,"[{'imgObject': {}, 'id': 'banana', 'src': '/static/foodstim60/banana.jpg', 'key': 'u', 'origWidth': 410, 'origHeight': 410, 'width': 410, 'height': 410, 'widthPercent': 0.45, 'rescaleHeight': False, 'trialN': 26, 'loaded': True, 'loadedTime': 4963.9000000003725, 'positionName': 'LEFT', 'positionCoords': [358, 245], 'bid': 5.0600000000000005}, {'imgObject': {}, 'id': 'roastedpotatoes', 'src': '/static/foodstim60/roastedpotatoes.jpg', 'key': 'i', 'origWidth': 409, 'origHeight': 410, 'width': 409, 'height': 410, 'widthPercent': 0.45, 'rescaleHeight': False, 'trialN': 26, 'loaded': True, 'loadedTime': 4271.100000000559, 'positionName': 'RIGHT', 'positionCoords': [832, 245], 'bid': 6.3100000000000005}]",53902.200000000186,1669832794990,banana,roastedpotatoes,5.0600000000000005,6.3100000000000005,1.25,roastedpotatoes,835.2999999998137,836,836.2999999998137,True,i,55249.0,1346.7999999998137,1669832796336,1346,HRV,HRV_0035,2022-11-30 18:30:54
27,"[{'imgObject': {}, 'id': 'blueberries', 'src': '/static/foodstim60/blueberries.jpg', 'key': 'u', 'origWidth': 411, 'origHeight': 411, 'width': 411, 'height': 411, 'widthPercent': 0.45, 'rescaleHeight': False, 'trialN': 27, 'loaded': True, 'loadedTime': 5088.600000000559, 'positionName': 'LEFT', 'positionCoords': [357, 244.5], 'bid': 9.53}, {'imgObject': {}, 'id': 'sweetpotato', 'src': '/static/foodstim60/sweetpotato.jpg', 'key': 'i', 'origWidth': 410, 'origHeight': 410, 'width': 410, 'height': 410, 'widthPercent': 0.45, 'rescaleHeight': False, 'trialN': 27, 'loaded': True, 'loadedTime': 4160.799999999814, 'positionName': 'RIGHT', 'positionCoords': [832, 245], 'bid': 9.1}]",55249.200000000186,1669832796337,blueberries,sweetpotato,9.53,9.1,-0.4299999999999997,sweetpotato,845.0999999996275,846,846.5999999996275,True,i,56614.10000000056,1364.9000000003725,1669832797702,1365,HRV,HRV_0035,2022-11-30 18:30:54
28,"[{'imgObject': {}, 'id': 'rigatoni and sauce', 'src': '/static/foodstim60/rigatoni and sauce.jpg', 'key': 'u', 'origWidth': 410, 'origHeight': 411, 'width': 410, 'height': 411, 'widthPercent': 0.45, 'rescaleHeight': False, 'trialN': 28, 'loaded': True, 'loadedTime': 4314.200000000186, 'positionName': 'LEFT', 'positionCoords': [358, 244.5], 'bid': 9.52}, {'imgObject': {}, 'id': 'hashbrowns', 'src': '/static/foodstim60/hashbrowns.jpg', 'key': 'i', 'origWidth': 411, 'origHeight': 410, 'width': 411, 'height': 410, 'widthPercent': 0.45, 'rescaleHeight': False, 'trialN': 28, 'loaded': True, 'loadedTime': 5095.4000000003725, 'positionName': 'RIGHT', 'positionCoords': [832, 245], 'bid': 5.89}]",56614.60000000056,1669832797702,rigatoni and sauce,hashbrowns,9.52,5.89,-3.63,rigatoni and sauce,816.8999999994412,818,818.3999999994412,True,u,57940.40000000037,1325.7999999998137,1669832799028,1326,HRV,HRV_0035,2022-11-30 18:30:54
29,"[{'imgObject': {}, 'id': 'blueberries', 'src': '/static/foodstim60/blueberries.jpg', 'key': 'u', 'origWidth': 411, 'origHeight': 411, 'width': 411, 'height': 411, 'widthPercent': 0.45, 'rescaleHeight': False, 'trialN': 29, 'loaded': True, 'loadedTime': 5083.799999999814, 'positionName': 'LEFT', 'positionCoords': [357, 244.5], 'bid': 9.53}, {'imgObject': {}, 'id': 'turkeysandwich', 'src': '/static/foodstim60/turkeysandwich.jpg', 'key': 'i', 'origWidth': 409, 'origHeight': 409, 'width': 409, 'height': 409, 'widthPercent': 0.45, 'rescaleHeight': False, 'trialN': 29, 'loaded': True, 'loadedTime': 5097.600000000559, 'positionName': 'RIGHT', 'positionCoords': [832, 245.5], 'bid': 8.73}]",57940.700000000186,1669832799028,blueberries,turkeysandwich,9.53,8.73,-0.7999999999999989,blueberries,790.4000000003725,792,792.2000000001863,True,u,59240.60000000056,1299.9000000003725,1669832800328,1300,HRV,HRV_0035,2022-11-30 18:30:54
30,"[{'imgObject': {}, 'id': 'yogurt no spoon', 'src': '/static/foodstim60/yogurt no spoon.jpg', 'key': 'u', 'origWidth': 411, 'origHeight': 410, 'width': 411, 'height': 410, 'widthPercent': 0.45, 'rescaleHeight': False, 'trialN': 30, 'loaded': True, 'loadedTime': 4725.700000000186, 'positionName': 'LEFT', 'positionCoords': [357, 245], 'bid': 6.87}, {'imgObject': {}, 'id': 'granola w milk', 'src': '/static/foodstim60/granola w milk.jpg', 'key': 'i', 'origWidth': 410, 'origHeight': 410, 'width': 410, 'height': 410, 'widthPercent': 0.45, 'rescaleHeight': False, 'trialN': 30, 'loaded': True, 'loadedTime': 4492.700000000186, 'positionName': 'RIGHT', 'positionCoords': [832, 245], 'bid': 6.8500000000000005}]",59241.40000000037,1669832800329,yogurt no spoon,granola w milk,6.87,6.8500000000000005,-0.019999999999999574,granola w milk,1899.3999999994412,1901,1900.7000000001863,True,i,61658.60000000056,2417.2000000001863,1669832802746,2417,HRV,HRV_0035,2022-11-30 18:30:54
31,"[{'imgObject': {}, 'id': 'turkeysandwich', 'src': '/static/foodstim60/turkeysandwich.jpg', 'key': 'u', 'origWidth': 409, 'origHeight': 409, 'width': 409, 'height': 409, 'widthPercent': 0.45, 'rescaleHeight': False, 'trialN': 31, 'loaded': True, 'loadedTime': 5097.9000000003725, 'positionName': 'LEFT', 'positionCoords': [359, 245.5], 'bid': 8.73}, {'imgObject': {}, 'id': 'tacos', 'src': '/static/foodstim60/tacos.jpg', 'key': 'i', 'origWidth': 411, 'origHeight': 411, 'width': 411, 'height': 411, 'widthPercent': 0.45, 'rescaleHeight': False, 'trialN': 31, 'loaded': True, 'loadedTime': 5139.299999999814, 'positionName': 'RIGHT', 'positionCoords': [832, 244.5], 'bid': 4.91}]",61659.0,1669832802746,turkeysandwich,tacos,8.73,4.91,-3.8200000000000003,tacos,1228.2000000001863,1230,1229.2000000001863,True,i,63399.60000000056,1740.6000000005588,1669832804487,1741,HRV,HRV_0035,2022-11-30 18:30:54
32,"[{'imgObject': {}, 'id': 'bagel and cc', 'src': '/static/foodstim60/bagel and cc.jpg', 'key': 'u', 'origWidth': 410, 'origHeight': 410, 'width': 410, 'height': 410, 'widthPercent': 0.45, 'rescaleHeight': False, 'trialN': 32, 'loaded': True, 'loadedTime': 4294.700000000186, 'positionName': 'LEFT', 'positionCoords': [358, 245], 'bid': 7.7}, {'imgObject': {}, 'id': 'sweetpotato', 'src': '/static/foodstim60/sweetpotato.jpg', 'key': 'i', 'origWidth': 410, 'origHeight': 410, 'width': 410, 'height': 410, 'widthPercent': 0.45, 'rescaleHeight': False, 'trialN': 32, 'loaded': True, 'loadedTime': 4205.200000000186, 'positionName': 'RIGHT', 'positionCoords': [832, 245], 'bid': 9.1}]",63400.0,1669832804487,bagel and cc,sweetpotato,7.7,9.1,1.3999999999999995,sweetpotato,919.4000000003725,921,920.2999999998137,True,i,64829.200000000186,1429.2000000001863,1669832805917,1430,HRV,HRV_0035,2022-11-30 18:30:54
33,"[{'imgObject': {}, 'id': 'burger', 'src': '/static/foodstim60/burger.jpg', 'key': 'u', 'origWidth': 409, 'origHeight': 409, 'width': 409, 'height': 409, 'widthPercent': 0.45, 'rescaleHeight': False, 'trialN': 33, 'loaded': True, 'loadedTime': 5004.4000000003725, 'positionName': 'LEFT', 'positionCoords': [359, 245.5], 'bid': 4.87}, {'imgObject': {}, 'id': 'cocktailshrimp', 'src': '/static/foodstim60/cocktailshrimp.jpg', 'key': 'i', 'origWidth': 410, 'origHeight': 410, 'width': 410, 'height': 410, 'widthPercent': 0.45, 'rescaleHeight': False, 'trialN': 33, 'loaded': True, 'loadedTime': 5156.9000000003725, 'positionName': 'RIGHT', 'positionCoords': [832, 245], 'bid': 5.0600000000000005}]",64829.60000000056,1669832805917,burger,cocktailshrimp,4.87,5.0600000000000005,0.1900000000000004,cocktailshrimp,2122.0999999996275,2123,2122.899999999441,True,i,67458.40000000037,2628.7999999998137,1669832808546,2629,HRV,HRV_0035,2022-11-30 18:30:54
34,"[{'imgObject': {}, 'id': 'strawberries', 'src': '/static/foodstim60/strawberries.jpg', 'key': 'u', 'origWidth': 410, 'origHeight': 410, 'width': 410, 'height': 410, 'widthPercent': 0.45, 'rescaleHeight': False, 'trialN': 34, 'loaded': True, 'loadedTime': 5160, 'positionName': 'LEFT', 'positionCoords': [358, 245], 'bid': 8.85}, {'imgObject': {}, 'id': 'popsicles', 'src': '/static/foodstim60/popsicles.jpg', 'key': 'i', 'origWidth': 410, 'origHeight': 410, 'width': 410, 'height': 410, 'widthPercent': 0.45, 'rescaleHeight': False, 'trialN': 34, 'loaded': True, 'loadedTime': 5163.799999999814, 'positionName': 'RIGHT', 'positionCoords': [832, 245], 'bid': 5}]",67458.60000000056,1669832808546,strawberries,popsicles,8.85,5.0,-3.8499999999999996,strawberries,927.2999999998137,929,928.5,True,u,68890.79999999981,1432.199999999255,1669832809978,1432,HRV,HRV_0035,2022-11-30 18:30:54
35,"[{'imgObject': {}, 'id': 'mango', 'src': '/static/foodstim60/mango.jpg', 'key': 'u', 'origWidth': 411, 'origHeight': 411, 'width': 411, 'height': 411, 'widthPercent': 0.45, 'rescaleHeight': False, 'trialN': 35, 'loaded': True, 'loadedTime': 4835.4000000003725, 'positionName': 'LEFT', 'positionCoords': [357, 244.5], 'bid': 9.1}, {'imgObject': {}, 'id': 'baked potato', 'src': '/static/foodstim60/baked potato.jpg', 'key': 'i', 'origWidth': 409, 'origHeight': 410, 'width': 409, 'height': 410, 'widthPercent': 0.45, 'rescaleHeight': False, 'trialN': 35, 'loaded': True, 'loadedTime': 4621.9000000003725, 'positionName': 'RIGHT', 'positionCoords': [832, 245], 'bid': 7.640000000000001}]",68891.40000000037,1669832809979,mango,baked potato,9.1,7.640000000000001,-1.459999999999999,mango,928.8999999994412,931,931.0,True,u,70325.90000000037,1434.5,1669832811413,1434,HRV,HRV_0035,2022-11-30 18:30:54
36,"[{'imgObject': {}, 'id': 'chicken nuggets2', 'src': '/static/foodstim60/chicken nuggets2.jpg', 'key': 'u', 'origWidth': 410, 'origHeight': 409, 'width': 410, 'height': 409, 'widthPercent': 0.45, 'rescaleHeight': False, 'trialN': 36, 'loaded': True, 'loadedTime': 4425.700000000186, 'positionName': 'LEFT', 'positionCoords': [358, 245.5], 'bid': 5.12}, {'imgObject': {}, 'id': 'hashbrowns', 'src': '/static/foodstim60/hashbrowns.jpg', 'key': 'i', 'origWidth': 411, 'origHeight': 410, 'width': 411, 'height': 410, 'widthPercent': 0.45, 'rescaleHeight': False, 'trialN': 36, 'loaded': True, 'loadedTime': 5095.799999999814, 'positionName': 'RIGHT', 'positionCoords': [832, 245], 'bid': 5.89}]",70326.29999999981,1669832811414,chicken nuggets2,hashbrowns,5.12,5.89,0.7699999999999996,chicken nuggets2,912.9000000003725,914,914.3000000007451,True,u,71747.40000000037,1421.1000000005588,1669832812835,1421,HRV,HRV_0035,2022-11-30 18:30:54
37,"[{'imgObject': {}, 'id': 'cheerios', 'src': '/static/foodstim60/cheerios.jpg', 'key': 'u', 'origWidth': 409, 'origHeight': 410, 'width': 409, 'height': 410, 'widthPercent': 0.45, 'rescaleHeight': False, 'trialN': 37, 'loaded': True, 'loadedTime': 5070.600000000559, 'positionName': 'LEFT', 'positionCoords': [359, 245], 'bid': 7.36}, {'imgObject': {}, 'id': 'yogurt no spoon', 'src': '/static/foodstim60/yogurt no spoon.jpg', 'key': 'i', 'origWidth': 411, 'origHeight': 410, 'width': 411, 'height': 410, 'widthPercent': 0.45, 'rescaleHeight': False, 'trialN': 37, 'loaded': True, 'loadedTime': 4726.200000000186, 'positionName': 'RIGHT', 'positionCoords': [832, 245], 'bid': 6.87}]",71747.79999999981,1669832812835,cheerios,yogurt no spoon,7.36,6.87,-0.4900000000000002,yogurt no spoon,2052.100000000559,2054,2053.5,True,i,74320.0,2572.2000000001863,1669832815408,2573,HRV,HRV_0035,2022-11-30 18:30:54
38,"[{'imgObject': {}, 'id': 'eggs', 'src': '/static/foodstim60/eggs.jpg', 'key': 'u', 'origWidth': 409, 'origHeight': 409, 'width': 409, 'height': 409, 'widthPercent': 0.45, 'rescaleHeight': False, 'trialN': 38, 'loaded': True, 'loadedTime': 4416, 'positionName': 'LEFT', 'positionCoords': [359, 245.5], 'bid': 6.41}, {'imgObject': {}, 'id': 'bagel plain', 'src': '/static/foodstim60/bagel plain.jpg', 'key': 'i', 'origWidth': 410, 'origHeight': 410, 'width': 410, 'height': 410, 'widthPercent': 0.45, 'rescaleHeight': False, 'trialN': 38, 'loaded': True, 'loadedTime': 4058.7000000001863, 'positionName': 'RIGHT', 'positionCoords': [832, 245], 'bid': 5.03}]",74320.5,1669832815408,eggs,bagel plain,6.41,5.03,-1.38,eggs,953.7000000001863,956,955.7000000001863,True,u,75787.10000000056,1466.6000000005588,1669832816874,1466,HRV,HRV_0035,2022-11-30 18:30:54
39,"[{'imgObject': {}, 'id': 'sweetpotato', 'src': '/static/foodstim60/sweetpotato.jpg', 'key': 'u', 'origWidth': 410, 'origHeight': 410, 'width': 410, 'height': 410, 'widthPercent': 0.45, 'rescaleHeight': False, 'trialN': 39, 'loaded': True, 'loadedTime': 4199.700000000186, 'positionName': 'LEFT', 'positionCoords': [358, 245], 'bid': 9.1}, {'imgObject': {}, 'id': 'luckycharms', 'src': '/static/foodstim60/luckycharms.jpg', 'key': 'i', 'origWidth': 410, 'origHeight': 409, 'width': 410, 'height': 409, 'widthPercent': 0.45, 'rescaleHeight': False, 'trialN': 39, 'loaded': True, 'loadedTime': 5170.799999999814, 'positionName': 'RIGHT', 'positionCoords': [832, 245.5], 'bid': 9.15}]",75787.40000000037,1669832816875,sweetpotato,luckycharms,9.1,9.15,0.05000000000000071,sweetpotato,993.5999999996275,995,995.2999999998137,True,u,77300.79999999981,1513.3999999994412,1669832818388,1513,HRV,HRV_0035,2022-11-30 18:30:54
40,"[{'imgObject': {}, 'id': 'ice cream sundae 002', 'src': '/static/foodstim60/ice cream sundae 002.jpg', 'key': 'u', 'origWidth': 409, 'origHeight': 409, 'width': 409, 'height': 409, 'widthPercent': 0.45, 'rescaleHeight': False, 'trialN': 40, 'loaded': True, 'loadedTime': 5079.9000000003725, 'positionName': 'LEFT', 'positionCoords': [359, 245.5], 'bid': 7.27}, {'imgObject': {}, 'id': 'strawberries', 'src': '/static/foodstim60/strawberries.jpg', 'key': 'i', 'origWidth': 410, 'origHeight': 410, 'width': 410, 'height': 410, 'widthPercent': 0.45, 'rescaleHeight': False, 'trialN': 40, 'loaded': True, 'loadedTime': 5159.600000000559, 'positionName': 'RIGHT', 'positionCoords': [832, 245], 'bid': 8.85}]",77301.20000000019,1669832818389,ice cream sundae 002,strawberries,7.27,8.85,1.58,strawberries,1163.7999999998137,1165,1165.0999999996275,True,i,78972.0,1670.7999999998137,1669832820059,1670,HRV,HRV_0035,2022-11-30 18:30:54
41,"[{'imgObject': {}, 'id': 'orange slices', 'src': '/static/foodstim60/orange slices.jpg', 'key': 'u', 'origWidth': 409, 'origHeight': 410, 'width': 409, 'height': 410, 'widthPercent': 0.45, 'rescaleHeight': False, 'trialN': 41, 'loaded': True, 'loadedTime': 5179.5, 'positionName': 'LEFT', 'positionCoords': [359, 245], 'bid': 8.72}, {'imgObject': {}, 'id': 'burger', 'src': '/static/foodstim60/burger.jpg', 'key': 'i', 'origWidth': 409, 'origHeight': 409, 'width': 409, 'height': 409, 'widthPercent': 0.45, 'rescaleHeight': False, 'trialN': 41, 'loaded': True, 'loadedTime': 4990.4000000003725, 'positionName': 'RIGHT', 'positionCoords': [832, 245.5], 'bid': 4.87}]",78972.20000000019,1669832820060,orange slices,burger,8.72,4.87,-3.8500000000000005,orange slices,1684.5999999996275,1686,1686.7000000001863,True,u,81176.60000000056,2204.4000000003725,1669832822264,2204,HRV,HRV_0035,2022-11-30 18:30:54
42,"[{'imgObject': {}, 'id': 'bagel plain', 'src': '/static/foodstim60/bagel plain.jpg', 'key': 'u', 'origWidth': 410, 'origHeight': 410, 'width': 410, 'height': 410, 'widthPercent': 0.45, 'rescaleHeight': False, 'trialN': 42, 'loaded': True, 'loadedTime': 4115.600000000559, 'positionName': 'LEFT', 'positionCoords': [358, 245], 'bid': 5.03}, {'imgObject': {}, 'id': 'mango', 'src': '/static/foodstim60/mango.jpg', 'key': 'i', 'origWidth': 411, 'origHeight': 411, 'width': 411, 'height': 411, 'widthPercent': 0.45, 'rescaleHeight': False, 'trialN': 42, 'loaded': True, 'loadedTime': 4824, 'positionName': 'RIGHT', 'positionCoords': [832, 244.5], 'bid': 9.1}]",81177.20000000019,1669832822265,bagel plain,mango,5.03,9.1,4.069999999999999,mango,1107.0999999996275,1108,1108.0999999996275,True,i,82798.70000000019,1621.5,1669832823886,1621,HRV,HRV_0035,2022-11-30 18:30:54
43,"[{'imgObject': {}, 'id': 'lox', 'src': '/static/foodstim60/lox.jpg', 'key': 'u', 'origWidth': 410, 'origHeight': 411, 'width': 410, 'height': 411, 'widthPercent': 0.45, 'rescaleHeight': False, 'trialN': 43, 'loaded': True, 'loadedTime': 5205.700000000186, 'positionName': 'LEFT', 'positionCoords': [358, 244.5], 'bid': 7.8}, {'imgObject': {}, 'id': 'hotdog w must', 'src': '/static/foodstim60/hotdog w must.jpg', 'key': 'i', 'origWidth': 409, 'origHeight': 409, 'width': 409, 'height': 409, 'widthPercent': 0.45, 'rescaleHeight': False, 'trialN': 43, 'loaded': True, 'loadedTime': 4977.9000000003725, 'positionName': 'RIGHT', 'positionCoords': [832, 245.5], 'bid': 1.42}]",82799.0,1669832823886,lox,hotdog w must,7.8,1.42,-6.38,lox,1111.5,1114,1113.1000000005588,True,u,84422.0,1623.0,1669832825509,1623,HRV,HRV_0035,2022-11-30 18:30:54
44,"[{'imgObject': {}, 'id': 'burger', 'src': '/static/foodstim60/burger.jpg', 'key': 'u', 'origWidth': 409, 'origHeight': 409, 'width': 409, 'height': 409, 'widthPercent': 0.45, 'rescaleHeight': False, 'trialN': 44, 'loaded': True, 'loadedTime': 4996.799999999814, 'positionName': 'LEFT', 'positionCoords': [359, 245.5], 'bid': 4.87}, {'imgObject': {}, 'id': 'popsicles', 'src': '/static/foodstim60/popsicles.jpg', 'key': 'i', 'origWidth': 410, 'origHeight': 410, 'width': 410, 'height': 410, 'widthPercent': 0.45, 'rescaleHeight': False, 'trialN': 44, 'loaded': True, 'loadedTime': 5169.600000000559, 'positionName': 'RIGHT', 'positionCoords': [832, 245], 'bid': 5}]",84422.29999999981,1669832825510,burger,popsicles,4.87,5.0,0.1299999999999999,burger,1202.800000000745,1205,1204.800000000745,True,u,86140.90000000037,1718.6000000005588,1669832827228,1718,HRV,HRV_0035,2022-11-30 18:30:54
45,"[{'imgObject': {}, 'id': 'seaweed', 'src': '/static/foodstim60/seaweed.jpg', 'key': 'u', 'origWidth': 410, 'origHeight': 410, 'width': 410, 'height': 410, 'widthPercent': 0.45, 'rescaleHeight': False, 'trialN': 45, 'loaded': True, 'loadedTime': 5066.5, 'positionName': 'LEFT', 'positionCoords': [358, 245], 'bid': 0.25}, {'imgObject': {}, 'id': 'salmon', 'src': '/static/foodstim60/salmon.jpg', 'key': 'i', 'origWidth': 410, 'origHeight': 409, 'width': 410, 'height': 409, 'widthPercent': 0.45, 'rescaleHeight': False, 'trialN': 45, 'loaded': True, 'loadedTime': 5213.600000000559, 'positionName': 'RIGHT', 'positionCoords': [832, 245.5], 'bid': 5}]",86141.90000000037,1669832827229,seaweed,salmon,0.25,5.0,4.75,salmon,886.5999999996275,888,888.0,True,i,87530.79999999981,1388.8999999994412,1669832828618,1389,HRV,HRV_0035,2022-11-30 18:30:54
46,"[{'imgObject': {}, 'id': 'edamame', 'src': '/static/foodstim60/edamame.jpg', 'key': 'u', 'origWidth': 409, 'origHeight': 410, 'width': 409, 'height': 410, 'widthPercent': 0.45, 'rescaleHeight': False, 'trialN': 46, 'loaded': True, 'loadedTime': 4749, 'positionName': 'LEFT', 'positionCoords': [359, 245], 'bid': 0.16}, {'imgObject': {}, 'id': 'pear', 'src': '/static/foodstim60/pear.jpg', 'key': 'i', 'origWidth': 411, 'origHeight': 410, 'width': 411, 'height': 410, 'widthPercent': 0.45, 'rescaleHeight': False, 'trialN': 46, 'loaded': True, 'loadedTime': 5220.299999999814, 'positionName': 'RIGHT', 'positionCoords': [832, 245], 'bid': 0.15}]",87531.20000000019,1669832828619,edamame,pear,0.16,0.15,-0.010000000000000009,pear,691.9000000003725,692,692.4000000003725,True,i,88734.70000000019,1203.5,1669832829822,1203,HRV,HRV_0035,2022-11-30 18:30:54
47,"[{'imgObject': {}, 'id': 'orange slices', 'src': '/static/foodstim60/orange slices.jpg', 'key': 'u', 'origWidth': 409, 'origHeight': 410, 'width': 409, 'height': 410, 'widthPercent': 0.45, 'rescaleHeight': False, 'trialN': 47, 'loaded': True, 'loadedTime': 5180.100000000559, 'positionName': 'LEFT', 'positionCoords': [359, 245], 'bid': 8.72}, {'imgObject': {}, 'id': 'baked potato', 'src': '/static/foodstim60/baked potato.jpg', 'key': 'i', 'origWidth': 409, 'origHeight': 410, 'width': 409, 'height': 410, 'widthPercent': 0.45, 'rescaleHeight': False, 'trialN': 47, 'loaded': True, 'loadedTime': 4639.799999999814, 'positionName': 'RIGHT', 'positionCoords': [832, 245], 'bid': 7.640000000000001}]",88734.90000000037,1669832829822,orange slices,baked potato,8.72,7.640000000000001,-1.08,orange slices,620.0999999996275,621,620.5,True,u,89861.90000000037,1127.0,1669832830949,1127,HRV,HRV_0035,2022-11-30 18:30:54
48,"[{'imgObject': {}, 'id': 'apple slices', 'src': '/static/foodstim60/apple slices.jpg', 'key': 'u', 'origWidth': 409, 'origHeight': 410, 'width': 409, 'height': 410, 'widthPercent': 0.45, 'rescaleHeight': False, 'trialN': 48, 'loaded': True, 'loadedTime': 4337.100000000559, 'positionName': 'LEFT', 'positionCoords': [359, 245], 'bid': 0.2}, {'imgObject': {}, 'id': 'ice cream sundae 002', 'src': '/static/foodstim60/ice cream sundae 002.jpg', 'key': 'i', 'origWidth': 409, 'origHeight': 409, 'width': 409, 'height': 409, 'widthPercent': 0.45, 'rescaleHeight': False, 'trialN': 48, 'loaded': True, 'loadedTime': 5079.200000000186, 'positionName': 'RIGHT', 'positionCoords': [832, 245.5], 'bid': 7.27}]",89862.40000000037,1669832830950,apple slices,ice cream sundae 002,0.2,7.27,7.069999999999999,ice cream sundae 002,800.3999999994412,802,801.7000000001863,True,i,91183.0,1320.5999999996275,1669832832270,1320,HRV,HRV_0035,2022-11-30 18:30:54
49,"[{'imgObject': {}, 'id': 'turkey sandwich', 'src': '/static/foodstim60/turkey sandwich.jpg', 'key': 'u', 'origWidth': 409, 'origHeight': 409, 'width': 409, 'height': 409, 'widthPercent': 0.45, 'rescaleHeight': False, 'trialN': 49, 'loaded': True, 'loadedTime': 4224.799999999814, 'positionName': 'LEFT', 'positionCoords': [359, 245.5], 'bid': 7.47}, {'imgObject': {}, 'id': 'hashbrowns', 'src': '/static/foodstim60/hashbrowns.jpg', 'key': 'i', 'origWidth': 411, 'origHeight': 410, 'width': 411, 'height': 410, 'widthPercent': 0.45, 'rescaleHeight': False, 'trialN': 49, 'loaded': True, 'loadedTime': 5095.100000000559, 'positionName': 'RIGHT', 'positionCoords': [832, 245], 'bid': 5.89}]",91183.5,1669832832271,turkey sandwich,hashbrowns,7.47,5.89,-1.58,turkey sandwich,945.6000000005588,947,947.0,True,u,92648.10000000056,1464.6000000005588,1669832833736,1465,HRV,HRV_0035,2022-11-30 18:30:54
50,"[{'imgObject': {}, 'id': 'steak', 'src': '/static/foodstim60/steak.jpg', 'key': 'u', 'origWidth': 410, 'origHeight': 410, 'width': 410, 'height': 410, 'widthPercent': 0.45, 'rescaleHeight': False, 'trialN': 50, 'loaded': True, 'loadedTime': 4910.100000000559, 'positionName': 'LEFT', 'positionCoords': [358, 245], 'bid': 0.48}, {'imgObject': {}, 'id': 'burrito', 'src': '/static/foodstim60/burrito.jpg', 'key': 'i', 'origWidth': 410, 'origHeight': 410, 'width': 410, 'height': 410, 'widthPercent': 0.45, 'rescaleHeight': False, 'trialN': 50, 'loaded': True, 'loadedTime': 5234.5, 'positionName': 'RIGHT', 'positionCoords': [832, 245], 'bid': 0.41}]",92648.40000000037,1669832833736,steak,burrito,0.48,0.41,-0.07,burrito,971.5,972,972.5999999996275,True,i,94128.10000000056,1479.7000000001863,1669832835216,1480,HRV,HRV_0035,2022-11-30 18:30:54
51,"[{'imgObject': {}, 'id': 'banana', 'src': '/static/foodstim60/banana.jpg', 'key': 'u', 'origWidth': 410, 'origHeight': 410, 'width': 410, 'height': 410, 'widthPercent': 0.45, 'rescaleHeight': False, 'trialN': 51, 'loaded': True, 'loadedTime': 4963.600000000559, 'positionName': 'LEFT', 'positionCoords': [358, 245], 'bid': 5.0600000000000005}, {'imgObject': {}, 'id': 'mashed potato', 'src': '/static/foodstim60/mashed potato.jpg', 'key': 'i', 'origWidth': 409, 'origHeight': 409, 'width': 409, 'height': 409, 'widthPercent': 0.45, 'rescaleHeight': False, 'trialN': 51, 'loaded': True, 'loadedTime': 4877, 'positionName': 'RIGHT', 'positionCoords': [832, 245.5], 'bid': 5.16}]",94128.60000000056,1669832835216,banana,mashed potato,5.0600000000000005,5.16,0.09999999999999964,mashed potato,1285.7999999998137,1287,1287.2999999998137,True,i,95925.40000000037,1796.7999999998137,1669832837013,1797,HRV,HRV_0035,2022-11-30 18:30:54
52,"[{'imgObject': {}, 'id': 'fruitsalad', 'src': '/static/foodstim60/fruitsalad.jpg', 'key': 'u', 'origWidth': 410, 'origHeight': 410, 'width': 410, 'height': 410, 'widthPercent': 0.45, 'rescaleHeight': False, 'trialN': 52, 'loaded': True, 'loadedTime': 5242.100000000559, 'positionName': 'LEFT', 'positionCoords': [358, 245], 'bid': 7.5}, {'imgObject': {}, 'id': 'burrito', 'src': '/static/foodstim60/burrito.jpg', 'key': 'i', 'origWidth': 410, 'origHeight': 410, 'width': 410, 'height': 410, 'widthPercent': 0.45, 'rescaleHeight': False, 'trialN': 52, 'loaded': True, 'loadedTime': 5228.4000000003725, 'positionName': 'RIGHT', 'positionCoords': [832, 245], 'bid': 0.41}]",95925.60000000056,1669832837013,fruitsalad,burrito,7.5,0.41,-7.09,fruitsalad,947.5,949,948.6999999992549,True,u,97392.79999999981,1467.199999999255,1669832838480,1467,HRV,HRV_0035,2022-11-30 18:30:54
53,"[{'imgObject': {}, 'id': 'raisin bran w milk', 'src': '/static/foodstim60/raisin bran w milk.jpg', 'key': 'u', 'origWidth': 411, 'origHeight': 411, 'width': 411, 'height': 411, 'widthPercent': 0.45, 'rescaleHeight': False, 'trialN': 53, 'loaded': True, 'loadedTime': 4261.600000000559, 'positionName': 'LEFT', 'positionCoords': [357, 244.5], 'bid': 6.03}, {'imgObject': {}, 'id': 'blueberries', 'src': '/static/foodstim60/blueberries.jpg', 'key': 'i', 'origWidth': 411, 'origHeight': 411, 'width': 411, 'height': 411, 'widthPercent': 0.45, 'rescaleHeight': False, 'trialN': 53, 'loaded': True, 'loadedTime': 5089.700000000186, 'positionName': 'RIGHT', 'positionCoords': [832, 244.5], 'bid': 9.53}]",97393.10000000056,1669832838480,raisin bran w milk,blueberries,6.03,9.53,3.499999999999999,blueberries,763.2999999998137,765,764.6999999992549,True,i,98671.10000000056,1278.0,1669832839758,1278,HRV,HRV_0035,2022-11-30 18:30:54
54,"[{'imgObject': {}, 'id': 'steak', 'src': '/static/foodstim60/steak.jpg', 'key': 'u', 'origWidth': 410, 'origHeight': 410, 'width': 410, 'height': 410, 'widthPercent': 0.45, 'rescaleHeight': False, 'trialN': 54, 'loaded': True, 'loadedTime': 4920, 'positionName': 'LEFT', 'positionCoords': [358, 245], 'bid': 0.48}, {'imgObject': {}, 'id': 'popsicles', 'src': '/static/foodstim60/popsicles.jpg', 'key': 'i', 'origWidth': 410, 'origHeight': 410, 'width': 410, 'height': 410, 'widthPercent': 0.45, 'rescaleHeight': False, 'trialN': 54, 'loaded': True, 'loadedTime': 5170.299999999814, 'positionName': 'RIGHT', 'positionCoords': [832, 245], 'bid': 5}]",98671.40000000037,1669832839759,steak,popsicles,0.48,5.0,4.52,popsicles,1449.2999999998137,1451,1451.5999999996275,True,i,100634.29999999981,1962.8999999994412,1669832841722,1963,HRV,HRV_0035,2022-11-30 18:30:54
55,"[{'imgObject': {}, 'id': 'seaweed', 'src': '/static/foodstim60/seaweed.jpg', 'key': 'u', 'origWidth': 410, 'origHeight': 410, 'width': 410, 'height': 410, 'widthPercent': 0.45, 'rescaleHeight': False, 'trialN': 55, 'loaded': True, 'loadedTime': 5060.100000000559, 'positionName': 'LEFT', 'positionCoords': [358, 245], 'bid': 0.25}, {'imgObject': {}, 'id': 'froot loops w milk', 'src': '/static/foodstim60/froot loops w milk.jpg', 'key': 'i', 'origWidth': 410, 'origHeight': 410, 'width': 410, 'height': 410, 'widthPercent': 0.45, 'rescaleHeight': False, 'trialN': 55, 'loaded': True, 'loadedTime': 4853.700000000186, 'positionName': 'RIGHT', 'positionCoords': [832, 245], 'bid': 0.73}]",100634.60000000056,1669832841722,seaweed,froot loops w milk,0.25,0.73,0.48,froot loops w milk,726.6999999992549,729,728.5,True,i,101881.10000000056,1246.5,1669832842969,1247,HRV,HRV_0035,2022-11-30 18:30:54
56,"[{'imgObject': {}, 'id': 'pear', 'src': '/static/foodstim60/pear.jpg', 'key': 'u', 'origWidth': 411, 'origHeight': 410, 'width': 411, 'height': 410, 'widthPercent': 0.45, 'rescaleHeight': False, 'trialN': 56, 'loaded': True, 'loadedTime': 5216.5, 'positionName': 'LEFT', 'positionCoords': [357, 245], 'bid': 0.15}, {'imgObject': {}, 'id': 'cantaloupe', 'src': '/static/foodstim60/cantaloupe.jpg', 'key': 'i', 'origWidth': 409, 'origHeight': 409, 'width': 409, 'height': 409, 'widthPercent': 0.45, 'rescaleHeight': False, 'trialN': 56, 'loaded': True, 'loadedTime': 5252.4000000003725, 'positionName': 'RIGHT', 'positionCoords': [832, 245.5], 'bid': 2.88}]",101881.40000000037,1669832842969,pear,cantaloupe,0.15,2.88,2.73,cantaloupe,883.0999999996275,884,884.5999999996275,True,i,103272.90000000037,1391.5,1669832844360,1391,HRV,HRV_0035,2022-11-30 18:30:54
57,"[{'imgObject': {}, 'id': 'olives', 'src': '/static/foodstim60/olives.jpg', 'key': 'u', 'origWidth': 410, 'origHeight': 410, 'width': 410, 'height': 410, 'widthPercent': 0.45, 'rescaleHeight': False, 'trialN': 57, 'loaded': True, 'loadedTime': 5252.9000000003725, 'positionName': 'LEFT', 'positionCoords': [358, 245], 'bid': 0.33}, {'imgObject': {}, 'id': 'grilled chicken strips', 'src': '/static/foodstim60/grilled chicken strips.jpg', 'key': 'i', 'origWidth': 410, 'origHeight': 411, 'width': 410, 'height': 411, 'widthPercent': 0.45, 'rescaleHeight': False, 'trialN': 57, 'loaded': True, 'loadedTime': 5260.600000000559, 'positionName': 'RIGHT', 'positionCoords': [832, 244.5], 'bid': 5.05}]",103273.10000000056,1669832844361,olives,grilled chicken strips,0.33,5.05,4.72,grilled chicken strips,1404.199999999255,1404,1404.5999999996275,True,i,105191.79999999981,1918.699999999255,1669832846279,1918,HRV,HRV_0035,2022-11-30 18:30:54
58,"[{'imgObject': {}, 'id': 'banana', 'src': '/static/foodstim60/banana.jpg', 'key': 'u', 'origWidth': 410, 'origHeight': 410, 'width': 410, 'height': 410, 'widthPercent': 0.45, 'rescaleHeight': False, 'trialN': 58, 'loaded': True, 'loadedTime': 4959.4000000003725, 'positionName': 'LEFT', 'positionCoords': [358, 245], 'bid': 5.0600000000000005}, {'imgObject': {}, 'id': 'chicken nuggets2', 'src': '/static/foodstim60/chicken nuggets2.jpg', 'key': 'i', 'origWidth': 410, 'origHeight': 409, 'width': 410, 'height': 409, 'widthPercent': 0.45, 'rescaleHeight': False, 'trialN': 58, 'loaded': True, 'loadedTime': 4416.4000000003725, 'positionName': 'RIGHT', 'positionCoords': [832, 245.5], 'bid': 5.12}]",105192.0,1669832846279,banana,chicken nuggets2,5.0600000000000005,5.12,0.05999999999999961,chicken nuggets2,720.6000000005588,722,721.2000000001863,True,i,106429.40000000037,1237.4000000003725,1669832847517,1238,HRV,HRV_0035,2022-11-30 18:30:54
59,"[{'imgObject': {}, 'id': 'shreddedwheatwithmilk', 'src': '/static/foodstim60/shreddedwheatwithmilk.jpg', 'key': 'u', 'origWidth': 410, 'origHeight': 410, 'width': 410, 'height': 410, 'widthPercent': 0.45, 'rescaleHeight': False, 'trialN': 59, 'loaded': True, 'loadedTime': 4644.100000000559, 'positionName': 'LEFT', 'positionCoords': [358, 245], 'bid': 9.15}, {'imgObject': {}, 'id': 'mac & cheese', 'src': '/static/foodstim60/mac & cheese.jpg', 'key': 'i', 'origWidth': 410, 'origHeight': 410, 'width': 410, 'height': 410, 'widthPercent': 0.45, 'rescaleHeight': False, 'trialN': 59, 'loaded': True, 'loadedTime': 4562.9000000003725, 'positionName': 'RIGHT', 'positionCoords': [832, 245], 'bid': 9.1}]",106429.70000000019,1669832847517,shreddedwheatwithmilk,mac & cheese,9.15,9.1,-0.05000000000000071,mac & cheese,1421.0999999996275,1423,1422.7999999998137,True,i,108368.70000000019,1939.0,1669832849456,1939,HRV,HRV_0035,2022-11-30 18:30:54
60,"[{'imgObject': {}, 'id': 'corn cob', 'src': '/static/foodstim60/corn cob.jpg', 'key': 'u', 'origWidth': 411, 'origHeight': 411, 'width': 411, 'height': 411, 'widthPercent': 0.45, 'rescaleHeight': False, 'trialN': 60, 'loaded': True, 'loadedTime': 5268.5, 'positionName': 'LEFT', 'positionCoords': [357, 244.5], 'bid': 0.92}, {'imgObject': {}, 'id': 'hashbrowns', 'src': '/static/foodstim60/hashbrowns.jpg', 'key': 'i', 'origWidth': 411, 'origHeight': 410, 'width': 411, 'height': 410, 'widthPercent': 0.45, 'rescaleHeight': False, 'trialN': 60, 'loaded': True, 'loadedTime': 5089.9000000003725, 'positionName': 'RIGHT', 'positionCoords': [832, 245], 'bid': 5.89}]",108369.60000000056,1669832849457,corn cob,hashbrowns,0.92,5.89,4.97,hashbrowns,1234.5999999996275,1235,1235.2999999998137,True,i,110115.79999999981,1746.199999999255,1669832851203,1746,HRV,HRV_0035,2022-11-30 18:30:54
61,"[{'imgObject': {}, 'id': 'salmon', 'src': '/static/foodstim60/salmon.jpg', 'key': 'u', 'origWidth': 410, 'origHeight': 409, 'width': 410, 'height': 409, 'widthPercent': 0.45, 'rescaleHeight': False, 'trialN': 61, 'loaded': True, 'loadedTime': 5213.4000000003725, 'positionName': 'LEFT', 'positionCoords': [358, 245.5], 'bid': 5}, {'imgObject': {}, 'id': 'roastedpotatoes', 'src': '/static/foodstim60/roastedpotatoes.jpg', 'key': 'i', 'origWidth': 409, 'origHeight': 410, 'width': 409, 'height': 410, 'widthPercent': 0.45, 'rescaleHeight': False, 'trialN': 61, 'loaded': True, 'loadedTime': 4275.4000000003725, 'positionName': 'RIGHT', 'positionCoords': [832, 245], 'bid': 6.3100000000000005}]",110116.20000000019,1669832851204,salmon,roastedpotatoes,5.0,6.3100000000000005,1.3100000000000005,roastedpotatoes,932.5999999996275,933,933.5,True,i,111562.5,1446.2999999998137,1669832852650,1446,HRV,HRV_0035,2022-11-30 18:30:54
62,"[{'imgObject': {}, 'id': 'hotdog w must', 'src': '/static/foodstim60/hotdog w must.jpg', 'key': 'u', 'origWidth': 409, 'origHeight': 409, 'width': 409, 'height': 409, 'widthPercent': 0.45, 'rescaleHeight': False, 'trialN': 62, 'loaded': True, 'loadedTime': 4974.100000000559, 'positionName': 'LEFT', 'positionCoords': [359, 245.5], 'bid': 1.42}, {'imgObject': {}, 'id': 'corn cob', 'src': '/static/foodstim60/corn cob.jpg', 'key': 'i', 'origWidth': 411, 'origHeight': 411, 'width': 411, 'height': 411, 'widthPercent': 0.45, 'rescaleHeight': False, 'trialN': 62, 'loaded': True, 'loadedTime': 5269.100000000559, 'positionName': 'RIGHT', 'positionCoords': [832, 244.5], 'bid': 0.92}]",111563.10000000056,1669832852651,hotdog w must,corn cob,1.42,0.92,-0.4999999999999999,hotdog w must,1381.5999999996275,1382,1382.3999999994412,True,u,113453.90000000037,1890.7999999998137,1669832854541,1890,HRV,HRV_0035,2022-11-30 18:30:54
63,"[{'imgObject': {}, 'id': 'olives', 'src': '/static/foodstim60/olives.jpg', 'key': 'u', 'origWidth': 410, 'origHeight': 410, 'width': 410, 'height': 410, 'widthPercent': 0.45, 'rescaleHeight': False, 'trialN': 63, 'loaded': True, 'loadedTime': 5257.700000000186, 'positionName': 'LEFT', 'positionCoords': [358, 245], 'bid': 0.33}, {'imgObject': {}, 'id': 'pear', 'src': '/static/foodstim60/pear.jpg', 'key': 'i', 'origWidth': 411, 'origHeight': 410, 'width': 411, 'height': 410, 'widthPercent': 0.45, 'rescaleHeight': False, 'trialN': 63, 'loaded': True, 'loadedTime': 5224.299999999814, 'positionName': 'RIGHT', 'positionCoords': [832, 245], 'bid': 0.15}]",113454.20000000019,1669832854541,olives,pear,0.33,0.15,-0.18000000000000002,olives,1140.7999999998137,1142,1141.2999999998137,True,u,115112.60000000056,1658.4000000003725,1669832856200,1659,HRV,HRV_0035,2022-11-30 18:30:54
64,"[{'imgObject': {}, 'id': 'grilled chicken strips', 'src': '/static/foodstim60/grilled chicken strips.jpg', 'key': 'u', 'origWidth': 410, 'origHeight': 411, 'width': 410, 'height': 411, 'widthPercent': 0.45, 'rescaleHeight': False, 'trialN': 64, 'loaded': True, 'loadedTime': 5261.299999999814, 'positionName': 'LEFT', 'positionCoords': [358, 244.5], 'bid': 5.05}, {'imgObject': {}, 'id': 'cantaloupe', 'src': '/static/foodstim60/cantaloupe.jpg', 'key': 'i', 'origWidth': 409, 'origHeight': 409, 'width': 409, 'height': 409, 'widthPercent': 0.45, 'rescaleHeight': False, 'trialN': 64, 'loaded': True, 'loadedTime': 5248.5, 'positionName': 'RIGHT', 'positionCoords': [832, 245.5], 'bid': 2.88}]",115113.0,1669832856200,grilled chicken strips,cantaloupe,5.05,2.88,-2.17,grilled chicken strips,1691.7999999998137,1693,1693.2000000001863,True,u,117318.70000000019,2205.7000000001863,1669832858406,2206,HRV,HRV_0035,2022-11-30 18:30:54
65,"[{'imgObject': {}, 'id': 'sushi w_condiments', 'src': '/static/foodstim60/sushi w_condiments.jpg', 'key': 'u', 'origWidth': 410, 'origHeight': 410, 'width': 410, 'height': 410, 'widthPercent': 0.45, 'rescaleHeight': False, 'trialN': 65, 'loaded': True, 'loadedTime': 5270.9000000003725, 'positionName': 'LEFT', 'positionCoords': [358, 245], 'bid': 7.63}, {'imgObject': {}, 'id': 'raspberries', 'src': '/static/foodstim60/raspberries.jpg', 'key': 'i', 'origWidth': 411, 'origHeight': 411, 'width': 411, 'height': 411, 'widthPercent': 0.45, 'rescaleHeight': False, 'trialN': 65, 'loaded': True, 'loadedTime': 4819.4000000003725, 'positionName': 'RIGHT', 'positionCoords': [832, 244.5], 'bid': 8.94}]",117319.20000000019,1669832858406,sushi w_condiments,raspberries,7.63,8.94,1.3099999999999996,sushi w_condiments,1143.9000000003725,1146,1145.4000000003725,True,u,118981.40000000037,1662.2000000001863,1669832860068,1662,HRV,HRV_0035,2022-11-30 18:30:54
66,"[{'imgObject': {}, 'id': 'banana', 'src': '/static/foodstim60/banana.jpg', 'key': 'u', 'origWidth': 410, 'origHeight': 410, 'width': 410, 'height': 410, 'widthPercent': 0.45, 'rescaleHeight': False, 'trialN': 66, 'loaded': True, 'loadedTime': 4953.799999999814, 'positionName': 'LEFT', 'positionCoords': [358, 245], 'bid': 5.0600000000000005}, {'imgObject': {}, 'id': 'ice cream sundae 002', 'src': '/static/foodstim60/ice cream sundae 002.jpg', 'key': 'i', 'origWidth': 409, 'origHeight': 409, 'width': 409, 'height': 409, 'widthPercent': 0.45, 'rescaleHeight': False, 'trialN': 66, 'loaded': True, 'loadedTime': 5079.5, 'positionName': 'RIGHT', 'positionCoords': [832, 245.5], 'bid': 7.27}]",118981.60000000056,1669832860069,banana,ice cream sundae 002,5.0600000000000005,7.27,2.209999999999999,banana,1132.5999999996275,1134,1133.7999999998137,True,u,120633.0,1651.3999999994412,1669832861720,1651,HRV,HRV_0035,2022-11-30 18:30:54
67,"[{'imgObject': {}, 'id': 'yogurt no spoon', 'src': '/static/foodstim60/yogurt no spoon.jpg', 'key': 'u', 'origWidth': 411, 'origHeight': 410, 'width': 411, 'height': 410, 'widthPercent': 0.45, 'rescaleHeight': False, 'trialN': 67, 'loaded': True, 'loadedTime': 4709.200000000186, 'positionName': 'LEFT', 'positionCoords': [357, 245], 'bid': 6.87}, {'imgObject': {}, 'id': 'cocktailshrimp', 'src': '/static/foodstim60/cocktailshrimp.jpg', 'key': 'i', 'origWidth': 410, 'origHeight': 410, 'width': 410, 'height': 410, 'widthPercent': 0.45, 'rescaleHeight': False, 'trialN': 67, 'loaded': True, 'loadedTime': 5156.600000000559, 'positionName': 'RIGHT', 'positionCoords': [832, 245], 'bid': 5.0600000000000005}]",120633.5,1669832861721,yogurt no spoon,cocktailshrimp,6.87,5.0600000000000005,-1.8099999999999996,cocktailshrimp,686.5,688,687.7000000001863,True,i,121830.79999999981,1197.2999999998137,1669832862918,1197,HRV,HRV_0035,2022-11-30 18:30:54
68,"[{'imgObject': {}, 'id': 'eggsalad', 'src': '/static/foodstim60/eggsalad.jpg', 'key': 'u', 'origWidth': 410, 'origHeight': 409, 'width': 410, 'height': 409, 'widthPercent': 0.45, 'rescaleHeight': False, 'trialN': 68, 'loaded': True, 'loadedTime': 4761.299999999814, 'positionName': 'LEFT', 'positionCoords': [358, 245.5], 'bid': 8.55}, {'imgObject': {}, 'id': 'lox', 'src': '/static/foodstim60/lox.jpg', 'key': 'i', 'origWidth': 410, 'origHeight': 411, 'width': 410, 'height': 411, 'widthPercent': 0.45, 'rescaleHeight': False, 'trialN': 68, 'loaded': True, 'loadedTime': 5206.4000000003725, 'positionName': 'RIGHT', 'positionCoords': [832, 244.5], 'bid': 7.8}]",121831.10000000056,1669832862918,eggsalad,lox,8.55,7.8,-0.7500000000000009,eggsalad,1512.0999999996275,1513,1513.2999999998137,True,u,123850.0,2018.8999999994412,1669832864937,2019,HRV,HRV_0035,2022-11-30 18:30:54
69,"[{'imgObject': {}, 'id': 'sweetpotato', 'src': '/static/foodstim60/sweetpotato.jpg', 'key': 'u', 'origWidth': 410, 'origHeight': 410, 'width': 410, 'height': 410, 'widthPercent': 0.45, 'rescaleHeight': False, 'trialN': 69, 'loaded': True, 'loadedTime': 4192, 'positionName': 'LEFT', 'positionCoords': [358, 245], 'bid': 9.1}, {'imgObject': {}, 'id': 'mac & cheese', 'src': '/static/foodstim60/mac & cheese.jpg', 'key': 'i', 'origWidth': 410, 'origHeight': 410, 'width': 410, 'height': 410, 'widthPercent': 0.45, 'rescaleHeight': False, 'trialN': 69, 'loaded': True, 'loadedTime': 4554, 'positionName': 'RIGHT', 'positionCoords': [832, 245], 'bid': 9.1}]",123850.40000000037,1669832864937,sweetpotato,mac & cheese,9.1,9.1,0.0,mac & cheese,864.5,866,865.7000000001863,True,i,125223.5,1373.0999999996275,1669832866311,1374,HRV,HRV_0035,2022-11-30 18:30:54
70,"[{'imgObject': {}, 'id': 'tacos', 'src': '/static/foodstim60/tacos.jpg', 'key': 'u', 'origWidth': 411, 'origHeight': 411, 'width': 411, 'height': 411, 'widthPercent': 0.45, 'rescaleHeight': False, 'trialN': 70, 'loaded': True, 'loadedTime': 5143.4000000003725, 'positionName': 'LEFT', 'positionCoords': [357, 244.5], 'bid': 4.91}, {'imgObject': {}, 'id': 'popsicles', 'src': '/static/foodstim60/popsicles.jpg', 'key': 'i', 'origWidth': 410, 'origHeight': 410, 'width': 410, 'height': 410, 'widthPercent': 0.45, 'rescaleHeight': False, 'trialN': 70, 'loaded': True, 'loadedTime': 5165.200000000186, 'positionName': 'RIGHT', 'positionCoords': [832, 245], 'bid': 5}]",125224.10000000056,1669832866311,tacos,popsicles,4.91,5.0,0.08999999999999986,tacos,766.3999999994412,768,768.0,True,u,126510.20000000019,1286.0999999996275,1669832867597,1286,HRV,HRV_0035,2022-11-30 18:30:54
71,"[{'imgObject': {}, 'id': 'raspberries', 'src': '/static/foodstim60/raspberries.jpg', 'key': 'u', 'origWidth': 411, 'origHeight': 411, 'width': 411, 'height': 411, 'widthPercent': 0.45, 'rescaleHeight': False, 'trialN': 71, 'loaded': True, 'loadedTime': 4805.100000000559, 'positionName': 'LEFT', 'positionCoords': [357, 244.5], 'bid': 8.94}, {'imgObject': {}, 'id': 'turkeysandwich', 'src': '/static/foodstim60/turkeysandwich.jpg', 'key': 'i', 'origWidth': 409, 'origHeight': 409, 'width': 409, 'height': 409, 'widthPercent': 0.45, 'rescaleHeight': False, 'trialN': 71, 'loaded': True, 'loadedTime': 5126.100000000559, 'positionName': 'RIGHT', 'positionCoords': [832, 245.5], 'bid': 8.73}]",126510.60000000056,1669832867598,raspberries,turkeysandwich,8.94,8.73,-0.20999999999999908,raspberries,1050.0999999996275,1051,1051.199999999255,True,u,128080.79999999981,1570.199999999255,1669832869168,1570,HRV,HRV_0035,2022-11-30 18:30:54
72,"[{'imgObject': {}, 'id': 'mac & cheese', 'src': '/static/foodstim60/mac & cheese.jpg', 'key': 'u', 'origWidth': 410, 'origHeight': 410, 'width': 410, 'height': 410, 'widthPercent': 0.45, 'rescaleHeight': False, 'trialN': 72, 'loaded': True, 'loadedTime': 4548.600000000559, 'positionName': 'LEFT', 'positionCoords': [358, 245], 'bid': 9.1}, {'imgObject': {}, 'id': 'fruitsalad', 'src': '/static/foodstim60/fruitsalad.jpg', 'key': 'i', 'origWidth': 410, 'origHeight': 410, 'width': 410, 'height': 410, 'widthPercent': 0.45, 'rescaleHeight': False, 'trialN': 72, 'loaded': True, 'loadedTime': 5241.600000000559, 'positionName': 'RIGHT', 'positionCoords': [832, 245], 'bid': 7.5}]",128081.10000000056,1669832869168,mac & cheese,fruitsalad,9.1,7.5,-1.5999999999999996,mac & cheese,1265.199999999255,1266,1266.0,True,u,129860.70000000019,1779.5999999996275,1669832870948,1780,HRV,HRV_0035,2022-11-30 18:30:54
73,"[{'imgObject': {}, 'id': 'veggieswithdip', 'src': '/static/foodstim60/veggieswithdip.jpg', 'key': 'u', 'origWidth': 409, 'origHeight': 409, 'width': 409, 'height': 409, 'widthPercent': 0.45, 'rescaleHeight': False, 'trialN': 73, 'loaded': True, 'loadedTime': 5277.9000000003725, 'positionName': 'LEFT', 'positionCoords': [359, 245.5], 'bid': 0.15}, {'imgObject': {}, 'id': 'cherries', 'src': '/static/foodstim60/cherries.jpg', 'key': 'i', 'origWidth': 410, 'origHeight': 411, 'width': 410, 'height': 411, 'widthPercent': 0.45, 'rescaleHeight': False, 'trialN': 73, 'loaded': True, 'loadedTime': 4153.200000000186, 'positionName': 'RIGHT', 'positionCoords': [832, 244.5], 'bid': 2.5500000000000003}]",129861.0,1669832870948,veggieswithdip,cherries,0.15,2.5500000000000003,2.4000000000000004,cherries,1081.2999999998137,1083,1082.5,True,i,131454.7999999998,1593.7999999998137,1669832872542,1594,HRV,HRV_0035,2022-11-30 18:30:54
74,"[{'imgObject': {}, 'id': 'lox', 'src': '/static/foodstim60/lox.jpg', 'key': 'u', 'origWidth': 410, 'origHeight': 411, 'width': 410, 'height': 411, 'widthPercent': 0.45, 'rescaleHeight': False, 'trialN': 74, 'loaded': True, 'loadedTime': 5180.600000000559, 'positionName': 'LEFT', 'positionCoords': [358, 244.5], 'bid': 7.8}, {'imgObject': {}, 'id': 'luckycharms', 'src': '/static/foodstim60/luckycharms.jpg', 'key': 'i', 'origWidth': 410, 'origHeight': 409, 'width': 410, 'height': 409, 'widthPercent': 0.45, 'rescaleHeight': False, 'trialN': 74, 'loaded': True, 'loadedTime': 5173, 'positionName': 'RIGHT', 'positionCoords': [832, 245.5], 'bid': 9.15}]",131455.10000000056,1669832872542,lox,luckycharms,7.8,9.15,1.3500000000000005,lox,1114.3999999994412,1116,1115.7999999998137,True,u,133075.40000000037,1620.2999999998137,1669832874162,1620,HRV,HRV_0035,2022-11-30 18:30:54
75,"[{'imgObject': {}, 'id': 'omelette', 'src': '/static/foodstim60/omelette.jpg', 'key': 'u', 'origWidth': 410, 'origHeight': 409, 'width': 410, 'height': 409, 'widthPercent': 0.45, 'rescaleHeight': False, 'trialN': 75, 'loaded': True, 'loadedTime': 4923.799999999814, 'positionName': 'LEFT', 'positionCoords': [358, 245.5], 'bid': 7.72}, {'imgObject': {}, 'id': 'turkey sandwich', 'src': '/static/foodstim60/turkey sandwich.jpg', 'key': 'i', 'origWidth': 409, 'origHeight': 409, 'width': 409, 'height': 409, 'widthPercent': 0.45, 'rescaleHeight': False, 'trialN': 75, 'loaded': True, 'loadedTime': 4235, 'positionName': 'RIGHT', 'positionCoords': [832, 245.5], 'bid': 7.47}]",133075.60000000056,1669832874163,omelette,turkey sandwich,7.72,7.47,-0.25,omelette,1000.1999999992549,1001,1001.1999999992549,True,u,134587.5,1511.8999999994412,1669832875675,1512,HRV,HRV_0035,2022-11-30 18:30:54
76,"[{'imgObject': {}, 'id': 'veggieswithdip', 'src': '/static/foodstim60/veggieswithdip.jpg', 'key': 'u', 'origWidth': 409, 'origHeight': 409, 'width': 409, 'height': 409, 'widthPercent': 0.45, 'rescaleHeight': False, 'trialN': 76, 'loaded': True, 'loadedTime': 5277.4000000003725, 'positionName': 'LEFT', 'positionCoords': [359, 245.5], 'bid': 0.15}, {'imgObject': {}, 'id': 'cherry tomato', 'src': '/static/foodstim60/cherry tomato.jpg', 'key': 'i', 'origWidth': 410, 'origHeight': 410, 'width': 410, 'height': 410, 'widthPercent': 0.45, 'rescaleHeight': False, 'trialN': 76, 'loaded': True, 'loadedTime': 4470.299999999814, 'positionName': 'RIGHT', 'positionCoords': [832, 245], 'bid': 0.16}]",134587.7999999998,1669832875675,veggieswithdip,cherry tomato,0.15,0.16,0.010000000000000009,cherry tomato,810.4000000003725,811,811.1000000005588,True,i,135914.5,1326.7000000001863,1669832877001,1326,HRV,HRV_0035,2022-11-30 18:30:54
77,"[{'imgObject': {}, 'id': 'corn cob', 'src': '/static/foodstim60/corn cob.jpg', 'key': 'u', 'origWidth': 411, 'origHeight': 411, 'width': 411, 'height': 411, 'widthPercent': 0.45, 'rescaleHeight': False, 'trialN': 77, 'loaded': True, 'loadedTime': 5263.9000000003725, 'positionName': 'LEFT', 'positionCoords': [357, 244.5], 'bid': 0.92}, {'imgObject': {}, 'id': 'bagel and cc', 'src': '/static/foodstim60/bagel and cc.jpg', 'key': 'i', 'origWidth': 410, 'origHeight': 410, 'width': 410, 'height': 410, 'widthPercent': 0.45, 'rescaleHeight': False, 'trialN': 77, 'loaded': True, 'loadedTime': 4308.100000000559, 'positionName': 'RIGHT', 'positionCoords': [832, 245], 'bid': 7.7}]",135915.2000000002,1669832877002,corn cob,bagel and cc,0.92,7.7,6.78,bagel and cc,967.2999999998137,969,968.5,True,i,137395.5,1480.2999999998137,1669832878482,1480,HRV,HRV_0035,2022-11-30 18:30:54
78,"[{'imgObject': {}, 'id': 'steak', 'src': '/static/foodstim60/steak.jpg', 'key': 'u', 'origWidth': 410, 'origHeight': 410, 'width': 410, 'height': 410, 'widthPercent': 0.45, 'rescaleHeight': False, 'trialN': 78, 'loaded': True, 'loadedTime': 4919.5, 'positionName': 'LEFT', 'positionCoords': [358, 245], 'bid': 0.48}, {'imgObject': {}, 'id': 'froot loops w milk', 'src': '/static/foodstim60/froot loops w milk.jpg', 'key': 'i', 'origWidth': 410, 'origHeight': 410, 'width': 410, 'height': 410, 'widthPercent': 0.45, 'rescaleHeight': False, 'trialN': 78, 'loaded': True, 'loadedTime': 4845.9000000003725, 'positionName': 'RIGHT', 'positionCoords': [832, 245], 'bid': 0.73}]",137395.90000000037,1669832878483,steak,froot loops w milk,0.48,0.73,0.25,steak,1407.3999999994412,1409,1409.2999999998137,True,u,139315.7999999998,1919.8999999994412,1669832880403,1920,HRV,HRV_0035,2022-11-30 18:30:54
79,"[{'imgObject': {}, 'id': 'eggs', 'src': '/static/foodstim60/eggs.jpg', 'key': 'u', 'origWidth': 409, 'origHeight': 409, 'width': 409, 'height': 409, 'widthPercent': 0.45, 'rescaleHeight': False, 'trialN': 79, 'loaded': True, 'loadedTime': 4404.200000000186, 'positionName': 'LEFT', 'positionCoords': [359, 245.5], 'bid': 6.41}, {'imgObject': {}, 'id': 'pear', 'src': '/static/foodstim60/pear.jpg', 'key': 'i', 'origWidth': 411, 'origHeight': 410, 'width': 411, 'height': 410, 'widthPercent': 0.45, 'rescaleHeight': False, 'trialN': 79, 'loaded': True, 'loadedTime': 5214.600000000559, 'positionName': 'RIGHT', 'positionCoords': [832, 245], 'bid': 0.15}]",139316.7999999998,1669832880404,eggs,pear,6.41,0.15,-6.26,eggs,1121.800000000745,1123,1123.300000000745,True,u,140954.5,1637.7000000001863,1669832882041,1637,HRV,HRV_0035,2022-11-30 18:30:54
80,"[{'imgObject': {}, 'id': 'raspberries', 'src': '/static/foodstim60/raspberries.jpg', 'key': 'u', 'origWidth': 411, 'origHeight': 411, 'width': 411, 'height': 411, 'widthPercent': 0.45, 'rescaleHeight': False, 'trialN': 80, 'loaded': True, 'loadedTime': 4809.799999999814, 'positionName': 'LEFT', 'positionCoords': [357, 244.5], 'bid': 8.94}, {'imgObject': {}, 'id': 'cheerios', 'src': '/static/foodstim60/cheerios.jpg', 'key': 'i', 'origWidth': 409, 'origHeight': 410, 'width': 409, 'height': 410, 'widthPercent': 0.45, 'rescaleHeight': False, 'trialN': 80, 'loaded': True, 'loadedTime': 5072.200000000186, 'positionName': 'RIGHT', 'positionCoords': [832, 245], 'bid': 7.36}]",140955.0,1669832882042,raspberries,cheerios,8.94,7.36,-1.5799999999999992,raspberries,1109.5,1112,1111.7999999998137,True,u,142580.60000000056,1625.6000000005588,1669832883668,1626,HRV,HRV_0035,2022-11-30 18:30:54
81,"[{'imgObject': {}, 'id': 'granola w milk', 'src': '/static/foodstim60/granola w milk.jpg', 'key': 'u', 'origWidth': 410, 'origHeight': 410, 'width': 410, 'height': 410, 'widthPercent': 0.45, 'rescaleHeight': False, 'trialN': 81, 'loaded': True, 'loadedTime': 4496.700000000186, 'positionName': 'LEFT', 'positionCoords': [358, 245], 'bid': 6.8500000000000005}, {'imgObject': {}, 'id': 'orange slices', 'src': '/static/foodstim60/orange slices.jpg', 'key': 'i', 'origWidth': 409, 'origHeight': 410, 'width': 409, 'height': 410, 'widthPercent': 0.45, 'rescaleHeight': False, 'trialN': 81, 'loaded': True, 'loadedTime': 5177.799999999814, 'positionName': 'RIGHT', 'positionCoords': [832, 245], 'bid': 8.72}]",142580.90000000037,1669832883668,granola w milk,orange slices,6.8500000000000005,8.72,1.87,orange slices,2627.899999999441,2629,2628.5999999996275,True,i,145721.90000000037,3141.0,1669832886809,3141,HRV,HRV_0035,2022-11-30 18:30:54
82,"[{'imgObject': {}, 'id': 'avocado', 'src': '/static/foodstim60/avocado.jpg', 'key': 'u', 'origWidth': 409, 'origHeight': 409, 'width': 409, 'height': 409, 'widthPercent': 0.45, 'rescaleHeight': False, 'trialN': 82, 'loaded': True, 'loadedTime': 4385.700000000186, 'positionName': 'LEFT', 'positionCoords': [359, 245.5], 'bid': 0.26}, {'imgObject': {}, 'id': 'bagel plain', 'src': '/static/foodstim60/bagel plain.jpg', 'key': 'i', 'origWidth': 410, 'origHeight': 410, 'width': 410, 'height': 410, 'widthPercent': 0.45, 'rescaleHeight': False, 'trialN': 82, 'loaded': True, 'loadedTime': 4121.100000000559, 'positionName': 'RIGHT', 'positionCoords': [832, 245], 'bid': 5.03}]",145722.5,1669832886810,avocado,bagel plain,0.26,5.03,4.7700000000000005,bagel plain,961.1000000005588,962,962.4000000003725,True,i,147188.5,1466.0,1669832888275,1465,HRV,HRV_0035,2022-11-30 18:30:54
83,"[{'imgObject': {}, 'id': 'avocado', 'src': '/static/foodstim60/avocado.jpg', 'key': 'u', 'origWidth': 409, 'origHeight': 409, 'width': 409, 'height': 409, 'widthPercent': 0.45, 'rescaleHeight': False, 'trialN': 83, 'loaded': True, 'loadedTime': 4379.9000000003725, 'positionName': 'LEFT', 'positionCoords': [359, 245.5], 'bid': 0.26}, {'imgObject': {}, 'id': 'olives', 'src': '/static/foodstim60/olives.jpg', 'key': 'i', 'origWidth': 410, 'origHeight': 410, 'width': 410, 'height': 410, 'widthPercent': 0.45, 'rescaleHeight': False, 'trialN': 83, 'loaded': True, 'loadedTime': 5258, 'positionName': 'RIGHT', 'positionCoords': [832, 245], 'bid': 0.33}]",147188.7000000002,1669832888276,avocado,olives,0.26,0.33,0.07,avocado,1113.4000000003725,1114,1114.7000000001863,True,u,148820.7999999998,1632.0999999996275,1669832889908,1632,HRV,HRV_0035,2022-11-30 18:30:54
84,"[{'imgObject': {}, 'id': 'salad w chicken', 'src': '/static/foodstim60/salad w chicken.jpg', 'key': 'u', 'origWidth': 411, 'origHeight': 411, 'width': 411, 'height': 411, 'widthPercent': 0.45, 'rescaleHeight': False, 'trialN': 84, 'loaded': True, 'loadedTime': 5306.600000000559, 'positionName': 'LEFT', 'positionCoords': [357, 244.5], 'bid': 0.48}, {'imgObject': {}, 'id': 'chicken nuggets2', 'src': '/static/foodstim60/chicken nuggets2.jpg', 'key': 'i', 'origWidth': 410, 'origHeight': 409, 'width': 410, 'height': 409, 'widthPercent': 0.45, 'rescaleHeight': False, 'trialN': 84, 'loaded': True, 'loadedTime': 4421.700000000186, 'positionName': 'RIGHT', 'positionCoords': [832, 245.5], 'bid': 5.12}]",148821.0,1669832889908,salad w chicken,chicken nuggets2,0.48,5.12,4.640000000000001,chicken nuggets2,772.2000000001863,773,773.0,True,i,150103.60000000056,1282.6000000005588,1669832891191,1283,HRV,HRV_0035,2022-11-30 18:30:54
85,"[{'imgObject': {}, 'id': 'salmon', 'src': '/static/foodstim60/salmon.jpg', 'key': 'u', 'origWidth': 410, 'origHeight': 409, 'width': 410, 'height': 409, 'widthPercent': 0.45, 'rescaleHeight': False, 'trialN': 85, 'loaded': True, 'loadedTime': 5207.799999999814, 'positionName': 'LEFT', 'positionCoords': [358, 245.5], 'bid': 5}, {'imgObject': {}, 'id': 'grilled chicken strips', 'src': '/static/foodstim60/grilled chicken strips.jpg', 'key': 'i', 'origWidth': 410, 'origHeight': 411, 'width': 410, 'height': 411, 'widthPercent': 0.45, 'rescaleHeight': False, 'trialN': 85, 'loaded': True, 'loadedTime': 5260.9000000003725, 'positionName': 'RIGHT', 'positionCoords': [832, 244.5], 'bid': 5.05}]",150104.10000000056,1669832891191,salmon,grilled chicken strips,5.0,5.05,0.04999999999999982,grilled chicken strips,1723.2999999998137,1725,1724.699999999255,True,i,152338.0,2233.899999999441,1669832893425,2234,HRV,HRV_0035,2022-11-30 18:30:54
86,"[{'imgObject': {}, 'id': 'fruitsalad', 'src': '/static/foodstim60/fruitsalad.jpg', 'key': 'u', 'origWidth': 410, 'origHeight': 410, 'width': 410, 'height': 410, 'widthPercent': 0.45, 'rescaleHeight': False, 'trialN': 86, 'loaded': True, 'loadedTime': 5241.9000000003725, 'positionName': 'LEFT', 'positionCoords': [358, 245], 'bid': 7.5}, {'imgObject': {}, 'id': 'raisin bran w milk', 'src': '/static/foodstim60/raisin bran w milk.jpg', 'key': 'i', 'origWidth': 411, 'origHeight': 411, 'width': 411, 'height': 411, 'widthPercent': 0.45, 'rescaleHeight': False, 'trialN': 86, 'loaded': True, 'loadedTime': 4239.4000000003725, 'positionName': 'RIGHT', 'positionCoords': [832, 244.5], 'bid': 6.03}]",152338.2999999998,1669832893425,fruitsalad,raisin bran w milk,7.5,6.03,-1.4699999999999998,fruitsalad,1003.7000000001863,1005,1005.0,True,u,153857.5,1519.2000000001863,1669832894945,1520,HRV,HRV_0035,2022-11-30 18:30:54
87,"[{'imgObject': {}, 'id': 'shreddedwheatwithmilk', 'src': '/static/foodstim60/shreddedwheatwithmilk.jpg', 'key': 'u', 'origWidth': 410, 'origHeight': 410, 'width': 410, 'height': 410, 'widthPercent': 0.45, 'rescaleHeight': False, 'trialN': 87, 'loaded': True, 'loadedTime': 4657.5, 'positionName': 'LEFT', 'positionCoords': [358, 245], 'bid': 9.15}, {'imgObject': {}, 'id': 'luckycharms', 'src': '/static/foodstim60/luckycharms.jpg', 'key': 'i', 'origWidth': 410, 'origHeight': 409, 'width': 410, 'height': 409, 'widthPercent': 0.45, 'rescaleHeight': False, 'trialN': 87, 'loaded': True, 'loadedTime': 5176.9000000003725, 'positionName': 'RIGHT', 'positionCoords': [832, 245.5], 'bid': 9.15}]",153858.5,1669832894946,shreddedwheatwithmilk,luckycharms,9.15,9.15,0.0,shreddedwheatwithmilk,1181.7000000001863,1183,1183.0,True,u,155559.0,1700.5,1669832896646,1700,HRV,HRV_0035,2022-11-30 18:30:54
88,"[{'imgObject': {}, 'id': 'yogurt no spoon', 'src': '/static/foodstim60/yogurt no spoon.jpg', 'key': 'u', 'origWidth': 411, 'origHeight': 410, 'width': 411, 'height': 410, 'widthPercent': 0.45, 'rescaleHeight': False, 'trialN': 88, 'loaded': True, 'loadedTime': 4716, 'positionName': 'LEFT', 'positionCoords': [357, 245], 'bid': 6.87}, {'imgObject': {}, 'id': 'turkeysandwich', 'src': '/static/foodstim60/turkeysandwich.jpg', 'key': 'i', 'origWidth': 409, 'origHeight': 409, 'width': 409, 'height': 409, 'widthPercent': 0.45, 'rescaleHeight': False, 'trialN': 88, 'loaded': True, 'loadedTime': 5096, 'positionName': 'RIGHT', 'positionCoords': [832, 245.5], 'bid': 8.73}]",155559.2999999998,1669832896646,yogurt no spoon,turkeysandwich,6.87,8.73,1.8600000000000003,yogurt no spoon,941.1000000005588,943,942.3000000007451,True,u,157013.90000000037,1454.6000000005588,1669832898101,1455,HRV,HRV_0035,2022-11-30 18:30:54
89,"[{'imgObject': {}, 'id': 'fried eggs', 'src': '/static/foodstim60/fried eggs.jpg', 'key': 'u', 'origWidth': 410, 'origHeight': 410, 'width': 410, 'height': 410, 'widthPercent': 0.45, 'rescaleHeight': False, 'trialN': 89, 'loaded': True, 'loadedTime': 4902.100000000559, 'positionName': 'LEFT', 'positionCoords': [358, 245], 'bid': 7.62}, {'imgObject': {}, 'id': 'luckycharms', 'src': '/static/foodstim60/luckycharms.jpg', 'key': 'i', 'origWidth': 410, 'origHeight': 409, 'width': 410, 'height': 409, 'widthPercent': 0.45, 'rescaleHeight': False, 'trialN': 89, 'loaded': True, 'loadedTime': 5177.200000000186, 'positionName': 'RIGHT', 'positionCoords': [832, 245.5], 'bid': 9.15}]",157014.90000000037,1669832898102,fried eggs,luckycharms,7.62,9.15,1.5300000000000002,fried eggs,775.7999999998137,777,777.3999999994412,True,u,158305.90000000037,1291.0,1669832899393,1291,HRV,HRV_0035,2022-11-30 18:30:54
90,"[{'imgObject': {}, 'id': 'seaweed', 'src': '/static/foodstim60/seaweed.jpg', 'key': 'u', 'origWidth': 410, 'origHeight': 410, 'width': 410, 'height': 410, 'widthPercent': 0.45, 'rescaleHeight': False, 'trialN': 90, 'loaded': True, 'loadedTime': 5065.600000000559, 'positionName': 'LEFT', 'positionCoords': [358, 245], 'bid': 0.25}, {'imgObject': {}, 'id': 'cherries', 'src': '/static/foodstim60/cherries.jpg', 'key': 'i', 'origWidth': 410, 'origHeight': 411, 'width': 410, 'height': 411, 'widthPercent': 0.45, 'rescaleHeight': False, 'trialN': 90, 'loaded': True, 'loadedTime': 4156.799999999814, 'positionName': 'RIGHT', 'positionCoords': [832, 244.5], 'bid': 2.5500000000000003}]",160642.0,1669832901729,seaweed,cherries,0.25,2.5500000000000003,2.3000000000000003,cherries,1337.6000000005588,1339,1338.7000000001863,True,i,162483.0,1841.0,1669832903570,1841,HRV,HRV_0035,2022-11-30 18:30:54
91,"[{'imgObject': {}, 'id': 'rigatoni', 'src': '/static/foodstim60/rigatoni.jpg', 'key': 'u', 'origWidth': 411, 'origHeight': 411, 'width': 411, 'height': 411, 'widthPercent': 0.45, 'rescaleHeight': False, 'trialN': 91, 'loaded': True, 'loadedTime': 5311.100000000559, 'positionName': 'LEFT', 'positionCoords': [357, 244.5], 'bid': 1.17}, {'imgObject': {}, 'id': 'edamame', 'src': '/static/foodstim60/edamame.jpg', 'key': 'i', 'origWidth': 409, 'origHeight': 410, 'width': 409, 'height': 410, 'widthPercent': 0.45, 'rescaleHeight': False, 'trialN': 91, 'loaded': True, 'loadedTime': 4743.799999999814, 'positionName': 'RIGHT', 'positionCoords': [832, 245], 'bid': 0.16}]",162483.2999999998,1669832903570,rigatoni,edamame,1.17,0.16,-1.01,rigatoni,771.7000000001863,773,772.9000000003725,True,u,163776.10000000056,1292.800000000745,1669832904863,1293,HRV,HRV_0035,2022-11-30 18:30:54
92,"[{'imgObject': {}, 'id': 'olives', 'src': '/static/foodstim60/olives.jpg', 'key': 'u', 'origWidth': 410, 'origHeight': 410, 'width': 410, 'height': 410, 'widthPercent': 0.45, 'rescaleHeight': False, 'trialN': 92, 'loaded': True, 'loadedTime': 5258.5, 'positionName': 'LEFT', 'positionCoords': [358, 245], 'bid': 0.33}, {'imgObject': {}, 'id': 'turkey sandwich', 'src': '/static/foodstim60/turkey sandwich.jpg', 'key': 'i', 'origWidth': 409, 'origHeight': 409, 'width': 409, 'height': 409, 'widthPercent': 0.45, 'rescaleHeight': False, 'trialN': 92, 'loaded': True, 'loadedTime': 4230.9000000003725, 'positionName': 'RIGHT', 'positionCoords': [832, 245.5], 'bid': 7.47}]",163776.2999999998,1669832904863,olives,turkey sandwich,0.33,7.47,7.14,turkey sandwich,866.2000000001863,868,867.4000000003725,True,i,165160.0,1383.7000000001863,1669832906247,1384,HRV,HRV_0035,2022-11-30 18:30:54
93,"[{'imgObject': {}, 'id': 'hashbrowns', 'src': '/static/foodstim60/hashbrowns.jpg', 'key': 'u', 'origWidth': 411, 'origHeight': 410, 'width': 411, 'height': 410, 'widthPercent': 0.45, 'rescaleHeight': False, 'trialN': 93, 'loaded': True, 'loadedTime': 5094.9000000003725, 'positionName': 'LEFT', 'positionCoords': [357, 245], 'bid': 5.89}, {'imgObject': {}, 'id': 'mashed potato', 'src': '/static/foodstim60/mashed potato.jpg', 'key': 'i', 'origWidth': 409, 'origHeight': 409, 'width': 409, 'height': 409, 'widthPercent': 0.45, 'rescaleHeight': False, 'trialN': 93, 'loaded': True, 'loadedTime': 4883.9000000003725, 'positionName': 'RIGHT', 'positionCoords': [832, 245.5], 'bid': 5.16}]",165160.5,1669832906248,hashbrowns,mashed potato,5.89,5.16,-0.7299999999999995,mashed potato,877.1000000005588,878,878.1000000005588,True,i,166548.5,1388.0,1669832907636,1388,HRV,HRV_0035,2022-11-30 18:30:54
94,"[{'imgObject': {}, 'id': 'sushi w_condiments', 'src': '/static/foodstim60/sushi w_condiments.jpg', 'key': 'u', 'origWidth': 410, 'origHeight': 410, 'width': 410, 'height': 410, 'widthPercent': 0.45, 'rescaleHeight': False, 'trialN': 94, 'loaded': True, 'loadedTime': 5271.5, 'positionName': 'LEFT', 'positionCoords': [358, 245], 'bid': 7.63}, {'imgObject': {}, 'id': 'salad w chicken', 'src': '/static/foodstim60/salad w chicken.jpg', 'key': 'i', 'origWidth': 411, 'origHeight': 411, 'width': 411, 'height': 411, 'widthPercent': 0.45, 'rescaleHeight': False, 'trialN': 94, 'loaded': True, 'loadedTime': 5307.299999999814, 'positionName': 'RIGHT', 'positionCoords': [832, 244.5], 'bid': 0.48}]",166549.40000000037,1669832907636,sushi w_condiments,salad w chicken,7.63,0.48,-7.15,sushi w_condiments,924.2999999998137,926,925.7999999998137,True,u,167981.0,1431.5999999996275,1669832909068,1432,HRV,HRV_0035,2022-11-30 18:30:54
95,"[{'imgObject': {}, 'id': 'mango', 'src': '/static/foodstim60/mango.jpg', 'key': 'u', 'origWidth': 411, 'origHeight': 411, 'width': 411, 'height': 411, 'widthPercent': 0.45, 'rescaleHeight': False, 'trialN': 95, 'loaded': True, 'loadedTime': 4830.700000000186, 'positionName': 'LEFT', 'positionCoords': [357, 244.5], 'bid': 9.1}, {'imgObject': {}, 'id': 'strawberries', 'src': '/static/foodstim60/strawberries.jpg', 'key': 'i', 'origWidth': 410, 'origHeight': 410, 'width': 410, 'height': 410, 'widthPercent': 0.45, 'rescaleHeight': False, 'trialN': 95, 'loaded': True, 'loadedTime': 5159.200000000186, 'positionName': 'RIGHT', 'positionCoords': [832, 245], 'bid': 8.85}]",167981.40000000037,1669832909068,mango,strawberries,9.1,8.85,-0.25,mango,852.8999999994412,854,853.3999999994412,True,u,169339.40000000037,1358.0,1669832910426,1358,HRV,HRV_0035,2022-11-30 18:30:54
96,"[{'imgObject': {}, 'id': 'rigatoni and sauce', 'src': '/static/foodstim60/rigatoni and sauce.jpg', 'key': 'u', 'origWidth': 410, 'origHeight': 411, 'width': 410, 'height': 411, 'widthPercent': 0.45, 'rescaleHeight': False, 'trialN': 96, 'loaded': True, 'loadedTime': 4325.200000000186, 'positionName': 'LEFT', 'positionCoords': [358, 244.5], 'bid': 9.52}, {'imgObject': {}, 'id': 'orange slices', 'src': '/static/foodstim60/orange slices.jpg', 'key': 'i', 'origWidth': 409, 'origHeight': 410, 'width': 409, 'height': 410, 'widthPercent': 0.45, 'rescaleHeight': False, 'trialN': 96, 'loaded': True, 'loadedTime': 5180, 'positionName': 'RIGHT', 'positionCoords': [832, 245], 'bid': 8.72}]",169340.0,1669832910427,rigatoni and sauce,orange slices,9.52,8.72,-0.7999999999999989,rigatoni and sauce,738.6000000005588,740,739.9000000003725,True,u,170600.90000000037,1260.9000000003725,1669832911688,1261,HRV,HRV_0035,2022-11-30 18:30:54
97,"[{'imgObject': {}, 'id': 'ice cream sundae 002', 'src': '/static/foodstim60/ice cream sundae 002.jpg', 'key': 'u', 'origWidth': 409, 'origHeight': 409, 'width': 409, 'height': 409, 'widthPercent': 0.45, 'rescaleHeight': False, 'trialN': 97, 'loaded': True, 'loadedTime': 5079.700000000186, 'positionName': 'LEFT', 'positionCoords': [359, 245.5], 'bid': 7.27}, {'imgObject': {}, 'id': 'raisin bran w milk', 'src': '/static/foodstim60/raisin bran w milk.jpg', 'key': 'i', 'origWidth': 411, 'origHeight': 411, 'width': 411, 'height': 411, 'widthPercent': 0.45, 'rescaleHeight': False, 'trialN': 97, 'loaded': True, 'loadedTime': 4253.100000000559, 'positionName': 'RIGHT', 'positionCoords': [832, 244.5], 'bid': 6.03}]",170601.7000000002,1669832911689,ice cream sundae 002,raisin bran w milk,7.27,6.03,-1.2399999999999993,raisin bran w milk,792.5,794,794.2000000001863,True,i,171898.60000000056,1296.9000000003725,1669832912986,1297,HRV,HRV_0035,2022-11-30 18:30:54
98,"[{'imgObject': {}, 'id': 'omelette', 'src': '/static/foodstim60/omelette.jpg', 'key': 'u', 'origWidth': 410, 'origHeight': 409, 'width': 410, 'height': 409, 'widthPercent': 0.45, 'rescaleHeight': False, 'trialN': 98, 'loaded': True, 'loadedTime': 4925.200000000186, 'positionName': 'LEFT', 'positionCoords': [358, 245.5], 'bid': 7.72}, {'imgObject': {}, 'id': 'blueberries', 'src': '/static/foodstim60/blueberries.jpg', 'key': 'i', 'origWidth': 411, 'origHeight': 411, 'width': 411, 'height': 411, 'widthPercent': 0.45, 'rescaleHeight': False, 'trialN': 98, 'loaded': True, 'loadedTime': 5089, 'positionName': 'RIGHT', 'positionCoords': [832, 244.5], 'bid': 9.53}]",171898.90000000037,1669832912986,omelette,blueberries,7.72,9.53,1.8099999999999996,blueberries,619.0,620,620.3999999994412,True,i,173040.2999999998,1141.3999999994412,1669832914127,1141,HRV,HRV_0035,2022-11-30 18:30:54
99,"[{'imgObject': {}, 'id': 'Grapes', 'src': '/static/foodstim60/Grapes.jpg', 'key': 'u', 'origWidth': 411, 'origHeight': 411, 'width': 411, 'height': 411, 'widthPercent': 0.45, 'rescaleHeight': False, 'trialN': 99, 'loaded': True, 'loadedTime': 4581, 'positionName': 'LEFT', 'positionCoords': [357, 244.5], 'bid': 9.22}, {'imgObject': {}, 'id': 'mashed potato', 'src': '/static/foodstim60/mashed potato.jpg', 'key': 'i', 'origWidth': 409, 'origHeight': 409, 'width': 409, 'height': 409, 'widthPercent': 0.45, 'rescaleHeight': False, 'trialN': 99, 'loaded': True, 'loadedTime': 4892.5, 'positionName': 'RIGHT', 'positionCoords': [832, 245.5], 'bid': 5.16}]",173040.90000000037,1669832914128,Grapes,mashed potato,9.22,5.16,-4.0600000000000005,Grapes,623.5999999996275,625,624.7000000001863,True,u,174185.40000000037,1144.5,1669832915272,1144,HRV,HRV_0035,2022-11-30 18:30:54
100,"[{'imgObject': {}, 'id': 'roastedpotatoes', 'src': '/static/foodstim60/roastedpotatoes.jpg', 'key': 'u', 'origWidth': 409, 'origHeight': 410, 'width': 409, 'height': 410, 'widthPercent': 0.45, 'rescaleHeight': False, 'trialN': 100, 'loaded': True, 'loadedTime': 4265.5, 'positionName': 'LEFT', 'positionCoords': [359, 245], 'bid': 6.3100000000000005}, {'imgObject': {}, 'id': 'eggs', 'src': '/static/foodstim60/eggs.jpg', 'key': 'i', 'origWidth': 409, 'origHeight': 409, 'width': 409, 'height': 409, 'widthPercent': 0.45, 'rescaleHeight': False, 'trialN': 100, 'loaded': True, 'loadedTime': 4407.9000000003725, 'positionName': 'RIGHT', 'positionCoords': [832, 245.5], 'bid': 6.41}]",174186.2000000002,1669832915273,roastedpotatoes,eggs,6.3100000000000005,6.41,0.09999999999999964,eggs,1098.0,1100,1099.4000000003725,True,i,175789.10000000056,1602.9000000003725,1669832916876,1603,HRV,HRV_0035,2022-11-30 18:30:54
101,"[{'imgObject': {}, 'id': 'eggsalad', 'src': '/static/foodstim60/eggsalad.jpg', 'key': 'u', 'origWidth': 410, 'origHeight': 409, 'width': 410, 'height': 409, 'widthPercent': 0.45, 'rescaleHeight': False, 'trialN': 101, 'loaded': True, 'loadedTime': 4767.5, 'positionName': 'LEFT', 'positionCoords': [358, 245.5], 'bid': 8.55}, {'imgObject': {}, 'id': 'orange slices', 'src': '/static/foodstim60/orange slices.jpg', 'key': 'i', 'origWidth': 409, 'origHeight': 410, 'width': 409, 'height': 410, 'widthPercent': 0.45, 'rescaleHeight': False, 'trialN': 101, 'loaded': True, 'loadedTime': 5180.4000000003725, 'positionName': 'RIGHT', 'positionCoords': [832, 245], 'bid': 8.72}]",175789.2999999998,1669832916876,eggsalad,orange slices,8.55,8.72,0.16999999999999993,orange slices,898.0,899,898.8000000007451,True,i,177194.5,1405.2000000001863,1669832918282,1406,HRV,HRV_0035,2022-11-30 18:30:54
102,"[{'imgObject': {}, 'id': 'rigatoni and sauce', 'src': '/static/foodstim60/rigatoni and sauce.jpg', 'key': 'u', 'origWidth': 410, 'origHeight': 411, 'width': 410, 'height': 411, 'widthPercent': 0.45, 'rescaleHeight': False, 'trialN': 102, 'loaded': True, 'loadedTime': 4320.200000000186, 'positionName': 'LEFT', 'positionCoords': [358, 244.5], 'bid': 9.52}, {'imgObject': {}, 'id': 'kiwi', 'src': '/static/foodstim60/kiwi.jpg', 'key': 'i', 'origWidth': 410, 'origHeight': 410, 'width': 410, 'height': 410, 'widthPercent': 0.45, 'rescaleHeight': False, 'trialN': 102, 'loaded': True, 'loadedTime': 4543, 'positionName': 'RIGHT', 'positionCoords': [832, 245], 'bid': 9.78}]",177194.7999999998,1669832918282,rigatoni and sauce,kiwi,9.52,9.78,0.2599999999999998,rigatoni and sauce,1416.0,1418,1417.9000000003725,True,u,179114.90000000037,1920.1000000005588,1669832920202,1920,HRV,HRV_0035,2022-11-30 18:30:54
103,"[{'imgObject': {}, 'id': 'Grapes', 'src': '/static/foodstim60/Grapes.jpg', 'key': 'u', 'origWidth': 411, 'origHeight': 411, 'width': 411, 'height': 411, 'widthPercent': 0.45, 'rescaleHeight': False, 'trialN': 103, 'loaded': True, 'loadedTime': 4586.299999999814, 'positionName': 'LEFT', 'positionCoords': [357, 244.5], 'bid': 9.22}, {'imgObject': {}, 'id': 'blueberries', 'src': '/static/foodstim60/blueberries.jpg', 'key': 'i', 'origWidth': 411, 'origHeight': 411, 'width': 411, 'height': 411, 'widthPercent': 0.45, 'rescaleHeight': False, 'trialN': 103, 'loaded': True, 'loadedTime': 5089.200000000186, 'positionName': 'RIGHT', 'positionCoords': [832, 244.5], 'bid': 9.53}]",179115.10000000056,1669832920202,Grapes,blueberries,9.22,9.53,0.3099999999999987,blueberries,602.0,603,602.6999999992549,True,i,180230.90000000037,1115.7999999998137,1669832921318,1116,HRV,HRV_0035,2022-11-30 18:30:54
104,"[{'imgObject': {}, 'id': 'Grapes', 'src': '/static/foodstim60/Grapes.jpg', 'key': 'u', 'origWidth': 411, 'origHeight': 411, 'width': 411, 'height': 411, 'widthPercent': 0.45, 'rescaleHeight': False, 'trialN': 104, 'loaded': True, 'loadedTime': 4590, 'positionName': 'LEFT', 'positionCoords': [357, 244.5], 'bid': 9.22}, {'imgObject': {}, 'id': 'rigatoni and sauce', 'src': '/static/foodstim60/rigatoni and sauce.jpg', 'key': 'i', 'origWidth': 410, 'origHeight': 411, 'width': 410, 'height': 411, 'widthPercent': 0.45, 'rescaleHeight': False, 'trialN': 104, 'loaded': True, 'loadedTime': 4333.200000000186, 'positionName': 'RIGHT', 'positionCoords': [832, 244.5], 'bid': 9.52}]",180231.40000000037,1669832921318,Grapes,rigatoni and sauce,9.22,9.52,0.29999999999999893,rigatoni and sauce,848.5999999996275,850,849.2000000001863,True,i,181590.90000000037,1359.5,1669832922678,1360,HRV,HRV_0035,2022-11-30 18:30:54
105,"[{'imgObject': {}, 'id': 'rigatoni', 'src': '/static/foodstim60/rigatoni.jpg', 'key': 'u', 'origWidth': 411, 'origHeight': 411, 'width': 411, 'height': 411, 'widthPercent': 0.45, 'rescaleHeight': False, 'trialN': 105, 'loaded': True, 'loadedTime': 5310.100000000559, 'positionName': 'LEFT', 'positionCoords': [357, 244.5], 'bid': 1.17}, {'imgObject': {}, 'id': 'omelette', 'src': '/static/foodstim60/omelette.jpg', 'key': 'i', 'origWidth': 410, 'origHeight': 409, 'width': 410, 'height': 409, 'widthPercent': 0.45, 'rescaleHeight': False, 'trialN': 105, 'loaded': True, 'loadedTime': 4928.9000000003725, 'positionName': 'RIGHT', 'positionCoords': [832, 245.5], 'bid': 7.72}]",181591.2999999998,1669832922678,rigatoni,omelette,1.17,7.72,6.55,omelette,1187.9000000003725,1190,1190.0,True,i,183294.10000000056,1702.800000000745,1669832924381,1703,HRV,HRV_0035,2022-11-30 18:30:54
106,"[{'imgObject': {}, 'id': 'blackbeanswithrice', 'src': '/static/foodstim60/blackbeanswithrice.jpg', 'key': 'u', 'origWidth': 410, 'origHeight': 410, 'width': 410, 'height': 410, 'widthPercent': 0.45, 'rescaleHeight': False, 'trialN': 106, 'loaded': True, 'loadedTime': 4986.100000000559, 'positionName': 'LEFT', 'positionCoords': [358, 245], 'bid': 6.1000000000000005}, {'imgObject': {}, 'id': 'cheerios', 'src': '/static/foodstim60/cheerios.jpg', 'key': 'i', 'origWidth': 409, 'origHeight': 410, 'width': 409, 'height': 410, 'widthPercent': 0.45, 'rescaleHeight': False, 'trialN': 106, 'loaded': True, 'loadedTime': 5076.600000000559, 'positionName': 'RIGHT', 'positionCoords': [832, 245], 'bid': 7.36}]",183295.0,1669832924382,blackbeanswithrice,cheerios,6.1000000000000005,7.36,1.2599999999999998,blackbeanswithrice,1325.9000000003725,1328,1328.4000000003725,True,u,185136.10000000056,1841.1000000005588,1669832926223,1841,HRV,HRV_0035,2022-11-30 18:30:54
107,"[{'imgObject': {}, 'id': 'granola w milk', 'src': '/static/foodstim60/granola w milk.jpg', 'key': 'u', 'origWidth': 410, 'origHeight': 410, 'width': 410, 'height': 410, 'widthPercent': 0.45, 'rescaleHeight': False, 'trialN': 107, 'loaded': True, 'loadedTime': 4488.700000000186, 'positionName': 'LEFT', 'positionCoords': [358, 245], 'bid': 6.8500000000000005}, {'imgObject': {}, 'id': 'mashed potato', 'src': '/static/foodstim60/mashed potato.jpg', 'key': 'i', 'origWidth': 409, 'origHeight': 409, 'width': 409, 'height': 409, 'widthPercent': 0.45, 'rescaleHeight': False, 'trialN': 107, 'loaded': True, 'loadedTime': 4888.200000000186, 'positionName': 'RIGHT', 'positionCoords': [832, 245.5], 'bid': 5.16}]",185136.40000000037,1669832926223,granola w milk,mashed potato,6.8500000000000005,5.16,-1.6900000000000004,mashed potato,864.3999999994412,867,866.0999999996275,True,i,186511.7999999998,1375.3999999994412,1669832927599,1376,HRV,HRV_0035,2022-11-30 18:30:54
108,"[{'imgObject': {}, 'id': 'eggsalad', 'src': '/static/foodstim60/eggsalad.jpg', 'key': 'u', 'origWidth': 410, 'origHeight': 409, 'width': 410, 'height': 409, 'widthPercent': 0.45, 'rescaleHeight': False, 'trialN': 108, 'loaded': True, 'loadedTime': 4797, 'positionName': 'LEFT', 'positionCoords': [358, 245.5], 'bid': 8.55}, {'imgObject': {}, 'id': 'shreddedwheatwithmilk', 'src': '/static/foodstim60/shreddedwheatwithmilk.jpg', 'key': 'i', 'origWidth': 410, 'origHeight': 410, 'width': 410, 'height': 410, 'widthPercent': 0.45, 'rescaleHeight': False, 'trialN': 108, 'loaded': True, 'loadedTime': 4646, 'positionName': 'RIGHT', 'positionCoords': [832, 245], 'bid': 9.15}]",186512.10000000056,1669832927599,eggsalad,shreddedwheatwithmilk,8.55,9.15,0.5999999999999996,eggsalad,938.5999999996275,939,939.2999999998137,True,u,187964.7999999998,1452.699999999255,1669832929052,1453,HRV,HRV_0035,2022-11-30 18:30:54
