trialN,stimuli,question,trialStartTime,trialStartTime_UNIX,stimulus1,rt,receivedResponse,rating,trialEndTime,trialDuration,stimulus1Loaded,exp,subjectId,date
0,"[{'imgObject': {}, 'id': 'turkey sandwich', 'src': '/static/foodstim60/turkey sandwich.jpg', 'key': 'NaN', 'origWidth': 409, 'origHeight': 409, 'width': 409, 'height': 409, 'widthPercent': 0.8, 'rescaleHeight': True, 'trialN': 0, 'loaded': True, 'loadedTime': 2995.399999976158, 'positionName': 'CENTER', 'positionCoords': [615, 256.5]}]",Rate how much you want to eat this food from 0 (least) to 10 (most).,3053.899999976158,1669829137086,turkey sandwich,3305.399999976158,True,3.77,6359.299999952316,3305.399999976158,True,HRV,HRV_0036,2022-11-30 17:27:17
1,"[{'imgObject': {}, 'id': 'roastedpotatoes', 'src': '/static/foodstim60/roastedpotatoes.jpg', 'key': 'NaN', 'origWidth': 409, 'origHeight': 410, 'width': 409, 'height': 410, 'widthPercent': 0.8, 'rescaleHeight': True, 'trialN': 1, 'loaded': True, 'loadedTime': 2995.899999976158, 'positionName': 'CENTER', 'positionCoords': [615, 256]}]",Rate how much you want to eat this food from 0 (least) to 10 (most).,6360.5,1669829140392,roastedpotatoes,2657.0999999046326,True,6.55,9017.599999904633,2657.0999999046326,True,HRV,HRV_0036,2022-11-30 17:27:17
2,"[{'imgObject': {}, 'id': 'omelette', 'src': '/static/foodstim60/omelette.jpg', 'key': 'NaN', 'origWidth': 410, 'origHeight': 409, 'width': 410, 'height': 409, 'widthPercent': 0.8, 'rescaleHeight': True, 'trialN': 2, 'loaded': True, 'loadedTime': 2996, 'positionName': 'CENTER', 'positionCoords': [614.5, 256.5]}]",Rate how much you want to eat this food from 0 (least) to 10 (most).,9018.599999904633,1669829143050,omelette,1464.6000000238419,True,8.58,10483.199999928474,1464.6000000238419,True,HRV,HRV_0036,2022-11-30 17:27:17
3,"[{'imgObject': {}, 'id': 'kiwi', 'src': '/static/foodstim60/kiwi.jpg', 'key': 'NaN', 'origWidth': 410, 'origHeight': 410, 'width': 410, 'height': 410, 'widthPercent': 0.8, 'rescaleHeight': True, 'trialN': 3, 'loaded': True, 'loadedTime': 2996.399999976158, 'positionName': 'CENTER', 'positionCoords': [614.5, 256]}]",Rate how much you want to eat this food from 0 (least) to 10 (most).,10484.0,1669829144516,kiwi,1417.6999999284744,True,2.02,11901.699999928474,1417.6999999284744,True,HRV,HRV_0036,2022-11-30 17:27:17
4,"[{'imgObject': {}, 'id': 'fruitsalad', 'src': '/static/foodstim60/fruitsalad.jpg', 'key': 'NaN', 'origWidth': 410, 'origHeight': 410, 'width': 410, 'height': 410, 'widthPercent': 0.8, 'rescaleHeight': True, 'trialN': 4, 'loaded': True, 'loadedTime': 2996.899999976158, 'positionName': 'CENTER', 'positionCoords': [614.5, 256]}]",Rate how much you want to eat this food from 0 (least) to 10 (most).,11903.0,1669829145935,fruitsalad,1254.1999999284744,True,2.68,13157.199999928474,1254.1999999284744,True,HRV,HRV_0036,2022-11-30 17:27:17
5,"[{'imgObject': {}, 'id': 'popsicles', 'src': '/static/foodstim60/popsicles.jpg', 'key': 'NaN', 'origWidth': 410, 'origHeight': 410, 'width': 410, 'height': 410, 'widthPercent': 0.8, 'rescaleHeight': True, 'trialN': 5, 'loaded': True, 'loadedTime': 2997.399999976158, 'positionName': 'CENTER', 'positionCoords': [614.5, 256]}]",Rate how much you want to eat this food from 0 (least) to 10 (most).,13158.399999976158,1669829147190,popsicles,1381.2999999523163,True,0.8300000000000001,14539.699999928474,1381.2999999523163,True,HRV,HRV_0036,2022-11-30 17:27:17
6,"[{'imgObject': {}, 'id': 'apple slices', 'src': '/static/foodstim60/apple slices.jpg', 'key': 'NaN', 'origWidth': 409, 'origHeight': 410, 'width': 409, 'height': 410, 'widthPercent': 0.8, 'rescaleHeight': True, 'trialN': 6, 'loaded': True, 'loadedTime': 2997.7999999523163, 'positionName': 'CENTER', 'positionCoords': [615, 256]}]",Rate how much you want to eat this food from 0 (least) to 10 (most).,14540.699999928474,1669829148573,apple slices,1195.0,True,1.72,15735.699999928474,1195.0,True,HRV,HRV_0036,2022-11-30 17:27:17
7,"[{'imgObject': {}, 'id': 'chickenfingers', 'src': '/static/foodstim60/chickenfingers.jpg', 'key': 'NaN', 'origWidth': 410, 'origHeight': 410, 'width': 410, 'height': 410, 'widthPercent': 0.8, 'rescaleHeight': True, 'trialN': 7, 'loaded': True, 'loadedTime': 2998.1999999284744, 'positionName': 'CENTER', 'positionCoords': [614.5, 256]}]",Rate how much you want to eat this food from 0 (least) to 10 (most).,15736.899999976158,1669829149769,chickenfingers,1298.1999999284744,True,2.98,17035.099999904633,1298.1999999284744,True,HRV,HRV_0036,2022-11-30 17:27:17
8,"[{'imgObject': {}, 'id': 'chicken nuggets2', 'src': '/static/foodstim60/chicken nuggets2.jpg', 'key': 'NaN', 'origWidth': 410, 'origHeight': 409, 'width': 410, 'height': 409, 'widthPercent': 0.8, 'rescaleHeight': True, 'trialN': 8, 'loaded': True, 'loadedTime': 2998.5999999046326, 'positionName': 'CENTER', 'positionCoords': [614.5, 256.5]}]",Rate how much you want to eat this food from 0 (least) to 10 (most).,17036.299999952316,1669829151068,chicken nuggets2,1305.0,True,3.7800000000000002,18341.299999952316,1305.0,True,HRV,HRV_0036,2022-11-30 17:27:17
9,"[{'imgObject': {}, 'id': 'hotdog w must', 'src': '/static/foodstim60/hotdog w must.jpg', 'key': 'NaN', 'origWidth': 409, 'origHeight': 409, 'width': 409, 'height': 409, 'widthPercent': 0.8, 'rescaleHeight': True, 'trialN': 9, 'loaded': True, 'loadedTime': 2999, 'positionName': 'CENTER', 'positionCoords': [615, 256.5]}]",Rate how much you want to eat this food from 0 (least) to 10 (most).,18342.299999952316,1669829152374,hotdog w must,1618.7999999523163,True,4.45,19961.099999904633,1618.7999999523163,True,HRV,HRV_0036,2022-11-30 17:27:17
10,"[{'imgObject': {}, 'id': 'rigatoni and sauce', 'src': '/static/foodstim60/rigatoni and sauce.jpg', 'key': 'NaN', 'origWidth': 410, 'origHeight': 411, 'width': 410, 'height': 411, 'widthPercent': 0.8, 'rescaleHeight': True, 'trialN': 10, 'loaded': True, 'loadedTime': 2999.399999976158, 'positionName': 'CENTER', 'positionCoords': [614.5, 255.5]}]",Rate how much you want to eat this food from 0 (least) to 10 (most).,19962.399999976158,1669829153994,rigatoni and sauce,2859.0,True,3.73,22821.399999976158,2859.0,True,HRV,HRV_0036,2022-11-30 17:27:17
11,"[{'imgObject': {}, 'id': 'corn cob', 'src': '/static/foodstim60/corn cob.jpg', 'key': 'NaN', 'origWidth': 411, 'origHeight': 411, 'width': 411, 'height': 411, 'widthPercent': 0.8, 'rescaleHeight': True, 'trialN': 11, 'loaded': True, 'loadedTime': 2999.6999999284744, 'positionName': 'CENTER', 'positionCoords': [614, 255.5]}]",Rate how much you want to eat this food from 0 (least) to 10 (most).,22822.599999904633,1669829156854,corn cob,1579.1000000238419,True,1.76,24401.699999928474,1579.1000000238419,True,HRV,HRV_0036,2022-11-30 17:27:17
12,"[{'imgObject': {}, 'id': 'shreddedwheatwithmilk', 'src': '/static/foodstim60/shreddedwheatwithmilk.jpg', 'key': 'NaN', 'origWidth': 410, 'origHeight': 410, 'width': 410, 'height': 410, 'widthPercent': 0.8, 'rescaleHeight': True, 'trialN': 12, 'loaded': True, 'loadedTime': 2999.899999976158, 'positionName': 'CENTER', 'positionCoords': [614.5, 256]}]",Rate how much you want to eat this food from 0 (least) to 10 (most).,24402.799999952316,1669829158435,shreddedwheatwithmilk,1310.7999999523163,True,2.22,25713.599999904633,1310.7999999523163,True,HRV,HRV_0036,2022-11-30 17:27:17
13,"[{'imgObject': {}, 'id': 'salmon', 'src': '/static/foodstim60/salmon.jpg', 'key': 'NaN', 'origWidth': 410, 'origHeight': 409, 'width': 410, 'height': 409, 'widthPercent': 0.8, 'rescaleHeight': True, 'trialN': 13, 'loaded': True, 'loadedTime': 3000.1999999284744, 'positionName': 'CENTER', 'positionCoords': [614.5, 256.5]}]",Rate how much you want to eat this food from 0 (least) to 10 (most).,25714.799999952316,1669829159747,salmon,1314.8999999761581,True,1.56,27029.699999928474,1314.8999999761581,True,HRV,HRV_0036,2022-11-30 17:27:17
14,"[{'imgObject': {}, 'id': 'seaweed', 'src': '/static/foodstim60/seaweed.jpg', 'key': 'NaN', 'origWidth': 410, 'origHeight': 410, 'width': 410, 'height': 410, 'widthPercent': 0.8, 'rescaleHeight': True, 'trialN': 14, 'loaded': True, 'loadedTime': 3000.5999999046326, 'positionName': 'CENTER', 'positionCoords': [614.5, 256]}]",Rate how much you want to eat this food from 0 (least) to 10 (most).,27030.799999952316,1669829161063,seaweed,1330.8999999761581,True,1.69,28361.699999928474,1330.8999999761581,True,HRV,HRV_0036,2022-11-30 17:27:17
15,"[{'imgObject': {}, 'id': 'burger', 'src': '/static/foodstim60/burger.jpg', 'key': 'NaN', 'origWidth': 409, 'origHeight': 409, 'width': 409, 'height': 409, 'widthPercent': 0.8, 'rescaleHeight': True, 'trialN': 15, 'loaded': True, 'loadedTime': 3000.899999976158, 'positionName': 'CENTER', 'positionCoords': [615, 256.5]}]",Rate how much you want to eat this food from 0 (least) to 10 (most).,28363.399999976158,1669829162395,burger,1529.7999999523163,True,3.04,29893.199999928474,1529.7999999523163,True,HRV,HRV_0036,2022-11-30 17:27:17
16,"[{'imgObject': {}, 'id': 'granola w milk', 'src': '/static/foodstim60/granola w milk.jpg', 'key': 'NaN', 'origWidth': 410, 'origHeight': 410, 'width': 410, 'height': 410, 'widthPercent': 0.8, 'rescaleHeight': True, 'trialN': 16, 'loaded': True, 'loadedTime': 3001.1999999284744, 'positionName': 'CENTER', 'positionCoords': [614.5, 256]}]",Rate how much you want to eat this food from 0 (least) to 10 (most).,29894.899999976158,1669829163927,granola w milk,1244.1000000238419,True,1.08,31139.0,1244.1000000238419,True,HRV,HRV_0036,2022-11-30 17:27:17
17,"[{'imgObject': {}, 'id': 'mac & cheese', 'src': '/static/foodstim60/mac & cheese.jpg', 'key': 'NaN', 'origWidth': 410, 'origHeight': 410, 'width': 410, 'height': 410, 'widthPercent': 0.8, 'rescaleHeight': True, 'trialN': 17, 'loaded': True, 'loadedTime': 3001.5999999046326, 'positionName': 'CENTER', 'positionCoords': [614.5, 256]}]",Rate how much you want to eat this food from 0 (least) to 10 (most).,31139.899999976158,1669829165172,mac & cheese,1885.3999999761581,True,5.7700000000000005,33025.299999952316,1885.3999999761581,True,HRV,HRV_0036,2022-11-30 17:27:17
18,"[{'imgObject': {}, 'id': 'eggs', 'src': '/static/foodstim60/eggs.jpg', 'key': 'NaN', 'origWidth': 409, 'origHeight': 409, 'width': 409, 'height': 409, 'widthPercent': 0.8, 'rescaleHeight': True, 'trialN': 18, 'loaded': True, 'loadedTime': 3001.7999999523163, 'positionName': 'CENTER', 'positionCoords': [615, 256.5]}]",Rate how much you want to eat this food from 0 (least) to 10 (most).,33026.5,1669829167058,eggs,2624.6999999284744,True,8.89,35651.199999928474,2624.6999999284744,True,HRV,HRV_0036,2022-11-30 17:27:17
19,"[{'imgObject': {}, 'id': 'eggsalad', 'src': '/static/foodstim60/eggsalad.jpg', 'key': 'NaN', 'origWidth': 410, 'origHeight': 409, 'width': 410, 'height': 409, 'widthPercent': 0.8, 'rescaleHeight': True, 'trialN': 19, 'loaded': True, 'loadedTime': 3002.2999999523163, 'positionName': 'CENTER', 'positionCoords': [614.5, 256.5]}]",Rate how much you want to eat this food from 0 (least) to 10 (most).,35652.5,1669829169684,eggsalad,1247.1999999284744,True,6.72,36899.699999928474,1247.1999999284744,True,HRV,HRV_0036,2022-11-30 17:27:17
20,"[{'imgObject': {}, 'id': 'strawberries', 'src': '/static/foodstim60/strawberries.jpg', 'key': 'NaN', 'origWidth': 410, 'origHeight': 410, 'width': 410, 'height': 410, 'widthPercent': 0.8, 'rescaleHeight': True, 'trialN': 20, 'loaded': True, 'loadedTime': 3002.5, 'positionName': 'CENTER', 'positionCoords': [614.5, 256]}]",Rate how much you want to eat this food from 0 (least) to 10 (most).,36900.799999952316,1669829170933,strawberries,2358.600000023842,True,5.95,39259.39999997616,2358.600000023842,True,HRV,HRV_0036,2022-11-30 17:27:17
21,"[{'imgObject': {}, 'id': 'cheerios', 'src': '/static/foodstim60/cheerios.jpg', 'key': 'NaN', 'origWidth': 409, 'origHeight': 410, 'width': 409, 'height': 410, 'widthPercent': 0.8, 'rescaleHeight': True, 'trialN': 21, 'loaded': True, 'loadedTime': 3015.399999976158, 'positionName': 'CENTER', 'positionCoords': [615, 256]}]",Rate how much you want to eat this food from 0 (least) to 10 (most).,39260.59999990463,1669829173292,cheerios,1339.5,True,0.78,40600.09999990463,1339.5,True,HRV,HRV_0036,2022-11-30 17:27:17
22,"[{'imgObject': {}, 'id': 'steak', 'src': '/static/foodstim60/steak.jpg', 'key': 'NaN', 'origWidth': 410, 'origHeight': 410, 'width': 410, 'height': 410, 'widthPercent': 0.8, 'rescaleHeight': True, 'trialN': 22, 'loaded': True, 'loadedTime': 3015.7999999523163, 'positionName': 'CENTER', 'positionCoords': [614.5, 256]}]",Rate how much you want to eat this food from 0 (least) to 10 (most).,40601.5,1669829174633,steak,1776.0,True,8.700000000000001,42377.5,1776.0,True,HRV,HRV_0036,2022-11-30 17:27:17
23,"[{'imgObject': {}, 'id': 'turkeysandwich', 'src': '/static/foodstim60/turkeysandwich.jpg', 'key': 'NaN', 'origWidth': 409, 'origHeight': 409, 'width': 409, 'height': 409, 'widthPercent': 0.8, 'rescaleHeight': True, 'trialN': 23, 'loaded': True, 'loadedTime': 3016.0999999046326, 'positionName': 'CENTER', 'positionCoords': [615, 256.5]}]",Rate how much you want to eat this food from 0 (least) to 10 (most).,42378.799999952316,1669829176411,turkeysandwich,1422.2999999523163,True,1.87,43801.09999990463,1422.2999999523163,True,HRV,HRV_0036,2022-11-30 17:27:17
24,"[{'imgObject': {}, 'id': 'olives', 'src': '/static/foodstim60/olives.jpg', 'key': 'NaN', 'origWidth': 410, 'origHeight': 410, 'width': 410, 'height': 410, 'widthPercent': 0.8, 'rescaleHeight': True, 'trialN': 24, 'loaded': True, 'loadedTime': 3016.0999999046326, 'positionName': 'CENTER', 'positionCoords': [614.5, 256]}]",Rate how much you want to eat this food from 0 (least) to 10 (most).,43802.699999928474,1669829177834,olives,1300.7000000476837,True,7.1000000000000005,45103.39999997616,1300.7000000476837,True,HRV,HRV_0036,2022-11-30 17:27:17
25,"[{'imgObject': {}, 'id': 'edamame', 'src': '/static/foodstim60/edamame.jpg', 'key': 'NaN', 'origWidth': 409, 'origHeight': 410, 'width': 409, 'height': 410, 'widthPercent': 0.8, 'rescaleHeight': True, 'trialN': 25, 'loaded': True, 'loadedTime': 3030.7999999523163, 'positionName': 'CENTER', 'positionCoords': [615, 256]}]",Rate how much you want to eat this food from 0 (least) to 10 (most).,45104.5,1669829179136,edamame,1975.0999999046326,True,1.6600000000000001,47079.59999990463,1975.0999999046326,True,HRV,HRV_0036,2022-11-30 17:27:17
26,"[{'imgObject': {}, 'id': 'fried eggs', 'src': '/static/foodstim60/fried eggs.jpg', 'key': 'NaN', 'origWidth': 410, 'origHeight': 410, 'width': 410, 'height': 410, 'widthPercent': 0.8, 'rescaleHeight': True, 'trialN': 26, 'loaded': True, 'loadedTime': 3031.399999976158, 'positionName': 'CENTER', 'positionCoords': [614.5, 256]}]",Rate how much you want to eat this food from 0 (least) to 10 (most).,47080.799999952316,1669829181113,fried eggs,1654.3999999761581,True,8.58,48735.199999928474,1654.3999999761581,True,HRV,HRV_0036,2022-11-30 17:27:17
27,"[{'imgObject': {}, 'id': 'ice cream sundae 002', 'src': '/static/foodstim60/ice cream sundae 002.jpg', 'key': 'NaN', 'origWidth': 409, 'origHeight': 409, 'width': 409, 'height': 409, 'widthPercent': 0.8, 'rescaleHeight': True, 'trialN': 27, 'loaded': True, 'loadedTime': 3041.2999999523163, 'positionName': 'CENTER', 'positionCoords': [615, 256.5]}]",Rate how much you want to eat this food from 0 (least) to 10 (most).,48736.299999952316,1669829182768,ice cream sundae 002,1351.3999999761581,True,1.16,50087.699999928474,1351.3999999761581,True,HRV,HRV_0036,2022-11-30 17:27:17
28,"[{'imgObject': {}, 'id': 'cherries', 'src': '/static/foodstim60/cherries.jpg', 'key': 'NaN', 'origWidth': 410, 'origHeight': 411, 'width': 410, 'height': 411, 'widthPercent': 0.8, 'rescaleHeight': True, 'trialN': 28, 'loaded': True, 'loadedTime': 3042, 'positionName': 'CENTER', 'positionCoords': [614.5, 255.5]}]",Rate how much you want to eat this food from 0 (least) to 10 (most).,50088.799999952316,1669829184121,cherries,1476.5,True,5.92,51565.299999952316,1476.5,True,HRV,HRV_0036,2022-11-30 17:27:17
29,"[{'imgObject': {}, 'id': 'rigatoni', 'src': '/static/foodstim60/rigatoni.jpg', 'key': 'NaN', 'origWidth': 411, 'origHeight': 411, 'width': 411, 'height': 411, 'widthPercent': 0.8, 'rescaleHeight': True, 'trialN': 29, 'loaded': True, 'loadedTime': 3042.899999976158, 'positionName': 'CENTER', 'positionCoords': [614, 255.5]}]",Rate how much you want to eat this food from 0 (least) to 10 (most).,51566.299999952316,1669829185598,rigatoni,1683.3999999761581,True,4.12,53249.699999928474,1683.3999999761581,True,HRV,HRV_0036,2022-11-30 17:27:17
30,"[{'imgObject': {}, 'id': 'yogurt no spoon', 'src': '/static/foodstim60/yogurt no spoon.jpg', 'key': 'NaN', 'origWidth': 411, 'origHeight': 410, 'width': 411, 'height': 410, 'widthPercent': 0.8, 'rescaleHeight': True, 'trialN': 30, 'loaded': True, 'loadedTime': 3043.2999999523163, 'positionName': 'CENTER', 'positionCoords': [614, 256]}]",Rate how much you want to eat this food from 0 (least) to 10 (most).,53250.799999952316,1669829187282,yogurt no spoon,2046.2000000476837,True,5.83,55297.0,2046.2000000476837,True,HRV,HRV_0036,2022-11-30 17:27:17
31,"[{'imgObject': {}, 'id': 'pear', 'src': '/static/foodstim60/pear.jpg', 'key': 'NaN', 'origWidth': 411, 'origHeight': 410, 'width': 411, 'height': 410, 'widthPercent': 0.8, 'rescaleHeight': True, 'trialN': 31, 'loaded': True, 'loadedTime': 3043.399999976158, 'positionName': 'CENTER', 'positionCoords': [614, 256]}]",Rate how much you want to eat this food from 0 (least) to 10 (most).,55297.799999952316,1669829189329,pear,1419.2999999523163,True,1.52,56717.09999990463,1419.2999999523163,True,HRV,HRV_0036,2022-11-30 17:27:17
32,"[{'imgObject': {}, 'id': 'mashed potato', 'src': '/static/foodstim60/mashed potato.jpg', 'key': 'NaN', 'origWidth': 409, 'origHeight': 409, 'width': 409, 'height': 409, 'widthPercent': 0.8, 'rescaleHeight': True, 'trialN': 32, 'loaded': True, 'loadedTime': 3043.5, 'positionName': 'CENTER', 'positionCoords': [615, 256.5]}]",Rate how much you want to eat this food from 0 (least) to 10 (most).,56718.299999952316,1669829190750,mashed potato,1923.1000000238419,True,6.75,58641.39999997616,1923.1000000238419,True,HRV,HRV_0036,2022-11-30 17:27:17
33,"[{'imgObject': {}, 'id': 'Grapes', 'src': '/static/foodstim60/Grapes.jpg', 'key': 'NaN', 'origWidth': 411, 'origHeight': 411, 'width': 411, 'height': 411, 'widthPercent': 0.8, 'rescaleHeight': True, 'trialN': 33, 'loaded': True, 'loadedTime': 3043.5999999046326, 'positionName': 'CENTER', 'positionCoords': [614, 255.5]}]",Rate how much you want to eat this food from 0 (least) to 10 (most).,58642.5,1669829192674,Grapes,1563.2999999523163,True,6.29,60205.799999952316,1563.2999999523163,True,HRV,HRV_0036,2022-11-30 17:27:17
34,"[{'imgObject': {}, 'id': 'hashbrowns', 'src': '/static/foodstim60/hashbrowns.jpg', 'key': 'NaN', 'origWidth': 411, 'origHeight': 410, 'width': 411, 'height': 410, 'widthPercent': 0.8, 'rescaleHeight': True, 'trialN': 34, 'loaded': True, 'loadedTime': 3043.6999999284744, 'positionName': 'CENTER', 'positionCoords': [614, 256]}]",Rate how much you want to eat this food from 0 (least) to 10 (most).,60206.799999952316,1669829194238,hashbrowns,1562.2999999523163,True,1.19,61769.09999990463,1562.2999999523163,True,HRV,HRV_0036,2022-11-30 17:27:17
35,"[{'imgObject': {}, 'id': 'lox', 'src': '/static/foodstim60/lox.jpg', 'key': 'NaN', 'origWidth': 410, 'origHeight': 411, 'width': 410, 'height': 411, 'widthPercent': 0.8, 'rescaleHeight': True, 'trialN': 35, 'loaded': True, 'loadedTime': 3043.7999999523163, 'positionName': 'CENTER', 'positionCoords': [614.5, 255.5]}]",Rate how much you want to eat this food from 0 (least) to 10 (most).,61771.09999990463,1669829195802,lox,1228.5,True,1.72,62999.59999990463,1228.5,True,HRV,HRV_0036,2022-11-30 17:27:17
36,"[{'imgObject': {}, 'id': 'raisin bran w milk', 'src': '/static/foodstim60/raisin bran w milk.jpg', 'key': 'NaN', 'origWidth': 411, 'origHeight': 411, 'width': 411, 'height': 411, 'widthPercent': 0.8, 'rescaleHeight': True, 'trialN': 36, 'loaded': True, 'loadedTime': 3044, 'positionName': 'CENTER', 'positionCoords': [614, 255.5]}]",Rate how much you want to eat this food from 0 (least) to 10 (most).,63000.699999928474,1669829197032,raisin bran w milk,1372.6000000238419,True,1.16,64373.299999952316,1372.6000000238419,True,HRV,HRV_0036,2022-11-30 17:27:17
37,"[{'imgObject': {}, 'id': 'raspberries', 'src': '/static/foodstim60/raspberries.jpg', 'key': 'NaN', 'origWidth': 411, 'origHeight': 411, 'width': 411, 'height': 411, 'widthPercent': 0.8, 'rescaleHeight': True, 'trialN': 37, 'loaded': True, 'loadedTime': 3044.0999999046326, 'positionName': 'CENTER', 'positionCoords': [614, 255.5]}]",Rate how much you want to eat this food from 0 (least) to 10 (most).,64374.5,1669829198406,raspberries,1457.5,True,4.09,65832.0,1457.5,True,HRV,HRV_0036,2022-11-30 17:27:17
38,"[{'imgObject': {}, 'id': 'mango', 'src': '/static/foodstim60/mango.jpg', 'key': 'NaN', 'origWidth': 411, 'origHeight': 411, 'width': 411, 'height': 411, 'widthPercent': 0.8, 'rescaleHeight': True, 'trialN': 38, 'loaded': True, 'loadedTime': 3044.1999999284744, 'positionName': 'CENTER', 'positionCoords': [614, 255.5]}]",Rate how much you want to eat this food from 0 (least) to 10 (most).,65833.19999992847,1669829199865,mango,1572.2000000476837,True,1.8900000000000001,67405.39999997616,1572.2000000476837,True,HRV,HRV_0036,2022-11-30 17:27:17
39,"[{'imgObject': {}, 'id': 'sushi w_condiments', 'src': '/static/foodstim60/sushi w_condiments.jpg', 'key': 'NaN', 'origWidth': 410, 'origHeight': 410, 'width': 410, 'height': 410, 'widthPercent': 0.8, 'rescaleHeight': True, 'trialN': 39, 'loaded': True, 'loadedTime': 3044.399999976158, 'positionName': 'CENTER', 'positionCoords': [614.5, 256]}]",Rate how much you want to eat this food from 0 (least) to 10 (most).,67406.69999992847,1669829201438,sushi w_condiments,2023.1000000238419,True,0.17,69429.79999995232,2023.1000000238419,True,HRV,HRV_0036,2022-11-30 17:27:17
40,"[{'imgObject': {}, 'id': 'Tribe humus pita', 'src': '/static/foodstim60/Tribe humus pita.jpg', 'key': 'NaN', 'origWidth': 411, 'origHeight': 411, 'width': 411, 'height': 411, 'widthPercent': 0.8, 'rescaleHeight': True, 'trialN': 40, 'loaded': True, 'loadedTime': 3044.5, 'positionName': 'CENTER', 'positionCoords': [614, 255.5]}]",Rate how much you want to eat this food from 0 (least) to 10 (most).,69431.0,1669829203462,Tribe humus pita,1886.2999999523163,True,3.96,71317.29999995232,1886.2999999523163,True,HRV,HRV_0036,2022-11-30 17:27:17
41,"[{'imgObject': {}, 'id': 'banana', 'src': '/static/foodstim60/banana.jpg', 'key': 'NaN', 'origWidth': 410, 'origHeight': 410, 'width': 410, 'height': 410, 'widthPercent': 0.8, 'rescaleHeight': True, 'trialN': 41, 'loaded': True, 'loadedTime': 3044.5999999046326, 'positionName': 'CENTER', 'positionCoords': [614.5, 256]}]",Rate how much you want to eat this food from 0 (least) to 10 (most).,71318.29999995232,1669829205350,banana,1458.7000000476837,True,1.76,72777.0,1458.7000000476837,True,HRV,HRV_0036,2022-11-30 17:27:17
42,"[{'imgObject': {}, 'id': 'cocktailshrimp', 'src': '/static/foodstim60/cocktailshrimp.jpg', 'key': 'NaN', 'origWidth': 410, 'origHeight': 410, 'width': 410, 'height': 410, 'widthPercent': 0.8, 'rescaleHeight': True, 'trialN': 42, 'loaded': True, 'loadedTime': 3044.6999999284744, 'positionName': 'CENTER', 'positionCoords': [614.5, 256]}]",Rate how much you want to eat this food from 0 (least) to 10 (most).,72777.79999995232,1669829206809,cocktailshrimp,1791.3999999761581,True,8.41,74569.19999992847,1791.3999999761581,True,HRV,HRV_0036,2022-11-30 17:27:17
43,"[{'imgObject': {}, 'id': 'froot loops w milk', 'src': '/static/foodstim60/froot loops w milk.jpg', 'key': 'NaN', 'origWidth': 410, 'origHeight': 410, 'width': 410, 'height': 410, 'widthPercent': 0.8, 'rescaleHeight': True, 'trialN': 43, 'loaded': True, 'loadedTime': 3044.7999999523163, 'positionName': 'CENTER', 'positionCoords': [614.5, 256]}]",Rate how much you want to eat this food from 0 (least) to 10 (most).,74570.19999992847,1669829208602,froot loops w milk,1725.2000000476837,True,0.72,76295.39999997616,1725.2000000476837,True,HRV,HRV_0036,2022-11-30 17:27:17
44,"[{'imgObject': {}, 'id': 'luckycharms', 'src': '/static/foodstim60/luckycharms.jpg', 'key': 'NaN', 'origWidth': 410, 'origHeight': 409, 'width': 410, 'height': 409, 'widthPercent': 0.8, 'rescaleHeight': True, 'trialN': 44, 'loaded': True, 'loadedTime': 3044.899999976158, 'positionName': 'CENTER', 'positionCoords': [614.5, 256.5]}]",Rate how much you want to eat this food from 0 (least) to 10 (most).,76297.19999992847,1669829210329,luckycharms,823.8999999761581,True,1.08,77121.09999990463,823.8999999761581,True,HRV,HRV_0036,2022-11-30 17:27:17
45,"[{'imgObject': {}, 'id': 'blackbeanswithrice', 'src': '/static/foodstim60/blackbeanswithrice.jpg', 'key': 'NaN', 'origWidth': 410, 'origHeight': 410, 'width': 410, 'height': 410, 'widthPercent': 0.8, 'rescaleHeight': True, 'trialN': 45, 'loaded': True, 'loadedTime': 3045, 'positionName': 'CENTER', 'positionCoords': [614.5, 256]}]",Rate how much you want to eat this food from 0 (least) to 10 (most).,77122.59999990463,1669829211154,blackbeanswithrice,1442.6000000238419,True,1.61,78565.19999992847,1442.6000000238419,True,HRV,HRV_0036,2022-11-30 17:27:17
46,"[{'imgObject': {}, 'id': 'salad w chicken', 'src': '/static/foodstim60/salad w chicken.jpg', 'key': 'NaN', 'origWidth': 411, 'origHeight': 411, 'width': 411, 'height': 411, 'widthPercent': 0.8, 'rescaleHeight': True, 'trialN': 46, 'loaded': True, 'loadedTime': 3045.1999999284744, 'positionName': 'CENTER', 'positionCoords': [614, 255.5]}]",Rate how much you want to eat this food from 0 (least) to 10 (most).,78566.09999990463,1669829212598,salad w chicken,1917.1000000238419,True,1.69,80483.19999992847,1917.1000000238419,True,HRV,HRV_0036,2022-11-30 17:27:17
47,"[{'imgObject': {}, 'id': 'veggieswithdip', 'src': '/static/foodstim60/veggieswithdip.jpg', 'key': 'NaN', 'origWidth': 409, 'origHeight': 409, 'width': 409, 'height': 409, 'widthPercent': 0.8, 'rescaleHeight': True, 'trialN': 47, 'loaded': True, 'loadedTime': 3045.2999999523163, 'positionName': 'CENTER', 'positionCoords': [615, 256.5]}]",Rate how much you want to eat this food from 0 (least) to 10 (most).,80484.09999990463,1669829214516,veggieswithdip,1992.9000000953674,True,4.1,82477.0,1992.9000000953674,True,HRV,HRV_0036,2022-11-30 17:27:17
48,"[{'imgObject': {}, 'id': 'cherry tomato', 'src': '/static/foodstim60/cherry tomato.jpg', 'key': 'NaN', 'origWidth': 410, 'origHeight': 410, 'width': 410, 'height': 410, 'widthPercent': 0.8, 'rescaleHeight': True, 'trialN': 48, 'loaded': True, 'loadedTime': 3045.399999976158, 'positionName': 'CENTER', 'positionCoords': [614.5, 256]}]",Rate how much you want to eat this food from 0 (least) to 10 (most).,82478.29999995232,1669829216510,cherry tomato,1741.1000000238419,True,5.75,84219.39999997616,1741.1000000238419,True,HRV,HRV_0036,2022-11-30 17:27:17
49,"[{'imgObject': {}, 'id': 'blueberries', 'src': '/static/foodstim60/blueberries.jpg', 'key': 'NaN', 'origWidth': 411, 'origHeight': 411, 'width': 411, 'height': 411, 'widthPercent': 0.8, 'rescaleHeight': True, 'trialN': 49, 'loaded': True, 'loadedTime': 3045.5, 'positionName': 'CENTER', 'positionCoords': [614, 255.5]}]",Rate how much you want to eat this food from 0 (least) to 10 (most).,84220.5,1669829218252,blueberries,1442.5999999046326,True,5.79,85663.09999990463,1442.5999999046326,True,HRV,HRV_0036,2022-11-30 17:27:17
50,"[{'imgObject': {}, 'id': 'orange slices', 'src': '/static/foodstim60/orange slices.jpg', 'key': 'NaN', 'origWidth': 409, 'origHeight': 410, 'width': 409, 'height': 410, 'widthPercent': 0.8, 'rescaleHeight': True, 'trialN': 50, 'loaded': True, 'loadedTime': 3045.6999999284744, 'positionName': 'CENTER', 'positionCoords': [615, 256]}]",Rate how much you want to eat this food from 0 (least) to 10 (most).,85664.19999992847,1669829219696,orange slices,1563.0,True,1.28,87227.19999992847,1563.0,True,HRV,HRV_0036,2022-11-30 17:27:17
51,"[{'imgObject': {}, 'id': 'burrito', 'src': '/static/foodstim60/burrito.jpg', 'key': 'NaN', 'origWidth': 410, 'origHeight': 410, 'width': 410, 'height': 410, 'widthPercent': 0.8, 'rescaleHeight': True, 'trialN': 51, 'loaded': True, 'loadedTime': 3045.7999999523163, 'positionName': 'CENTER', 'positionCoords': [614.5, 256]}]",Rate how much you want to eat this food from 0 (least) to 10 (most).,87228.79999995232,1669829221260,burrito,1154.3999999761581,True,2.72,88383.19999992847,1154.3999999761581,True,HRV,HRV_0036,2022-11-30 17:27:17
52,"[{'imgObject': {}, 'id': 'tacos', 'src': '/static/foodstim60/tacos.jpg', 'key': 'NaN', 'origWidth': 411, 'origHeight': 411, 'width': 411, 'height': 411, 'widthPercent': 0.8, 'rescaleHeight': True, 'trialN': 52, 'loaded': True, 'loadedTime': 3045.7999999523163, 'positionName': 'CENTER', 'positionCoords': [614, 255.5]}]",Rate how much you want to eat this food from 0 (least) to 10 (most).,88384.29999995232,1669829222416,tacos,1267.3999999761581,True,2.96,89651.69999992847,1267.3999999761581,True,HRV,HRV_0036,2022-11-30 17:27:17
53,"[{'imgObject': {}, 'id': 'bagel and cc', 'src': '/static/foodstim60/bagel and cc.jpg', 'key': 'NaN', 'origWidth': 410, 'origHeight': 410, 'width': 410, 'height': 410, 'widthPercent': 0.8, 'rescaleHeight': True, 'trialN': 53, 'loaded': True, 'loadedTime': 3046, 'positionName': 'CENTER', 'positionCoords': [614.5, 256]}]",Rate how much you want to eat this food from 0 (least) to 10 (most).,89653.0,1669829223684,bagel and cc,1858.0999999046326,True,4.62,91511.09999990463,1858.0999999046326,True,HRV,HRV_0036,2022-11-30 17:27:17
54,"[{'imgObject': {}, 'id': 'grilled chicken strips', 'src': '/static/foodstim60/grilled chicken strips.jpg', 'key': 'NaN', 'origWidth': 410, 'origHeight': 411, 'width': 410, 'height': 411, 'widthPercent': 0.8, 'rescaleHeight': True, 'trialN': 54, 'loaded': True, 'loadedTime': 3046.0999999046326, 'positionName': 'CENTER', 'positionCoords': [614.5, 255.5]}]",Rate how much you want to eat this food from 0 (least) to 10 (most).,91512.09999990463,1669829225543,grilled chicken strips,1377.7000000476837,True,1.54,92889.79999995232,1377.7000000476837,True,HRV,HRV_0036,2022-11-30 17:27:17
55,"[{'imgObject': {}, 'id': 'avocado', 'src': '/static/foodstim60/avocado.jpg', 'key': 'NaN', 'origWidth': 409, 'origHeight': 409, 'width': 409, 'height': 409, 'widthPercent': 0.8, 'rescaleHeight': True, 'trialN': 55, 'loaded': True, 'loadedTime': 3046.1999999284744, 'positionName': 'CENTER', 'positionCoords': [615, 256.5]}]",Rate how much you want to eat this food from 0 (least) to 10 (most).,92891.29999995232,1669829226923,avocado,1462.5,True,8.69,94353.79999995232,1462.5,True,HRV,HRV_0036,2022-11-30 17:27:17
56,"[{'imgObject': {}, 'id': 'sweetpotato', 'src': '/static/foodstim60/sweetpotato.jpg', 'key': 'NaN', 'origWidth': 410, 'origHeight': 410, 'width': 410, 'height': 410, 'widthPercent': 0.8, 'rescaleHeight': True, 'trialN': 56, 'loaded': True, 'loadedTime': 3046.2999999523163, 'positionName': 'CENTER', 'positionCoords': [614.5, 256]}]",Rate how much you want to eat this food from 0 (least) to 10 (most).,94355.0,1669829228386,sweetpotato,2252.1999999284744,True,1.57,96607.19999992847,2252.1999999284744,True,HRV,HRV_0036,2022-11-30 17:27:17
57,"[{'imgObject': {}, 'id': 'baked potato', 'src': '/static/foodstim60/baked potato.jpg', 'key': 'NaN', 'origWidth': 409, 'origHeight': 410, 'width': 409, 'height': 410, 'widthPercent': 0.8, 'rescaleHeight': True, 'trialN': 57, 'loaded': True, 'loadedTime': 3046.399999976158, 'positionName': 'CENTER', 'positionCoords': [615, 256]}]",Rate how much you want to eat this food from 0 (least) to 10 (most).,96608.5,1669829230640,baked potato,2663.1999999284744,True,4.9,99271.69999992847,2663.1999999284744,True,HRV,HRV_0036,2022-11-30 17:27:17
58,"[{'imgObject': {}, 'id': 'bagel plain', 'src': '/static/foodstim60/bagel plain.jpg', 'key': 'NaN', 'origWidth': 410, 'origHeight': 410, 'width': 410, 'height': 410, 'widthPercent': 0.8, 'rescaleHeight': True, 'trialN': 58, 'loaded': True, 'loadedTime': 3046.5, 'positionName': 'CENTER', 'positionCoords': [614.5, 256]}]",Rate how much you want to eat this food from 0 (least) to 10 (most).,99272.69999992847,1669829233304,bagel plain,1687.8000000715256,True,4.67,100960.5,1687.8000000715256,True,HRV,HRV_0036,2022-11-30 17:27:17
59,"[{'imgObject': {}, 'id': 'cantaloupe', 'src': '/static/foodstim60/cantaloupe.jpg', 'key': 'NaN', 'origWidth': 409, 'origHeight': 409, 'width': 409, 'height': 409, 'widthPercent': 0.8, 'rescaleHeight': True, 'trialN': 59, 'loaded': True, 'loadedTime': 3046.5999999046326, 'positionName': 'CENTER', 'positionCoords': [615, 256.5]}]",Rate how much you want to eat this food from 0 (least) to 10 (most).,100961.39999997616,1669829234993,cantaloupe,1591.7999999523163,True,1.84,102553.19999992847,1591.7999999523163,True,HRV,HRV_0036,2022-11-30 17:27:17
