success,trial_type,trial_index,time_elapsed,internal_node_id,Block,TrialNumber,TrialTime,trialTimeDiff,FPS_avg,FPS_med,FPS_mode,TrialDur,winResizeTime,rt,block,button_pressed,MotCoh,MotDir,ColCoh,Color,ChoiceKey,Choice,Accuracy,RT,nFrames,FPS,PPD,missTrial,missTrialMsg,onsetDelay,fullScreenExitTime,canvCenter,TrialType,Score,BlockTrial,stimulus,button_labels,exp,subjectId,date
True,fullscreen,0,3938,0.0-0.0,0.0,1.0,,,,,,,,,,,,,,,,,,,,,,,,,,,,,,,,HRV,HRV_0036,2022-11-30 17:59:48
,wl-check-fps,1,8941,0.0-1.0,0.0,2.0,"[4422.5, 4431.6, 4447.4, 4464.3, 4480.5, 4497.4, 4517.3, 4535.8, 4550.8, 4564.3, 4581, 4601.5, 4617.8, 4631.3, 4647.9, 4664.5, 4680.8, 4697.9, 4714.5, 4731.2, 4748.1, 4764.8, 4781.1, 4797.9, 4814.7, 4831.4, 4848, 4864, 4880.8, 4897.7, 4914.6, 4931.3, 4948.2, 4964.9, 4981.3, 4998, 5014.4, 5031.3, 5048.1, 5065.1, 5081.2, 5098.1, 5115.2, 5131.4, 5148.3, 5165.4, 5181.6, 5198.5, 5215.2, 5231.7, 5248.4, 5265.1, 5281.5, 5298.1, 5315.2, 5332, 5348.6, 5365.2, 5381.4, 5398.5, 5415, 5431.5, 5448.3, 5465.1, 5482, 5498.5, 5514.8, 5532, 5548.5, 5565.3, 5581.7, 5598.5, 5615.5, 5632.1, 5648.5, 5665.3, 5682.2, 5698.4, 5715.2, 5731.8, 5748.7, 5765.4, 5782.3, 5798.6, 5815.7, 5832, 5849.1, 5865.6, 5882.4, 5898.6, 5915.3, 5931.7, 5948.6, 5965.4, 5981.6, 5999, 6015.7, 6031.9, 6048.7, 6065.9, 6083.6, 6099, 6115.3, 6132, 6148.4, 6165.1, 6182.4, 6198.9, 6215.5, 6232.2, 6249.1, 6265.5, 6282.2, 6298.8, 6315.7, 6332.3, 6349.2, 6365.9, 6382.6, 6399.2, 6415.7, 6432.4, 6449.3, 6465.8, 6482.4, 6499.4, 6515.5, 6532.5, 6549, 6567, 6582.4, 6599.5, 6616.2, 6632.8, 6649.8, 6666.3, 6682.5, 6699.5, 6716.2, 6733, 6749.9, 6766.5, 6783.6, 6799.7, 6816.3, 6832.9, 6849.6, 6866.2, 6882.9, 6899.5, 6916.2, 6933, 6949.3, 6966.2, 6983.1, 6999.6, 7016.4, 7033.4, 7049.7, 7067, 7083.2, 7100.2, 7116.5, 7133.5, 7149.7, 7166.5, 7182.9, 7200, 7216.8, 7233.8, 7249.8, 7266.4, 7283.2, 7300, 7316.9, 7333.9, 7350.1, 7366.6, 7383.5, 7400.3, 7416.7, 7433.6, 7449.9, 7467.1, 7483.5, 7500, 7516.6, 7533.3, 7550.3, 7566.8, 7583, 7600.3, 7616.8, 7633.3, 7650.1, 7666.7, 7683.3, 7700.3, 7717, 7734, 7750.5, 7767.3, 7783.8, 7800.3, 7817, 7833.9, 7850.4, 7866.8, 7883.6, 7900.5, 7916.9, 7933.6, 7950.6, 7967.3, 7983.9, 8000.3, 8017.2, 8033.9, 8050.7, 8067.9, 8086.9, 8104, 8116.9, 8133.8, 8153.8, 8170.4, 8187, 8201.2, 8217.3, 8237.4, 8254, 8270.6, 8287.3, 8304.6, 8317.5, 8338, 8354.6, 8368, 8384, 8404.6, 8420.8, 8438, 8450.8, 8467, 8487.2, 8504.8, 8520.8, 8538.2, 8554.5, 8571.1, 8587.7, 8604.6, 8620.8, 8637.9, 8650.5, 8671, 8687.6, 8704.3, 8717.6, 8734.2, 8754.8, 8771.6, 8784.5, 8801, 8817.9, 8834.8, 8851.2, 8867.9, 8884.6, 8901.2, 8918, 8934.7, 8951, 8967.9, 8984.4, 9001.2, 9018, 9034.6, 9051, 9067.6, 9084.7, 9101.1, 9118.2, 9134.9, 9151.3, 9167.9, 9184.6, 9201.2, 9218.4, 9234.9, 9251.2, 9268.2, 9284.9, 9301.2, 9318.3, 9335, 9351.5, 9368.4, 9385, 9401.7]","[1.9, 9.1, 15.8, 16.9, 16.2, 16.9, 19.9, 18.5, 15, 13.5, 16.7, 20.5, 16.3, 13.5, 16.6, 16.6, 16.3, 17.1, 16.6, 16.7, 16.9, 16.7, 16.3, 16.8, 16.8, 16.7, 16.6, 16, 16.8, 16.9, 16.9, 16.7, 16.9, 16.7, 16.4, 16.7, 16.4, 16.9, 16.8, 17, 16.1, 16.9, 17.1, 16.2, 16.9, 17.1, 16.2, 16.9, 16.7, 16.5, 16.7, 16.7, 16.4, 16.6, 17.1, 16.8, 16.6, 16.6, 16.2, 17.1, 16.5, 16.5, 16.8, 16.8, 16.9, 16.5, 16.3, 17.2, 16.5, 16.8, 16.4, 16.8, 17, 16.6, 16.4, 16.8, 16.9, 16.2, 16.8, 16.6, 16.9, 16.7, 16.9, 16.3, 17.1, 16.3, 17.1, 16.5, 16.8, 16.2, 16.7, 16.4, 16.9, 16.8, 16.2, 17.4, 16.7, 16.2, 16.8, 17.2, 17.7, 15.4, 16.3, 16.7, 16.4, 16.7, 17.3, 16.5, 16.6, 16.7, 16.9, 16.4, 16.7, 16.6, 16.9, 16.6, 16.9, 16.7, 16.7, 16.6, 16.5, 16.7, 16.9, 16.5, 16.6, 17, 16.1, 17, 16.5, 18, 15.4, 17.1, 16.7, 16.6, 17, 16.5, 16.2, 17, 16.7, 16.8, 16.9, 16.6, 17.1, 16.1, 16.6, 16.6, 16.7, 16.6, 16.7, 16.6, 16.7, 16.8, 16.3, 16.9, 16.9, 16.5, 16.8, 17, 16.3, 17.3, 16.2, 17, 16.3, 17, 16.2, 16.8, 16.4, 17.1, 16.8, 17, 16, 16.6, 16.8, 16.8, 16.9, 17, 16.2, 16.5, 16.9, 16.8, 16.4, 16.9, 16.3, 17.2, 16.4, 16.5, 16.6, 16.7, 17, 16.5, 16.2, 17.3, 16.5, 16.5, 16.8, 16.6, 16.6, 17, 16.7, 17, 16.5, 16.8, 16.5, 16.5, 16.7, 16.9, 16.5, 16.4, 16.8, 16.9, 16.4, 16.7, 17, 16.7, 16.6, 16.4, 16.9, 16.7, 16.8, 17.2, 19, 17.1, 12.9, 16.9, 20, 16.6, 16.6, 14.2, 16.1, 20.1, 16.6, 16.6, 16.7, 17.3, 12.9, 20.5, 16.6, 13.4, 16, 20.6, 16.2, 17.2, 12.8, 16.2, 20.2, 17.6, 16, 17.4, 16.3, 16.6, 16.6, 16.9, 16.2, 17.1, 12.6, 20.5, 16.6, 16.7, 13.3, 16.6, 20.6, 16.8, 12.9, 16.5, 16.9, 16.9, 16.4, 16.7, 16.7, 16.6, 16.8, 16.7, 16.3, 16.9, 16.5, 16.8, 16.8, 16.6, 16.4, 16.6, 17.1, 16.4, 17.1, 16.7, 16.4, 16.6, 16.7, 16.6, 17.2, 16.5, 16.3, 17, 16.7, 16.3, 17.1, 16.7, 16.5, 16.9, 16.6, 16.7]",60.0,60.0,60.0,4998.4,[],,,,,,,,,,,,,,,,,,,,,,,,,HRV,HRV_0036,2022-11-30 17:59:48
,wl-html-keyboard-response,2,27298,0.0-2.0-0.0,0.0,3.0,,,,,,,,16346.899999976158,0.0,0,,,,,,,,,,,,,,,,,,,,,,HRV,HRV_0036,2022-11-30 17:59:48
,wl-rdm,3,34125,0.0-3.0-0.0,0.0,4.0,,,,,,,[],,,,0.0,0.0,87.9,0.0,u,0.0,True,1254.1999999284744,76.0,60.0,40.0,False,,3000.0,[],"[819.5, 461]",ColorTask_Demo,,,,,HRV,HRV_0036,2022-11-30 17:59:48
,wl-rdm,4,39014,0.0-3.0-1.0,0.0,5.0,,,,,,,[],,,,0.0,0.0,87.9,1.0,i,1.0,True,822.0,50.0,60.0,40.0,False,,2000.0,[],"[819.5, 461]",ColorTask_Demo,,,,,HRV,HRV_0036,2022-11-30 17:59:48
,wl-html-keyboard-response,5,46394,0.0-3.0-2.0,0.0,6.0,,,,,,,,5374.100000023842,0.0,1,,,,,,,,,,,,,,,,,,,,,,HRV,HRV_0036,2022-11-30 17:59:48
,wl-html-keyboard-response,6,57770,0.0-4.0-0.0,0.0,7.0,,,,,,,,9366.5,0.0,0,,,,,,,,,,,,,,,,,,,,,,HRV,HRV_0036,2022-11-30 17:59:48
,wl-html-keyboard-response,7,68611,0.0-5.0-0.0,0.0,8.0,,,,,,,,8835.299999952316,0.0,0,,,,,,,,,,,,,,,,,,,,,,HRV,HRV_0036,2022-11-30 17:59:48
,wl-rdm,8,70956,0.0-6.0-0.0,0.0,9.0,,,,,,,[],,,,,,73.6,1.0,i,1.0,True,930.0000001192093,56.0,60.0,40.0,False,,354.05087600515645,[],"[819.5, 461]",ColorTask,1.0,1.0,,,HRV,HRV_0036,2022-11-30 17:59:48
,wl-rdm,9,73107,0.0-6.1-0.1,0.0,10.0,,,,,,,[],,,,,,62.5,0.0,u,0.0,True,762.6999999284744,46.0,60.0,40.0,False,,332.31125007080266,[],"[819.5, 461]",ColorTask,2.0,2.0,,,HRV,HRV_0036,2022-11-30 17:59:48
,wl-rdm,10,75160,0.0-6.2-0.2,0.0,11.0,,,,,,,[],,,,,,50.0,0.0,u,0.0,True,705.6000000238419,43.0,60.0,40.0,False,,272.0941349700049,[],"[819.5, 461]",ColorTask,3.0,3.0,,,HRV,HRV_0036,2022-11-30 17:59:48
,wl-rdm,11,77162,0.0-6.3-0.3,0.0,12.0,,,,,,,[],,,,,,62.5,1.0,i,1.0,True,649.0,39.0,60.0,40.0,False,,294.7671349257939,[],"[819.5, 461]",ColorTask,4.0,4.0,,,HRV,HRV_0036,2022-11-30 17:59:48
,wl-rdm,12,79146,0.0-6.4-0.4,0.0,13.0,,,,,,,[],,,,,,53.2,0.0,u,0.0,True,708.6000000238419,43.0,60.0,40.0,False,,214.22709686976754,[],"[819.5, 461]",ColorTask,5.0,5.0,,,HRV,HRV_0036,2022-11-30 17:59:48
,wl-rdm,13,81315,0.0-6.5-0.5,0.0,14.0,,,,,,,[],,,,,,56.4,1.0,i,1.0,True,741.6000000238419,45.0,60.0,40.0,False,,364.15338039686947,[],"[819.5, 461]",ColorTask,6.0,6.0,,,HRV,HRV_0036,2022-11-30 17:59:48
,wl-rdm,14,83267,0.0-6.6-0.6,0.0,15.0,,,,,,,[],,,,,,73.6,1.0,i,1.0,True,663.5,40.0,60.0,40.0,False,,219.65667497512928,[],"[819.5, 461]",ColorTask,7.0,7.0,,,HRV,HRV_0036,2022-11-30 17:59:48
,wl-rdm,15,85401,0.0-6.7-0.7,0.0,16.0,,,,,,,[],,,,,,53.2,1.0,u,0.0,False,796.2000000476837,48.0,60.0,40.0,False,,282.4607304084648,[],"[819.5, 461]",ColorTask,6.0,8.0,,,HRV,HRV_0036,2022-11-30 17:59:48
,wl-rdm,16,87636,0.0-6.8-0.8,0.0,17.0,,,,,,,[],,,,,,73.6,1.0,i,1.0,True,838.4000000953674,51.0,60.0,40.0,False,,308.88543346306216,[],"[819.5, 461]",ColorTask,7.0,9.0,,,HRV,HRV_0036,2022-11-30 17:59:48
,wl-rdm,17,90022,0.0-6.9-0.9,0.0,18.0,,,,,,,[],,,,,,53.2,0.0,u,0.0,True,1087.1999999284744,66.0,60.0,40.0,False,,226.39296046205163,[],"[819.5, 461]",ColorTask,8.0,10.0,,,HRV,HRV_0036,2022-11-30 17:59:48
,wl-rdm,18,92373,0.0-6.10-0.10,0.0,19.0,,,,,,,[],,,,,,53.2,0.0,i,1.0,False,1056.8999999761581,64.0,60.0,40.0,False,,225.82846478511692,[],"[819.5, 461]",ColorTask,7.0,11.0,,,HRV,HRV_0036,2022-11-30 17:59:48
,wl-rdm,19,94509,0.0-6.11-0.11,0.0,20.0,,,,,,,[],,,,,,73.6,1.0,i,1.0,True,810.3999999761581,49.0,60.0,40.0,False,,249.5121719853094,[],"[819.5, 461]",ColorTask,8.0,12.0,,,HRV,HRV_0036,2022-11-30 17:59:48
,wl-rdm,20,96727,0.0-6.12-0.12,0.0,21.0,,,,,,,[],,,,,,53.2,1.0,i,1.0,True,919.5999999046326,56.0,60.0,40.0,False,,219.35243386108522,[],"[819.5, 461]",ColorTask,9.0,13.0,,,HRV,HRV_0036,2022-11-30 17:59:48
,wl-rdm,21,98829,0.0-6.13-0.13,0.0,22.0,,,,,,,[],,,,,,73.6,1.0,i,1.0,True,769.2000000476837,47.0,60.0,40.0,False,,254.73643175904567,[],"[819.5, 461]",ColorTask,10.0,14.0,,,HRV,HRV_0036,2022-11-30 17:59:48
,wl-rdm,22,100797,0.0-6.14-0.14,0.0,23.0,,,,,,,[],,,,,,53.2,1.0,i,1.0,True,631.7000000476837,38.0,60.0,40.0,False,,269.46911899070705,[],"[819.5, 461]",ColorTask,11.0,15.0,,,HRV,HRV_0036,2022-11-30 17:59:48
,wl-rdm,23,102765,0.0-6.15-0.15,0.0,24.0,,,,,,,[],,,,,,53.2,0.0,i,1.0,False,548.7000000476837,33.0,60.0,40.0,False,,362.9540088360054,[],"[819.5, 461]",ColorTask,10.0,16.0,,,HRV,HRV_0036,2022-11-30 17:59:48
,wl-rdm,24,105051,0.0-6.16-0.16,0.0,25.0,,,,,,,[],,,,,,73.6,0.0,u,0.0,True,864.0,52.0,60.0,40.0,False,,360.5283845269684,[],"[819.5, 461]",ColorTask,11.0,17.0,,,HRV,HRV_0036,2022-11-30 17:59:48
,wl-rdm,25,107086,0.0-6.17-0.17,0.0,26.0,,,,,,,[],,,,,,56.4,1.0,i,1.0,True,717.0,43.0,60.0,40.0,False,,255.70465579855176,[],"[819.5, 461]",ColorTask,12.0,18.0,,,HRV,HRV_0036,2022-11-30 17:59:48
,wl-rdm,26,109105,0.0-6.18-0.18,0.0,27.0,,,,,,,[],,,,,,73.6,1.0,i,1.0,True,627.8999999761581,38.0,60.0,40.0,False,,321.93703773438074,[],"[819.5, 461]",ColorTask,13.0,19.0,,,HRV,HRV_0036,2022-11-30 17:59:48
,wl-rdm,27,111156,0.0-6.19-0.19,0.0,28.0,,,,,,,[],,,,,,50.0,0.0,i,1.0,False,758.5,46.0,60.0,40.0,False,,224.30109520234356,[],"[819.5, 461]",ColorTask,12.0,20.0,,,HRV,HRV_0036,2022-11-30 17:59:48
,wl-rdm,28,113174,0.0-6.20-0.20,0.0,29.0,,,,,,,[],,,,,,53.2,1.0,i,1.0,True,716.5,43.0,60.0,40.0,False,,238.75459676148782,[],"[819.5, 461]",ColorTask,13.0,21.0,,,HRV,HRV_0036,2022-11-30 17:59:48
,wl-rdm,29,115209,0.0-6.21-0.21,0.0,30.0,,,,,,,[],,,,,,50.0,1.0,u,0.0,False,714.5,43.0,60.0,40.0,False,,256.94592493129596,[],"[819.5, 461]",ColorTask,12.0,22.0,,,HRV,HRV_0036,2022-11-30 17:59:48
,wl-rdm,30,117328,0.0-6.22-0.22,0.0,31.0,,,,,,,[],,,,,,56.4,1.0,i,1.0,True,691.8999999761581,42.0,60.0,40.0,False,,357.49165801761814,[],"[819.5, 461]",ColorTask,13.0,23.0,,,HRV,HRV_0036,2022-11-30 17:59:48
,wl-rdm,31,119379,0.0-6.23-0.23,0.0,32.0,,,,,,,[],,,,,,56.4,1.0,i,1.0,True,627.0,38.0,60.0,40.0,False,,366.84991116304116,[],"[819.5, 461]",ColorTask,14.0,24.0,,,HRV,HRV_0036,2022-11-30 17:59:48
,wl-rdm,32,121848,0.0-6.24-0.24,0.0,33.0,,,,,,,[],,,,,,50.0,1.0,u,0.0,False,1036.7000000476837,63.0,60.0,40.0,False,,353.417599066148,[],"[819.5, 461]",ColorTask,13.0,25.0,,,HRV,HRV_0036,2022-11-30 17:59:48
,wl-rdm,33,123699,0.0-6.25-0.25,0.0,34.0,,,,,,,[],,,,,,56.4,1.0,i,1.0,True,541.1000000238419,33.0,60.0,40.0,False,,245.080121135752,[],"[819.5, 461]",ColorTask,14.0,26.0,,,HRV,HRV_0036,2022-11-30 17:59:48
,wl-rdm,34,125668,0.0-6.26-0.26,0.0,35.0,,,,,,,[],,,,,,50.0,1.0,i,1.0,True,645.6000000238419,39.0,60.0,40.0,False,,255.45436063478758,[],"[819.5, 461]",ColorTask,15.0,27.0,,,HRV,HRV_0036,2022-11-30 17:59:48
,wl-rdm,35,127803,0.0-6.27-0.27,0.0,36.0,,,,,,,[],,,,,,73.6,0.0,u,0.0,True,842.7000000476837,51.0,60.0,40.0,False,,227.51840074588097,[],"[819.5, 461]",ColorTask,16.0,28.0,,,HRV,HRV_0036,2022-11-30 17:59:48
,wl-rdm,36,130004,0.0-6.28-0.28,0.0,37.0,,,,,,,[],,,,,,50.0,0.0,i,1.0,False,790.0,48.0,60.0,40.0,False,,338.7318225196317,[],"[819.5, 461]",ColorTask,15.0,29.0,,,HRV,HRV_0036,2022-11-30 17:59:48
,wl-rdm,37,132140,0.0-6.29-0.29,0.0,38.0,,,,,,,[],,,,,,87.9,1.0,i,1.0,True,689.5,42.0,60.0,40.0,False,,373.62030865280667,[],"[819.5, 461]",ColorTask,16.0,30.0,,,HRV,HRV_0036,2022-11-30 17:59:48
,wl-rdm,38,134209,0.0-6.30-0.30,0.0,39.0,,,,,,,[],,,,,,87.9,1.0,i,1.0,True,727.7000000476837,44.0,60.0,40.0,False,,262.93287504337525,[],"[819.5, 461]",ColorTask,17.0,31.0,,,HRV,HRV_0036,2022-11-30 17:59:48
,wl-rdm,39,136276,0.0-6.31-0.31,0.0,40.0,,,,,,,[],,,,,,62.5,0.0,u,0.0,True,692.3999999761581,42.0,60.0,40.0,False,,317.07002775560335,[],"[819.5, 461]",ColorTask,18.0,32.0,,,HRV,HRV_0036,2022-11-30 17:59:48
,wl-rdm,40,138262,0.0-6.32-0.32,0.0,41.0,,,,,,,[],,,,,,87.9,0.0,u,0.0,True,678.8999999761581,41.0,60.0,40.0,False,,238.67236952952948,[],"[819.5, 461]",ColorTask,19.0,33.0,,,HRV,HRV_0036,2022-11-30 17:59:48
,wl-rdm,41,140280,0.0-6.33-0.33,0.0,42.0,,,,,,,[],,,,,,50.0,1.0,i,1.0,True,670.5,41.0,60.0,40.0,False,,270.2783168347735,[],"[819.5, 461]",ColorTask,20.0,34.0,,,HRV,HRV_0036,2022-11-30 17:59:48
,wl-rdm,42,142615,0.0-6.34-0.34,0.0,43.0,,,,,,,[],,,,,,50.0,1.0,i,1.0,True,906.2999999523163,55.0,60.0,40.0,False,,359.7065288335451,[],"[819.5, 461]",ColorTask,21.0,35.0,,,HRV,HRV_0036,2022-11-30 17:59:48
,wl-rdm,43,144617,0.0-6.35-0.35,0.0,44.0,,,,,,,[],,,,,,50.0,1.0,i,1.0,True,641.8999999761581,39.0,60.0,40.0,False,,286.5433908571741,[],"[819.5, 461]",ColorTask,22.0,36.0,,,HRV,HRV_0036,2022-11-30 17:59:48
,wl-rdm,44,146835,0.0-6.36-0.36,0.0,45.0,,,,,,,[],,,,,,62.5,1.0,i,1.0,True,886.5,54.0,60.0,40.0,False,,252.995829748282,[],"[819.5, 461]",ColorTask,23.0,37.0,,,HRV,HRV_0036,2022-11-30 17:59:48
,wl-rdm,45,148987,0.0-6.37-0.37,0.0,46.0,,,,,,,[],,,,,,56.4,0.0,u,0.0,True,787.3999999761581,48.0,60.0,40.0,False,,290.6546670763906,[],"[819.5, 461]",ColorTask,24.0,38.0,,,HRV,HRV_0036,2022-11-30 17:59:48
,wl-rdm,46,151106,0.0-6.38-0.38,0.0,47.0,,,,,,,[],,,,,,53.2,0.0,u,0.0,True,652.4000000953674,40.0,60.0,40.0,False,,394.8228662853269,[],"[819.5, 461]",ColorTask,25.0,39.0,,,HRV,HRV_0036,2022-11-30 17:59:48
,wl-rdm,47,153291,0.0-6.39-0.39,0.0,48.0,,,,,,,[],,,,,,73.6,0.0,u,0.0,True,766.7000000476837,46.0,60.0,40.0,False,,354.7566501288696,[],"[819.5, 461]",ColorTask,26.0,40.0,,,HRV,HRV_0036,2022-11-30 17:59:48
,wl-rdm,48,155409,0.0-6.40-0.40,0.0,49.0,,,,,,,[],,,,,,53.2,0.0,i,1.0,False,771.1000000238419,47.0,60.0,40.0,False,,269.5940160451697,[],"[819.5, 461]",ColorTask,25.0,41.0,,,HRV,HRV_0036,2022-11-30 17:59:48
,wl-rdm,49,157527,0.0-6.41-0.41,0.0,50.0,,,,,,,[],,,,,,87.9,1.0,i,1.0,True,687.7999999523163,42.0,60.0,40.0,False,,352.9864159379642,[],"[819.5, 461]",ColorTask,26.0,42.0,,,HRV,HRV_0036,2022-11-30 17:59:48
,wl-rdm,50,159762,0.0-6.42-0.42,0.0,51.0,,,,,,,[],,,,,,73.6,0.0,u,0.0,True,903.5,55.0,60.0,40.0,False,,257.6031128260473,[],"[819.5, 461]",ColorTask,27.0,43.0,,,HRV,HRV_0036,2022-11-30 17:59:48
,wl-rdm,51,161964,0.0-6.43-0.43,0.0,52.0,,,,,,,[],,,,,,87.9,1.0,i,1.0,True,766.8999999761581,46.0,60.0,40.0,False,,375.37506302494137,[],"[819.5, 461]",ColorTask,28.0,44.0,,,HRV,HRV_0036,2022-11-30 17:59:48
,wl-rdm,52,164283,0.0-6.44-0.44,0.0,53.0,,,,,,,[],,,,,,56.4,0.0,i,1.0,False,991.1000000238419,60.0,60.0,40.0,False,,266.08244842953144,[],"[819.5, 461]",ColorTask,27.0,45.0,,,HRV,HRV_0036,2022-11-30 17:59:48
,wl-rdm,53,166668,0.0-6.45-0.45,0.0,54.0,,,,,,,[],,,,,,62.5,0.0,i,1.0,False,1030.7000000476837,62.0,60.0,40.0,False,,287.85940087632946,[],"[819.5, 461]",ColorTask,26.0,46.0,,,HRV,HRV_0036,2022-11-30 17:59:48
,wl-rdm,54,169004,0.0-6.46-0.46,0.0,55.0,,,,,,,[],,,,,,56.4,1.0,i,1.0,True,886.6000000238419,54.0,60.0,40.0,False,,378.3847834210572,[],"[819.5, 461]",ColorTask,27.0,47.0,,,HRV,HRV_0036,2022-11-30 17:59:48
,wl-rdm,55,171022,0.0-6.47-0.47,0.0,56.0,,,,,,,[],,,,,,73.6,1.0,i,1.0,True,709.1000000238419,43.0,60.0,40.0,False,,237.40788984074928,[],"[819.5, 461]",ColorTask,28.0,48.0,,,HRV,HRV_0036,2022-11-30 17:59:48
,wl-rdm,56,172991,0.0-6.48-0.48,0.0,57.0,,,,,,,[],,,,,,50.0,0.0,i,1.0,False,612.5,37.0,60.0,40.0,False,,286.8629029641543,[],"[819.5, 461]",ColorTask,27.0,49.0,,,HRV,HRV_0036,2022-11-30 17:59:48
,wl-rdm,57,174858,0.0-6.49-0.49,0.0,58.0,,,,,,,[],,,,,,87.9,0.0,u,0.0,True,543.5,33.0,60.0,40.0,False,,259.71521608132946,[],"[819.5, 461]",ColorTask,28.0,50.0,,,HRV,HRV_0036,2022-11-30 17:59:48
,wl-rdm,58,176926,0.0-6.50-0.50,0.0,59.0,,,,,,,[],,,,,,62.5,0.0,u,0.0,True,659.3000000715256,40.0,60.0,40.0,False,,343.32885996155966,[],"[819.5, 461]",ColorTask,29.0,51.0,,,HRV,HRV_0036,2022-11-30 17:59:48
,wl-rdm,59,178979,0.0-6.51-0.51,0.0,60.0,,,,,,,[],,,,,,87.9,0.0,u,0.0,True,735.8999999761581,45.0,60.0,40.0,False,,233.87884685195075,[],"[819.5, 461]",ColorTask,30.0,52.0,,,HRV,HRV_0036,2022-11-30 17:59:48
,wl-rdm,60,180863,0.0-6.52-0.52,0.0,61.0,,,,,,,[],,,,,,87.9,0.0,u,0.0,True,616.1000000238419,37.0,60.0,40.0,False,,209.93463333405455,[],"[819.5, 461]",ColorTask,31.0,53.0,,,HRV,HRV_0036,2022-11-30 17:59:48
,wl-rdm,61,182948,0.0-6.53-0.53,0.0,62.0,,,,,,,[],,,,,,62.5,1.0,i,1.0,True,766.0,46.0,60.0,40.0,False,,257.68509369619005,[],"[819.5, 461]",ColorTask,32.0,54.0,,,HRV,HRV_0036,2022-11-30 17:59:48
,wl-rdm,62,184833,0.0-6.54-0.54,0.0,63.0,,,,,,,[],,,,,,62.5,1.0,i,1.0,True,594.4000000953674,36.0,60.0,40.0,False,,230.27327785336075,[],"[819.5, 461]",ColorTask,33.0,55.0,,,HRV,HRV_0036,2022-11-30 17:59:48
,wl-rdm,63,187018,0.0-6.55-0.55,0.0,64.0,,,,,,,[],,,,,,62.5,0.0,i,1.0,False,798.7999999523163,48.0,60.0,40.0,False,,321.1823434218686,[],"[819.5, 461]",ColorTask,32.0,56.0,,,HRV,HRV_0036,2022-11-30 17:59:48
,wl-rdm,64,189187,0.0-6.56-0.56,0.0,65.0,,,,,,,[],,,,,,56.4,0.0,u,0.0,True,755.6000000238419,46.0,60.0,40.0,False,,349.592187047293,[],"[819.5, 461]",ColorTask,33.0,57.0,,,HRV,HRV_0036,2022-11-30 17:59:48
,wl-rdm,65,191388,0.0-6.57-0.57,0.0,66.0,,,,,,,[],,,,,,73.6,0.0,u,0.0,True,761.0,46.0,60.0,40.0,False,,360.34441805045947,[],"[819.5, 461]",ColorTask,34.0,58.0,,,HRV,HRV_0036,2022-11-30 17:59:48
,wl-rdm,66,193540,0.0-6.58-0.58,0.0,67.0,,,,,,,[],,,,,,56.4,0.0,u,0.0,True,738.7000000476837,45.0,60.0,40.0,False,,341.6786091824595,[],"[819.5, 461]",ColorTask,35.0,59.0,,,HRV,HRV_0036,2022-11-30 17:59:48
,wl-rdm,67,195625,0.0-6.59-0.59,0.0,68.0,,,,,,,[],,,,,,87.9,0.0,u,0.0,True,646.2999999523163,39.0,60.0,40.0,False,,383.1899973164295,[],"[819.5, 461]",ColorTask,36.0,60.0,,,HRV,HRV_0036,2022-11-30 17:59:48
,wl-rdm,68,197827,0.0-6.60-0.60,0.0,69.0,,,,,,,[],,,,,,62.5,0.0,i,1.0,False,783.3999999761581,47.0,60.0,40.0,False,,352.36869262572384,[],"[819.5, 461]",ColorTask,35.0,61.0,,,HRV,HRV_0036,2022-11-30 17:59:48
,wl-rdm,69,200246,0.0-6.61-0.61,0.0,70.0,,,,,,,[],,,,,,62.5,0.0,u,0.0,True,987.7000000476837,60.0,60.0,40.0,False,,356.17538216833645,[],"[819.5, 461]",ColorTask,36.0,62.0,,,HRV,HRV_0036,2022-11-30 17:59:48
,wl-rdm,70,202247,0.0-6.62-0.62,0.0,71.0,,,,,,,[],,,,,,62.5,0.0,u,0.0,True,665.5,40.0,60.0,40.0,False,,278.3545700552359,[],"[819.5, 461]",ColorTask,37.0,63.0,,,HRV,HRV_0036,2022-11-30 17:59:48
,wl-rdm,71,204333,0.0-6.63-0.63,0.0,72.0,,,,,,,[],,,,,,50.0,0.0,i,1.0,False,802.8999999761581,49.0,60.0,40.0,False,,211.4040201371073,[],"[819.5, 461]",ColorTask,36.0,64.0,,,HRV,HRV_0036,2022-11-30 17:59:48
,wl-rdm,72,206451,0.0-6.64-0.64,0.0,73.0,,,,,,,[],,,,,,50.0,0.0,u,0.0,True,830.3000000715256,50.0,60.0,40.0,False,,230.78618450818854,[],"[819.5, 461]",ColorTask,37.0,65.0,,,HRV,HRV_0036,2022-11-30 17:59:48
,wl-rdm,73,208619,0.0-6.65-0.65,0.0,74.0,,,,,,,[],,,,,,56.4,0.0,i,1.0,False,845.2999999523163,51.0,60.0,40.0,False,,260.8515345481777,[],"[819.5, 461]",ColorTask,36.0,66.0,,,HRV,HRV_0036,2022-11-30 17:59:48
,wl-rdm,74,210587,0.0-6.66-0.66,0.0,75.0,,,,,,,[],,,,,,56.4,0.0,u,0.0,True,622.7999999523163,38.0,60.0,40.0,False,,267.51076769525844,[],"[819.5, 461]",ColorTask,37.0,67.0,,,HRV,HRV_0036,2022-11-30 17:59:48
,wl-rdm,75,212806,0.0-6.67-0.67,0.0,76.0,,,,,,,[],,,,,,62.5,0.0,i,1.0,False,928.0,56.0,60.0,40.0,False,,222.53479608294012,[],"[819.5, 461]",ColorTask,36.0,68.0,,,HRV,HRV_0036,2022-11-30 17:59:48
,wl-rdm,76,214924,0.0-6.68-0.68,0.0,77.0,,,,,,,[],,,,,,87.9,1.0,i,1.0,True,752.2999999523163,46.0,60.0,40.0,False,,285.22490298208487,[],"[819.5, 461]",ColorTask,37.0,69.0,,,HRV,HRV_0036,2022-11-30 17:59:48
,wl-rdm,77,217144,0.0-6.69-0.69,0.0,78.0,,,,,,,[],,,,,,53.2,1.0,u,0.0,False,779.8999999761581,47.0,60.0,40.0,False,,373.7253328698147,[],"[819.5, 461]",ColorTask,36.0,70.0,,,HRV,HRV_0036,2022-11-30 17:59:48
,wl-rdm,78,219063,0.0-6.70-0.70,0.0,79.0,,,,,,,[],,,,,,62.5,1.0,i,1.0,True,633.3999999761581,38.0,60.0,40.0,False,,225.56364469271395,[],"[819.5, 461]",ColorTask,37.0,71.0,,,HRV,HRV_0036,2022-11-30 17:59:48
,wl-rdm,79,221080,0.0-6.71-0.71,0.0,80.0,,,,,,,[],,,,,,87.9,1.0,i,1.0,True,598.6000000238419,36.0,60.0,40.0,False,,357.32582883773637,[],"[819.5, 461]",ColorTask,38.0,72.0,,,HRV,HRV_0036,2022-11-30 17:59:48
,wl-rdm,80,223248,0.0-6.72-0.72,0.0,81.0,,,,,,,[],,,,,,87.9,0.0,u,0.0,True,741.8999999761581,45.0,60.0,40.0,False,,351.2811001403389,[],"[819.5, 461]",ColorTask,39.0,73.0,,,HRV,HRV_0036,2022-11-30 17:59:48
,wl-rdm,81,225383,0.0-6.73-0.73,0.0,82.0,,,,,,,[],,,,,,56.4,0.0,i,1.0,False,792.7999999523163,48.0,60.0,40.0,False,,255.99170931366476,[],"[819.5, 461]",ColorTask,38.0,74.0,,,HRV,HRV_0036,2022-11-30 17:59:48
,wl-rdm,82,227451,0.0-6.74-0.74,0.0,83.0,,,,,,,[],,,,,,87.9,0.0,u,0.0,True,636.7999999523163,39.0,60.0,40.0,False,,351.5635633345521,[],"[819.5, 461]",ColorTask,39.0,75.0,,,HRV,HRV_0036,2022-11-30 17:59:48
,wl-rdm,83,229569,0.0-6.75-0.75,0.0,84.0,,,,,,,[],,,,,,62.5,1.0,i,1.0,True,833.4000000953674,50.0,60.0,40.0,False,,226.36883753938596,[],"[819.5, 461]",ColorTask,40.0,76.0,,,HRV,HRV_0036,2022-11-30 17:59:48
,wl-rdm,84,231638,0.0-6.76-0.76,0.0,85.0,,,,,,,[],,,,,,87.9,0.0,u,0.0,True,744.5,45.0,60.0,40.0,False,,237.09519403973854,[],"[819.5, 461]",ColorTask,41.0,77.0,,,HRV,HRV_0036,2022-11-30 17:59:48
,wl-rdm,85,233774,0.0-6.77-0.77,0.0,86.0,,,,,,,[],,,,,,53.2,0.0,u,0.0,True,752.5,46.0,60.0,40.0,False,,301.8552593392622,[],"[819.5, 461]",ColorTask,42.0,78.0,,,HRV,HRV_0036,2022-11-30 17:59:48
,wl-rdm,86,235959,0.0-6.78-0.78,0.0,87.0,,,,,,,[],,,,,,56.4,0.0,i,1.0,False,857.0,52.0,60.0,40.0,False,,243.50693595212334,[],"[819.5, 461]",ColorTask,41.0,79.0,,,HRV,HRV_0036,2022-11-30 17:59:48
,wl-rdm,87,238227,0.0-6.79-0.79,0.0,88.0,,,,,,,[],,,,,,62.5,1.0,i,1.0,True,821.3000000715256,50.0,60.0,40.0,False,,355.04671229408734,[],"[819.5, 461]",ColorTask,42.0,80.0,,,HRV,HRV_0036,2022-11-30 17:59:48
,wl-rdm,88,240395,0.0-6.80-0.80,0.0,89.0,,,,,,,[],,,,,,87.9,1.0,i,1.0,True,867.1000000238419,52.0,60.0,40.0,False,,250.0120645030812,[],"[819.5, 461]",ColorTask,43.0,81.0,,,HRV,HRV_0036,2022-11-30 17:59:48
,wl-rdm,89,242632,0.0-6.81-0.81,0.0,90.0,,,,,,,[],,,,,,50.0,1.0,i,1.0,True,921.0999999046326,56.0,60.0,40.0,False,,239.24851510658522,[],"[819.5, 461]",ColorTask,44.0,82.0,,,HRV,HRV_0036,2022-11-30 17:59:48
,wl-rdm,90,244817,0.0-6.82-0.82,0.0,91.0,,,,,,,[],,,,,,50.0,1.0,i,1.0,True,899.3000000715256,54.0,60.0,40.0,False,,218.04526822559006,[],"[819.5, 461]",ColorTask,45.0,83.0,,,HRV,HRV_0036,2022-11-30 17:59:48
,wl-rdm,91,246968,0.0-6.83-0.83,0.0,92.0,,,,,,,[],,,,,,56.4,1.0,u,0.0,False,819.8999999761581,50.0,60.0,40.0,False,,256.5732803415795,[],"[819.5, 461]",ColorTask,44.0,84.0,,,HRV,HRV_0036,2022-11-30 17:59:48
,wl-rdm,92,248954,0.0-6.84-0.84,0.0,93.0,,,,,,,[],,,,,,53.2,0.0,i,1.0,False,582.7999999523163,35.0,60.0,40.0,False,,349.12175560379956,[],"[819.5, 461]",ColorTask,43.0,85.0,,,HRV,HRV_0036,2022-11-30 17:59:48
,wl-rdm,93,250988,0.0-6.85-0.85,0.0,94.0,,,,,,,[],,,,,,87.9,1.0,i,1.0,True,620.1999999284744,38.0,60.0,40.0,False,,342.23419751290373,[],"[819.5, 461]",ColorTask,44.0,86.0,,,HRV,HRV_0036,2022-11-30 17:59:48
,wl-rdm,94,253240,0.0-6.86-0.86,0.0,95.0,,,,,,,[],,,,,,50.0,0.0,u,0.0,True,958.9000000953674,58.0,60.0,40.0,False,,220.11839820536778,[],"[819.5, 461]",ColorTask,45.0,87.0,,,HRV,HRV_0036,2022-11-30 17:59:48
,wl-rdm,95,255475,0.0-6.87-0.87,0.0,96.0,,,,,,,[],,,,,,50.0,1.0,i,1.0,True,769.8999999761581,47.0,60.0,40.0,False,,390.29870317138057,[],"[819.5, 461]",ColorTask,46.0,88.0,,,HRV,HRV_0036,2022-11-30 17:59:48
,wl-rdm,96,257744,0.0-6.88-0.88,0.0,97.0,,,,,,,[],,,,,,50.0,0.0,i,1.0,False,894.6000000238419,54.0,60.0,40.0,False,,306.50477942030324,[],"[819.5, 461]",ColorTask,45.0,89.0,,,HRV,HRV_0036,2022-11-30 17:59:48
,wl-rdm,97,259911,0.0-6.89-0.89,0.0,98.0,,,,,,,[],,,,,,87.9,1.0,i,1.0,True,882.8999999761581,53.0,60.0,40.0,False,,217.7112639905185,[],"[819.5, 461]",ColorTask,46.0,90.0,,,HRV,HRV_0036,2022-11-30 17:59:48
,wl-rdm,98,262214,0.0-6.90-0.90,0.0,99.0,,,,,,,[],,,,,,73.6,0.0,u,0.0,True,841.8000000715256,51.0,60.0,40.0,False,,391.4068476090284,[],"[819.5, 461]",ColorTask,47.0,91.0,,,HRV,HRV_0036,2022-11-30 17:59:48
,wl-rdm,99,264633,0.0-6.91-0.91,0.0,100.0,,,,,,,[],,,,,,73.6,0.0,i,1.0,False,1029.3999999761581,62.0,60.0,40.0,False,,309.1680615231991,[],"[819.5, 461]",ColorTask,46.0,92.0,,,HRV,HRV_0036,2022-11-30 17:59:48
,wl-rdm,100,266684,0.0-6.92-0.92,0.0,101.0,,,,,,,[],,,,,,73.6,0.0,u,0.0,True,653.0,40.0,60.0,40.0,False,,320.0498940220934,[],"[819.5, 461]",ColorTask,47.0,93.0,,,HRV,HRV_0036,2022-11-30 17:59:48
,wl-rdm,101,269153,0.0-6.93-0.93,0.0,102.0,,,,,,,[],,,,,,53.2,1.0,i,1.0,True,1138.6999999284744,69.0,60.0,40.0,False,,252.35263009841557,[],"[819.5, 461]",ColorTask,48.0,94.0,,,HRV,HRV_0036,2022-11-30 17:59:48
,wl-rdm,102,271689,0.0-6.94-0.94,0.0,103.0,,,,,,,[],,,,,,56.4,1.0,i,1.0,True,1266.5,76.0,60.0,40.0,False,,203.04734833966396,[],"[819.5, 461]",ColorTask,49.0,95.0,,,HRV,HRV_0036,2022-11-30 17:59:48
,wl-rdm,103,274240,0.0-6.95-0.95,0.0,104.0,,,,,,,[],,,,,,53.2,1.0,i,1.0,True,1135.8000000715256,69.0,60.0,40.0,False,,340.54078371501043,[],"[819.5, 461]",ColorTask,50.0,96.0,,,HRV,HRV_0036,2022-11-30 17:59:48
,wl-rdm,104,276792,0.0-6.96-0.96,0.0,105.0,,,,,,,[],,,,,,62.5,1.0,i,1.0,True,1126.7999999523163,68.0,60.0,40.0,False,,351.6046861134412,[],"[819.5, 461]",ColorTask,51.0,97.0,,,HRV,HRV_0036,2022-11-30 17:59:48
,wl-rdm,105,278911,0.0-6.97-0.97,0.0,106.0,,,,,,,[],,,,,,56.4,0.0,u,0.0,True,686.8999999761581,42.0,60.0,40.0,False,,352.57588716498645,[],"[819.5, 461]",ColorTask,52.0,98.0,,,HRV,HRV_0036,2022-11-30 17:59:48
,wl-rdm,106,281163,0.0-6.98-0.98,0.0,107.0,,,,,,,[],,,,,,62.5,1.0,i,1.0,True,914.5,55.0,60.0,40.0,False,,282.7659303088743,[],"[819.5, 461]",ColorTask,53.0,99.0,,,HRV,HRV_0036,2022-11-30 17:59:48
,wl-rdm,107,283948,0.0-6.99-0.99,0.0,108.0,,,,,,,[],,,,,,50.0,0.0,u,0.0,True,1430.7999999523163,86.0,60.0,40.0,False,,284.3981931503677,[],"[819.5, 461]",ColorTask,54.0,100.0,,,HRV,HRV_0036,2022-11-30 17:59:48
,wl-rdm,108,286067,0.0-6.100-0.100,0.0,109.0,,,,,,,[],,,,,,73.6,1.0,i,1.0,True,790.5,48.0,60.0,40.0,False,,263.68556775013394,[],"[819.5, 461]",ColorTask,55.0,101.0,,,HRV,HRV_0036,2022-11-30 17:59:48
,wl-rdm,109,288202,0.0-6.101-0.101,0.0,110.0,,,,,,,[],,,,,,53.2,1.0,i,1.0,True,813.1000000238419,49.0,60.0,40.0,False,,257.175484554933,[],"[819.5, 461]",ColorTask,56.0,102.0,,,HRV,HRV_0036,2022-11-30 17:59:48
,wl-rdm,110,290237,0.0-6.102-0.102,0.0,111.0,,,,,,,[],,,,,,73.6,1.0,i,1.0,True,742.6000000238419,45.0,60.0,40.0,False,,223.36459120300458,[],"[819.5, 461]",ColorTask,57.0,103.0,,,HRV,HRV_0036,2022-11-30 17:59:48
,wl-rdm,111,292406,0.0-6.103-0.103,0.0,112.0,,,,,,,[],,,,,,56.4,1.0,i,1.0,True,852.8999998569489,52.0,60.0,40.0,False,,244.10297929456792,[],"[819.5, 461]",ColorTask,58.0,104.0,,,HRV,HRV_0036,2022-11-30 17:59:48
,wl-rdm,112,294807,0.0-6.104-0.104,0.0,113.0,,,,,,,[],,,,,,53.2,1.0,i,1.0,True,972.3000000715256,59.0,60.0,40.0,False,,350.4920074704546,[],"[819.5, 461]",ColorTask,59.0,105.0,,,HRV,HRV_0036,2022-11-30 17:59:48
,wl-rdm,113,297143,0.0-6.105-0.105,0.0,114.0,,,,,,,[],,,,,,73.6,0.0,u,0.0,True,931.0000001192093,56.0,60.0,40.0,False,,345.29036208805303,[],"[819.5, 461]",ColorTask,60.0,106.0,,,HRV,HRV_0036,2022-11-30 17:59:48
,wl-rdm,114,299328,0.0-6.106-0.106,0.0,115.0,,,,,,,[],,,,,,87.9,0.0,u,0.0,True,828.7000000476837,50.0,60.0,40.0,False,,297.0905024732174,[],"[819.5, 461]",ColorTask,61.0,107.0,,,HRV,HRV_0036,2022-11-30 17:59:48
,wl-rdm,115,301846,0.0-6.107-0.107,0.0,116.0,,,,,,,[],,,,,,53.2,0.0,u,0.0,True,1088.2999999523163,66.0,60.0,40.0,False,,354.45431642409443,[],"[819.5, 461]",ColorTask,62.0,108.0,,,HRV,HRV_0036,2022-11-30 17:59:48
,wl-html-keyboard-response,116,317137,0.0-7.0-0.0,1.0,117.0,,,,,,,,13286.699999928474,1.0,0,,,,,,,,,,,,,,,,,,,,,,HRV,HRV_0036,2022-11-30 17:59:48
,wl-rdm,117,319427,0.0-8.0-0.0,1.0,118.0,,,,,,,[],,,,,,73.6,1.0,i,1.0,True,862.1000000238419,52.0,60.0,40.0,False,,370.39716536126474,[],"[819.5, 461]",ColorTask,63.0,1.0,,,HRV,HRV_0036,2022-11-30 17:59:48
,wl-rdm,118,321829,0.0-8.1-0.1,1.0,119.0,,,,,,,[],,,,,,53.2,1.0,u,0.0,False,1026.7999999523163,62.0,60.0,40.0,False,,304.033314798179,[],"[819.5, 461]",ColorTask,62.0,2.0,,,HRV,HRV_0036,2022-11-30 17:59:48
,wl-rdm,119,323798,0.0-8.2-0.2,1.0,120.0,,,,,,,[],,,,,,73.6,1.0,i,1.0,True,663.5,40.0,60.0,40.0,False,,240.2121696419078,[],"[819.5, 461]",ColorTask,63.0,3.0,,,HRV,HRV_0036,2022-11-30 17:59:48
,wl-rdm,120,325766,0.0-8.3-0.3,1.0,121.0,,,,,,,[],,,,,,87.9,1.0,i,1.0,True,671.3000000715256,41.0,60.0,40.0,False,,220.85551645687042,[],"[819.5, 461]",ColorTask,64.0,4.0,,,HRV,HRV_0036,2022-11-30 17:59:48
,wl-rdm,121,327784,0.0-8.4-0.4,1.0,122.0,,,,,,,[],,,,,,50.0,1.0,i,1.0,True,746.8999998569489,45.0,60.0,40.0,False,,202.9468365091358,[],"[819.5, 461]",ColorTask,65.0,5.0,,,HRV,HRV_0036,2022-11-30 17:59:48
,wl-rdm,122,330069,0.0-8.5-0.5,1.0,123.0,,,,,,,[],,,,,,53.2,0.0,u,0.0,True,825.3999998569489,50.0,60.0,40.0,False,,399.4995543205139,[],"[819.5, 461]",ColorTask,66.0,6.0,,,HRV,HRV_0036,2022-11-30 17:59:48
,wl-rdm,123,332187,0.0-8.6-0.6,1.0,124.0,,,,,,,[],,,,,,73.6,1.0,i,1.0,True,839.0,51.0,60.0,40.0,False,,208.82583989253408,[],"[819.5, 461]",ColorTask,67.0,7.0,,,HRV,HRV_0036,2022-11-30 17:59:48
,wl-rdm,124,334473,0.0-8.7-0.7,1.0,125.0,,,,,,,[],,,,,,62.5,1.0,i,1.0,True,993.3999999761581,60.0,60.0,40.0,False,,216.9878415708292,[],"[819.5, 461]",ColorTask,68.0,8.0,,,HRV,HRV_0036,2022-11-30 17:59:48
,wl-rdm,125,336674,0.0-8.8-0.8,1.0,126.0,,,,,,,[],,,,,,50.0,0.0,u,0.0,True,891.8000000715256,54.0,60.0,40.0,False,,234.8274252034404,[],"[819.5, 461]",ColorTask,69.0,9.0,,,HRV,HRV_0036,2022-11-30 17:59:48
,wl-rdm,126,338777,0.0-8.9-0.9,1.0,127.0,,,,,,,[],,,,,,62.5,1.0,i,1.0,True,686.6000000238419,42.0,60.0,40.0,False,,343.23023941654515,[],"[819.5, 461]",ColorTask,70.0,10.0,,,HRV,HRV_0036,2022-11-30 17:59:48
,wl-rdm,127,341061,0.0-8.10-0.10,1.0,128.0,,,,,,,[],,,,,,53.2,1.0,u,0.0,False,1002.9000000953674,61.0,60.0,40.0,False,,203.55947120155,[],"[819.5, 461]",ColorTask,69.0,11.0,,,HRV,HRV_0036,2022-11-30 17:59:48
,wl-rdm,128,343330,0.0-8.11-0.11,1.0,129.0,,,,,,,[],,,,,,73.6,0.0,u,0.0,True,907.3999999761581,55.0,60.0,40.0,False,,286.6748807810624,[],"[819.5, 461]",ColorTask,70.0,12.0,,,HRV,HRV_0036,2022-11-30 17:59:48
,wl-rdm,129,345398,0.0-8.12-0.12,1.0,130.0,,,,,,,[],,,,,,87.9,1.0,i,1.0,True,746.6000000238419,45.0,60.0,40.0,False,,244.33786067393015,[],"[819.5, 461]",ColorTask,71.0,13.0,,,HRV,HRV_0036,2022-11-30 17:59:48
,wl-rdm,130,347600,0.0-8.13-0.13,1.0,131.0,,,,,,,[],,,,,,73.6,0.0,u,0.0,True,932.5,56.0,60.0,40.0,False,,204.21659134660487,[],"[819.5, 461]",ColorTask,72.0,14.0,,,HRV,HRV_0036,2022-11-30 17:59:48
,wl-rdm,131,350069,0.0-8.14-0.14,1.0,132.0,,,,,,,[],,,,,,62.5,0.0,i,1.0,False,1004.0,61.0,60.0,40.0,False,,383.942824775949,[],"[819.5, 461]",ColorTask,71.0,15.0,,,HRV,HRV_0036,2022-11-30 17:59:48
,wl-rdm,132,352121,0.0-8.15-0.15,1.0,133.0,,,,,,,[],,,,,,87.9,0.0,u,0.0,True,620.5,38.0,60.0,40.0,False,,366.5749056054743,[],"[819.5, 461]",ColorTask,72.0,16.0,,,HRV,HRV_0036,2022-11-30 17:59:48
,wl-rdm,133,354356,0.0-8.16-0.16,1.0,134.0,,,,,,,[],,,,,,53.2,1.0,i,1.0,True,941.5000001192093,57.0,60.0,40.0,False,,217.59865639579104,[],"[819.5, 461]",ColorTask,73.0,17.0,,,HRV,HRV_0036,2022-11-30 17:59:48
,wl-rdm,134,356724,0.0-8.17-0.17,1.0,135.0,,,,,,,[],,,,,,56.4,1.0,i,1.0,True,992.7000000476837,60.0,60.0,40.0,False,,313.9004766460774,[],"[819.5, 461]",ColorTask,74.0,18.0,,,HRV,HRV_0036,2022-11-30 17:59:48
,wl-rdm,135,358676,0.0-8.18-0.18,1.0,136.0,,,,,,,[],,,,,,87.9,1.0,i,1.0,True,655.1000000238419,40.0,60.0,40.0,False,,231.65369361574076,[],"[819.5, 461]",ColorTask,75.0,19.0,,,HRV,HRV_0036,2022-11-30 17:59:48
,wl-rdm,136,360945,0.0-8.19-0.19,1.0,137.0,,,,,,,[],,,,,,53.2,1.0,i,1.0,True,992.2999999523163,60.0,60.0,40.0,False,,200.6406697029571,[],"[819.5, 461]",ColorTask,76.0,20.0,,,HRV,HRV_0036,2022-11-30 17:59:48
,wl-rdm,137,362946,0.0-8.20-0.20,1.0,138.0,,,,,,,[],,,,,,62.5,0.0,u,0.0,True,551.7999999523163,34.0,60.0,40.0,False,,357.5621121798378,[],"[819.5, 461]",ColorTask,77.0,21.0,,,HRV,HRV_0036,2022-11-30 17:59:48
,wl-rdm,138,364981,0.0-8.21-0.21,1.0,139.0,,,,,,,[],,,,,,87.9,1.0,i,1.0,True,719.1000000238419,44.0,60.0,40.0,False,,244.54993438029595,[],"[819.5, 461]",ColorTask,78.0,22.0,,,HRV,HRV_0036,2022-11-30 17:59:48
,wl-rdm,139,367250,0.0-8.22-0.22,1.0,140.0,,,,,,,[],,,,,,56.4,1.0,i,1.0,True,825.7999999523163,50.0,60.0,40.0,False,,382.44029171631587,[],"[819.5, 461]",ColorTask,79.0,23.0,,,HRV,HRV_0036,2022-11-30 17:59:48
,wl-rdm,140,369652,0.0-8.23-0.23,1.0,141.0,,,,,,,[],,,,,,50.0,1.0,u,0.0,False,986.1000000238419,60.0,60.0,40.0,False,,338.69950873695956,[],"[819.5, 461]",ColorTask,78.0,24.0,,,HRV,HRV_0036,2022-11-30 17:59:48
,wl-rdm,141,371787,0.0-8.24-0.24,1.0,142.0,,,,,,,[],,,,,,62.5,1.0,i,1.0,True,671.5,41.0,60.0,40.0,False,,398.87233139954606,[],"[819.5, 461]",ColorTask,79.0,25.0,,,HRV,HRV_0036,2022-11-30 17:59:48
,wl-rdm,142,373856,0.0-8.25-0.25,1.0,143.0,,,,,,,[],,,,,,73.6,1.0,i,1.0,True,702.6000000238419,43.0,60.0,40.0,False,,295.49613459502706,[],"[819.5, 461]",ColorTask,80.0,26.0,,,HRV,HRV_0036,2022-11-30 17:59:48
,wl-rdm,143,376207,0.0-8.26-0.26,1.0,144.0,,,,,,,[],,,,,,62.5,0.0,u,0.0,True,886.7999999523163,54.0,60.0,40.0,False,,391.4177140813016,[],"[819.5, 461]",ColorTask,81.0,27.0,,,HRV,HRV_0036,2022-11-30 17:59:48
,wl-rdm,144,378509,0.0-8.27-0.27,1.0,145.0,,,,,,,[],,,,,,50.0,0.0,u,0.0,True,944.5,57.0,60.0,40.0,False,,297.83428003410523,[],"[819.5, 461]",ColorTask,82.0,28.0,,,HRV,HRV_0036,2022-11-30 17:59:48
,wl-rdm,145,380627,0.0-8.28-0.28,1.0,146.0,,,,,,,[],,,,,,73.6,1.0,i,1.0,True,729.6000000238419,44.0,60.0,40.0,False,,329.75116212294347,[],"[819.5, 461]",ColorTask,83.0,29.0,,,HRV,HRV_0036,2022-11-30 17:59:48
,wl-rdm,146,382980,0.0-8.29-0.29,1.0,147.0,,,,,,,[],,,,,,56.4,1.0,i,1.0,True,971.1000000238419,59.0,60.0,40.0,False,,303.4394539023308,[],"[819.5, 461]",ColorTask,84.0,30.0,,,HRV,HRV_0036,2022-11-30 17:59:48
,wl-rdm,147,385298,0.0-8.30-0.30,1.0,148.0,,,,,,,[],,,,,,73.6,0.0,u,0.0,True,998.5999999046326,60.0,60.0,40.0,False,,256.6822625096781,[],"[819.5, 461]",ColorTask,85.0,31.0,,,HRV,HRV_0036,2022-11-30 17:59:48
,wl-rdm,148,387566,0.0-8.31-0.31,1.0,149.0,,,,,,,[],,,,,,53.2,1.0,i,1.0,True,936.1000000238419,57.0,60.0,40.0,False,,258.45604262963354,[],"[819.5, 461]",ColorTask,86.0,32.0,,,HRV,HRV_0036,2022-11-30 17:59:48
,wl-rdm,149,390352,0.0-8.32-0.32,1.0,150.0,,,,,,,[],,,,,,73.6,0.0,u,0.0,True,1498.2999999523163,90.0,60.0,40.0,False,,218.64702888438782,[],"[819.5, 461]",ColorTask,87.0,33.0,,,HRV,HRV_0036,2022-11-30 17:59:48
,wl-rdm,150,392838,0.0-8.33-0.33,1.0,151.0,,,,,,,[],,,,,,56.4,0.0,u,0.0,True,1149.5,69.0,60.0,40.0,False,,279.85581274636013,[],"[819.5, 461]",ColorTask,88.0,34.0,,,HRV,HRV_0036,2022-11-30 17:59:48
,wl-rdm,151,395156,0.0-8.34-0.34,1.0,152.0,,,,,,,[],,,,,,87.9,0.0,u,0.0,True,848.5,51.0,60.0,40.0,False,,389.72323188626797,[],"[819.5, 461]",ColorTask,89.0,35.0,,,HRV,HRV_0036,2022-11-30 17:59:48
,wl-rdm,152,397858,0.0-8.35-0.35,1.0,153.0,,,,,,,[],,,,,,50.0,0.0,u,0.0,True,1399.2000000476837,84.0,60.0,40.0,False,,247.64025072832516,[],"[819.5, 461]",ColorTask,90.0,36.0,,,HRV,HRV_0036,2022-11-30 17:59:48
,wl-rdm,153,400194,0.0-8.36-0.36,1.0,154.0,,,,,,,[],,,,,,50.0,1.0,u,0.0,False,909.8999999761581,55.0,60.0,40.0,False,,356.3615710047178,[],"[819.5, 461]",ColorTask,89.0,37.0,,,HRV,HRV_0036,2022-11-30 17:59:48
,wl-rdm,154,402529,0.0-8.37-0.37,1.0,155.0,,,,,,,[],,,,,,56.4,0.0,u,0.0,True,947.8999999761581,57.0,60.0,40.0,False,,321.80901705579885,[],"[819.5, 461]",ColorTask,90.0,38.0,,,HRV,HRV_0036,2022-11-30 17:59:48
,wl-rdm,155,404981,0.0-8.38-0.38,1.0,156.0,,,,,,,[],,,,,,53.2,0.0,u,0.0,True,1072.1000000238419,65.0,60.0,40.0,False,,315.94727445574097,[],"[819.5, 461]",ColorTask,91.0,39.0,,,HRV,HRV_0036,2022-11-30 17:59:48
,wl-rdm,156,407199,0.0-8.39-0.39,1.0,157.0,,,,,,,[],,,,,,73.6,0.0,u,0.0,True,889.2000000476837,54.0,60.0,40.0,False,,266.34976420711837,[],"[819.5, 461]",ColorTask,92.0,40.0,,,HRV,HRV_0036,2022-11-30 17:59:48
,wl-rdm,157,409485,0.0-8.40-0.40,1.0,158.0,,,,,,,[],,,,,,56.4,0.0,i,1.0,False,988.8999999761581,60.0,60.0,40.0,False,,212.61717849625606,[],"[819.5, 461]",ColorTask,91.0,41.0,,,HRV,HRV_0036,2022-11-30 17:59:48
,wl-rdm,158,411736,0.0-8.41-0.41,1.0,159.0,,,,,,,[],,,,,,62.5,0.0,u,0.0,True,907.6000000238419,55.0,60.0,40.0,False,,267.16854128342055,[],"[819.5, 461]",ColorTask,92.0,42.0,,,HRV,HRV_0036,2022-11-30 17:59:48
,wl-rdm,159,413855,0.0-8.42-0.42,1.0,160.0,,,,,,,[],,,,,,87.9,0.0,u,0.0,True,795.6000000238419,48.0,60.0,40.0,False,,262.52481184056967,[],"[819.5, 461]",ColorTask,93.0,43.0,,,HRV,HRV_0036,2022-11-30 17:59:48
,wl-rdm,160,416524,0.0-8.43-0.43,1.0,161.0,,,,,,,[],,,,,,62.5,0.0,u,0.0,True,1312.6000000238419,79.0,60.0,40.0,False,,293.5838887939583,[],"[819.5, 461]",ColorTask,94.0,44.0,,,HRV,HRV_0036,2022-11-30 17:59:48
,wl-rdm,161,418726,0.0-8.44-0.44,1.0,162.0,,,,,,,[],,,,,,50.0,0.0,u,0.0,True,739.0,45.0,60.0,40.0,False,,383.88715358358877,[],"[819.5, 461]",ColorTask,95.0,45.0,,,HRV,HRV_0036,2022-11-30 17:59:48
,wl-rdm,162,421295,0.0-8.45-0.45,1.0,163.0,,,,,,,[],,,,,,53.2,0.0,u,0.0,True,1176.7000000476837,71.0,60.0,40.0,False,,324.7137831831699,[],"[819.5, 461]",ColorTask,96.0,46.0,,,HRV,HRV_0036,2022-11-30 17:59:48
,wl-rdm,163,423914,0.0-8.46-0.46,1.0,164.0,,,,,,,[],,,,,,53.2,0.0,u,0.0,True,1246.0,75.0,60.0,40.0,False,,311.09292575535864,[],"[819.5, 461]",ColorTask,97.0,47.0,,,HRV,HRV_0036,2022-11-30 17:59:48
,wl-rdm,164,426466,0.0-8.47-0.47,1.0,165.0,,,,,,,[],,,,,,56.4,0.0,u,0.0,True,1179.8999999761581,71.0,60.0,40.0,False,,306.9756808961343,[],"[819.5, 461]",ColorTask,98.0,48.0,,,HRV,HRV_0036,2022-11-30 17:59:48
,wl-rdm,165,428534,0.0-8.48-0.48,1.0,166.0,,,,,,,[],,,,,,87.9,0.0,u,0.0,True,770.4999998807907,47.0,60.0,40.0,False,,229.04364304845072,[],"[819.5, 461]",ColorTask,99.0,49.0,,,HRV,HRV_0036,2022-11-30 17:59:48
,wl-rdm,166,430920,0.0-8.49-0.49,1.0,167.0,,,,,,,[],,,,,,53.2,1.0,u,0.0,False,973.0000001192093,59.0,60.0,40.0,False,,336.2258456099024,[],"[819.5, 461]",ColorTask,98.0,50.0,,,HRV,HRV_0036,2022-11-30 17:59:48
,wl-rdm,167,433105,0.0-8.50-0.50,1.0,168.0,,,,,,,[],,,,,,73.6,0.0,u,0.0,True,838.2000000476837,51.0,60.0,40.0,False,,280.6836291232158,[],"[819.5, 461]",ColorTask,99.0,51.0,,,HRV,HRV_0036,2022-11-30 17:59:48
,wl-rdm,168,435174,0.0-8.51-0.51,1.0,169.0,,,,,,,[],,,,,,73.6,0.0,u,0.0,True,749.7999999523163,45.0,60.0,40.0,False,,265.6347993522256,[],"[819.5, 461]",ColorTask,100.0,52.0,,,HRV,HRV_0036,2022-11-30 17:59:48
,wl-rdm,169,437542,0.0-8.52-0.52,1.0,170.0,,,,,,,[],,,,,,50.0,1.0,u,0.0,False,1052.8999999761581,64.0,60.0,40.0,False,,242.01925365702795,[],"[819.5, 461]",ColorTask,99.0,53.0,,,HRV,HRV_0036,2022-11-30 17:59:48
,wl-rdm,170,439977,0.0-8.53-0.53,1.0,171.0,,,,,,,[],,,,,,50.0,1.0,i,1.0,True,1160.7999999523163,70.0,60.0,40.0,False,,204.1152722008527,[],"[819.5, 461]",ColorTask,100.0,54.0,,,HRV,HRV_0036,2022-11-30 17:59:48
,wl-rdm,171,442029,0.0-8.54-0.54,1.0,172.0,,,,,,,[],,,,,,50.0,0.0,i,1.0,False,668.3999999761581,41.0,60.0,40.0,False,,311.87631422732903,[],"[819.5, 461]",ColorTask,99.0,55.0,,,HRV,HRV_0036,2022-11-30 17:59:48
,wl-rdm,172,444131,0.0-8.55-0.55,1.0,173.0,,,,,,,[],,,,,,56.4,1.0,u,0.0,False,736.0999999046326,45.0,60.0,40.0,False,,292.21946221337333,[],"[819.5, 461]",ColorTask,98.0,56.0,,,HRV,HRV_0036,2022-11-30 17:59:48
,wl-rdm,173,446733,0.0-8.56-0.56,1.0,174.0,,,,,,,[],,,,,,53.2,0.0,i,1.0,False,1297.3000000715256,78.0,60.0,40.0,False,,243.36768085070648,[],"[819.5, 461]",ColorTask,97.0,57.0,,,HRV,HRV_0036,2022-11-30 17:59:48
,wl-rdm,174,448851,0.0-8.57-0.57,1.0,175.0,,,,,,,[],,,,,,87.9,0.0,u,0.0,True,670.0,41.0,60.0,40.0,False,,375.13854960889273,[],"[819.5, 461]",ColorTask,98.0,58.0,,,HRV,HRV_0036,2022-11-30 17:59:48
,wl-rdm,175,451086,0.0-8.58-0.58,1.0,176.0,,,,,,,[],,,,,,73.6,0.0,u,0.0,True,817.0,49.0,60.0,40.0,False,,365.4585250079327,[],"[819.5, 461]",ColorTask,99.0,59.0,,,HRV,HRV_0036,2022-11-30 17:59:48
,wl-rdm,176,453121,0.0-8.59-0.59,1.0,177.0,,,,,,,[],,,,,,87.9,0.0,u,0.0,True,687.1999999284744,42.0,60.0,40.0,False,,282.28085360904134,[],"[819.5, 461]",ColorTask,100.0,60.0,,,HRV,HRV_0036,2022-11-30 17:59:48
,wl-rdm,177,455790,0.0-8.60-0.60,1.0,178.0,,,,,,,[],,,,,,53.2,0.0,u,0.0,True,1242.8000000715256,75.0,60.0,40.0,False,,357.8690005790653,[],"[819.5, 461]",ColorTask,101.0,61.0,,,HRV,HRV_0036,2022-11-30 17:59:48
,wl-rdm,178,458159,0.0-8.61-0.61,1.0,179.0,,,,,,,[],,,,,,56.4,1.0,i,1.0,True,905.1000000238419,55.0,60.0,40.0,False,,395.69394191048536,[],"[819.5, 461]",ColorTask,102.0,62.0,,,HRV,HRV_0036,2022-11-30 17:59:48
,wl-rdm,179,460144,0.0-8.62-0.62,1.0,180.0,,,,,,,[],,,,,,50.0,0.0,i,1.0,False,672.5999999046326,41.0,60.0,40.0,False,,246.3162216139238,[],"[819.5, 461]",ColorTask,101.0,63.0,,,HRV,HRV_0036,2022-11-30 17:59:48
,wl-rdm,180,462229,0.0-8.63-0.63,1.0,181.0,,,,,,,[],,,,,,53.2,1.0,u,0.0,False,798.5,48.0,60.0,40.0,False,,228.57131109320906,[],"[819.5, 461]",ColorTask,100.0,64.0,,,HRV,HRV_0036,2022-11-30 17:59:48
,wl-rdm,181,464547,0.0-8.64-0.64,1.0,182.0,,,,,,,[],,,,,,50.0,1.0,i,1.0,True,1040.0,63.0,60.0,40.0,False,,200.21846529900932,[],"[819.5, 461]",ColorTask,101.0,65.0,,,HRV,HRV_0036,2022-11-30 17:59:48
,wl-rdm,182,466499,0.0-8.65-0.65,1.0,183.0,,,,,,,[],,,,,,87.9,1.0,i,1.0,True,614.3999998569489,37.0,60.0,40.0,False,,269.363706541353,[],"[819.5, 461]",ColorTask,102.0,66.0,,,HRV,HRV_0036,2022-11-30 17:59:48
,wl-rdm,183,468484,0.0-8.66-0.66,1.0,184.0,,,,,,,[],,,,,,62.5,1.0,i,1.0,True,650.6000000238419,39.0,60.0,40.0,False,,265.4083280329221,[],"[819.5, 461]",ColorTask,103.0,67.0,,,HRV,HRV_0036,2022-11-30 17:59:48
,wl-rdm,184,470919,0.0-8.67-0.67,1.0,185.0,,,,,,,[],,,,,,56.4,1.0,i,1.0,True,981.3000000715256,59.0,60.0,40.0,False,,395.5675798011497,[],"[819.5, 461]",ColorTask,104.0,68.0,,,HRV,HRV_0036,2022-11-30 17:59:48
,wl-rdm,185,473172,0.0-8.68-0.68,1.0,186.0,,,,,,,[],,,,,,53.2,1.0,i,1.0,True,930.6000000238419,56.0,60.0,40.0,False,,250.35781074823728,[],"[819.5, 461]",ColorTask,105.0,69.0,,,HRV,HRV_0036,2022-11-30 17:59:48
,wl-rdm,186,475173,0.0-8.69-0.69,1.0,187.0,,,,,,,[],,,,,,62.5,1.0,i,1.0,True,642.4000000953674,39.0,60.0,40.0,False,,293.4497085439093,[],"[819.5, 461]",ColorTask,106.0,70.0,,,HRV,HRV_0036,2022-11-30 17:59:48
,wl-rdm,187,477558,0.0-8.70-0.70,1.0,188.0,,,,,,,[],,,,,,56.4,0.0,u,0.0,True,993.5,60.0,60.0,40.0,False,,330.5539247276598,[],"[819.5, 461]",ColorTask,107.0,71.0,,,HRV,HRV_0036,2022-11-30 17:59:48
,wl-rdm,188,479843,0.0-8.71-0.71,1.0,189.0,,,,,,,[],,,,,,53.2,0.0,i,1.0,False,969.8999999761581,59.0,60.0,40.0,False,,249.05357569370602,[],"[819.5, 461]",ColorTask,106.0,72.0,,,HRV,HRV_0036,2022-11-30 17:59:48
,wl-rdm,189,481995,0.0-8.72-0.72,1.0,190.0,,,,,,,[],,,,,,73.6,1.0,i,1.0,True,781.1999999284744,47.0,60.0,40.0,False,,311.6716280659735,[],"[819.5, 461]",ColorTask,107.0,73.0,,,HRV,HRV_0036,2022-11-30 17:59:48
,wl-rdm,190,485014,0.0-8.73-0.73,1.0,191.0,,,,,,,[],,,,,,50.0,1.0,u,0.0,False,1693.3999999761581,102.0,60.0,40.0,False,,261.6247492856076,[],"[819.5, 461]",ColorTask,106.0,74.0,,,HRV,HRV_0036,2022-11-30 17:59:48
,wl-rdm,191,487016,0.0-8.74-0.74,1.0,192.0,,,,,,,[],,,,,,50.0,0.0,i,1.0,False,714.6999999284744,43.0,60.0,40.0,False,,231.45522093349607,[],"[819.5, 461]",ColorTask,105.0,75.0,,,HRV,HRV_0036,2022-11-30 17:59:48
,wl-rdm,192,489434,0.0-8.75-0.75,1.0,193.0,,,,,,,[],,,,,,50.0,0.0,u,0.0,True,1107.8999999761581,67.0,60.0,40.0,False,,247.75080680304293,[],"[819.5, 461]",ColorTask,106.0,76.0,,,HRV,HRV_0036,2022-11-30 17:59:48
,wl-rdm,193,491603,0.0-8.76-0.76,1.0,194.0,,,,,,,[],,,,,,53.2,0.0,i,1.0,False,842.3999999761581,51.0,60.0,40.0,False,,261.8878186507947,[],"[819.5, 461]",ColorTask,105.0,77.0,,,HRV,HRV_0036,2022-11-30 17:59:48
,wl-rdm,194,494171,0.0-8.77-0.77,1.0,195.0,,,,,,,[],,,,,,62.5,0.0,u,0.0,True,1198.1000000238419,72.0,60.0,40.0,False,,307.8410336881016,[],"[819.5, 461]",ColorTask,106.0,78.0,,,HRV,HRV_0036,2022-11-30 17:59:48
,wl-rdm,195,496840,0.0-8.78-0.78,1.0,196.0,,,,,,,[],,,,,,56.4,1.0,i,1.0,True,1284.3999999761581,77.0,60.0,40.0,False,,315.08797495173576,[],"[819.5, 461]",ColorTask,107.0,79.0,,,HRV,HRV_0036,2022-11-30 17:59:48
,wl-rdm,196,499275,0.0-8.79-0.79,1.0,197.0,,,,,,,[],,,,,,56.4,0.0,i,1.0,False,1143.0999999046326,69.0,60.0,40.0,False,,220.87349955740777,[],"[819.5, 461]",ColorTask,106.0,80.0,,,HRV,HRV_0036,2022-11-30 17:59:48
,wl-rdm,197,501227,0.0-8.80-0.80,1.0,198.0,,,,,,,[],,,,,,73.6,1.0,i,1.0,True,683.6000000238419,41.0,60.0,40.0,False,,205.57357688979198,[],"[819.5, 461]",ColorTask,107.0,81.0,,,HRV,HRV_0036,2022-11-30 17:59:48
,wl-rdm,198,503546,0.0-8.81-0.81,1.0,199.0,,,,,,,[],,,,,,62.5,0.0,u,0.0,True,904.9000000953674,55.0,60.0,40.0,False,,336.1245427629598,[],"[819.5, 461]",ColorTask,108.0,82.0,,,HRV,HRV_0036,2022-11-30 17:59:48
,wl-rdm,199,506315,0.0-8.82-0.82,1.0,200.0,,,,,,,[],,,,,,56.4,0.0,u,0.0,True,1363.6000000238419,82.0,60.0,40.0,False,,350.40941263339727,[],"[819.5, 461]",ColorTask,109.0,83.0,,,HRV,HRV_0036,2022-11-30 17:59:48
,wl-rdm,200,508383,0.0-8.83-0.83,1.0,201.0,,,,,,,[],,,,,,87.9,1.0,i,1.0,True,777.3999999761581,47.0,60.0,40.0,False,,220.95428241627636,[],"[819.5, 461]",ColorTask,110.0,84.0,,,HRV,HRV_0036,2022-11-30 17:59:48
,wl-rdm,201,510552,0.0-8.84-0.84,1.0,202.0,,,,,,,[],,,,,,87.9,0.0,u,0.0,True,862.1000000238419,52.0,60.0,40.0,False,,240.5000027394354,[],"[819.5, 461]",ColorTask,111.0,85.0,,,HRV,HRV_0036,2022-11-30 17:59:48
,wl-rdm,202,512954,0.0-8.85-0.85,1.0,203.0,,,,,,,[],,,,,,56.4,1.0,i,1.0,True,1056.3999999761581,64.0,60.0,40.0,False,,269.2949779727722,[],"[819.5, 461]",ColorTask,112.0,86.0,,,HRV,HRV_0036,2022-11-30 17:59:48
,wl-rdm,203,515172,0.0-8.86-0.86,1.0,204.0,,,,,,,[],,,,,,87.9,1.0,i,1.0,True,919.5999999046326,56.0,60.0,40.0,False,,223.04672200538283,[],"[819.5, 461]",ColorTask,113.0,87.0,,,HRV,HRV_0036,2022-11-30 17:59:48
,wl-rdm,204,517791,0.0-8.87-0.87,1.0,205.0,,,,,,,[],,,,,,62.5,0.0,i,1.0,False,1182.0,71.0,60.0,40.0,False,,374.72171899258916,[],"[819.5, 461]",ColorTask,112.0,88.0,,,HRV,HRV_0036,2022-11-30 17:59:48
,wl-rdm,205,519776,0.0-8.88-0.88,1.0,206.0,,,,,,,[],,,,,,62.5,1.0,i,1.0,True,711.7000000476837,43.0,60.0,40.0,False,,203.54810586423147,[],"[819.5, 461]",ColorTask,113.0,89.0,,,HRV,HRV_0036,2022-11-30 17:59:48
,wl-rdm,206,522295,0.0-8.89-0.89,1.0,207.0,,,,,,,[],,,,,,62.5,1.0,i,1.0,True,1239.0,75.0,60.0,40.0,False,,209.09487269913336,[],"[819.5, 461]",ColorTask,114.0,90.0,,,HRV,HRV_0036,2022-11-30 17:59:48
,wl-rdm,207,524480,0.0-8.90-0.90,1.0,208.0,,,,,,,[],,,,,,50.0,1.0,u,0.0,False,787.6000000238419,48.0,60.0,40.0,False,,329.53108168552023,[],"[819.5, 461]",ColorTask,113.0,91.0,,,HRV,HRV_0036,2022-11-30 17:59:48
,wl-rdm,208,526482,0.0-8.91-0.91,1.0,209.0,,,,,,,[],,,,,,62.5,1.0,i,1.0,True,621.0000001192093,38.0,60.0,40.0,False,,307.2509059713245,[],"[819.5, 461]",ColorTask,114.0,92.0,,,HRV,HRV_0036,2022-11-30 17:59:48
,wl-rdm,209,529000,0.0-8.92-0.92,1.0,210.0,,,,,,,[],,,,,,53.2,0.0,i,1.0,False,1148.8999999761581,69.0,60.0,40.0,False,,310.90474510831046,[],"[819.5, 461]",ColorTask,113.0,93.0,,,HRV,HRV_0036,2022-11-30 17:59:48
,wl-rdm,210,531385,0.0-8.93-0.93,1.0,211.0,,,,,,,[],,,,,,56.4,1.0,i,1.0,True,1110.3999999761581,67.0,60.0,40.0,False,,216.96420808663612,[],"[819.5, 461]",ColorTask,114.0,94.0,,,HRV,HRV_0036,2022-11-30 17:59:48
,wl-rdm,211,533454,0.0-8.94-0.94,1.0,212.0,,,,,,,[],,,,,,87.9,0.0,u,0.0,True,721.7999999523163,44.0,60.0,40.0,False,,279.20113931879644,[],"[819.5, 461]",ColorTask,115.0,95.0,,,HRV,HRV_0036,2022-11-30 17:59:48
,wl-rdm,212,535723,0.0-8.95-0.95,1.0,213.0,,,,,,,[],,,,,,50.0,1.0,i,1.0,True,970.0,59.0,60.0,40.0,False,,234.144964872978,[],"[819.5, 461]",ColorTask,116.0,96.0,,,HRV,HRV_0036,2022-11-30 17:59:48
,wl-rdm,213,538208,0.0-8.96-0.96,1.0,214.0,,,,,,,[],,,,,,56.4,0.0,u,0.0,True,1019.3999999761581,62.0,60.0,40.0,False,,398.2001142102634,[],"[819.5, 461]",ColorTask,117.0,97.0,,,HRV,HRV_0036,2022-11-30 17:59:48
,wl-rdm,214,540827,0.0-8.97-0.97,1.0,215.0,,,,,,,[],,,,,,56.4,0.0,i,1.0,False,1220.6999999284744,74.0,60.0,40.0,False,,327.21850625729155,[],"[819.5, 461]",ColorTask,116.0,98.0,,,HRV,HRV_0036,2022-11-30 17:59:48
,wl-rdm,215,542978,0.0-8.98-0.98,1.0,216.0,,,,,,,[],,,,,,87.9,0.0,u,0.0,True,822.7999999523163,50.0,60.0,40.0,False,,262.3841734856769,[],"[819.5, 461]",ColorTask,117.0,99.0,,,HRV,HRV_0036,2022-11-30 17:59:48
,wl-rdm,216,545546,0.0-8.99-0.99,1.0,217.0,,,,,,,[],,,,,,62.5,0.0,u,0.0,True,1175.8999999761581,71.0,60.0,40.0,False,,324.3468662543903,[],"[819.5, 461]",ColorTask,118.0,100.0,,,HRV,HRV_0036,2022-11-30 17:59:48
,wl-rdm,217,547782,0.0-8.100-0.100,1.0,218.0,,,,,,,[],,,,,,73.6,1.0,i,1.0,True,888.0,54.0,60.0,40.0,False,,252.41070041731686,[],"[819.5, 461]",ColorTask,119.0,101.0,,,HRV,HRV_0036,2022-11-30 17:59:48
,wl-rdm,218,549800,0.0-8.101-0.101,1.0,219.0,,,,,,,[],,,,,,87.9,1.0,i,1.0,True,740.7000000476837,45.0,60.0,40.0,False,,203.6559039961324,[],"[819.5, 461]",ColorTask,120.0,102.0,,,HRV,HRV_0036,2022-11-30 17:59:48
,wl-rdm,219,551685,0.0-8.102-0.102,1.0,220.0,,,,,,,[],,,,,,87.9,1.0,i,1.0,True,564.6999999284744,34.0,60.0,40.0,False,,254.55359111648738,[],"[819.5, 461]",ColorTask,121.0,103.0,,,HRV,HRV_0036,2022-11-30 17:59:48
,wl-rdm,220,553737,0.0-8.103-0.103,1.0,221.0,,,,,,,[],,,,,,50.0,0.0,u,0.0,True,778.3000000715256,47.0,60.0,40.0,False,,211.2323210754038,[],"[819.5, 461]",ColorTask,122.0,104.0,,,HRV,HRV_0036,2022-11-30 17:59:48
,wl-rdm,221,555789,0.0-8.104-0.104,1.0,222.0,,,,,,,[],,,,,,62.5,1.0,i,1.0,True,585.6999999284744,36.0,60.0,40.0,False,,383.78027274508577,[],"[819.5, 461]",ColorTask,123.0,105.0,,,HRV,HRV_0036,2022-11-30 17:59:48
,wl-rdm,222,557807,0.0-8.105-0.105,1.0,223.0,,,,,,,[],,,,,,73.6,1.0,i,1.0,True,660.5,40.0,60.0,40.0,False,,289.67787230173,[],"[819.5, 461]",ColorTask,124.0,106.0,,,HRV,HRV_0036,2022-11-30 17:59:48
,wl-rdm,223,560109,0.0-8.106-0.106,1.0,224.0,,,,,,,[],,,,,,73.6,0.0,u,0.0,True,1029.8999999761581,62.0,60.0,40.0,False,,211.81118872329048,[],"[819.5, 461]",ColorTask,125.0,107.0,,,HRV,HRV_0036,2022-11-30 17:59:48
,wl-rdm,224,562427,0.0-8.107-0.107,1.0,225.0,,,,,,,[],,,,,,53.2,1.0,i,1.0,True,1002.8000000715256,61.0,60.0,40.0,False,,237.14547361218996,[],"[819.5, 461]",ColorTask,126.0,108.0,,,HRV,HRV_0036,2022-11-30 17:59:48
,wl-html-button-response,225,567363,0.0-9.0-0.0,,,,,,,,,,4931.200000047684,,0,,,,,,,,,,,,,,,,,,,,<h3>End of this session. Thank you!</h3><br>,['Close window'],HRV,HRV_0036,2022-11-30 17:59:48
