trialN,stimuli,trialStartTime,trialStartTime_UNIX,stimulus1,stimulus2,stimulus1Bid,stimulus2Bid,delta,selected,rt,rt_UNIX,rt_perfnow,receivedResponse,rsp,trialEndTime,trialDuration,trialEndTime_UNIX,trialDuration_UNIX,exp,subjectId,date
0,"[{'imgObject': {}, 'id': 'seaweed', 'src': '/static/foodstim60/seaweed.jpg', 'key': 'u', 'origWidth': 410, 'origHeight': 410, 'width': 410, 'height': 410, 'widthPercent': 0.45, 'rescaleHeight': False, 'trialN': 0, 'loaded': True, 'loadedTime': 3967.399999976158, 'positionName': 'LEFT', 'positionCoords': [376.72, 256], 'bid': 1.69}, {'imgObject': {}, 'id': 'ice cream sundae 002', 'src': '/static/foodstim60/ice cream sundae 002.jpg', 'key': 'i', 'origWidth': 409, 'origHeight': 409, 'width': 409, 'height': 409, 'widthPercent': 0.45, 'rescaleHeight': False, 'trialN': 0, 'loaded': True, 'loadedTime': 4007.899999976158, 'positionName': 'RIGHT', 'positionCoords': [852.28, 256.5], 'bid': 1.16}]",4947.700000047684,1669829314449,seaweed,ice cream sundae 002,1.69,1.16,-0.53,ice cream sundae 002,1396.5,1400,1400.2999999523163,True,i,6848.600000023842,1900.8999999761581,1669829316350,1901,HRV,HRV_0036,2022-11-30 17:34:21
1,"[{'imgObject': {}, 'id': 'froot loops w milk', 'src': '/static/foodstim60/froot loops w milk.jpg', 'key': 'u', 'origWidth': 410, 'origHeight': 410, 'width': 410, 'height': 410, 'widthPercent': 0.45, 'rescaleHeight': False, 'trialN': 1, 'loaded': True, 'loadedTime': 4017.2000000476837, 'positionName': 'LEFT', 'positionCoords': [376.72, 256], 'bid': 0.72}, {'imgObject': {}, 'id': 'burger', 'src': '/static/foodstim60/burger.jpg', 'key': 'i', 'origWidth': 409, 'origHeight': 409, 'width': 409, 'height': 409, 'widthPercent': 0.45, 'rescaleHeight': False, 'trialN': 1, 'loaded': True, 'loadedTime': 4023.100000023842, 'positionName': 'RIGHT', 'positionCoords': [852.28, 256.5], 'bid': 3.04}]",6848.899999976158,1669829316350,froot loops w milk,burger,0.72,3.04,2.3200000000000003,burger,994.6000000238419,995,995.1000000238419,True,i,8351.899999976158,1503.0,1669829317853,1503,HRV,HRV_0036,2022-11-30 17:34:21
2,"[{'imgObject': {}, 'id': 'steak', 'src': '/static/foodstim60/steak.jpg', 'key': 'u', 'origWidth': 410, 'origHeight': 410, 'width': 410, 'height': 410, 'widthPercent': 0.45, 'rescaleHeight': False, 'trialN': 2, 'loaded': True, 'loadedTime': 4025.399999976158, 'positionName': 'LEFT', 'positionCoords': [376.72, 256], 'bid': 8.700000000000001}, {'imgObject': {}, 'id': 'fried eggs', 'src': '/static/foodstim60/fried eggs.jpg', 'key': 'i', 'origWidth': 410, 'origHeight': 410, 'width': 410, 'height': 410, 'widthPercent': 0.45, 'rescaleHeight': False, 'trialN': 2, 'loaded': True, 'loadedTime': 4018.8000000715256, 'positionName': 'RIGHT', 'positionCoords': [852.28, 256], 'bid': 8.58}]",8352.200000047684,1669829317853,steak,fried eggs,8.700000000000001,8.58,-0.120000000000001,steak,924.6999999284744,925,925.2999999523163,True,u,9784.300000071526,1432.1000000238419,1669829319285,1432,HRV,HRV_0036,2022-11-30 17:34:21
3,"[{'imgObject': {}, 'id': 'sushi w_condiments', 'src': '/static/foodstim60/sushi w_condiments.jpg', 'key': 'u', 'origWidth': 410, 'origHeight': 410, 'width': 410, 'height': 410, 'widthPercent': 0.45, 'rescaleHeight': False, 'trialN': 3, 'loaded': True, 'loadedTime': 4028, 'positionName': 'LEFT', 'positionCoords': [376.72, 256], 'bid': 0.17}, {'imgObject': {}, 'id': 'pear', 'src': '/static/foodstim60/pear.jpg', 'key': 'i', 'origWidth': 411, 'origHeight': 410, 'width': 411, 'height': 410, 'widthPercent': 0.45, 'rescaleHeight': False, 'trialN': 3, 'loaded': True, 'loadedTime': 4031.3000000715256, 'positionName': 'RIGHT', 'positionCoords': [852.28, 256], 'bid': 1.52}]",9784.5,1669829319285,sushi w_condiments,pear,0.17,1.52,1.35,pear,1603.2000000476837,1604,1603.8000000715256,True,i,11896.200000047684,2111.7000000476837,1669829321397,2112,HRV,HRV_0036,2022-11-30 17:34:21
4,"[{'imgObject': {}, 'id': 'yogurt no spoon', 'src': '/static/foodstim60/yogurt no spoon.jpg', 'key': 'u', 'origWidth': 411, 'origHeight': 410, 'width': 411, 'height': 410, 'widthPercent': 0.45, 'rescaleHeight': False, 'trialN': 4, 'loaded': True, 'loadedTime': 4033.2000000476837, 'positionName': 'LEFT', 'positionCoords': [375.72, 256], 'bid': 5.83}, {'imgObject': {}, 'id': 'mac & cheese', 'src': '/static/foodstim60/mac & cheese.jpg', 'key': 'i', 'origWidth': 410, 'origHeight': 410, 'width': 410, 'height': 410, 'widthPercent': 0.45, 'rescaleHeight': False, 'trialN': 4, 'loaded': True, 'loadedTime': 4034.7000000476837, 'positionName': 'RIGHT', 'positionCoords': [852.28, 256], 'bid': 5.7700000000000005}]",11896.399999976158,1669829321397,yogurt no spoon,mac & cheese,5.83,5.7700000000000005,-0.05999999999999961,mac & cheese,1694.2000000476837,1695,1694.8000000715256,True,i,14096.399999976158,2200.0,1669829323597,2200,HRV,HRV_0036,2022-11-30 17:34:21
5,"[{'imgObject': {}, 'id': 'roastedpotatoes', 'src': '/static/foodstim60/roastedpotatoes.jpg', 'key': 'u', 'origWidth': 409, 'origHeight': 410, 'width': 409, 'height': 410, 'widthPercent': 0.45, 'rescaleHeight': False, 'trialN': 5, 'loaded': True, 'loadedTime': 4036.899999976158, 'positionName': 'LEFT', 'positionCoords': [377.72, 256], 'bid': 6.55}, {'imgObject': {}, 'id': 'Tribe humus pita', 'src': '/static/foodstim60/Tribe humus pita.jpg', 'key': 'i', 'origWidth': 411, 'origHeight': 411, 'width': 411, 'height': 411, 'widthPercent': 0.45, 'rescaleHeight': False, 'trialN': 5, 'loaded': True, 'loadedTime': 4038.100000023842, 'positionName': 'RIGHT', 'positionCoords': [852.28, 255.5], 'bid': 3.96}]",14096.700000047684,1669829323598,roastedpotatoes,Tribe humus pita,6.55,3.96,-2.59,roastedpotatoes,1446.1000000238419,1446,1446.7999999523163,True,u,16049.0,1952.2999999523163,1669829325550,1952,HRV,HRV_0036,2022-11-30 17:34:21
6,"[{'imgObject': {}, 'id': 'burrito', 'src': '/static/foodstim60/burrito.jpg', 'key': 'u', 'origWidth': 410, 'origHeight': 410, 'width': 410, 'height': 410, 'widthPercent': 0.45, 'rescaleHeight': False, 'trialN': 6, 'loaded': True, 'loadedTime': 4040, 'positionName': 'LEFT', 'positionCoords': [376.72, 256], 'bid': 2.72}, {'imgObject': {}, 'id': 'chickenfingers', 'src': '/static/foodstim60/chickenfingers.jpg', 'key': 'i', 'origWidth': 410, 'origHeight': 410, 'width': 410, 'height': 410, 'widthPercent': 0.45, 'rescaleHeight': False, 'trialN': 6, 'loaded': True, 'loadedTime': 4049.899999976158, 'positionName': 'RIGHT', 'positionCoords': [852.28, 256], 'bid': 2.98}]",16049.100000023842,1669829325550,burrito,chickenfingers,2.72,2.98,0.2599999999999998,burrito,2081.100000023842,2082,2081.7000000476837,True,u,18631.899999976158,2582.7999999523163,1669829328133,2583,HRV,HRV_0036,2022-11-30 17:34:21
7,"[{'imgObject': {}, 'id': 'shreddedwheatwithmilk', 'src': '/static/foodstim60/shreddedwheatwithmilk.jpg', 'key': 'u', 'origWidth': 410, 'origHeight': 410, 'width': 410, 'height': 410, 'widthPercent': 0.45, 'rescaleHeight': False, 'trialN': 7, 'loaded': True, 'loadedTime': 4083.8000000715256, 'positionName': 'LEFT', 'positionCoords': [376.72, 256], 'bid': 2.22}, {'imgObject': {}, 'id': 'fried eggs', 'src': '/static/foodstim60/fried eggs.jpg', 'key': 'i', 'origWidth': 410, 'origHeight': 410, 'width': 410, 'height': 410, 'widthPercent': 0.45, 'rescaleHeight': False, 'trialN': 7, 'loaded': True, 'loadedTime': 4019.7000000476837, 'positionName': 'RIGHT', 'positionCoords': [852.28, 256], 'bid': 8.58}]",18632.100000023842,1669829328133,shreddedwheatwithmilk,fried eggs,2.22,8.58,6.359999999999999,fried eggs,1013.7999999523163,1014,1014.5,True,i,20152.0,1519.8999999761581,1669829329653,1520,HRV,HRV_0036,2022-11-30 17:34:21
8,"[{'imgObject': {}, 'id': 'edamame', 'src': '/static/foodstim60/edamame.jpg', 'key': 'u', 'origWidth': 409, 'origHeight': 410, 'width': 409, 'height': 410, 'widthPercent': 0.45, 'rescaleHeight': False, 'trialN': 8, 'loaded': True, 'loadedTime': 4113.800000071526, 'positionName': 'LEFT', 'positionCoords': [377.72, 256], 'bid': 1.66}, {'imgObject': {}, 'id': 'blackbeanswithrice', 'src': '/static/foodstim60/blackbeanswithrice.jpg', 'key': 'i', 'origWidth': 410, 'origHeight': 410, 'width': 410, 'height': 410, 'widthPercent': 0.45, 'rescaleHeight': False, 'trialN': 8, 'loaded': True, 'loadedTime': 4173.800000071526, 'positionName': 'RIGHT', 'positionCoords': [852.28, 256], 'bid': 1.61}]",20152.100000023842,1669829329653,edamame,blackbeanswithrice,1.66,1.61,-0.04999999999999982,edamame,1340.2999999523163,1341,1340.7999999523163,True,u,22000.899999976158,1848.7999999523163,1669829331502,1849,HRV,HRV_0036,2022-11-30 17:34:21
9,"[{'imgObject': {}, 'id': 'cherries', 'src': '/static/foodstim60/cherries.jpg', 'key': 'u', 'origWidth': 410, 'origHeight': 411, 'width': 410, 'height': 411, 'widthPercent': 0.45, 'rescaleHeight': False, 'trialN': 9, 'loaded': True, 'loadedTime': 4205.600000023842, 'positionName': 'LEFT', 'positionCoords': [376.72, 255.5], 'bid': 5.92}, {'imgObject': {}, 'id': 'blueberries', 'src': '/static/foodstim60/blueberries.jpg', 'key': 'i', 'origWidth': 411, 'origHeight': 411, 'width': 411, 'height': 411, 'widthPercent': 0.45, 'rescaleHeight': False, 'trialN': 9, 'loaded': True, 'loadedTime': 4206.100000023842, 'positionName': 'RIGHT', 'positionCoords': [852.28, 255.5], 'bid': 5.79}]",22001.200000047684,1669829331502,cherries,blueberries,5.92,5.79,-0.1299999999999999,cherries,1363,1364,1363.6000000238419,True,u,23871.899999976158,1870.6999999284744,1669829333373,1871,HRV,HRV_0036,2022-11-30 17:34:21
10,"[{'imgObject': {}, 'id': 'apple slices', 'src': '/static/foodstim60/apple slices.jpg', 'key': 'u', 'origWidth': 409, 'origHeight': 410, 'width': 409, 'height': 410, 'widthPercent': 0.45, 'rescaleHeight': False, 'trialN': 10, 'loaded': True, 'loadedTime': 4208.200000047684, 'positionName': 'LEFT', 'positionCoords': [377.72, 256], 'bid': 1.72}, {'imgObject': {}, 'id': 'hashbrowns', 'src': '/static/foodstim60/hashbrowns.jpg', 'key': 'i', 'origWidth': 411, 'origHeight': 410, 'width': 411, 'height': 410, 'widthPercent': 0.45, 'rescaleHeight': False, 'trialN': 10, 'loaded': True, 'loadedTime': 4266.600000023842, 'positionName': 'RIGHT', 'positionCoords': [852.28, 256], 'bid': 1.19}]",23872.200000047684,1669829333373,apple slices,hashbrowns,1.72,1.19,-0.53,apple slices,1493.5,1494,1494.0,True,u,25873.300000071526,2001.1000000238419,1669829335374,2001,HRV,HRV_0036,2022-11-30 17:34:21
11,"[{'imgObject': {}, 'id': 'turkeysandwich', 'src': '/static/foodstim60/turkeysandwich.jpg', 'key': 'u', 'origWidth': 409, 'origHeight': 409, 'width': 409, 'height': 409, 'widthPercent': 0.45, 'rescaleHeight': False, 'trialN': 11, 'loaded': True, 'loadedTime': 4296.700000047684, 'positionName': 'LEFT', 'positionCoords': [377.72, 256.5], 'bid': 1.87}, {'imgObject': {}, 'id': 'cantaloupe', 'src': '/static/foodstim60/cantaloupe.jpg', 'key': 'i', 'origWidth': 409, 'origHeight': 409, 'width': 409, 'height': 409, 'widthPercent': 0.45, 'rescaleHeight': False, 'trialN': 11, 'loaded': True, 'loadedTime': 4351.300000071526, 'positionName': 'RIGHT', 'positionCoords': [852.28, 256.5], 'bid': 1.84}]",25873.600000023842,1669829335374,turkeysandwich,cantaloupe,1.87,1.84,-0.030000000000000027,cantaloupe,1953.6000000238419,1955,1954.1000000238419,True,i,28328.5,2454.899999976158,1669829337829,2455,HRV,HRV_0036,2022-11-30 17:34:21
12,"[{'imgObject': {}, 'id': 'rigatoni and sauce', 'src': '/static/foodstim60/rigatoni and sauce.jpg', 'key': 'u', 'origWidth': 410, 'origHeight': 411, 'width': 410, 'height': 411, 'widthPercent': 0.45, 'rescaleHeight': False, 'trialN': 12, 'loaded': True, 'loadedTime': 4352.700000047684, 'positionName': 'LEFT', 'positionCoords': [376.72, 255.5], 'bid': 3.73}, {'imgObject': {}, 'id': 'cantaloupe', 'src': '/static/foodstim60/cantaloupe.jpg', 'key': 'i', 'origWidth': 409, 'origHeight': 409, 'width': 409, 'height': 409, 'widthPercent': 0.45, 'rescaleHeight': False, 'trialN': 12, 'loaded': True, 'loadedTime': 4350.700000047684, 'positionName': 'RIGHT', 'positionCoords': [852.28, 256.5], 'bid': 1.84}]",28328.800000071526,1669829337830,rigatoni and sauce,cantaloupe,3.73,1.84,-1.89,rigatoni and sauce,1198.7999999523163,1199,1199.0999999046326,True,u,30032.300000071526,1703.5,1669829339533,1703,HRV,HRV_0036,2022-11-30 17:34:21
13,"[{'imgObject': {}, 'id': 'Grapes', 'src': '/static/foodstim60/Grapes.jpg', 'key': 'u', 'origWidth': 411, 'origHeight': 411, 'width': 411, 'height': 411, 'widthPercent': 0.45, 'rescaleHeight': False, 'trialN': 13, 'loaded': True, 'loadedTime': 4398.200000047684, 'positionName': 'LEFT', 'positionCoords': [375.72, 255.5], 'bid': 6.29}, {'imgObject': {}, 'id': 'omelette', 'src': '/static/foodstim60/omelette.jpg', 'key': 'i', 'origWidth': 410, 'origHeight': 409, 'width': 410, 'height': 409, 'widthPercent': 0.45, 'rescaleHeight': False, 'trialN': 13, 'loaded': True, 'loadedTime': 4398.300000071526, 'positionName': 'RIGHT', 'positionCoords': [852.28, 256.5], 'bid': 8.58}]",30032.5,1669829339533,Grapes,omelette,6.29,8.58,2.29,Grapes,918.2000000476837,919,918.7000000476837,True,u,31457.5,1425.0,1669829340958,1425,HRV,HRV_0036,2022-11-30 17:34:21
14,"[{'imgObject': {}, 'id': 'apple slices', 'src': '/static/foodstim60/apple slices.jpg', 'key': 'u', 'origWidth': 409, 'origHeight': 410, 'width': 409, 'height': 410, 'widthPercent': 0.45, 'rescaleHeight': False, 'trialN': 14, 'loaded': True, 'loadedTime': 4233.399999976158, 'positionName': 'LEFT', 'positionCoords': [377.72, 256], 'bid': 1.72}, {'imgObject': {}, 'id': 'strawberries', 'src': '/static/foodstim60/strawberries.jpg', 'key': 'i', 'origWidth': 410, 'origHeight': 410, 'width': 410, 'height': 410, 'widthPercent': 0.45, 'rescaleHeight': False, 'trialN': 14, 'loaded': True, 'loadedTime': 4422.899999976158, 'positionName': 'RIGHT', 'positionCoords': [852.28, 256], 'bid': 5.95}]",31457.700000047684,1669829340959,apple slices,strawberries,1.72,5.95,4.23,strawberries,1062.6000000238419,1062,1062.8999999761581,True,i,33024.5,1566.7999999523163,1669829342525,1566,HRV,HRV_0036,2022-11-30 17:34:21
15,"[{'imgObject': {}, 'id': 'edamame', 'src': '/static/foodstim60/edamame.jpg', 'key': 'u', 'origWidth': 409, 'origHeight': 410, 'width': 409, 'height': 410, 'widthPercent': 0.45, 'rescaleHeight': False, 'trialN': 15, 'loaded': True, 'loadedTime': 4111.700000047684, 'positionName': 'LEFT', 'positionCoords': [377.72, 256], 'bid': 1.66}, {'imgObject': {}, 'id': 'sweetpotato', 'src': '/static/foodstim60/sweetpotato.jpg', 'key': 'i', 'origWidth': 410, 'origHeight': 410, 'width': 410, 'height': 410, 'widthPercent': 0.45, 'rescaleHeight': False, 'trialN': 15, 'loaded': True, 'loadedTime': 4446.700000047684, 'positionName': 'RIGHT', 'positionCoords': [852.28, 256], 'bid': 1.57}]",33024.700000047684,1669829342526,edamame,sweetpotato,1.66,1.57,-0.08999999999999986,edamame,1447.8999999761581,1448,1448.3999999761581,True,u,34976.0,1951.2999999523163,1669829344477,1951,HRV,HRV_0036,2022-11-30 17:34:21
16,"[{'imgObject': {}, 'id': 'cherries', 'src': '/static/foodstim60/cherries.jpg', 'key': 'u', 'origWidth': 410, 'origHeight': 411, 'width': 410, 'height': 411, 'widthPercent': 0.45, 'rescaleHeight': False, 'trialN': 16, 'loaded': True, 'loadedTime': 4206, 'positionName': 'LEFT', 'positionCoords': [376.72, 255.5], 'bid': 5.92}, {'imgObject': {}, 'id': 'yogurt no spoon', 'src': '/static/foodstim60/yogurt no spoon.jpg', 'key': 'i', 'origWidth': 411, 'origHeight': 410, 'width': 411, 'height': 410, 'widthPercent': 0.45, 'rescaleHeight': False, 'trialN': 16, 'loaded': True, 'loadedTime': 4033.5, 'positionName': 'RIGHT', 'positionCoords': [852.28, 256], 'bid': 5.83}]",34976.300000071526,1669829344477,cherries,yogurt no spoon,5.92,5.83,-0.08999999999999986,cherries,1285.7999999523163,1287,1286.5,True,u,36768.10000002384,1791.7999999523163,1669829346269,1792,HRV,HRV_0036,2022-11-30 17:34:21
17,"[{'imgObject': {}, 'id': 'eggsalad', 'src': '/static/foodstim60/eggsalad.jpg', 'key': 'u', 'origWidth': 410, 'origHeight': 409, 'width': 410, 'height': 409, 'widthPercent': 0.45, 'rescaleHeight': False, 'trialN': 17, 'loaded': True, 'loadedTime': 4472, 'positionName': 'LEFT', 'positionCoords': [376.72, 256.5], 'bid': 6.72}, {'imgObject': {}, 'id': 'avocado', 'src': '/static/foodstim60/avocado.jpg', 'key': 'i', 'origWidth': 409, 'origHeight': 409, 'width': 409, 'height': 409, 'widthPercent': 0.45, 'rescaleHeight': False, 'trialN': 17, 'loaded': True, 'loadedTime': 4494.899999976158, 'positionName': 'RIGHT', 'positionCoords': [852.28, 256.5], 'bid': 8.69}]",36768.300000071526,1669829346269,eggsalad,avocado,6.72,8.69,1.9699999999999998,avocado,1638,1639,1638.2999999523163,True,i,38912.39999997616,2144.0999999046326,1669829348413,2144,HRV,HRV_0036,2022-11-30 17:34:21
18,"[{'imgObject': {}, 'id': 'salad w chicken', 'src': '/static/foodstim60/salad w chicken.jpg', 'key': 'u', 'origWidth': 411, 'origHeight': 411, 'width': 411, 'height': 411, 'widthPercent': 0.45, 'rescaleHeight': False, 'trialN': 18, 'loaded': True, 'loadedTime': 4496, 'positionName': 'LEFT', 'positionCoords': [375.72, 255.5], 'bid': 1.69}, {'imgObject': {}, 'id': 'apple slices', 'src': '/static/foodstim60/apple slices.jpg', 'key': 'i', 'origWidth': 409, 'origHeight': 410, 'width': 409, 'height': 410, 'widthPercent': 0.45, 'rescaleHeight': False, 'trialN': 18, 'loaded': True, 'loadedTime': 4264.700000047684, 'positionName': 'RIGHT', 'positionCoords': [852.28, 256], 'bid': 1.72}]",38912.60000002384,1669829348414,salad w chicken,apple slices,1.69,1.72,0.030000000000000027,apple slices,2162,2162,2162.600000023842,True,i,41576.800000071526,2664.2000000476837,1669829351078,2664,HRV,HRV_0036,2022-11-30 17:34:21
19,"[{'imgObject': {}, 'id': 'avocado', 'src': '/static/foodstim60/avocado.jpg', 'key': 'u', 'origWidth': 409, 'origHeight': 409, 'width': 409, 'height': 409, 'widthPercent': 0.45, 'rescaleHeight': False, 'trialN': 19, 'loaded': True, 'loadedTime': 4494.800000071526, 'positionName': 'LEFT', 'positionCoords': [377.72, 256.5], 'bid': 8.69}, {'imgObject': {}, 'id': 'baked potato', 'src': '/static/foodstim60/baked potato.jpg', 'key': 'i', 'origWidth': 409, 'origHeight': 410, 'width': 409, 'height': 410, 'widthPercent': 0.45, 'rescaleHeight': False, 'trialN': 19, 'loaded': True, 'loadedTime': 4518.200000047684, 'positionName': 'RIGHT', 'positionCoords': [852.28, 256], 'bid': 4.9}]",41577.0,1669829351078,avocado,baked potato,8.69,4.9,-3.789999999999999,avocado,1076.1000000238419,1077,1076.7000000476837,True,u,43160.0,1583.0,1669829352661,1583,HRV,HRV_0036,2022-11-30 17:34:21
20,"[{'imgObject': {}, 'id': 'fried eggs', 'src': '/static/foodstim60/fried eggs.jpg', 'key': 'u', 'origWidth': 410, 'origHeight': 410, 'width': 410, 'height': 410, 'widthPercent': 0.45, 'rescaleHeight': False, 'trialN': 20, 'loaded': True, 'loadedTime': 4017.399999976158, 'positionName': 'LEFT', 'positionCoords': [376.72, 256], 'bid': 8.58}, {'imgObject': {}, 'id': 'avocado', 'src': '/static/foodstim60/avocado.jpg', 'key': 'i', 'origWidth': 409, 'origHeight': 409, 'width': 409, 'height': 409, 'widthPercent': 0.45, 'rescaleHeight': False, 'trialN': 20, 'loaded': True, 'loadedTime': 4493.800000071526, 'positionName': 'RIGHT', 'positionCoords': [852.28, 256.5], 'bid': 8.69}]",43160.300000071526,1669829352661,fried eggs,avocado,8.58,8.69,0.10999999999999943,fried eggs,1306.7999999523163,1307,1307.1999999284744,True,u,44968.300000071526,1808.0,1669829354469,1808,HRV,HRV_0036,2022-11-30 17:34:21
21,"[{'imgObject': {}, 'id': 'blackbeanswithrice', 'src': '/static/foodstim60/blackbeanswithrice.jpg', 'key': 'u', 'origWidth': 410, 'origHeight': 410, 'width': 410, 'height': 410, 'widthPercent': 0.45, 'rescaleHeight': False, 'trialN': 21, 'loaded': True, 'loadedTime': 4174.200000047684, 'positionName': 'LEFT', 'positionCoords': [376.72, 256], 'bid': 1.61}, {'imgObject': {}, 'id': 'salmon', 'src': '/static/foodstim60/salmon.jpg', 'key': 'i', 'origWidth': 410, 'origHeight': 409, 'width': 410, 'height': 409, 'widthPercent': 0.45, 'rescaleHeight': False, 'trialN': 21, 'loaded': True, 'loadedTime': 4552.600000023842, 'positionName': 'RIGHT', 'positionCoords': [852.28, 256.5], 'bid': 1.56}]",44968.60000002384,1669829354469,blackbeanswithrice,salmon,1.61,1.56,-0.050000000000000044,salmon,1550.7000000476837,1552,1551.2000000476837,True,i,47025.39999997616,2056.7999999523163,1669829356526,2057,HRV,HRV_0036,2022-11-30 17:34:21
22,"[{'imgObject': {}, 'id': 'strawberries', 'src': '/static/foodstim60/strawberries.jpg', 'key': 'u', 'origWidth': 410, 'origHeight': 410, 'width': 410, 'height': 410, 'widthPercent': 0.45, 'rescaleHeight': False, 'trialN': 22, 'loaded': True, 'loadedTime': 4422.899999976158, 'positionName': 'LEFT', 'positionCoords': [376.72, 256], 'bid': 5.95}, {'imgObject': {}, 'id': 'turkey sandwich', 'src': '/static/foodstim60/turkey sandwich.jpg', 'key': 'i', 'origWidth': 409, 'origHeight': 409, 'width': 409, 'height': 409, 'widthPercent': 0.45, 'rescaleHeight': False, 'trialN': 22, 'loaded': True, 'loadedTime': 4633, 'positionName': 'RIGHT', 'positionCoords': [852.28, 256.5], 'bid': 3.77}]",47025.5,1669829356526,strawberries,turkey sandwich,5.95,3.77,-2.18,strawberries,1356.7000000476837,1358,1357.2000000476837,True,u,48888.89999997616,1863.3999999761581,1669829358390,1864,HRV,HRV_0036,2022-11-30 17:34:21
23,"[{'imgObject': {}, 'id': 'turkey sandwich', 'src': '/static/foodstim60/turkey sandwich.jpg', 'key': 'u', 'origWidth': 409, 'origHeight': 409, 'width': 409, 'height': 409, 'widthPercent': 0.45, 'rescaleHeight': False, 'trialN': 23, 'loaded': True, 'loadedTime': 4636.700000047684, 'positionName': 'LEFT', 'positionCoords': [377.72, 256.5], 'bid': 3.77}, {'imgObject': {}, 'id': 'Tribe humus pita', 'src': '/static/foodstim60/Tribe humus pita.jpg', 'key': 'i', 'origWidth': 411, 'origHeight': 411, 'width': 411, 'height': 411, 'widthPercent': 0.45, 'rescaleHeight': False, 'trialN': 23, 'loaded': True, 'loadedTime': 4038.3000000715256, 'positionName': 'RIGHT', 'positionCoords': [852.28, 255.5], 'bid': 3.96}]",48889.10000002384,1669829358390,turkey sandwich,Tribe humus pita,3.77,3.96,0.18999999999999995,turkey sandwich,1746.2999999523163,1747,1746.7000000476837,True,u,51136.300000071526,2247.2000000476837,1669829360637,2247,HRV,HRV_0036,2022-11-30 17:34:21
24,"[{'imgObject': {}, 'id': 'raspberries', 'src': '/static/foodstim60/raspberries.jpg', 'key': 'u', 'origWidth': 411, 'origHeight': 411, 'width': 411, 'height': 411, 'widthPercent': 0.45, 'rescaleHeight': False, 'trialN': 24, 'loaded': True, 'loadedTime': 4645.200000047684, 'positionName': 'LEFT', 'positionCoords': [375.72, 255.5], 'bid': 4.09}, {'imgObject': {}, 'id': 'veggieswithdip', 'src': '/static/foodstim60/veggieswithdip.jpg', 'key': 'i', 'origWidth': 409, 'origHeight': 409, 'width': 409, 'height': 409, 'widthPercent': 0.45, 'rescaleHeight': False, 'trialN': 24, 'loaded': True, 'loadedTime': 4688.700000047684, 'positionName': 'RIGHT', 'positionCoords': [852.28, 256.5], 'bid': 4.1}]",51136.5,1669829360637,raspberries,veggieswithdip,4.09,4.1,0.009999999999999787,veggieswithdip,1729.3000000715256,1730,1729.8000000715256,True,i,53369.200000047684,2232.7000000476837,1669829362870,2233,HRV,HRV_0036,2022-11-30 17:34:21
25,"[{'imgObject': {}, 'id': 'popsicles', 'src': '/static/foodstim60/popsicles.jpg', 'key': 'u', 'origWidth': 410, 'origHeight': 410, 'width': 410, 'height': 410, 'widthPercent': 0.45, 'rescaleHeight': False, 'trialN': 25, 'loaded': True, 'loadedTime': 4947.200000047684, 'positionName': 'LEFT', 'positionCoords': [376.72, 256], 'bid': 0.8300000000000001}, {'imgObject': {}, 'id': 'froot loops w milk', 'src': '/static/foodstim60/froot loops w milk.jpg', 'key': 'i', 'origWidth': 410, 'origHeight': 410, 'width': 410, 'height': 410, 'widthPercent': 0.45, 'rescaleHeight': False, 'trialN': 25, 'loaded': True, 'loadedTime': 4013.8000000715256, 'positionName': 'RIGHT', 'positionCoords': [852.28, 256], 'bid': 0.72}]",53369.39999997616,1669829362870,popsicles,froot loops w milk,0.8300000000000001,0.72,-0.1100000000000001,froot loops w milk,1302.4000000953674,1303,1302.8000000715256,True,i,55176.60000002384,1807.2000000476837,1669829364678,1808,HRV,HRV_0036,2022-11-30 17:34:21
26,"[{'imgObject': {}, 'id': 'seaweed', 'src': '/static/foodstim60/seaweed.jpg', 'key': 'u', 'origWidth': 410, 'origHeight': 410, 'width': 410, 'height': 410, 'widthPercent': 0.45, 'rescaleHeight': False, 'trialN': 26, 'loaded': True, 'loadedTime': 3966, 'positionName': 'LEFT', 'positionCoords': [376.72, 256], 'bid': 1.69}, {'imgObject': {}, 'id': 'cherries', 'src': '/static/foodstim60/cherries.jpg', 'key': 'i', 'origWidth': 410, 'origHeight': 411, 'width': 410, 'height': 411, 'widthPercent': 0.45, 'rescaleHeight': False, 'trialN': 26, 'loaded': True, 'loadedTime': 4205.100000023842, 'positionName': 'RIGHT', 'positionCoords': [852.28, 255.5], 'bid': 5.92}]",55176.89999997616,1669829364678,seaweed,cherries,1.69,5.92,4.23,cherries,1129.1000000238419,1129,1129.5,True,i,56808.60000002384,1631.7000000476837,1669829366310,1632,HRV,HRV_0036,2022-11-30 17:34:21
27,"[{'imgObject': {}, 'id': 'bagel and cc', 'src': '/static/foodstim60/bagel and cc.jpg', 'key': 'u', 'origWidth': 410, 'origHeight': 410, 'width': 410, 'height': 410, 'widthPercent': 0.45, 'rescaleHeight': False, 'trialN': 27, 'loaded': True, 'loadedTime': 4714.300000071526, 'positionName': 'LEFT', 'positionCoords': [376.72, 256], 'bid': 4.62}, {'imgObject': {}, 'id': 'roastedpotatoes', 'src': '/static/foodstim60/roastedpotatoes.jpg', 'key': 'i', 'origWidth': 409, 'origHeight': 410, 'width': 409, 'height': 410, 'widthPercent': 0.45, 'rescaleHeight': False, 'trialN': 27, 'loaded': True, 'loadedTime': 4036.600000023842, 'positionName': 'RIGHT', 'positionCoords': [852.28, 256], 'bid': 6.55}]",56808.89999997616,1669829366310,bagel and cc,roastedpotatoes,4.62,6.55,1.9299999999999997,roastedpotatoes,1233.2000000476837,1233,1233.6000000238419,True,i,58545.10000002384,1736.2000000476837,1669829368046,1736,HRV,HRV_0036,2022-11-30 17:34:21
28,"[{'imgObject': {}, 'id': 'bagel and cc', 'src': '/static/foodstim60/bagel and cc.jpg', 'key': 'u', 'origWidth': 410, 'origHeight': 410, 'width': 410, 'height': 410, 'widthPercent': 0.45, 'rescaleHeight': False, 'trialN': 28, 'loaded': True, 'loadedTime': 4714.5, 'positionName': 'LEFT', 'positionCoords': [376.72, 256], 'bid': 4.62}, {'imgObject': {}, 'id': 'baked potato', 'src': '/static/foodstim60/baked potato.jpg', 'key': 'i', 'origWidth': 409, 'origHeight': 410, 'width': 409, 'height': 410, 'widthPercent': 0.45, 'rescaleHeight': False, 'trialN': 28, 'loaded': True, 'loadedTime': 4517.200000047684, 'positionName': 'RIGHT', 'positionCoords': [852.28, 256], 'bid': 4.9}]",58545.39999997616,1669829368046,bagel and cc,baked potato,4.62,4.9,0.28000000000000025,baked potato,1359.3000000715256,1360,1359.8000000715256,True,i,60408.39999997616,1863.0,1669829369909,1863,HRV,HRV_0036,2022-11-30 17:34:21
29,"[{'imgObject': {}, 'id': 'chicken nuggets2', 'src': '/static/foodstim60/chicken nuggets2.jpg', 'key': 'u', 'origWidth': 410, 'origHeight': 409, 'width': 410, 'height': 409, 'widthPercent': 0.45, 'rescaleHeight': False, 'trialN': 29, 'loaded': True, 'loadedTime': 4716.100000023842, 'positionName': 'LEFT', 'positionCoords': [376.72, 256.5], 'bid': 3.78}, {'imgObject': {}, 'id': 'burrito', 'src': '/static/foodstim60/burrito.jpg', 'key': 'i', 'origWidth': 410, 'origHeight': 410, 'width': 410, 'height': 410, 'widthPercent': 0.45, 'rescaleHeight': False, 'trialN': 29, 'loaded': True, 'loadedTime': 4039.899999976158, 'positionName': 'RIGHT', 'positionCoords': [852.28, 256], 'bid': 2.72}]",60408.60000002384,1669829369909,chicken nuggets2,burrito,3.78,2.72,-1.0599999999999996,burrito,1432.5,1433,1432.8999999761581,True,i,62345.10000002384,1936.5,1669829371846,1937,HRV,HRV_0036,2022-11-30 17:34:21
30,"[{'imgObject': {}, 'id': 'Tribe humus pita', 'src': '/static/foodstim60/Tribe humus pita.jpg', 'key': 'u', 'origWidth': 411, 'origHeight': 411, 'width': 411, 'height': 411, 'widthPercent': 0.45, 'rescaleHeight': False, 'trialN': 30, 'loaded': True, 'loadedTime': 4038.399999976158, 'positionName': 'LEFT', 'positionCoords': [375.72, 255.5], 'bid': 3.96}, {'imgObject': {}, 'id': 'luckycharms', 'src': '/static/foodstim60/luckycharms.jpg', 'key': 'i', 'origWidth': 410, 'origHeight': 409, 'width': 410, 'height': 409, 'widthPercent': 0.45, 'rescaleHeight': False, 'trialN': 30, 'loaded': True, 'loadedTime': 4742.800000071526, 'positionName': 'RIGHT', 'positionCoords': [852.28, 256.5], 'bid': 1.08}]",62345.300000071526,1669829371846,Tribe humus pita,luckycharms,3.96,1.08,-2.88,Tribe humus pita,1887.5999999046326,1888,1888.0999999046326,True,u,64736.60000002384,2391.2999999523163,1669829374237,2391,HRV,HRV_0036,2022-11-30 17:34:21
31,"[{'imgObject': {}, 'id': 'mac & cheese', 'src': '/static/foodstim60/mac & cheese.jpg', 'key': 'u', 'origWidth': 410, 'origHeight': 410, 'width': 410, 'height': 410, 'widthPercent': 0.45, 'rescaleHeight': False, 'trialN': 31, 'loaded': True, 'loadedTime': 4035.2000000476837, 'positionName': 'LEFT', 'positionCoords': [376.72, 256], 'bid': 5.7700000000000005}, {'imgObject': {}, 'id': 'rigatoni', 'src': '/static/foodstim60/rigatoni.jpg', 'key': 'i', 'origWidth': 411, 'origHeight': 411, 'width': 411, 'height': 411, 'widthPercent': 0.45, 'rescaleHeight': False, 'trialN': 31, 'loaded': True, 'loadedTime': 4769.100000023842, 'positionName': 'RIGHT', 'positionCoords': [852.28, 255.5], 'bid': 4.12}]",64736.800000071526,1669829374237,mac & cheese,rigatoni,5.7700000000000005,4.12,-1.6500000000000004,mac & cheese,1905.7999999523163,1907,1906.0999999046326,True,u,67145.39999997616,2408.5999999046326,1669829376646,2409,HRV,HRV_0036,2022-11-30 17:34:21
32,"[{'imgObject': {}, 'id': 'raspberries', 'src': '/static/foodstim60/raspberries.jpg', 'key': 'u', 'origWidth': 411, 'origHeight': 411, 'width': 411, 'height': 411, 'widthPercent': 0.45, 'rescaleHeight': False, 'trialN': 32, 'loaded': True, 'loadedTime': 4637.200000047684, 'positionName': 'LEFT', 'positionCoords': [375.72, 255.5], 'bid': 4.09}, {'imgObject': {}, 'id': 'baked potato', 'src': '/static/foodstim60/baked potato.jpg', 'key': 'i', 'origWidth': 409, 'origHeight': 410, 'width': 409, 'height': 410, 'widthPercent': 0.45, 'rescaleHeight': False, 'trialN': 32, 'loaded': True, 'loadedTime': 4518.300000071526, 'positionName': 'RIGHT', 'positionCoords': [852.28, 256], 'bid': 4.9}]",67145.70000004768,1669829376646,raspberries,baked potato,4.09,4.9,0.8100000000000005,raspberries,2303.100000023842,2304,2303.6999999284744,True,u,69951.89999997616,2806.1999999284744,1669829379453,2807,HRV,HRV_0036,2022-11-30 17:34:21
33,"[{'imgObject': {}, 'id': 'cheerios', 'src': '/static/foodstim60/cheerios.jpg', 'key': 'u', 'origWidth': 409, 'origHeight': 410, 'width': 409, 'height': 410, 'widthPercent': 0.45, 'rescaleHeight': False, 'trialN': 33, 'loaded': True, 'loadedTime': 4770.5, 'positionName': 'LEFT', 'positionCoords': [377.72, 256], 'bid': 0.78}, {'imgObject': {}, 'id': 'popsicles', 'src': '/static/foodstim60/popsicles.jpg', 'key': 'i', 'origWidth': 410, 'origHeight': 410, 'width': 410, 'height': 410, 'widthPercent': 0.45, 'rescaleHeight': False, 'trialN': 33, 'loaded': True, 'loadedTime': 4947.200000047684, 'positionName': 'RIGHT', 'positionCoords': [852.28, 256], 'bid': 0.8300000000000001}]",69952.10000002384,1669829379453,cheerios,popsicles,0.78,0.8300000000000001,0.050000000000000044,popsicles,1280.7000000476837,1281,1281.2000000476837,True,i,71736.10000002384,1784.0,1669829381237,1784,HRV,HRV_0036,2022-11-30 17:34:21
34,"[{'imgObject': {}, 'id': 'raspberries', 'src': '/static/foodstim60/raspberries.jpg', 'key': 'u', 'origWidth': 411, 'origHeight': 411, 'width': 411, 'height': 411, 'widthPercent': 0.45, 'rescaleHeight': False, 'trialN': 34, 'loaded': True, 'loadedTime': 4641.100000023842, 'positionName': 'LEFT', 'positionCoords': [375.72, 255.5], 'bid': 4.09}, {'imgObject': {}, 'id': 'raisin bran w milk', 'src': '/static/foodstim60/raisin bran w milk.jpg', 'key': 'i', 'origWidth': 411, 'origHeight': 411, 'width': 411, 'height': 411, 'widthPercent': 0.45, 'rescaleHeight': False, 'trialN': 34, 'loaded': True, 'loadedTime': 4771.700000047684, 'positionName': 'RIGHT', 'positionCoords': [852.28, 255.5], 'bid': 1.16}]",71736.39999997616,1669829381237,raspberries,raisin bran w milk,4.09,1.16,-2.9299999999999997,raspberries,1182.9000000953674,1184,1183.5,True,u,73425.5,1689.1000000238419,1669829382926,1689,HRV,HRV_0036,2022-11-30 17:34:21
35,"[{'imgObject': {}, 'id': 'corn cob', 'src': '/static/foodstim60/corn cob.jpg', 'key': 'u', 'origWidth': 411, 'origHeight': 411, 'width': 411, 'height': 411, 'widthPercent': 0.45, 'rescaleHeight': False, 'trialN': 35, 'loaded': True, 'loadedTime': 4773.200000047684, 'positionName': 'LEFT', 'positionCoords': [375.72, 255.5], 'bid': 1.76}, {'imgObject': {}, 'id': 'chickenfingers', 'src': '/static/foodstim60/chickenfingers.jpg', 'key': 'i', 'origWidth': 410, 'origHeight': 410, 'width': 410, 'height': 410, 'widthPercent': 0.45, 'rescaleHeight': False, 'trialN': 35, 'loaded': True, 'loadedTime': 4049.7000000476837, 'positionName': 'RIGHT', 'positionCoords': [852.28, 256], 'bid': 2.98}]",73425.80000007153,1669829382926,corn cob,chickenfingers,1.76,2.98,1.22,chickenfingers,1649,1650,1649.5,True,i,75576.39999997616,2150.5999999046326,1669829385077,2151,HRV,HRV_0036,2022-11-30 17:34:21
36,"[{'imgObject': {}, 'id': 'hotdog w must', 'src': '/static/foodstim60/hotdog w must.jpg', 'key': 'u', 'origWidth': 409, 'origHeight': 409, 'width': 409, 'height': 409, 'widthPercent': 0.45, 'rescaleHeight': False, 'trialN': 36, 'loaded': True, 'loadedTime': 4798.5, 'positionName': 'LEFT', 'positionCoords': [377.72, 256.5], 'bid': 4.45}, {'imgObject': {}, 'id': 'orange slices', 'src': '/static/foodstim60/orange slices.jpg', 'key': 'i', 'origWidth': 409, 'origHeight': 410, 'width': 409, 'height': 410, 'widthPercent': 0.45, 'rescaleHeight': False, 'trialN': 36, 'loaded': True, 'loadedTime': 4799.899999976158, 'positionName': 'RIGHT', 'positionCoords': [852.28, 256], 'bid': 1.28}]",75576.60000002384,1669829385077,hotdog w must,orange slices,4.45,1.28,-3.17,hotdog w must,1641.7999999523163,1642,1642.1000000238419,True,u,77720.20000004768,2143.600000023842,1669829387221,2144,HRV,HRV_0036,2022-11-30 17:34:21
37,"[{'imgObject': {}, 'id': 'baked potato', 'src': '/static/foodstim60/baked potato.jpg', 'key': 'u', 'origWidth': 409, 'origHeight': 410, 'width': 409, 'height': 410, 'widthPercent': 0.45, 'rescaleHeight': False, 'trialN': 37, 'loaded': True, 'loadedTime': 4518.100000023842, 'positionName': 'LEFT', 'positionCoords': [377.72, 256], 'bid': 4.9}, {'imgObject': {}, 'id': 'salmon', 'src': '/static/foodstim60/salmon.jpg', 'key': 'i', 'origWidth': 410, 'origHeight': 409, 'width': 410, 'height': 409, 'widthPercent': 0.45, 'rescaleHeight': False, 'trialN': 37, 'loaded': True, 'loadedTime': 4545.899999976158, 'positionName': 'RIGHT', 'positionCoords': [852.28, 256.5], 'bid': 1.56}]",77720.5,1669829387221,baked potato,salmon,4.9,1.56,-3.3400000000000003,baked potato,1053.8000000715256,1054,1054.3000000715256,True,u,79280.0,1559.5,1669829388781,1560,HRV,HRV_0036,2022-11-30 17:34:21
38,"[{'imgObject': {}, 'id': 'roastedpotatoes', 'src': '/static/foodstim60/roastedpotatoes.jpg', 'key': 'u', 'origWidth': 409, 'origHeight': 410, 'width': 409, 'height': 410, 'widthPercent': 0.45, 'rescaleHeight': False, 'trialN': 38, 'loaded': True, 'loadedTime': 4036.399999976158, 'positionName': 'LEFT', 'positionCoords': [377.72, 256], 'bid': 6.55}, {'imgObject': {}, 'id': 'strawberries', 'src': '/static/foodstim60/strawberries.jpg', 'key': 'i', 'origWidth': 410, 'origHeight': 410, 'width': 410, 'height': 410, 'widthPercent': 0.45, 'rescaleHeight': False, 'trialN': 38, 'loaded': True, 'loadedTime': 4446.600000023842, 'positionName': 'RIGHT', 'positionCoords': [852.28, 256], 'bid': 5.95}]",79280.20000004768,1669829388781,roastedpotatoes,strawberries,6.55,5.95,-0.5999999999999996,roastedpotatoes,790.3999999761581,791,791.0,True,u,80577.5,1297.2999999523163,1669829390078,1297,HRV,HRV_0036,2022-11-30 17:34:21
39,"[{'imgObject': {}, 'id': 'salad w chicken', 'src': '/static/foodstim60/salad w chicken.jpg', 'key': 'u', 'origWidth': 411, 'origHeight': 411, 'width': 411, 'height': 411, 'widthPercent': 0.45, 'rescaleHeight': False, 'trialN': 39, 'loaded': True, 'loadedTime': 4495.899999976158, 'positionName': 'LEFT', 'positionCoords': [375.72, 255.5], 'bid': 1.69}, {'imgObject': {}, 'id': 'seaweed', 'src': '/static/foodstim60/seaweed.jpg', 'key': 'i', 'origWidth': 410, 'origHeight': 410, 'width': 410, 'height': 410, 'widthPercent': 0.45, 'rescaleHeight': False, 'trialN': 39, 'loaded': True, 'loadedTime': 3967.899999976158, 'positionName': 'RIGHT', 'positionCoords': [852.28, 256], 'bid': 1.69}]",80577.70000004768,1669829390078,salad w chicken,seaweed,1.69,1.69,0.0,salad w chicken,1561,1562,1561.3999999761581,True,u,82640.30000007153,2062.600000023842,1669829392141,2063,HRV,HRV_0036,2022-11-30 17:34:21
40,"[{'imgObject': {}, 'id': 'hashbrowns', 'src': '/static/foodstim60/hashbrowns.jpg', 'key': 'u', 'origWidth': 411, 'origHeight': 410, 'width': 411, 'height': 410, 'widthPercent': 0.45, 'rescaleHeight': False, 'trialN': 40, 'loaded': True, 'loadedTime': 4266.899999976158, 'positionName': 'LEFT', 'positionCoords': [375.72, 256], 'bid': 1.19}, {'imgObject': {}, 'id': 'pear', 'src': '/static/foodstim60/pear.jpg', 'key': 'i', 'origWidth': 411, 'origHeight': 410, 'width': 411, 'height': 410, 'widthPercent': 0.45, 'rescaleHeight': False, 'trialN': 40, 'loaded': True, 'loadedTime': 4031.399999976158, 'positionName': 'RIGHT', 'positionCoords': [852.28, 256], 'bid': 1.52}]",82640.5,1669829392141,hashbrowns,pear,1.19,1.52,0.33000000000000007,pear,1671.8999999761581,1672,1672.2000000476837,True,i,84816.10000002384,2175.600000023842,1669829394317,2176,HRV,HRV_0036,2022-11-30 17:34:21
41,"[{'imgObject': {}, 'id': 'rigatoni', 'src': '/static/foodstim60/rigatoni.jpg', 'key': 'u', 'origWidth': 411, 'origHeight': 411, 'width': 411, 'height': 411, 'widthPercent': 0.45, 'rescaleHeight': False, 'trialN': 41, 'loaded': True, 'loadedTime': 4743.899999976158, 'positionName': 'LEFT', 'positionCoords': [375.72, 255.5], 'bid': 4.12}, {'imgObject': {}, 'id': 'olives', 'src': '/static/foodstim60/olives.jpg', 'key': 'i', 'origWidth': 410, 'origHeight': 410, 'width': 410, 'height': 410, 'widthPercent': 0.45, 'rescaleHeight': False, 'trialN': 41, 'loaded': True, 'loadedTime': 4852.399999976158, 'positionName': 'RIGHT', 'positionCoords': [852.28, 256], 'bid': 7.1000000000000005}]",84816.30000007153,1669829394317,rigatoni,olives,4.12,7.1000000000000005,2.9800000000000004,olives,1701.5,1702,1702.0,True,i,87024.80000007153,2208.5,1669829396525,2208,HRV,HRV_0036,2022-11-30 17:34:21
42,"[{'imgObject': {}, 'id': 'sweetpotato', 'src': '/static/foodstim60/sweetpotato.jpg', 'key': 'u', 'origWidth': 410, 'origHeight': 410, 'width': 410, 'height': 410, 'widthPercent': 0.45, 'rescaleHeight': False, 'trialN': 42, 'loaded': True, 'loadedTime': 4447.899999976158, 'positionName': 'LEFT', 'positionCoords': [376.72, 256], 'bid': 1.57}, {'imgObject': {}, 'id': 'salmon', 'src': '/static/foodstim60/salmon.jpg', 'key': 'i', 'origWidth': 410, 'origHeight': 409, 'width': 410, 'height': 409, 'widthPercent': 0.45, 'rescaleHeight': False, 'trialN': 42, 'loaded': True, 'loadedTime': 4554.5, 'positionName': 'RIGHT', 'positionCoords': [852.28, 256.5], 'bid': 1.56}]",87025.0,1669829396526,sweetpotato,salmon,1.57,1.56,-0.010000000000000009,salmon,1417.3000000715256,1418,1417.8999999761581,True,i,88945.30000007153,1920.3000000715256,1669829398446,1920,HRV,HRV_0036,2022-11-30 17:34:21
43,"[{'imgObject': {}, 'id': 'raspberries', 'src': '/static/foodstim60/raspberries.jpg', 'key': 'u', 'origWidth': 411, 'origHeight': 411, 'width': 411, 'height': 411, 'widthPercent': 0.45, 'rescaleHeight': False, 'trialN': 43, 'loaded': True, 'loadedTime': 4642.800000071526, 'positionName': 'LEFT', 'positionCoords': [375.72, 255.5], 'bid': 4.09}, {'imgObject': {}, 'id': 'shreddedwheatwithmilk', 'src': '/static/foodstim60/shreddedwheatwithmilk.jpg', 'key': 'i', 'origWidth': 410, 'origHeight': 410, 'width': 410, 'height': 410, 'widthPercent': 0.45, 'rescaleHeight': False, 'trialN': 43, 'loaded': True, 'loadedTime': 4050.100000023842, 'positionName': 'RIGHT', 'positionCoords': [852.28, 256], 'bid': 2.22}]",88945.5,1669829398446,raspberries,shreddedwheatwithmilk,4.09,2.22,-1.8699999999999997,raspberries,1146.3000000715256,1147,1146.7000000476837,True,u,90593.5,1648.0,1669829400094,1648,HRV,HRV_0036,2022-11-30 17:34:21
44,"[{'imgObject': {}, 'id': 'yogurt no spoon', 'src': '/static/foodstim60/yogurt no spoon.jpg', 'key': 'u', 'origWidth': 411, 'origHeight': 410, 'width': 411, 'height': 410, 'widthPercent': 0.45, 'rescaleHeight': False, 'trialN': 44, 'loaded': True, 'loadedTime': 4032.899999976158, 'positionName': 'LEFT', 'positionCoords': [375.72, 256], 'bid': 5.83}, {'imgObject': {}, 'id': 'bagel and cc', 'src': '/static/foodstim60/bagel and cc.jpg', 'key': 'i', 'origWidth': 410, 'origHeight': 410, 'width': 410, 'height': 410, 'widthPercent': 0.45, 'rescaleHeight': False, 'trialN': 44, 'loaded': True, 'loadedTime': 4713, 'positionName': 'RIGHT', 'positionCoords': [852.28, 256], 'bid': 4.62}]",90593.60000002384,1669829400094,yogurt no spoon,bagel and cc,5.83,4.62,-1.21,bagel and cc,1244,1244,1244.2000000476837,True,i,92344.39999997616,1750.7999999523163,1669829401845,1751,HRV,HRV_0036,2022-11-30 17:34:21
45,"[{'imgObject': {}, 'id': 'mashed potato', 'src': '/static/foodstim60/mashed potato.jpg', 'key': 'u', 'origWidth': 409, 'origHeight': 409, 'width': 409, 'height': 409, 'widthPercent': 0.45, 'rescaleHeight': False, 'trialN': 45, 'loaded': True, 'loadedTime': 4853.5, 'positionName': 'LEFT', 'positionCoords': [377.72, 256.5], 'bid': 6.75}, {'imgObject': {}, 'id': 'cocktailshrimp', 'src': '/static/foodstim60/cocktailshrimp.jpg', 'key': 'i', 'origWidth': 410, 'origHeight': 410, 'width': 410, 'height': 410, 'widthPercent': 0.45, 'rescaleHeight': False, 'trialN': 45, 'loaded': True, 'loadedTime': 4853.800000071526, 'positionName': 'RIGHT', 'positionCoords': [852.28, 256], 'bid': 8.41}]",92344.5,1669829401845,mashed potato,cocktailshrimp,6.75,8.41,1.6600000000000001,cocktailshrimp,815.5,816,816.0,True,i,93663.89999997616,1319.3999999761581,1669829403165,1320,HRV,HRV_0036,2022-11-30 17:34:21
46,"[{'imgObject': {}, 'id': 'cheerios', 'src': '/static/foodstim60/cheerios.jpg', 'key': 'u', 'origWidth': 409, 'origHeight': 410, 'width': 409, 'height': 410, 'widthPercent': 0.45, 'rescaleHeight': False, 'trialN': 46, 'loaded': True, 'loadedTime': 4770.300000071526, 'positionName': 'LEFT', 'positionCoords': [377.72, 256], 'bid': 0.78}, {'imgObject': {}, 'id': 'salmon', 'src': '/static/foodstim60/salmon.jpg', 'key': 'i', 'origWidth': 410, 'origHeight': 409, 'width': 410, 'height': 409, 'widthPercent': 0.45, 'rescaleHeight': False, 'trialN': 46, 'loaded': True, 'loadedTime': 4550.300000071526, 'positionName': 'RIGHT', 'positionCoords': [852.28, 256.5], 'bid': 1.56}]",93664.10000002384,1669829403165,cheerios,salmon,0.78,1.56,0.78,salmon,1458.7999999523163,1459,1459.2000000476837,True,i,95624.89999997616,1960.7999999523163,1669829405126,1961,HRV,HRV_0036,2022-11-30 17:34:21
47,"[{'imgObject': {}, 'id': 'banana', 'src': '/static/foodstim60/banana.jpg', 'key': 'u', 'origWidth': 410, 'origHeight': 410, 'width': 410, 'height': 410, 'widthPercent': 0.45, 'rescaleHeight': False, 'trialN': 47, 'loaded': True, 'loadedTime': 4880.899999976158, 'positionName': 'LEFT', 'positionCoords': [376.72, 256], 'bid': 1.76}, {'imgObject': {}, 'id': 'eggsalad', 'src': '/static/foodstim60/eggsalad.jpg', 'key': 'i', 'origWidth': 410, 'origHeight': 409, 'width': 410, 'height': 409, 'widthPercent': 0.45, 'rescaleHeight': False, 'trialN': 47, 'loaded': True, 'loadedTime': 4472.100000023842, 'positionName': 'RIGHT', 'positionCoords': [852.28, 256.5], 'bid': 6.72}]",95625.20000004768,1669829405126,banana,eggsalad,1.76,6.72,4.96,eggsalad,1225.3999999761581,1225,1225.6999999284744,True,i,97353.30000007153,1728.1000000238419,1669829406854,1728,HRV,HRV_0036,2022-11-30 17:34:21
48,"[{'imgObject': {}, 'id': 'popsicles', 'src': '/static/foodstim60/popsicles.jpg', 'key': 'u', 'origWidth': 410, 'origHeight': 410, 'width': 410, 'height': 410, 'widthPercent': 0.45, 'rescaleHeight': False, 'trialN': 48, 'loaded': True, 'loadedTime': 4947.100000023842, 'positionName': 'LEFT', 'positionCoords': [376.72, 256], 'bid': 0.8300000000000001}, {'imgObject': {}, 'id': 'apple slices', 'src': '/static/foodstim60/apple slices.jpg', 'key': 'i', 'origWidth': 409, 'origHeight': 410, 'width': 409, 'height': 410, 'widthPercent': 0.45, 'rescaleHeight': False, 'trialN': 48, 'loaded': True, 'loadedTime': 4232.600000023842, 'positionName': 'RIGHT', 'positionCoords': [852.28, 256], 'bid': 1.72}]",97353.5,1669829406854,popsicles,apple slices,0.8300000000000001,1.72,0.8899999999999999,apple slices,1239,1240,1239.6000000238419,True,i,99096.39999997616,1742.8999999761581,1669829408597,1743,HRV,HRV_0036,2022-11-30 17:34:21
49,"[{'imgObject': {}, 'id': 'lox', 'src': '/static/foodstim60/lox.jpg', 'key': 'u', 'origWidth': 410, 'origHeight': 411, 'width': 410, 'height': 411, 'widthPercent': 0.45, 'rescaleHeight': False, 'trialN': 49, 'loaded': True, 'loadedTime': 4882.200000047684, 'positionName': 'LEFT', 'positionCoords': [376.72, 255.5], 'bid': 1.72}, {'imgObject': {}, 'id': 'orange slices', 'src': '/static/foodstim60/orange slices.jpg', 'key': 'i', 'origWidth': 409, 'origHeight': 410, 'width': 409, 'height': 410, 'widthPercent': 0.45, 'rescaleHeight': False, 'trialN': 49, 'loaded': True, 'loadedTime': 4824.800000071526, 'positionName': 'RIGHT', 'positionCoords': [852.28, 256], 'bid': 1.28}]",99096.5,1669829408597,lox,orange slices,1.72,1.28,-0.43999999999999995,lox,2183.399999976158,2184,2184.0,True,u,101784.5,2688.0,1669829411285,2688,HRV,HRV_0036,2022-11-30 17:34:21
50,"[{'imgObject': {}, 'id': 'turkeysandwich', 'src': '/static/foodstim60/turkeysandwich.jpg', 'key': 'u', 'origWidth': 409, 'origHeight': 409, 'width': 409, 'height': 409, 'widthPercent': 0.45, 'rescaleHeight': False, 'trialN': 50, 'loaded': True, 'loadedTime': 4296.5, 'positionName': 'LEFT', 'positionCoords': [377.72, 256.5], 'bid': 1.87}, {'imgObject': {}, 'id': 'olives', 'src': '/static/foodstim60/olives.jpg', 'key': 'i', 'origWidth': 410, 'origHeight': 410, 'width': 410, 'height': 410, 'widthPercent': 0.45, 'rescaleHeight': False, 'trialN': 50, 'loaded': True, 'loadedTime': 4826.600000023842, 'positionName': 'RIGHT', 'positionCoords': [852.28, 256], 'bid': 7.1000000000000005}]",101784.70000004768,1669829411285,turkeysandwich,olives,1.87,7.1000000000000005,5.23,olives,1006.6999999284744,1008,1007.1999999284744,True,i,103297.10000002384,1512.3999999761581,1669829412798,1513,HRV,HRV_0036,2022-11-30 17:34:21
51,"[{'imgObject': {}, 'id': 'lox', 'src': '/static/foodstim60/lox.jpg', 'key': 'u', 'origWidth': 410, 'origHeight': 411, 'width': 410, 'height': 411, 'widthPercent': 0.45, 'rescaleHeight': False, 'trialN': 51, 'loaded': True, 'loadedTime': 4881.899999976158, 'positionName': 'LEFT', 'positionCoords': [376.72, 255.5], 'bid': 1.72}, {'imgObject': {}, 'id': 'seaweed', 'src': '/static/foodstim60/seaweed.jpg', 'key': 'i', 'origWidth': 410, 'origHeight': 410, 'width': 410, 'height': 410, 'widthPercent': 0.45, 'rescaleHeight': False, 'trialN': 51, 'loaded': True, 'loadedTime': 3869.2000000476837, 'positionName': 'RIGHT', 'positionCoords': [852.28, 256], 'bid': 1.69}]",103297.39999997616,1669829412798,lox,seaweed,1.72,1.69,-0.030000000000000027,lox,1435.2000000476837,1436,1435.7000000476837,True,u,105240.70000004768,1943.3000000715256,1669829414741,1943,HRV,HRV_0036,2022-11-30 17:34:21
52,"[{'imgObject': {}, 'id': 'ice cream sundae 002', 'src': '/static/foodstim60/ice cream sundae 002.jpg', 'key': 'u', 'origWidth': 409, 'origHeight': 409, 'width': 409, 'height': 409, 'widthPercent': 0.45, 'rescaleHeight': False, 'trialN': 52, 'loaded': True, 'loadedTime': 4006.600000023842, 'positionName': 'LEFT', 'positionCoords': [377.72, 256.5], 'bid': 1.16}, {'imgObject': {}, 'id': 'cantaloupe', 'src': '/static/foodstim60/cantaloupe.jpg', 'key': 'i', 'origWidth': 409, 'origHeight': 409, 'width': 409, 'height': 409, 'widthPercent': 0.45, 'rescaleHeight': False, 'trialN': 52, 'loaded': True, 'loadedTime': 4351.200000047684, 'positionName': 'RIGHT', 'positionCoords': [852.28, 256.5], 'bid': 1.84}]",105241.0,1669829414742,ice cream sundae 002,cantaloupe,1.16,1.84,0.6800000000000002,ice cream sundae 002,1872.2000000476837,1872,1872.8000000715256,True,u,107616.70000004768,2375.7000000476837,1669829417117,2375,HRV,HRV_0036,2022-11-30 17:34:21
53,"[{'imgObject': {}, 'id': 'steak', 'src': '/static/foodstim60/steak.jpg', 'key': 'u', 'origWidth': 410, 'origHeight': 410, 'width': 410, 'height': 410, 'widthPercent': 0.45, 'rescaleHeight': False, 'trialN': 53, 'loaded': True, 'loadedTime': 4023.3000000715256, 'positionName': 'LEFT', 'positionCoords': [376.72, 256], 'bid': 8.700000000000001}, {'imgObject': {}, 'id': 'mashed potato', 'src': '/static/foodstim60/mashed potato.jpg', 'key': 'i', 'origWidth': 409, 'origHeight': 409, 'width': 409, 'height': 409, 'widthPercent': 0.45, 'rescaleHeight': False, 'trialN': 53, 'loaded': True, 'loadedTime': 4853.700000047684, 'positionName': 'RIGHT', 'positionCoords': [852.28, 256.5], 'bid': 6.75}]",107616.89999997616,1669829417118,steak,mashed potato,8.700000000000001,6.75,-1.950000000000001,steak,1841.1000000238419,1841,1841.6000000238419,True,u,109960.60000002384,2343.7000000476837,1669829419461,2343,HRV,HRV_0036,2022-11-30 17:34:21
54,"[{'imgObject': {}, 'id': 'cantaloupe', 'src': '/static/foodstim60/cantaloupe.jpg', 'key': 'u', 'origWidth': 409, 'origHeight': 409, 'width': 409, 'height': 409, 'widthPercent': 0.45, 'rescaleHeight': False, 'trialN': 54, 'loaded': True, 'loadedTime': 4327.300000071526, 'positionName': 'LEFT', 'positionCoords': [377.72, 256.5], 'bid': 1.84}, {'imgObject': {}, 'id': 'mashed potato', 'src': '/static/foodstim60/mashed potato.jpg', 'key': 'i', 'origWidth': 409, 'origHeight': 409, 'width': 409, 'height': 409, 'widthPercent': 0.45, 'rescaleHeight': False, 'trialN': 54, 'loaded': True, 'loadedTime': 4852.700000047684, 'positionName': 'RIGHT', 'positionCoords': [852.28, 256.5], 'bid': 6.75}]",109961.10000002384,1669829419462,cantaloupe,mashed potato,1.84,6.75,4.91,mashed potato,1346.8999999761581,1347,1347.3999999761581,True,i,111809.10000002384,1848.0,1669829421310,1848,HRV,HRV_0036,2022-11-30 17:34:21
55,"[{'imgObject': {}, 'id': 'raisin bran w milk', 'src': '/static/foodstim60/raisin bran w milk.jpg', 'key': 'u', 'origWidth': 411, 'origHeight': 411, 'width': 411, 'height': 411, 'widthPercent': 0.45, 'rescaleHeight': False, 'trialN': 55, 'loaded': True, 'loadedTime': 4771.899999976158, 'positionName': 'LEFT', 'positionCoords': [375.72, 255.5], 'bid': 1.16}, {'imgObject': {}, 'id': 'ice cream sundae 002', 'src': '/static/foodstim60/ice cream sundae 002.jpg', 'key': 'i', 'origWidth': 409, 'origHeight': 409, 'width': 409, 'height': 409, 'widthPercent': 0.45, 'rescaleHeight': False, 'trialN': 55, 'loaded': True, 'loadedTime': 4007.600000023842, 'positionName': 'RIGHT', 'positionCoords': [852.28, 256.5], 'bid': 1.16}]",111809.30000007153,1669829421310,raisin bran w milk,ice cream sundae 002,1.16,1.16,0.0,ice cream sundae 002,1305.2999999523163,1306,1305.6999999284744,True,i,113617.5,1808.1999999284744,1669829423118,1808,HRV,HRV_0036,2022-11-30 17:34:21
56,"[{'imgObject': {}, 'id': 'banana', 'src': '/static/foodstim60/banana.jpg', 'key': 'u', 'origWidth': 410, 'origHeight': 410, 'width': 410, 'height': 410, 'widthPercent': 0.45, 'rescaleHeight': False, 'trialN': 56, 'loaded': True, 'loadedTime': 4880, 'positionName': 'LEFT', 'positionCoords': [376.72, 256], 'bid': 1.76}, {'imgObject': {}, 'id': 'corn cob', 'src': '/static/foodstim60/corn cob.jpg', 'key': 'i', 'origWidth': 411, 'origHeight': 411, 'width': 411, 'height': 411, 'widthPercent': 0.45, 'rescaleHeight': False, 'trialN': 56, 'loaded': True, 'loadedTime': 4773.399999976158, 'positionName': 'RIGHT', 'positionCoords': [852.28, 255.5], 'bid': 1.76}]",113617.70000004768,1669829423118,banana,corn cob,1.76,1.76,0.0,banana,1873.1000000238419,1874,1873.6000000238419,True,u,115992.10000002384,2374.399999976158,1669829425493,2375,HRV,HRV_0036,2022-11-30 17:34:21
57,"[{'imgObject': {}, 'id': 'olives', 'src': '/static/foodstim60/olives.jpg', 'key': 'u', 'origWidth': 410, 'origHeight': 410, 'width': 410, 'height': 410, 'widthPercent': 0.45, 'rescaleHeight': False, 'trialN': 57, 'loaded': True, 'loadedTime': 4852.5, 'positionName': 'LEFT', 'positionCoords': [376.72, 256], 'bid': 7.1000000000000005}, {'imgObject': {}, 'id': 'mashed potato', 'src': '/static/foodstim60/mashed potato.jpg', 'key': 'i', 'origWidth': 409, 'origHeight': 409, 'width': 409, 'height': 409, 'widthPercent': 0.45, 'rescaleHeight': False, 'trialN': 57, 'loaded': True, 'loadedTime': 4853.800000071526, 'positionName': 'RIGHT', 'positionCoords': [852.28, 256.5], 'bid': 6.75}]",115992.20000004768,1669829425493,olives,mashed potato,7.1000000000000005,6.75,-0.35000000000000053,olives,895,895,895.5,True,u,117392.70000004768,1400.5,1669829426893,1400,HRV,HRV_0036,2022-11-30 17:34:21
58,"[{'imgObject': {}, 'id': 'sushi w_condiments', 'src': '/static/foodstim60/sushi w_condiments.jpg', 'key': 'u', 'origWidth': 410, 'origHeight': 410, 'width': 410, 'height': 410, 'widthPercent': 0.45, 'rescaleHeight': False, 'trialN': 58, 'loaded': True, 'loadedTime': 4028.8000000715256, 'positionName': 'LEFT', 'positionCoords': [376.72, 256], 'bid': 0.17}, {'imgObject': {}, 'id': 'raisin bran w milk', 'src': '/static/foodstim60/raisin bran w milk.jpg', 'key': 'i', 'origWidth': 411, 'origHeight': 411, 'width': 411, 'height': 411, 'widthPercent': 0.45, 'rescaleHeight': False, 'trialN': 58, 'loaded': True, 'loadedTime': 4770.800000071526, 'positionName': 'RIGHT', 'positionCoords': [852.28, 255.5], 'bid': 1.16}]",117392.89999997616,1669829426894,sushi w_condiments,raisin bran w milk,0.17,1.16,0.9899999999999999,raisin bran w milk,2085.9000000953674,2086,2086.4000000953674,True,i,119985.0,2592.100000023842,1669829429486,2592,HRV,HRV_0036,2022-11-30 17:34:21
59,"[{'imgObject': {}, 'id': 'luckycharms', 'src': '/static/foodstim60/luckycharms.jpg', 'key': 'u', 'origWidth': 410, 'origHeight': 409, 'width': 410, 'height': 409, 'widthPercent': 0.45, 'rescaleHeight': False, 'trialN': 59, 'loaded': True, 'loadedTime': 4717.200000047684, 'positionName': 'LEFT', 'positionCoords': [376.72, 256.5], 'bid': 1.08}, {'imgObject': {}, 'id': 'granola w milk', 'src': '/static/foodstim60/granola w milk.jpg', 'key': 'i', 'origWidth': 410, 'origHeight': 410, 'width': 410, 'height': 410, 'widthPercent': 0.45, 'rescaleHeight': False, 'trialN': 59, 'loaded': True, 'loadedTime': 4882.800000071526, 'positionName': 'RIGHT', 'positionCoords': [852.28, 256], 'bid': 1.08}]",119985.20000004768,1669829429486,luckycharms,granola w milk,1.08,1.08,0.0,luckycharms,1581,1582,1581.5,True,u,122072.80000007153,2087.600000023842,1669829431574,2088,HRV,HRV_0036,2022-11-30 17:34:21
60,"[{'imgObject': {}, 'id': 'ice cream sundae 002', 'src': '/static/foodstim60/ice cream sundae 002.jpg', 'key': 'u', 'origWidth': 409, 'origHeight': 409, 'width': 409, 'height': 409, 'widthPercent': 0.45, 'rescaleHeight': False, 'trialN': 60, 'loaded': True, 'loadedTime': 4012.7000000476837, 'positionName': 'LEFT', 'positionCoords': [377.72, 256.5], 'bid': 1.16}, {'imgObject': {}, 'id': 'froot loops w milk', 'src': '/static/foodstim60/froot loops w milk.jpg', 'key': 'i', 'origWidth': 410, 'origHeight': 410, 'width': 410, 'height': 410, 'widthPercent': 0.45, 'rescaleHeight': False, 'trialN': 60, 'loaded': True, 'loadedTime': 4015.8000000715256, 'positionName': 'RIGHT', 'positionCoords': [852.28, 256], 'bid': 0.72}]",122072.89999997616,1669829431574,ice cream sundae 002,froot loops w milk,1.16,0.72,-0.43999999999999995,ice cream sundae 002,1167.1000000238419,1167,1167.6000000238419,True,u,123745.60000002384,1672.7000000476837,1669829433247,1673,HRV,HRV_0036,2022-11-30 17:34:21
61,"[{'imgObject': {}, 'id': 'bagel and cc', 'src': '/static/foodstim60/bagel and cc.jpg', 'key': 'u', 'origWidth': 410, 'origHeight': 410, 'width': 410, 'height': 410, 'widthPercent': 0.45, 'rescaleHeight': False, 'trialN': 61, 'loaded': True, 'loadedTime': 4714.100000023842, 'positionName': 'LEFT', 'positionCoords': [376.72, 256], 'bid': 4.62}, {'imgObject': {}, 'id': 'omelette', 'src': '/static/foodstim60/omelette.jpg', 'key': 'i', 'origWidth': 410, 'origHeight': 409, 'width': 410, 'height': 409, 'widthPercent': 0.45, 'rescaleHeight': False, 'trialN': 61, 'loaded': True, 'loadedTime': 4422, 'positionName': 'RIGHT', 'positionCoords': [852.28, 256.5], 'bid': 8.58}]",123745.89999997616,1669829433247,bagel and cc,omelette,4.62,8.58,3.96,omelette,1456.9000000953674,1457,1457.4000000953674,True,i,125704.5,1958.6000000238419,1669829435205,1958,HRV,HRV_0036,2022-11-30 17:34:21
62,"[{'imgObject': {}, 'id': 'popsicles', 'src': '/static/foodstim60/popsicles.jpg', 'key': 'u', 'origWidth': 410, 'origHeight': 410, 'width': 410, 'height': 410, 'widthPercent': 0.45, 'rescaleHeight': False, 'trialN': 62, 'loaded': True, 'loadedTime': 4946.399999976158, 'positionName': 'LEFT', 'positionCoords': [376.72, 256], 'bid': 0.8300000000000001}, {'imgObject': {}, 'id': 'orange slices', 'src': '/static/foodstim60/orange slices.jpg', 'key': 'i', 'origWidth': 409, 'origHeight': 410, 'width': 409, 'height': 410, 'widthPercent': 0.45, 'rescaleHeight': False, 'trialN': 62, 'loaded': True, 'loadedTime': 4825.600000023842, 'positionName': 'RIGHT', 'positionCoords': [852.28, 256], 'bid': 1.28}]",125704.80000007153,1669829435206,popsicles,orange slices,0.8300000000000001,1.28,0.44999999999999996,orange slices,1616.3999999761581,1617,1616.8999999761581,True,i,127822.5,2117.6999999284744,1669829437323,2117,HRV,HRV_0036,2022-11-30 17:34:21
63,"[{'imgObject': {}, 'id': 'granola w milk', 'src': '/static/foodstim60/granola w milk.jpg', 'key': 'u', 'origWidth': 410, 'origHeight': 410, 'width': 410, 'height': 410, 'widthPercent': 0.45, 'rescaleHeight': False, 'trialN': 63, 'loaded': True, 'loadedTime': 4883.100000023842, 'positionName': 'LEFT', 'positionCoords': [376.72, 256], 'bid': 1.08}, {'imgObject': {}, 'id': 'pear', 'src': '/static/foodstim60/pear.jpg', 'key': 'i', 'origWidth': 411, 'origHeight': 410, 'width': 411, 'height': 410, 'widthPercent': 0.45, 'rescaleHeight': False, 'trialN': 63, 'loaded': True, 'loadedTime': 4030.399999976158, 'positionName': 'RIGHT', 'positionCoords': [852.28, 256], 'bid': 1.52}]",127822.60000002384,1669829437324,granola w milk,pear,1.08,1.52,0.43999999999999995,pear,1331.1000000238419,1331,1331.5,True,i,129656.39999997616,1833.7999999523163,1669829439157,1833,HRV,HRV_0036,2022-11-30 17:34:21
64,"[{'imgObject': {}, 'id': 'cocktailshrimp', 'src': '/static/foodstim60/cocktailshrimp.jpg', 'key': 'u', 'origWidth': 410, 'origHeight': 410, 'width': 410, 'height': 410, 'widthPercent': 0.45, 'rescaleHeight': False, 'trialN': 64, 'loaded': True, 'loadedTime': 4879.399999976158, 'positionName': 'LEFT', 'positionCoords': [376.72, 256], 'bid': 8.41}, {'imgObject': {}, 'id': 'hotdog w must', 'src': '/static/foodstim60/hotdog w must.jpg', 'key': 'i', 'origWidth': 409, 'origHeight': 409, 'width': 409, 'height': 409, 'widthPercent': 0.45, 'rescaleHeight': False, 'trialN': 64, 'loaded': True, 'loadedTime': 4797.399999976158, 'positionName': 'RIGHT', 'positionCoords': [852.28, 256.5], 'bid': 4.45}]",129656.70000004768,1669829439158,cocktailshrimp,hotdog w must,8.41,4.45,-3.96,cocktailshrimp,890.6000000238419,891,891.1000000238419,True,u,131048.10000002384,1391.3999999761581,1669829440549,1391,HRV,HRV_0036,2022-11-30 17:34:21
65,"[{'imgObject': {}, 'id': 'salmon', 'src': '/static/foodstim60/salmon.jpg', 'key': 'u', 'origWidth': 410, 'origHeight': 409, 'width': 410, 'height': 409, 'widthPercent': 0.45, 'rescaleHeight': False, 'trialN': 65, 'loaded': True, 'loadedTime': 4553.5, 'positionName': 'LEFT', 'positionCoords': [376.72, 256.5], 'bid': 1.56}, {'imgObject': {}, 'id': 'fruitsalad', 'src': '/static/foodstim60/fruitsalad.jpg', 'key': 'i', 'origWidth': 410, 'origHeight': 410, 'width': 410, 'height': 410, 'widthPercent': 0.45, 'rescaleHeight': False, 'trialN': 65, 'loaded': True, 'loadedTime': 4884.200000047684, 'positionName': 'RIGHT', 'positionCoords': [852.28, 256], 'bid': 2.68}]",131048.30000007153,1669829440549,salmon,fruitsalad,1.56,2.68,1.12,salmon,1072.1999999284744,1073,1072.6999999284744,True,u,132624.70000004768,1576.3999999761581,1669829442126,1577,HRV,HRV_0036,2022-11-30 17:34:21
66,"[{'imgObject': {}, 'id': 'rigatoni and sauce', 'src': '/static/foodstim60/rigatoni and sauce.jpg', 'key': 'u', 'origWidth': 410, 'origHeight': 411, 'width': 410, 'height': 411, 'widthPercent': 0.45, 'rescaleHeight': False, 'trialN': 66, 'loaded': True, 'loadedTime': 4352.800000071526, 'positionName': 'LEFT', 'positionCoords': [376.72, 255.5], 'bid': 3.73}, {'imgObject': {}, 'id': 'turkey sandwich', 'src': '/static/foodstim60/turkey sandwich.jpg', 'key': 'i', 'origWidth': 409, 'origHeight': 409, 'width': 409, 'height': 409, 'widthPercent': 0.45, 'rescaleHeight': False, 'trialN': 66, 'loaded': True, 'loadedTime': 4635.5, 'positionName': 'RIGHT', 'positionCoords': [852.28, 256.5], 'bid': 3.77}]",132624.89999997616,1669829442126,rigatoni and sauce,turkey sandwich,3.73,3.77,0.040000000000000036,rigatoni and sauce,1360,1360,1360.1000000238419,True,u,134489.10000002384,1864.2000000476837,1669829443990,1864,HRV,HRV_0036,2022-11-30 17:34:21
67,"[{'imgObject': {}, 'id': 'raisin bran w milk', 'src': '/static/foodstim60/raisin bran w milk.jpg', 'key': 'u', 'origWidth': 411, 'origHeight': 411, 'width': 411, 'height': 411, 'widthPercent': 0.45, 'rescaleHeight': False, 'trialN': 67, 'loaded': True, 'loadedTime': 4771.600000023842, 'positionName': 'LEFT', 'positionCoords': [375.72, 255.5], 'bid': 1.16}, {'imgObject': {}, 'id': 'granola w milk', 'src': '/static/foodstim60/granola w milk.jpg', 'key': 'i', 'origWidth': 410, 'origHeight': 410, 'width': 410, 'height': 410, 'widthPercent': 0.45, 'rescaleHeight': False, 'trialN': 67, 'loaded': True, 'loadedTime': 4882.200000047684, 'positionName': 'RIGHT', 'positionCoords': [852.28, 256], 'bid': 1.08}]",134489.30000007153,1669829443990,raisin bran w milk,granola w milk,1.16,1.08,-0.07999999999999985,raisin bran w milk,1398.1999999284744,1399,1398.5999999046326,True,u,136392.60000002384,1903.2999999523163,1669829445894,1904,HRV,HRV_0036,2022-11-30 17:34:21
68,"[{'imgObject': {}, 'id': 'fried eggs', 'src': '/static/foodstim60/fried eggs.jpg', 'key': 'u', 'origWidth': 410, 'origHeight': 410, 'width': 410, 'height': 410, 'widthPercent': 0.45, 'rescaleHeight': False, 'trialN': 68, 'loaded': True, 'loadedTime': 4020, 'positionName': 'LEFT', 'positionCoords': [376.72, 256], 'bid': 8.58}, {'imgObject': {}, 'id': 'yogurt no spoon', 'src': '/static/foodstim60/yogurt no spoon.jpg', 'key': 'i', 'origWidth': 411, 'origHeight': 410, 'width': 411, 'height': 410, 'widthPercent': 0.45, 'rescaleHeight': False, 'trialN': 68, 'loaded': True, 'loadedTime': 4033.600000023842, 'positionName': 'RIGHT', 'positionCoords': [852.28, 256], 'bid': 5.83}]",136392.89999997616,1669829445894,fried eggs,yogurt no spoon,8.58,5.83,-2.75,fried eggs,1215.7000000476837,1216,1216.2000000476837,True,u,138112.5,1719.6000000238419,1669829447613,1719,HRV,HRV_0036,2022-11-30 17:34:21
69,"[{'imgObject': {}, 'id': 'steak', 'src': '/static/foodstim60/steak.jpg', 'key': 'u', 'origWidth': 410, 'origHeight': 410, 'width': 410, 'height': 410, 'widthPercent': 0.45, 'rescaleHeight': False, 'trialN': 69, 'loaded': True, 'loadedTime': 4025.100000023842, 'positionName': 'LEFT', 'positionCoords': [376.72, 256], 'bid': 8.700000000000001}, {'imgObject': {}, 'id': 'strawberries', 'src': '/static/foodstim60/strawberries.jpg', 'key': 'i', 'origWidth': 410, 'origHeight': 410, 'width': 410, 'height': 410, 'widthPercent': 0.45, 'rescaleHeight': False, 'trialN': 69, 'loaded': True, 'loadedTime': 4446.5, 'positionName': 'RIGHT', 'positionCoords': [852.28, 256], 'bid': 5.95}]",138112.70000004768,1669829447614,steak,strawberries,8.700000000000001,5.95,-2.750000000000001,steak,1413.7999999523163,1414,1414.3999999761581,True,u,140032.5,1919.7999999523163,1669829449533,1919,HRV,HRV_0036,2022-11-30 17:34:21
70,"[{'imgObject': {}, 'id': 'banana', 'src': '/static/foodstim60/banana.jpg', 'key': 'u', 'origWidth': 410, 'origHeight': 410, 'width': 410, 'height': 410, 'widthPercent': 0.45, 'rescaleHeight': False, 'trialN': 70, 'loaded': True, 'loadedTime': 4880.800000071526, 'positionName': 'LEFT', 'positionCoords': [376.72, 256], 'bid': 1.76}, {'imgObject': {}, 'id': 'edamame', 'src': '/static/foodstim60/edamame.jpg', 'key': 'i', 'origWidth': 409, 'origHeight': 410, 'width': 409, 'height': 410, 'widthPercent': 0.45, 'rescaleHeight': False, 'trialN': 70, 'loaded': True, 'loadedTime': 4143.600000023842, 'positionName': 'RIGHT', 'positionCoords': [852.28, 256], 'bid': 1.66}]",140032.80000007153,1669829449534,banana,edamame,1.76,1.66,-0.10000000000000009,banana,1162.5,1163,1162.8999999761581,True,u,141696.70000004768,1663.8999999761581,1669829451198,1664,HRV,HRV_0036,2022-11-30 17:34:21
71,"[{'imgObject': {}, 'id': 'salad w chicken', 'src': '/static/foodstim60/salad w chicken.jpg', 'key': 'u', 'origWidth': 411, 'origHeight': 411, 'width': 411, 'height': 411, 'widthPercent': 0.45, 'rescaleHeight': False, 'trialN': 71, 'loaded': True, 'loadedTime': 4496, 'positionName': 'LEFT', 'positionCoords': [375.72, 255.5], 'bid': 1.69}, {'imgObject': {}, 'id': 'raisin bran w milk', 'src': '/static/foodstim60/raisin bran w milk.jpg', 'key': 'i', 'origWidth': 411, 'origHeight': 411, 'width': 411, 'height': 411, 'widthPercent': 0.45, 'rescaleHeight': False, 'trialN': 71, 'loaded': True, 'loadedTime': 4772.100000023842, 'positionName': 'RIGHT', 'positionCoords': [852.28, 255.5], 'bid': 1.16}]",141697.0,1669829451198,salad w chicken,raisin bran w milk,1.69,1.16,-0.53,raisin bran w milk,2037.7000000476837,2038,2038.3000000715256,True,i,144239.80000007153,2542.8000000715256,1669829453741,2543,HRV,HRV_0036,2022-11-30 17:34:21
72,"[{'imgObject': {}, 'id': 'banana', 'src': '/static/foodstim60/banana.jpg', 'key': 'u', 'origWidth': 410, 'origHeight': 410, 'width': 410, 'height': 410, 'widthPercent': 0.45, 'rescaleHeight': False, 'trialN': 72, 'loaded': True, 'loadedTime': 4880.800000071526, 'positionName': 'LEFT', 'positionCoords': [376.72, 256], 'bid': 1.76}, {'imgObject': {}, 'id': 'burger', 'src': '/static/foodstim60/burger.jpg', 'key': 'i', 'origWidth': 409, 'origHeight': 409, 'width': 409, 'height': 409, 'widthPercent': 0.45, 'rescaleHeight': False, 'trialN': 72, 'loaded': True, 'loadedTime': 4020.7000000476837, 'positionName': 'RIGHT', 'positionCoords': [852.28, 256.5], 'bid': 3.04}]",144240.10000002384,1669829453741,banana,burger,1.76,3.04,1.28,banana,1323.3999999761581,1324,1323.7000000476837,True,u,146064.80000007153,1824.7000000476837,1669829455566,1825,HRV,HRV_0036,2022-11-30 17:34:21
73,"[{'imgObject': {}, 'id': 'roastedpotatoes', 'src': '/static/foodstim60/roastedpotatoes.jpg', 'key': 'u', 'origWidth': 409, 'origHeight': 410, 'width': 409, 'height': 410, 'widthPercent': 0.45, 'rescaleHeight': False, 'trialN': 73, 'loaded': True, 'loadedTime': 4035.399999976158, 'positionName': 'LEFT', 'positionCoords': [377.72, 256], 'bid': 6.55}, {'imgObject': {}, 'id': 'fried eggs', 'src': '/static/foodstim60/fried eggs.jpg', 'key': 'i', 'origWidth': 410, 'origHeight': 410, 'width': 410, 'height': 410, 'widthPercent': 0.45, 'rescaleHeight': False, 'trialN': 73, 'loaded': True, 'loadedTime': 4020.399999976158, 'positionName': 'RIGHT', 'positionCoords': [852.28, 256], 'bid': 8.58}]",146064.89999997616,1669829455566,roastedpotatoes,fried eggs,6.55,8.58,2.0300000000000002,fried eggs,1713.1000000238419,1713,1713.6000000238419,True,i,148280.30000007153,2215.4000000953674,1669829457781,2215,HRV,HRV_0036,2022-11-30 17:34:21
74,"[{'imgObject': {}, 'id': 'Grapes', 'src': '/static/foodstim60/Grapes.jpg', 'key': 'u', 'origWidth': 411, 'origHeight': 411, 'width': 411, 'height': 411, 'widthPercent': 0.45, 'rescaleHeight': False, 'trialN': 74, 'loaded': True, 'loadedTime': 4375.100000023842, 'positionName': 'LEFT', 'positionCoords': [375.72, 255.5], 'bid': 6.29}, {'imgObject': {}, 'id': 'lox', 'src': '/static/foodstim60/lox.jpg', 'key': 'i', 'origWidth': 410, 'origHeight': 411, 'width': 410, 'height': 411, 'widthPercent': 0.45, 'rescaleHeight': False, 'trialN': 74, 'loaded': True, 'loadedTime': 4882.100000023842, 'positionName': 'RIGHT', 'positionCoords': [852.28, 255.5], 'bid': 1.72}]",148280.5,1669829457781,Grapes,lox,6.29,1.72,-4.57,Grapes,1579.8000000715256,1581,1580.2000000476837,True,u,150369.0,2088.5,1669829459870,2089,HRV,HRV_0036,2022-11-30 17:34:21
75,"[{'imgObject': {}, 'id': 'salad w chicken', 'src': '/static/foodstim60/salad w chicken.jpg', 'key': 'u', 'origWidth': 411, 'origHeight': 411, 'width': 411, 'height': 411, 'widthPercent': 0.45, 'rescaleHeight': False, 'trialN': 75, 'loaded': True, 'loadedTime': 4495.100000023842, 'positionName': 'LEFT', 'positionCoords': [375.72, 255.5], 'bid': 1.69}, {'imgObject': {}, 'id': 'cantaloupe', 'src': '/static/foodstim60/cantaloupe.jpg', 'key': 'i', 'origWidth': 409, 'origHeight': 409, 'width': 409, 'height': 409, 'widthPercent': 0.45, 'rescaleHeight': False, 'trialN': 75, 'loaded': True, 'loadedTime': 4326.300000071526, 'positionName': 'RIGHT', 'positionCoords': [852.28, 256.5], 'bid': 1.84}]",150369.30000007153,1669829459870,salad w chicken,cantaloupe,1.69,1.84,0.15000000000000013,cantaloupe,1445.5999999046326,1446,1446.0,True,i,152320.10000002384,1950.7999999523163,1669829461821,1951,HRV,HRV_0036,2022-11-30 17:34:21
76,"[{'imgObject': {}, 'id': 'tacos', 'src': '/static/foodstim60/tacos.jpg', 'key': 'u', 'origWidth': 411, 'origHeight': 411, 'width': 411, 'height': 411, 'widthPercent': 0.45, 'rescaleHeight': False, 'trialN': 76, 'loaded': True, 'loadedTime': 4885.100000023842, 'positionName': 'LEFT', 'positionCoords': [375.72, 255.5], 'bid': 2.96}, {'imgObject': {}, 'id': 'burger', 'src': '/static/foodstim60/burger.jpg', 'key': 'i', 'origWidth': 409, 'origHeight': 409, 'width': 409, 'height': 409, 'widthPercent': 0.45, 'rescaleHeight': False, 'trialN': 76, 'loaded': True, 'loadedTime': 4022.5, 'positionName': 'RIGHT', 'positionCoords': [852.28, 256.5], 'bid': 3.04}]",152320.30000007153,1669829461821,tacos,burger,2.96,3.04,0.08000000000000007,tacos,1592.2999999523163,1593,1592.6999999284744,True,u,154416.39999997616,2096.0999999046326,1669829463917,2096,HRV,HRV_0036,2022-11-30 17:34:21
77,"[{'imgObject': {}, 'id': 'sweetpotato', 'src': '/static/foodstim60/sweetpotato.jpg', 'key': 'u', 'origWidth': 410, 'origHeight': 410, 'width': 410, 'height': 410, 'widthPercent': 0.45, 'rescaleHeight': False, 'trialN': 77, 'loaded': True, 'loadedTime': 4448.200000047684, 'positionName': 'LEFT', 'positionCoords': [376.72, 256], 'bid': 1.57}, {'imgObject': {}, 'id': 'cherry tomato', 'src': '/static/foodstim60/cherry tomato.jpg', 'key': 'i', 'origWidth': 410, 'origHeight': 410, 'width': 410, 'height': 410, 'widthPercent': 0.45, 'rescaleHeight': False, 'trialN': 77, 'loaded': True, 'loadedTime': 4907.300000071526, 'positionName': 'RIGHT', 'positionCoords': [852.28, 256], 'bid': 5.75}]",154416.60000002384,1669829463918,sweetpotato,cherry tomato,1.57,5.75,4.18,cherry tomato,1116.7000000476837,1117,1117.0,True,i,156040.70000004768,1624.1000000238419,1669829465542,1624,HRV,HRV_0036,2022-11-30 17:34:21
78,"[{'imgObject': {}, 'id': 'baked potato', 'src': '/static/foodstim60/baked potato.jpg', 'key': 'u', 'origWidth': 409, 'origHeight': 410, 'width': 409, 'height': 410, 'widthPercent': 0.45, 'rescaleHeight': False, 'trialN': 78, 'loaded': True, 'loadedTime': 4544.399999976158, 'positionName': 'LEFT', 'positionCoords': [377.72, 256], 'bid': 4.9}, {'imgObject': {}, 'id': 'cherry tomato', 'src': '/static/foodstim60/cherry tomato.jpg', 'key': 'i', 'origWidth': 410, 'origHeight': 410, 'width': 410, 'height': 410, 'widthPercent': 0.45, 'rescaleHeight': False, 'trialN': 78, 'loaded': True, 'loadedTime': 4907.200000047684, 'positionName': 'RIGHT', 'positionCoords': [852.28, 256], 'bid': 5.75}]",156041.0,1669829465542,baked potato,cherry tomato,4.9,5.75,0.8499999999999996,cherry tomato,1748.8999999761581,1749,1749.3000000715256,True,i,158296.0,2255.0,1669829467797,2255,HRV,HRV_0036,2022-11-30 17:34:21
79,"[{'imgObject': {}, 'id': 'eggsalad', 'src': '/static/foodstim60/eggsalad.jpg', 'key': 'u', 'origWidth': 410, 'origHeight': 409, 'width': 410, 'height': 409, 'widthPercent': 0.45, 'rescaleHeight': False, 'trialN': 79, 'loaded': True, 'loadedTime': 4471.800000071526, 'positionName': 'LEFT', 'positionCoords': [376.72, 256.5], 'bid': 6.72}, {'imgObject': {}, 'id': 'raspberries', 'src': '/static/foodstim60/raspberries.jpg', 'key': 'i', 'origWidth': 411, 'origHeight': 411, 'width': 411, 'height': 411, 'widthPercent': 0.45, 'rescaleHeight': False, 'trialN': 79, 'loaded': True, 'loadedTime': 4686.5, 'positionName': 'RIGHT', 'positionCoords': [852.28, 255.5], 'bid': 4.09}]",158296.10000002384,1669829467797,eggsalad,raspberries,6.72,4.09,-2.63,eggsalad,1275.5,1276,1276.0,True,u,160080.30000007153,1784.2000000476837,1669829469581,1784,HRV,HRV_0036,2022-11-30 17:34:21
80,"[{'imgObject': {}, 'id': 'hotdog w must', 'src': '/static/foodstim60/hotdog w must.jpg', 'key': 'u', 'origWidth': 409, 'origHeight': 409, 'width': 409, 'height': 409, 'widthPercent': 0.45, 'rescaleHeight': False, 'trialN': 80, 'loaded': True, 'loadedTime': 4798.700000047684, 'positionName': 'LEFT', 'positionCoords': [377.72, 256.5], 'bid': 4.45}, {'imgObject': {}, 'id': 'blueberries', 'src': '/static/foodstim60/blueberries.jpg', 'key': 'i', 'origWidth': 411, 'origHeight': 411, 'width': 411, 'height': 411, 'widthPercent': 0.45, 'rescaleHeight': False, 'trialN': 80, 'loaded': True, 'loadedTime': 4207.600000023842, 'positionName': 'RIGHT', 'positionCoords': [852.28, 255.5], 'bid': 5.79}]",160080.60000002384,1669829469582,hotdog w must,blueberries,4.45,5.79,1.3399999999999999,blueberries,1957.3999999761581,1957,1957.7999999523163,True,i,162545.0,2464.399999976158,1669829472046,2464,HRV,HRV_0036,2022-11-30 17:34:21
81,"[{'imgObject': {}, 'id': 'chickenfingers', 'src': '/static/foodstim60/chickenfingers.jpg', 'key': 'u', 'origWidth': 410, 'origHeight': 410, 'width': 410, 'height': 410, 'widthPercent': 0.45, 'rescaleHeight': False, 'trialN': 81, 'loaded': True, 'loadedTime': 4050, 'positionName': 'LEFT', 'positionCoords': [376.72, 256], 'bid': 2.98}, {'imgObject': {}, 'id': 'mango', 'src': '/static/foodstim60/mango.jpg', 'key': 'i', 'origWidth': 411, 'origHeight': 411, 'width': 411, 'height': 411, 'widthPercent': 0.45, 'rescaleHeight': False, 'trialN': 81, 'loaded': True, 'loadedTime': 4907.300000071526, 'positionName': 'RIGHT', 'positionCoords': [852.28, 255.5], 'bid': 1.89}]",162545.10000002384,1669829472046,chickenfingers,mango,2.98,1.89,-1.09,chickenfingers,2301.7999999523163,2302,2302.100000023842,True,u,165352.20000004768,2807.100000023842,1669829474853,2807,HRV,HRV_0036,2022-11-30 17:34:21
82,"[{'imgObject': {}, 'id': 'lox', 'src': '/static/foodstim60/lox.jpg', 'key': 'u', 'origWidth': 410, 'origHeight': 411, 'width': 410, 'height': 411, 'widthPercent': 0.45, 'rescaleHeight': False, 'trialN': 82, 'loaded': True, 'loadedTime': 4881, 'positionName': 'LEFT', 'positionCoords': [376.72, 255.5], 'bid': 1.72}, {'imgObject': {}, 'id': 'apple slices', 'src': '/static/foodstim60/apple slices.jpg', 'key': 'i', 'origWidth': 409, 'origHeight': 410, 'width': 409, 'height': 410, 'widthPercent': 0.45, 'rescaleHeight': False, 'trialN': 82, 'loaded': True, 'loadedTime': 4233.800000071526, 'positionName': 'RIGHT', 'positionCoords': [852.28, 256], 'bid': 1.72}]",165352.5,1669829474853,lox,apple slices,1.72,1.72,0.0,lox,1225.8000000715256,1226,1226.0,True,u,167080.60000002384,1728.1000000238419,1669829476581,1728,HRV,HRV_0036,2022-11-30 17:34:21
83,"[{'imgObject': {}, 'id': 'raisin bran w milk', 'src': '/static/foodstim60/raisin bran w milk.jpg', 'key': 'u', 'origWidth': 411, 'origHeight': 411, 'width': 411, 'height': 411, 'widthPercent': 0.45, 'rescaleHeight': False, 'trialN': 83, 'loaded': True, 'loadedTime': 4771.899999976158, 'positionName': 'LEFT', 'positionCoords': [375.72, 255.5], 'bid': 1.16}, {'imgObject': {}, 'id': 'banana', 'src': '/static/foodstim60/banana.jpg', 'key': 'i', 'origWidth': 410, 'origHeight': 410, 'width': 410, 'height': 410, 'widthPercent': 0.45, 'rescaleHeight': False, 'trialN': 83, 'loaded': True, 'loadedTime': 4880.800000071526, 'positionName': 'RIGHT', 'positionCoords': [852.28, 256], 'bid': 1.76}]",167080.70000004768,1669829476582,raisin bran w milk,banana,1.16,1.76,0.6000000000000001,banana,982.1000000238419,982,982.3999999761581,True,i,168569.20000004768,1488.5,1669829478070,1488,HRV,HRV_0036,2022-11-30 17:34:21
84,"[{'imgObject': {}, 'id': 'grilled chicken strips', 'src': '/static/foodstim60/grilled chicken strips.jpg', 'key': 'u', 'origWidth': 410, 'origHeight': 411, 'width': 410, 'height': 411, 'widthPercent': 0.45, 'rescaleHeight': False, 'trialN': 84, 'loaded': True, 'loadedTime': 4910.100000023842, 'positionName': 'LEFT', 'positionCoords': [376.72, 255.5], 'bid': 1.54}, {'imgObject': {}, 'id': 'luckycharms', 'src': '/static/foodstim60/luckycharms.jpg', 'key': 'i', 'origWidth': 410, 'origHeight': 409, 'width': 410, 'height': 409, 'widthPercent': 0.45, 'rescaleHeight': False, 'trialN': 84, 'loaded': True, 'loadedTime': 4742.399999976158, 'positionName': 'RIGHT', 'positionCoords': [852.28, 256.5], 'bid': 1.08}]",168569.39999997616,1669829478070,grilled chicken strips,luckycharms,1.54,1.08,-0.45999999999999996,grilled chicken strips,2025,2026,2025.4000000953674,True,u,171098.10000002384,2528.7000000476837,1669829480599,2529,HRV,HRV_0036,2022-11-30 17:34:21
85,"[{'imgObject': {}, 'id': 'fried eggs', 'src': '/static/foodstim60/fried eggs.jpg', 'key': 'u', 'origWidth': 410, 'origHeight': 410, 'width': 410, 'height': 410, 'widthPercent': 0.45, 'rescaleHeight': False, 'trialN': 85, 'loaded': True, 'loadedTime': 4019.3000000715256, 'positionName': 'LEFT', 'positionCoords': [376.72, 256], 'bid': 8.58}, {'imgObject': {}, 'id': 'bagel plain', 'src': '/static/foodstim60/bagel plain.jpg', 'key': 'i', 'origWidth': 410, 'origHeight': 410, 'width': 410, 'height': 410, 'widthPercent': 0.45, 'rescaleHeight': False, 'trialN': 85, 'loaded': True, 'loadedTime': 4910.200000047684, 'positionName': 'RIGHT', 'positionCoords': [852.28, 256], 'bid': 4.67}]",171098.30000007153,1669829480599,fried eggs,bagel plain,8.58,4.67,-3.91,fried eggs,1032.7999999523163,1033,1033.1999999284744,True,u,172633.30000007153,1535.0,1669829482134,1535,HRV,HRV_0036,2022-11-30 17:34:21
86,"[{'imgObject': {}, 'id': 'bagel plain', 'src': '/static/foodstim60/bagel plain.jpg', 'key': 'u', 'origWidth': 410, 'origHeight': 410, 'width': 410, 'height': 410, 'widthPercent': 0.45, 'rescaleHeight': False, 'trialN': 86, 'loaded': True, 'loadedTime': 4911, 'positionName': 'LEFT', 'positionCoords': [376.72, 256], 'bid': 4.67}, {'imgObject': {}, 'id': 'grilled chicken strips', 'src': '/static/foodstim60/grilled chicken strips.jpg', 'key': 'i', 'origWidth': 410, 'origHeight': 411, 'width': 410, 'height': 411, 'widthPercent': 0.45, 'rescaleHeight': False, 'trialN': 86, 'loaded': True, 'loadedTime': 4908.800000071526, 'positionName': 'RIGHT', 'positionCoords': [852.28, 255.5], 'bid': 1.54}]",172633.39999997616,1669829482134,bagel plain,grilled chicken strips,4.67,1.54,-3.13,bagel plain,1687.2000000476837,1688,1687.7000000476837,True,u,174823.30000007153,2189.9000000953674,1669829484324,2190,HRV,HRV_0036,2022-11-30 17:34:21
87,"[{'imgObject': {}, 'id': 'cherry tomato', 'src': '/static/foodstim60/cherry tomato.jpg', 'key': 'u', 'origWidth': 410, 'origHeight': 410, 'width': 410, 'height': 410, 'widthPercent': 0.45, 'rescaleHeight': False, 'trialN': 87, 'loaded': True, 'loadedTime': 4885.600000023842, 'positionName': 'LEFT', 'positionCoords': [376.72, 256], 'bid': 5.75}, {'imgObject': {}, 'id': 'bagel plain', 'src': '/static/foodstim60/bagel plain.jpg', 'key': 'i', 'origWidth': 410, 'origHeight': 410, 'width': 410, 'height': 410, 'widthPercent': 0.45, 'rescaleHeight': False, 'trialN': 87, 'loaded': True, 'loadedTime': 4910.899999976158, 'positionName': 'RIGHT', 'positionCoords': [852.28, 256], 'bid': 4.67}]",174823.5,1669829484324,cherry tomato,bagel plain,5.75,4.67,-1.08,cherry tomato,1356.3999999761581,1357,1356.8999999761581,True,u,176680.70000004768,1857.2000000476837,1669829486182,1858,HRV,HRV_0036,2022-11-30 17:34:21
88,"[{'imgObject': {}, 'id': 'turkeysandwich', 'src': '/static/foodstim60/turkeysandwich.jpg', 'key': 'u', 'origWidth': 409, 'origHeight': 409, 'width': 409, 'height': 409, 'widthPercent': 0.45, 'rescaleHeight': False, 'trialN': 88, 'loaded': True, 'loadedTime': 4294.899999976158, 'positionName': 'LEFT', 'positionCoords': [377.72, 256.5], 'bid': 1.87}, {'imgObject': {}, 'id': 'seaweed', 'src': '/static/foodstim60/seaweed.jpg', 'key': 'i', 'origWidth': 410, 'origHeight': 410, 'width': 410, 'height': 410, 'widthPercent': 0.45, 'rescaleHeight': False, 'trialN': 88, 'loaded': True, 'loadedTime': 3966.600000023842, 'positionName': 'RIGHT', 'positionCoords': [852.28, 256], 'bid': 1.69}]",176680.80000007153,1669829486182,turkeysandwich,seaweed,1.87,1.69,-0.18000000000000016,turkeysandwich,1351,1351,1351.2999999523163,True,u,178536.10000002384,1855.2999999523163,1669829488037,1855,HRV,HRV_0036,2022-11-30 17:34:21
89,"[{'imgObject': {}, 'id': 'Tribe humus pita', 'src': '/static/foodstim60/Tribe humus pita.jpg', 'key': 'u', 'origWidth': 411, 'origHeight': 411, 'width': 411, 'height': 411, 'widthPercent': 0.45, 'rescaleHeight': False, 'trialN': 89, 'loaded': True, 'loadedTime': 4038.2000000476837, 'positionName': 'LEFT', 'positionCoords': [375.72, 255.5], 'bid': 3.96}, {'imgObject': {}, 'id': 'chicken nuggets2', 'src': '/static/foodstim60/chicken nuggets2.jpg', 'key': 'i', 'origWidth': 410, 'origHeight': 409, 'width': 410, 'height': 409, 'widthPercent': 0.45, 'rescaleHeight': False, 'trialN': 89, 'loaded': True, 'loadedTime': 4714.700000047684, 'positionName': 'RIGHT', 'positionCoords': [852.28, 256.5], 'bid': 3.78}]",178536.30000007153,1669829488037,Tribe humus pita,chicken nuggets2,3.96,3.78,-0.18000000000000016,chicken nuggets2,2072.1999999284744,2072,2072.5999999046326,True,i,181112.80000007153,2576.5,1669829490613,2576,HRV,HRV_0036,2022-11-30 17:34:21
90,"[{'imgObject': {}, 'id': 'rigatoni and sauce', 'src': '/static/foodstim60/rigatoni and sauce.jpg', 'key': 'u', 'origWidth': 410, 'origHeight': 411, 'width': 410, 'height': 411, 'widthPercent': 0.45, 'rescaleHeight': False, 'trialN': 90, 'loaded': True, 'loadedTime': 4352.700000047684, 'positionName': 'LEFT', 'positionCoords': [376.72, 255.5], 'bid': 3.73}, {'imgObject': {}, 'id': 'cherries', 'src': '/static/foodstim60/cherries.jpg', 'key': 'i', 'origWidth': 410, 'origHeight': 411, 'width': 410, 'height': 411, 'widthPercent': 0.45, 'rescaleHeight': False, 'trialN': 90, 'loaded': True, 'loadedTime': 4174.5, 'positionName': 'RIGHT', 'positionCoords': [852.28, 255.5], 'bid': 5.92}]",184992.70000004768,1669829494493,rigatoni and sauce,cherries,3.73,5.92,2.19,NaN,NaN,NaN,,False,NaN,189000.30000007153,4007.600000023842,1669829498500,4007,HRV,HRV_0036,2022-11-30 17:34:21
91,"[{'imgObject': {}, 'id': 'mac & cheese', 'src': '/static/foodstim60/mac & cheese.jpg', 'key': 'u', 'origWidth': 410, 'origHeight': 410, 'width': 410, 'height': 410, 'widthPercent': 0.45, 'rescaleHeight': False, 'trialN': 91, 'loaded': True, 'loadedTime': 4035, 'positionName': 'LEFT', 'positionCoords': [376.72, 256], 'bid': 5.7700000000000005}, {'imgObject': {}, 'id': 'blueberries', 'src': '/static/foodstim60/blueberries.jpg', 'key': 'i', 'origWidth': 411, 'origHeight': 411, 'width': 411, 'height': 411, 'widthPercent': 0.45, 'rescaleHeight': False, 'trialN': 91, 'loaded': True, 'loadedTime': 4207.399999976158, 'positionName': 'RIGHT', 'positionCoords': [852.28, 255.5], 'bid': 5.79}]",189000.60000002384,1669829498500,mac & cheese,blueberries,5.7700000000000005,5.79,0.019999999999999574,mac & cheese,186.5,187,186.89999997615814,True,u,189688.10000002384,687.5,1669829499188,688,HRV,HRV_0036,2022-11-30 17:34:21
92,"[{'imgObject': {}, 'id': 'Grapes', 'src': '/static/foodstim60/Grapes.jpg', 'key': 'u', 'origWidth': 411, 'origHeight': 411, 'width': 411, 'height': 411, 'widthPercent': 0.45, 'rescaleHeight': False, 'trialN': 92, 'loaded': True, 'loadedTime': 4376.5, 'positionName': 'LEFT', 'positionCoords': [375.72, 255.5], 'bid': 6.29}, {'imgObject': {}, 'id': 'eggs', 'src': '/static/foodstim60/eggs.jpg', 'key': 'i', 'origWidth': 409, 'origHeight': 409, 'width': 409, 'height': 409, 'widthPercent': 0.45, 'rescaleHeight': False, 'trialN': 92, 'loaded': True, 'loadedTime': 4911.899999976158, 'positionName': 'RIGHT', 'positionCoords': [852.28, 256.5], 'bid': 8.89}]",189688.39999997616,1669829499188,Grapes,eggs,6.29,8.89,2.6000000000000005,eggs,946.6000000238419,947,946.9000000953674,True,i,191136.39999997616,1448.0,1669829500636,1448,HRV,HRV_0036,2022-11-30 17:34:21
93,"[{'imgObject': {}, 'id': 'omelette', 'src': '/static/foodstim60/omelette.jpg', 'key': 'u', 'origWidth': 410, 'origHeight': 409, 'width': 410, 'height': 409, 'widthPercent': 0.45, 'rescaleHeight': False, 'trialN': 93, 'loaded': True, 'loadedTime': 4421.899999976158, 'positionName': 'LEFT', 'positionCoords': [376.72, 256.5], 'bid': 8.58}, {'imgObject': {}, 'id': 'blueberries', 'src': '/static/foodstim60/blueberries.jpg', 'key': 'i', 'origWidth': 411, 'origHeight': 411, 'width': 411, 'height': 411, 'widthPercent': 0.45, 'rescaleHeight': False, 'trialN': 93, 'loaded': True, 'loadedTime': 4208, 'positionName': 'RIGHT', 'positionCoords': [852.28, 255.5], 'bid': 5.79}]",191136.5,1669829500636,omelette,blueberries,8.58,5.79,-2.79,omelette,892.3999999761581,893,892.8999999761581,True,u,192536.80000007153,1400.3000000715256,1669829502037,1401,HRV,HRV_0036,2022-11-30 17:34:21
94,"[{'imgObject': {}, 'id': 'granola w milk', 'src': '/static/foodstim60/granola w milk.jpg', 'key': 'u', 'origWidth': 410, 'origHeight': 410, 'width': 410, 'height': 410, 'widthPercent': 0.45, 'rescaleHeight': False, 'trialN': 94, 'loaded': True, 'loadedTime': 4883, 'positionName': 'LEFT', 'positionCoords': [376.72, 256], 'bid': 1.08}, {'imgObject': {}, 'id': 'chicken nuggets2', 'src': '/static/foodstim60/chicken nuggets2.jpg', 'key': 'i', 'origWidth': 410, 'origHeight': 409, 'width': 410, 'height': 409, 'widthPercent': 0.45, 'rescaleHeight': False, 'trialN': 94, 'loaded': True, 'loadedTime': 4715.800000071526, 'positionName': 'RIGHT', 'positionCoords': [852.28, 256.5], 'bid': 3.78}]",192537.0,1669829502037,granola w milk,chicken nuggets2,1.08,3.78,2.6999999999999997,chicken nuggets2,1095.6000000238419,1096,1096.1000000238419,True,i,194136.60000002384,1599.6000000238419,1669829503636,1599,HRV,HRV_0036,2022-11-30 17:34:21
95,"[{'imgObject': {}, 'id': 'yogurt no spoon', 'src': '/static/foodstim60/yogurt no spoon.jpg', 'key': 'u', 'origWidth': 411, 'origHeight': 410, 'width': 411, 'height': 410, 'widthPercent': 0.45, 'rescaleHeight': False, 'trialN': 95, 'loaded': True, 'loadedTime': 4032, 'positionName': 'LEFT', 'positionCoords': [375.72, 256], 'bid': 5.83}, {'imgObject': {}, 'id': 'burger', 'src': '/static/foodstim60/burger.jpg', 'key': 'i', 'origWidth': 409, 'origHeight': 409, 'width': 409, 'height': 409, 'widthPercent': 0.45, 'rescaleHeight': False, 'trialN': 95, 'loaded': True, 'loadedTime': 4022.8000000715256, 'positionName': 'RIGHT', 'positionCoords': [852.28, 256.5], 'bid': 3.04}]",194136.80000007153,1669829503637,yogurt no spoon,burger,5.83,3.04,-2.79,yogurt no spoon,1252.6999999284744,1253,1253.1999999284744,True,u,195897.20000004768,1760.3999999761581,1669829505397,1760,HRV,HRV_0036,2022-11-30 17:34:21
96,"[{'imgObject': {}, 'id': 'orange slices', 'src': '/static/foodstim60/orange slices.jpg', 'key': 'u', 'origWidth': 409, 'origHeight': 410, 'width': 409, 'height': 410, 'widthPercent': 0.45, 'rescaleHeight': False, 'trialN': 96, 'loaded': True, 'loadedTime': 4799, 'positionName': 'LEFT', 'positionCoords': [377.72, 256], 'bid': 1.28}, {'imgObject': {}, 'id': 'hashbrowns', 'src': '/static/foodstim60/hashbrowns.jpg', 'key': 'i', 'origWidth': 411, 'origHeight': 410, 'width': 411, 'height': 410, 'widthPercent': 0.45, 'rescaleHeight': False, 'trialN': 96, 'loaded': True, 'loadedTime': 4267.300000071526, 'positionName': 'RIGHT', 'positionCoords': [852.28, 256], 'bid': 1.19}]",195897.5,1669829505397,orange slices,hashbrowns,1.28,1.19,-0.09000000000000008,orange slices,1226.5,1227,1226.8999999761581,True,u,197632.10000002384,1734.6000000238419,1669829507132,1735,HRV,HRV_0036,2022-11-30 17:34:21
97,"[{'imgObject': {}, 'id': 'omelette', 'src': '/static/foodstim60/omelette.jpg', 'key': 'u', 'origWidth': 410, 'origHeight': 409, 'width': 410, 'height': 409, 'widthPercent': 0.45, 'rescaleHeight': False, 'trialN': 97, 'loaded': True, 'loadedTime': 4421.600000023842, 'positionName': 'LEFT', 'positionCoords': [376.72, 256.5], 'bid': 8.58}, {'imgObject': {}, 'id': 'olives', 'src': '/static/foodstim60/olives.jpg', 'key': 'i', 'origWidth': 410, 'origHeight': 410, 'width': 410, 'height': 410, 'widthPercent': 0.45, 'rescaleHeight': False, 'trialN': 97, 'loaded': True, 'loadedTime': 4825.700000047684, 'positionName': 'RIGHT', 'positionCoords': [852.28, 256], 'bid': 7.1000000000000005}]",197632.30000007153,1669829507132,omelette,olives,8.58,7.1000000000000005,-1.4799999999999995,omelette,1413.3999999761581,1414,1413.7999999523163,True,u,199552.60000002384,1920.2999999523163,1669829509052,1920,HRV,HRV_0036,2022-11-30 17:34:21
98,"[{'imgObject': {}, 'id': 'bagel and cc', 'src': '/static/foodstim60/bagel and cc.jpg', 'key': 'u', 'origWidth': 410, 'origHeight': 410, 'width': 410, 'height': 410, 'widthPercent': 0.45, 'rescaleHeight': False, 'trialN': 98, 'loaded': True, 'loadedTime': 4714.700000047684, 'positionName': 'LEFT', 'positionCoords': [376.72, 256], 'bid': 4.62}, {'imgObject': {}, 'id': 'pear', 'src': '/static/foodstim60/pear.jpg', 'key': 'i', 'origWidth': 411, 'origHeight': 410, 'width': 411, 'height': 410, 'widthPercent': 0.45, 'rescaleHeight': False, 'trialN': 98, 'loaded': True, 'loadedTime': 4030.899999976158, 'positionName': 'RIGHT', 'positionCoords': [852.28, 256], 'bid': 1.52}]",199552.89999997616,1669829509053,bagel and cc,pear,4.62,1.52,-3.1,bagel and cc,1044.6000000238419,1045,1045.1000000238419,True,u,201105.10000002384,1552.2000000476837,1669829510605,1552,HRV,HRV_0036,2022-11-30 17:34:21
99,"[{'imgObject': {}, 'id': 'hashbrowns', 'src': '/static/foodstim60/hashbrowns.jpg', 'key': 'u', 'origWidth': 411, 'origHeight': 410, 'width': 411, 'height': 410, 'widthPercent': 0.45, 'rescaleHeight': False, 'trialN': 99, 'loaded': True, 'loadedTime': 4265.300000071526, 'positionName': 'LEFT', 'positionCoords': [375.72, 256], 'bid': 1.19}, {'imgObject': {}, 'id': 'cheerios', 'src': '/static/foodstim60/cheerios.jpg', 'key': 'i', 'origWidth': 409, 'origHeight': 410, 'width': 409, 'height': 410, 'widthPercent': 0.45, 'rescaleHeight': False, 'trialN': 99, 'loaded': True, 'loadedTime': 4770.5, 'positionName': 'RIGHT', 'positionCoords': [852.28, 256], 'bid': 0.78}]",201105.20000004768,1669829510605,hashbrowns,cheerios,1.19,0.78,-0.4099999999999999,cheerios,1007.7999999523163,1008,1008.2999999523163,True,i,202616.0,1510.7999999523163,1669829512116,1511,HRV,HRV_0036,2022-11-30 17:34:21
100,"[{'imgObject': {}, 'id': 'fruitsalad', 'src': '/static/foodstim60/fruitsalad.jpg', 'key': 'u', 'origWidth': 410, 'origHeight': 410, 'width': 410, 'height': 410, 'widthPercent': 0.45, 'rescaleHeight': False, 'trialN': 100, 'loaded': True, 'loadedTime': 4883.100000023842, 'positionName': 'LEFT', 'positionCoords': [376.72, 256], 'bid': 2.68}, {'imgObject': {}, 'id': 'kiwi', 'src': '/static/foodstim60/kiwi.jpg', 'key': 'i', 'origWidth': 410, 'origHeight': 410, 'width': 410, 'height': 410, 'widthPercent': 0.45, 'rescaleHeight': False, 'trialN': 100, 'loaded': True, 'loadedTime': 4913, 'positionName': 'RIGHT', 'positionCoords': [852.28, 256], 'bid': 2.02}]",202616.30000007153,1669829512116,fruitsalad,kiwi,2.68,2.02,-0.6600000000000001,fruitsalad,1905.5999999046326,1906,1906.0,True,u,205024.20000004768,2407.899999976158,1669829514524,2408,HRV,HRV_0036,2022-11-30 17:34:21
101,"[{'imgObject': {}, 'id': 'mashed potato', 'src': '/static/foodstim60/mashed potato.jpg', 'key': 'u', 'origWidth': 409, 'origHeight': 409, 'width': 409, 'height': 409, 'widthPercent': 0.45, 'rescaleHeight': False, 'trialN': 101, 'loaded': True, 'loadedTime': 4853.399999976158, 'positionName': 'LEFT', 'positionCoords': [377.72, 256.5], 'bid': 6.75}, {'imgObject': {}, 'id': 'veggieswithdip', 'src': '/static/foodstim60/veggieswithdip.jpg', 'key': 'i', 'origWidth': 409, 'origHeight': 409, 'width': 409, 'height': 409, 'widthPercent': 0.45, 'rescaleHeight': False, 'trialN': 101, 'loaded': True, 'loadedTime': 4688.399999976158, 'positionName': 'RIGHT', 'positionCoords': [852.28, 256.5], 'bid': 4.1}]",205024.5,1669829514524,mashed potato,veggieswithdip,6.75,4.1,-2.6500000000000004,mashed potato,1290.2000000476837,1291,1290.7000000476837,True,u,206816.5,1792.0,1669829516316,1792,HRV,HRV_0036,2022-11-30 17:34:21
102,"[{'imgObject': {}, 'id': 'burger', 'src': '/static/foodstim60/burger.jpg', 'key': 'u', 'origWidth': 409, 'origHeight': 409, 'width': 409, 'height': 409, 'widthPercent': 0.45, 'rescaleHeight': False, 'trialN': 102, 'loaded': True, 'loadedTime': 4021.7000000476837, 'positionName': 'LEFT', 'positionCoords': [377.72, 256.5], 'bid': 3.04}, {'imgObject': {}, 'id': 'kiwi', 'src': '/static/foodstim60/kiwi.jpg', 'key': 'i', 'origWidth': 410, 'origHeight': 410, 'width': 410, 'height': 410, 'widthPercent': 0.45, 'rescaleHeight': False, 'trialN': 102, 'loaded': True, 'loadedTime': 4913.200000047684, 'positionName': 'RIGHT', 'positionCoords': [852.28, 256], 'bid': 2.02}]",206816.70000004768,1669829516316,burger,kiwi,3.04,2.02,-1.02,burger,2090.100000023842,2091,2090.6999999284744,True,u,209408.10000002384,2591.399999976158,1669829518908,2592,HRV,HRV_0036,2022-11-30 17:34:21
103,"[{'imgObject': {}, 'id': 'hotdog w must', 'src': '/static/foodstim60/hotdog w must.jpg', 'key': 'u', 'origWidth': 409, 'origHeight': 409, 'width': 409, 'height': 409, 'widthPercent': 0.45, 'rescaleHeight': False, 'trialN': 103, 'loaded': True, 'loadedTime': 4798.899999976158, 'positionName': 'LEFT', 'positionCoords': [377.72, 256.5], 'bid': 4.45}, {'imgObject': {}, 'id': 'veggieswithdip', 'src': '/static/foodstim60/veggieswithdip.jpg', 'key': 'i', 'origWidth': 409, 'origHeight': 409, 'width': 409, 'height': 409, 'widthPercent': 0.45, 'rescaleHeight': False, 'trialN': 103, 'loaded': True, 'loadedTime': 4689, 'positionName': 'RIGHT', 'positionCoords': [852.28, 256.5], 'bid': 4.1}]",209408.39999997616,1669829518908,hotdog w must,veggieswithdip,4.45,4.1,-0.35000000000000053,hotdog w must,1490.5,1491,1491.0,True,u,211400.70000004768,1992.3000000715256,1669829520900,1992,HRV,HRV_0036,2022-11-30 17:34:21
104,"[{'imgObject': {}, 'id': 'rigatoni', 'src': '/static/foodstim60/rigatoni.jpg', 'key': 'u', 'origWidth': 411, 'origHeight': 411, 'width': 411, 'height': 411, 'widthPercent': 0.45, 'rescaleHeight': False, 'trialN': 104, 'loaded': True, 'loadedTime': 4742.800000071526, 'positionName': 'LEFT', 'positionCoords': [375.72, 255.5], 'bid': 4.12}, {'imgObject': {}, 'id': 'hashbrowns', 'src': '/static/foodstim60/hashbrowns.jpg', 'key': 'i', 'origWidth': 411, 'origHeight': 410, 'width': 411, 'height': 410, 'widthPercent': 0.45, 'rescaleHeight': False, 'trialN': 104, 'loaded': True, 'loadedTime': 4294.300000071526, 'positionName': 'RIGHT', 'positionCoords': [852.28, 256], 'bid': 1.19}]",211401.0,1669829520901,rigatoni,hashbrowns,4.12,1.19,-2.93,rigatoni,1174.8000000715256,1175,1175.0,True,u,213081.10000002384,1680.1000000238419,1669829522581,1680,HRV,HRV_0036,2022-11-30 17:34:21
105,"[{'imgObject': {}, 'id': 'steak', 'src': '/static/foodstim60/steak.jpg', 'key': 'u', 'origWidth': 410, 'origHeight': 410, 'width': 410, 'height': 410, 'widthPercent': 0.45, 'rescaleHeight': False, 'trialN': 105, 'loaded': True, 'loadedTime': 4024.7000000476837, 'positionName': 'LEFT', 'positionCoords': [376.72, 256], 'bid': 8.700000000000001}, {'imgObject': {}, 'id': 'burrito', 'src': '/static/foodstim60/burrito.jpg', 'key': 'i', 'origWidth': 410, 'origHeight': 410, 'width': 410, 'height': 410, 'widthPercent': 0.45, 'rescaleHeight': False, 'trialN': 105, 'loaded': True, 'loadedTime': 4038.600000023842, 'positionName': 'RIGHT', 'positionCoords': [852.28, 256], 'bid': 2.72}]",213081.20000004768,1669829522581,steak,burrito,8.700000000000001,2.72,-5.98,steak,894.1000000238419,895,894.5,True,u,214480.5,1399.2999999523163,1669829523980,1399,HRV,HRV_0036,2022-11-30 17:34:21
106,"[{'imgObject': {}, 'id': 'roastedpotatoes', 'src': '/static/foodstim60/roastedpotatoes.jpg', 'key': 'u', 'origWidth': 409, 'origHeight': 410, 'width': 409, 'height': 410, 'widthPercent': 0.45, 'rescaleHeight': False, 'trialN': 106, 'loaded': True, 'loadedTime': 4037, 'positionName': 'LEFT', 'positionCoords': [377.72, 256], 'bid': 6.55}, {'imgObject': {}, 'id': 'corn cob', 'src': '/static/foodstim60/corn cob.jpg', 'key': 'i', 'origWidth': 411, 'origHeight': 411, 'width': 411, 'height': 411, 'widthPercent': 0.45, 'rescaleHeight': False, 'trialN': 106, 'loaded': True, 'loadedTime': 4797, 'positionName': 'RIGHT', 'positionCoords': [852.28, 255.5], 'bid': 1.76}]",214480.70000004768,1669829523980,roastedpotatoes,corn cob,6.55,1.76,-4.79,roastedpotatoes,1007.6000000238419,1009,1008.0,True,u,215993.10000002384,1512.3999999761581,1669829525493,1513,HRV,HRV_0036,2022-11-30 17:34:21
107,"[{'imgObject': {}, 'id': 'luckycharms', 'src': '/static/foodstim60/luckycharms.jpg', 'key': 'u', 'origWidth': 410, 'origHeight': 409, 'width': 410, 'height': 409, 'widthPercent': 0.45, 'rescaleHeight': False, 'trialN': 107, 'loaded': True, 'loadedTime': 4742.5, 'positionName': 'LEFT', 'positionCoords': [376.72, 256.5], 'bid': 1.08}, {'imgObject': {}, 'id': 'corn cob', 'src': '/static/foodstim60/corn cob.jpg', 'key': 'i', 'origWidth': 411, 'origHeight': 411, 'width': 411, 'height': 411, 'widthPercent': 0.45, 'rescaleHeight': False, 'trialN': 107, 'loaded': True, 'loadedTime': 4773.200000047684, 'positionName': 'RIGHT', 'positionCoords': [852.28, 255.5], 'bid': 1.76}]",215993.30000007153,1669829525493,luckycharms,corn cob,1.08,1.76,0.6799999999999999,corn cob,924.6999999284744,925,925.0,True,i,217424.30000007153,1431.0,1669829526924,1431,HRV,HRV_0036,2022-11-30 17:34:21
108,"[{'imgObject': {}, 'id': 'mango', 'src': '/static/foodstim60/mango.jpg', 'key': 'u', 'origWidth': 411, 'origHeight': 411, 'width': 411, 'height': 411, 'widthPercent': 0.45, 'rescaleHeight': False, 'trialN': 108, 'loaded': True, 'loadedTime': 4908.800000071526, 'positionName': 'LEFT', 'positionCoords': [375.72, 255.5], 'bid': 1.89}, {'imgObject': {}, 'id': 'shreddedwheatwithmilk', 'src': '/static/foodstim60/shreddedwheatwithmilk.jpg', 'key': 'i', 'origWidth': 410, 'origHeight': 410, 'width': 410, 'height': 410, 'widthPercent': 0.45, 'rescaleHeight': False, 'trialN': 108, 'loaded': True, 'loadedTime': 4082.899999976158, 'positionName': 'RIGHT', 'positionCoords': [852.28, 256], 'bid': 2.22}]",217424.5,1669829526924,mango,shreddedwheatwithmilk,1.89,2.22,0.3300000000000003,shreddedwheatwithmilk,1315.3999999761581,1316,1316.0,True,i,219249.30000007153,1824.8000000715256,1669829528749,1825,HRV,HRV_0036,2022-11-30 17:34:21
