trialN,stimuli,trialStartTime,trialStartTime_UNIX,stimulus1,stimulus2,stimulus1Bid,stimulus2Bid,delta,selected,rt,rt_UNIX,rt_perfnow,receivedResponse,rsp,trialEndTime,trialDuration,trialEndTime_UNIX,trialDuration_UNIX,exp,subjectId,date
0,"[{'imgObject': {}, 'id': 'cantaloupe', 'src': '/static/foodstim60/cantaloupe.jpg', 'key': 'u', 'origWidth': 409, 'origHeight': 409, 'width': 409, 'height': 409, 'widthPercent': 0.45, 'rescaleHeight': False, 'trialN': 0, 'loaded': True, 'loadedTime': 3552.2000000476837, 'positionName': 'LEFT', 'positionCoords': [246.68, 179.5], 'bid': 5.87}, {'imgObject': {}, 'id': 'baked potato', 'src': '/static/foodstim60/baked potato.jpg', 'key': 'i', 'origWidth': 409, 'origHeight': 410, 'width': 409, 'height': 410, 'widthPercent': 0.45, 'rescaleHeight': False, 'trialN': 0, 'loaded': True, 'loadedTime': 3714.2999999523163, 'positionName': 'RIGHT', 'positionCoords': [710.32, 179], 'bid': 7.53}]",7349.200000047684,1669834335178,cantaloupe,baked potato,5.87,7.53,1.6600000000000001,baked potato,1888.2999999523163,1889,1889.4000000953674,True,i,9760.299999952316,2411.0999999046326,1669834337589,2411,HRV,HRV_0217,2022-11-30 18:57:30
1,"[{'imgObject': {}, 'id': 'apple slices', 'src': '/static/foodstim60/apple slices.jpg', 'key': 'u', 'origWidth': 409, 'origHeight': 410, 'width': 409, 'height': 410, 'widthPercent': 0.45, 'rescaleHeight': False, 'trialN': 1, 'loaded': True, 'loadedTime': 3758.2999999523163, 'positionName': 'LEFT', 'positionCoords': [246.68, 179], 'bid': 5.8100000000000005}, {'imgObject': {}, 'id': 'tacos', 'src': '/static/foodstim60/tacos.jpg', 'key': 'i', 'origWidth': 411, 'origHeight': 411, 'width': 411, 'height': 411, 'widthPercent': 0.45, 'rescaleHeight': False, 'trialN': 1, 'loaded': True, 'loadedTime': 3871.7000000476837, 'positionName': 'RIGHT', 'positionCoords': [710.32, 178.5], 'bid': 7.5}]",9761.200000047684,1669834337590,apple slices,tacos,5.8100000000000005,7.5,1.6899999999999995,tacos,1028.5999999046326,1030,1030.4000000953674,True,i,11300.700000047684,1539.5,1669834339129,1539,HRV,HRV_0217,2022-11-30 18:57:30
2,"[{'imgObject': {}, 'id': 'luckycharms', 'src': '/static/foodstim60/luckycharms.jpg', 'key': 'u', 'origWidth': 410, 'origHeight': 409, 'width': 410, 'height': 409, 'widthPercent': 0.45, 'rescaleHeight': False, 'trialN': 2, 'loaded': True, 'loadedTime': 3960.2000000476837, 'positionName': 'LEFT', 'positionCoords': [245.68, 179.5], 'bid': 7.25}, {'imgObject': {}, 'id': 'avocado', 'src': '/static/foodstim60/avocado.jpg', 'key': 'i', 'origWidth': 409, 'origHeight': 409, 'width': 409, 'height': 409, 'widthPercent': 0.45, 'rescaleHeight': False, 'trialN': 2, 'loaded': True, 'loadedTime': 4045.5, 'positionName': 'RIGHT', 'positionCoords': [710.32, 179.5], 'bid': 8.9}]",11301.100000143051,1669834339130,luckycharms,avocado,7.25,8.9,1.6500000000000004,avocado,1617.1999998092651,1619,1618.8999998569489,True,i,13433.0,2131.899999856949,1669834341262,2132,HRV,HRV_0217,2022-11-30 18:57:30
3,"[{'imgObject': {}, 'id': 'eggs', 'src': '/static/foodstim60/eggs.jpg', 'key': 'u', 'origWidth': 409, 'origHeight': 409, 'width': 409, 'height': 409, 'widthPercent': 0.45, 'rescaleHeight': False, 'trialN': 3, 'loaded': True, 'loadedTime': 4073, 'positionName': 'LEFT', 'positionCoords': [246.68, 179.5], 'bid': 8.39}, {'imgObject': {}, 'id': 'chicken nuggets2', 'src': '/static/foodstim60/chicken nuggets2.jpg', 'key': 'i', 'origWidth': 410, 'origHeight': 409, 'width': 410, 'height': 409, 'widthPercent': 0.45, 'rescaleHeight': False, 'trialN': 3, 'loaded': True, 'loadedTime': 4250.700000047684, 'positionName': 'RIGHT', 'positionCoords': [710.32, 179.5], 'bid': 8.39}]",13434.100000143051,1669834341263,eggs,chicken nuggets2,8.39,8.39,0.0,chicken nuggets2,1311.1999998092651,1312,1312.1999998092651,True,i,15261.600000143051,1827.5,1669834343090,1827,HRV,HRV_0217,2022-11-30 18:57:30
4,"[{'imgObject': {}, 'id': 'mac & cheese', 'src': '/static/foodstim60/mac & cheese.jpg', 'key': 'u', 'origWidth': 410, 'origHeight': 410, 'width': 410, 'height': 410, 'widthPercent': 0.45, 'rescaleHeight': False, 'trialN': 4, 'loaded': True, 'loadedTime': 4260.5, 'positionName': 'LEFT', 'positionCoords': [245.68, 179], 'bid': 8.64}, {'imgObject': {}, 'id': 'turkeysandwich', 'src': '/static/foodstim60/turkeysandwich.jpg', 'key': 'i', 'origWidth': 409, 'origHeight': 409, 'width': 409, 'height': 409, 'widthPercent': 0.45, 'rescaleHeight': False, 'trialN': 4, 'loaded': True, 'loadedTime': 4368.5, 'positionName': 'RIGHT', 'positionCoords': [710.32, 179.5], 'bid': 8.61}]",15262.600000143051,1669834343091,mac & cheese,turkeysandwich,8.64,8.61,-0.030000000000001137,turkeysandwich,2032.0999999046326,2034,2033.3999998569489,True,i,17824.900000095367,2562.2999999523163,1669834345654,2563,HRV,HRV_0217,2022-11-30 18:57:30
5,"[{'imgObject': {}, 'id': 'banana', 'src': '/static/foodstim60/banana.jpg', 'key': 'u', 'origWidth': 410, 'origHeight': 410, 'width': 410, 'height': 410, 'widthPercent': 0.45, 'rescaleHeight': False, 'trialN': 5, 'loaded': True, 'loadedTime': 4586.200000047684, 'positionName': 'LEFT', 'positionCoords': [245.68, 179], 'bid': 7.37}, {'imgObject': {}, 'id': 'burrito', 'src': '/static/foodstim60/burrito.jpg', 'key': 'i', 'origWidth': 410, 'origHeight': 410, 'width': 410, 'height': 410, 'widthPercent': 0.45, 'rescaleHeight': False, 'trialN': 5, 'loaded': True, 'loadedTime': 4677.900000095367, 'positionName': 'RIGHT', 'positionCoords': [710.32, 179], 'bid': 5.6000000000000005}]",17825.400000095367,1669834345654,banana,burrito,7.37,5.6000000000000005,-1.7699999999999996,banana,1120.7000000476837,1122,1122.2999999523163,True,u,19458.900000095367,1633.5,1669834347287,1633,HRV,HRV_0217,2022-11-30 18:57:30
6,"[{'imgObject': {}, 'id': 'mango', 'src': '/static/foodstim60/mango.jpg', 'key': 'u', 'origWidth': 411, 'origHeight': 411, 'width': 411, 'height': 411, 'widthPercent': 0.45, 'rescaleHeight': False, 'trialN': 6, 'loaded': True, 'loadedTime': 4765.700000047684, 'positionName': 'LEFT', 'positionCoords': [244.68, 178.5], 'bid': 5.01}, {'imgObject': {}, 'id': 'cheerios', 'src': '/static/foodstim60/cheerios.jpg', 'key': 'i', 'origWidth': 409, 'origHeight': 410, 'width': 409, 'height': 410, 'widthPercent': 0.45, 'rescaleHeight': False, 'trialN': 6, 'loaded': True, 'loadedTime': 4860.900000095367, 'positionName': 'RIGHT', 'positionCoords': [710.32, 179], 'bid': 6.42}]",19459.400000095367,1669834347288,mango,cheerios,5.01,6.42,1.4100000000000001,cheerios,950.0999999046326,952,951.8999998569489,True,i,20927.10000014305,1467.7000000476837,1669834348756,1468,HRV,HRV_0217,2022-11-30 18:57:30
7,"[{'imgObject': {}, 'id': 'baked potato', 'src': '/static/foodstim60/baked potato.jpg', 'key': 'u', 'origWidth': 409, 'origHeight': 410, 'width': 409, 'height': 410, 'widthPercent': 0.45, 'rescaleHeight': False, 'trialN': 7, 'loaded': True, 'loadedTime': 3750.600000143051, 'positionName': 'LEFT', 'positionCoords': [246.68, 179], 'bid': 7.53}, {'imgObject': {}, 'id': 'shreddedwheatwithmilk', 'src': '/static/foodstim60/shreddedwheatwithmilk.jpg', 'key': 'i', 'origWidth': 410, 'origHeight': 410, 'width': 410, 'height': 410, 'widthPercent': 0.45, 'rescaleHeight': False, 'trialN': 7, 'loaded': True, 'loadedTime': 4869.600000143051, 'positionName': 'RIGHT', 'positionCoords': [710.32, 179], 'bid': 7.56}]",20928.200000047684,1669834348757,baked potato,shreddedwheatwithmilk,7.53,7.56,0.02999999999999936,baked potato,1963.0999999046326,1964,1963.7000000476837,True,u,23403.299999952316,2475.0999999046326,1669834351232,2475,HRV,HRV_0217,2022-11-30 18:57:30
8,"[{'imgObject': {}, 'id': 'edamame', 'src': '/static/foodstim60/edamame.jpg', 'key': 'u', 'origWidth': 409, 'origHeight': 410, 'width': 409, 'height': 410, 'widthPercent': 0.45, 'rescaleHeight': False, 'trialN': 8, 'loaded': True, 'loadedTime': 4990.299999952316, 'positionName': 'LEFT', 'positionCoords': [246.68, 179], 'bid': 5.0200000000000005}, {'imgObject': {}, 'id': 'luckycharms', 'src': '/static/foodstim60/luckycharms.jpg', 'key': 'i', 'origWidth': 410, 'origHeight': 409, 'width': 410, 'height': 409, 'widthPercent': 0.45, 'rescaleHeight': False, 'trialN': 8, 'loaded': True, 'loadedTime': 3961.4000000953674, 'positionName': 'RIGHT', 'positionCoords': [710.32, 179.5], 'bid': 7.25}]",23403.799999952316,1669834351232,edamame,luckycharms,5.0200000000000005,7.25,2.2299999999999995,luckycharms,933.7000000476837,935,934.5,True,i,24841.400000095367,1437.6000001430511,1669834352670,1438,HRV,HRV_0217,2022-11-30 18:57:30
9,"[{'imgObject': {}, 'id': 'veggieswithdip', 'src': '/static/foodstim60/veggieswithdip.jpg', 'key': 'u', 'origWidth': 409, 'origHeight': 409, 'width': 409, 'height': 409, 'widthPercent': 0.45, 'rescaleHeight': False, 'trialN': 9, 'loaded': True, 'loadedTime': 5134.700000047684, 'positionName': 'LEFT', 'positionCoords': [246.68, 179.5], 'bid': 6.5600000000000005}, {'imgObject': {}, 'id': 'mashed potato', 'src': '/static/foodstim60/mashed potato.jpg', 'key': 'i', 'origWidth': 409, 'origHeight': 409, 'width': 409, 'height': 409, 'widthPercent': 0.45, 'rescaleHeight': False, 'trialN': 9, 'loaded': True, 'loadedTime': 5220.400000095367, 'positionName': 'RIGHT', 'positionCoords': [710.32, 179.5], 'bid': 7.56}]",24842.799999952316,1669834352671,veggieswithdip,mashed potato,6.5600000000000005,7.56,0.9999999999999991,mashed potato,1496.2000000476837,1498,1497.7000000476837,True,i,26854.5,2011.7000000476837,1669834354683,2012,HRV,HRV_0217,2022-11-30 18:57:30
10,"[{'imgObject': {}, 'id': 'steak', 'src': '/static/foodstim60/steak.jpg', 'key': 'u', 'origWidth': 410, 'origHeight': 410, 'width': 410, 'height': 410, 'widthPercent': 0.45, 'rescaleHeight': False, 'trialN': 10, 'loaded': True, 'loadedTime': 5231.700000047684, 'positionName': 'LEFT', 'positionCoords': [245.68, 179], 'bid': 9.59}, {'imgObject': {}, 'id': 'seaweed', 'src': '/static/foodstim60/seaweed.jpg', 'key': 'i', 'origWidth': 410, 'origHeight': 410, 'width': 410, 'height': 410, 'widthPercent': 0.45, 'rescaleHeight': False, 'trialN': 10, 'loaded': True, 'loadedTime': 5325.299999952316, 'positionName': 'RIGHT', 'positionCoords': [710.32, 179], 'bid': 8.17}]",26855.5,1669834354684,steak,seaweed,9.59,8.17,-1.42,steak,847.7000000476837,849,848.6000001430511,True,u,28216.10000014305,1360.6000001430511,1669834356045,1361,HRV,HRV_0217,2022-11-30 18:57:30
11,"[{'imgObject': {}, 'id': 'cherry tomato', 'src': '/static/foodstim60/cherry tomato.jpg', 'key': 'u', 'origWidth': 410, 'origHeight': 410, 'width': 410, 'height': 410, 'widthPercent': 0.45, 'rescaleHeight': False, 'trialN': 11, 'loaded': True, 'loadedTime': 5334.600000143051, 'positionName': 'LEFT', 'positionCoords': [245.68, 179], 'bid': 5.01}, {'imgObject': {}, 'id': 'corn cob', 'src': '/static/foodstim60/corn cob.jpg', 'key': 'i', 'origWidth': 411, 'origHeight': 411, 'width': 411, 'height': 411, 'widthPercent': 0.45, 'rescaleHeight': False, 'trialN': 11, 'loaded': True, 'loadedTime': 5426.900000095367, 'positionName': 'RIGHT', 'positionCoords': [710.32, 178.5], 'bid': 4.94}]",28216.900000095367,1669834356046,cherry tomato,corn cob,5.01,4.94,-0.0699999999999994,corn cob,897.2000000476837,898,898.8999998569489,True,i,29630.799999952316,1413.8999998569489,1669834357459,1413,HRV,HRV_0217,2022-11-30 18:57:30
12,"[{'imgObject': {}, 'id': 'cantaloupe', 'src': '/static/foodstim60/cantaloupe.jpg', 'key': 'u', 'origWidth': 409, 'origHeight': 409, 'width': 409, 'height': 409, 'widthPercent': 0.45, 'rescaleHeight': False, 'trialN': 12, 'loaded': True, 'loadedTime': 3559.4000000953674, 'positionName': 'LEFT', 'positionCoords': [246.68, 179.5], 'bid': 5.87}, {'imgObject': {}, 'id': 'grilled chicken strips', 'src': '/static/foodstim60/grilled chicken strips.jpg', 'key': 'i', 'origWidth': 410, 'origHeight': 411, 'width': 410, 'height': 411, 'widthPercent': 0.45, 'rescaleHeight': False, 'trialN': 12, 'loaded': True, 'loadedTime': 5660.5, 'positionName': 'RIGHT', 'positionCoords': [710.32, 178.5], 'bid': 8.22}]",29631.200000047684,1669834357460,cantaloupe,grilled chicken strips,5.87,8.22,2.3500000000000005,grilled chicken strips,765,765,765.5,True,i,30903.299999952316,1272.0999999046326,1669834358732,1272,HRV,HRV_0217,2022-11-30 18:57:30
13,"[{'imgObject': {}, 'id': 'veggieswithdip', 'src': '/static/foodstim60/veggieswithdip.jpg', 'key': 'u', 'origWidth': 409, 'origHeight': 409, 'width': 409, 'height': 409, 'widthPercent': 0.45, 'rescaleHeight': False, 'trialN': 13, 'loaded': True, 'loadedTime': 5135.799999952316, 'positionName': 'LEFT', 'positionCoords': [246.68, 179.5], 'bid': 6.5600000000000005}, {'imgObject': {}, 'id': 'bagel plain', 'src': '/static/foodstim60/bagel plain.jpg', 'key': 'i', 'origWidth': 410, 'origHeight': 410, 'width': 410, 'height': 410, 'widthPercent': 0.45, 'rescaleHeight': False, 'trialN': 13, 'loaded': True, 'loadedTime': 5767.100000143051, 'positionName': 'RIGHT', 'positionCoords': [710.32, 179], 'bid': 8.8}]",30903.60000014305,1669834358732,veggieswithdip,bagel plain,6.5600000000000005,8.8,2.24,bagel plain,1064.7999999523163,1066,1066.0,True,i,32479.700000047684,1576.0999999046326,1669834360308,1576,HRV,HRV_0217,2022-11-30 18:57:30
14,"[{'imgObject': {}, 'id': 'omelette', 'src': '/static/foodstim60/omelette.jpg', 'key': 'u', 'origWidth': 410, 'origHeight': 409, 'width': 410, 'height': 409, 'widthPercent': 0.45, 'rescaleHeight': False, 'trialN': 14, 'loaded': True, 'loadedTime': 5776.299999952316, 'positionName': 'LEFT', 'positionCoords': [245.68, 179.5], 'bid': 8.22}, {'imgObject': {}, 'id': 'turkey sandwich', 'src': '/static/foodstim60/turkey sandwich.jpg', 'key': 'i', 'origWidth': 409, 'origHeight': 409, 'width': 409, 'height': 409, 'widthPercent': 0.45, 'rescaleHeight': False, 'trialN': 14, 'loaded': True, 'loadedTime': 5867.200000047684, 'positionName': 'RIGHT', 'positionCoords': [710.32, 179.5], 'bid': 8.38}]",32480.400000095367,1669834360309,omelette,turkey sandwich,8.22,8.38,0.16000000000000014,omelette,1495.5,1483,1496.2999999523163,True,u,34506.90000009537,2026.5,1669834362322,2013,HRV,HRV_0217,2022-11-30 18:57:30
15,"[{'imgObject': {}, 'id': 'corn cob', 'src': '/static/foodstim60/corn cob.jpg', 'key': 'u', 'origWidth': 411, 'origHeight': 411, 'width': 411, 'height': 411, 'widthPercent': 0.45, 'rescaleHeight': False, 'trialN': 15, 'loaded': True, 'loadedTime': 5420.700000047684, 'positionName': 'LEFT', 'positionCoords': [244.68, 178.5], 'bid': 4.94}, {'imgObject': {}, 'id': 'hashbrowns', 'src': '/static/foodstim60/hashbrowns.jpg', 'key': 'i', 'origWidth': 411, 'origHeight': 410, 'width': 411, 'height': 410, 'widthPercent': 0.45, 'rescaleHeight': False, 'trialN': 15, 'loaded': True, 'loadedTime': 5966.5, 'positionName': 'RIGHT', 'positionCoords': [710.32, 179], 'bid': 4.97}]",34507.299999952316,1669834362322,corn cob,hashbrowns,4.94,4.97,0.02999999999999936,hashbrowns,766.9000000953674,768,768.2000000476837,True,i,35794.90000009537,1287.6000001430511,1669834363610,1288,HRV,HRV_0217,2022-11-30 18:57:30
16,"[{'imgObject': {}, 'id': 'burger', 'src': '/static/foodstim60/burger.jpg', 'key': 'u', 'origWidth': 409, 'origHeight': 409, 'width': 409, 'height': 409, 'widthPercent': 0.45, 'rescaleHeight': False, 'trialN': 16, 'loaded': True, 'loadedTime': 6066.5, 'positionName': 'LEFT', 'positionCoords': [246.68, 179.5], 'bid': 9.53}, {'imgObject': {}, 'id': 'chickenfingers', 'src': '/static/foodstim60/chickenfingers.jpg', 'key': 'i', 'origWidth': 410, 'origHeight': 410, 'width': 410, 'height': 410, 'widthPercent': 0.45, 'rescaleHeight': False, 'trialN': 16, 'loaded': True, 'loadedTime': 4447.299999952316, 'positionName': 'RIGHT', 'positionCoords': [710.32, 179], 'bid': 8.17}]",35795.40000009537,1669834363610,burger,chickenfingers,9.53,8.17,-1.3599999999999994,burger,1218.0999999046326,1219,1219.2000000476837,True,u,37525.799999952316,1730.3999998569489,1669834365341,1731,HRV,HRV_0217,2022-11-30 18:57:30
17,"[{'imgObject': {}, 'id': 'turkey sandwich', 'src': '/static/foodstim60/turkey sandwich.jpg', 'key': 'u', 'origWidth': 409, 'origHeight': 409, 'width': 409, 'height': 409, 'widthPercent': 0.45, 'rescaleHeight': False, 'trialN': 17, 'loaded': True, 'loadedTime': 5869, 'positionName': 'LEFT', 'positionCoords': [246.68, 179.5], 'bid': 8.38}, {'imgObject': {}, 'id': 'shreddedwheatwithmilk', 'src': '/static/foodstim60/shreddedwheatwithmilk.jpg', 'key': 'i', 'origWidth': 410, 'origHeight': 410, 'width': 410, 'height': 410, 'widthPercent': 0.45, 'rescaleHeight': False, 'trialN': 17, 'loaded': True, 'loadedTime': 4982.900000095367, 'positionName': 'RIGHT', 'positionCoords': [710.32, 179], 'bid': 7.56}]",37526.299999952316,1669834365341,turkey sandwich,shreddedwheatwithmilk,8.38,7.56,-0.8200000000000012,turkey sandwich,800.6000001430511,802,802.2000000476837,True,u,38834.40000009537,1308.1000001430511,1669834366649,1308,HRV,HRV_0217,2022-11-30 18:57:30
18,"[{'imgObject': {}, 'id': 'blueberries', 'src': '/static/foodstim60/blueberries.jpg', 'key': 'u', 'origWidth': 411, 'origHeight': 411, 'width': 411, 'height': 411, 'widthPercent': 0.45, 'rescaleHeight': False, 'trialN': 18, 'loaded': True, 'loadedTime': 4578.299999952316, 'positionName': 'LEFT', 'positionCoords': [244.68, 178.5], 'bid': 6.140000000000001}, {'imgObject': {}, 'id': 'olives', 'src': '/static/foodstim60/olives.jpg', 'key': 'i', 'origWidth': 410, 'origHeight': 410, 'width': 410, 'height': 410, 'widthPercent': 0.45, 'rescaleHeight': False, 'trialN': 18, 'loaded': True, 'loadedTime': 5542.400000095367, 'positionName': 'RIGHT', 'positionCoords': [710.32, 179], 'bid': 7.0200000000000005}]",38835.10000014305,1669834366650,blueberries,olives,6.140000000000001,7.0200000000000005,0.8799999999999999,olives,1026.8999998569489,1028,1027.5999999046326,True,i,40370.299999952316,1535.1999998092651,1669834368185,1535,HRV,HRV_0217,2022-11-30 18:57:30
19,"[{'imgObject': {}, 'id': 'chickenfingers', 'src': '/static/foodstim60/chickenfingers.jpg', 'key': 'u', 'origWidth': 410, 'origHeight': 410, 'width': 410, 'height': 410, 'widthPercent': 0.45, 'rescaleHeight': False, 'trialN': 19, 'loaded': True, 'loadedTime': 4448.200000047684, 'positionName': 'LEFT', 'positionCoords': [245.68, 179], 'bid': 8.17}, {'imgObject': {}, 'id': 'burrito', 'src': '/static/foodstim60/burrito.jpg', 'key': 'i', 'origWidth': 410, 'origHeight': 410, 'width': 410, 'height': 410, 'widthPercent': 0.45, 'rescaleHeight': False, 'trialN': 19, 'loaded': True, 'loadedTime': 4678.700000047684, 'positionName': 'RIGHT', 'positionCoords': [710.32, 179], 'bid': 5.6000000000000005}]",40371.0,1669834368186,chickenfingers,burrito,8.17,5.6000000000000005,-2.5699999999999994,chickenfingers,1005.7999999523163,1007,1007.0,True,u,41880.5,1509.5,1669834369695,1509,HRV,HRV_0217,2022-11-30 18:57:30
20,"[{'imgObject': {}, 'id': 'popsicles', 'src': '/static/foodstim60/popsicles.jpg', 'key': 'u', 'origWidth': 410, 'origHeight': 410, 'width': 410, 'height': 410, 'widthPercent': 0.45, 'rescaleHeight': False, 'trialN': 20, 'loaded': True, 'loadedTime': 7341.299999952316, 'positionName': 'LEFT', 'positionCoords': [245.68, 179], 'bid': 5.0200000000000005}, {'imgObject': {}, 'id': 'cherry tomato', 'src': '/static/foodstim60/cherry tomato.jpg', 'key': 'i', 'origWidth': 410, 'origHeight': 410, 'width': 410, 'height': 410, 'widthPercent': 0.45, 'rescaleHeight': False, 'trialN': 20, 'loaded': True, 'loadedTime': 5409.299999952316, 'positionName': 'RIGHT', 'positionCoords': [710.32, 179], 'bid': 5.01}]",41880.799999952316,1669834369696,popsicles,cherry tomato,5.0200000000000005,5.01,-0.010000000000000675,cherry tomato,1051.3000001907349,1053,1053.0,True,i,43452.5,1571.7000000476837,1669834371267,1571,HRV,HRV_0217,2022-11-30 18:57:30
21,"[{'imgObject': {}, 'id': 'salad w chicken', 'src': '/static/foodstim60/salad w chicken.jpg', 'key': 'u', 'origWidth': 411, 'origHeight': 411, 'width': 411, 'height': 411, 'widthPercent': 0.45, 'rescaleHeight': False, 'trialN': 21, 'loaded': True, 'loadedTime': 5648.700000047684, 'positionName': 'LEFT', 'positionCoords': [244.68, 178.5], 'bid': 7.7}, {'imgObject': {}, 'id': 'pear', 'src': '/static/foodstim60/pear.jpg', 'key': 'i', 'origWidth': 411, 'origHeight': 410, 'width': 411, 'height': 410, 'widthPercent': 0.45, 'rescaleHeight': False, 'trialN': 21, 'loaded': True, 'loadedTime': 5672.600000143051, 'positionName': 'RIGHT', 'positionCoords': [710.32, 179], 'bid': 5}]",43452.90000009537,1669834371268,salad w chicken,pear,7.7,5.0,-2.7,salad w chicken,759,760,760.3999998569489,True,u,44722.799999952316,1269.8999998569489,1669834372538,1270,HRV,HRV_0217,2022-11-30 18:57:30
22,"[{'imgObject': {}, 'id': 'hotdog w must', 'src': '/static/foodstim60/hotdog w must.jpg', 'key': 'u', 'origWidth': 409, 'origHeight': 409, 'width': 409, 'height': 409, 'widthPercent': 0.45, 'rescaleHeight': False, 'trialN': 22, 'loaded': True, 'loadedTime': 5980.299999952316, 'positionName': 'LEFT', 'positionCoords': [246.68, 179.5], 'bid': 7.92}, {'imgObject': {}, 'id': 'salmon', 'src': '/static/foodstim60/salmon.jpg', 'key': 'i', 'origWidth': 410, 'origHeight': 409, 'width': 410, 'height': 409, 'widthPercent': 0.45, 'rescaleHeight': False, 'trialN': 22, 'loaded': True, 'loadedTime': 6075.100000143051, 'positionName': 'RIGHT', 'positionCoords': [710.32, 179.5], 'bid': 8.89}]",44723.40000009537,1669834372538,hotdog w must,salmon,7.92,8.89,0.9700000000000006,salmon,1097.5,1099,1099.2000000476837,True,i,46354.40000009537,1631.0,1669834374169,1631,HRV,HRV_0217,2022-11-30 18:57:30
23,"[{'imgObject': {}, 'id': 'eggsalad', 'src': '/static/foodstim60/eggsalad.jpg', 'key': 'u', 'origWidth': 410, 'origHeight': 409, 'width': 410, 'height': 409, 'widthPercent': 0.45, 'rescaleHeight': False, 'trialN': 23, 'loaded': True, 'loadedTime': 6166.100000143051, 'positionName': 'LEFT', 'positionCoords': [245.68, 179.5], 'bid': 8.03}, {'imgObject': {}, 'id': 'avocado', 'src': '/static/foodstim60/avocado.jpg', 'key': 'i', 'origWidth': 409, 'origHeight': 409, 'width': 409, 'height': 409, 'widthPercent': 0.45, 'rescaleHeight': False, 'trialN': 23, 'loaded': True, 'loadedTime': 4064.5, 'positionName': 'RIGHT', 'positionCoords': [710.32, 179.5], 'bid': 8.9}]",46355.10000014305,1669834374170,eggsalad,avocado,8.03,8.9,0.870000000000001,eggsalad,1119.0999999046326,1127,1126.8999998569489,True,u,47996.799999952316,1641.6999998092651,1669834375812,1642,HRV,HRV_0217,2022-11-30 18:57:30
24,"[{'imgObject': {}, 'id': 'orange slices', 'src': '/static/foodstim60/orange slices.jpg', 'key': 'u', 'origWidth': 409, 'origHeight': 410, 'width': 409, 'height': 410, 'widthPercent': 0.45, 'rescaleHeight': False, 'trialN': 24, 'loaded': True, 'loadedTime': 6194, 'positionName': 'LEFT', 'positionCoords': [246.68, 179], 'bid': 4.94}, {'imgObject': {}, 'id': 'mashed potato', 'src': '/static/foodstim60/mashed potato.jpg', 'key': 'i', 'origWidth': 409, 'origHeight': 409, 'width': 409, 'height': 409, 'widthPercent': 0.45, 'rescaleHeight': False, 'trialN': 24, 'loaded': True, 'loadedTime': 5227.400000095367, 'positionName': 'RIGHT', 'positionCoords': [710.32, 179.5], 'bid': 7.56}]",47997.40000009537,1669834375812,orange slices,mashed potato,4.94,7.56,2.619999999999999,mashed potato,879.7999999523163,881,880.7000000476837,True,i,49384.90000009537,1387.5,1669834377200,1388,HRV,HRV_0217,2022-11-30 18:57:30
25,"[{'imgObject': {}, 'id': 'mango', 'src': '/static/foodstim60/mango.jpg', 'key': 'u', 'origWidth': 411, 'origHeight': 411, 'width': 411, 'height': 411, 'widthPercent': 0.45, 'rescaleHeight': False, 'trialN': 25, 'loaded': True, 'loadedTime': 4761.799999952316, 'positionName': 'LEFT', 'positionCoords': [244.68, 178.5], 'bid': 5.01}, {'imgObject': {}, 'id': 'kiwi', 'src': '/static/foodstim60/kiwi.jpg', 'key': 'i', 'origWidth': 410, 'origHeight': 410, 'width': 410, 'height': 410, 'widthPercent': 0.45, 'rescaleHeight': False, 'trialN': 25, 'loaded': True, 'loadedTime': 6202.200000047684, 'positionName': 'RIGHT', 'positionCoords': [710.32, 179], 'bid': 6.05}]",49385.5,1669834377200,mango,kiwi,5.01,6.05,1.04,kiwi,1275.1000001430511,1277,1276.2999999523163,True,i,51193.299999952316,1807.7999999523163,1669834379008,1808,HRV,HRV_0217,2022-11-30 18:57:30
26,"[{'imgObject': {}, 'id': 'omelette', 'src': '/static/foodstim60/omelette.jpg', 'key': 'u', 'origWidth': 410, 'origHeight': 409, 'width': 410, 'height': 409, 'widthPercent': 0.45, 'rescaleHeight': False, 'trialN': 26, 'loaded': True, 'loadedTime': 5769.200000047684, 'positionName': 'LEFT', 'positionCoords': [245.68, 179.5], 'bid': 8.22}, {'imgObject': {}, 'id': 'chicken nuggets2', 'src': '/static/foodstim60/chicken nuggets2.jpg', 'key': 'i', 'origWidth': 410, 'origHeight': 409, 'width': 410, 'height': 409, 'widthPercent': 0.45, 'rescaleHeight': False, 'trialN': 26, 'loaded': True, 'loadedTime': 4256.299999952316, 'positionName': 'RIGHT', 'positionCoords': [710.32, 179.5], 'bid': 8.39}]",51193.90000009537,1669834379009,omelette,chicken nuggets2,8.22,8.39,0.16999999999999993,omelette,1697.0999999046326,1698,1697.8999998569489,True,u,53405.799999952316,2211.899999856949,1669834381221,2212,HRV,HRV_0217,2022-11-30 18:57:30
27,"[{'imgObject': {}, 'id': 'Tribe humus pita', 'src': '/static/foodstim60/Tribe humus pita.jpg', 'key': 'u', 'origWidth': 411, 'origHeight': 411, 'width': 411, 'height': 411, 'widthPercent': 0.45, 'rescaleHeight': False, 'trialN': 27, 'loaded': True, 'loadedTime': 6296.5, 'positionName': 'LEFT', 'positionCoords': [244.68, 178.5], 'bid': 5.05}, {'imgObject': {}, 'id': 'raisin bran w milk', 'src': '/static/foodstim60/raisin bran w milk.jpg', 'key': 'i', 'origWidth': 411, 'origHeight': 411, 'width': 411, 'height': 411, 'widthPercent': 0.45, 'rescaleHeight': False, 'trialN': 27, 'loaded': True, 'loadedTime': 6677.100000143051, 'positionName': 'RIGHT', 'positionCoords': [710.32, 178.5], 'bid': 7.26}]",53406.200000047684,1669834381221,Tribe humus pita,raisin bran w milk,5.05,7.26,2.21,raisin bran w milk,1384.7999999523163,1386,1385.9000000953674,True,i,55301.60000014305,1895.4000000953674,1669834383116,1895,HRV,HRV_0217,2022-11-30 18:57:30
28,"[{'imgObject': {}, 'id': 'hotdog w must', 'src': '/static/foodstim60/hotdog w must.jpg', 'key': 'u', 'origWidth': 409, 'origHeight': 409, 'width': 409, 'height': 409, 'widthPercent': 0.45, 'rescaleHeight': False, 'trialN': 28, 'loaded': True, 'loadedTime': 5978.5, 'positionName': 'LEFT', 'positionCoords': [246.68, 179.5], 'bid': 7.92}, {'imgObject': {}, 'id': 'omelette', 'src': '/static/foodstim60/omelette.jpg', 'key': 'i', 'origWidth': 410, 'origHeight': 409, 'width': 410, 'height': 409, 'widthPercent': 0.45, 'rescaleHeight': False, 'trialN': 28, 'loaded': True, 'loadedTime': 5778.100000143051, 'positionName': 'RIGHT', 'positionCoords': [710.32, 179.5], 'bid': 8.22}]",55302.299999952316,1669834383117,hotdog w must,omelette,7.92,8.22,0.3000000000000007,omelette,1049.1000001430511,1050,1049.9000000953674,True,i,56857.299999952316,1555.0,1669834384672,1555,HRV,HRV_0217,2022-11-30 18:57:30
29,"[{'imgObject': {}, 'id': 'roastedpotatoes', 'src': '/static/foodstim60/roastedpotatoes.jpg', 'key': 'u', 'origWidth': 409, 'origHeight': 410, 'width': 409, 'height': 410, 'widthPercent': 0.45, 'rescaleHeight': False, 'trialN': 29, 'loaded': True, 'loadedTime': 6691, 'positionName': 'LEFT', 'positionCoords': [246.68, 179], 'bid': 7.85}, {'imgObject': {}, 'id': 'hotdog w must', 'src': '/static/foodstim60/hotdog w must.jpg', 'key': 'i', 'origWidth': 409, 'origHeight': 409, 'width': 409, 'height': 409, 'widthPercent': 0.45, 'rescaleHeight': False, 'trialN': 29, 'loaded': True, 'loadedTime': 5981.400000095367, 'positionName': 'RIGHT', 'positionCoords': [710.32, 179.5], 'bid': 7.92}]",56857.799999952316,1669834384673,roastedpotatoes,hotdog w must,7.85,7.92,0.07000000000000028,roastedpotatoes,2260.5,2261,2261.300000190735,True,u,59636.40000009537,2778.600000143051,1669834387451,2778,HRV,HRV_0217,2022-11-30 18:57:30
30,"[{'imgObject': {}, 'id': 'froot loops w milk', 'src': '/static/foodstim60/froot loops w milk.jpg', 'key': 'u', 'origWidth': 410, 'origHeight': 410, 'width': 410, 'height': 410, 'widthPercent': 0.45, 'rescaleHeight': False, 'trialN': 30, 'loaded': True, 'loadedTime': 6705.799999952316, 'positionName': 'LEFT', 'positionCoords': [245.68, 179], 'bid': 7.56}, {'imgObject': {}, 'id': 'hashbrowns', 'src': '/static/foodstim60/hashbrowns.jpg', 'key': 'i', 'origWidth': 411, 'origHeight': 410, 'width': 411, 'height': 410, 'widthPercent': 0.45, 'rescaleHeight': False, 'trialN': 30, 'loaded': True, 'loadedTime': 5874.900000095367, 'positionName': 'RIGHT', 'positionCoords': [710.32, 179], 'bid': 4.97}]",59636.90000009537,1669834387452,froot loops w milk,hashbrowns,7.56,4.97,-2.59,hashbrowns,1361.7000000476837,1363,1363.2999999523163,True,i,61512.0,1875.0999999046326,1669834389327,1875,HRV,HRV_0217,2022-11-30 18:57:30
31,"[{'imgObject': {}, 'id': 'froot loops w milk', 'src': '/static/foodstim60/froot loops w milk.jpg', 'key': 'u', 'origWidth': 410, 'origHeight': 410, 'width': 410, 'height': 410, 'widthPercent': 0.45, 'rescaleHeight': False, 'trialN': 31, 'loaded': True, 'loadedTime': 6705.200000047684, 'positionName': 'LEFT', 'positionCoords': [245.68, 179], 'bid': 7.56}, {'imgObject': {}, 'id': 'eggs', 'src': '/static/foodstim60/eggs.jpg', 'key': 'i', 'origWidth': 409, 'origHeight': 409, 'width': 409, 'height': 409, 'widthPercent': 0.45, 'rescaleHeight': False, 'trialN': 31, 'loaded': True, 'loadedTime': 4069.2999999523163, 'positionName': 'RIGHT', 'positionCoords': [710.32, 179.5], 'bid': 8.39}]",61512.5,1669834389327,froot loops w milk,eggs,7.56,8.39,0.830000000000001,eggs,945.6000001430511,947,946.2999999523163,True,i,62971.90000009537,1459.4000000953674,1669834390787,1460,HRV,HRV_0217,2022-11-30 18:57:30
32,"[{'imgObject': {}, 'id': 'shreddedwheatwithmilk', 'src': '/static/foodstim60/shreddedwheatwithmilk.jpg', 'key': 'u', 'origWidth': 410, 'origHeight': 410, 'width': 410, 'height': 410, 'widthPercent': 0.45, 'rescaleHeight': False, 'trialN': 32, 'loaded': True, 'loadedTime': 4872.5, 'positionName': 'LEFT', 'positionCoords': [245.68, 179], 'bid': 7.56}, {'imgObject': {}, 'id': 'mashed potato', 'src': '/static/foodstim60/mashed potato.jpg', 'key': 'i', 'origWidth': 409, 'origHeight': 409, 'width': 409, 'height': 409, 'widthPercent': 0.45, 'rescaleHeight': False, 'trialN': 32, 'loaded': True, 'loadedTime': 5218.100000143051, 'positionName': 'RIGHT', 'positionCoords': [710.32, 179.5], 'bid': 7.56}]",62973.700000047684,1669834390789,shreddedwheatwithmilk,mashed potato,7.56,7.56,0.0,mashed potato,1531.7000000476837,1532,1532.7000000476837,True,i,65014.90000009537,2041.2000000476837,1669834392830,2041,HRV,HRV_0217,2022-11-30 18:57:30
33,"[{'imgObject': {}, 'id': 'mango', 'src': '/static/foodstim60/mango.jpg', 'key': 'u', 'origWidth': 411, 'origHeight': 411, 'width': 411, 'height': 411, 'widthPercent': 0.45, 'rescaleHeight': False, 'trialN': 33, 'loaded': True, 'loadedTime': 4766.400000095367, 'positionName': 'LEFT', 'positionCoords': [244.68, 178.5], 'bid': 5.01}, {'imgObject': {}, 'id': 'blackbeanswithrice', 'src': '/static/foodstim60/blackbeanswithrice.jpg', 'key': 'i', 'origWidth': 410, 'origHeight': 410, 'width': 410, 'height': 410, 'widthPercent': 0.45, 'rescaleHeight': False, 'trialN': 33, 'loaded': True, 'loadedTime': 6706.299999952316, 'positionName': 'RIGHT', 'positionCoords': [710.32, 179], 'bid': 7.81}]",65015.60000014305,1669834392830,mango,blackbeanswithrice,5.01,7.81,2.8,blackbeanswithrice,861.7999999523163,863,862.5999999046326,True,i,66383.40000009537,1367.7999999523163,1669834394198,1368,HRV,HRV_0217,2022-11-30 18:57:30
34,"[{'imgObject': {}, 'id': 'lox', 'src': '/static/foodstim60/lox.jpg', 'key': 'u', 'origWidth': 410, 'origHeight': 411, 'width': 410, 'height': 411, 'widthPercent': 0.45, 'rescaleHeight': False, 'trialN': 34, 'loaded': True, 'loadedTime': 6901, 'positionName': 'LEFT', 'positionCoords': [245.68, 178.5], 'bid': 9.8}, {'imgObject': {}, 'id': 'baked potato', 'src': '/static/foodstim60/baked potato.jpg', 'key': 'i', 'origWidth': 409, 'origHeight': 410, 'width': 409, 'height': 410, 'widthPercent': 0.45, 'rescaleHeight': False, 'trialN': 34, 'loaded': True, 'loadedTime': 3715.100000143051, 'positionName': 'RIGHT', 'positionCoords': [710.32, 179], 'bid': 7.53}]",66384.10000014305,1669834394199,lox,baked potato,9.8,7.53,-2.2700000000000005,lox,874.1999998092651,876,875.7999999523163,True,u,67779.0,1394.8999998569489,1669834395594,1395,HRV,HRV_0217,2022-11-30 18:57:30
35,"[{'imgObject': {}, 'id': 'banana', 'src': '/static/foodstim60/banana.jpg', 'key': 'u', 'origWidth': 410, 'origHeight': 410, 'width': 410, 'height': 410, 'widthPercent': 0.45, 'rescaleHeight': False, 'trialN': 35, 'loaded': True, 'loadedTime': 4581.400000095367, 'positionName': 'LEFT', 'positionCoords': [245.68, 179], 'bid': 7.37}, {'imgObject': {}, 'id': 'tacos', 'src': '/static/foodstim60/tacos.jpg', 'key': 'i', 'origWidth': 411, 'origHeight': 411, 'width': 411, 'height': 411, 'widthPercent': 0.45, 'rescaleHeight': False, 'trialN': 35, 'loaded': True, 'loadedTime': 3872.5, 'positionName': 'RIGHT', 'positionCoords': [710.32, 178.5], 'bid': 7.5}]",67779.60000014305,1669834395594,banana,tacos,7.37,7.5,0.1299999999999999,tacos,922.5,924,923.2999999523163,True,i,69212.10000014305,1432.5,1669834397027,1433,HRV,HRV_0217,2022-11-30 18:57:30
36,"[{'imgObject': {}, 'id': 'cherries', 'src': '/static/foodstim60/cherries.jpg', 'key': 'u', 'origWidth': 410, 'origHeight': 411, 'width': 410, 'height': 411, 'widthPercent': 0.45, 'rescaleHeight': False, 'trialN': 36, 'loaded': True, 'loadedTime': 6906.900000095367, 'positionName': 'LEFT', 'positionCoords': [245.68, 178.5], 'bid': 6.3100000000000005}, {'imgObject': {}, 'id': 'Grapes', 'src': '/static/foodstim60/Grapes.jpg', 'key': 'i', 'origWidth': 411, 'origHeight': 411, 'width': 411, 'height': 411, 'widthPercent': 0.45, 'rescaleHeight': False, 'trialN': 36, 'loaded': True, 'loadedTime': 7055, 'positionName': 'RIGHT', 'positionCoords': [710.32, 178.5], 'bid': 5}]",69212.79999995232,1669834397028,cherries,Grapes,6.3100000000000005,5.0,-1.3100000000000005,cherries,1133.4000000953674,1134,1134.4000000953674,True,u,70856.29999995232,1643.5,1669834398671,1643,HRV,HRV_0217,2022-11-30 18:57:30
37,"[{'imgObject': {}, 'id': 'turkeysandwich', 'src': '/static/foodstim60/turkeysandwich.jpg', 'key': 'u', 'origWidth': 409, 'origHeight': 409, 'width': 409, 'height': 409, 'widthPercent': 0.45, 'rescaleHeight': False, 'trialN': 37, 'loaded': True, 'loadedTime': 4371.200000047684, 'positionName': 'LEFT', 'positionCoords': [246.68, 179.5], 'bid': 8.61}, {'imgObject': {}, 'id': 'cherries', 'src': '/static/foodstim60/cherries.jpg', 'key': 'i', 'origWidth': 410, 'origHeight': 411, 'width': 410, 'height': 411, 'widthPercent': 0.45, 'rescaleHeight': False, 'trialN': 37, 'loaded': True, 'loadedTime': 7047.900000095367, 'positionName': 'RIGHT', 'positionCoords': [710.32, 178.5], 'bid': 6.3100000000000005}]",70856.60000014305,1669834398671,turkeysandwich,cherries,8.61,6.3100000000000005,-2.299999999999999,turkeysandwich,1063.3999998569489,1065,1064.2999999523163,True,u,72433.90000009537,1577.2999999523163,1669834400249,1578,HRV,HRV_0217,2022-11-30 18:57:30
38,"[{'imgObject': {}, 'id': 'blackbeanswithrice', 'src': '/static/foodstim60/blackbeanswithrice.jpg', 'key': 'u', 'origWidth': 410, 'origHeight': 410, 'width': 410, 'height': 410, 'widthPercent': 0.45, 'rescaleHeight': False, 'trialN': 38, 'loaded': True, 'loadedTime': 6710.400000095367, 'positionName': 'LEFT', 'positionCoords': [245.68, 179], 'bid': 7.81}, {'imgObject': {}, 'id': 'raisin bran w milk', 'src': '/static/foodstim60/raisin bran w milk.jpg', 'key': 'i', 'origWidth': 411, 'origHeight': 411, 'width': 411, 'height': 411, 'widthPercent': 0.45, 'rescaleHeight': False, 'trialN': 38, 'loaded': True, 'loadedTime': 6679.900000095367, 'positionName': 'RIGHT', 'positionCoords': [710.32, 178.5], 'bid': 7.26}]",72434.40000009537,1669834400249,blackbeanswithrice,raisin bran w milk,7.81,7.26,-0.5499999999999998,blackbeanswithrice,1624.7999999523163,1626,1626.0999999046326,True,u,74572.79999995232,2138.399999856949,1669834402388,2139,HRV,HRV_0217,2022-11-30 18:57:30
39,"[{'imgObject': {}, 'id': 'granola w milk', 'src': '/static/foodstim60/granola w milk.jpg', 'key': 'u', 'origWidth': 410, 'origHeight': 410, 'width': 410, 'height': 410, 'widthPercent': 0.45, 'rescaleHeight': False, 'trialN': 39, 'loaded': True, 'loadedTime': 7060.5, 'positionName': 'LEFT', 'positionCoords': [245.68, 179], 'bid': 7.13}, {'imgObject': {}, 'id': 'strawberries', 'src': '/static/foodstim60/strawberries.jpg', 'key': 'i', 'origWidth': 410, 'origHeight': 410, 'width': 410, 'height': 410, 'widthPercent': 0.45, 'rescaleHeight': False, 'trialN': 39, 'loaded': True, 'loadedTime': 7069.799999952316, 'positionName': 'RIGHT', 'positionCoords': [710.32, 179], 'bid': 5.0200000000000005}]",74573.29999995232,1669834402388,granola w milk,strawberries,7.13,5.0200000000000005,-2.1099999999999994,granola w milk,1552.6000001430511,1554,1553.8000001907349,True,u,76642.10000014305,2068.800000190735,1669834404457,2069,HRV,HRV_0217,2022-11-30 18:57:30
40,"[{'imgObject': {}, 'id': 'eggsalad', 'src': '/static/foodstim60/eggsalad.jpg', 'key': 'u', 'origWidth': 410, 'origHeight': 409, 'width': 410, 'height': 409, 'widthPercent': 0.45, 'rescaleHeight': False, 'trialN': 40, 'loaded': True, 'loadedTime': 6175.700000047684, 'positionName': 'LEFT', 'positionCoords': [245.68, 179.5], 'bid': 8.03}, {'imgObject': {}, 'id': 'rigatoni', 'src': '/static/foodstim60/rigatoni.jpg', 'key': 'i', 'origWidth': 411, 'origHeight': 411, 'width': 411, 'height': 411, 'widthPercent': 0.45, 'rescaleHeight': False, 'trialN': 40, 'loaded': True, 'loadedTime': 7096.200000047684, 'positionName': 'RIGHT', 'positionCoords': [710.32, 178.5], 'bid': 7.91}]",76642.79999995232,1669834404458,eggsalad,rigatoni,8.03,7.91,-0.11999999999999922,eggsalad,1536.8000001907349,1538,1538.0,True,u,78701.10000014305,2058.300000190735,1669834406516,2058,HRV,HRV_0217,2022-11-30 18:57:30
41,"[{'imgObject': {}, 'id': 'salad w chicken', 'src': '/static/foodstim60/salad w chicken.jpg', 'key': 'u', 'origWidth': 411, 'origHeight': 411, 'width': 411, 'height': 411, 'widthPercent': 0.45, 'rescaleHeight': False, 'trialN': 41, 'loaded': True, 'loadedTime': 5644, 'positionName': 'LEFT', 'positionCoords': [244.68, 178.5], 'bid': 7.7}, {'imgObject': {}, 'id': 'mac & cheese', 'src': '/static/foodstim60/mac & cheese.jpg', 'key': 'i', 'origWidth': 410, 'origHeight': 410, 'width': 410, 'height': 410, 'widthPercent': 0.45, 'rescaleHeight': False, 'trialN': 41, 'loaded': True, 'loadedTime': 4361.400000095367, 'positionName': 'RIGHT', 'positionCoords': [710.32, 179], 'bid': 8.64}]",78701.5,1669834406516,salad w chicken,mac & cheese,7.7,8.64,0.9400000000000004,salad w chicken,1026.7999999523163,1028,1027.5,True,u,80250.70000004768,1549.2000000476837,1669834408065,1549,HRV,HRV_0217,2022-11-30 18:57:30
42,"[{'imgObject': {}, 'id': 'yogurt no spoon', 'src': '/static/foodstim60/yogurt no spoon.jpg', 'key': 'u', 'origWidth': 411, 'origHeight': 410, 'width': 411, 'height': 410, 'widthPercent': 0.45, 'rescaleHeight': False, 'trialN': 42, 'loaded': True, 'loadedTime': 7209.400000095367, 'positionName': 'LEFT', 'positionCoords': [244.68, 179], 'bid': 7.69}, {'imgObject': {}, 'id': 'froot loops w milk', 'src': '/static/foodstim60/froot loops w milk.jpg', 'key': 'i', 'origWidth': 410, 'origHeight': 410, 'width': 410, 'height': 410, 'widthPercent': 0.45, 'rescaleHeight': False, 'trialN': 42, 'loaded': True, 'loadedTime': 6703.100000143051, 'positionName': 'RIGHT', 'positionCoords': [710.32, 179], 'bid': 7.56}]",80251.0,1669834408066,yogurt no spoon,froot loops w milk,7.69,7.56,-0.13000000000000078,yogurt no spoon,1421.9000000953674,1422,1422.6000001430511,True,u,82188.40000009537,1937.4000000953674,1669834410003,1937,HRV,HRV_0217,2022-11-30 18:57:30
43,"[{'imgObject': {}, 'id': 'edamame', 'src': '/static/foodstim60/edamame.jpg', 'key': 'u', 'origWidth': 409, 'origHeight': 410, 'width': 409, 'height': 410, 'widthPercent': 0.45, 'rescaleHeight': False, 'trialN': 43, 'loaded': True, 'loadedTime': 4997.799999952316, 'positionName': 'LEFT', 'positionCoords': [246.68, 179], 'bid': 5.0200000000000005}, {'imgObject': {}, 'id': 'burrito', 'src': '/static/foodstim60/burrito.jpg', 'key': 'i', 'origWidth': 410, 'origHeight': 410, 'width': 410, 'height': 410, 'widthPercent': 0.45, 'rescaleHeight': False, 'trialN': 43, 'loaded': True, 'loadedTime': 4673.799999952316, 'positionName': 'RIGHT', 'positionCoords': [710.32, 179], 'bid': 5.6000000000000005}]",82189.0,1669834410004,edamame,burrito,5.0200000000000005,5.6000000000000005,0.5800000000000001,edamame,1105,1106,1106.4000000953674,True,u,83823.10000014305,1634.1000001430511,1669834411638,1634,HRV,HRV_0217,2022-11-30 18:57:30
44,"[{'imgObject': {}, 'id': 'grilled chicken strips', 'src': '/static/foodstim60/grilled chicken strips.jpg', 'key': 'u', 'origWidth': 410, 'origHeight': 411, 'width': 410, 'height': 411, 'widthPercent': 0.45, 'rescaleHeight': False, 'trialN': 44, 'loaded': True, 'loadedTime': 5654.299999952316, 'positionName': 'LEFT', 'positionCoords': [245.68, 178.5], 'bid': 8.22}, {'imgObject': {}, 'id': 'chickenfingers', 'src': '/static/foodstim60/chickenfingers.jpg', 'key': 'i', 'origWidth': 410, 'origHeight': 410, 'width': 410, 'height': 410, 'widthPercent': 0.45, 'rescaleHeight': False, 'trialN': 44, 'loaded': True, 'loadedTime': 4449.900000095367, 'positionName': 'RIGHT', 'positionCoords': [710.32, 179], 'bid': 8.17}]",83823.60000014305,1669834411638,grilled chicken strips,chickenfingers,8.22,8.17,-0.05000000000000071,grilled chicken strips,1148.6999998092651,1154,1153.1999998092651,True,u,85479.40000009537,1655.7999999523163,1669834413294,1656,HRV,HRV_0217,2022-11-30 18:57:30
45,"[{'imgObject': {}, 'id': 'strawberries', 'src': '/static/foodstim60/strawberries.jpg', 'key': 'u', 'origWidth': 410, 'origHeight': 410, 'width': 410, 'height': 410, 'widthPercent': 0.45, 'rescaleHeight': False, 'trialN': 45, 'loaded': True, 'loadedTime': 7069.100000143051, 'positionName': 'LEFT', 'positionCoords': [245.68, 179], 'bid': 5.0200000000000005}, {'imgObject': {}, 'id': 'cherries', 'src': '/static/foodstim60/cherries.jpg', 'key': 'i', 'origWidth': 410, 'origHeight': 411, 'width': 410, 'height': 411, 'widthPercent': 0.45, 'rescaleHeight': False, 'trialN': 45, 'loaded': True, 'loadedTime': 6911, 'positionName': 'RIGHT', 'positionCoords': [710.32, 178.5], 'bid': 6.3100000000000005}]",85480.0,1669834413295,strawberries,cherries,5.0200000000000005,6.3100000000000005,1.29,cherries,1024.7000000476837,1025,1025.6000001430511,True,i,87021.0,1541.0,1669834414836,1541,HRV,HRV_0217,2022-11-30 18:57:30
46,"[{'imgObject': {}, 'id': 'popsicles', 'src': '/static/foodstim60/popsicles.jpg', 'key': 'u', 'origWidth': 410, 'origHeight': 410, 'width': 410, 'height': 410, 'widthPercent': 0.45, 'rescaleHeight': False, 'trialN': 46, 'loaded': True, 'loadedTime': 7339.600000143051, 'positionName': 'LEFT', 'positionCoords': [245.68, 179], 'bid': 5.0200000000000005}, {'imgObject': {}, 'id': 'raspberries', 'src': '/static/foodstim60/raspberries.jpg', 'key': 'i', 'origWidth': 411, 'origHeight': 411, 'width': 411, 'height': 411, 'widthPercent': 0.45, 'rescaleHeight': False, 'trialN': 46, 'loaded': True, 'loadedTime': 7238.5, 'positionName': 'RIGHT', 'positionCoords': [710.32, 178.5], 'bid': 6.22}]",87021.60000014305,1669834414836,popsicles,raspberries,5.0200000000000005,6.22,1.1999999999999993,raspberries,1003.0999999046326,1004,1003.7999999523163,True,i,88540.20000004768,1518.5999999046326,1669834416355,1519,HRV,HRV_0217,2022-11-30 18:57:30
47,"[{'imgObject': {}, 'id': 'avocado', 'src': '/static/foodstim60/avocado.jpg', 'key': 'u', 'origWidth': 409, 'origHeight': 409, 'width': 409, 'height': 409, 'widthPercent': 0.45, 'rescaleHeight': False, 'trialN': 47, 'loaded': True, 'loadedTime': 4046.4000000953674, 'positionName': 'LEFT', 'positionCoords': [246.68, 179.5], 'bid': 8.9}, {'imgObject': {}, 'id': 'turkeysandwich', 'src': '/static/foodstim60/turkeysandwich.jpg', 'key': 'i', 'origWidth': 409, 'origHeight': 409, 'width': 409, 'height': 409, 'widthPercent': 0.45, 'rescaleHeight': False, 'trialN': 47, 'loaded': True, 'loadedTime': 4370.600000143051, 'positionName': 'RIGHT', 'positionCoords': [710.32, 179.5], 'bid': 8.61}]",88540.79999995232,1669834416356,avocado,turkeysandwich,8.9,8.61,-0.2900000000000009,turkeysandwich,1748.6000001430511,1750,1750.4000000953674,True,i,90792.20000004768,2251.4000000953674,1669834418607,2251,HRV,HRV_0217,2022-11-30 18:57:30
48,"[{'imgObject': {}, 'id': 'cocktailshrimp', 'src': '/static/foodstim60/cocktailshrimp.jpg', 'key': 'u', 'origWidth': 410, 'origHeight': 410, 'width': 410, 'height': 410, 'widthPercent': 0.45, 'rescaleHeight': False, 'trialN': 48, 'loaded': True, 'loadedTime': 7247.900000095367, 'positionName': 'LEFT', 'positionCoords': [245.68, 179], 'bid': 8.76}, {'imgObject': {}, 'id': 'turkeysandwich', 'src': '/static/foodstim60/turkeysandwich.jpg', 'key': 'i', 'origWidth': 409, 'origHeight': 409, 'width': 409, 'height': 409, 'widthPercent': 0.45, 'rescaleHeight': False, 'trialN': 48, 'loaded': True, 'loadedTime': 4365.100000143051, 'positionName': 'RIGHT', 'positionCoords': [710.32, 179.5], 'bid': 8.61}]",90792.79999995232,1669834418608,cocktailshrimp,turkeysandwich,8.76,8.61,-0.15000000000000036,cocktailshrimp,967.3000001907349,968,968.2000000476837,True,u,92271.10000014305,1478.3000001907349,1669834420086,1478,HRV,HRV_0217,2022-11-30 18:57:30
49,"[{'imgObject': {}, 'id': 'fruitsalad', 'src': '/static/foodstim60/fruitsalad.jpg', 'key': 'u', 'origWidth': 410, 'origHeight': 410, 'width': 410, 'height': 410, 'widthPercent': 0.45, 'rescaleHeight': False, 'trialN': 49, 'loaded': True, 'loadedTime': 7269.5, 'positionName': 'LEFT', 'positionCoords': [245.68, 179], 'bid': 5.9}, {'imgObject': {}, 'id': 'pear', 'src': '/static/foodstim60/pear.jpg', 'key': 'i', 'origWidth': 411, 'origHeight': 410, 'width': 411, 'height': 410, 'widthPercent': 0.45, 'rescaleHeight': False, 'trialN': 49, 'loaded': True, 'loadedTime': 5673.200000047684, 'positionName': 'RIGHT', 'positionCoords': [710.32, 179], 'bid': 5}]",92271.70000004768,1669834420087,fruitsalad,pear,5.9,5.0,-0.9000000000000004,NaN,NaN,NaN,,False,NaN,96301.60000014305,4029.9000000953674,1669834424131,4044,HRV,HRV_0217,2022-11-30 18:57:30
50,"[{'imgObject': {}, 'id': 'mashed potato', 'src': '/static/foodstim60/mashed potato.jpg', 'key': 'u', 'origWidth': 409, 'origHeight': 409, 'width': 409, 'height': 409, 'widthPercent': 0.45, 'rescaleHeight': False, 'trialN': 50, 'loaded': True, 'loadedTime': 5217.400000095367, 'positionName': 'LEFT', 'positionCoords': [246.68, 179.5], 'bid': 7.56}, {'imgObject': {}, 'id': 'chicken nuggets2', 'src': '/static/foodstim60/chicken nuggets2.jpg', 'key': 'i', 'origWidth': 410, 'origHeight': 409, 'width': 410, 'height': 409, 'widthPercent': 0.45, 'rescaleHeight': False, 'trialN': 50, 'loaded': True, 'loadedTime': 4251.700000047684, 'positionName': 'RIGHT', 'positionCoords': [710.32, 179.5], 'bid': 8.39}]",96302.29999995232,1669834424131,mashed potato,chicken nuggets2,7.56,8.39,0.830000000000001,chicken nuggets2,1424.6000001430511,1426,1425.4000000953674,True,i,98243.70000004768,1941.4000000953674,1669834426073,1942,HRV,HRV_0217,2022-11-30 18:57:30
51,"[{'imgObject': {}, 'id': 'cherry tomato', 'src': '/static/foodstim60/cherry tomato.jpg', 'key': 'u', 'origWidth': 410, 'origHeight': 410, 'width': 410, 'height': 410, 'widthPercent': 0.45, 'rescaleHeight': False, 'trialN': 51, 'loaded': True, 'loadedTime': 5419.400000095367, 'positionName': 'LEFT', 'positionCoords': [245.68, 179], 'bid': 5.01}, {'imgObject': {}, 'id': 'veggieswithdip', 'src': '/static/foodstim60/veggieswithdip.jpg', 'key': 'i', 'origWidth': 409, 'origHeight': 409, 'width': 409, 'height': 409, 'widthPercent': 0.45, 'rescaleHeight': False, 'trialN': 51, 'loaded': True, 'loadedTime': 5136.900000095367, 'positionName': 'RIGHT', 'positionCoords': [710.32, 179.5], 'bid': 6.5600000000000005}]",98243.90000009537,1669834426073,cherry tomato,veggieswithdip,5.01,6.5600000000000005,1.5500000000000007,veggieswithdip,929.3999998569489,930,930.2000000476837,True,i,99682.29999995232,1438.3999998569489,1669834427511,1438,HRV,HRV_0217,2022-11-30 18:57:30
52,"[{'imgObject': {}, 'id': 'grilled chicken strips', 'src': '/static/foodstim60/grilled chicken strips.jpg', 'key': 'u', 'origWidth': 410, 'origHeight': 411, 'width': 410, 'height': 411, 'widthPercent': 0.45, 'rescaleHeight': False, 'trialN': 52, 'loaded': True, 'loadedTime': 5661.600000143051, 'positionName': 'LEFT', 'positionCoords': [245.68, 178.5], 'bid': 8.22}, {'imgObject': {}, 'id': 'rigatoni', 'src': '/static/foodstim60/rigatoni.jpg', 'key': 'i', 'origWidth': 411, 'origHeight': 411, 'width': 411, 'height': 411, 'widthPercent': 0.45, 'rescaleHeight': False, 'trialN': 52, 'loaded': True, 'loadedTime': 7204.799999952316, 'positionName': 'RIGHT', 'positionCoords': [710.32, 178.5], 'bid': 7.91}]",99682.70000004768,1669834427512,grilled chicken strips,rigatoni,8.22,7.91,-0.3100000000000005,grilled chicken strips,771.7000000476837,772,772.5,True,u,100964.0,1281.2999999523163,1669834428793,1281,HRV,HRV_0217,2022-11-30 18:57:30
53,"[{'imgObject': {}, 'id': 'avocado', 'src': '/static/foodstim60/avocado.jpg', 'key': 'u', 'origWidth': 409, 'origHeight': 409, 'width': 409, 'height': 409, 'widthPercent': 0.45, 'rescaleHeight': False, 'trialN': 53, 'loaded': True, 'loadedTime': 4066, 'positionName': 'LEFT', 'positionCoords': [246.68, 179.5], 'bid': 8.9}, {'imgObject': {}, 'id': 'omelette', 'src': '/static/foodstim60/omelette.jpg', 'key': 'i', 'origWidth': 410, 'origHeight': 409, 'width': 410, 'height': 409, 'widthPercent': 0.45, 'rescaleHeight': False, 'trialN': 53, 'loaded': True, 'loadedTime': 5773.700000047684, 'positionName': 'RIGHT', 'positionCoords': [710.32, 179.5], 'bid': 8.22}]",100964.60000014305,1669834428794,avocado,omelette,8.9,8.22,-0.6799999999999997,omelette,1449.8999998569489,1450,1450.3999998569489,True,i,102934.10000014305,1969.5,1669834430763,1969,HRV,HRV_0217,2022-11-30 18:57:30
54,"[{'imgObject': {}, 'id': 'cheerios', 'src': '/static/foodstim60/cheerios.jpg', 'key': 'u', 'origWidth': 409, 'origHeight': 410, 'width': 409, 'height': 410, 'widthPercent': 0.45, 'rescaleHeight': False, 'trialN': 54, 'loaded': True, 'loadedTime': 4858.700000047684, 'positionName': 'LEFT', 'positionCoords': [246.68, 179], 'bid': 6.42}, {'imgObject': {}, 'id': 'veggieswithdip', 'src': '/static/foodstim60/veggieswithdip.jpg', 'key': 'i', 'origWidth': 409, 'origHeight': 409, 'width': 409, 'height': 409, 'widthPercent': 0.45, 'rescaleHeight': False, 'trialN': 54, 'loaded': True, 'loadedTime': 5118.799999952316, 'positionName': 'RIGHT', 'positionCoords': [710.32, 179.5], 'bid': 6.5600000000000005}]",102934.60000014305,1669834430764,cheerios,veggieswithdip,6.42,6.5600000000000005,0.14000000000000057,veggieswithdip,953.6999998092651,954,954.5,True,i,104412.40000009537,1477.7999999523163,1669834432241,1477,HRV,HRV_0217,2022-11-30 18:57:30
55,"[{'imgObject': {}, 'id': 'edamame', 'src': '/static/foodstim60/edamame.jpg', 'key': 'u', 'origWidth': 409, 'origHeight': 410, 'width': 409, 'height': 410, 'widthPercent': 0.45, 'rescaleHeight': False, 'trialN': 55, 'loaded': True, 'loadedTime': 5008.299999952316, 'positionName': 'LEFT', 'positionCoords': [246.68, 179], 'bid': 5.0200000000000005}, {'imgObject': {}, 'id': 'Grapes', 'src': '/static/foodstim60/Grapes.jpg', 'key': 'i', 'origWidth': 411, 'origHeight': 411, 'width': 411, 'height': 411, 'widthPercent': 0.45, 'rescaleHeight': False, 'trialN': 55, 'loaded': True, 'loadedTime': 7056.700000047684, 'positionName': 'RIGHT', 'positionCoords': [710.32, 178.5], 'bid': 5}]",104412.70000004768,1669834432242,edamame,Grapes,5.0200000000000005,5.0,-0.020000000000000462,edamame,2426.2999999523163,2471,2471.5999999046326,True,u,107400.70000004768,2988.0,1669834435230,2988,HRV,HRV_0217,2022-11-30 18:57:30
56,"[{'imgObject': {}, 'id': 'chickenfingers', 'src': '/static/foodstim60/chickenfingers.jpg', 'key': 'u', 'origWidth': 410, 'origHeight': 410, 'width': 410, 'height': 410, 'widthPercent': 0.45, 'rescaleHeight': False, 'trialN': 56, 'loaded': True, 'loadedTime': 4449.100000143051, 'positionName': 'LEFT', 'positionCoords': [245.68, 179], 'bid': 8.17}, {'imgObject': {}, 'id': 'bagel plain', 'src': '/static/foodstim60/bagel plain.jpg', 'key': 'i', 'origWidth': 410, 'origHeight': 410, 'width': 410, 'height': 410, 'widthPercent': 0.45, 'rescaleHeight': False, 'trialN': 56, 'loaded': True, 'loadedTime': 5765.5, 'positionName': 'RIGHT', 'positionCoords': [710.32, 179], 'bid': 8.8}]",107401.60000014305,1669834435231,chickenfingers,bagel plain,8.17,8.8,0.6300000000000008,bagel plain,1373.8999998569489,1375,1374.8999998569489,True,i,109285.5,1883.8999998569489,1669834437115,1884,HRV,HRV_0217,2022-11-30 18:57:30
57,"[{'imgObject': {}, 'id': 'blackbeanswithrice', 'src': '/static/foodstim60/blackbeanswithrice.jpg', 'key': 'u', 'origWidth': 410, 'origHeight': 410, 'width': 410, 'height': 410, 'widthPercent': 0.45, 'rescaleHeight': False, 'trialN': 57, 'loaded': True, 'loadedTime': 6712, 'positionName': 'LEFT', 'positionCoords': [245.68, 179], 'bid': 7.81}, {'imgObject': {}, 'id': 'salad w chicken', 'src': '/static/foodstim60/salad w chicken.jpg', 'key': 'i', 'origWidth': 411, 'origHeight': 411, 'width': 411, 'height': 411, 'widthPercent': 0.45, 'rescaleHeight': False, 'trialN': 57, 'loaded': True, 'loadedTime': 5558, 'positionName': 'RIGHT', 'positionCoords': [710.32, 178.5], 'bid': 7.7}]",109286.20000004768,1669834437115,blackbeanswithrice,salad w chicken,7.81,7.7,-0.10999999999999943,salad w chicken,792.0999999046326,794,793.5999999046326,True,i,110604.5,1318.2999999523163,1669834438434,1319,HRV,HRV_0217,2022-11-30 18:57:30
58,"[{'imgObject': {}, 'id': 'corn cob', 'src': '/static/foodstim60/corn cob.jpg', 'key': 'u', 'origWidth': 411, 'origHeight': 411, 'width': 411, 'height': 411, 'widthPercent': 0.45, 'rescaleHeight': False, 'trialN': 58, 'loaded': True, 'loadedTime': 5531.100000143051, 'positionName': 'LEFT', 'positionCoords': [244.68, 178.5], 'bid': 4.94}, {'imgObject': {}, 'id': 'shreddedwheatwithmilk', 'src': '/static/foodstim60/shreddedwheatwithmilk.jpg', 'key': 'i', 'origWidth': 410, 'origHeight': 410, 'width': 410, 'height': 410, 'widthPercent': 0.45, 'rescaleHeight': False, 'trialN': 58, 'loaded': True, 'loadedTime': 4985.5, 'positionName': 'RIGHT', 'positionCoords': [710.32, 179], 'bid': 7.56}]",110604.79999995232,1669834438434,corn cob,shreddedwheatwithmilk,4.94,7.56,2.619999999999999,shreddedwheatwithmilk,900.9000000953674,901,901.6000001430511,True,i,112011.10000014305,1406.3000001907349,1669834439840,1406,HRV,HRV_0217,2022-11-30 18:57:30
59,"[{'imgObject': {}, 'id': 'Tribe humus pita', 'src': '/static/foodstim60/Tribe humus pita.jpg', 'key': 'u', 'origWidth': 411, 'origHeight': 411, 'width': 411, 'height': 411, 'widthPercent': 0.45, 'rescaleHeight': False, 'trialN': 59, 'loaded': True, 'loadedTime': 6210.200000047684, 'positionName': 'LEFT', 'positionCoords': [244.68, 178.5], 'bid': 5.05}, {'imgObject': {}, 'id': 'strawberries', 'src': '/static/foodstim60/strawberries.jpg', 'key': 'i', 'origWidth': 410, 'origHeight': 410, 'width': 410, 'height': 410, 'widthPercent': 0.45, 'rescaleHeight': False, 'trialN': 59, 'loaded': True, 'loadedTime': 7094.900000095367, 'positionName': 'RIGHT', 'positionCoords': [710.32, 179], 'bid': 5.0200000000000005}]",112011.29999995232,1669834439840,Tribe humus pita,strawberries,5.05,5.0200000000000005,-0.02999999999999936,Tribe humus pita,1368.1000001430511,1370,1369.7000000476837,True,u,113900.0,1888.7000000476837,1669834441729,1889,HRV,HRV_0217,2022-11-30 18:57:30
60,"[{'imgObject': {}, 'id': 'veggieswithdip', 'src': '/static/foodstim60/veggieswithdip.jpg', 'key': 'u', 'origWidth': 409, 'origHeight': 409, 'width': 409, 'height': 409, 'widthPercent': 0.45, 'rescaleHeight': False, 'trialN': 60, 'loaded': True, 'loadedTime': 5138.100000143051, 'positionName': 'LEFT', 'positionCoords': [246.68, 179.5], 'bid': 6.5600000000000005}, {'imgObject': {}, 'id': 'kiwi', 'src': '/static/foodstim60/kiwi.jpg', 'key': 'i', 'origWidth': 410, 'origHeight': 410, 'width': 410, 'height': 410, 'widthPercent': 0.45, 'rescaleHeight': False, 'trialN': 60, 'loaded': True, 'loadedTime': 6201.200000047684, 'positionName': 'RIGHT', 'positionCoords': [710.32, 179], 'bid': 6.05}]",113900.60000014305,1669834441730,veggieswithdip,kiwi,6.5600000000000005,6.05,-0.5100000000000007,veggieswithdip,1015.5999999046326,1017,1017.0999999046326,True,u,115433.5,1532.8999998569489,1669834443262,1532,HRV,HRV_0217,2022-11-30 18:57:30
61,"[{'imgObject': {}, 'id': 'steak', 'src': '/static/foodstim60/steak.jpg', 'key': 'u', 'origWidth': 410, 'origHeight': 410, 'width': 410, 'height': 410, 'widthPercent': 0.45, 'rescaleHeight': False, 'trialN': 61, 'loaded': True, 'loadedTime': 5234.700000047684, 'positionName': 'LEFT', 'positionCoords': [245.68, 179], 'bid': 9.59}, {'imgObject': {}, 'id': 'burger', 'src': '/static/foodstim60/burger.jpg', 'key': 'i', 'origWidth': 409, 'origHeight': 409, 'width': 409, 'height': 409, 'widthPercent': 0.45, 'rescaleHeight': False, 'trialN': 61, 'loaded': True, 'loadedTime': 6058.900000095367, 'positionName': 'RIGHT', 'positionCoords': [710.32, 179.5], 'bid': 9.53}]",115434.20000004768,1669834443263,steak,burger,9.59,9.53,-0.0600000000000005,steak,747.9000000953674,749,748.5999999046326,True,u,116700.70000004768,1266.5,1669834444530,1267,HRV,HRV_0217,2022-11-30 18:57:30
62,"[{'imgObject': {}, 'id': 'lox', 'src': '/static/foodstim60/lox.jpg', 'key': 'u', 'origWidth': 410, 'origHeight': 411, 'width': 410, 'height': 411, 'widthPercent': 0.45, 'rescaleHeight': False, 'trialN': 62, 'loaded': True, 'loadedTime': 6903.600000143051, 'positionName': 'LEFT', 'positionCoords': [245.68, 178.5], 'bid': 9.8}, {'imgObject': {}, 'id': 'burger', 'src': '/static/foodstim60/burger.jpg', 'key': 'i', 'origWidth': 409, 'origHeight': 409, 'width': 409, 'height': 409, 'widthPercent': 0.45, 'rescaleHeight': False, 'trialN': 62, 'loaded': True, 'loadedTime': 6062.700000047684, 'positionName': 'RIGHT', 'positionCoords': [710.32, 179.5], 'bid': 9.53}]",116702.0,1669834444531,lox,burger,9.8,9.53,-0.27000000000000135,lox,667.2000000476837,668,668.1000001430511,True,u,117882.70000004768,1180.7000000476837,1669834445712,1181,HRV,HRV_0217,2022-11-30 18:57:30
63,"[{'imgObject': {}, 'id': 'luckycharms', 'src': '/static/foodstim60/luckycharms.jpg', 'key': 'u', 'origWidth': 410, 'origHeight': 409, 'width': 410, 'height': 409, 'widthPercent': 0.45, 'rescaleHeight': False, 'trialN': 63, 'loaded': True, 'loadedTime': 3962.2000000476837, 'positionName': 'LEFT', 'positionCoords': [245.68, 179.5], 'bid': 7.25}, {'imgObject': {}, 'id': 'banana', 'src': '/static/foodstim60/banana.jpg', 'key': 'i', 'origWidth': 410, 'origHeight': 410, 'width': 410, 'height': 410, 'widthPercent': 0.45, 'rescaleHeight': False, 'trialN': 63, 'loaded': True, 'loadedTime': 4585.600000143051, 'positionName': 'RIGHT', 'positionCoords': [710.32, 179], 'bid': 7.37}]",117883.0,1669834445712,luckycharms,banana,7.25,7.37,0.1200000000000001,luckycharms,1800.4000000953674,1801,1801.1000001430511,True,u,120195.10000014305,2312.100000143051,1669834448024,2312,HRV,HRV_0217,2022-11-30 18:57:30
64,"[{'imgObject': {}, 'id': 'baked potato', 'src': '/static/foodstim60/baked potato.jpg', 'key': 'u', 'origWidth': 409, 'origHeight': 410, 'width': 409, 'height': 410, 'widthPercent': 0.45, 'rescaleHeight': False, 'trialN': 64, 'loaded': True, 'loadedTime': 3716.600000143051, 'positionName': 'LEFT', 'positionCoords': [246.68, 179], 'bid': 7.53}, {'imgObject': {}, 'id': 'ice cream sundae 002', 'src': '/static/foodstim60/ice cream sundae 002.jpg', 'key': 'i', 'origWidth': 409, 'origHeight': 409, 'width': 409, 'height': 409, 'widthPercent': 0.45, 'rescaleHeight': False, 'trialN': 64, 'loaded': True, 'loadedTime': 7273.5, 'positionName': 'RIGHT', 'positionCoords': [710.32, 179.5], 'bid': 7.54}]",120195.60000014305,1669834448025,baked potato,ice cream sundae 002,7.53,7.54,0.009999999999999787,ice cream sundae 002,959,959,959.5999999046326,True,i,121677.90000009537,1482.2999999523163,1669834449507,1482,HRV,HRV_0217,2022-11-30 18:57:30
65,"[{'imgObject': {}, 'id': 'yogurt no spoon', 'src': '/static/foodstim60/yogurt no spoon.jpg', 'key': 'u', 'origWidth': 411, 'origHeight': 410, 'width': 411, 'height': 410, 'widthPercent': 0.45, 'rescaleHeight': False, 'trialN': 65, 'loaded': True, 'loadedTime': 7215, 'positionName': 'LEFT', 'positionCoords': [244.68, 179], 'bid': 7.69}, {'imgObject': {}, 'id': 'blackbeanswithrice', 'src': '/static/foodstim60/blackbeanswithrice.jpg', 'key': 'i', 'origWidth': 410, 'origHeight': 410, 'width': 410, 'height': 410, 'widthPercent': 0.45, 'rescaleHeight': False, 'trialN': 65, 'loaded': True, 'loadedTime': 6892.100000143051, 'positionName': 'RIGHT', 'positionCoords': [710.32, 179], 'bid': 7.81}]",121678.29999995232,1669834449507,yogurt no spoon,blackbeanswithrice,7.69,7.81,0.11999999999999922,blackbeanswithrice,855,856,855.9000000953674,True,i,123042.10000014305,1363.8000001907349,1669834450871,1364,HRV,HRV_0217,2022-11-30 18:57:30
66,"[{'imgObject': {}, 'id': 'grilled chicken strips', 'src': '/static/foodstim60/grilled chicken strips.jpg', 'key': 'u', 'origWidth': 410, 'origHeight': 411, 'width': 410, 'height': 411, 'widthPercent': 0.45, 'rescaleHeight': False, 'trialN': 66, 'loaded': True, 'loadedTime': 5662.600000143051, 'positionName': 'LEFT', 'positionCoords': [245.68, 178.5], 'bid': 8.22}, {'imgObject': {}, 'id': 'seaweed', 'src': '/static/foodstim60/seaweed.jpg', 'key': 'i', 'origWidth': 410, 'origHeight': 410, 'width': 410, 'height': 410, 'widthPercent': 0.45, 'rescaleHeight': False, 'trialN': 66, 'loaded': True, 'loadedTime': 5329, 'positionName': 'RIGHT', 'positionCoords': [710.32, 179], 'bid': 8.17}]",123042.70000004768,1669834450872,grilled chicken strips,seaweed,8.22,8.17,-0.05000000000000071,grilled chicken strips,791.4000000953674,792,792.4000000953674,True,u,124343.70000004768,1301.0,1669834452173,1301,HRV,HRV_0217,2022-11-30 18:57:30
67,"[{'imgObject': {}, 'id': 'burger', 'src': '/static/foodstim60/burger.jpg', 'key': 'u', 'origWidth': 409, 'origHeight': 409, 'width': 409, 'height': 409, 'widthPercent': 0.45, 'rescaleHeight': False, 'trialN': 67, 'loaded': True, 'loadedTime': 6061.900000095367, 'positionName': 'LEFT', 'positionCoords': [246.68, 179.5], 'bid': 9.53}, {'imgObject': {}, 'id': 'chicken nuggets2', 'src': '/static/foodstim60/chicken nuggets2.jpg', 'key': 'i', 'origWidth': 410, 'origHeight': 409, 'width': 410, 'height': 409, 'widthPercent': 0.45, 'rescaleHeight': False, 'trialN': 67, 'loaded': True, 'loadedTime': 4153.799999952316, 'positionName': 'RIGHT', 'positionCoords': [710.32, 179.5], 'bid': 8.39}]",124344.10000014305,1669834452173,burger,chicken nuggets2,9.53,8.39,-1.1399999999999988,burger,719.0999999046326,721,721.0,True,u,125579.29999995232,1235.1999998092651,1669834453408,1235,HRV,HRV_0217,2022-11-30 18:57:30
68,"[{'imgObject': {}, 'id': 'shreddedwheatwithmilk', 'src': '/static/foodstim60/shreddedwheatwithmilk.jpg', 'key': 'u', 'origWidth': 410, 'origHeight': 410, 'width': 410, 'height': 410, 'widthPercent': 0.45, 'rescaleHeight': False, 'trialN': 68, 'loaded': True, 'loadedTime': 4981.700000047684, 'positionName': 'LEFT', 'positionCoords': [245.68, 179], 'bid': 7.56}, {'imgObject': {}, 'id': 'luckycharms', 'src': '/static/foodstim60/luckycharms.jpg', 'key': 'i', 'origWidth': 410, 'origHeight': 409, 'width': 410, 'height': 409, 'widthPercent': 0.45, 'rescaleHeight': False, 'trialN': 68, 'loaded': True, 'loadedTime': 3876.100000143051, 'positionName': 'RIGHT', 'positionCoords': [710.32, 179.5], 'bid': 7.25}]",125580.0,1669834453409,shreddedwheatwithmilk,luckycharms,7.56,7.25,-0.3099999999999996,luckycharms,1577.6000001430511,1578,1578.4000000953674,True,i,127671.90000009537,2091.9000000953674,1669834455501,2092,HRV,HRV_0217,2022-11-30 18:57:30
69,"[{'imgObject': {}, 'id': 'apple slices', 'src': '/static/foodstim60/apple slices.jpg', 'key': 'u', 'origWidth': 409, 'origHeight': 410, 'width': 409, 'height': 410, 'widthPercent': 0.45, 'rescaleHeight': False, 'trialN': 69, 'loaded': True, 'loadedTime': 3752.100000143051, 'positionName': 'LEFT', 'positionCoords': [246.68, 179], 'bid': 5.8100000000000005}, {'imgObject': {}, 'id': 'fruitsalad', 'src': '/static/foodstim60/fruitsalad.jpg', 'key': 'i', 'origWidth': 410, 'origHeight': 410, 'width': 410, 'height': 410, 'widthPercent': 0.45, 'rescaleHeight': False, 'trialN': 69, 'loaded': True, 'loadedTime': 7271.400000095367, 'positionName': 'RIGHT', 'positionCoords': [710.32, 179], 'bid': 5.9}]",127672.40000009537,1669834455502,apple slices,fruitsalad,5.8100000000000005,5.9,0.08999999999999986,apple slices,1339.8999998569489,1341,1341.7000000476837,True,u,129531.10000014305,1858.7000000476837,1669834457360,1858,HRV,HRV_0217,2022-11-30 18:57:30
70,"[{'imgObject': {}, 'id': 'cocktailshrimp', 'src': '/static/foodstim60/cocktailshrimp.jpg', 'key': 'u', 'origWidth': 410, 'origHeight': 410, 'width': 410, 'height': 410, 'widthPercent': 0.45, 'rescaleHeight': False, 'trialN': 70, 'loaded': True, 'loadedTime': 7248.600000143051, 'positionName': 'LEFT', 'positionCoords': [245.68, 179], 'bid': 8.76}, {'imgObject': {}, 'id': 'blackbeanswithrice', 'src': '/static/foodstim60/blackbeanswithrice.jpg', 'key': 'i', 'origWidth': 410, 'origHeight': 410, 'width': 410, 'height': 410, 'widthPercent': 0.45, 'rescaleHeight': False, 'trialN': 70, 'loaded': True, 'loadedTime': 6719.900000095367, 'positionName': 'RIGHT', 'positionCoords': [710.32, 179], 'bid': 7.81}]",129531.29999995232,1669834457360,cocktailshrimp,blackbeanswithrice,8.76,7.81,-0.9500000000000002,cocktailshrimp,955.3000001907349,957,956.8000001907349,True,u,131006.0,1474.7000000476837,1669834458835,1475,HRV,HRV_0217,2022-11-30 18:57:30
71,"[{'imgObject': {}, 'id': 'yogurt no spoon', 'src': '/static/foodstim60/yogurt no spoon.jpg', 'key': 'u', 'origWidth': 411, 'origHeight': 410, 'width': 411, 'height': 410, 'widthPercent': 0.45, 'rescaleHeight': False, 'trialN': 71, 'loaded': True, 'loadedTime': 7211.799999952316, 'positionName': 'LEFT', 'positionCoords': [244.68, 179], 'bid': 7.69}, {'imgObject': {}, 'id': 'turkeysandwich', 'src': '/static/foodstim60/turkeysandwich.jpg', 'key': 'i', 'origWidth': 409, 'origHeight': 409, 'width': 409, 'height': 409, 'widthPercent': 0.45, 'rescaleHeight': False, 'trialN': 71, 'loaded': True, 'loadedTime': 4443, 'positionName': 'RIGHT', 'positionCoords': [710.32, 179.5], 'bid': 8.61}]",131006.40000009537,1669834458835,yogurt no spoon,turkeysandwich,7.69,8.61,0.919999999999999,yogurt no spoon,1540.5,1542,1541.7000000476837,True,u,133066.60000014305,2060.2000000476837,1669834460896,2061,HRV,HRV_0217,2022-11-30 18:57:30
72,"[{'imgObject': {}, 'id': 'olives', 'src': '/static/foodstim60/olives.jpg', 'key': 'u', 'origWidth': 410, 'origHeight': 410, 'width': 410, 'height': 410, 'widthPercent': 0.45, 'rescaleHeight': False, 'trialN': 72, 'loaded': True, 'loadedTime': 5532.5, 'positionName': 'LEFT', 'positionCoords': [245.68, 179], 'bid': 7.0200000000000005}, {'imgObject': {}, 'id': 'cheerios', 'src': '/static/foodstim60/cheerios.jpg', 'key': 'i', 'origWidth': 409, 'origHeight': 410, 'width': 409, 'height': 410, 'widthPercent': 0.45, 'rescaleHeight': False, 'trialN': 72, 'loaded': True, 'loadedTime': 4857.5, 'positionName': 'RIGHT', 'positionCoords': [710.32, 179], 'bid': 6.42}]",133067.29999995232,1669834460896,olives,cheerios,7.0200000000000005,6.42,-0.6000000000000005,olives,1104.7000000476837,1106,1105.6000001430511,True,u,134694.5,1627.2000000476837,1669834462524,1628,HRV,HRV_0217,2022-11-30 18:57:30
73,"[{'imgObject': {}, 'id': 'rigatoni and sauce', 'src': '/static/foodstim60/rigatoni and sauce.jpg', 'key': 'u', 'origWidth': 410, 'origHeight': 411, 'width': 410, 'height': 411, 'widthPercent': 0.45, 'rescaleHeight': False, 'trialN': 73, 'loaded': True, 'loadedTime': 7298.5, 'positionName': 'LEFT', 'positionCoords': [245.68, 178.5], 'bid': 8.07}, {'imgObject': {}, 'id': 'Tribe humus pita', 'src': '/static/foodstim60/Tribe humus pita.jpg', 'key': 'i', 'origWidth': 411, 'origHeight': 411, 'width': 411, 'height': 411, 'widthPercent': 0.45, 'rescaleHeight': False, 'trialN': 73, 'loaded': True, 'loadedTime': 6298.900000095367, 'positionName': 'RIGHT', 'positionCoords': [710.32, 178.5], 'bid': 5.05}]",134695.10000014305,1669834462524,rigatoni and sauce,Tribe humus pita,8.07,5.05,-3.0200000000000005,rigatoni and sauce,1220.0999999046326,1221,1220.6999998092651,True,u,136434.20000004768,1739.0999999046326,1669834464263,1739,HRV,HRV_0217,2022-11-30 18:57:30
74,"[{'imgObject': {}, 'id': 'mashed potato', 'src': '/static/foodstim60/mashed potato.jpg', 'key': 'u', 'origWidth': 409, 'origHeight': 409, 'width': 409, 'height': 409, 'widthPercent': 0.45, 'rescaleHeight': False, 'trialN': 74, 'loaded': True, 'loadedTime': 5220.799999952316, 'positionName': 'LEFT', 'positionCoords': [246.68, 179.5], 'bid': 7.56}, {'imgObject': {}, 'id': 'ice cream sundae 002', 'src': '/static/foodstim60/ice cream sundae 002.jpg', 'key': 'i', 'origWidth': 409, 'origHeight': 409, 'width': 409, 'height': 409, 'widthPercent': 0.45, 'rescaleHeight': False, 'trialN': 74, 'loaded': True, 'loadedTime': 7280.799999952316, 'positionName': 'RIGHT', 'positionCoords': [710.32, 179.5], 'bid': 7.54}]",136434.90000009537,1669834464264,mashed potato,ice cream sundae 002,7.56,7.54,-0.019999999999999574,ice cream sundae 002,1699.7000000476837,1701,1700.5999999046326,True,i,138644.20000004768,2209.2999999523163,1669834466473,2209,HRV,HRV_0217,2022-11-30 18:57:30
75,"[{'imgObject': {}, 'id': 'granola w milk', 'src': '/static/foodstim60/granola w milk.jpg', 'key': 'u', 'origWidth': 410, 'origHeight': 410, 'width': 410, 'height': 410, 'widthPercent': 0.45, 'rescaleHeight': False, 'trialN': 75, 'loaded': True, 'loadedTime': 7063.100000143051, 'positionName': 'LEFT', 'positionCoords': [245.68, 179], 'bid': 7.13}, {'imgObject': {}, 'id': 'raspberries', 'src': '/static/foodstim60/raspberries.jpg', 'key': 'i', 'origWidth': 411, 'origHeight': 411, 'width': 411, 'height': 411, 'widthPercent': 0.45, 'rescaleHeight': False, 'trialN': 75, 'loaded': True, 'loadedTime': 7240.200000047684, 'positionName': 'RIGHT', 'positionCoords': [710.32, 178.5], 'bid': 6.22}]",138644.5,1669834466474,granola w milk,raspberries,7.13,6.22,-0.9100000000000001,raspberries,1467.5,1468,1468.2999999523163,True,i,140625.60000014305,1981.1000001430511,1669834468455,1981,HRV,HRV_0217,2022-11-30 18:57:30
76,"[{'imgObject': {}, 'id': 'kiwi', 'src': '/static/foodstim60/kiwi.jpg', 'key': 'u', 'origWidth': 410, 'origHeight': 410, 'width': 410, 'height': 410, 'widthPercent': 0.45, 'rescaleHeight': False, 'trialN': 76, 'loaded': True, 'loadedTime': 6196.400000095367, 'positionName': 'LEFT', 'positionCoords': [245.68, 179], 'bid': 6.05}, {'imgObject': {}, 'id': 'corn cob', 'src': '/static/foodstim60/corn cob.jpg', 'key': 'i', 'origWidth': 411, 'origHeight': 411, 'width': 411, 'height': 411, 'widthPercent': 0.45, 'rescaleHeight': False, 'trialN': 76, 'loaded': True, 'loadedTime': 5424.5, 'positionName': 'RIGHT', 'positionCoords': [710.32, 178.5], 'bid': 4.94}]",140626.29999995232,1669834468455,kiwi,corn cob,6.05,4.94,-1.1099999999999994,kiwi,1190,1192,1191.2000000476837,True,u,142323.60000014305,1697.3000001907349,1669834470153,1698,HRV,HRV_0217,2022-11-30 18:57:30
77,"[{'imgObject': {}, 'id': 'baked potato', 'src': '/static/foodstim60/baked potato.jpg', 'key': 'u', 'origWidth': 409, 'origHeight': 410, 'width': 409, 'height': 410, 'widthPercent': 0.45, 'rescaleHeight': False, 'trialN': 77, 'loaded': True, 'loadedTime': 3709.7999999523163, 'positionName': 'LEFT', 'positionCoords': [246.68, 179], 'bid': 7.53}, {'imgObject': {}, 'id': 'hotdog w must', 'src': '/static/foodstim60/hotdog w must.jpg', 'key': 'i', 'origWidth': 409, 'origHeight': 409, 'width': 409, 'height': 409, 'widthPercent': 0.45, 'rescaleHeight': False, 'trialN': 77, 'loaded': True, 'loadedTime': 5977.799999952316, 'positionName': 'RIGHT', 'positionCoords': [710.32, 179.5], 'bid': 7.92}]",142324.10000014305,1669834470153,baked potato,hotdog w must,7.53,7.92,0.3899999999999997,hotdog w must,1100.8999998569489,1102,1101.5999999046326,True,i,143940.90000009537,1616.7999999523163,1669834471770,1617,HRV,HRV_0217,2022-11-30 18:57:30
78,"[{'imgObject': {}, 'id': 'burrito', 'src': '/static/foodstim60/burrito.jpg', 'key': 'u', 'origWidth': 410, 'origHeight': 410, 'width': 410, 'height': 410, 'widthPercent': 0.45, 'rescaleHeight': False, 'trialN': 78, 'loaded': True, 'loadedTime': 4680, 'positionName': 'LEFT', 'positionCoords': [245.68, 179], 'bid': 5.6000000000000005}, {'imgObject': {}, 'id': 'orange slices', 'src': '/static/foodstim60/orange slices.jpg', 'key': 'i', 'origWidth': 409, 'origHeight': 410, 'width': 409, 'height': 410, 'widthPercent': 0.45, 'rescaleHeight': False, 'trialN': 78, 'loaded': True, 'loadedTime': 6192.100000143051, 'positionName': 'RIGHT', 'positionCoords': [710.32, 179], 'bid': 4.94}]",143941.20000004768,1669834471770,burrito,orange slices,5.6000000000000005,4.94,-0.6600000000000001,orange slices,961.9000000953674,1016,1015.5999999046326,True,i,145483.60000014305,1542.4000000953674,1669834473313,1543,HRV,HRV_0217,2022-11-30 18:57:30
79,"[{'imgObject': {}, 'id': 'chickenfingers', 'src': '/static/foodstim60/chickenfingers.jpg', 'key': 'u', 'origWidth': 410, 'origHeight': 410, 'width': 410, 'height': 410, 'widthPercent': 0.45, 'rescaleHeight': False, 'trialN': 79, 'loaded': True, 'loadedTime': 4535.299999952316, 'positionName': 'LEFT', 'positionCoords': [245.68, 179], 'bid': 8.17}, {'imgObject': {}, 'id': 'eggs', 'src': '/static/foodstim60/eggs.jpg', 'key': 'i', 'origWidth': 409, 'origHeight': 409, 'width': 409, 'height': 409, 'widthPercent': 0.45, 'rescaleHeight': False, 'trialN': 79, 'loaded': True, 'loadedTime': 4151.900000095367, 'positionName': 'RIGHT', 'positionCoords': [710.32, 179.5], 'bid': 8.39}]",145484.29999995232,1669834473313,chickenfingers,eggs,8.17,8.39,0.22000000000000064,eggs,1372.7000000476837,1374,1373.5,True,i,147372.29999995232,1888.0,1669834475201,1888,HRV,HRV_0217,2022-11-30 18:57:30
80,"[{'imgObject': {}, 'id': 'bagel plain', 'src': '/static/foodstim60/bagel plain.jpg', 'key': 'u', 'origWidth': 410, 'origHeight': 410, 'width': 410, 'height': 410, 'widthPercent': 0.45, 'rescaleHeight': False, 'trialN': 80, 'loaded': True, 'loadedTime': 5767.900000095367, 'positionName': 'LEFT', 'positionCoords': [245.68, 179], 'bid': 8.8}, {'imgObject': {}, 'id': 'roastedpotatoes', 'src': '/static/foodstim60/roastedpotatoes.jpg', 'key': 'i', 'origWidth': 409, 'origHeight': 410, 'width': 409, 'height': 410, 'widthPercent': 0.45, 'rescaleHeight': False, 'trialN': 80, 'loaded': True, 'loadedTime': 6694.299999952316, 'positionName': 'RIGHT', 'positionCoords': [710.32, 179], 'bid': 7.85}]",147373.0,1669834475202,bagel plain,roastedpotatoes,8.8,7.85,-0.9500000000000011,bagel plain,1308.6000001430511,1309,1309.2999999523163,True,u,149185.79999995232,1812.7999999523163,1669834477015,1813,HRV,HRV_0217,2022-11-30 18:57:30
81,"[{'imgObject': {}, 'id': 'lox', 'src': '/static/foodstim60/lox.jpg', 'key': 'u', 'origWidth': 410, 'origHeight': 411, 'width': 410, 'height': 411, 'widthPercent': 0.45, 'rescaleHeight': False, 'trialN': 81, 'loaded': True, 'loadedTime': 6902.400000095367, 'positionName': 'LEFT', 'positionCoords': [245.68, 178.5], 'bid': 9.8}, {'imgObject': {}, 'id': 'turkeysandwich', 'src': '/static/foodstim60/turkeysandwich.jpg', 'key': 'i', 'origWidth': 409, 'origHeight': 409, 'width': 409, 'height': 409, 'widthPercent': 0.45, 'rescaleHeight': False, 'trialN': 81, 'loaded': True, 'loadedTime': 4369.200000047684, 'positionName': 'RIGHT', 'positionCoords': [710.32, 179.5], 'bid': 8.61}]",149186.10000014305,1669834477015,lox,turkeysandwich,9.8,8.61,-1.1900000000000013,lox,798.8999998569489,800,799.5,True,u,150499.60000014305,1313.5,1669834478329,1314,HRV,HRV_0217,2022-11-30 18:57:30
82,"[{'imgObject': {}, 'id': 'cocktailshrimp', 'src': '/static/foodstim60/cocktailshrimp.jpg', 'key': 'u', 'origWidth': 410, 'origHeight': 410, 'width': 410, 'height': 410, 'widthPercent': 0.45, 'rescaleHeight': False, 'trialN': 82, 'loaded': True, 'loadedTime': 7243, 'positionName': 'LEFT', 'positionCoords': [245.68, 179], 'bid': 8.76}, {'imgObject': {}, 'id': 'cheerios', 'src': '/static/foodstim60/cheerios.jpg', 'key': 'i', 'origWidth': 409, 'origHeight': 410, 'width': 409, 'height': 410, 'widthPercent': 0.45, 'rescaleHeight': False, 'trialN': 82, 'loaded': True, 'loadedTime': 4847.799999952316, 'positionName': 'RIGHT', 'positionCoords': [710.32, 179], 'bid': 6.42}]",150500.0,1669834478329,cocktailshrimp,cheerios,8.76,6.42,-2.34,cocktailshrimp,843.7000000476837,845,844.7999999523163,True,u,151850.5,1350.5,1669834479680,1351,HRV,HRV_0217,2022-11-30 18:57:30
83,"[{'imgObject': {}, 'id': 'orange slices', 'src': '/static/foodstim60/orange slices.jpg', 'key': 'u', 'origWidth': 409, 'origHeight': 410, 'width': 409, 'height': 410, 'widthPercent': 0.45, 'rescaleHeight': False, 'trialN': 83, 'loaded': True, 'loadedTime': 6187.799999952316, 'positionName': 'LEFT', 'positionCoords': [246.68, 179], 'bid': 4.94}, {'imgObject': {}, 'id': 'blueberries', 'src': '/static/foodstim60/blueberries.jpg', 'key': 'i', 'origWidth': 411, 'origHeight': 411, 'width': 411, 'height': 411, 'widthPercent': 0.45, 'rescaleHeight': False, 'trialN': 83, 'loaded': True, 'loadedTime': 4568.5, 'positionName': 'RIGHT', 'positionCoords': [710.32, 178.5], 'bid': 6.140000000000001}]",151850.90000009537,1669834479680,orange slices,blueberries,4.94,6.140000000000001,1.2000000000000002,blueberries,855.8999998569489,857,856.8999998569489,True,i,153226.90000009537,1376.0,1669834481056,1376,HRV,HRV_0217,2022-11-30 18:57:30
84,"[{'imgObject': {}, 'id': 'raspberries', 'src': '/static/foodstim60/raspberries.jpg', 'key': 'u', 'origWidth': 411, 'origHeight': 411, 'width': 411, 'height': 411, 'widthPercent': 0.45, 'rescaleHeight': False, 'trialN': 84, 'loaded': True, 'loadedTime': 7237.200000047684, 'positionName': 'LEFT', 'positionCoords': [244.68, 178.5], 'bid': 6.22}, {'imgObject': {}, 'id': 'eggs', 'src': '/static/foodstim60/eggs.jpg', 'key': 'i', 'origWidth': 409, 'origHeight': 409, 'width': 409, 'height': 409, 'widthPercent': 0.45, 'rescaleHeight': False, 'trialN': 84, 'loaded': True, 'loadedTime': 4151, 'positionName': 'RIGHT', 'positionCoords': [710.32, 179.5], 'bid': 8.39}]",153227.90000009537,1669834481057,raspberries,eggs,6.22,8.39,2.170000000000001,eggs,938.7000000476837,940,939.5999999046326,True,i,154682.40000009537,1454.5,1669834482511,1454,HRV,HRV_0217,2022-11-30 18:57:30
85,"[{'imgObject': {}, 'id': 'cocktailshrimp', 'src': '/static/foodstim60/cocktailshrimp.jpg', 'key': 'u', 'origWidth': 410, 'origHeight': 410, 'width': 410, 'height': 410, 'widthPercent': 0.45, 'rescaleHeight': False, 'trialN': 85, 'loaded': True, 'loadedTime': 7247.299999952316, 'positionName': 'LEFT', 'positionCoords': [245.68, 179], 'bid': 8.76}, {'imgObject': {}, 'id': 'burger', 'src': '/static/foodstim60/burger.jpg', 'key': 'i', 'origWidth': 409, 'origHeight': 409, 'width': 409, 'height': 409, 'widthPercent': 0.45, 'rescaleHeight': False, 'trialN': 85, 'loaded': True, 'loadedTime': 6065, 'positionName': 'RIGHT', 'positionCoords': [710.32, 179.5], 'bid': 9.53}]",154682.90000009537,1669834482512,cocktailshrimp,burger,8.76,9.53,0.7699999999999996,burger,925.3999998569489,926,926.0,True,i,156112.29999995232,1429.3999998569489,1669834483941,1429,HRV,HRV_0217,2022-11-30 18:57:30
86,"[{'imgObject': {}, 'id': 'sweetpotato', 'src': '/static/foodstim60/sweetpotato.jpg', 'key': 'u', 'origWidth': 410, 'origHeight': 410, 'width': 410, 'height': 410, 'widthPercent': 0.45, 'rescaleHeight': False, 'trialN': 86, 'loaded': True, 'loadedTime': 7307.600000143051, 'positionName': 'LEFT', 'positionCoords': [245.68, 179], 'bid': 6.36}, {'imgObject': {}, 'id': 'pear', 'src': '/static/foodstim60/pear.jpg', 'key': 'i', 'origWidth': 411, 'origHeight': 410, 'width': 411, 'height': 410, 'widthPercent': 0.45, 'rescaleHeight': False, 'trialN': 86, 'loaded': True, 'loadedTime': 5751.5, 'positionName': 'RIGHT', 'positionCoords': [710.32, 179], 'bid': 5}]",156112.90000009537,1669834483942,sweetpotato,pear,6.36,5.0,-1.3600000000000003,sweetpotato,1204.0999999046326,1206,1206.0999999046326,True,u,157827.60000014305,1714.7000000476837,1669834485656,1714,HRV,HRV_0217,2022-11-30 18:57:30
87,"[{'imgObject': {}, 'id': 'grilled chicken strips', 'src': '/static/foodstim60/grilled chicken strips.jpg', 'key': 'u', 'origWidth': 410, 'origHeight': 411, 'width': 410, 'height': 411, 'widthPercent': 0.45, 'rescaleHeight': False, 'trialN': 87, 'loaded': True, 'loadedTime': 5657.100000143051, 'positionName': 'LEFT', 'positionCoords': [245.68, 178.5], 'bid': 8.22}, {'imgObject': {}, 'id': 'lox', 'src': '/static/foodstim60/lox.jpg', 'key': 'i', 'origWidth': 410, 'origHeight': 411, 'width': 410, 'height': 411, 'widthPercent': 0.45, 'rescaleHeight': False, 'trialN': 87, 'loaded': True, 'loadedTime': 6904.600000143051, 'positionName': 'RIGHT', 'positionCoords': [710.32, 178.5], 'bid': 9.8}]",157828.29999995232,1669834485657,grilled chicken strips,lox,8.22,9.8,1.58,lox,1350.1000001430511,1351,1351.1000001430511,True,i,159691.40000009537,1863.1000001430511,1669834487520,1863,HRV,HRV_0217,2022-11-30 18:57:30
88,"[{'imgObject': {}, 'id': 'ice cream sundae 002', 'src': '/static/foodstim60/ice cream sundae 002.jpg', 'key': 'u', 'origWidth': 409, 'origHeight': 409, 'width': 409, 'height': 409, 'widthPercent': 0.45, 'rescaleHeight': False, 'trialN': 88, 'loaded': True, 'loadedTime': 7278.700000047684, 'positionName': 'LEFT', 'positionCoords': [246.68, 179.5], 'bid': 7.54}, {'imgObject': {}, 'id': 'fruitsalad', 'src': '/static/foodstim60/fruitsalad.jpg', 'key': 'i', 'origWidth': 410, 'origHeight': 410, 'width': 410, 'height': 410, 'widthPercent': 0.45, 'rescaleHeight': False, 'trialN': 88, 'loaded': True, 'loadedTime': 7255.299999952316, 'positionName': 'RIGHT', 'positionCoords': [710.32, 179], 'bid': 5.9}]",159692.20000004768,1669834487521,ice cream sundae 002,fruitsalad,7.54,5.9,-1.6399999999999997,ice cream sundae 002,759.9000000953674,761,760.7000000476837,True,u,160974.60000014305,1282.4000000953674,1669834488803,1282,HRV,HRV_0217,2022-11-30 18:57:30
89,"[{'imgObject': {}, 'id': 'roastedpotatoes', 'src': '/static/foodstim60/roastedpotatoes.jpg', 'key': 'u', 'origWidth': 409, 'origHeight': 410, 'width': 409, 'height': 410, 'widthPercent': 0.45, 'rescaleHeight': False, 'trialN': 89, 'loaded': True, 'loadedTime': 6692.900000095367, 'positionName': 'LEFT', 'positionCoords': [246.68, 179], 'bid': 7.85}, {'imgObject': {}, 'id': 'banana', 'src': '/static/foodstim60/banana.jpg', 'key': 'i', 'origWidth': 410, 'origHeight': 410, 'width': 410, 'height': 410, 'widthPercent': 0.45, 'rescaleHeight': False, 'trialN': 89, 'loaded': True, 'loadedTime': 4667.200000047684, 'positionName': 'RIGHT', 'positionCoords': [710.32, 179], 'bid': 7.37}]",160974.90000009537,1669834488804,roastedpotatoes,banana,7.85,7.37,-0.47999999999999954,roastedpotatoes,843,844,843.8999998569489,True,u,162323.70000004768,1348.7999999523163,1669834490153,1349,HRV,HRV_0217,2022-11-30 18:57:30
90,"[{'imgObject': {}, 'id': 'blackbeanswithrice', 'src': '/static/foodstim60/blackbeanswithrice.jpg', 'key': 'u', 'origWidth': 410, 'origHeight': 410, 'width': 410, 'height': 410, 'widthPercent': 0.45, 'rescaleHeight': False, 'trialN': 90, 'loaded': True, 'loadedTime': 6712.900000095367, 'positionName': 'LEFT', 'positionCoords': [245.68, 179], 'bid': 7.81}, {'imgObject': {}, 'id': 'ice cream sundae 002', 'src': '/static/foodstim60/ice cream sundae 002.jpg', 'key': 'i', 'origWidth': 409, 'origHeight': 409, 'width': 409, 'height': 409, 'widthPercent': 0.45, 'rescaleHeight': False, 'trialN': 90, 'loaded': True, 'loadedTime': 7281.5, 'positionName': 'RIGHT', 'positionCoords': [710.32, 179.5], 'bid': 7.54}]",165325.10000014305,1669834493154,blackbeanswithrice,ice cream sundae 002,7.81,7.54,-0.2699999999999996,NaN,NaN,NaN,,False,NaN,169343.40000009537,4018.2999999523163,1669834497172,4018,HRV,HRV_0217,2022-11-30 18:57:30
91,"[{'imgObject': {}, 'id': 'hashbrowns', 'src': '/static/foodstim60/hashbrowns.jpg', 'key': 'u', 'origWidth': 411, 'origHeight': 410, 'width': 411, 'height': 410, 'widthPercent': 0.45, 'rescaleHeight': False, 'trialN': 91, 'loaded': True, 'loadedTime': 5968.799999952316, 'positionName': 'LEFT', 'positionCoords': [244.68, 179], 'bid': 4.97}, {'imgObject': {}, 'id': 'apple slices', 'src': '/static/foodstim60/apple slices.jpg', 'key': 'i', 'origWidth': 409, 'origHeight': 410, 'width': 409, 'height': 410, 'widthPercent': 0.45, 'rescaleHeight': False, 'trialN': 91, 'loaded': True, 'loadedTime': 3764.9000000953674, 'positionName': 'RIGHT', 'positionCoords': [710.32, 179], 'bid': 5.8100000000000005}]",169344.20000004768,1669834497173,hashbrowns,apple slices,4.97,5.8100000000000005,0.8400000000000007,apple slices,2016.5,2018,2017.9000000953674,True,i,171875.0,2530.7999999523163,1669834499704,2531,HRV,HRV_0217,2022-11-30 18:57:30
92,"[{'imgObject': {}, 'id': 'eggsalad', 'src': '/static/foodstim60/eggsalad.jpg', 'key': 'u', 'origWidth': 410, 'origHeight': 409, 'width': 410, 'height': 409, 'widthPercent': 0.45, 'rescaleHeight': False, 'trialN': 92, 'loaded': True, 'loadedTime': 6169.900000095367, 'positionName': 'LEFT', 'positionCoords': [245.68, 179.5], 'bid': 8.03}, {'imgObject': {}, 'id': 'ice cream sundae 002', 'src': '/static/foodstim60/ice cream sundae 002.jpg', 'key': 'i', 'origWidth': 409, 'origHeight': 409, 'width': 409, 'height': 409, 'widthPercent': 0.45, 'rescaleHeight': False, 'trialN': 92, 'loaded': True, 'loadedTime': 7276.299999952316, 'positionName': 'RIGHT', 'positionCoords': [710.32, 179.5], 'bid': 7.54}]",171875.5,1669834499704,eggsalad,ice cream sundae 002,8.03,7.54,-0.4899999999999993,eggsalad,1804.7999999523163,1807,1806.4000000953674,True,u,174187.5,2312.0,1669834502016,2312,HRV,HRV_0217,2022-11-30 18:57:30
93,"[{'imgObject': {}, 'id': 'tacos', 'src': '/static/foodstim60/tacos.jpg', 'key': 'u', 'origWidth': 411, 'origHeight': 411, 'width': 411, 'height': 411, 'widthPercent': 0.45, 'rescaleHeight': False, 'trialN': 93, 'loaded': True, 'loadedTime': 3870.7000000476837, 'positionName': 'LEFT', 'positionCoords': [244.68, 178.5], 'bid': 7.5}, {'imgObject': {}, 'id': 'yogurt no spoon', 'src': '/static/foodstim60/yogurt no spoon.jpg', 'key': 'i', 'origWidth': 411, 'origHeight': 410, 'width': 411, 'height': 410, 'widthPercent': 0.45, 'rescaleHeight': False, 'trialN': 93, 'loaded': True, 'loadedTime': 7210.799999952316, 'positionName': 'RIGHT', 'positionCoords': [710.32, 179], 'bid': 7.69}]",174188.20000004768,1669834502017,tacos,yogurt no spoon,7.5,7.69,0.1900000000000004,tacos,1333.5999999046326,1336,1336.0,True,u,176027.60000014305,1839.4000000953674,1669834503856,1839,HRV,HRV_0217,2022-11-30 18:57:30
94,"[{'imgObject': {}, 'id': 'cherry tomato', 'src': '/static/foodstim60/cherry tomato.jpg', 'key': 'u', 'origWidth': 410, 'origHeight': 410, 'width': 410, 'height': 410, 'widthPercent': 0.45, 'rescaleHeight': False, 'trialN': 94, 'loaded': True, 'loadedTime': 5330.700000047684, 'positionName': 'LEFT', 'positionCoords': [245.68, 179], 'bid': 5.01}, {'imgObject': {}, 'id': 'blueberries', 'src': '/static/foodstim60/blueberries.jpg', 'key': 'i', 'origWidth': 411, 'origHeight': 411, 'width': 411, 'height': 411, 'widthPercent': 0.45, 'rescaleHeight': False, 'trialN': 94, 'loaded': True, 'loadedTime': 4571.799999952316, 'positionName': 'RIGHT', 'positionCoords': [710.32, 178.5], 'bid': 6.140000000000001}]",176028.0,1669834503857,cherry tomato,blueberries,5.01,6.140000000000001,1.1300000000000008,blueberries,1059.2000000476837,1060,1059.7999999523163,True,i,177594.79999995232,1566.7999999523163,1669834505424,1567,HRV,HRV_0217,2022-11-30 18:57:30
95,"[{'imgObject': {}, 'id': 'blueberries', 'src': '/static/foodstim60/blueberries.jpg', 'key': 'u', 'origWidth': 411, 'origHeight': 411, 'width': 411, 'height': 411, 'widthPercent': 0.45, 'rescaleHeight': False, 'trialN': 95, 'loaded': True, 'loadedTime': 4576.400000095367, 'positionName': 'LEFT', 'positionCoords': [244.68, 178.5], 'bid': 6.140000000000001}, {'imgObject': {}, 'id': 'raspberries', 'src': '/static/foodstim60/raspberries.jpg', 'key': 'i', 'origWidth': 411, 'origHeight': 411, 'width': 411, 'height': 411, 'widthPercent': 0.45, 'rescaleHeight': False, 'trialN': 95, 'loaded': True, 'loadedTime': 7237.799999952316, 'positionName': 'RIGHT', 'positionCoords': [710.32, 178.5], 'bid': 6.22}]",177595.29999995232,1669834505424,blueberries,raspberries,6.140000000000001,6.22,0.07999999999999918,raspberries,1252,1253,1253.0,True,i,179362.79999995232,1767.5,1669834507192,1768,HRV,HRV_0217,2022-11-30 18:57:30
96,"[{'imgObject': {}, 'id': 'apple slices', 'src': '/static/foodstim60/apple slices.jpg', 'key': 'u', 'origWidth': 409, 'origHeight': 410, 'width': 409, 'height': 410, 'widthPercent': 0.45, 'rescaleHeight': False, 'trialN': 96, 'loaded': True, 'loadedTime': 3760.7999999523163, 'positionName': 'LEFT', 'positionCoords': [246.68, 179], 'bid': 5.8100000000000005}, {'imgObject': {}, 'id': 'cantaloupe', 'src': '/static/foodstim60/cantaloupe.jpg', 'key': 'i', 'origWidth': 409, 'origHeight': 409, 'width': 409, 'height': 409, 'widthPercent': 0.45, 'rescaleHeight': False, 'trialN': 96, 'loaded': True, 'loadedTime': 3564.2000000476837, 'positionName': 'RIGHT', 'positionCoords': [710.32, 179.5], 'bid': 5.87}]",179364.70000004768,1669834507194,apple slices,cantaloupe,5.8100000000000005,5.87,0.05999999999999961,apple slices,996.7999999523163,998,998.2000000476837,True,u,180878.5,1513.7999999523163,1669834508707,1513,HRV,HRV_0217,2022-11-30 18:57:30
97,"[{'imgObject': {}, 'id': 'tacos', 'src': '/static/foodstim60/tacos.jpg', 'key': 'u', 'origWidth': 411, 'origHeight': 411, 'width': 411, 'height': 411, 'widthPercent': 0.45, 'rescaleHeight': False, 'trialN': 97, 'loaded': True, 'loadedTime': 3873.600000143051, 'positionName': 'LEFT', 'positionCoords': [244.68, 178.5], 'bid': 7.5}, {'imgObject': {}, 'id': 'steak', 'src': '/static/foodstim60/steak.jpg', 'key': 'i', 'origWidth': 410, 'origHeight': 410, 'width': 410, 'height': 410, 'widthPercent': 0.45, 'rescaleHeight': False, 'trialN': 97, 'loaded': True, 'loadedTime': 5310.600000143051, 'positionName': 'RIGHT', 'positionCoords': [710.32, 179], 'bid': 9.59}]",180879.10000014305,1669834508708,tacos,steak,7.5,9.59,2.09,steak,790.3999998569489,791,791.0999999046326,True,i,182185.79999995232,1306.6999998092651,1669834510015,1307,HRV,HRV_0217,2022-11-30 18:57:30
98,"[{'imgObject': {}, 'id': 'mac & cheese', 'src': '/static/foodstim60/mac & cheese.jpg', 'key': 'u', 'origWidth': 410, 'origHeight': 410, 'width': 410, 'height': 410, 'widthPercent': 0.45, 'rescaleHeight': False, 'trialN': 98, 'loaded': True, 'loadedTime': 4270.200000047684, 'positionName': 'LEFT', 'positionCoords': [245.68, 179], 'bid': 8.64}, {'imgObject': {}, 'id': 'bagel plain', 'src': '/static/foodstim60/bagel plain.jpg', 'key': 'i', 'origWidth': 410, 'origHeight': 410, 'width': 410, 'height': 410, 'widthPercent': 0.45, 'rescaleHeight': False, 'trialN': 98, 'loaded': True, 'loadedTime': 5764.700000047684, 'positionName': 'RIGHT', 'positionCoords': [710.32, 179], 'bid': 8.8}]",182186.29999995232,1669834510015,mac & cheese,bagel plain,8.64,8.8,0.16000000000000014,mac & cheese,729,730,729.8000001907349,True,u,183436.0,1249.7000000476837,1669834511265,1250,HRV,HRV_0217,2022-11-30 18:57:30
99,"[{'imgObject': {}, 'id': 'cherries', 'src': '/static/foodstim60/cherries.jpg', 'key': 'u', 'origWidth': 410, 'origHeight': 411, 'width': 410, 'height': 411, 'widthPercent': 0.45, 'rescaleHeight': False, 'trialN': 99, 'loaded': True, 'loadedTime': 6912.299999952316, 'positionName': 'LEFT', 'positionCoords': [245.68, 178.5], 'bid': 6.3100000000000005}, {'imgObject': {}, 'id': 'sweetpotato', 'src': '/static/foodstim60/sweetpotato.jpg', 'key': 'i', 'origWidth': 410, 'origHeight': 410, 'width': 410, 'height': 410, 'widthPercent': 0.45, 'rescaleHeight': False, 'trialN': 99, 'loaded': True, 'loadedTime': 7306.299999952316, 'positionName': 'RIGHT', 'positionCoords': [710.32, 179], 'bid': 6.36}]",183436.79999995232,1669834511266,cherries,sweetpotato,6.3100000000000005,6.36,0.04999999999999982,cherries,1099.2000000476837,1100,1100.2000000476837,True,u,185053.10000014305,1616.3000001907349,1669834512882,1616,HRV,HRV_0217,2022-11-30 18:57:30
100,"[{'imgObject': {}, 'id': 'bagel and cc', 'src': '/static/foodstim60/bagel and cc.jpg', 'key': 'u', 'origWidth': 410, 'origHeight': 410, 'width': 410, 'height': 410, 'widthPercent': 0.45, 'rescaleHeight': False, 'trialN': 100, 'loaded': True, 'loadedTime': 7314.600000143051, 'positionName': 'LEFT', 'positionCoords': [245.68, 179], 'bid': 8.98}, {'imgObject': {}, 'id': 'raisin bran w milk', 'src': '/static/foodstim60/raisin bran w milk.jpg', 'key': 'i', 'origWidth': 411, 'origHeight': 411, 'width': 411, 'height': 411, 'widthPercent': 0.45, 'rescaleHeight': False, 'trialN': 100, 'loaded': True, 'loadedTime': 6681.5, 'positionName': 'RIGHT', 'positionCoords': [710.32, 178.5], 'bid': 7.26}]",185053.5,1669834512882,bagel and cc,raisin bran w milk,8.98,7.26,-1.7200000000000006,bagel and cc,758.1000001430511,759,758.7999999523163,True,u,186332.60000014305,1279.1000001430511,1669834514161,1279,HRV,HRV_0217,2022-11-30 18:57:30
101,"[{'imgObject': {}, 'id': 'salmon', 'src': '/static/foodstim60/salmon.jpg', 'key': 'u', 'origWidth': 410, 'origHeight': 409, 'width': 410, 'height': 409, 'widthPercent': 0.45, 'rescaleHeight': False, 'trialN': 101, 'loaded': True, 'loadedTime': 6074.400000095367, 'positionName': 'LEFT', 'positionCoords': [245.68, 179.5], 'bid': 8.89}, {'imgObject': {}, 'id': 'grilled chicken strips', 'src': '/static/foodstim60/grilled chicken strips.jpg', 'key': 'i', 'origWidth': 410, 'origHeight': 411, 'width': 410, 'height': 411, 'widthPercent': 0.45, 'rescaleHeight': False, 'trialN': 101, 'loaded': True, 'loadedTime': 5658.700000047684, 'positionName': 'RIGHT', 'positionCoords': [710.32, 178.5], 'bid': 8.22}]",186333.20000004768,1669834514162,salmon,grilled chicken strips,8.89,8.22,-0.6699999999999999,salmon,914.9000000953674,916,916.4000000953674,True,u,187764.5,1431.2999999523163,1669834515593,1431,HRV,HRV_0217,2022-11-30 18:57:30
102,"[{'imgObject': {}, 'id': 'burger', 'src': '/static/foodstim60/burger.jpg', 'key': 'u', 'origWidth': 409, 'origHeight': 409, 'width': 409, 'height': 409, 'widthPercent': 0.45, 'rescaleHeight': False, 'trialN': 102, 'loaded': True, 'loadedTime': 6067.200000047684, 'positionName': 'LEFT', 'positionCoords': [246.68, 179.5], 'bid': 9.53}, {'imgObject': {}, 'id': 'banana', 'src': '/static/foodstim60/banana.jpg', 'key': 'i', 'origWidth': 410, 'origHeight': 410, 'width': 410, 'height': 410, 'widthPercent': 0.45, 'rescaleHeight': False, 'trialN': 102, 'loaded': True, 'loadedTime': 4662.5, 'positionName': 'RIGHT', 'positionCoords': [710.32, 179], 'bid': 7.37}]",187765.20000004768,1669834515594,burger,banana,9.53,7.37,-2.1599999999999993,burger,630,632,632.0,True,u,188917.5,1152.2999999523163,1669834516746,1152,HRV,HRV_0217,2022-11-30 18:57:30
103,"[{'imgObject': {}, 'id': 'popsicles', 'src': '/static/foodstim60/popsicles.jpg', 'key': 'u', 'origWidth': 410, 'origHeight': 410, 'width': 410, 'height': 410, 'widthPercent': 0.45, 'rescaleHeight': False, 'trialN': 103, 'loaded': True, 'loadedTime': 7343.200000047684, 'positionName': 'LEFT', 'positionCoords': [245.68, 179], 'bid': 5.0200000000000005}, {'imgObject': {}, 'id': 'mango', 'src': '/static/foodstim60/mango.jpg', 'key': 'i', 'origWidth': 411, 'origHeight': 411, 'width': 411, 'height': 411, 'widthPercent': 0.45, 'rescaleHeight': False, 'trialN': 103, 'loaded': True, 'loadedTime': 4767.200000047684, 'positionName': 'RIGHT', 'positionCoords': [710.32, 178.5], 'bid': 5.01}]",188918.10000014305,1669834516747,popsicles,mango,5.0200000000000005,5.01,-0.010000000000000675,popsicles,1058.1999998092651,1059,1058.8999998569489,True,u,190479.40000009537,1561.2999999523163,1669834518308,1561,HRV,HRV_0217,2022-11-30 18:57:30
104,"[{'imgObject': {}, 'id': 'popsicles', 'src': '/static/foodstim60/popsicles.jpg', 'key': 'u', 'origWidth': 410, 'origHeight': 410, 'width': 410, 'height': 410, 'widthPercent': 0.45, 'rescaleHeight': False, 'trialN': 104, 'loaded': True, 'loadedTime': 7334.100000143051, 'positionName': 'LEFT', 'positionCoords': [245.68, 179], 'bid': 5.0200000000000005}, {'imgObject': {}, 'id': 'rigatoni', 'src': '/static/foodstim60/rigatoni.jpg', 'key': 'i', 'origWidth': 411, 'origHeight': 411, 'width': 411, 'height': 411, 'widthPercent': 0.45, 'rescaleHeight': False, 'trialN': 104, 'loaded': True, 'loadedTime': 7110, 'positionName': 'RIGHT', 'positionCoords': [710.32, 178.5], 'bid': 7.91}]",190480.20000004768,1669834518309,popsicles,rigatoni,5.0200000000000005,7.91,2.8899999999999997,rigatoni,917.2000000476837,919,918.7000000476837,True,i,191912.29999995232,1432.0999999046326,1669834519741,1432,HRV,HRV_0217,2022-11-30 18:57:30
105,"[{'imgObject': {}, 'id': 'pear', 'src': '/static/foodstim60/pear.jpg', 'key': 'u', 'origWidth': 411, 'origHeight': 410, 'width': 411, 'height': 410, 'widthPercent': 0.45, 'rescaleHeight': False, 'trialN': 105, 'loaded': True, 'loadedTime': 5671.799999952316, 'positionName': 'LEFT', 'positionCoords': [244.68, 179], 'bid': 5}, {'imgObject': {}, 'id': 'mango', 'src': '/static/foodstim60/mango.jpg', 'key': 'i', 'origWidth': 411, 'origHeight': 411, 'width': 411, 'height': 411, 'widthPercent': 0.45, 'rescaleHeight': False, 'trialN': 105, 'loaded': True, 'loadedTime': 4764.799999952316, 'positionName': 'RIGHT', 'positionCoords': [710.32, 178.5], 'bid': 5.01}]",191913.40000009537,1669834519742,pear,mango,5.0,5.01,0.009999999999999787,mango,1248,1249,1248.7999999523163,True,i,193676.60000014305,1763.2000000476837,1669834521505,1763,HRV,HRV_0217,2022-11-30 18:57:30
106,"[{'imgObject': {}, 'id': 'turkey sandwich', 'src': '/static/foodstim60/turkey sandwich.jpg', 'key': 'u', 'origWidth': 409, 'origHeight': 409, 'width': 409, 'height': 409, 'widthPercent': 0.45, 'rescaleHeight': False, 'trialN': 106, 'loaded': True, 'loadedTime': 5869.400000095367, 'positionName': 'LEFT', 'positionCoords': [246.68, 179.5], 'bid': 8.38}, {'imgObject': {}, 'id': 'bagel and cc', 'src': '/static/foodstim60/bagel and cc.jpg', 'key': 'i', 'origWidth': 410, 'origHeight': 410, 'width': 410, 'height': 410, 'widthPercent': 0.45, 'rescaleHeight': False, 'trialN': 106, 'loaded': True, 'loadedTime': 7313.400000095367, 'positionName': 'RIGHT', 'positionCoords': [710.32, 179], 'bid': 8.98}]",193677.29999995232,1669834521506,turkey sandwich,bagel and cc,8.38,8.98,0.5999999999999996,bagel and cc,1206.4000000953674,1207,1207.1000001430511,True,i,195403.70000004768,1726.4000000953674,1669834523233,1727,HRV,HRV_0217,2022-11-30 18:57:30
107,"[{'imgObject': {}, 'id': 'luckycharms', 'src': '/static/foodstim60/luckycharms.jpg', 'key': 'u', 'origWidth': 410, 'origHeight': 409, 'width': 410, 'height': 409, 'widthPercent': 0.45, 'rescaleHeight': False, 'trialN': 107, 'loaded': True, 'loadedTime': 3964.100000143051, 'positionName': 'LEFT', 'positionCoords': [245.68, 179.5], 'bid': 7.25}, {'imgObject': {}, 'id': 'salad w chicken', 'src': '/static/foodstim60/salad w chicken.jpg', 'key': 'i', 'origWidth': 411, 'origHeight': 411, 'width': 411, 'height': 411, 'widthPercent': 0.45, 'rescaleHeight': False, 'trialN': 107, 'loaded': True, 'loadedTime': 5649.5, 'positionName': 'RIGHT', 'positionCoords': [710.32, 178.5], 'bid': 7.7}]",195404.20000004768,1669834523233,luckycharms,salad w chicken,7.25,7.7,0.4500000000000002,salad w chicken,1032.2000000476837,1033,1033.0,True,i,196971.20000004768,1567.0,1669834524800,1567,HRV,HRV_0217,2022-11-30 18:57:30
