success,trial_type,trial_index,time_elapsed,internal_node_id,Block,TrialNumber,TrialTime,trialTimeDiff,FPS_avg,FPS_med,FPS_mode,TrialDur,winResizeTime,rt,block,button_pressed,MotCoh,MotDir,ColCoh,Color,ChoiceKey,Choice,Accuracy,RT,nFrames,FPS,PPD,missTrial,missTrialMsg,onsetDelay,fullScreenExitTime,canvCenter,TrialType,Score,BlockTrial,stimulus,button_labels,exp,subjectId,date
True,fullscreen,0,1757,0.0-0.0,0.0,1.0,,,,,,,,,,,,,,,,,,,,,,,,,,,,,,,,HRV,HRV_0217,2022-11-30 19:07:04
,wl-check-fps,1,6757,0.0-1.0,0.0,2.0,"[2748, 2754.5, 2770.5, 2787.8, 2803.8, 2819.2, 2837.7, 2853, 2872, 2888.6, 2901.4, 2918, 2937.4, 2951.4, 2967.7, 2984.8, 3001, 3018, 3034.2, 3050.9, 3068.1, 3084.2, 3101, 3117.7, 3134.2, 3153.5, 3170.4, 3184.1, 3201, 3217.4, 3234.1, 3250.8, 3267.7, 3284.1, 3303.6, 3321.1, 3337.3, 3350.6, 3369.1, 3387.4, 3400.9, 3417.9, 3433.8, 3450.7, 3467.3, 3483.9, 3500.6, 3517.3, 3533.9, 3552.6, 3569.9, 3583.7, 3603.2, 3617.9, 3634.6, 3657.7, 3669.3, 3685.2, 3700.5, 3717.1, 3734.2, 3750.7, 3767.5, 3783.8, 3800.3, 3816.9, 3833.6, 3850.4, 3866.8, 3884.5, 3902, 3917.5, 3933.5, 3953, 3967.7, 3984.2, 4000, 4016.9, 4036.2, 4050.2, 4069.3, 4083.2, 4100.4, 4119.7, 4134.4, 4149.9, 4168.1, 4187.1, 4202.7, 4220, 4233.1, 4252, 4269.2, 4286.7, 4299.8, 4318.7, 4336.8, 4351.3, 4368.6, 4385.5, 4412.7, 4420.6, 4437.2, 4452.9, 4467, 4483.5, 4500, 4517.3, 4533.3, 4549.9, 4568.3, 4600.3, 4608.1, 4619.2, 4636.9, 4655.9, 4667.2, 4686.9, 4704.8, 4718.5, 4733.7, 4752, 4767.2, 4783, 4799.2, 4816.2, 4838.7, 4850.2, 4866.1, 4885.1, 4899.7, 4916.4, 4932.6, 4949.2, 4966.5, 4982.5, 4999.1, 5016.1, 5033.4, 5049.3, 5066.9, 5084.9, 5099.2, 5115.8, 5132.3, 5149.1, 5165.6, 5182.2, 5203.5, 5218, 5232.2, 5248.9, 5265.7, 5282.3, 5307.4, 5318.2, 5332.3, 5348.9, 5365.5, 5382.1, 5398.7, 5415.4, 5432, 5448.7, 5465.6, 5482, 5499.3, 5519.3, 5532.4, 5548.7, 5569.7, 5585.1, 5598.6, 5615.2, 5631.9, 5648.7, 5665.1, 5681.8, 5700.6, 5717.6, 5731.8, 5751, 5767.7, 5784.3, 5798.6, 5815.2, 5832, 5848.3, 5867, 5881.7, 5900.8, 5914.9, 5931.4, 5948.5, 5964.9, 5981.5, 5998.3, 6017.4, 6033.4, 6048, 6064.9, 6084, 6098.7, 6118.9, 6131.4, 6147.9, 6164.9, 6181.3, 6198, 6214.7, 6231.2, 6248, 6264.6, 6281.3, 6301.1, 6314.6, 6331.3, 6349, 6367, 6381.8, 6399.7, 6414.5, 6431.2, 6447.7, 6464.3, 6481.1, 6501.1, 6517, 6530.8, 6550.3, 6564.3, 6583.9, 6606, 6624.2, 6636.7, 6649.7, 6666.3, 6683.1, 6700.1, 6716.6, 6731.1, 6747.7, 6766.6, 6782.9, 6799.5, 6820.3, 6836.1, 6848, 6864, 6882.6, 6903, 6917.1, 6936.3, 6950.4, 6964.1, 6980.6, 6999, 7019.7, 7034.5, 7051, 7064.1, 7080.4, 7102.7, 7116.3, 7130.5, 7147.6, 7166, 7181.2, 7197.1, 7219.7, 7231.7, 7250, 7263.6, 7280.3, 7300.4, 7318.4, 7331.9, 7347, 7368.5, 7380.4, 7398.9, 7414.6, 7433.1, 7449.2, 7468.9, 7487.6, 7499.8, 7513.5, 7530.2, 7546.8, 7563.5, 7580.1, 7606.7, 7613.5, 7630.3, 7646.8, 7668.3, 7684.4, 7697, 7713.6]","[5.3, 6.5, 16, 17.3, 16, 15.4, 18.5, 15.3, 19, 16.6, 12.8, 16.6, 19.4, 14, 16.3, 17.1, 16.2, 17, 16.2, 16.7, 17.2, 16.1, 16.8, 16.7, 16.5, 19.3, 16.9, 13.7, 16.9, 16.4, 16.7, 16.7, 16.9, 16.4, 19.5, 17.5, 16.2, 13.3, 18.5, 18.3, 13.5, 17, 15.9, 16.9, 16.6, 16.6, 16.7, 16.7, 16.6, 18.7, 17.3, 13.8, 19.5, 14.7, 16.7, 23.1, 11.6, 15.9, 15.3, 16.6, 17.1, 16.5, 16.8, 16.3, 16.5, 16.6, 16.7, 16.8, 16.4, 17.7, 17.5, 15.5, 16, 19.5, 14.7, 16.5, 15.8, 16.9, 19.3, 14, 19.1, 13.9, 17.2, 19.3, 14.7, 15.5, 18.2, 19, 15.6, 17.3, 13.1, 18.9, 17.2, 17.5, 13.1, 18.9, 18.1, 14.5, 17.3, 16.9, 27.2, 7.9, 16.6, 15.7, 14.1, 16.5, 16.5, 17.3, 16, 16.6, 18.4, 32, 7.8, 11.1, 17.7, 19, 11.3, 19.7, 17.9, 13.7, 15.2, 18.3, 15.2, 15.8, 16.2, 17, 22.5, 11.5, 15.9, 19, 14.6, 16.7, 16.2, 16.6, 17.3, 16, 16.6, 17, 17.3, 15.9, 17.6, 18, 14.3, 16.6, 16.5, 16.8, 16.5, 16.6, 21.3, 14.5, 14.2, 16.7, 16.8, 16.6, 25.1, 10.8, 14.1, 16.6, 16.6, 16.6, 16.6, 16.7, 16.6, 16.7, 16.9, 16.4, 17.3, 20, 13.1, 16.3, 21, 15.4, 13.5, 16.6, 16.7, 16.8, 16.4, 16.7, 18.8, 17, 14.2, 19.2, 16.7, 16.6, 14.3, 16.6, 16.8, 16.3, 18.7, 14.7, 19.1, 14.1, 16.5, 17.1, 16.4, 16.6, 16.8, 19.1, 16, 14.6, 16.9, 19.1, 14.7, 20.2, 12.5, 16.5, 17, 16.4, 16.7, 16.7, 16.5, 16.8, 16.6, 16.7, 19.8, 13.5, 16.7, 17.7, 18, 14.8, 17.9, 14.8, 16.7, 16.5, 16.6, 16.8, 20, 15.9, 13.8, 19.5, 14, 19.6, 22.1, 18.2, 12.5, 13, 16.6, 16.8, 17, 16.5, 14.5, 16.6, 18.9, 16.3, 16.6, 20.8, 15.8, 11.9, 16, 18.6, 20.4, 14.1, 19.2, 14.1, 13.7, 16.5, 18.4, 20.7, 14.8, 16.5, 13.1, 16.3, 22.3, 13.6, 14.2, 17.1, 18.4, 15.2, 15.9, 22.6, 12, 18.3, 13.6, 16.7, 20.1, 18, 13.5, 15.1, 21.5, 11.9, 18.5, 15.7, 18.5, 16.1, 19.7, 18.7, 12.2, 13.7, 16.7, 16.6, 16.7, 16.6, 26.6, 6.8, 16.8, 16.5, 21.5, 16.1, 12.6, 16.6]",60.0,70.0,60.0,4990.3,[],,,,,,,,,,,,,,,,,,,,,,,,,HRV,HRV_0217,2022-11-30 19:07:04
,wl-html-keyboard-response,2,16061,0.0-2.0-0.0,0.0,3.0,,,,,,,,7265.100000143051,0.0,0,,,,,,,,,,,,,,,,,,,,,,HRV,HRV_0217,2022-11-30 19:07:04
,wl-rdm,3,22769,0.0-3.0-0.0,0.0,4.0,,,,,,,[],,,,0.0,0.0,87.9,0.0,u,0.0,True,792.2000000476837,49.0,60.0,40.0,False,,3000.0,[],"[683, 384]",ColorTask_Demo,,,,,HRV,HRV_0217,2022-11-30 19:07:04
,wl-rdm,4,31527,0.0-3.0-1.0,0.0,5.0,,,,,,,[],,,,0.0,0.0,87.9,1.0,i,1.0,True,496.5,30.0,60.0,40.0,False,too_early ,2000.0,[],"[683, 384]",ColorTask_Demo,,,,,HRV,HRV_0217,2022-11-30 19:07:04
,wl-html-keyboard-response,5,36195,0.0-3.0-2.0,0.0,6.0,,,,,,,,2651.7999999523163,0.0,1,,,,,,,,,,,,,,,,,,,,,,HRV,HRV_0217,2022-11-30 19:07:04
,wl-html-keyboard-response,6,44114,0.0-4.0-0.0,0.0,7.0,,,,,,,,5909.700000047684,0.0,0,,,,,,,,,,,,,,,,,,,,,,HRV,HRV_0217,2022-11-30 19:07:04
,wl-html-keyboard-response,7,54789,0.0-5.0-0.0,0.0,8.0,,,,,,,,8629.799999952316,0.0,0,,,,,,,,,,,,,,,,,,,,,,HRV,HRV_0217,2022-11-30 19:07:04
,wl-rdm,8,57020,0.0-6.0-0.0,0.0,9.0,,,,,,,[],,,,,,73.6,0.0,u,0.0,True,862.5,47.0,60.0,40.0,False,,299.11295748389426,[],"[683, 384]",ColorTask,1.0,1.0,,,HRV,HRV_0217,2022-11-30 19:07:04
,wl-rdm,9,59434,0.0-6.1-0.1,0.0,10.0,,,,,,,[],,,,,,56.4,0.0,i,1.0,False,974.5,60.0,60.0,40.0,False,,325.2952168356436,[],"[683, 384]",ColorTask,0.0,2.0,,,HRV,HRV_0217,2022-11-30 19:07:04
,wl-rdm,10,61398,0.0-6.2-0.2,0.0,11.0,,,,,,,[],,,,,,62.5,0.0,u,0.0,True,588.4000000953674,36.0,60.0,40.0,False,,302.07322407475783,[],"[683, 384]",ColorTask,1.0,3.0,,,HRV,HRV_0217,2022-11-30 19:07:04
,wl-rdm,11,63664,0.0-6.3-0.3,0.0,12.0,,,,,,,[],,,,,,50.0,1.0,i,1.0,True,915.0,51.0,60.0,40.0,False,,290.07561538017035,[],"[683, 384]",ColorTask,2.0,4.0,,,HRV,HRV_0217,2022-11-30 19:07:04
,wl-rdm,12,65877,0.0-6.4-0.4,0.0,13.0,,,,,,,[],,,,,,50.0,1.0,i,1.0,True,847.8999998569489,47.0,60.0,40.0,False,,288.21401031543553,[],"[683, 384]",ColorTask,3.0,5.0,,,HRV,HRV_0217,2022-11-30 19:07:04
,wl-rdm,13,68041,0.0-6.5-0.5,0.0,14.0,,,,,,,[],,,,,,87.9,1.0,i,1.0,True,790.5,47.0,60.0,40.0,False,,274.2612465545002,[],"[683, 384]",ColorTask,4.0,6.0,,,HRV,HRV_0217,2022-11-30 19:07:04
,wl-rdm,14,70124,0.0-6.6-0.6,0.0,15.0,,,,,,,[],,,,,,50.0,1.0,i,1.0,True,721.7999997138977,44.0,60.0,40.0,False,,202.52583760122502,[],"[683, 384]",ColorTask,5.0,7.0,,,HRV,HRV_0217,2022-11-30 19:07:04
,wl-rdm,15,72639,0.0-6.7-0.7,0.0,16.0,,,,,,,[],,,,,,62.5,0.0,u,0.0,True,1144.5,63.0,60.0,40.0,False,,307.38781071902747,[],"[683, 384]",ColorTask,6.0,8.0,,,HRV,HRV_0217,2022-11-30 19:07:04
,wl-rdm,16,75268,0.0-6.8-0.8,0.0,17.0,,,,,,,[],,,,,,73.6,0.0,u,0.0,True,1336.5000002384186,81.0,60.0,40.0,False,,204.690166367242,[],"[683, 384]",ColorTask,7.0,9.0,,,HRV,HRV_0217,2022-11-30 19:07:04
,wl-rdm,17,77617,0.0-6.9-0.9,0.0,18.0,,,,,,,[],,,,,,50.0,0.0,i,1.0,False,960.1999998092651,52.0,60.0,40.0,False,,321.3551161261968,[],"[683, 384]",ColorTask,6.0,10.0,,,HRV,HRV_0217,2022-11-30 19:07:04
,wl-rdm,18,79603,0.0-6.10-0.10,0.0,19.0,,,,,,,[],,,,,,87.9,1.0,u,0.0,False,557.3999998569489,34.0,60.0,40.0,False,,379.8627078390583,[],"[683, 384]",ColorTask,5.0,11.0,,,HRV,HRV_0217,2022-11-30 19:07:04
,wl-rdm,19,81512,0.0-6.11-0.11,0.0,20.0,,,,,,,[],,,,,,56.4,1.0,i,1.0,True,645.3000001907349,31.0,60.0,40.0,False,,206.66693831954333,[],"[683, 384]",ColorTask,6.0,12.0,,,HRV,HRV_0217,2022-11-30 19:07:04
,wl-rdm,20,83410,0.0-6.12-0.12,0.0,21.0,,,,,,,[],,,,,,53.2,1.0,i,1.0,True,603.8000001907349,37.0,60.0,40.0,False,,210.93966124448426,[],"[683, 384]",ColorTask,7.0,13.0,,,HRV,HRV_0217,2022-11-30 19:07:04
,wl-rdm,21,85642,0.0-6.13-0.13,0.0,22.0,,,,,,,[],,,,,,56.4,0.0,i,1.0,False,882.3000001907349,53.0,60.0,40.0,False,,298.43021633342937,[],"[683, 384]",ColorTask,6.0,14.0,,,HRV,HRV_0217,2022-11-30 19:07:04
,wl-rdm,22,88159,0.0-6.14-0.14,0.0,23.0,,,,,,,[],,,,,,73.6,0.0,u,0.0,True,1107.5999999046326,67.0,60.0,40.0,False,,342.8884143261678,[],"[683, 384]",ColorTask,7.0,15.0,,,HRV,HRV_0217,2022-11-30 19:07:04
,wl-rdm,23,90587,0.0-6.15-0.15,0.0,24.0,,,,,,,[],,,,,,53.2,0.0,u,0.0,True,1088.7000000476837,66.0,60.0,40.0,False,,253.89123431123852,[],"[683, 384]",ColorTask,8.0,16.0,,,HRV,HRV_0217,2022-11-30 19:07:04
,wl-rdm,24,92852,0.0-6.16-0.16,0.0,25.0,,,,,,,[],,,,,,87.9,0.0,u,0.0,True,838.0999999046326,50.0,60.0,40.0,False,,348.9217539705711,[],"[683, 384]",ColorTask,9.0,17.0,,,HRV,HRV_0217,2022-11-30 19:07:04
,wl-rdm,25,95032,0.0-6.17-0.17,0.0,26.0,,,,,,,[],,,,,,50.0,1.0,u,0.0,False,820.9000000953674,45.0,60.0,40.0,False,,271.01370805628983,[],"[683, 384]",ColorTask,8.0,18.0,,,HRV,HRV_0217,2022-11-30 19:07:04
,wl-rdm,26,97130,0.0-6.18-0.18,0.0,27.0,,,,,,,[],,,,,,87.9,0.0,u,0.0,True,788.1999998092651,48.0,60.0,40.0,False,,228.2370458965759,[],"[683, 384]",ColorTask,9.0,19.0,,,HRV,HRV_0217,2022-11-30 19:07:04
,wl-rdm,27,99295,0.0-6.19-0.19,0.0,28.0,,,,,,,[],,,,,,87.9,0.0,u,0.0,True,727.7999999523163,44.0,60.0,40.0,False,,363.00396790540753,[],"[683, 384]",ColorTask,10.0,20.0,,,HRV,HRV_0217,2022-11-30 19:07:04
,wl-rdm,28,101611,0.0-6.20-0.20,0.0,29.0,,,,,,,[],,,,,,56.4,1.0,i,1.0,True,924.2000000476837,56.0,60.0,40.0,False,,314.0333323052241,[],"[683, 384]",ColorTask,11.0,21.0,,,HRV,HRV_0217,2022-11-30 19:07:04
,wl-rdm,29,103994,0.0-6.21-0.21,0.0,30.0,,,,,,,[],,,,,,56.4,0.0,i,1.0,False,1026.5,62.0,60.0,40.0,False,,291.84450423823296,[],"[683, 384]",ColorTask,10.0,22.0,,,HRV,HRV_0217,2022-11-30 19:07:04
,wl-rdm,30,105890,0.0-6.22-0.22,0.0,31.0,,,,,,,[],,,,,,53.2,0.0,u,0.0,True,560.1000001430511,34.0,60.0,40.0,False,,251.44319391764031,[],"[683, 384]",ColorTask,11.0,23.0,,,HRV,HRV_0217,2022-11-30 19:07:04
,wl-rdm,31,108037,0.0-6.23-0.23,0.0,32.0,,,,,,,[],,,,,,87.9,0.0,u,0.0,True,724.5999999046326,44.0,60.0,40.0,False,,333.1004171709857,[],"[683, 384]",ColorTask,12.0,24.0,,,HRV,HRV_0217,2022-11-30 19:07:04
,wl-rdm,32,110201,0.0-6.24-0.24,0.0,33.0,,,,,,,[],,,,,,56.4,0.0,u,0.0,True,884.5,53.0,60.0,40.0,False,,210.55120267685035,[],"[683, 384]",ColorTask,13.0,25.0,,,HRV,HRV_0217,2022-11-30 19:07:04
,wl-rdm,33,112167,0.0-6.25-0.25,0.0,34.0,,,,,,,[],,,,,,56.4,1.0,i,1.0,True,596.9000000953674,36.0,60.0,40.0,False,,283.96332964006416,[],"[683, 384]",ColorTask,14.0,26.0,,,HRV,HRV_0217,2022-11-30 19:07:04
,wl-rdm,34,114281,0.0-6.26-0.26,0.0,35.0,,,,,,,[],,,,,,87.9,0.0,u,0.0,True,823.5000002384186,50.0,60.0,40.0,False,,205.22694023720132,[],"[683, 384]",ColorTask,15.0,27.0,,,HRV,HRV_0217,2022-11-30 19:07:04
,wl-rdm,35,116362,0.0-6.27-0.27,0.0,36.0,,,,,,,[],,,,,,62.5,1.0,i,1.0,True,793.9000000953674,48.0,60.0,40.0,False,,215.27448290379598,[],"[683, 384]",ColorTask,16.0,28.0,,,HRV,HRV_0217,2022-11-30 19:07:04
,wl-rdm,36,118660,0.0-6.28-0.28,0.0,37.0,,,,,,,[],,,,,,73.6,0.0,u,0.0,True,947.5,57.0,60.0,40.0,False,,272.1727638637409,[],"[683, 384]",ColorTask,17.0,29.0,,,HRV,HRV_0217,2022-11-30 19:07:04
,wl-rdm,37,120776,0.0-6.29-0.29,0.0,38.0,,,,,,,[],,,,,,53.2,1.0,i,1.0,True,697.7999999523163,42.0,60.0,40.0,False,,343.9526335717278,[],"[683, 384]",ColorTask,18.0,30.0,,,HRV,HRV_0217,2022-11-30 19:07:04
,wl-rdm,38,123156,0.0-6.30-0.30,0.0,39.0,,,,,,,[],,,,,,53.2,1.0,i,1.0,True,941.3999998569489,53.0,60.0,40.0,False,,351.65756616014255,[],"[683, 384]",ColorTask,19.0,31.0,,,HRV,HRV_0217,2022-11-30 19:07:04
,wl-rdm,39,125298,0.0-6.31-0.31,0.0,40.0,,,,,,,[],,,,,,50.0,0.0,i,1.0,False,701.7999999523163,36.0,60.0,40.0,False,,354.4235608413,[],"[683, 384]",ColorTask,18.0,32.0,,,HRV,HRV_0217,2022-11-30 19:07:04
,wl-rdm,40,127302,0.0-6.32-0.32,0.0,41.0,,,,,,,[],,,,,,56.4,1.0,u,0.0,False,658.599999666214,40.0,60.0,40.0,False,,262.4253371475323,[],"[683, 384]",ColorTask,17.0,33.0,,,HRV,HRV_0217,2022-11-30 19:07:04
,wl-rdm,41,129200,0.0-6.33-0.33,0.0,42.0,,,,,,,[],,,,,,56.4,0.0,i,1.0,False,468.80000019073486,29.0,60.0,40.0,False,,336.76778948750643,[],"[683, 384]",ColorTask,16.0,34.0,,,HRV,HRV_0217,2022-11-30 19:07:04
,wl-rdm,42,131164,0.0-6.34-0.34,0.0,43.0,,,,,,,[],,,,,,87.9,1.0,i,1.0,True,638.5999999046326,39.0,60.0,40.0,False,,236.04632479990983,[],"[683, 384]",ColorTask,17.0,35.0,,,HRV,HRV_0217,2022-11-30 19:07:04
,wl-rdm,43,133129,0.0-6.35-0.35,0.0,44.0,,,,,,,[],,,,,,62.5,1.0,i,1.0,True,523.7999999523163,32.0,60.0,40.0,False,,357.9395460223924,[],"[683, 384]",ColorTask,18.0,36.0,,,HRV,HRV_0217,2022-11-30 19:07:04
,wl-rdm,44,134966,0.0-6.36-0.36,0.0,45.0,,,,,,,[],,,,,,50.0,0.0,i,1.0,False,472.2000000476837,29.0,60.0,40.0,False,,289.83490353074205,[],"[683, 384]",ColorTask,17.0,37.0,,,HRV,HRV_0217,2022-11-30 19:07:04
,wl-rdm,45,137192,0.0-6.37-0.37,0.0,46.0,,,,,,,[],,,,,,73.6,1.0,i,1.0,True,878.5,53.0,60.0,40.0,False,,280.20298432718704,[],"[683, 384]",ColorTask,18.0,38.0,,,HRV,HRV_0217,2022-11-30 19:07:04
,wl-rdm,46,139540,0.0-6.38-0.38,0.0,47.0,,,,,,,[],,,,,,87.9,0.0,u,0.0,True,876.6000001430511,47.0,60.0,40.0,False,,200.60087428379956,[],"[683, 384]",ColorTask,19.0,39.0,,,HRV,HRV_0217,2022-11-30 19:07:04
,wl-rdm,47,141640,0.0-6.39-0.39,0.0,48.0,,,,,,,[],,,,,,62.5,0.0,i,1.0,False,755.2000000476837,46.0,60.0,40.0,False,,275.77093773713074,[],"[683, 384]",ColorTask,18.0,40.0,,,HRV,HRV_0217,2022-11-30 19:07:04
,wl-rdm,48,143736,0.0-6.40-0.40,0.0,49.0,,,,,,,[],,,,,,50.0,1.0,u,0.0,False,809.5999999046326,47.0,60.0,40.0,False,,210.53823346511084,[],"[683, 384]",ColorTask,17.0,41.0,,,HRV,HRV_0217,2022-11-30 19:07:04
,wl-rdm,49,145589,0.0-6.41-0.41,0.0,50.0,,,,,,,[],,,,,,62.5,0.0,i,1.0,False,554.3999998569489,34.0,60.0,40.0,False,,212.20551774043818,[],"[683, 384]",ColorTask,16.0,42.0,,,HRV,HRV_0217,2022-11-30 19:07:04
,wl-rdm,50,148032,0.0-6.42-0.42,0.0,51.0,,,,,,,[],,,,,,56.4,1.0,i,1.0,True,1061.2000000476837,59.0,60.0,40.0,False,,303.2223200154593,[],"[683, 384]",ColorTask,17.0,43.0,,,HRV,HRV_0217,2022-11-30 19:07:04
,wl-rdm,51,150148,0.0-6.43-0.43,0.0,52.0,,,,,,,[],,,,,,73.6,1.0,i,1.0,True,727.5000002384186,44.0,60.0,40.0,False,,309.0952549814993,[],"[683, 384]",ColorTask,18.0,44.0,,,HRV,HRV_0217,2022-11-30 19:07:04
,wl-rdm,52,152398,0.0-6.44-0.44,0.0,53.0,,,,,,,[],,,,,,87.9,0.0,u,0.0,True,876.7999999523163,53.0,60.0,40.0,False,,265.45245431667115,[],"[683, 384]",ColorTask,19.0,45.0,,,HRV,HRV_0217,2022-11-30 19:07:04
,wl-rdm,53,154809,0.0-6.45-0.45,0.0,54.0,,,,,,,[],,,,,,53.2,0.0,i,1.0,False,1065.5,59.0,60.0,40.0,False,,253.75512446715055,[],"[683, 384]",ColorTask,18.0,46.0,,,HRV,HRV_0217,2022-11-30 19:07:04
,wl-rdm,54,157406,0.0-6.46-0.46,0.0,55.0,,,,,,,[],,,,,,53.2,1.0,i,1.0,True,1172.2000000476837,71.0,60.0,40.0,False,,343.3018038059348,[],"[683, 384]",ColorTask,19.0,47.0,,,HRV,HRV_0217,2022-11-30 19:07:04
,wl-rdm,55,159388,0.0-6.47-0.47,0.0,56.0,,,,,,,[],,,,,,73.6,1.0,i,1.0,True,659.7999999523163,40.0,60.0,40.0,False,,244.59249503199968,[],"[683, 384]",ColorTask,20.0,48.0,,,HRV,HRV_0217,2022-11-30 19:07:04
,wl-rdm,56,161885,0.0-6.48-0.48,0.0,57.0,,,,,,,[],,,,,,53.2,0.0,i,1.0,False,1128.9000000953674,68.0,60.0,40.0,False,,296.614467233552,[],"[683, 384]",ColorTask,19.0,49.0,,,HRV,HRV_0217,2022-11-30 19:07:04
,wl-rdm,57,164399,0.0-6.49-0.49,0.0,58.0,,,,,,,[],,,,,,73.6,0.0,u,0.0,True,1160.5,70.0,60.0,40.0,False,,272.63647221936657,[],"[683, 384]",ColorTask,20.0,50.0,,,HRV,HRV_0217,2022-11-30 19:07:04
,wl-rdm,58,167215,0.0-6.50-0.50,0.0,59.0,,,,,,,[],,,,,,62.5,0.0,u,0.0,True,1457.7000000476837,88.0,60.0,40.0,False,,258.9919224595194,[],"[683, 384]",ColorTask,21.0,51.0,,,HRV,HRV_0217,2022-11-30 19:07:04
,wl-rdm,59,169278,0.0-6.51-0.51,0.0,60.0,,,,,,,[],,,,,,73.6,0.0,u,0.0,True,776.0,47.0,60.0,40.0,False,,202.3055521726554,[],"[683, 384]",ColorTask,22.0,52.0,,,HRV,HRV_0217,2022-11-30 19:07:04
,wl-rdm,60,171395,0.0-6.52-0.52,0.0,61.0,,,,,,,[],,,,,,56.4,0.0,u,0.0,True,661.2999999523163,40.0,60.0,40.0,False,,382.76289138885386,[],"[683, 384]",ColorTask,23.0,53.0,,,HRV,HRV_0217,2022-11-30 19:07:04
,wl-rdm,61,173758,0.0-6.53-0.53,0.0,62.0,,,,,,,[],,,,,,62.5,1.0,u,0.0,False,1002.9000000953674,61.0,60.0,40.0,False,,255.3670848867942,[],"[683, 384]",ColorTask,22.0,54.0,,,HRV,HRV_0217,2022-11-30 19:07:04
,wl-rdm,62,175839,0.0-6.54-0.54,0.0,63.0,,,,,,,[],,,,,,73.6,1.0,i,1.0,True,661.5000002384186,36.0,60.0,40.0,False,,342.8180980710419,[],"[683, 384]",ColorTask,23.0,55.0,,,HRV,HRV_0217,2022-11-30 19:07:04
,wl-rdm,63,178104,0.0-6.55-0.55,0.0,64.0,,,,,,,[],,,,,,53.2,1.0,u,0.0,False,944.6000001430511,53.0,60.0,40.0,False,,241.0094010114636,[],"[683, 384]",ColorTask,22.0,56.0,,,HRV,HRV_0217,2022-11-30 19:07:04
,wl-rdm,64,179935,0.0-6.56-0.56,0.0,65.0,,,,,,,[],,,,,,50.0,0.0,i,1.0,False,494.39999985694885,30.0,60.0,40.0,False,,254.75150717418046,[],"[683, 384]",ColorTask,21.0,57.0,,,HRV,HRV_0217,2022-11-30 19:07:04
,wl-rdm,65,182300,0.0-6.57-0.57,0.0,66.0,,,,,,,[],,,,,,56.4,0.0,u,0.0,True,998.0999999046326,60.0,60.0,40.0,False,,229.4718107822294,[],"[683, 384]",ColorTask,22.0,58.0,,,HRV,HRV_0217,2022-11-30 19:07:04
,wl-rdm,66,184414,0.0-6.58-0.58,0.0,67.0,,,,,,,[],,,,,,87.9,1.0,i,1.0,True,756.2999999523163,45.0,60.0,40.0,False,,245.05066211307454,[],"[683, 384]",ColorTask,23.0,59.0,,,HRV,HRV_0217,2022-11-30 19:07:04
,wl-rdm,67,187012,0.0-6.59-0.59,0.0,68.0,,,,,,,[],,,,,,50.0,1.0,u,0.0,False,1274.7000000476837,77.0,60.0,40.0,False,,248.50979599856666,[],"[683, 384]",ColorTask,22.0,60.0,,,HRV,HRV_0217,2022-11-30 19:07:04
,wl-rdm,68,189576,0.0-6.60-0.60,0.0,69.0,,,,,,,[],,,,,,50.0,1.0,i,1.0,True,1264.6000001430511,76.0,60.0,40.0,False,,219.70175223038447,[],"[683, 384]",ColorTask,23.0,61.0,,,HRV,HRV_0217,2022-11-30 19:07:04
,wl-rdm,69,191525,0.0-6.61-0.61,0.0,70.0,,,,,,,[],,,,,,56.4,1.0,i,1.0,True,529.9999997615814,32.0,60.0,40.0,False,,336.736350598487,[],"[683, 384]",ColorTask,24.0,62.0,,,HRV,HRV_0217,2022-11-30 19:07:04
,wl-rdm,70,193672,0.0-6.62-0.62,0.0,71.0,,,,,,,[],,,,,,62.5,1.0,i,1.0,True,796.2000000476837,47.0,60.0,40.0,False,,271.02700495031013,[],"[683, 384]",ColorTask,25.0,63.0,,,HRV,HRV_0217,2022-11-30 19:07:04
,wl-rdm,71,196103,0.0-6.63-0.63,0.0,72.0,,,,,,,[],,,,,,73.6,0.0,u,0.0,True,955.2999999523163,58.0,60.0,40.0,False,,394.12987145952286,[],"[683, 384]",ColorTask,26.0,64.0,,,HRV,HRV_0217,2022-11-30 19:07:04
,wl-rdm,72,198301,0.0-6.64-0.64,0.0,73.0,,,,,,,[],,,,,,53.2,0.0,i,1.0,False,793.7000000476837,48.0,60.0,40.0,False,,328.0609712043939,[],"[683, 384]",ColorTask,25.0,65.0,,,HRV,HRV_0217,2022-11-30 19:07:04
,wl-rdm,73,200532,0.0-6.65-0.65,0.0,74.0,,,,,,,[],,,,,,50.0,0.0,u,0.0,True,905.4000000953674,54.0,60.0,40.0,False,,248.33806925521583,[],"[683, 384]",ColorTask,26.0,66.0,,,HRV,HRV_0217,2022-11-30 19:07:04
,wl-rdm,74,202714,0.0-6.66-0.66,0.0,75.0,,,,,,,[],,,,,,50.0,0.0,u,0.0,True,892.6000001430511,54.0,60.0,40.0,False,,216.98147582578218,[],"[683, 384]",ColorTask,27.0,67.0,,,HRV,HRV_0217,2022-11-30 19:07:04
,wl-rdm,75,204912,0.0-6.67-0.67,0.0,76.0,,,,,,,[],,,,,,53.2,1.0,i,1.0,True,896.3000001907349,48.0,60.0,40.0,False,,242.2186664275866,[],"[683, 384]",ColorTask,28.0,68.0,,,HRV,HRV_0217,2022-11-30 19:07:04
,wl-rdm,76,207942,0.0-6.68-0.68,0.0,77.0,,,,,,,[],,,,,,56.4,0.0,i,1.0,False,1697.099999666214,97.0,60.0,40.0,False,,235.0176958242052,[],"[683, 384]",ColorTask,27.0,69.0,,,HRV,HRV_0217,2022-11-30 19:07:04
,wl-rdm,77,210107,0.0-6.69-0.69,0.0,78.0,,,,,,,[],,,,,,73.6,1.0,i,1.0,True,702.3999998569489,43.0,60.0,40.0,False,,368.1367031318914,[],"[683, 384]",ColorTask,28.0,70.0,,,HRV,HRV_0217,2022-11-30 19:07:04
,wl-rdm,78,212405,0.0-6.70-0.70,0.0,79.0,,,,,,,[],,,,,,56.4,1.0,u,0.0,False,925.0,56.0,60.0,40.0,False,,287.1362542836757,[],"[683, 384]",ColorTask,27.0,71.0,,,HRV,HRV_0217,2022-11-30 19:07:04
,wl-rdm,79,214452,0.0-6.71-0.71,0.0,80.0,,,,,,,[],,,,,,56.4,0.0,i,1.0,False,709.7999999523163,43.0,60.0,40.0,False,,260.3517504138125,[],"[683, 384]",ColorTask,26.0,72.0,,,HRV,HRV_0217,2022-11-30 19:07:04
,wl-rdm,80,216624,0.0-6.72-0.72,0.0,81.0,,,,,,,[],,,,,,53.2,0.0,u,0.0,True,837.6999998092651,51.0,60.0,40.0,False,,248.4780507831357,[],"[683, 384]",ColorTask,27.0,73.0,,,HRV,HRV_0217,2022-11-30 19:07:04
,wl-rdm,81,219381,0.0-6.73-0.73,0.0,82.0,,,,,,,[],,,,,,50.0,0.0,u,0.0,True,1324.7999999523163,80.0,60.0,40.0,False,,357.7277329676608,[],"[683, 384]",ColorTask,28.0,74.0,,,HRV,HRV_0217,2022-11-30 19:07:04
,wl-rdm,82,221779,0.0-6.74-0.74,0.0,83.0,,,,,,,[],,,,,,73.6,0.0,u,0.0,True,1061.9000000953674,59.0,60.0,40.0,False,,265.327591453174,[],"[683, 384]",ColorTask,29.0,75.0,,,HRV,HRV_0217,2022-11-30 19:07:04
,wl-rdm,83,224045,0.0-6.75-0.75,0.0,84.0,,,,,,,[],,,,,,73.6,1.0,i,1.0,True,890.8999998569489,54.0,60.0,40.0,False,,295.93849608076073,[],"[683, 384]",ColorTask,30.0,76.0,,,HRV,HRV_0217,2022-11-30 19:07:04
,wl-rdm,84,226807,0.0-6.76-0.76,0.0,85.0,,,,,,,[],,,,,,53.2,0.0,u,0.0,True,1357.0000002384186,81.0,60.0,40.0,False,,329.00750751877104,[],"[683, 384]",ColorTask,31.0,77.0,,,HRV,HRV_0217,2022-11-30 19:07:04
,wl-rdm,85,228856,0.0-6.77-0.77,0.0,86.0,,,,,,,[],,,,,,73.6,0.0,u,0.0,True,705.6000001430511,44.0,60.0,40.0,False,,250.44942221030502,[],"[683, 384]",ColorTask,32.0,78.0,,,HRV,HRV_0217,2022-11-30 19:07:04
,wl-rdm,86,231027,0.0-6.78-0.78,0.0,87.0,,,,,,,[],,,,,,62.5,0.0,u,0.0,True,792.4000000953674,48.0,60.0,40.0,False,,237.71574106737123,[],"[683, 384]",ColorTask,33.0,79.0,,,HRV,HRV_0217,2022-11-30 19:07:04
,wl-rdm,87,233372,0.0-6.79-0.79,0.0,88.0,,,,,,,[],,,,,,53.2,0.0,u,0.0,True,920.3999998569489,52.0,60.0,40.0,False,,365.43440152151254,[],"[683, 384]",ColorTask,34.0,80.0,,,HRV,HRV_0217,2022-11-30 19:07:04
,wl-rdm,88,235453,0.0-6.80-0.80,0.0,89.0,,,,,,,[],,,,,,87.9,1.0,i,1.0,True,640.4000000953674,39.0,60.0,40.0,False,,358.15659712449576,[],"[683, 384]",ColorTask,35.0,81.0,,,HRV,HRV_0217,2022-11-30 19:07:04
,wl-rdm,89,237849,0.0-6.81-0.81,0.0,90.0,,,,,,,[],,,,,,62.5,0.0,u,0.0,True,1118.7999999523163,65.0,60.0,40.0,False,,200.48402953155164,[],"[683, 384]",ColorTask,36.0,82.0,,,HRV,HRV_0217,2022-11-30 19:07:04
,wl-rdm,90,239979,0.0-6.82-0.82,0.0,91.0,,,,,,,[],,,,,,50.0,1.0,u,0.0,False,753.599999666214,46.0,60.0,40.0,False,,296.5021597136605,[],"[683, 384]",ColorTask,35.0,83.0,,,HRV,HRV_0217,2022-11-30 19:07:04
,wl-rdm,91,242312,0.0-6.83-0.83,0.0,92.0,,,,,,,[],,,,,,62.5,1.0,u,0.0,False,956.9000000953674,58.0,60.0,40.0,False,,288.8367432734028,[],"[683, 384]",ColorTask,34.0,84.0,,,HRV,HRV_0217,2022-11-30 19:07:04
,wl-rdm,92,244244,0.0-6.84-0.84,0.0,93.0,,,,,,,[],,,,,,87.9,1.0,i,1.0,True,495.7000000476837,30.0,60.0,40.0,False,,370.8876130501941,[],"[683, 384]",ColorTask,35.0,85.0,,,HRV,HRV_0217,2022-11-30 19:07:04
,wl-rdm,93,246290,0.0-6.85-0.85,0.0,94.0,,,,,,,[],,,,,,62.5,0.0,i,1.0,False,621.7999999523163,38.0,60.0,40.0,False,,344.29803129076265,[],"[683, 384]",ColorTask,34.0,86.0,,,HRV,HRV_0217,2022-11-30 19:07:04
,wl-rdm,94,248171,0.0-6.86-0.86,0.0,95.0,,,,,,,[],,,,,,53.2,1.0,i,1.0,True,556.2999997138977,34.0,60.0,40.0,False,,257.1809555909028,[],"[683, 384]",ColorTask,35.0,87.0,,,HRV,HRV_0217,2022-11-30 19:07:04
,wl-rdm,95,250086,0.0-6.87-0.87,0.0,96.0,,,,,,,[],,,,,,62.5,1.0,i,1.0,True,589.8000001907349,36.0,60.0,40.0,False,,209.4653627810686,[],"[683, 384]",ColorTask,36.0,88.0,,,HRV,HRV_0217,2022-11-30 19:07:04
,wl-rdm,96,252366,0.0-6.88-0.88,0.0,97.0,,,,,,,[],,,,,,53.2,0.0,i,1.0,False,906.5,55.0,60.0,40.0,False,,298.2942434193093,[],"[683, 384]",ColorTask,35.0,89.0,,,HRV,HRV_0217,2022-11-30 19:07:04
,wl-rdm,97,254265,0.0-6.89-0.89,0.0,98.0,,,,,,,[],,,,,,87.9,1.0,i,1.0,True,587.5999999046326,36.0,60.0,40.0,False,,228.24662175531623,[],"[683, 384]",ColorTask,36.0,90.0,,,HRV,HRV_0217,2022-11-30 19:07:04
,wl-rdm,98,256196,0.0-6.90-0.90,0.0,99.0,,,,,,,[],,,,,,73.6,1.0,i,1.0,True,504.2999999523163,31.0,60.0,40.0,False,,337.72993229194157,[],"[683, 384]",ColorTask,37.0,91.0,,,HRV,HRV_0217,2022-11-30 19:07:04
,wl-rdm,99,257995,0.0-6.91-0.91,0.0,100.0,,,,,,,[],,,,,,62.5,1.0,i,1.0,True,458.40000009536743,28.0,60.0,40.0,False,,260.14360233874123,[],"[683, 384]",ColorTask,38.0,92.0,,,HRV,HRV_0217,2022-11-30 19:07:04
,wl-rdm,100,260160,0.0-6.92-0.92,0.0,101.0,,,,,,,[],,,,,,53.2,1.0,i,1.0,True,758.5000002384186,46.0,60.0,40.0,False,,337.47505830244853,[],"[683, 384]",ColorTask,39.0,93.0,,,HRV,HRV_0217,2022-11-30 19:07:04
,wl-rdm,101,262093,0.0-6.93-0.93,0.0,102.0,,,,,,,[],,,,,,56.4,1.0,i,1.0,True,640.7999999523163,39.0,60.0,40.0,False,,202.04367212310842,[],"[683, 384]",ColorTask,40.0,94.0,,,HRV,HRV_0217,2022-11-30 19:07:04
,wl-rdm,102,264156,0.0-6.94-0.94,0.0,103.0,,,,,,,[],,,,,,62.5,1.0,i,1.0,True,671.4999997615814,41.0,60.0,40.0,False,,301.49014498537184,[],"[683, 384]",ColorTask,41.0,95.0,,,HRV,HRV_0217,2022-11-30 19:07:04
,wl-rdm,103,266437,0.0-6.95-0.95,0.0,104.0,,,,,,,[],,,,,,62.5,1.0,i,1.0,True,989.1999998092651,60.0,60.0,40.0,False,,203.21469123523272,[],"[683, 384]",ColorTask,42.0,96.0,,,HRV,HRV_0217,2022-11-30 19:07:04
,wl-rdm,104,268186,0.0-6.96-0.96,0.0,105.0,,,,,,,[],,,,,,53.2,1.0,i,1.0,True,389.599999666214,24.0,60.0,40.0,False,,286.833694955715,[],"[683, 384]",ColorTask,43.0,97.0,,,HRV,HRV_0217,2022-11-30 19:07:04
,wl-rdm,105,269919,0.0-6.97-0.97,0.0,106.0,,,,,,,[],,,,,,87.9,1.0,i,1.0,True,394.2999999523163,24.0,60.0,40.0,False,,262.4104041046609,[],"[683, 384]",ColorTask,44.0,98.0,,,HRV,HRV_0217,2022-11-30 19:07:04
,wl-rdm,106,272081,0.0-6.98-0.98,0.0,107.0,,,,,,,[],,,,,,87.9,0.0,u,0.0,True,805.0,49.0,60.0,40.0,False,,272.292654827875,[],"[683, 384]",ColorTask,45.0,99.0,,,HRV,HRV_0217,2022-11-30 19:07:04
,wl-rdm,107,274297,0.0-6.99-0.99,0.0,108.0,,,,,,,[],,,,,,87.9,1.0,i,1.0,True,756.9000000953674,46.0,60.0,40.0,False,,384.3159925943876,[],"[683, 384]",ColorTask,46.0,100.0,,,HRV,HRV_0217,2022-11-30 19:07:04
,wl-rdm,108,276145,0.0-6.100-0.100,0.0,109.0,,,,,,,[],,,,,,56.4,1.0,i,1.0,True,557.5000002384186,34.0,60.0,40.0,False,,210.20136726272213,[],"[683, 384]",ColorTask,47.0,101.0,,,HRV,HRV_0217,2022-11-30 19:07:04
,wl-rdm,109,278126,0.0-6.101-0.101,0.0,110.0,,,,,,,[],,,,,,73.6,1.0,i,1.0,True,638.7999999523163,39.0,60.0,40.0,False,,262.2400367256496,[],"[683, 384]",ColorTask,48.0,102.0,,,HRV,HRV_0217,2022-11-30 19:07:04
,wl-rdm,110,279891,0.0-6.102-0.102,0.0,111.0,,,,,,,[],,,,,,73.6,1.0,i,1.0,True,445.7000000476837,27.0,60.0,40.0,False,,244.85142838505536,[],"[683, 384]",ColorTask,49.0,103.0,,,HRV,HRV_0217,2022-11-30 19:07:04
,wl-rdm,111,281822,0.0-6.103-0.103,0.0,112.0,,,,,,,[],,,,,,87.9,0.0,i,1.0,False,455.7000000476837,28.0,60.0,40.0,False,,387.7754613663978,[],"[683, 384]",ColorTask,48.0,104.0,,,HRV,HRV_0217,2022-11-30 19:07:04
,wl-rdm,112,283856,0.0-6.104-0.104,0.0,113.0,,,,,,,[],,,,,,50.0,0.0,u,0.0,True,561.0000002384186,34.0,60.0,40.0,False,,398.25482012685575,[],"[683, 384]",ColorTask,49.0,105.0,,,HRV,HRV_0217,2022-11-30 19:07:04
,wl-rdm,113,285935,0.0-6.105-0.105,0.0,114.0,,,,,,,[],,,,,,50.0,1.0,u,0.0,False,706.8000001907349,43.0,60.0,40.0,False,,281.0285506595804,[],"[683, 384]",ColorTask,48.0,106.0,,,HRV,HRV_0217,2022-11-30 19:07:04
,wl-rdm,114,287750,0.0-6.106-0.106,0.0,115.0,,,,,,,[],,,,,,62.5,0.0,i,1.0,False,433.19999980926514,27.0,60.0,40.0,False,,282.1755186607378,[],"[683, 384]",ColorTask,47.0,107.0,,,HRV,HRV_0217,2022-11-30 19:07:04
,wl-rdm,115,289715,0.0-6.107-0.107,0.0,116.0,,,,,,,[],,,,,,50.0,0.0,i,1.0,False,668.7999999523163,41.0,60.0,40.0,False,,203.71219280824693,[],"[683, 384]",ColorTask,46.0,108.0,,,HRV,HRV_0217,2022-11-30 19:07:04
,wl-html-keyboard-response,116,334374,0.0-7.0-0.0,1.0,117.0,,,,,,,,42631.10000014305,1.0,0,,,,,,,,,,,,,,,,,,,,,,HRV,HRV_0217,2022-11-30 19:07:04
,wl-rdm,117,336836,0.0-8.0-0.0,1.0,118.0,,,,,,,[],,,,,,87.9,0.0,i,1.0,False,1192.4000000953674,72.0,60.0,40.0,False,,206.934571668598,[],"[683, 384]",ColorTask,45.0,1.0,,,HRV,HRV_0217,2022-11-30 19:07:04
,wl-rdm,118,339102,0.0-8.1-0.1,1.0,119.0,,,,,,,[],,,,,,62.5,0.0,i,1.0,False,860.8000001907349,52.0,60.0,40.0,False,,327.4760147201712,[],"[683, 384]",ColorTask,44.0,2.0,,,HRV,HRV_0217,2022-11-30 19:07:04
,wl-rdm,119,341220,0.0-8.2-0.2,1.0,120.0,,,,,,,[],,,,,,87.9,1.0,i,1.0,True,690.2999999523163,42.0,60.0,40.0,False,,361.7514510459114,[],"[683, 384]",ColorTask,45.0,3.0,,,HRV,HRV_0217,2022-11-30 19:07:04
,wl-rdm,120,343430,0.0-8.3-0.3,1.0,121.0,,,,,,,[],,,,,,56.4,0.0,i,1.0,False,823.7999999523163,49.0,60.0,40.0,False,,313.20788265438614,[],"[683, 384]",ColorTask,44.0,4.0,,,HRV,HRV_0217,2022-11-30 19:07:04
,wl-rdm,121,345661,0.0-8.4-0.4,1.0,122.0,,,,,,,[],,,,,,62.5,1.0,u,0.0,False,926.8000001907349,55.0,60.0,40.0,False,,227.77981460080957,[],"[683, 384]",ColorTask,43.0,5.0,,,HRV,HRV_0217,2022-11-30 19:07:04
,wl-rdm,122,347709,0.0-8.5-0.5,1.0,123.0,,,,,,,[],,,,,,62.5,1.0,i,1.0,True,554.5000002384186,34.0,60.0,40.0,False,,392.9461842101075,[],"[683, 384]",ColorTask,44.0,6.0,,,HRV,HRV_0217,2022-11-30 19:07:04
,wl-rdm,123,349541,0.0-8.6-0.6,1.0,124.0,,,,,,,[],,,,,,87.9,1.0,i,1.0,True,529.3000001907349,32.0,60.0,40.0,False,,249.35079051515353,[],"[683, 384]",ColorTask,45.0,7.0,,,HRV,HRV_0217,2022-11-30 19:07:04
,wl-rdm,124,351523,0.0-8.7-0.7,1.0,125.0,,,,,,,[],,,,,,53.2,1.0,i,1.0,True,539.3000001907349,33.0,60.0,40.0,False,,359.27824535569596,[],"[683, 384]",ColorTask,46.0,8.0,,,HRV,HRV_0217,2022-11-30 19:07:04
,wl-rdm,125,353454,0.0-8.8-0.8,1.0,126.0,,,,,,,[],,,,,,56.4,1.0,i,1.0,True,638.3999998569489,39.0,60.0,40.0,False,,211.84023558862094,[],"[683, 384]",ColorTask,47.0,9.0,,,HRV,HRV_0217,2022-11-30 19:07:04
,wl-rdm,126,355569,0.0-8.9-0.9,1.0,127.0,,,,,,,[],,,,,,87.9,0.0,u,0.0,True,756.9000000953674,46.0,60.0,40.0,False,,268.1464850986539,[],"[683, 384]",ColorTask,48.0,10.0,,,HRV,HRV_0217,2022-11-30 19:07:04
,wl-rdm,127,357917,0.0-8.10-0.10,1.0,128.0,,,,,,,[],,,,,,73.6,0.0,u,0.0,True,872.2000000476837,53.0,60.0,40.0,False,,397.39713451861246,[],"[683, 384]",ColorTask,49.0,11.0,,,HRV,HRV_0217,2022-11-30 19:07:04
,wl-rdm,128,360031,0.0-8.11-0.11,1.0,129.0,,,,,,,[],,,,,,62.5,0.0,u,0.0,True,813.7000000476837,49.0,60.0,40.0,False,,229.1180586763754,[],"[683, 384]",ColorTask,50.0,12.0,,,HRV,HRV_0217,2022-11-30 19:07:04
,wl-rdm,129,362212,0.0-8.12-0.12,1.0,130.0,,,,,,,[],,,,,,73.6,0.0,u,0.0,True,854.7000002861023,48.0,60.0,40.0,False,,233.13049315745246,[],"[683, 384]",ColorTask,51.0,13.0,,,HRV,HRV_0217,2022-11-30 19:07:04
,wl-rdm,130,364594,0.0-8.13-0.13,1.0,131.0,,,,,,,[],,,,,,53.2,1.0,u,0.0,False,1058.8000001907349,55.0,60.0,40.0,False,,234.69944852176138,[],"[683, 384]",ColorTask,50.0,14.0,,,HRV,HRV_0217,2022-11-30 19:07:04
,wl-rdm,131,366479,0.0-8.14-0.14,1.0,132.0,,,,,,,[],,,,,,73.6,1.0,i,1.0,True,601.8000001907349,35.0,60.0,40.0,False,,215.9118644924979,[],"[683, 384]",ColorTask,51.0,15.0,,,HRV,HRV_0217,2022-11-30 19:07:04
,wl-rdm,132,368758,0.0-8.15-0.15,1.0,133.0,,,,,,,[],,,,,,62.5,0.0,i,1.0,False,859.2000002861023,52.0,60.0,40.0,False,,339.3741735731935,[],"[683, 384]",ColorTask,50.0,16.0,,,HRV,HRV_0217,2022-11-30 19:07:04
,wl-rdm,133,370888,0.0-8.16-0.16,1.0,134.0,,,,,,,[],,,,,,87.9,0.0,u,0.0,True,819.8999998569489,44.0,60.0,40.0,False,,243.76932830943613,[],"[683, 384]",ColorTask,51.0,17.0,,,HRV,HRV_0217,2022-11-30 19:07:04
,wl-rdm,134,373319,0.0-8.17-0.17,1.0,135.0,,,,,,,[],,,,,,62.5,0.0,u,0.0,True,1103.9000000953674,67.0,60.0,40.0,False,,243.82218783967653,[],"[683, 384]",ColorTask,52.0,18.0,,,HRV,HRV_0217,2022-11-30 19:07:04
,wl-rdm,135,375551,0.0-8.18-0.18,1.0,136.0,,,,,,,[],,,,,,73.6,0.0,u,0.0,True,905.6000001430511,55.0,60.0,40.0,False,,234.52073864781585,[],"[683, 384]",ColorTask,53.0,19.0,,,HRV,HRV_0217,2022-11-30 19:07:04
,wl-rdm,136,377698,0.0-8.19-0.19,1.0,137.0,,,,,,,[],,,,,,87.9,1.0,i,1.0,True,673.8000001907349,41.0,60.0,40.0,False,,393.57212249493494,[],"[683, 384]",ColorTask,54.0,20.0,,,HRV,HRV_0217,2022-11-30 19:07:04
,wl-rdm,137,379647,0.0-8.20-0.20,1.0,138.0,,,,,,,[],,,,,,62.5,1.0,i,1.0,True,579.5,35.0,60.0,40.0,False,,291.9759190590389,[],"[683, 384]",ColorTask,55.0,21.0,,,HRV,HRV_0217,2022-11-30 19:07:04
,wl-rdm,138,382027,0.0-8.21-0.21,1.0,139.0,,,,,,,[],,,,,,62.5,0.0,u,0.0,True,1049.2999999523163,63.0,60.0,40.0,False,,259.1354337869691,[],"[683, 384]",ColorTask,56.0,22.0,,,HRV,HRV_0217,2022-11-30 19:07:04
,wl-rdm,139,384125,0.0-8.22-0.22,1.0,140.0,,,,,,,[],,,,,,73.6,1.0,i,1.0,True,755.0,46.0,60.0,40.0,False,,250.85631056536602,[],"[683, 384]",ColorTask,57.0,23.0,,,HRV,HRV_0217,2022-11-30 19:07:04
,wl-rdm,140,386190,0.0-8.23-0.23,1.0,141.0,,,,,,,[],,,,,,53.2,1.0,i,1.0,True,613.2000000476837,37.0,60.0,40.0,False,,371.96482851781485,[],"[683, 384]",ColorTask,58.0,24.0,,,HRV,HRV_0217,2022-11-30 19:07:04
,wl-rdm,141,388171,0.0-8.24-0.24,1.0,142.0,,,,,,,[],,,,,,62.5,1.0,i,1.0,True,618.5999999046326,38.0,60.0,40.0,False,,275.63230319214153,[],"[683, 384]",ColorTask,59.0,25.0,,,HRV,HRV_0217,2022-11-30 19:07:04
,wl-rdm,142,390558,0.0-8.25-0.25,1.0,143.0,,,,,,,[],,,,,,50.0,0.0,u,0.0,True,889.4000000953674,54.0,60.0,40.0,False,,367.7540075413322,[],"[683, 384]",ColorTask,60.0,26.0,,,HRV,HRV_0217,2022-11-30 19:07:04
,wl-rdm,143,393166,0.0-8.26-0.26,1.0,144.0,,,,,,,[],,,,,,56.4,1.0,i,1.0,True,1275.6000001430511,77.0,60.0,40.0,False,,238.79366063453034,[],"[683, 384]",ColorTask,61.0,27.0,,,HRV,HRV_0217,2022-11-30 19:07:04
,wl-rdm,144,395282,0.0-8.27-0.27,1.0,145.0,,,,,,,[],,,,,,87.9,0.0,u,0.0,True,640.6000001430511,39.0,60.0,40.0,False,,392.55811872251877,[],"[683, 384]",ColorTask,62.0,28.0,,,HRV,HRV_0217,2022-11-30 19:07:04
,wl-rdm,145,397313,0.0-8.28-0.28,1.0,146.0,,,,,,,[],,,,,,73.6,1.0,i,1.0,True,692.5000002384186,42.0,60.0,40.0,False,,264.79167028721724,[],"[683, 384]",ColorTask,63.0,29.0,,,HRV,HRV_0217,2022-11-30 19:07:04
,wl-rdm,146,399333,0.0-8.29-0.29,1.0,147.0,,,,,,,[],,,,,,53.2,1.0,i,1.0,True,675.7000000476837,41.0,60.0,40.0,False,,277.73088644838884,[],"[683, 384]",ColorTask,64.0,30.0,,,HRV,HRV_0217,2022-11-30 19:07:04
,wl-rdm,147,401359,0.0-8.30-0.30,1.0,148.0,,,,,,,[],,,,,,50.0,1.0,i,1.0,True,730.8999998569489,40.0,60.0,40.0,False,,222.596269644767,[],"[683, 384]",ColorTask,65.0,31.0,,,HRV,HRV_0217,2022-11-30 19:07:04
,wl-rdm,148,403390,0.0-8.31-0.31,1.0,149.0,,,,,,,[],,,,,,53.2,0.0,i,1.0,False,645.4000000953674,39.0,60.0,40.0,False,,313.10411285403893,[],"[683, 384]",ColorTask,64.0,32.0,,,HRV,HRV_0217,2022-11-30 19:07:04
,wl-rdm,149,405456,0.0-8.32-0.32,1.0,150.0,,,,,,,[],,,,,,50.0,0.0,u,0.0,True,631.3999998569489,38.0,60.0,40.0,False,,354.77768860522576,[],"[683, 384]",ColorTask,65.0,33.0,,,HRV,HRV_0217,2022-11-30 19:07:04
,wl-rdm,150,408704,0.0-8.33-0.33,1.0,151.0,,,,,,,[],,,,,,53.2,0.0,i,1.0,False,1794.7999999523163,99.0,60.0,40.0,False,,377.6156279414721,[],"[683, 384]",ColorTask,64.0,34.0,,,HRV,HRV_0217,2022-11-30 19:07:04
,wl-rdm,151,410700,0.0-8.34-0.34,1.0,152.0,,,,,,,[],,,,,,56.4,1.0,i,1.0,True,609.2999999523163,37.0,60.0,40.0,False,,313.9609173517519,[],"[683, 384]",ColorTask,65.0,35.0,,,HRV,HRV_0217,2022-11-30 19:07:04
,wl-rdm,152,412831,0.0-8.35-0.35,1.0,153.0,,,,,,,[],,,,,,56.4,0.0,u,0.0,True,823.7999999523163,50.0,60.0,40.0,False,,229.4116900233408,[],"[683, 384]",ColorTask,66.0,36.0,,,HRV,HRV_0217,2022-11-30 19:07:04
,wl-rdm,153,414996,0.0-8.36-0.36,1.0,154.0,,,,,,,[],,,,,,56.4,0.0,u,0.0,True,864.5,51.0,60.0,40.0,False,,227.03057267570168,[],"[683, 384]",ColorTask,67.0,37.0,,,HRV,HRV_0217,2022-11-30 19:07:04
,wl-rdm,154,416910,0.0-8.37-0.37,1.0,155.0,,,,,,,[],,,,,,87.9,1.0,i,1.0,True,563.0999999046326,34.0,60.0,40.0,False,,278.25436902116985,[],"[683, 384]",ColorTask,68.0,38.0,,,HRV,HRV_0217,2022-11-30 19:07:04
,wl-rdm,155,419243,0.0-8.38-0.38,1.0,156.0,,,,,,,[],,,,,,50.0,0.0,u,0.0,True,922.0,56.0,60.0,40.0,False,,320.8032981081381,[],"[683, 384]",ColorTask,69.0,39.0,,,HRV,HRV_0217,2022-11-30 19:07:04
,wl-rdm,156,421123,0.0-8.39-0.39,1.0,157.0,,,,,,,[],,,,,,87.9,0.0,u,0.0,True,578.9000000953674,35.0,60.0,40.0,False,,223.2367105602605,[],"[683, 384]",ColorTask,70.0,40.0,,,HRV,HRV_0217,2022-11-30 19:07:04
,wl-rdm,157,423138,0.0-8.40-0.40,1.0,158.0,,,,,,,[],,,,,,73.6,1.0,i,1.0,True,537.0999999046326,33.0,60.0,40.0,False,,395.2987143676272,[],"[683, 384]",ColorTask,71.0,41.0,,,HRV,HRV_0217,2022-11-30 19:07:04
,wl-rdm,158,425119,0.0-8.41-0.41,1.0,159.0,,,,,,,[],,,,,,87.9,0.0,u,0.0,True,708.0999999046326,43.0,60.0,40.0,False,,207.82734470347492,[],"[683, 384]",ColorTask,72.0,42.0,,,HRV,HRV_0217,2022-11-30 19:07:04
,wl-rdm,159,427452,0.0-8.42-0.42,1.0,160.0,,,,,,,[],,,,,,56.4,0.0,u,0.0,True,891.0000002384186,54.0,60.0,40.0,False,,357.4064141348509,[],"[683, 384]",ColorTask,73.0,43.0,,,HRV,HRV_0217,2022-11-30 19:07:04
,wl-rdm,160,429599,0.0-8.43-0.43,1.0,161.0,,,,,,,[],,,,,,56.4,1.0,i,1.0,True,780.5,47.0,60.0,40.0,False,,291.17352948065195,[],"[683, 384]",ColorTask,74.0,44.0,,,HRV,HRV_0217,2022-11-30 19:07:04
,wl-rdm,161,432149,0.0-8.44-0.44,1.0,162.0,,,,,,,[],,,,,,50.0,0.0,u,0.0,True,1090.7000000476837,66.0,60.0,40.0,False,,381.91549199338306,[],"[683, 384]",ColorTask,75.0,45.0,,,HRV,HRV_0217,2022-11-30 19:07:04
,wl-rdm,162,434411,0.0-8.45-0.45,1.0,163.0,,,,,,,[],,,,,,50.0,1.0,u,0.0,False,821.4000000953674,49.0,60.0,40.0,False,,362.8520766576195,[],"[683, 384]",ColorTask,74.0,46.0,,,HRV,HRV_0217,2022-11-30 19:07:04
,wl-rdm,163,436642,0.0-8.46-0.46,1.0,164.0,,,,,,,[],,,,,,62.5,0.0,u,0.0,True,876.7000000476837,53.0,60.0,40.0,False,,279.2303459630485,[],"[683, 384]",ColorTask,75.0,47.0,,,HRV,HRV_0217,2022-11-30 19:07:04
,wl-rdm,164,438490,0.0-8.47-0.47,1.0,165.0,,,,,,,[],,,,,,73.6,1.0,i,1.0,True,479.0,29.0,60.0,40.0,False,,288.07308561778814,[],"[683, 384]",ColorTask,76.0,48.0,,,HRV,HRV_0217,2022-11-30 19:07:04
,wl-rdm,165,441188,0.0-8.48-0.48,1.0,166.0,,,,,,,[],,,,,,50.0,1.0,u,0.0,False,1276.7000000476837,77.0,60.0,40.0,False,,335.0734192195458,[],"[683, 384]",ColorTask,75.0,49.0,,,HRV,HRV_0217,2022-11-30 19:07:04
,wl-rdm,166,443186,0.0-8.49-0.49,1.0,167.0,,,,,,,[],,,,,,62.5,1.0,i,1.0,True,676.1999998092651,41.0,60.0,40.0,False,,234.31505003158014,[],"[683, 384]",ColorTask,76.0,50.0,,,HRV,HRV_0217,2022-11-30 19:07:04
,wl-rdm,167,444984,0.0-8.50-0.50,1.0,168.0,,,,,,,[],,,,,,73.6,1.0,i,1.0,True,480.0,28.0,60.0,40.0,False,,244.45955730465369,[],"[683, 384]",ColorTask,77.0,51.0,,,HRV,HRV_0217,2022-11-30 19:07:04
,wl-rdm,168,446833,0.0-8.51-0.51,1.0,169.0,,,,,,,[],,,,,,73.6,1.0,i,1.0,True,498.19999980926514,30.0,60.0,40.0,False,,267.40452236282914,[],"[683, 384]",ColorTask,78.0,52.0,,,HRV,HRV_0217,2022-11-30 19:07:04
,wl-rdm,169,448848,0.0-8.52-0.52,1.0,170.0,,,,,,,[],,,,,,53.2,1.0,i,1.0,True,552.1999998092651,30.0,60.0,40.0,False,,385.2224696531952,[],"[683, 384]",ColorTask,79.0,53.0,,,HRV,HRV_0217,2022-11-30 19:07:04
,wl-rdm,170,451529,0.0-8.53-0.53,1.0,171.0,,,,,,,[],,,,,,56.4,0.0,i,1.0,False,1345.3999996185303,76.0,60.0,40.0,False,,252.51300138885335,[],"[683, 384]",ColorTask,78.0,54.0,,,HRV,HRV_0217,2022-11-30 19:07:04
,wl-rdm,171,453793,0.0-8.54-0.54,1.0,172.0,,,,,,,[],,,,,,73.6,0.0,u,0.0,True,888.1999998092651,54.0,60.0,40.0,False,,297.23337786858895,[],"[683, 384]",ColorTask,79.0,55.0,,,HRV,HRV_0217,2022-11-30 19:07:04
,wl-rdm,172,456257,0.0-8.55-0.55,1.0,173.0,,,,,,,[],,,,,,50.0,1.0,u,0.0,False,1141.4000000953674,69.0,60.0,40.0,False,,244.45851839707677,[],"[683, 384]",ColorTask,78.0,56.0,,,HRV,HRV_0217,2022-11-30 19:07:04
,wl-rdm,173,458372,0.0-8.56-0.56,1.0,174.0,,,,,,,[],,,,,,50.0,0.0,i,1.0,False,674.7000002861023,41.0,60.0,40.0,False,,366.09144299443466,[],"[683, 384]",ColorTask,77.0,57.0,,,HRV,HRV_0217,2022-11-30 19:07:04
,wl-rdm,174,460321,0.0-8.57-0.57,1.0,175.0,,,,,,,[],,,,,,53.2,0.0,i,1.0,False,556.0,35.0,60.0,40.0,False,,293.7827799575607,[],"[683, 384]",ColorTask,76.0,58.0,,,HRV,HRV_0217,2022-11-30 19:07:04
,wl-rdm,175,462451,0.0-8.58-0.58,1.0,176.0,,,,,,,[],,,,,,56.4,0.0,u,0.0,True,741.9000000953674,45.0,60.0,40.0,False,,307.14423639327475,[],"[683, 384]",ColorTask,77.0,59.0,,,HRV,HRV_0217,2022-11-30 19:07:04
,wl-rdm,176,464649,0.0-8.59-0.59,1.0,177.0,,,,,,,[],,,,,,53.2,0.0,u,0.0,True,913.8999998569489,49.0,60.0,40.0,False,,214.00052529759267,[],"[683, 384]",ColorTask,78.0,60.0,,,HRV,HRV_0217,2022-11-30 19:07:04
,wl-rdm,177,466464,0.0-8.60-0.60,1.0,178.0,,,,,,,[],,,,,,56.4,1.0,i,1.0,True,527.2999999523163,27.0,60.0,40.0,False,,210.5205783867679,[],"[683, 384]",ColorTask,79.0,61.0,,,HRV,HRV_0217,2022-11-30 19:07:04
,wl-rdm,178,468396,0.0-8.61-0.61,1.0,179.0,,,,,,,[],,,,,,56.4,1.0,i,1.0,True,620.7999999523163,38.0,60.0,40.0,False,,225.15579031257334,[],"[683, 384]",ColorTask,80.0,62.0,,,HRV,HRV_0217,2022-11-30 19:07:04
,wl-rdm,179,470893,0.0-8.62-0.62,1.0,180.0,,,,,,,[],,,,,,62.5,0.0,i,1.0,False,1158.7000000476837,65.0,60.0,40.0,False,,264.69309905272667,[],"[683, 384]",ColorTask,79.0,63.0,,,HRV,HRV_0217,2022-11-30 19:07:04
,wl-rdm,180,473008,0.0-8.63-0.63,1.0,181.0,,,,,,,[],,,,,,62.5,1.0,i,1.0,True,660.8000001907349,40.0,60.0,40.0,False,,321.9967794399023,[],"[683, 384]",ColorTask,80.0,64.0,,,HRV,HRV_0217,2022-11-30 19:07:04
,wl-rdm,181,474890,0.0-8.64-0.64,1.0,182.0,,,,,,,[],,,,,,87.9,1.0,i,1.0,True,504.0000002384186,31.0,60.0,40.0,False,,287.10821766876757,[],"[683, 384]",ColorTask,81.0,65.0,,,HRV,HRV_0217,2022-11-30 19:07:04
,wl-rdm,182,476808,0.0-8.65-0.65,1.0,183.0,,,,,,,[],,,,,,87.9,1.0,i,1.0,True,470.0,28.0,60.0,40.0,False,,381.2987220832988,[],"[683, 384]",ColorTask,82.0,66.0,,,HRV,HRV_0217,2022-11-30 19:07:04
,wl-rdm,183,479203,0.0-8.66-0.66,1.0,184.0,,,,,,,[],,,,,,56.4,0.0,u,0.0,True,987.6000001430511,60.0,60.0,40.0,False,,300.3308284821947,[],"[683, 384]",ColorTask,83.0,67.0,,,HRV,HRV_0217,2022-11-30 19:07:04
,wl-rdm,184,481200,0.0-8.67-0.67,1.0,185.0,,,,,,,[],,,,,,73.6,0.0,u,0.0,True,712.3999998569489,43.0,60.0,40.0,False,,212.15552975943652,[],"[683, 384]",ColorTask,84.0,68.0,,,HRV,HRV_0217,2022-11-30 19:07:04
,wl-rdm,185,483281,0.0-8.68-0.68,1.0,186.0,,,,,,,[],,,,,,50.0,0.0,u,0.0,True,676.9000000953674,41.0,60.0,40.0,False,,317.95432614079425,[],"[683, 384]",ColorTask,85.0,69.0,,,HRV,HRV_0217,2022-11-30 19:07:04
,wl-rdm,186,485014,0.0-8.69-0.69,1.0,187.0,,,,,,,[],,,,,,53.2,1.0,i,1.0,True,447.7999999523163,27.0,60.0,40.0,False,,205.4725406869391,[],"[683, 384]",ColorTask,86.0,70.0,,,HRV,HRV_0217,2022-11-30 19:07:04
,wl-rdm,187,486878,0.0-8.70-0.70,1.0,188.0,,,,,,,[],,,,,,73.6,1.0,i,1.0,True,503.7999999523163,31.0,60.0,40.0,False,,274.7282172640064,[],"[683, 384]",ColorTask,87.0,71.0,,,HRV,HRV_0217,2022-11-30 19:07:04
,wl-rdm,188,488660,0.0-8.71-0.71,1.0,189.0,,,,,,,[],,,,,,53.2,1.0,i,1.0,True,479.09999990463257,29.0,60.0,40.0,False,,224.96373707293031,[],"[683, 384]",ColorTask,88.0,72.0,,,HRV,HRV_0217,2022-11-30 19:07:04
,wl-rdm,189,491475,0.0-8.72-0.72,1.0,190.0,,,,,,,[],,,,,,62.5,0.0,u,0.0,True,1420.1000001430511,82.0,60.0,40.0,False,,312.66870851037356,[],"[683, 384]",ColorTask,89.0,73.0,,,HRV,HRV_0217,2022-11-30 19:07:04
,wl-rdm,190,493288,0.0-8.73-0.73,1.0,191.0,,,,,,,[],,,,,,87.9,1.0,i,1.0,True,525.1999998092651,32.0,60.0,40.0,False,,215.39331612642277,[],"[683, 384]",ColorTask,90.0,74.0,,,HRV,HRV_0217,2022-11-30 19:07:04
,wl-rdm,191,495736,0.0-8.74-0.74,1.0,192.0,,,,,,,[],,,,,,56.4,0.0,u,0.0,True,1020.5999999046326,58.0,60.0,40.0,False,,340.67776881712933,[],"[683, 384]",ColorTask,91.0,75.0,,,HRV,HRV_0217,2022-11-30 19:07:04
,wl-rdm,192,497886,0.0-8.75-0.75,1.0,193.0,,,,,,,[],,,,,,50.0,0.0,i,1.0,False,689.4999997615814,42.0,60.0,40.0,False,,375.38573326645485,[],"[683, 384]",ColorTask,90.0,76.0,,,HRV,HRV_0217,2022-11-30 19:07:04
,wl-rdm,193,499799,0.0-8.76-0.76,1.0,194.0,,,,,,,[],,,,,,73.6,0.0,i,1.0,False,497.2999999523163,30.0,60.0,40.0,False,,345.33785750218925,[],"[683, 384]",ColorTask,89.0,77.0,,,HRV,HRV_0217,2022-11-30 19:07:04
,wl-rdm,194,501830,0.0-8.77-0.77,1.0,195.0,,,,,,,[],,,,,,50.0,1.0,u,0.0,False,696.7999999523163,38.0,60.0,40.0,False,,261.1904073638009,[],"[683, 384]",ColorTask,88.0,78.0,,,HRV,HRV_0217,2022-11-30 19:07:04
,wl-rdm,195,504178,0.0-8.78-0.78,1.0,196.0,,,,,,,[],,,,,,56.4,1.0,i,1.0,True,1008.3999998569489,56.0,60.0,40.0,False,,280.26530047480094,[],"[683, 384]",ColorTask,89.0,79.0,,,HRV,HRV_0217,2022-11-30 19:07:04
,wl-rdm,196,506331,0.0-8.79-0.79,1.0,197.0,,,,,,,[],,,,,,87.9,0.0,i,1.0,False,713.7999997138977,43.0,60.0,40.0,False,,355.1872311145509,[],"[683, 384]",ColorTask,88.0,80.0,,,HRV,HRV_0217,2022-11-30 19:07:04
,wl-rdm,197,508476,0.0-8.80-0.80,1.0,198.0,,,,,,,[],,,,,,53.2,1.0,i,1.0,True,878.8000001907349,53.0,60.0,40.0,False,,202.32182610619176,[],"[683, 384]",ColorTask,89.0,81.0,,,HRV,HRV_0217,2022-11-30 19:07:04
,wl-rdm,198,511238,0.0-8.81-0.81,1.0,199.0,,,,,,,[],,,,,,50.0,1.0,u,0.0,False,1446.0999999046326,87.0,60.0,40.0,False,,238.42742163036914,[],"[683, 384]",ColorTask,88.0,82.0,,,HRV,HRV_0217,2022-11-30 19:07:04
,wl-rdm,199,513169,0.0-8.82-0.82,1.0,200.0,,,,,,,[],,,,,,56.4,1.0,i,1.0,True,620.5000002384186,38.0,60.0,40.0,False,,206.53668524501643,[],"[683, 384]",ColorTask,89.0,83.0,,,HRV,HRV_0217,2022-11-30 19:07:04
,wl-rdm,200,515068,0.0-8.83-0.83,1.0,201.0,,,,,,,[],,,,,,53.2,0.0,i,1.0,False,555.3999998569489,34.0,60.0,40.0,False,,277.4357100752884,[],"[683, 384]",ColorTask,88.0,84.0,,,HRV,HRV_0217,2022-11-30 19:07:04
,wl-rdm,201,517166,0.0-8.84-0.84,1.0,202.0,,,,,,,[],,,,,,87.9,1.0,i,1.0,True,631.8000001907349,38.0,60.0,40.0,False,,382.09471775013805,[],"[683, 384]",ColorTask,89.0,85.0,,,HRV,HRV_0217,2022-11-30 19:07:04
,wl-rdm,202,519814,0.0-8.85-0.85,1.0,203.0,,,,,,,[],,,,,,62.5,0.0,u,0.0,True,948.6999998092651,57.0,60.0,40.0,False,,270.1246625876722,[],"[683, 384]",ColorTask,90.0,86.0,,,HRV,HRV_0217,2022-11-30 19:07:04
,wl-rdm,203,522145,0.0-8.86-0.86,1.0,204.0,,,,,,,[],,,,,,50.0,1.0,u,0.0,False,1045.5000002384186,62.0,60.0,40.0,False,,208.01126476204797,[],"[683, 384]",ColorTask,89.0,87.0,,,HRV,HRV_0217,2022-11-30 19:07:04
,wl-rdm,204,524176,0.0-8.87-0.87,1.0,205.0,,,,,,,[],,,,,,87.9,0.0,u,0.0,True,656.4000000953674,19.0,60.0,40.0,False,,293.4364641632579,[],"[683, 384]",ColorTask,90.0,88.0,,,HRV,HRV_0217,2022-11-30 19:07:04
,wl-rdm,205,526525,0.0-8.88-0.88,1.0,206.0,,,,,,,[],,,,,,50.0,1.0,i,1.0,True,910.7999999523163,55.0,60.0,40.0,False,,362.7216164773431,[],"[683, 384]",ColorTask,91.0,89.0,,,HRV,HRV_0217,2022-11-30 19:07:04
,wl-rdm,206,528372,0.0-8.89-0.89,1.0,207.0,,,,,,,[],,,,,,87.9,1.0,i,1.0,True,508.7000000476837,31.0,60.0,40.0,False,,257.1560827728345,[],"[683, 384]",ColorTask,92.0,90.0,,,HRV,HRV_0217,2022-11-30 19:07:04
,wl-rdm,207,530336,0.0-8.90-0.90,1.0,208.0,,,,,,,[],,,,,,50.0,0.0,i,1.0,False,555.2000000476837,34.0,60.0,40.0,False,,331.70349560597356,[],"[683, 384]",ColorTask,91.0,91.0,,,HRV,HRV_0217,2022-11-30 19:07:04
,wl-rdm,208,532468,0.0-8.91-0.91,1.0,209.0,,,,,,,[],,,,,,56.4,1.0,i,1.0,True,774.0000002384186,43.0,60.0,40.0,False,,297.8531687376918,[],"[683, 384]",ColorTask,92.0,92.0,,,HRV,HRV_0217,2022-11-30 19:07:04
,wl-rdm,209,534485,0.0-8.92-0.92,1.0,210.0,,,,,,,[],,,,,,62.5,1.0,i,1.0,True,687.7999999523163,42.0,60.0,40.0,False,,249.08349574696408,[],"[683, 384]",ColorTask,93.0,93.0,,,HRV,HRV_0217,2022-11-30 19:07:04
,wl-rdm,210,536732,0.0-8.93-0.93,1.0,211.0,,,,,,,[],,,,,,53.2,0.0,u,0.0,True,858.3999998569489,52.0,60.0,40.0,False,,315.8881975247748,[],"[683, 384]",ColorTask,94.0,94.0,,,HRV,HRV_0217,2022-11-30 19:07:04
,wl-rdm,211,538997,0.0-8.94-0.94,1.0,212.0,,,,,,,[],,,,,,53.2,0.0,u,0.0,True,995.2999999523163,60.0,60.0,40.0,False,,200.54873253695493,[],"[683, 384]",ColorTask,95.0,95.0,,,HRV,HRV_0217,2022-11-30 19:07:04
,wl-rdm,212,542492,0.0-8.95-0.95,1.0,213.0,,,,,,,[],,,,,,53.2,1.0,i,1.0,True,2148.800000190735,129.0,60.0,40.0,False,,258.7590042104883,[],"[683, 384]",ColorTask,96.0,96.0,,,HRV,HRV_0217,2022-11-30 19:07:04
,wl-rdm,213,544873,0.0-8.96-0.96,1.0,214.0,,,,,,,[],,,,,,87.9,0.0,u,0.0,True,994.1000001430511,59.0,60.0,40.0,False,,313.0611792390977,[],"[683, 384]",ColorTask,97.0,97.0,,,HRV,HRV_0217,2022-11-30 19:07:04
,wl-rdm,214,546937,0.0-8.97-0.97,1.0,215.0,,,,,,,[],,,,,,62.5,1.0,i,1.0,True,707.0999999046326,43.0,60.0,40.0,False,,272.8556542395047,[],"[683, 384]",ColorTask,98.0,98.0,,,HRV,HRV_0217,2022-11-30 19:07:04
,wl-rdm,215,549019,0.0-8.98-0.98,1.0,216.0,,,,,,,[],,,,,,73.6,0.0,u,0.0,True,729.2000000476837,43.0,60.0,40.0,False,,269.9838791345056,[],"[683, 384]",ColorTask,99.0,99.0,,,HRV,HRV_0217,2022-11-30 19:07:04
,wl-rdm,216,551134,0.0-8.99-0.99,1.0,217.0,,,,,,,[],,,,,,50.0,1.0,u,0.0,False,797.0999999046326,48.0,60.0,40.0,False,,236.78030999249938,[],"[683, 384]",ColorTask,98.0,100.0,,,HRV,HRV_0217,2022-11-30 19:07:04
,wl-rdm,217,553484,0.0-8.100-0.100,1.0,218.0,,,,,,,[],,,,,,56.4,0.0,u,0.0,True,873.3999998569489,47.0,60.0,40.0,False,,261.94027191721716,[],"[683, 384]",ColorTask,99.0,101.0,,,HRV,HRV_0217,2022-11-30 19:07:04
,wl-rdm,218,555746,0.0-8.101-0.101,1.0,219.0,,,,,,,[],,,,,,73.6,0.0,u,0.0,True,875.5000002384186,53.0,60.0,40.0,False,,310.3272731198119,[],"[683, 384]",ColorTask,100.0,102.0,,,HRV,HRV_0217,2022-11-30 19:07:04
,wl-rdm,219,557695,0.0-8.102-0.102,1.0,220.0,,,,,,,[],,,,,,73.6,0.0,i,1.0,False,621.2000000476837,38.0,60.0,40.0,False,,240.4658539570227,[],"[683, 384]",ColorTask,99.0,103.0,,,HRV,HRV_0217,2022-11-30 19:07:04
,wl-rdm,220,559692,0.0-8.103-0.103,1.0,221.0,,,,,,,[],,,,,,53.2,0.0,u,0.0,True,709.7000000476837,34.0,60.0,40.0,False,,207.4681494858313,[],"[683, 384]",ColorTask,100.0,104.0,,,HRV,HRV_0217,2022-11-30 19:07:04
,wl-rdm,221,561881,0.0-8.104-0.104,1.0,222.0,,,,,,,[],,,,,,62.5,1.0,u,0.0,False,904.4000000953674,55.0,60.0,40.0,False,,206.82797742594983,[],"[683, 384]",ColorTask,99.0,105.0,,,HRV,HRV_0217,2022-11-30 19:07:04
,wl-rdm,222,563873,0.0-8.105-0.105,1.0,223.0,,,,,,,[],,,,,,50.0,0.0,i,1.0,False,641.1000001430511,38.0,60.0,40.0,False,,272.82972332948384,[],"[683, 384]",ColorTask,98.0,106.0,,,HRV,HRV_0217,2022-11-30 19:07:04
,wl-rdm,223,565725,0.0-8.106-0.106,1.0,224.0,,,,,,,[],,,,,,53.2,0.0,u,0.0,True,429.60000014305115,26.0,60.0,40.0,False,,366.429765840718,[],"[683, 384]",ColorTask,99.0,107.0,,,HRV,HRV_0217,2022-11-30 19:07:04
,wl-rdm,224,567520,0.0-8.107-0.107,1.0,225.0,,,,,,,[],,,,,,73.6,1.0,u,0.0,False,520.1999998092651,32.0,60.0,40.0,False,,205.9316691053199,[],"[683, 384]",ColorTask,98.0,108.0,,,HRV,HRV_0217,2022-11-30 19:07:04
,wl-html-button-response,225,569598,0.0-9.0-0.0,,,,,,,,,,2059.0999999046326,,0,,,,,,,,,,,,,,,,,,,,<h3>End of this session. Thank you!</h3><br>,['Close window'],HRV,HRV_0217,2022-11-30 19:07:04
