trialN,stimuli,trialStartTime,trialStartTime_UNIX,stimulus1,stimulus2,stimulus1Bid,stimulus2Bid,delta,selected,rt,rt_UNIX,rt_perfnow,receivedResponse,rsp,trialEndTime,trialDuration,trialEndTime_UNIX,trialDuration_UNIX,exp,subjectId,date
0,"[{'imgObject': {}, 'id': 'blueberries', 'src': '/static/foodstim60/blueberries.jpg', 'key': 'u', 'origWidth': 411, 'origHeight': 411, 'width': 411, 'height': 411, 'widthPercent': 0.45, 'rescaleHeight': False, 'trialN': 0, 'loaded': True, 'loadedTime': 3268.300000011921, 'positionName': 'LEFT', 'positionCoords': [510.6, 334.5], 'bid': 7.17}, {'imgObject': {}, 'id': 'cheerios', 'src': '/static/foodstim60/cheerios.jpg', 'key': 'i', 'origWidth': 409, 'origHeight': 410, 'width': 409, 'height': 410, 'widthPercent': 0.45, 'rescaleHeight': False, 'trialN': 0, 'loaded': True, 'loadedTime': 3325.5999999940395, 'positionName': 'RIGHT', 'positionCoords': [998.4, 335], 'bid': 4.92}]",3584.199999988079,1669839141039,blueberries,cheerios,7.17,4.92,-2.25,blueberries,1774.9000000059605,1776,1775.800000011921,True,u,5873.4000000059605,2289.2000000178814,1669839143328,2289,HRV,HRV_0278,2022-11-30 20:18:36
1,"[{'imgObject': {}, 'id': 'shreddedwheatwithmilk', 'src': '/static/foodstim60/shreddedwheatwithmilk.jpg', 'key': 'u', 'origWidth': 410, 'origHeight': 410, 'width': 410, 'height': 410, 'widthPercent': 0.45, 'rescaleHeight': False, 'trialN': 1, 'loaded': True, 'loadedTime': 3327.4000000059605, 'positionName': 'LEFT', 'positionCoords': [511.6, 335], 'bid': 4.93}, {'imgObject': {}, 'id': 'lox', 'src': '/static/foodstim60/lox.jpg', 'key': 'i', 'origWidth': 410, 'origHeight': 411, 'width': 410, 'height': 411, 'widthPercent': 0.45, 'rescaleHeight': False, 'trialN': 1, 'loaded': True, 'loadedTime': 3300, 'positionName': 'RIGHT', 'positionCoords': [998.4, 334.5], 'bid': 0}]",5873.800000011921,1669839143329,shreddedwheatwithmilk,lox,4.93,0.0,-4.93,shreddedwheatwithmilk,985.1999999880791,985,985.7999999821186,True,u,7376.0999999940395,1502.2999999821186,1669839144831,1502,HRV,HRV_0278,2022-11-30 20:18:36
2,"[{'imgObject': {}, 'id': 'mashed potato', 'src': '/static/foodstim60/mashed potato.jpg', 'key': 'u', 'origWidth': 409, 'origHeight': 409, 'width': 409, 'height': 409, 'widthPercent': 0.45, 'rescaleHeight': False, 'trialN': 2, 'loaded': True, 'loadedTime': 3301.9000000059605, 'positionName': 'LEFT', 'positionCoords': [512.6, 335.5], 'bid': 9.95}, {'imgObject': {}, 'id': 'chickenfingers', 'src': '/static/foodstim60/chickenfingers.jpg', 'key': 'i', 'origWidth': 410, 'origHeight': 410, 'width': 410, 'height': 410, 'widthPercent': 0.45, 'rescaleHeight': False, 'trialN': 2, 'loaded': True, 'loadedTime': 3302.4000000059605, 'positionName': 'RIGHT', 'positionCoords': [998.4, 335], 'bid': 9.38}]",7376.300000011921,1669839144831,mashed potato,chickenfingers,9.95,9.38,-0.5699999999999985,chickenfingers,1325.2999999821186,1326,1325.699999988079,True,i,9216.40000000596,1840.0999999940395,1669839146671,1840,HRV,HRV_0278,2022-11-30 20:18:36
3,"[{'imgObject': {}, 'id': 'salad w chicken', 'src': '/static/foodstim60/salad w chicken.jpg', 'key': 'u', 'origWidth': 411, 'origHeight': 411, 'width': 411, 'height': 411, 'widthPercent': 0.45, 'rescaleHeight': False, 'trialN': 3, 'loaded': True, 'loadedTime': 3330.199999988079, 'positionName': 'LEFT', 'positionCoords': [510.6, 334.5], 'bid': 10}, {'imgObject': {}, 'id': 'mac & cheese', 'src': '/static/foodstim60/mac & cheese.jpg', 'key': 'i', 'origWidth': 410, 'origHeight': 410, 'width': 410, 'height': 410, 'widthPercent': 0.45, 'rescaleHeight': False, 'trialN': 3, 'loaded': True, 'loadedTime': 3330.5, 'positionName': 'RIGHT', 'positionCoords': [998.4, 335], 'bid': 10}]",9216.699999988079,1669839146672,salad w chicken,mac & cheese,10.0,10.0,0.0,salad w chicken,917.6000000238419,918,918.1000000238419,True,u,10641.90000000596,1425.2000000178814,1669839148097,1425,HRV,HRV_0278,2022-11-30 20:18:36
4,"[{'imgObject': {}, 'id': 'popsicles', 'src': '/static/foodstim60/popsicles.jpg', 'key': 'u', 'origWidth': 410, 'origHeight': 410, 'width': 410, 'height': 410, 'widthPercent': 0.45, 'rescaleHeight': False, 'trialN': 4, 'loaded': True, 'loadedTime': 3581.9000000059605, 'positionName': 'LEFT', 'positionCoords': [511.6, 335], 'bid': 2.14}, {'imgObject': {}, 'id': 'steak', 'src': '/static/foodstim60/steak.jpg', 'key': 'i', 'origWidth': 410, 'origHeight': 410, 'width': 410, 'height': 410, 'widthPercent': 0.45, 'rescaleHeight': False, 'trialN': 4, 'loaded': True, 'loadedTime': 3332.199999988079, 'positionName': 'RIGHT', 'positionCoords': [998.4, 335], 'bid': 2.08}]",10642.199999988079,1669839148097,popsicles,steak,2.14,2.08,-0.06000000000000005,popsicles,1036.7000000178814,1037,1037.2000000178814,True,u,12180.40000000596,1538.2000000178814,1669839149635,1538,HRV,HRV_0278,2022-11-30 20:18:36
5,"[{'imgObject': {}, 'id': 'strawberries', 'src': '/static/foodstim60/strawberries.jpg', 'key': 'u', 'origWidth': 410, 'origHeight': 410, 'width': 410, 'height': 410, 'widthPercent': 0.45, 'rescaleHeight': False, 'trialN': 5, 'loaded': True, 'loadedTime': 3333.300000011921, 'positionName': 'LEFT', 'positionCoords': [511.6, 335], 'bid': 8.89}, {'imgObject': {}, 'id': 'burrito', 'src': '/static/foodstim60/burrito.jpg', 'key': 'i', 'origWidth': 410, 'origHeight': 410, 'width': 410, 'height': 410, 'widthPercent': 0.45, 'rescaleHeight': False, 'trialN': 5, 'loaded': True, 'loadedTime': 3334.0999999940395, 'positionName': 'RIGHT', 'positionCoords': [998.4, 335], 'bid': 9.85}]",12180.800000011921,1669839149636,strawberries,burrito,8.89,9.85,0.9599999999999991,burrito,928.5,929,928.8999999761581,True,i,13625.09999999404,1444.2999999821186,1669839151080,1444,HRV,HRV_0278,2022-11-30 20:18:36
6,"[{'imgObject': {}, 'id': 'corn cob', 'src': '/static/foodstim60/corn cob.jpg', 'key': 'u', 'origWidth': 411, 'origHeight': 411, 'width': 411, 'height': 411, 'widthPercent': 0.45, 'rescaleHeight': False, 'trialN': 6, 'loaded': True, 'loadedTime': 3335.300000011921, 'positionName': 'LEFT', 'positionCoords': [510.6, 334.5], 'bid': 5.0200000000000005}, {'imgObject': {}, 'id': 'hotdog w must', 'src': '/static/foodstim60/hotdog w must.jpg', 'key': 'i', 'origWidth': 409, 'origHeight': 409, 'width': 409, 'height': 409, 'widthPercent': 0.45, 'rescaleHeight': False, 'trialN': 6, 'loaded': True, 'loadedTime': 3336.199999988079, 'positionName': 'RIGHT', 'positionCoords': [998.4, 335.5], 'bid': 4.92}]",13625.5,1669839151080,corn cob,hotdog w must,5.0200000000000005,4.92,-0.10000000000000053,corn cob,1054.0999999940395,1055,1054.5,True,u,15189.199999988079,1563.699999988079,1669839152644,1564,HRV,HRV_0278,2022-11-30 20:18:36
7,"[{'imgObject': {}, 'id': 'cheerios', 'src': '/static/foodstim60/cheerios.jpg', 'key': 'u', 'origWidth': 409, 'origHeight': 410, 'width': 409, 'height': 410, 'widthPercent': 0.45, 'rescaleHeight': False, 'trialN': 7, 'loaded': True, 'loadedTime': 3314.0999999940395, 'positionName': 'LEFT', 'positionCoords': [512.6, 335], 'bid': 4.92}, {'imgObject': {}, 'id': 'Grapes', 'src': '/static/foodstim60/Grapes.jpg', 'key': 'i', 'origWidth': 411, 'origHeight': 411, 'width': 411, 'height': 411, 'widthPercent': 0.45, 'rescaleHeight': False, 'trialN': 7, 'loaded': True, 'loadedTime': 3337.5, 'positionName': 'RIGHT', 'positionCoords': [998.4, 334.5], 'bid': 8.16}]",15189.300000011921,1669839152644,cheerios,Grapes,4.92,8.16,3.24,cheerios,2038.5999999940395,2039,2038.8999999761581,True,u,17747.19999998808,2557.899999976158,1669839155202,2558,HRV,HRV_0278,2022-11-30 20:18:36
8,"[{'imgObject': {}, 'id': 'hotdog w must', 'src': '/static/foodstim60/hotdog w must.jpg', 'key': 'u', 'origWidth': 409, 'origHeight': 409, 'width': 409, 'height': 409, 'widthPercent': 0.45, 'rescaleHeight': False, 'trialN': 8, 'loaded': True, 'loadedTime': 3336.199999988079, 'positionName': 'LEFT', 'positionCoords': [512.6, 335.5], 'bid': 4.92}, {'imgObject': {}, 'id': 'edamame', 'src': '/static/foodstim60/edamame.jpg', 'key': 'i', 'origWidth': 409, 'origHeight': 410, 'width': 409, 'height': 410, 'widthPercent': 0.45, 'rescaleHeight': False, 'trialN': 8, 'loaded': True, 'loadedTime': 3338.800000011921, 'positionName': 'RIGHT', 'positionCoords': [998.4, 335], 'bid': 3.44}]",17747.5,1669839155202,hotdog w must,edamame,4.92,3.44,-1.48,hotdog w must,2814.5999999940395,2815,2815.0999999940395,True,u,21074.0,3326.5,1669839158529,3327,HRV,HRV_0278,2022-11-30 20:18:36
9,"[{'imgObject': {}, 'id': 'fruitsalad', 'src': '/static/foodstim60/fruitsalad.jpg', 'key': 'u', 'origWidth': 410, 'origHeight': 410, 'width': 410, 'height': 410, 'widthPercent': 0.45, 'rescaleHeight': False, 'trialN': 9, 'loaded': True, 'loadedTime': 3339.5999999940395, 'positionName': 'LEFT', 'positionCoords': [511.6, 335], 'bid': 8.66}, {'imgObject': {}, 'id': 'omelette', 'src': '/static/foodstim60/omelette.jpg', 'key': 'i', 'origWidth': 410, 'origHeight': 409, 'width': 410, 'height': 409, 'widthPercent': 0.45, 'rescaleHeight': False, 'trialN': 9, 'loaded': True, 'loadedTime': 3339.699999988079, 'positionName': 'RIGHT', 'positionCoords': [998.4, 335.5], 'bid': 7.98}]",21074.19999998808,1669839158529,fruitsalad,omelette,8.66,7.98,-0.6799999999999997,omelette,1571,1572,1571.7000000178814,True,i,23153.30000001192,2079.100000023842,1669839160608,2079,HRV,HRV_0278,2022-11-30 20:18:36
10,"[{'imgObject': {}, 'id': 'blueberries', 'src': '/static/foodstim60/blueberries.jpg', 'key': 'u', 'origWidth': 411, 'origHeight': 411, 'width': 411, 'height': 411, 'widthPercent': 0.45, 'rescaleHeight': False, 'trialN': 10, 'loaded': True, 'loadedTime': 3298.0999999940395, 'positionName': 'LEFT', 'positionCoords': [510.6, 334.5], 'bid': 7.17}, {'imgObject': {}, 'id': 'mac & cheese', 'src': '/static/foodstim60/mac & cheese.jpg', 'key': 'i', 'origWidth': 410, 'origHeight': 410, 'width': 410, 'height': 410, 'widthPercent': 0.45, 'rescaleHeight': False, 'trialN': 10, 'loaded': True, 'loadedTime': 3331.300000011921, 'positionName': 'RIGHT', 'positionCoords': [998.4, 335], 'bid': 10}]",23153.59999999404,1669839160609,blueberries,mac & cheese,7.17,10.0,2.83,mac & cheese,774.3000000119209,774,774.7000000178814,True,i,24447.30000001192,1293.7000000178814,1669839161902,1293,HRV,HRV_0278,2022-11-30 20:18:36
11,"[{'imgObject': {}, 'id': 'ice cream sundae 002', 'src': '/static/foodstim60/ice cream sundae 002.jpg', 'key': 'u', 'origWidth': 409, 'origHeight': 409, 'width': 409, 'height': 409, 'widthPercent': 0.45, 'rescaleHeight': False, 'trialN': 11, 'loaded': True, 'loadedTime': 3340.5999999940395, 'positionName': 'LEFT', 'positionCoords': [512.6, 335.5], 'bid': 9.88}, {'imgObject': {}, 'id': 'eggs', 'src': '/static/foodstim60/eggs.jpg', 'key': 'i', 'origWidth': 409, 'origHeight': 409, 'width': 409, 'height': 409, 'widthPercent': 0.45, 'rescaleHeight': False, 'trialN': 11, 'loaded': True, 'loadedTime': 3343, 'positionName': 'RIGHT', 'positionCoords': [998.4, 335.5], 'bid': 5.08}]",24447.59999999404,1669839161902,ice cream sundae 002,eggs,9.88,5.08,-4.800000000000001,ice cream sundae 002,1105.9000000059605,1107,1106.300000011921,True,u,26072.40000000596,1624.800000011921,1669839163527,1625,HRV,HRV_0278,2022-11-30 20:18:36
12,"[{'imgObject': {}, 'id': 'eggsalad', 'src': '/static/foodstim60/eggsalad.jpg', 'key': 'u', 'origWidth': 410, 'origHeight': 409, 'width': 410, 'height': 409, 'widthPercent': 0.45, 'rescaleHeight': False, 'trialN': 12, 'loaded': True, 'loadedTime': 3343.699999988079, 'positionName': 'LEFT', 'positionCoords': [511.6, 335.5], 'bid': 5.0600000000000005}, {'imgObject': {}, 'id': 'seaweed', 'src': '/static/foodstim60/seaweed.jpg', 'key': 'i', 'origWidth': 410, 'origHeight': 410, 'width': 410, 'height': 410, 'widthPercent': 0.45, 'rescaleHeight': False, 'trialN': 12, 'loaded': True, 'loadedTime': 3344.4000000059605, 'positionName': 'RIGHT', 'positionCoords': [998.4, 335], 'bid': 5.04}]",26072.59999999404,1669839163527,eggsalad,seaweed,5.0600000000000005,5.04,-0.020000000000000462,seaweed,1642.5,1643,1642.7000000178814,True,i,28222.40000000596,2149.800000011921,1669839165677,2150,HRV,HRV_0278,2022-11-30 20:18:36
13,"[{'imgObject': {}, 'id': 'sushi w_condiments', 'src': '/static/foodstim60/sushi w_condiments.jpg', 'key': 'u', 'origWidth': 410, 'origHeight': 410, 'width': 410, 'height': 410, 'widthPercent': 0.45, 'rescaleHeight': False, 'trialN': 13, 'loaded': True, 'loadedTime': 3346.300000011921, 'positionName': 'LEFT', 'positionCoords': [511.6, 335], 'bid': 9.94}, {'imgObject': {}, 'id': 'cherries', 'src': '/static/foodstim60/cherries.jpg', 'key': 'i', 'origWidth': 410, 'origHeight': 411, 'width': 410, 'height': 411, 'widthPercent': 0.45, 'rescaleHeight': False, 'trialN': 13, 'loaded': True, 'loadedTime': 3347.199999988079, 'positionName': 'RIGHT', 'positionCoords': [998.4, 334.5], 'bid': 8.82}]",28222.5,1669839165677,sushi w_condiments,cherries,9.94,8.82,-1.1199999999999992,cherries,1193.699999988079,1194,1194.0999999940395,True,i,29925.90000000596,1703.4000000059605,1669839167381,1704,HRV,HRV_0278,2022-11-30 20:18:36
14,"[{'imgObject': {}, 'id': 'cheerios', 'src': '/static/foodstim60/cheerios.jpg', 'key': 'u', 'origWidth': 409, 'origHeight': 410, 'width': 409, 'height': 410, 'widthPercent': 0.45, 'rescaleHeight': False, 'trialN': 14, 'loaded': True, 'loadedTime': 3314.199999988079, 'positionName': 'LEFT', 'positionCoords': [512.6, 335], 'bid': 4.92}, {'imgObject': {}, 'id': 'edamame', 'src': '/static/foodstim60/edamame.jpg', 'key': 'i', 'origWidth': 409, 'origHeight': 410, 'width': 409, 'height': 410, 'widthPercent': 0.45, 'rescaleHeight': False, 'trialN': 14, 'loaded': True, 'loadedTime': 3337.800000011921, 'positionName': 'RIGHT', 'positionCoords': [998.4, 335], 'bid': 3.44}]",29926.30000001192,1669839167381,cheerios,edamame,4.92,3.44,-1.48,cheerios,1173.699999988079,1174,1174.0,True,u,31605.5,1679.199999988079,1669839169060,1679,HRV,HRV_0278,2022-11-30 20:18:36
15,"[{'imgObject': {}, 'id': 'froot loops w milk', 'src': '/static/foodstim60/froot loops w milk.jpg', 'key': 'u', 'origWidth': 410, 'origHeight': 410, 'width': 410, 'height': 410, 'widthPercent': 0.45, 'rescaleHeight': False, 'trialN': 15, 'loaded': True, 'loadedTime': 3347.4000000059605, 'positionName': 'LEFT', 'positionCoords': [511.6, 335], 'bid': 0.03}, {'imgObject': {}, 'id': 'corn cob', 'src': '/static/foodstim60/corn cob.jpg', 'key': 'i', 'origWidth': 411, 'origHeight': 411, 'width': 411, 'height': 411, 'widthPercent': 0.45, 'rescaleHeight': False, 'trialN': 15, 'loaded': True, 'loadedTime': 3334.4000000059605, 'positionName': 'RIGHT', 'positionCoords': [998.4, 334.5], 'bid': 5.0200000000000005}]",31605.80000001192,1669839169061,froot loops w milk,corn cob,0.03,5.0200000000000005,4.99,corn cob,1230.7999999821186,1231,1231.199999988079,True,i,33344.19999998808,1738.3999999761581,1669839170799,1738,HRV,HRV_0278,2022-11-30 20:18:36
16,"[{'imgObject': {}, 'id': 'Tribe humus pita', 'src': '/static/foodstim60/Tribe humus pita.jpg', 'key': 'u', 'origWidth': 411, 'origHeight': 411, 'width': 411, 'height': 411, 'widthPercent': 0.45, 'rescaleHeight': False, 'trialN': 16, 'loaded': True, 'loadedTime': 3359.4000000059605, 'positionName': 'LEFT', 'positionCoords': [510.6, 334.5], 'bid': 7.46}, {'imgObject': {}, 'id': 'fruitsalad', 'src': '/static/foodstim60/fruitsalad.jpg', 'key': 'i', 'origWidth': 410, 'origHeight': 410, 'width': 410, 'height': 410, 'widthPercent': 0.45, 'rescaleHeight': False, 'trialN': 16, 'loaded': True, 'loadedTime': 3339.300000011921, 'positionName': 'RIGHT', 'positionCoords': [998.4, 335], 'bid': 8.66}]",33344.40000000596,1669839170799,Tribe humus pita,fruitsalad,7.46,8.66,1.2000000000000002,fruitsalad,1865.699999988079,1855,1866.0999999940395,True,i,35726.90000000596,2382.5,1669839173170,2371,HRV,HRV_0278,2022-11-30 20:18:36
17,"[{'imgObject': {}, 'id': 'veggieswithdip', 'src': '/static/foodstim60/veggieswithdip.jpg', 'key': 'u', 'origWidth': 409, 'origHeight': 409, 'width': 409, 'height': 409, 'widthPercent': 0.45, 'rescaleHeight': False, 'trialN': 17, 'loaded': True, 'loadedTime': 3373.4000000059605, 'positionName': 'LEFT', 'positionCoords': [512.6, 335.5], 'bid': 8.36}, {'imgObject': {}, 'id': 'mashed potato', 'src': '/static/foodstim60/mashed potato.jpg', 'key': 'i', 'origWidth': 409, 'origHeight': 409, 'width': 409, 'height': 409, 'widthPercent': 0.45, 'rescaleHeight': False, 'trialN': 17, 'loaded': True, 'loadedTime': 3301.699999988079, 'positionName': 'RIGHT', 'positionCoords': [998.4, 335.5], 'bid': 9.95}]",35727.30000001192,1669839173171,veggieswithdip,mashed potato,8.36,9.95,1.5899999999999999,veggieswithdip,1671.699999988079,1672,1672.0999999940395,True,u,37913.90000000596,2186.5999999940395,1669839175357,2186,HRV,HRV_0278,2022-11-30 20:18:36
18,"[{'imgObject': {}, 'id': 'cocktailshrimp', 'src': '/static/foodstim60/cocktailshrimp.jpg', 'key': 'u', 'origWidth': 410, 'origHeight': 410, 'width': 410, 'height': 410, 'widthPercent': 0.45, 'rescaleHeight': False, 'trialN': 18, 'loaded': True, 'loadedTime': 3373.5999999940395, 'positionName': 'LEFT', 'positionCoords': [511.6, 335], 'bid': 0}, {'imgObject': {}, 'id': 'salmon', 'src': '/static/foodstim60/salmon.jpg', 'key': 'i', 'origWidth': 410, 'origHeight': 409, 'width': 410, 'height': 409, 'widthPercent': 0.45, 'rescaleHeight': False, 'trialN': 18, 'loaded': True, 'loadedTime': 3399.0999999940395, 'positionName': 'RIGHT', 'positionCoords': [998.4, 335.5], 'bid': 2.22}]",37914.09999999404,1669839175358,cocktailshrimp,salmon,0.0,2.22,2.22,salmon,1151.5999999940395,1152,1152.0,True,i,39586.5,1672.4000000059605,1669839177030,1672,HRV,HRV_0278,2022-11-30 20:18:36
19,"[{'imgObject': {}, 'id': 'tacos', 'src': '/static/foodstim60/tacos.jpg', 'key': 'u', 'origWidth': 411, 'origHeight': 411, 'width': 411, 'height': 411, 'widthPercent': 0.45, 'rescaleHeight': False, 'trialN': 19, 'loaded': True, 'loadedTime': 3414.800000011921, 'positionName': 'LEFT', 'positionCoords': [510.6, 334.5], 'bid': 9.94}, {'imgObject': {}, 'id': 'raspberries', 'src': '/static/foodstim60/raspberries.jpg', 'key': 'i', 'origWidth': 411, 'origHeight': 411, 'width': 411, 'height': 411, 'widthPercent': 0.45, 'rescaleHeight': False, 'trialN': 19, 'loaded': True, 'loadedTime': 3416.0999999940395, 'positionName': 'RIGHT', 'positionCoords': [998.4, 334.5], 'bid': 7.94}]",39586.59999999404,1669839177030,tacos,raspberries,9.94,7.94,-1.9999999999999991,tacos,1134.4000000059605,1135,1134.9000000059605,True,u,41240.80000001192,1654.2000000178814,1669839178684,1654,HRV,HRV_0278,2022-11-30 20:18:36
20,"[{'imgObject': {}, 'id': 'raisin bran w milk', 'src': '/static/foodstim60/raisin bran w milk.jpg', 'key': 'u', 'origWidth': 411, 'origHeight': 411, 'width': 411, 'height': 411, 'widthPercent': 0.45, 'rescaleHeight': False, 'trialN': 20, 'loaded': True, 'loadedTime': 3428, 'positionName': 'LEFT', 'positionCoords': [510.6, 334.5], 'bid': 5}, {'imgObject': {}, 'id': 'corn cob', 'src': '/static/foodstim60/corn cob.jpg', 'key': 'i', 'origWidth': 411, 'origHeight': 411, 'width': 411, 'height': 411, 'widthPercent': 0.45, 'rescaleHeight': False, 'trialN': 20, 'loaded': True, 'loadedTime': 3335.4000000059605, 'positionName': 'RIGHT', 'positionCoords': [998.4, 334.5], 'bid': 5.0200000000000005}]",41241.0,1669839178684,raisin bran w milk,corn cob,5.0,5.0200000000000005,0.020000000000000462,raisin bran w milk,1537.5,1538,1537.800000011921,True,u,43288.5,2047.5,1669839180732,2048,HRV,HRV_0278,2022-11-30 20:18:36
21,"[{'imgObject': {}, 'id': 'blueberries', 'src': '/static/foodstim60/blueberries.jpg', 'key': 'u', 'origWidth': 411, 'origHeight': 411, 'width': 411, 'height': 411, 'widthPercent': 0.45, 'rescaleHeight': False, 'trialN': 21, 'loaded': True, 'loadedTime': 3298.699999988079, 'positionName': 'LEFT', 'positionCoords': [510.6, 334.5], 'bid': 7.17}, {'imgObject': {}, 'id': 'turkeysandwich', 'src': '/static/foodstim60/turkeysandwich.jpg', 'key': 'i', 'origWidth': 409, 'origHeight': 409, 'width': 409, 'height': 409, 'widthPercent': 0.45, 'rescaleHeight': False, 'trialN': 21, 'loaded': True, 'loadedTime': 3428.300000011921, 'positionName': 'RIGHT', 'positionCoords': [998.4, 335.5], 'bid': 7.72}]",43288.59999999404,1669839180732,blueberries,turkeysandwich,7.17,7.72,0.5499999999999998,blueberries,1198,1198,1198.4000000059605,True,u,44999.09999999404,1710.5,1669839182443,1711,HRV,HRV_0278,2022-11-30 20:18:36
22,"[{'imgObject': {}, 'id': 'mac & cheese', 'src': '/static/foodstim60/mac & cheese.jpg', 'key': 'u', 'origWidth': 410, 'origHeight': 410, 'width': 410, 'height': 410, 'widthPercent': 0.45, 'rescaleHeight': False, 'trialN': 22, 'loaded': True, 'loadedTime': 3331.300000011921, 'positionName': 'LEFT', 'positionCoords': [511.6, 335], 'bid': 10}, {'imgObject': {}, 'id': 'Grapes', 'src': '/static/foodstim60/Grapes.jpg', 'key': 'i', 'origWidth': 411, 'origHeight': 411, 'width': 411, 'height': 411, 'widthPercent': 0.45, 'rescaleHeight': False, 'trialN': 22, 'loaded': True, 'loadedTime': 3337.699999988079, 'positionName': 'RIGHT', 'positionCoords': [998.4, 334.5], 'bid': 8.16}]",44999.30000001192,1669839182443,mac & cheese,Grapes,10.0,8.16,-1.8399999999999999,mac & cheese,1477.0999999940395,1477,1477.5999999940395,True,u,46981.09999999404,1981.7999999821186,1669839184425,1982,HRV,HRV_0278,2022-11-30 20:18:36
23,"[{'imgObject': {}, 'id': 'apple slices', 'src': '/static/foodstim60/apple slices.jpg', 'key': 'u', 'origWidth': 409, 'origHeight': 410, 'width': 409, 'height': 410, 'widthPercent': 0.45, 'rescaleHeight': False, 'trialN': 23, 'loaded': True, 'loadedTime': 3448.0999999940395, 'positionName': 'LEFT', 'positionCoords': [512.6, 335], 'bid': 7.47}, {'imgObject': {}, 'id': 'avocado', 'src': '/static/foodstim60/avocado.jpg', 'key': 'i', 'origWidth': 409, 'origHeight': 409, 'width': 409, 'height': 409, 'widthPercent': 0.45, 'rescaleHeight': False, 'trialN': 23, 'loaded': True, 'loadedTime': 3448.5999999940395, 'positionName': 'RIGHT', 'positionCoords': [998.4, 335.5], 'bid': 6.79}]",46981.40000000596,1669839184425,apple slices,avocado,7.47,6.79,-0.6799999999999997,apple slices,1116.7999999821186,1117,1117.199999988079,True,u,48618.59999999404,1637.199999988079,1669839186062,1637,HRV,HRV_0278,2022-11-30 20:18:36
24,"[{'imgObject': {}, 'id': 'turkeysandwich', 'src': '/static/foodstim60/turkeysandwich.jpg', 'key': 'u', 'origWidth': 409, 'origHeight': 409, 'width': 409, 'height': 409, 'widthPercent': 0.45, 'rescaleHeight': False, 'trialN': 24, 'loaded': True, 'loadedTime': 3438.0999999940395, 'positionName': 'LEFT', 'positionCoords': [512.6, 335.5], 'bid': 7.72}, {'imgObject': {}, 'id': 'chickenfingers', 'src': '/static/foodstim60/chickenfingers.jpg', 'key': 'i', 'origWidth': 410, 'origHeight': 410, 'width': 410, 'height': 410, 'widthPercent': 0.45, 'rescaleHeight': False, 'trialN': 24, 'loaded': True, 'loadedTime': 3302.699999988079, 'positionName': 'RIGHT', 'positionCoords': [998.4, 335], 'bid': 9.38}]",48618.90000000596,1669839186062,turkeysandwich,chickenfingers,7.72,9.38,1.660000000000001,chickenfingers,886.1999999880791,887,886.6999999880791,True,i,50017.19999998808,1398.2999999821186,1669839187461,1399,HRV,HRV_0278,2022-11-30 20:18:36
25,"[{'imgObject': {}, 'id': 'rigatoni', 'src': '/static/foodstim60/rigatoni.jpg', 'key': 'u', 'origWidth': 411, 'origHeight': 411, 'width': 411, 'height': 411, 'widthPercent': 0.45, 'rescaleHeight': False, 'trialN': 25, 'loaded': True, 'loadedTime': 3467.800000011921, 'positionName': 'LEFT', 'positionCoords': [510.6, 334.5], 'bid': 0.08}, {'imgObject': {}, 'id': 'cherry tomato', 'src': '/static/foodstim60/cherry tomato.jpg', 'key': 'i', 'origWidth': 410, 'origHeight': 410, 'width': 410, 'height': 410, 'widthPercent': 0.45, 'rescaleHeight': False, 'trialN': 25, 'loaded': True, 'loadedTime': 3469.300000011921, 'positionName': 'RIGHT', 'positionCoords': [998.4, 335], 'bid': 3.27}]",50017.5,1669839187461,rigatoni,cherry tomato,0.08,3.27,3.19,cherry tomato,892.5999999940395,893,893.0,True,i,51416.09999999404,1398.5999999940395,1669839188859,1398,HRV,HRV_0278,2022-11-30 20:18:36
26,"[{'imgObject': {}, 'id': 'pear', 'src': '/static/foodstim60/pear.jpg', 'key': 'u', 'origWidth': 411, 'origHeight': 410, 'width': 411, 'height': 410, 'widthPercent': 0.45, 'rescaleHeight': False, 'trialN': 26, 'loaded': True, 'loadedTime': 3470.4000000059605, 'positionName': 'LEFT', 'positionCoords': [510.6, 335], 'bid': 7.79}, {'imgObject': {}, 'id': 'baked potato', 'src': '/static/foodstim60/baked potato.jpg', 'key': 'i', 'origWidth': 409, 'origHeight': 410, 'width': 409, 'height': 410, 'widthPercent': 0.45, 'rescaleHeight': False, 'trialN': 26, 'loaded': True, 'loadedTime': 3492.5999999940395, 'positionName': 'RIGHT', 'positionCoords': [998.4, 335], 'bid': 7.890000000000001}]",51416.19999998808,1669839188860,pear,baked potato,7.79,7.890000000000001,0.10000000000000053,pear,2653,2653,2653.4000000059605,True,u,54582.0,3165.800000011921,1669839192025,3165,HRV,HRV_0278,2022-11-30 20:18:36
27,"[{'imgObject': {}, 'id': 'luckycharms', 'src': '/static/foodstim60/luckycharms.jpg', 'key': 'u', 'origWidth': 410, 'origHeight': 409, 'width': 410, 'height': 409, 'widthPercent': 0.45, 'rescaleHeight': False, 'trialN': 27, 'loaded': True, 'loadedTime': 3493.4000000059605, 'positionName': 'LEFT', 'positionCoords': [511.6, 335.5], 'bid': 0}, {'imgObject': {}, 'id': 'edamame', 'src': '/static/foodstim60/edamame.jpg', 'key': 'i', 'origWidth': 409, 'origHeight': 410, 'width': 409, 'height': 410, 'widthPercent': 0.45, 'rescaleHeight': False, 'trialN': 27, 'loaded': True, 'loadedTime': 3338.5, 'positionName': 'RIGHT', 'positionCoords': [998.4, 335], 'bid': 3.44}]",54582.30000001192,1669839192026,luckycharms,edamame,0.0,3.44,3.44,edamame,1287.2999999821186,1287,1287.699999988079,True,i,56385.90000000596,1803.5999999940395,1669839193829,1803,HRV,HRV_0278,2022-11-30 20:18:36
28,"[{'imgObject': {}, 'id': 'mashed potato', 'src': '/static/foodstim60/mashed potato.jpg', 'key': 'u', 'origWidth': 409, 'origHeight': 409, 'width': 409, 'height': 409, 'widthPercent': 0.45, 'rescaleHeight': False, 'trialN': 28, 'loaded': True, 'loadedTime': 3301.699999988079, 'positionName': 'LEFT', 'positionCoords': [512.6, 335.5], 'bid': 9.95}, {'imgObject': {}, 'id': 'salad w chicken', 'src': '/static/foodstim60/salad w chicken.jpg', 'key': 'i', 'origWidth': 411, 'origHeight': 411, 'width': 411, 'height': 411, 'widthPercent': 0.45, 'rescaleHeight': False, 'trialN': 28, 'loaded': True, 'loadedTime': 3330.0999999940395, 'positionName': 'RIGHT', 'positionCoords': [998.4, 334.5], 'bid': 10}]",56386.30000001192,1669839193830,mashed potato,salad w chicken,9.95,10.0,0.05000000000000071,salad w chicken,1641.0999999940395,1642,1641.7999999821186,True,i,58537.09999999404,2150.7999999821186,1669839195980,2150,HRV,HRV_0278,2022-11-30 20:18:36
29,"[{'imgObject': {}, 'id': 'cherry tomato', 'src': '/static/foodstim60/cherry tomato.jpg', 'key': 'u', 'origWidth': 410, 'origHeight': 410, 'width': 410, 'height': 410, 'widthPercent': 0.45, 'rescaleHeight': False, 'trialN': 29, 'loaded': True, 'loadedTime': 3469.199999988079, 'positionName': 'LEFT', 'positionCoords': [511.6, 335], 'bid': 3.27}, {'imgObject': {}, 'id': 'lox', 'src': '/static/foodstim60/lox.jpg', 'key': 'i', 'origWidth': 410, 'origHeight': 411, 'width': 410, 'height': 411, 'widthPercent': 0.45, 'rescaleHeight': False, 'trialN': 29, 'loaded': True, 'loadedTime': 3300.699999988079, 'positionName': 'RIGHT', 'positionCoords': [998.4, 334.5], 'bid': 0}]",58537.30000001192,1669839195981,cherry tomato,lox,3.27,0.0,-3.27,cherry tomato,1188.5999999940395,1189,1189.5,True,u,60228.0,1690.699999988079,1669839197671,1690,HRV,HRV_0278,2022-11-30 20:18:36
30,"[{'imgObject': {}, 'id': 'fruitsalad', 'src': '/static/foodstim60/fruitsalad.jpg', 'key': 'u', 'origWidth': 410, 'origHeight': 410, 'width': 410, 'height': 410, 'widthPercent': 0.45, 'rescaleHeight': False, 'trialN': 30, 'loaded': True, 'loadedTime': 3339.5999999940395, 'positionName': 'LEFT', 'positionCoords': [511.6, 335], 'bid': 8.66}, {'imgObject': {}, 'id': 'raisin bran w milk', 'src': '/static/foodstim60/raisin bran w milk.jpg', 'key': 'i', 'origWidth': 411, 'origHeight': 411, 'width': 411, 'height': 411, 'widthPercent': 0.45, 'rescaleHeight': False, 'trialN': 30, 'loaded': True, 'loadedTime': 3416.5, 'positionName': 'RIGHT', 'positionCoords': [998.4, 334.5], 'bid': 5}]",60228.30000001192,1669839197672,fruitsalad,raisin bran w milk,8.66,5.0,-3.66,fruitsalad,2834.399999976158,2835,2834.899999976158,True,u,63574.19999998808,3345.899999976158,1669839201018,3346,HRV,HRV_0278,2022-11-30 20:18:36
31,"[{'imgObject': {}, 'id': 'olives', 'src': '/static/foodstim60/olives.jpg', 'key': 'u', 'origWidth': 410, 'origHeight': 410, 'width': 410, 'height': 410, 'widthPercent': 0.45, 'rescaleHeight': False, 'trialN': 31, 'loaded': True, 'loadedTime': 3500.300000011921, 'positionName': 'LEFT', 'positionCoords': [511.6, 335], 'bid': 0.08}, {'imgObject': {}, 'id': 'pear', 'src': '/static/foodstim60/pear.jpg', 'key': 'i', 'origWidth': 411, 'origHeight': 410, 'width': 411, 'height': 410, 'widthPercent': 0.45, 'rescaleHeight': False, 'trialN': 31, 'loaded': True, 'loadedTime': 3471.0999999940395, 'positionName': 'RIGHT', 'positionCoords': [998.4, 335], 'bid': 7.79}]",63574.5,1669839201018,olives,pear,0.08,7.79,7.71,pear,1067.199999988079,1068,1068.0,True,i,65149.69999998808,1575.199999988079,1669839202593,1575,HRV,HRV_0278,2022-11-30 20:18:36
32,"[{'imgObject': {}, 'id': 'salad w chicken', 'src': '/static/foodstim60/salad w chicken.jpg', 'key': 'u', 'origWidth': 411, 'origHeight': 411, 'width': 411, 'height': 411, 'widthPercent': 0.45, 'rescaleHeight': False, 'trialN': 32, 'loaded': True, 'loadedTime': 3329, 'positionName': 'LEFT', 'positionCoords': [510.6, 334.5], 'bid': 10}, {'imgObject': {}, 'id': 'turkey sandwich', 'src': '/static/foodstim60/turkey sandwich.jpg', 'key': 'i', 'origWidth': 409, 'origHeight': 409, 'width': 409, 'height': 409, 'widthPercent': 0.45, 'rescaleHeight': False, 'trialN': 32, 'loaded': True, 'loadedTime': 3501.0999999940395, 'positionName': 'RIGHT', 'positionCoords': [998.4, 335.5], 'bid': 9.87}]",65149.90000000596,1669839202593,salad w chicken,turkey sandwich,10.0,9.87,-0.13000000000000078,salad w chicken,1520.199999988079,1521,1520.699999988079,True,u,67178.19999998808,2028.2999999821186,1669839204622,2029,HRV,HRV_0278,2022-11-30 20:18:36
33,"[{'imgObject': {}, 'id': 'eggs', 'src': '/static/foodstim60/eggs.jpg', 'key': 'u', 'origWidth': 409, 'origHeight': 409, 'width': 409, 'height': 409, 'widthPercent': 0.45, 'rescaleHeight': False, 'trialN': 33, 'loaded': True, 'loadedTime': 3342.0999999940395, 'positionName': 'LEFT', 'positionCoords': [512.6, 335.5], 'bid': 5.08}, {'imgObject': {}, 'id': 'eggsalad', 'src': '/static/foodstim60/eggsalad.jpg', 'key': 'i', 'origWidth': 410, 'origHeight': 409, 'width': 410, 'height': 409, 'widthPercent': 0.45, 'rescaleHeight': False, 'trialN': 33, 'loaded': True, 'loadedTime': 3344.0999999940395, 'positionName': 'RIGHT', 'positionCoords': [998.4, 335.5], 'bid': 5.0600000000000005}]",67178.5,1669839204622,eggs,eggsalad,5.08,5.0600000000000005,-0.019999999999999574,eggsalad,1032.9000000059605,1033,1033.300000011921,True,i,68720.80000001192,1542.300000011921,1669839206164,1542,HRV,HRV_0278,2022-11-30 20:18:36
34,"[{'imgObject': {}, 'id': 'bagel and cc', 'src': '/static/foodstim60/bagel and cc.jpg', 'key': 'u', 'origWidth': 410, 'origHeight': 410, 'width': 410, 'height': 410, 'widthPercent': 0.45, 'rescaleHeight': False, 'trialN': 34, 'loaded': True, 'loadedTime': 3501.800000011921, 'positionName': 'LEFT', 'positionCoords': [511.6, 335], 'bid': 7.79}, {'imgObject': {}, 'id': 'turkey sandwich', 'src': '/static/foodstim60/turkey sandwich.jpg', 'key': 'i', 'origWidth': 409, 'origHeight': 409, 'width': 409, 'height': 409, 'widthPercent': 0.45, 'rescaleHeight': False, 'trialN': 34, 'loaded': True, 'loadedTime': 3500.9000000059605, 'positionName': 'RIGHT', 'positionCoords': [998.4, 335.5], 'bid': 9.87}]",68721.09999999404,1669839206165,bagel and cc,turkey sandwich,7.79,9.87,2.079999999999999,turkey sandwich,2998.5,2999,2999.0999999940395,True,i,72230.09999999404,3509.0,1669839209674,3509,HRV,HRV_0278,2022-11-30 20:18:36
35,"[{'imgObject': {}, 'id': 'salmon', 'src': '/static/foodstim60/salmon.jpg', 'key': 'u', 'origWidth': 410, 'origHeight': 409, 'width': 410, 'height': 409, 'widthPercent': 0.45, 'rescaleHeight': False, 'trialN': 35, 'loaded': True, 'loadedTime': 3404.9000000059605, 'positionName': 'LEFT', 'positionCoords': [511.6, 335.5], 'bid': 2.22}, {'imgObject': {}, 'id': 'froot loops w milk', 'src': '/static/foodstim60/froot loops w milk.jpg', 'key': 'i', 'origWidth': 410, 'origHeight': 410, 'width': 410, 'height': 410, 'widthPercent': 0.45, 'rescaleHeight': False, 'trialN': 35, 'loaded': True, 'loadedTime': 3347.9000000059605, 'positionName': 'RIGHT', 'positionCoords': [998.4, 335], 'bid': 0.03}]",72230.5,1669839209674,salmon,froot loops w milk,2.22,0.03,-2.1900000000000004,salmon,1958.800000011921,1960,1959.5999999940395,True,u,74699.69999998808,2469.199999988079,1669839212143,2469,HRV,HRV_0278,2022-11-30 20:18:36
36,"[{'imgObject': {}, 'id': 'granola w milk', 'src': '/static/foodstim60/granola w milk.jpg', 'key': 'u', 'origWidth': 410, 'origHeight': 410, 'width': 410, 'height': 410, 'widthPercent': 0.45, 'rescaleHeight': False, 'trialN': 36, 'loaded': True, 'loadedTime': 3509.5, 'positionName': 'LEFT', 'positionCoords': [511.6, 335], 'bid': 4.92}, {'imgObject': {}, 'id': 'orange slices', 'src': '/static/foodstim60/orange slices.jpg', 'key': 'i', 'origWidth': 409, 'origHeight': 410, 'width': 409, 'height': 410, 'widthPercent': 0.45, 'rescaleHeight': False, 'trialN': 36, 'loaded': True, 'loadedTime': 3512.199999988079, 'positionName': 'RIGHT', 'positionCoords': [998.4, 335], 'bid': 8.26}]",74699.80000001192,1669839212143,granola w milk,orange slices,4.92,8.26,3.34,orange slices,3261.5999999940395,3262,3262.0999999940395,True,i,78474.0,3774.199999988079,1669839215917,3774,HRV,HRV_0278,2022-11-30 20:18:36
37,"[{'imgObject': {}, 'id': 'mac & cheese', 'src': '/static/foodstim60/mac & cheese.jpg', 'key': 'u', 'origWidth': 410, 'origHeight': 410, 'width': 410, 'height': 410, 'widthPercent': 0.45, 'rescaleHeight': False, 'trialN': 37, 'loaded': True, 'loadedTime': 3331.0999999940395, 'positionName': 'LEFT', 'positionCoords': [511.6, 335], 'bid': 10}, {'imgObject': {}, 'id': 'burger', 'src': '/static/foodstim60/burger.jpg', 'key': 'i', 'origWidth': 409, 'origHeight': 409, 'width': 409, 'height': 409, 'widthPercent': 0.45, 'rescaleHeight': False, 'trialN': 37, 'loaded': True, 'loadedTime': 3513.5999999940395, 'positionName': 'RIGHT', 'positionCoords': [998.4, 335.5], 'bid': 9.97}]",78474.19999998808,1669839215918,mac & cheese,burger,10.0,9.97,-0.02999999999999936,burger,1342.7000000178814,1343,1343.0,True,i,80334.5,1860.300000011921,1669839217778,1860,HRV,HRV_0278,2022-11-30 20:18:36
38,"[{'imgObject': {}, 'id': 'veggieswithdip', 'src': '/static/foodstim60/veggieswithdip.jpg', 'key': 'u', 'origWidth': 409, 'origHeight': 409, 'width': 409, 'height': 409, 'widthPercent': 0.45, 'rescaleHeight': False, 'trialN': 38, 'loaded': True, 'loadedTime': 3373.5, 'positionName': 'LEFT', 'positionCoords': [512.6, 335.5], 'bid': 8.36}, {'imgObject': {}, 'id': 'fruitsalad', 'src': '/static/foodstim60/fruitsalad.jpg', 'key': 'i', 'origWidth': 410, 'origHeight': 410, 'width': 410, 'height': 410, 'widthPercent': 0.45, 'rescaleHeight': False, 'trialN': 38, 'loaded': True, 'loadedTime': 3339.5999999940395, 'positionName': 'RIGHT', 'positionCoords': [998.4, 335], 'bid': 8.66}]",80334.80000001192,1669839217778,veggieswithdip,fruitsalad,8.36,8.66,0.3000000000000007,veggieswithdip,973.8999999761581,975,974.5,True,u,81817.09999999404,1482.2999999821186,1669839219261,1483,HRV,HRV_0278,2022-11-30 20:18:36
39,"[{'imgObject': {}, 'id': 'salad w chicken', 'src': '/static/foodstim60/salad w chicken.jpg', 'key': 'u', 'origWidth': 411, 'origHeight': 411, 'width': 411, 'height': 411, 'widthPercent': 0.45, 'rescaleHeight': False, 'trialN': 39, 'loaded': True, 'loadedTime': 3329.9000000059605, 'positionName': 'LEFT', 'positionCoords': [510.6, 334.5], 'bid': 10}, {'imgObject': {}, 'id': 'mango', 'src': '/static/foodstim60/mango.jpg', 'key': 'i', 'origWidth': 411, 'origHeight': 411, 'width': 411, 'height': 411, 'widthPercent': 0.45, 'rescaleHeight': False, 'trialN': 39, 'loaded': True, 'loadedTime': 3525.699999988079, 'positionName': 'RIGHT', 'positionCoords': [998.4, 334.5], 'bid': 7.140000000000001}]",81817.30000001192,1669839219261,salad w chicken,mango,10.0,7.140000000000001,-2.8599999999999994,salad w chicken,1139.2999999821186,1139,1139.699999988079,True,u,83471.30000001192,1654.0,1669839220915,1654,HRV,HRV_0278,2022-11-30 20:18:36
40,"[{'imgObject': {}, 'id': 'rigatoni', 'src': '/static/foodstim60/rigatoni.jpg', 'key': 'u', 'origWidth': 411, 'origHeight': 411, 'width': 411, 'height': 411, 'widthPercent': 0.45, 'rescaleHeight': False, 'trialN': 40, 'loaded': True, 'loadedTime': 3467.5, 'positionName': 'LEFT', 'positionCoords': [510.6, 334.5], 'bid': 0.08}, {'imgObject': {}, 'id': 'seaweed', 'src': '/static/foodstim60/seaweed.jpg', 'key': 'i', 'origWidth': 410, 'origHeight': 410, 'width': 410, 'height': 410, 'widthPercent': 0.45, 'rescaleHeight': False, 'trialN': 40, 'loaded': True, 'loadedTime': 3345.5, 'positionName': 'RIGHT', 'positionCoords': [998.4, 335], 'bid': 5.04}]",83471.5,1669839220915,rigatoni,seaweed,0.08,5.04,4.96,seaweed,861.9000000059605,862,862.4000000059605,True,i,84851.40000000596,1379.9000000059605,1669839222295,1380,HRV,HRV_0278,2022-11-30 20:18:36
41,"[{'imgObject': {}, 'id': 'seaweed', 'src': '/static/foodstim60/seaweed.jpg', 'key': 'u', 'origWidth': 410, 'origHeight': 410, 'width': 410, 'height': 410, 'widthPercent': 0.45, 'rescaleHeight': False, 'trialN': 41, 'loaded': True, 'loadedTime': 3345.5, 'positionName': 'LEFT', 'positionCoords': [511.6, 335], 'bid': 5.04}, {'imgObject': {}, 'id': 'cheerios', 'src': '/static/foodstim60/cheerios.jpg', 'key': 'i', 'origWidth': 409, 'origHeight': 410, 'width': 409, 'height': 410, 'widthPercent': 0.45, 'rescaleHeight': False, 'trialN': 41, 'loaded': True, 'loadedTime': 3313.5, 'positionName': 'RIGHT', 'positionCoords': [998.4, 335], 'bid': 4.92}]",84851.59999999404,1669839222295,seaweed,cheerios,5.04,4.92,-0.1200000000000001,seaweed,1993.4000000059605,1994,1993.800000011921,True,u,87362.5,2510.9000000059605,1669839224806,2511,HRV,HRV_0278,2022-11-30 20:18:36
42,"[{'imgObject': {}, 'id': 'corn cob', 'src': '/static/foodstim60/corn cob.jpg', 'key': 'u', 'origWidth': 411, 'origHeight': 411, 'width': 411, 'height': 411, 'widthPercent': 0.45, 'rescaleHeight': False, 'trialN': 42, 'loaded': True, 'loadedTime': 3335.0999999940395, 'positionName': 'LEFT', 'positionCoords': [510.6, 334.5], 'bid': 5.0200000000000005}, {'imgObject': {}, 'id': 'strawberries', 'src': '/static/foodstim60/strawberries.jpg', 'key': 'i', 'origWidth': 410, 'origHeight': 410, 'width': 410, 'height': 410, 'widthPercent': 0.45, 'rescaleHeight': False, 'trialN': 42, 'loaded': True, 'loadedTime': 3333.300000011921, 'positionName': 'RIGHT', 'positionCoords': [998.4, 335], 'bid': 8.89}]",87362.69999998808,1669839224806,corn cob,strawberries,5.0200000000000005,8.89,3.87,NaN,NaN,NaN,,False,NaN,91388.59999999404,4025.9000000059605,1669839228832,4026,HRV,HRV_0278,2022-11-30 20:18:36
43,"[{'imgObject': {}, 'id': 'kiwi', 'src': '/static/foodstim60/kiwi.jpg', 'key': 'u', 'origWidth': 410, 'origHeight': 410, 'width': 410, 'height': 410, 'widthPercent': 0.45, 'rescaleHeight': False, 'trialN': 43, 'loaded': True, 'loadedTime': 3532.5999999940395, 'positionName': 'LEFT', 'positionCoords': [511.6, 335], 'bid': 5.0600000000000005}, {'imgObject': {}, 'id': 'olives', 'src': '/static/foodstim60/olives.jpg', 'key': 'i', 'origWidth': 410, 'origHeight': 410, 'width': 410, 'height': 410, 'widthPercent': 0.45, 'rescaleHeight': False, 'trialN': 43, 'loaded': True, 'loadedTime': 3493.4000000059605, 'positionName': 'RIGHT', 'positionCoords': [998.4, 335], 'bid': 0.08}]",91388.69999998808,1669839228832,kiwi,olives,5.0600000000000005,0.08,-4.98,kiwi,1839.5,1840,1839.9000000059605,True,u,93736.19999998808,2347.5,1669839231180,2348,HRV,HRV_0278,2022-11-30 20:18:36
44,"[{'imgObject': {}, 'id': 'baked potato', 'src': '/static/foodstim60/baked potato.jpg', 'key': 'u', 'origWidth': 409, 'origHeight': 410, 'width': 409, 'height': 410, 'widthPercent': 0.45, 'rescaleHeight': False, 'trialN': 44, 'loaded': True, 'loadedTime': 3492, 'positionName': 'LEFT', 'positionCoords': [512.6, 335], 'bid': 7.890000000000001}, {'imgObject': {}, 'id': 'Grapes', 'src': '/static/foodstim60/Grapes.jpg', 'key': 'i', 'origWidth': 411, 'origHeight': 411, 'width': 411, 'height': 411, 'widthPercent': 0.45, 'rescaleHeight': False, 'trialN': 44, 'loaded': True, 'loadedTime': 3337.4000000059605, 'positionName': 'RIGHT', 'positionCoords': [998.4, 334.5], 'bid': 8.16}]",93736.30000001192,1669839231180,baked potato,Grapes,7.890000000000001,8.16,0.2699999999999996,baked potato,2098.5999999940395,2095,2099.199999988079,True,u,96344.30000001192,2608.0,1669839233784,2604,HRV,HRV_0278,2022-11-30 20:18:36
45,"[{'imgObject': {}, 'id': 'yogurt no spoon', 'src': '/static/foodstim60/yogurt no spoon.jpg', 'key': 'u', 'origWidth': 411, 'origHeight': 410, 'width': 411, 'height': 410, 'widthPercent': 0.45, 'rescaleHeight': False, 'trialN': 45, 'loaded': True, 'loadedTime': 3532.699999988079, 'positionName': 'LEFT', 'positionCoords': [510.6, 335], 'bid': 8.08}, {'imgObject': {}, 'id': 'pear', 'src': '/static/foodstim60/pear.jpg', 'key': 'i', 'origWidth': 411, 'origHeight': 410, 'width': 411, 'height': 410, 'widthPercent': 0.45, 'rescaleHeight': False, 'trialN': 45, 'loaded': True, 'loadedTime': 3471.5, 'positionName': 'RIGHT', 'positionCoords': [998.4, 335], 'bid': 7.79}]",96344.59999999404,1669839233784,yogurt no spoon,pear,8.08,7.79,-0.29000000000000004,yogurt no spoon,1776.5999999940395,1778,1777.0,True,u,98633.69999998808,2289.0999999940395,1669839236074,2290,HRV,HRV_0278,2022-11-30 20:18:36
46,"[{'imgObject': {}, 'id': 'cantaloupe', 'src': '/static/foodstim60/cantaloupe.jpg', 'key': 'u', 'origWidth': 409, 'origHeight': 409, 'width': 409, 'height': 409, 'widthPercent': 0.45, 'rescaleHeight': False, 'trialN': 46, 'loaded': True, 'loadedTime': 3533.800000011921, 'positionName': 'LEFT', 'positionCoords': [512.6, 335.5], 'bid': 8.11}, {'imgObject': {}, 'id': 'yogurt no spoon', 'src': '/static/foodstim60/yogurt no spoon.jpg', 'key': 'i', 'origWidth': 411, 'origHeight': 410, 'width': 411, 'height': 410, 'widthPercent': 0.45, 'rescaleHeight': False, 'trialN': 46, 'loaded': True, 'loadedTime': 3533.5999999940395, 'positionName': 'RIGHT', 'positionCoords': [998.4, 335], 'bid': 8.08}]",98633.90000000596,1669839236074,cantaloupe,yogurt no spoon,8.11,8.08,-0.02999999999999936,yogurt no spoon,905.7999999821186,906,906.0,True,i,100046.40000000596,1412.5,1669839237486,1412,HRV,HRV_0278,2022-11-30 20:18:36
47,"[{'imgObject': {}, 'id': 'cherries', 'src': '/static/foodstim60/cherries.jpg', 'key': 'u', 'origWidth': 410, 'origHeight': 411, 'width': 410, 'height': 411, 'widthPercent': 0.45, 'rescaleHeight': False, 'trialN': 47, 'loaded': True, 'loadedTime': 3347.199999988079, 'positionName': 'LEFT', 'positionCoords': [511.6, 334.5], 'bid': 8.82}, {'imgObject': {}, 'id': 'salad w chicken', 'src': '/static/foodstim60/salad w chicken.jpg', 'key': 'i', 'origWidth': 411, 'origHeight': 411, 'width': 411, 'height': 411, 'widthPercent': 0.45, 'rescaleHeight': False, 'trialN': 47, 'loaded': True, 'loadedTime': 3330.0999999940395, 'positionName': 'RIGHT', 'positionCoords': [998.4, 334.5], 'bid': 10}]",100046.59999999404,1669839237486,cherries,salad w chicken,8.82,10.0,1.1799999999999997,salad w chicken,1051.4000000059605,1053,1052.0999999940395,True,i,101619.5,1572.9000000059605,1669839239059,1573,HRV,HRV_0278,2022-11-30 20:18:36
48,"[{'imgObject': {}, 'id': 'rigatoni and sauce', 'src': '/static/foodstim60/rigatoni and sauce.jpg', 'key': 'u', 'origWidth': 410, 'origHeight': 411, 'width': 410, 'height': 411, 'widthPercent': 0.45, 'rescaleHeight': False, 'trialN': 48, 'loaded': True, 'loadedTime': 3535.5, 'positionName': 'LEFT', 'positionCoords': [511.6, 334.5], 'bid': 5.01}, {'imgObject': {}, 'id': 'corn cob', 'src': '/static/foodstim60/corn cob.jpg', 'key': 'i', 'origWidth': 411, 'origHeight': 411, 'width': 411, 'height': 411, 'widthPercent': 0.45, 'rescaleHeight': False, 'trialN': 48, 'loaded': True, 'loadedTime': 3335.300000011921, 'positionName': 'RIGHT', 'positionCoords': [998.4, 334.5], 'bid': 5.0200000000000005}]",101619.69999998808,1669839239060,rigatoni and sauce,corn cob,5.01,5.0200000000000005,0.010000000000000675,rigatoni and sauce,1506.5,1507,1507.0,True,u,103628.5,2008.800000011921,1669839241068,2008,HRV,HRV_0278,2022-11-30 20:18:36
49,"[{'imgObject': {}, 'id': 'froot loops w milk', 'src': '/static/foodstim60/froot loops w milk.jpg', 'key': 'u', 'origWidth': 410, 'origHeight': 410, 'width': 410, 'height': 410, 'widthPercent': 0.45, 'rescaleHeight': False, 'trialN': 49, 'loaded': True, 'loadedTime': 3348.0999999940395, 'positionName': 'LEFT', 'positionCoords': [511.6, 335], 'bid': 0.03}, {'imgObject': {}, 'id': 'chicken nuggets2', 'src': '/static/foodstim60/chicken nuggets2.jpg', 'key': 'i', 'origWidth': 410, 'origHeight': 409, 'width': 410, 'height': 409, 'widthPercent': 0.45, 'rescaleHeight': False, 'trialN': 49, 'loaded': True, 'loadedTime': 3536.199999988079, 'positionName': 'RIGHT', 'positionCoords': [998.4, 335.5], 'bid': 7.56}]",103628.69999998808,1669839241069,froot loops w milk,chicken nuggets2,0.03,7.56,7.529999999999999,chicken nuggets2,831.1000000238419,831,831.3000000119209,True,i,104977.09999999404,1348.4000000059605,1669839242417,1348,HRV,HRV_0278,2022-11-30 20:18:36
50,"[{'imgObject': {}, 'id': 'kiwi', 'src': '/static/foodstim60/kiwi.jpg', 'key': 'u', 'origWidth': 410, 'origHeight': 410, 'width': 410, 'height': 410, 'widthPercent': 0.45, 'rescaleHeight': False, 'trialN': 50, 'loaded': True, 'loadedTime': 3527.0999999940395, 'positionName': 'LEFT', 'positionCoords': [511.6, 335], 'bid': 5.0600000000000005}, {'imgObject': {}, 'id': 'banana', 'src': '/static/foodstim60/banana.jpg', 'key': 'i', 'origWidth': 410, 'origHeight': 410, 'width': 410, 'height': 410, 'widthPercent': 0.45, 'rescaleHeight': False, 'trialN': 50, 'loaded': True, 'loadedTime': 3550.300000011921, 'positionName': 'RIGHT', 'positionCoords': [998.4, 335], 'bid': 7.45}]",104977.30000001192,1669839242417,kiwi,banana,5.0600000000000005,7.45,2.3899999999999997,banana,728.0999999940395,729,728.5,True,i,106207.40000000596,1230.0999999940395,1669839243647,1230,HRV,HRV_0278,2022-11-30 20:18:36
51,"[{'imgObject': {}, 'id': 'tacos', 'src': '/static/foodstim60/tacos.jpg', 'key': 'u', 'origWidth': 411, 'origHeight': 411, 'width': 411, 'height': 411, 'widthPercent': 0.45, 'rescaleHeight': False, 'trialN': 51, 'loaded': True, 'loadedTime': 3406, 'positionName': 'LEFT', 'positionCoords': [510.6, 334.5], 'bid': 9.94}, {'imgObject': {}, 'id': 'orange slices', 'src': '/static/foodstim60/orange slices.jpg', 'key': 'i', 'origWidth': 409, 'origHeight': 410, 'width': 409, 'height': 410, 'widthPercent': 0.45, 'rescaleHeight': False, 'trialN': 51, 'loaded': True, 'loadedTime': 3512.199999988079, 'positionName': 'RIGHT', 'positionCoords': [998.4, 335], 'bid': 8.26}]",106207.5,1669839243647,tacos,orange slices,9.94,8.26,-1.6799999999999997,tacos,826.4000000059605,827,826.8000000119209,True,u,107542.59999999404,1335.0999999940395,1669839244983,1336,HRV,HRV_0278,2022-11-30 20:18:36
52,"[{'imgObject': {}, 'id': 'apple slices', 'src': '/static/foodstim60/apple slices.jpg', 'key': 'u', 'origWidth': 409, 'origHeight': 410, 'width': 409, 'height': 410, 'widthPercent': 0.45, 'rescaleHeight': False, 'trialN': 52, 'loaded': True, 'loadedTime': 3438.199999988079, 'positionName': 'LEFT', 'positionCoords': [512.6, 335], 'bid': 7.47}, {'imgObject': {}, 'id': 'eggs', 'src': '/static/foodstim60/eggs.jpg', 'key': 'i', 'origWidth': 409, 'origHeight': 409, 'width': 409, 'height': 409, 'widthPercent': 0.45, 'rescaleHeight': False, 'trialN': 52, 'loaded': True, 'loadedTime': 3342.800000011921, 'positionName': 'RIGHT', 'positionCoords': [998.4, 335.5], 'bid': 5.08}]",107542.90000000596,1669839244983,apple slices,eggs,7.47,5.08,-2.3899999999999997,apple slices,1217.9000000059605,1218,1218.2999999821186,True,u,109271.09999999404,1728.199999988079,1669839246711,1728,HRV,HRV_0278,2022-11-30 20:18:36
53,"[{'imgObject': {}, 'id': 'avocado', 'src': '/static/foodstim60/avocado.jpg', 'key': 'u', 'origWidth': 409, 'origHeight': 409, 'width': 409, 'height': 409, 'widthPercent': 0.45, 'rescaleHeight': False, 'trialN': 53, 'loaded': True, 'loadedTime': 3458.699999988079, 'positionName': 'LEFT', 'positionCoords': [512.6, 335.5], 'bid': 6.79}, {'imgObject': {}, 'id': 'edamame', 'src': '/static/foodstim60/edamame.jpg', 'key': 'i', 'origWidth': 409, 'origHeight': 410, 'width': 409, 'height': 410, 'widthPercent': 0.45, 'rescaleHeight': False, 'trialN': 53, 'loaded': True, 'loadedTime': 3338.5999999940395, 'positionName': 'RIGHT', 'positionCoords': [998.4, 335], 'bid': 3.44}]",109271.30000001192,1669839246711,avocado,edamame,6.79,3.44,-3.35,edamame,1547.5999999940395,1548,1548.0,True,i,111334.19999998808,2062.899999976158,1669839248774,2063,HRV,HRV_0278,2022-11-30 20:18:36
54,"[{'imgObject': {}, 'id': 'mashed potato', 'src': '/static/foodstim60/mashed potato.jpg', 'key': 'u', 'origWidth': 409, 'origHeight': 409, 'width': 409, 'height': 409, 'widthPercent': 0.45, 'rescaleHeight': False, 'trialN': 54, 'loaded': True, 'loadedTime': 3301, 'positionName': 'LEFT', 'positionCoords': [512.6, 335.5], 'bid': 9.95}, {'imgObject': {}, 'id': 'burger', 'src': '/static/foodstim60/burger.jpg', 'key': 'i', 'origWidth': 409, 'origHeight': 409, 'width': 409, 'height': 409, 'widthPercent': 0.45, 'rescaleHeight': False, 'trialN': 54, 'loaded': True, 'loadedTime': 3512.800000011921, 'positionName': 'RIGHT', 'positionCoords': [998.4, 335.5], 'bid': 9.97}]",111334.40000000596,1669839248774,mashed potato,burger,9.95,9.97,0.02000000000000135,burger,1126.2999999821186,1127,1126.699999988079,True,i,112966.30000001192,1631.9000000059605,1669839250406,1632,HRV,HRV_0278,2022-11-30 20:18:36
55,"[{'imgObject': {}, 'id': 'hashbrowns', 'src': '/static/foodstim60/hashbrowns.jpg', 'key': 'u', 'origWidth': 411, 'origHeight': 410, 'width': 411, 'height': 410, 'widthPercent': 0.45, 'rescaleHeight': False, 'trialN': 55, 'loaded': True, 'loadedTime': 3558.5999999940395, 'positionName': 'LEFT', 'positionCoords': [510.6, 335], 'bid': 0.03}, {'imgObject': {}, 'id': 'lox', 'src': '/static/foodstim60/lox.jpg', 'key': 'i', 'origWidth': 410, 'origHeight': 411, 'width': 410, 'height': 411, 'widthPercent': 0.45, 'rescaleHeight': False, 'trialN': 55, 'loaded': True, 'loadedTime': 3300.800000011921, 'positionName': 'RIGHT', 'positionCoords': [998.4, 334.5], 'bid': 0}]",112966.5,1669839250406,hashbrowns,lox,0.03,0.0,-0.03,lox,1765.0999999940395,1766,1765.4000000059605,True,i,115249.40000000596,2282.9000000059605,1669839252689,2283,HRV,HRV_0278,2022-11-30 20:18:36
56,"[{'imgObject': {}, 'id': 'cheerios', 'src': '/static/foodstim60/cheerios.jpg', 'key': 'u', 'origWidth': 409, 'origHeight': 410, 'width': 409, 'height': 410, 'widthPercent': 0.45, 'rescaleHeight': False, 'trialN': 56, 'loaded': True, 'loadedTime': 3323.699999988079, 'positionName': 'LEFT', 'positionCoords': [512.6, 335], 'bid': 4.92}, {'imgObject': {}, 'id': 'granola w milk', 'src': '/static/foodstim60/granola w milk.jpg', 'key': 'i', 'origWidth': 410, 'origHeight': 410, 'width': 410, 'height': 410, 'widthPercent': 0.45, 'rescaleHeight': False, 'trialN': 56, 'loaded': True, 'loadedTime': 3509.5999999940395, 'positionName': 'RIGHT', 'positionCoords': [998.4, 335], 'bid': 4.92}]",115249.69999998808,1669839252690,cheerios,granola w milk,4.92,4.92,0.0,granola w milk,3259,3259,3259.5,True,i,119024.69999998808,3775.0,1669839256465,3775,HRV,HRV_0278,2022-11-30 20:18:36
57,"[{'imgObject': {}, 'id': 'cantaloupe', 'src': '/static/foodstim60/cantaloupe.jpg', 'key': 'u', 'origWidth': 409, 'origHeight': 409, 'width': 409, 'height': 409, 'widthPercent': 0.45, 'rescaleHeight': False, 'trialN': 57, 'loaded': True, 'loadedTime': 3534.5, 'positionName': 'LEFT', 'positionCoords': [512.6, 335.5], 'bid': 8.11}, {'imgObject': {}, 'id': 'bagel and cc', 'src': '/static/foodstim60/bagel and cc.jpg', 'key': 'i', 'origWidth': 410, 'origHeight': 410, 'width': 410, 'height': 410, 'widthPercent': 0.45, 'rescaleHeight': False, 'trialN': 57, 'loaded': True, 'loadedTime': 3506.699999988079, 'positionName': 'RIGHT', 'positionCoords': [998.4, 335], 'bid': 7.79}]",119024.90000000596,1669839256465,cantaloupe,bagel and cc,8.11,7.79,-0.3199999999999994,bagel and cc,1520.5,1521,1521.199999988079,True,i,121052.30000001192,2027.4000000059605,1669839258492,2027,HRV,HRV_0278,2022-11-30 20:18:36
58,"[{'imgObject': {}, 'id': 'eggsalad', 'src': '/static/foodstim60/eggsalad.jpg', 'key': 'u', 'origWidth': 410, 'origHeight': 409, 'width': 410, 'height': 409, 'widthPercent': 0.45, 'rescaleHeight': False, 'trialN': 58, 'loaded': True, 'loadedTime': 3344.0999999940395, 'positionName': 'LEFT', 'positionCoords': [511.6, 335.5], 'bid': 5.0600000000000005}, {'imgObject': {}, 'id': 'turkey sandwich', 'src': '/static/foodstim60/turkey sandwich.jpg', 'key': 'i', 'origWidth': 409, 'origHeight': 409, 'width': 409, 'height': 409, 'widthPercent': 0.45, 'rescaleHeight': False, 'trialN': 58, 'loaded': True, 'loadedTime': 3501, 'positionName': 'RIGHT', 'positionCoords': [998.4, 335.5], 'bid': 9.87}]",121052.40000000596,1669839258492,eggsalad,turkey sandwich,5.0600000000000005,9.87,4.809999999999999,turkey sandwich,1012.1999999880791,1013,1012.9000000059605,True,i,122566.90000000596,1514.5,1669839260007,1515,HRV,HRV_0278,2022-11-30 20:18:36
59,"[{'imgObject': {}, 'id': 'raisin bran w milk', 'src': '/static/foodstim60/raisin bran w milk.jpg', 'key': 'u', 'origWidth': 411, 'origHeight': 411, 'width': 411, 'height': 411, 'widthPercent': 0.45, 'rescaleHeight': False, 'trialN': 59, 'loaded': True, 'loadedTime': 3427.699999988079, 'positionName': 'LEFT', 'positionCoords': [510.6, 334.5], 'bid': 5}, {'imgObject': {}, 'id': 'shreddedwheatwithmilk', 'src': '/static/foodstim60/shreddedwheatwithmilk.jpg', 'key': 'i', 'origWidth': 410, 'origHeight': 410, 'width': 410, 'height': 410, 'widthPercent': 0.45, 'rescaleHeight': False, 'trialN': 59, 'loaded': True, 'loadedTime': 3327.5, 'positionName': 'RIGHT', 'positionCoords': [998.4, 335], 'bid': 4.93}]",122567.09999999404,1669839260007,raisin bran w milk,shreddedwheatwithmilk,5.0,4.93,-0.07000000000000028,raisin bran w milk,2706,2706,2706.300000011921,True,u,125785.30000001192,3218.2000000178814,1669839263225,3218,HRV,HRV_0278,2022-11-30 20:18:36
60,"[{'imgObject': {}, 'id': 'grilled chicken strips', 'src': '/static/foodstim60/grilled chicken strips.jpg', 'key': 'u', 'origWidth': 410, 'origHeight': 411, 'width': 410, 'height': 411, 'widthPercent': 0.45, 'rescaleHeight': False, 'trialN': 60, 'loaded': True, 'loadedTime': 3559.5999999940395, 'positionName': 'LEFT', 'positionCoords': [511.6, 334.5], 'bid': 2}, {'imgObject': {}, 'id': 'bagel and cc', 'src': '/static/foodstim60/bagel and cc.jpg', 'key': 'i', 'origWidth': 410, 'origHeight': 410, 'width': 410, 'height': 410, 'widthPercent': 0.45, 'rescaleHeight': False, 'trialN': 60, 'loaded': True, 'loadedTime': 3508.199999988079, 'positionName': 'RIGHT', 'positionCoords': [998.4, 335], 'bid': 7.79}]",125785.59999999404,1669839263225,grilled chicken strips,bagel and cc,2.0,7.79,5.79,bagel and cc,1358.5,1359,1358.800000011921,True,i,127658.5,1872.9000000059605,1669839265098,1873,HRV,HRV_0278,2022-11-30 20:18:36
61,"[{'imgObject': {}, 'id': 'chicken nuggets2', 'src': '/static/foodstim60/chicken nuggets2.jpg', 'key': 'u', 'origWidth': 410, 'origHeight': 409, 'width': 410, 'height': 409, 'widthPercent': 0.45, 'rescaleHeight': False, 'trialN': 61, 'loaded': True, 'loadedTime': 3536.0999999940395, 'positionName': 'LEFT', 'positionCoords': [511.6, 335.5], 'bid': 7.56}, {'imgObject': {}, 'id': 'turkeysandwich', 'src': '/static/foodstim60/turkeysandwich.jpg', 'key': 'i', 'origWidth': 409, 'origHeight': 409, 'width': 409, 'height': 409, 'widthPercent': 0.45, 'rescaleHeight': False, 'trialN': 61, 'loaded': True, 'loadedTime': 3437.5, 'positionName': 'RIGHT', 'positionCoords': [998.4, 335.5], 'bid': 7.72}]",127658.80000001192,1669839265099,chicken nuggets2,turkeysandwich,7.56,7.72,0.16000000000000014,chicken nuggets2,1341.3999999761581,1342,1341.7999999821186,True,u,129520.59999999404,1861.7999999821186,1669839266960,1861,HRV,HRV_0278,2022-11-30 20:18:36
62,"[{'imgObject': {}, 'id': 'luckycharms', 'src': '/static/foodstim60/luckycharms.jpg', 'key': 'u', 'origWidth': 410, 'origHeight': 409, 'width': 410, 'height': 409, 'widthPercent': 0.45, 'rescaleHeight': False, 'trialN': 62, 'loaded': True, 'loadedTime': 3492.5999999940395, 'positionName': 'LEFT', 'positionCoords': [511.6, 335.5], 'bid': 0}, {'imgObject': {}, 'id': 'hashbrowns', 'src': '/static/foodstim60/hashbrowns.jpg', 'key': 'i', 'origWidth': 411, 'origHeight': 410, 'width': 411, 'height': 410, 'widthPercent': 0.45, 'rescaleHeight': False, 'trialN': 62, 'loaded': True, 'loadedTime': 3558.300000011921, 'positionName': 'RIGHT', 'positionCoords': [998.4, 335], 'bid': 0.03}]",129520.80000001192,1669839266961,luckycharms,hashbrowns,0.0,0.03,0.03,hashbrowns,2374.899999976158,2375,2375.2999999821186,True,i,132406.19999998808,2885.399999976158,1669839269846,2885,HRV,HRV_0278,2022-11-30 20:18:36
63,"[{'imgObject': {}, 'id': 'cherry tomato', 'src': '/static/foodstim60/cherry tomato.jpg', 'key': 'u', 'origWidth': 410, 'origHeight': 410, 'width': 410, 'height': 410, 'widthPercent': 0.45, 'rescaleHeight': False, 'trialN': 63, 'loaded': True, 'loadedTime': 3468, 'positionName': 'LEFT', 'positionCoords': [511.6, 335], 'bid': 3.27}, {'imgObject': {}, 'id': 'sweetpotato', 'src': '/static/foodstim60/sweetpotato.jpg', 'key': 'i', 'origWidth': 410, 'origHeight': 410, 'width': 410, 'height': 410, 'widthPercent': 0.45, 'rescaleHeight': False, 'trialN': 63, 'loaded': True, 'loadedTime': 3560.4000000059605, 'positionName': 'RIGHT', 'positionCoords': [998.4, 335], 'bid': 6.73}]",132406.40000000596,1669839269846,cherry tomato,sweetpotato,3.27,6.73,3.4600000000000004,cherry tomato,2556,2557,2556.4000000059605,True,u,135470.5,3064.0999999940395,1669839272910,3064,HRV,HRV_0278,2022-11-30 20:18:36
64,"[{'imgObject': {}, 'id': 'sweetpotato', 'src': '/static/foodstim60/sweetpotato.jpg', 'key': 'u', 'origWidth': 410, 'origHeight': 410, 'width': 410, 'height': 410, 'widthPercent': 0.45, 'rescaleHeight': False, 'trialN': 64, 'loaded': True, 'loadedTime': 3560.300000011921, 'positionName': 'LEFT', 'positionCoords': [511.6, 335], 'bid': 6.73}, {'imgObject': {}, 'id': 'avocado', 'src': '/static/foodstim60/avocado.jpg', 'key': 'i', 'origWidth': 409, 'origHeight': 409, 'width': 409, 'height': 409, 'widthPercent': 0.45, 'rescaleHeight': False, 'trialN': 64, 'loaded': True, 'loadedTime': 3449.699999988079, 'positionName': 'RIGHT', 'positionCoords': [998.4, 335.5], 'bid': 6.79}]",135470.69999998808,1669839272911,sweetpotato,avocado,6.73,6.79,0.05999999999999961,sweetpotato,1400.1000000238419,1400,1400.6000000238419,True,u,137376.80000001192,1906.1000000238419,1669839274817,1906,HRV,HRV_0278,2022-11-30 20:18:36
65,"[{'imgObject': {}, 'id': 'mashed potato', 'src': '/static/foodstim60/mashed potato.jpg', 'key': 'u', 'origWidth': 409, 'origHeight': 409, 'width': 409, 'height': 409, 'widthPercent': 0.45, 'rescaleHeight': False, 'trialN': 65, 'loaded': True, 'loadedTime': 3301.9000000059605, 'positionName': 'LEFT', 'positionCoords': [512.6, 335.5], 'bid': 9.95}, {'imgObject': {}, 'id': 'sweetpotato', 'src': '/static/foodstim60/sweetpotato.jpg', 'key': 'i', 'origWidth': 410, 'origHeight': 410, 'width': 410, 'height': 410, 'widthPercent': 0.45, 'rescaleHeight': False, 'trialN': 65, 'loaded': True, 'loadedTime': 3559.800000011921, 'positionName': 'RIGHT', 'positionCoords': [998.4, 335], 'bid': 6.73}]",137377.0,1669839274817,mashed potato,sweetpotato,9.95,6.73,-3.219999999999999,mashed potato,1087.800000011921,1088,1088.0999999940395,True,u,138983.5,1606.5,1669839276423,1606,HRV,HRV_0278,2022-11-30 20:18:36
66,"[{'imgObject': {}, 'id': 'salmon', 'src': '/static/foodstim60/salmon.jpg', 'key': 'u', 'origWidth': 410, 'origHeight': 409, 'width': 410, 'height': 409, 'widthPercent': 0.45, 'rescaleHeight': False, 'trialN': 66, 'loaded': True, 'loadedTime': 3404.699999988079, 'positionName': 'LEFT', 'positionCoords': [511.6, 335.5], 'bid': 2.22}, {'imgObject': {}, 'id': 'steak', 'src': '/static/foodstim60/steak.jpg', 'key': 'i', 'origWidth': 410, 'origHeight': 410, 'width': 410, 'height': 410, 'widthPercent': 0.45, 'rescaleHeight': False, 'trialN': 66, 'loaded': True, 'loadedTime': 3332.5, 'positionName': 'RIGHT', 'positionCoords': [998.4, 335], 'bid': 2.08}]",138983.59999999404,1669839276424,salmon,steak,2.22,2.08,-0.14000000000000012,steak,2319.300000011921,2319,2319.7000000178814,True,i,141811.59999999404,2828.0,1669839279251,2827,HRV,HRV_0278,2022-11-30 20:18:36
67,"[{'imgObject': {}, 'id': 'froot loops w milk', 'src': '/static/foodstim60/froot loops w milk.jpg', 'key': 'u', 'origWidth': 410, 'origHeight': 410, 'width': 410, 'height': 410, 'widthPercent': 0.45, 'rescaleHeight': False, 'trialN': 67, 'loaded': True, 'loadedTime': 3348, 'positionName': 'LEFT', 'positionCoords': [511.6, 335], 'bid': 0.03}, {'imgObject': {}, 'id': 'rigatoni', 'src': '/static/foodstim60/rigatoni.jpg', 'key': 'i', 'origWidth': 411, 'origHeight': 411, 'width': 411, 'height': 411, 'widthPercent': 0.45, 'rescaleHeight': False, 'trialN': 67, 'loaded': True, 'loadedTime': 3467.9000000059605, 'positionName': 'RIGHT', 'positionCoords': [998.4, 334.5], 'bid': 0.08}]",141811.90000000596,1669839279252,froot loops w milk,rigatoni,0.03,0.08,0.05,rigatoni,1505.5999999940395,1506,1506.0,True,i,143823.69999998808,2011.7999999821186,1669839281264,2012,HRV,HRV_0278,2022-11-30 20:18:36
68,"[{'imgObject': {}, 'id': 'strawberries', 'src': '/static/foodstim60/strawberries.jpg', 'key': 'u', 'origWidth': 410, 'origHeight': 410, 'width': 410, 'height': 410, 'widthPercent': 0.45, 'rescaleHeight': False, 'trialN': 68, 'loaded': True, 'loadedTime': 3332.5, 'positionName': 'LEFT', 'positionCoords': [511.6, 335], 'bid': 8.89}, {'imgObject': {}, 'id': 'chicken nuggets2', 'src': '/static/foodstim60/chicken nuggets2.jpg', 'key': 'i', 'origWidth': 410, 'origHeight': 409, 'width': 410, 'height': 409, 'widthPercent': 0.45, 'rescaleHeight': False, 'trialN': 68, 'loaded': True, 'loadedTime': 3535.5, 'positionName': 'RIGHT', 'positionCoords': [998.4, 335.5], 'bid': 7.56}]",143823.90000000596,1669839281264,strawberries,chicken nuggets2,8.89,7.56,-1.330000000000001,chicken nuggets2,1302.2999999821186,1303,1302.699999988079,True,i,145639.0,1815.0999999940395,1669839283079,1815,HRV,HRV_0278,2022-11-30 20:18:36
69,"[{'imgObject': {}, 'id': 'bagel and cc', 'src': '/static/foodstim60/bagel and cc.jpg', 'key': 'u', 'origWidth': 410, 'origHeight': 410, 'width': 410, 'height': 410, 'widthPercent': 0.45, 'rescaleHeight': False, 'trialN': 69, 'loaded': True, 'loadedTime': 3501.300000011921, 'positionName': 'LEFT', 'positionCoords': [511.6, 335], 'bid': 7.79}, {'imgObject': {}, 'id': 'avocado', 'src': '/static/foodstim60/avocado.jpg', 'key': 'i', 'origWidth': 409, 'origHeight': 409, 'width': 409, 'height': 409, 'widthPercent': 0.45, 'rescaleHeight': False, 'trialN': 69, 'loaded': True, 'loadedTime': 3459.4000000059605, 'positionName': 'RIGHT', 'positionCoords': [998.4, 335.5], 'bid': 6.79}]",145639.0,1669839283079,bagel and cc,avocado,7.79,6.79,-1.0,avocado,2023.800000011921,2024,2024.0999999940395,True,i,148167.59999999404,2528.5999999940395,1669839285608,2529,HRV,HRV_0278,2022-11-30 20:18:36
70,"[{'imgObject': {}, 'id': 'burrito', 'src': '/static/foodstim60/burrito.jpg', 'key': 'u', 'origWidth': 410, 'origHeight': 410, 'width': 410, 'height': 410, 'widthPercent': 0.45, 'rescaleHeight': False, 'trialN': 70, 'loaded': True, 'loadedTime': 3334.199999988079, 'positionName': 'LEFT', 'positionCoords': [511.6, 335], 'bid': 9.85}, {'imgObject': {}, 'id': 'burger', 'src': '/static/foodstim60/burger.jpg', 'key': 'i', 'origWidth': 409, 'origHeight': 409, 'width': 409, 'height': 409, 'widthPercent': 0.45, 'rescaleHeight': False, 'trialN': 70, 'loaded': True, 'loadedTime': 3513.699999988079, 'positionName': 'RIGHT', 'positionCoords': [998.4, 335.5], 'bid': 9.97}]",148167.80000001192,1669839285608,burrito,burger,9.85,9.97,0.120000000000001,burrito,1892.5999999940395,1893,1893.0,True,u,150565.30000001192,2397.5,1669839288005,2397,HRV,HRV_0278,2022-11-30 20:18:36
71,"[{'imgObject': {}, 'id': 'banana', 'src': '/static/foodstim60/banana.jpg', 'key': 'u', 'origWidth': 410, 'origHeight': 410, 'width': 410, 'height': 410, 'widthPercent': 0.45, 'rescaleHeight': False, 'trialN': 71, 'loaded': True, 'loadedTime': 3550.5999999940395, 'positionName': 'LEFT', 'positionCoords': [511.6, 335], 'bid': 7.45}, {'imgObject': {}, 'id': 'fried eggs', 'src': '/static/foodstim60/fried eggs.jpg', 'key': 'i', 'origWidth': 410, 'origHeight': 410, 'width': 410, 'height': 410, 'widthPercent': 0.45, 'rescaleHeight': False, 'trialN': 71, 'loaded': True, 'loadedTime': 3560.9000000059605, 'positionName': 'RIGHT', 'positionCoords': [998.4, 335], 'bid': 7.45}]",150565.59999999404,1669839288005,banana,fried eggs,7.45,7.45,0.0,fried eggs,1646.5,1647,1646.800000011921,True,i,152731.30000001192,2165.7000000178814,1669839290171,2166,HRV,HRV_0278,2022-11-30 20:18:36
72,"[{'imgObject': {}, 'id': 'salmon', 'src': '/static/foodstim60/salmon.jpg', 'key': 'u', 'origWidth': 410, 'origHeight': 409, 'width': 410, 'height': 409, 'widthPercent': 0.45, 'rescaleHeight': False, 'trialN': 72, 'loaded': True, 'loadedTime': 3398.300000011921, 'positionName': 'LEFT', 'positionCoords': [511.6, 335.5], 'bid': 2.22}, {'imgObject': {}, 'id': 'blackbeanswithrice', 'src': '/static/foodstim60/blackbeanswithrice.jpg', 'key': 'i', 'origWidth': 410, 'origHeight': 410, 'width': 410, 'height': 410, 'widthPercent': 0.45, 'rescaleHeight': False, 'trialN': 72, 'loaded': True, 'loadedTime': 3567.699999988079, 'positionName': 'RIGHT', 'positionCoords': [998.4, 335], 'bid': 6.03}]",152731.5,1669839290171,salmon,blackbeanswithrice,2.22,6.03,3.81,blackbeanswithrice,1260,1261,1260.699999988079,True,i,154505.40000000596,1773.9000000059605,1669839291945,1774,HRV,HRV_0278,2022-11-30 20:18:36
73,"[{'imgObject': {}, 'id': 'seaweed', 'src': '/static/foodstim60/seaweed.jpg', 'key': 'u', 'origWidth': 410, 'origHeight': 410, 'width': 410, 'height': 410, 'widthPercent': 0.45, 'rescaleHeight': False, 'trialN': 73, 'loaded': True, 'loadedTime': 3345.300000011921, 'positionName': 'LEFT', 'positionCoords': [511.6, 335], 'bid': 5.04}, {'imgObject': {}, 'id': 'kiwi', 'src': '/static/foodstim60/kiwi.jpg', 'key': 'i', 'origWidth': 410, 'origHeight': 410, 'width': 410, 'height': 410, 'widthPercent': 0.45, 'rescaleHeight': False, 'trialN': 73, 'loaded': True, 'loadedTime': 3526.5, 'positionName': 'RIGHT', 'positionCoords': [998.4, 335], 'bid': 5.0600000000000005}]",154505.59999999404,1669839291946,seaweed,kiwi,5.04,5.0600000000000005,0.020000000000000462,seaweed,3371.2000000178814,3383,3371.5,True,u,158389.59999999404,3884.0,1669839295841,3895,HRV,HRV_0278,2022-11-30 20:18:36
74,"[{'imgObject': {}, 'id': 'sushi w_condiments', 'src': '/static/foodstim60/sushi w_condiments.jpg', 'key': 'u', 'origWidth': 410, 'origHeight': 410, 'width': 410, 'height': 410, 'widthPercent': 0.45, 'rescaleHeight': False, 'trialN': 74, 'loaded': True, 'loadedTime': 3345.5999999940395, 'positionName': 'LEFT', 'positionCoords': [511.6, 335], 'bid': 9.94}, {'imgObject': {}, 'id': 'bagel plain', 'src': '/static/foodstim60/bagel plain.jpg', 'key': 'i', 'origWidth': 410, 'origHeight': 410, 'width': 410, 'height': 410, 'widthPercent': 0.45, 'rescaleHeight': False, 'trialN': 74, 'loaded': True, 'loadedTime': 3569, 'positionName': 'RIGHT', 'positionCoords': [998.4, 335], 'bid': 5.1000000000000005}]",158389.80000001192,1669839295841,sushi w_condiments,bagel plain,9.94,5.1000000000000005,-4.839999999999999,sushi w_condiments,1221.3999999761581,1222,1221.7999999821186,True,u,160116.80000001192,1727.0,1669839297568,1727,HRV,HRV_0278,2022-11-30 20:18:36
75,"[{'imgObject': {}, 'id': 'hashbrowns', 'src': '/static/foodstim60/hashbrowns.jpg', 'key': 'u', 'origWidth': 411, 'origHeight': 410, 'width': 411, 'height': 410, 'widthPercent': 0.45, 'rescaleHeight': False, 'trialN': 75, 'loaded': True, 'loadedTime': 3552.300000011921, 'positionName': 'LEFT', 'positionCoords': [510.6, 335], 'bid': 0.03}, {'imgObject': {}, 'id': 'hotdog w must', 'src': '/static/foodstim60/hotdog w must.jpg', 'key': 'i', 'origWidth': 409, 'origHeight': 409, 'width': 409, 'height': 409, 'widthPercent': 0.45, 'rescaleHeight': False, 'trialN': 75, 'loaded': True, 'loadedTime': 3336.0999999940395, 'positionName': 'RIGHT', 'positionCoords': [998.4, 335.5], 'bid': 4.92}]",160117.09999999404,1669839297569,hashbrowns,hotdog w must,0.03,4.92,4.89,hotdog w must,1615.9000000059605,1616,1616.4000000059605,True,i,162247.5,2130.4000000059605,1669839299699,2130,HRV,HRV_0278,2022-11-30 20:18:36
76,"[{'imgObject': {}, 'id': 'luckycharms', 'src': '/static/foodstim60/luckycharms.jpg', 'key': 'u', 'origWidth': 410, 'origHeight': 409, 'width': 410, 'height': 409, 'widthPercent': 0.45, 'rescaleHeight': False, 'trialN': 76, 'loaded': True, 'loadedTime': 3493.300000011921, 'positionName': 'LEFT', 'positionCoords': [511.6, 335.5], 'bid': 0}, {'imgObject': {}, 'id': 'Tribe humus pita', 'src': '/static/foodstim60/Tribe humus pita.jpg', 'key': 'i', 'origWidth': 411, 'origHeight': 411, 'width': 411, 'height': 411, 'widthPercent': 0.45, 'rescaleHeight': False, 'trialN': 76, 'loaded': True, 'loadedTime': 3359.699999988079, 'positionName': 'RIGHT', 'positionCoords': [998.4, 334.5], 'bid': 7.46}]",162247.69999998808,1669839299699,luckycharms,Tribe humus pita,0.0,7.46,7.46,Tribe humus pita,1542.1000000238419,1543,1542.5,True,i,164301.19999998808,2053.5,1669839301753,2054,HRV,HRV_0278,2022-11-30 20:18:36
77,"[{'imgObject': {}, 'id': 'cocktailshrimp', 'src': '/static/foodstim60/cocktailshrimp.jpg', 'key': 'u', 'origWidth': 410, 'origHeight': 410, 'width': 410, 'height': 410, 'widthPercent': 0.45, 'rescaleHeight': False, 'trialN': 77, 'loaded': True, 'loadedTime': 3397.699999988079, 'positionName': 'LEFT', 'positionCoords': [511.6, 335], 'bid': 0}, {'imgObject': {}, 'id': 'luckycharms', 'src': '/static/foodstim60/luckycharms.jpg', 'key': 'i', 'origWidth': 410, 'origHeight': 409, 'width': 410, 'height': 409, 'widthPercent': 0.45, 'rescaleHeight': False, 'trialN': 77, 'loaded': True, 'loadedTime': 3493.4000000059605, 'positionName': 'RIGHT', 'positionCoords': [998.4, 335.5], 'bid': 0}]",164301.40000000596,1669839301753,cocktailshrimp,luckycharms,0.0,0.0,0.0,luckycharms,2348.5999999940395,2349,2349.0,True,i,167156.80000001192,2855.4000000059605,1669839304608,2855,HRV,HRV_0278,2022-11-30 20:18:36
78,"[{'imgObject': {}, 'id': 'tacos', 'src': '/static/foodstim60/tacos.jpg', 'key': 'u', 'origWidth': 411, 'origHeight': 411, 'width': 411, 'height': 411, 'widthPercent': 0.45, 'rescaleHeight': False, 'trialN': 78, 'loaded': True, 'loadedTime': 3405.800000011921, 'positionName': 'LEFT', 'positionCoords': [510.6, 334.5], 'bid': 9.94}, {'imgObject': {}, 'id': 'blackbeanswithrice', 'src': '/static/foodstim60/blackbeanswithrice.jpg', 'key': 'i', 'origWidth': 410, 'origHeight': 410, 'width': 410, 'height': 410, 'widthPercent': 0.45, 'rescaleHeight': False, 'trialN': 78, 'loaded': True, 'loadedTime': 3567.9000000059605, 'positionName': 'RIGHT', 'positionCoords': [998.4, 335], 'bid': 6.03}]",167156.90000000596,1669839304609,tacos,blackbeanswithrice,9.94,6.03,-3.9099999999999993,tacos,1394.2999999821186,1394,1394.699999988079,True,u,169060.40000000596,1903.5,1669839306512,1903,HRV,HRV_0278,2022-11-30 20:18:36
79,"[{'imgObject': {}, 'id': 'hotdog w must', 'src': '/static/foodstim60/hotdog w must.jpg', 'key': 'u', 'origWidth': 409, 'origHeight': 409, 'width': 409, 'height': 409, 'widthPercent': 0.45, 'rescaleHeight': False, 'trialN': 79, 'loaded': True, 'loadedTime': 3336.199999988079, 'positionName': 'LEFT', 'positionCoords': [512.6, 335.5], 'bid': 4.92}, {'imgObject': {}, 'id': 'granola w milk', 'src': '/static/foodstim60/granola w milk.jpg', 'key': 'i', 'origWidth': 410, 'origHeight': 410, 'width': 410, 'height': 410, 'widthPercent': 0.45, 'rescaleHeight': False, 'trialN': 79, 'loaded': True, 'loadedTime': 3509.5999999940395, 'positionName': 'RIGHT', 'positionCoords': [998.4, 335], 'bid': 4.92}]",169060.5,1669839306512,hotdog w must,granola w milk,4.92,4.92,0.0,granola w milk,1914.800000011921,1915,1915.0999999940395,True,i,171489.09999999404,2428.5999999940395,1669839308941,2429,HRV,HRV_0278,2022-11-30 20:18:36
80,"[{'imgObject': {}, 'id': 'shreddedwheatwithmilk', 'src': '/static/foodstim60/shreddedwheatwithmilk.jpg', 'key': 'u', 'origWidth': 410, 'origHeight': 410, 'width': 410, 'height': 410, 'widthPercent': 0.45, 'rescaleHeight': False, 'trialN': 80, 'loaded': True, 'loadedTime': 3326.0999999940395, 'positionName': 'LEFT', 'positionCoords': [511.6, 335], 'bid': 4.93}, {'imgObject': {}, 'id': 'rigatoni and sauce', 'src': '/static/foodstim60/rigatoni and sauce.jpg', 'key': 'i', 'origWidth': 410, 'origHeight': 411, 'width': 410, 'height': 411, 'widthPercent': 0.45, 'rescaleHeight': False, 'trialN': 80, 'loaded': True, 'loadedTime': 3535.300000011921, 'positionName': 'RIGHT', 'positionCoords': [998.4, 334.5], 'bid': 5.01}]",171489.30000001192,1669839308941,shreddedwheatwithmilk,rigatoni and sauce,4.93,5.01,0.08000000000000007,rigatoni and sauce,2723.7999999821186,2724,2724.199999988079,True,i,174720.80000001192,3231.5,1669839312172,3231,HRV,HRV_0278,2022-11-30 20:18:36
81,"[{'imgObject': {}, 'id': 'grilled chicken strips', 'src': '/static/foodstim60/grilled chicken strips.jpg', 'key': 'u', 'origWidth': 410, 'origHeight': 411, 'width': 410, 'height': 411, 'widthPercent': 0.45, 'rescaleHeight': False, 'trialN': 81, 'loaded': True, 'loadedTime': 3559.4000000059605, 'positionName': 'LEFT', 'positionCoords': [511.6, 334.5], 'bid': 2}, {'imgObject': {}, 'id': 'olives', 'src': '/static/foodstim60/olives.jpg', 'key': 'i', 'origWidth': 410, 'origHeight': 410, 'width': 410, 'height': 410, 'widthPercent': 0.45, 'rescaleHeight': False, 'trialN': 81, 'loaded': True, 'loadedTime': 3493.9000000059605, 'positionName': 'RIGHT', 'positionCoords': [998.4, 335], 'bid': 0.08}]",174721.0,1669839312173,grilled chicken strips,olives,2.0,0.08,-1.92,grilled chicken strips,2211.4000000059605,2212,2211.9000000059605,True,u,177441.59999999404,2720.5999999940395,1669839314893,2720,HRV,HRV_0278,2022-11-30 20:18:36
82,"[{'imgObject': {}, 'id': 'luckycharms', 'src': '/static/foodstim60/luckycharms.jpg', 'key': 'u', 'origWidth': 410, 'origHeight': 409, 'width': 410, 'height': 409, 'widthPercent': 0.45, 'rescaleHeight': False, 'trialN': 82, 'loaded': True, 'loadedTime': 3493.4000000059605, 'positionName': 'LEFT', 'positionCoords': [511.6, 335.5], 'bid': 0}, {'imgObject': {}, 'id': 'steak', 'src': '/static/foodstim60/steak.jpg', 'key': 'i', 'origWidth': 410, 'origHeight': 410, 'width': 410, 'height': 410, 'widthPercent': 0.45, 'rescaleHeight': False, 'trialN': 82, 'loaded': True, 'loadedTime': 3332.300000011921, 'positionName': 'RIGHT', 'positionCoords': [998.4, 335], 'bid': 2.08}]",177441.80000001192,1669839314893,luckycharms,steak,0.0,2.08,2.08,steak,955.5999999940395,956,956.0999999940395,True,i,178914.59999999404,1472.7999999821186,1669839316366,1473,HRV,HRV_0278,2022-11-30 20:18:36
83,"[{'imgObject': {}, 'id': 'pear', 'src': '/static/foodstim60/pear.jpg', 'key': 'u', 'origWidth': 411, 'origHeight': 410, 'width': 411, 'height': 410, 'widthPercent': 0.45, 'rescaleHeight': False, 'trialN': 83, 'loaded': True, 'loadedTime': 3470.5999999940395, 'positionName': 'LEFT', 'positionCoords': [510.6, 335], 'bid': 7.79}, {'imgObject': {}, 'id': 'sweetpotato', 'src': '/static/foodstim60/sweetpotato.jpg', 'key': 'i', 'origWidth': 410, 'origHeight': 410, 'width': 410, 'height': 410, 'widthPercent': 0.45, 'rescaleHeight': False, 'trialN': 83, 'loaded': True, 'loadedTime': 3560.4000000059605, 'positionName': 'RIGHT', 'positionCoords': [998.4, 335], 'bid': 6.73}]",178914.80000001192,1669839316366,pear,sweetpotato,7.79,6.73,-1.0599999999999996,pear,3116.5,3117,3116.7999999821186,True,u,182546.40000000596,3631.5999999940395,1669839319998,3632,HRV,HRV_0278,2022-11-30 20:18:36
84,"[{'imgObject': {}, 'id': 'eggs', 'src': '/static/foodstim60/eggs.jpg', 'key': 'u', 'origWidth': 409, 'origHeight': 409, 'width': 409, 'height': 409, 'widthPercent': 0.45, 'rescaleHeight': False, 'trialN': 84, 'loaded': True, 'loadedTime': 3342.9000000059605, 'positionName': 'LEFT', 'positionCoords': [512.6, 335.5], 'bid': 5.08}, {'imgObject': {}, 'id': 'raisin bran w milk', 'src': '/static/foodstim60/raisin bran w milk.jpg', 'key': 'i', 'origWidth': 411, 'origHeight': 411, 'width': 411, 'height': 411, 'widthPercent': 0.45, 'rescaleHeight': False, 'trialN': 84, 'loaded': True, 'loadedTime': 3428.0999999940395, 'positionName': 'RIGHT', 'positionCoords': [998.4, 334.5], 'bid': 5}]",182546.69999998808,1669839319998,eggs,raisin bran w milk,5.08,5.0,-0.08000000000000007,raisin bran w milk,1931.2000000178814,1932,1931.5,True,i,184992.40000000596,2445.7000000178814,1669839322444,2446,HRV,HRV_0278,2022-11-30 20:18:36
85,"[{'imgObject': {}, 'id': 'mango', 'src': '/static/foodstim60/mango.jpg', 'key': 'u', 'origWidth': 411, 'origHeight': 411, 'width': 411, 'height': 411, 'widthPercent': 0.45, 'rescaleHeight': False, 'trialN': 85, 'loaded': True, 'loadedTime': 3526.300000011921, 'positionName': 'LEFT', 'positionCoords': [510.6, 334.5], 'bid': 7.140000000000001}, {'imgObject': {}, 'id': 'chicken nuggets2', 'src': '/static/foodstim60/chicken nuggets2.jpg', 'key': 'i', 'origWidth': 410, 'origHeight': 409, 'width': 410, 'height': 409, 'widthPercent': 0.45, 'rescaleHeight': False, 'trialN': 85, 'loaded': True, 'loadedTime': 3536.0999999940395, 'positionName': 'RIGHT', 'positionCoords': [998.4, 335.5], 'bid': 7.56}]",184992.69999998808,1669839322444,mango,chicken nuggets2,7.140000000000001,7.56,0.41999999999999904,chicken nuggets2,1379.800000011921,1381,1380.300000011921,True,i,186889.40000000596,1896.7000000178814,1669839324341,1897,HRV,HRV_0278,2022-11-30 20:18:36
86,"[{'imgObject': {}, 'id': 'rigatoni', 'src': '/static/foodstim60/rigatoni.jpg', 'key': 'u', 'origWidth': 411, 'origHeight': 411, 'width': 411, 'height': 411, 'widthPercent': 0.45, 'rescaleHeight': False, 'trialN': 86, 'loaded': True, 'loadedTime': 3467.699999988079, 'positionName': 'LEFT', 'positionCoords': [510.6, 334.5], 'bid': 0.08}, {'imgObject': {}, 'id': 'turkeysandwich', 'src': '/static/foodstim60/turkeysandwich.jpg', 'key': 'i', 'origWidth': 409, 'origHeight': 409, 'width': 409, 'height': 409, 'widthPercent': 0.45, 'rescaleHeight': False, 'trialN': 86, 'loaded': True, 'loadedTime': 3429, 'positionName': 'RIGHT', 'positionCoords': [998.4, 335.5], 'bid': 7.72}]",186889.59999999404,1669839324341,rigatoni,turkeysandwich,0.08,7.72,7.64,turkeysandwich,1862.0999999940395,1863,1862.4000000059605,True,i,189272.59999999404,2383.0,1669839326724,2383,HRV,HRV_0278,2022-11-30 20:18:36
87,"[{'imgObject': {}, 'id': 'turkeysandwich', 'src': '/static/foodstim60/turkeysandwich.jpg', 'key': 'u', 'origWidth': 409, 'origHeight': 409, 'width': 409, 'height': 409, 'widthPercent': 0.45, 'rescaleHeight': False, 'trialN': 87, 'loaded': True, 'loadedTime': 3429, 'positionName': 'LEFT', 'positionCoords': [512.6, 335.5], 'bid': 7.72}, {'imgObject': {}, 'id': 'apple slices', 'src': '/static/foodstim60/apple slices.jpg', 'key': 'i', 'origWidth': 409, 'origHeight': 410, 'width': 409, 'height': 410, 'widthPercent': 0.45, 'rescaleHeight': False, 'trialN': 87, 'loaded': True, 'loadedTime': 3447.9000000059605, 'positionName': 'RIGHT', 'positionCoords': [998.4, 335], 'bid': 7.47}]",189272.90000000596,1669839326724,turkeysandwich,apple slices,7.72,7.47,-0.25,apple slices,1372.699999988079,1374,1373.0999999940395,True,i,191159.40000000596,1886.5,1669839328611,1887,HRV,HRV_0278,2022-11-30 20:18:36
88,"[{'imgObject': {}, 'id': 'cantaloupe', 'src': '/static/foodstim60/cantaloupe.jpg', 'key': 'u', 'origWidth': 409, 'origHeight': 409, 'width': 409, 'height': 409, 'widthPercent': 0.45, 'rescaleHeight': False, 'trialN': 88, 'loaded': True, 'loadedTime': 3534.5999999940395, 'positionName': 'LEFT', 'positionCoords': [512.6, 335.5], 'bid': 8.11}, {'imgObject': {}, 'id': 'salad w chicken', 'src': '/static/foodstim60/salad w chicken.jpg', 'key': 'i', 'origWidth': 411, 'origHeight': 411, 'width': 411, 'height': 411, 'widthPercent': 0.45, 'rescaleHeight': False, 'trialN': 88, 'loaded': True, 'loadedTime': 3330.4000000059605, 'positionName': 'RIGHT', 'positionCoords': [998.4, 334.5], 'bid': 10}]",191159.59999999404,1669839328611,cantaloupe,salad w chicken,8.11,10.0,1.8900000000000006,salad w chicken,1215,1216,1215.5,True,i,192892.90000000596,1733.300000011921,1669839330344,1733,HRV,HRV_0278,2022-11-30 20:18:36
89,"[{'imgObject': {}, 'id': 'burrito', 'src': '/static/foodstim60/burrito.jpg', 'key': 'u', 'origWidth': 410, 'origHeight': 410, 'width': 410, 'height': 410, 'widthPercent': 0.45, 'rescaleHeight': False, 'trialN': 89, 'loaded': True, 'loadedTime': 3334.199999988079, 'positionName': 'LEFT', 'positionCoords': [511.6, 335], 'bid': 9.85}, {'imgObject': {}, 'id': 'kiwi', 'src': '/static/foodstim60/kiwi.jpg', 'key': 'i', 'origWidth': 410, 'origHeight': 410, 'width': 410, 'height': 410, 'widthPercent': 0.45, 'rescaleHeight': False, 'trialN': 89, 'loaded': True, 'loadedTime': 3532.5999999940395, 'positionName': 'RIGHT', 'positionCoords': [998.4, 335], 'bid': 5.0600000000000005}]",192893.09999999404,1669839330345,burrito,kiwi,9.85,5.0600000000000005,-4.789999999999999,burrito,970.5999999940395,971,970.8000000119209,True,u,194383.90000000596,1490.800000011921,1669839331836,1491,HRV,HRV_0278,2022-11-30 20:18:36
90,"[{'imgObject': {}, 'id': 'lox', 'src': '/static/foodstim60/lox.jpg', 'key': 'u', 'origWidth': 410, 'origHeight': 411, 'width': 410, 'height': 411, 'widthPercent': 0.45, 'rescaleHeight': False, 'trialN': 90, 'loaded': True, 'loadedTime': 3300.699999988079, 'positionName': 'LEFT', 'positionCoords': [511.6, 334.5], 'bid': 0}, {'imgObject': {}, 'id': 'banana', 'src': '/static/foodstim60/banana.jpg', 'key': 'i', 'origWidth': 410, 'origHeight': 410, 'width': 410, 'height': 410, 'widthPercent': 0.45, 'rescaleHeight': False, 'trialN': 90, 'loaded': True, 'loadedTime': 3551, 'positionName': 'RIGHT', 'positionCoords': [998.4, 335], 'bid': 7.45}]",207509.40000000596,1669839344961,lox,banana,0.0,7.45,7.45,banana,1356.199999988079,1357,1356.5999999940395,True,i,209372.5,1863.0999999940395,1669839346824,1863,HRV,HRV_0278,2022-11-30 20:18:36
91,"[{'imgObject': {}, 'id': 'raspberries', 'src': '/static/foodstim60/raspberries.jpg', 'key': 'u', 'origWidth': 411, 'origHeight': 411, 'width': 411, 'height': 411, 'widthPercent': 0.45, 'rescaleHeight': False, 'trialN': 91, 'loaded': True, 'loadedTime': 3416, 'positionName': 'LEFT', 'positionCoords': [510.6, 334.5], 'bid': 7.94}, {'imgObject': {}, 'id': 'omelette', 'src': '/static/foodstim60/omelette.jpg', 'key': 'i', 'origWidth': 410, 'origHeight': 409, 'width': 410, 'height': 409, 'widthPercent': 0.45, 'rescaleHeight': False, 'trialN': 91, 'loaded': True, 'loadedTime': 3340.300000011921, 'positionName': 'RIGHT', 'positionCoords': [998.4, 335.5], 'bid': 7.98}]",209372.69999998808,1669839346824,raspberries,omelette,7.94,7.98,0.040000000000000036,omelette,1207.1000000238419,1208,1207.4000000059605,True,i,211087.90000000596,1715.2000000178814,1669839348539,1715,HRV,HRV_0278,2022-11-30 20:18:36
92,"[{'imgObject': {}, 'id': 'cocktailshrimp', 'src': '/static/foodstim60/cocktailshrimp.jpg', 'key': 'u', 'origWidth': 410, 'origHeight': 410, 'width': 410, 'height': 410, 'widthPercent': 0.45, 'rescaleHeight': False, 'trialN': 92, 'loaded': True, 'loadedTime': 3379.9000000059605, 'positionName': 'LEFT', 'positionCoords': [511.6, 335], 'bid': 0}, {'imgObject': {}, 'id': 'granola w milk', 'src': '/static/foodstim60/granola w milk.jpg', 'key': 'i', 'origWidth': 410, 'origHeight': 410, 'width': 410, 'height': 410, 'widthPercent': 0.45, 'rescaleHeight': False, 'trialN': 92, 'loaded': True, 'loadedTime': 3509.300000011921, 'positionName': 'RIGHT', 'positionCoords': [998.4, 335], 'bid': 4.92}]",211088.0,1669839348540,cocktailshrimp,granola w milk,0.0,4.92,4.92,granola w milk,1003.1999999880791,1003,1003.4000000059605,True,i,212599.59999999404,1511.5999999940395,1669839350051,1511,HRV,HRV_0278,2022-11-30 20:18:36
93,"[{'imgObject': {}, 'id': 'rigatoni and sauce', 'src': '/static/foodstim60/rigatoni and sauce.jpg', 'key': 'u', 'origWidth': 410, 'origHeight': 411, 'width': 410, 'height': 411, 'widthPercent': 0.45, 'rescaleHeight': False, 'trialN': 93, 'loaded': True, 'loadedTime': 3535.4000000059605, 'positionName': 'LEFT', 'positionCoords': [511.6, 334.5], 'bid': 5.01}, {'imgObject': {}, 'id': 'cherries', 'src': '/static/foodstim60/cherries.jpg', 'key': 'i', 'origWidth': 410, 'origHeight': 411, 'width': 410, 'height': 411, 'widthPercent': 0.45, 'rescaleHeight': False, 'trialN': 93, 'loaded': True, 'loadedTime': 3346.5999999940395, 'positionName': 'RIGHT', 'positionCoords': [998.4, 334.5], 'bid': 8.82}]",212599.90000000596,1669839350051,rigatoni and sauce,cherries,5.01,8.82,3.8100000000000005,cherries,964.2999999821186,965,964.7999999821186,True,i,214069.90000000596,1470.0,1669839351522,1471,HRV,HRV_0278,2022-11-30 20:18:36
94,"[{'imgObject': {}, 'id': 'grilled chicken strips', 'src': '/static/foodstim60/grilled chicken strips.jpg', 'key': 'u', 'origWidth': 410, 'origHeight': 411, 'width': 410, 'height': 411, 'widthPercent': 0.45, 'rescaleHeight': False, 'trialN': 94, 'loaded': True, 'loadedTime': 3558.800000011921, 'positionName': 'LEFT', 'positionCoords': [511.6, 334.5], 'bid': 2}, {'imgObject': {}, 'id': 'raisin bran w milk', 'src': '/static/foodstim60/raisin bran w milk.jpg', 'key': 'i', 'origWidth': 411, 'origHeight': 411, 'width': 411, 'height': 411, 'widthPercent': 0.45, 'rescaleHeight': False, 'trialN': 94, 'loaded': True, 'loadedTime': 3417.300000011921, 'positionName': 'RIGHT', 'positionCoords': [998.4, 334.5], 'bid': 5}]",214070.19999998808,1669839351522,grilled chicken strips,raisin bran w milk,2.0,5.0,3.0,raisin bran w milk,1134.300000011921,1134,1134.6000000238419,True,i,215722.19999998808,1652.0,1669839353174,1652,HRV,HRV_0278,2022-11-30 20:18:36
95,"[{'imgObject': {}, 'id': 'sushi w_condiments', 'src': '/static/foodstim60/sushi w_condiments.jpg', 'key': 'u', 'origWidth': 410, 'origHeight': 410, 'width': 410, 'height': 410, 'widthPercent': 0.45, 'rescaleHeight': False, 'trialN': 95, 'loaded': True, 'loadedTime': 3346.4000000059605, 'positionName': 'LEFT', 'positionCoords': [511.6, 335], 'bid': 9.94}, {'imgObject': {}, 'id': 'roastedpotatoes', 'src': '/static/foodstim60/roastedpotatoes.jpg', 'key': 'i', 'origWidth': 409, 'origHeight': 410, 'width': 409, 'height': 410, 'widthPercent': 0.45, 'rescaleHeight': False, 'trialN': 95, 'loaded': True, 'loadedTime': 3569.800000011921, 'positionName': 'RIGHT', 'positionCoords': [998.4, 335], 'bid': 7.92}]",215722.59999999404,1669839353174,sushi w_condiments,roastedpotatoes,9.94,7.92,-2.0199999999999996,sushi w_condiments,1220.9000000059605,1221,1221.2000000178814,True,u,217453.69999998808,1731.0999999940395,1669839354905,1731,HRV,HRV_0278,2022-11-30 20:18:36
96,"[{'imgObject': {}, 'id': 'olives', 'src': '/static/foodstim60/olives.jpg', 'key': 'u', 'origWidth': 410, 'origHeight': 410, 'width': 410, 'height': 410, 'widthPercent': 0.45, 'rescaleHeight': False, 'trialN': 96, 'loaded': True, 'loadedTime': 3499.800000011921, 'positionName': 'LEFT', 'positionCoords': [511.6, 335], 'bid': 0.08}, {'imgObject': {}, 'id': 'cocktailshrimp', 'src': '/static/foodstim60/cocktailshrimp.jpg', 'key': 'i', 'origWidth': 410, 'origHeight': 410, 'width': 410, 'height': 410, 'widthPercent': 0.45, 'rescaleHeight': False, 'trialN': 96, 'loaded': True, 'loadedTime': 3380.5999999940395, 'positionName': 'RIGHT', 'positionCoords': [998.4, 335], 'bid': 0}]",217453.90000000596,1669839354906,olives,cocktailshrimp,0.08,0.0,-0.08,olives,2631.5,2632,2631.9000000059605,True,u,220590.30000001192,3136.4000000059605,1669839358043,3137,HRV,HRV_0278,2022-11-30 20:18:36
97,"[{'imgObject': {}, 'id': 'raisin bran w milk', 'src': '/static/foodstim60/raisin bran w milk.jpg', 'key': 'u', 'origWidth': 411, 'origHeight': 411, 'width': 411, 'height': 411, 'widthPercent': 0.45, 'rescaleHeight': False, 'trialN': 97, 'loaded': True, 'loadedTime': 3428.0999999940395, 'positionName': 'LEFT', 'positionCoords': [510.6, 334.5], 'bid': 5}, {'imgObject': {}, 'id': 'luckycharms', 'src': '/static/foodstim60/luckycharms.jpg', 'key': 'i', 'origWidth': 410, 'origHeight': 409, 'width': 410, 'height': 409, 'widthPercent': 0.45, 'rescaleHeight': False, 'trialN': 97, 'loaded': True, 'loadedTime': 3493.300000011921, 'positionName': 'RIGHT', 'positionCoords': [998.4, 335.5], 'bid': 0}]",220590.5,1669839358043,raisin bran w milk,luckycharms,5.0,0.0,-5.0,raisin bran w milk,1402.0999999940395,1402,1402.4000000059605,True,u,222505.40000000596,1914.9000000059605,1669839359958,1915,HRV,HRV_0278,2022-11-30 20:18:36
98,"[{'imgObject': {}, 'id': 'strawberries', 'src': '/static/foodstim60/strawberries.jpg', 'key': 'u', 'origWidth': 410, 'origHeight': 410, 'width': 410, 'height': 410, 'widthPercent': 0.45, 'rescaleHeight': False, 'trialN': 98, 'loaded': True, 'loadedTime': 3333.0999999940395, 'positionName': 'LEFT', 'positionCoords': [511.6, 335], 'bid': 8.89}, {'imgObject': {}, 'id': 'cherries', 'src': '/static/foodstim60/cherries.jpg', 'key': 'i', 'origWidth': 410, 'origHeight': 411, 'width': 410, 'height': 411, 'widthPercent': 0.45, 'rescaleHeight': False, 'trialN': 98, 'loaded': True, 'loadedTime': 3347.0999999940395, 'positionName': 'RIGHT', 'positionCoords': [998.4, 334.5], 'bid': 8.82}]",222505.59999999404,1669839359958,strawberries,cherries,8.89,8.82,-0.07000000000000028,cherries,1270.0999999940395,1270,1270.4000000059605,True,i,224297.90000000596,1792.300000011921,1669839361750,1792,HRV,HRV_0278,2022-11-30 20:18:36
99,"[{'imgObject': {}, 'id': 'sweetpotato', 'src': '/static/foodstim60/sweetpotato.jpg', 'key': 'u', 'origWidth': 410, 'origHeight': 410, 'width': 410, 'height': 410, 'widthPercent': 0.45, 'rescaleHeight': False, 'trialN': 99, 'loaded': True, 'loadedTime': 3560.4000000059605, 'positionName': 'LEFT', 'positionCoords': [511.6, 335], 'bid': 6.73}, {'imgObject': {}, 'id': 'Tribe humus pita', 'src': '/static/foodstim60/Tribe humus pita.jpg', 'key': 'i', 'origWidth': 411, 'origHeight': 411, 'width': 411, 'height': 411, 'widthPercent': 0.45, 'rescaleHeight': False, 'trialN': 99, 'loaded': True, 'loadedTime': 3360, 'positionName': 'RIGHT', 'positionCoords': [998.4, 334.5], 'bid': 7.46}]",224298.09999999404,1669839361750,sweetpotato,Tribe humus pita,6.73,7.46,0.7299999999999995,Tribe humus pita,1830.5999999940395,1831,1831.0,True,i,226640.69999998808,2342.5999999940395,1669839364093,2343,HRV,HRV_0278,2022-11-30 20:18:36
100,"[{'imgObject': {}, 'id': 'blueberries', 'src': '/static/foodstim60/blueberries.jpg', 'key': 'u', 'origWidth': 411, 'origHeight': 411, 'width': 411, 'height': 411, 'widthPercent': 0.45, 'rescaleHeight': False, 'trialN': 100, 'loaded': True, 'loadedTime': 3298.4000000059605, 'positionName': 'LEFT', 'positionCoords': [510.6, 334.5], 'bid': 7.17}, {'imgObject': {}, 'id': 'banana', 'src': '/static/foodstim60/banana.jpg', 'key': 'i', 'origWidth': 410, 'origHeight': 410, 'width': 410, 'height': 410, 'widthPercent': 0.45, 'rescaleHeight': False, 'trialN': 100, 'loaded': True, 'loadedTime': 3549, 'positionName': 'RIGHT', 'positionCoords': [998.4, 335], 'bid': 7.45}]",226641.09999999404,1669839364093,blueberries,banana,7.17,7.45,0.28000000000000025,blueberries,1539.300000011921,1540,1539.7000000178814,True,u,228692.30000001192,2051.2000000178814,1669839366145,2052,HRV,HRV_0278,2022-11-30 20:18:36
101,"[{'imgObject': {}, 'id': 'salmon', 'src': '/static/foodstim60/salmon.jpg', 'key': 'u', 'origWidth': 410, 'origHeight': 409, 'width': 410, 'height': 409, 'widthPercent': 0.45, 'rescaleHeight': False, 'trialN': 101, 'loaded': True, 'loadedTime': 3405, 'positionName': 'LEFT', 'positionCoords': [511.6, 335.5], 'bid': 2.22}, {'imgObject': {}, 'id': 'raspberries', 'src': '/static/foodstim60/raspberries.jpg', 'key': 'i', 'origWidth': 411, 'origHeight': 411, 'width': 411, 'height': 411, 'widthPercent': 0.45, 'rescaleHeight': False, 'trialN': 101, 'loaded': True, 'loadedTime': 3415.199999988079, 'positionName': 'RIGHT', 'positionCoords': [998.4, 334.5], 'bid': 7.94}]",228692.5,1669839366145,salmon,raspberries,2.22,7.94,5.720000000000001,raspberries,938,938,938.4000000059605,True,i,230134.40000000596,1441.9000000059605,1669839367587,1442,HRV,HRV_0278,2022-11-30 20:18:36
102,"[{'imgObject': {}, 'id': 'mashed potato', 'src': '/static/foodstim60/mashed potato.jpg', 'key': 'u', 'origWidth': 409, 'origHeight': 409, 'width': 409, 'height': 409, 'widthPercent': 0.45, 'rescaleHeight': False, 'trialN': 102, 'loaded': True, 'loadedTime': 3301.5, 'positionName': 'LEFT', 'positionCoords': [512.6, 335.5], 'bid': 9.95}, {'imgObject': {}, 'id': 'omelette', 'src': '/static/foodstim60/omelette.jpg', 'key': 'i', 'origWidth': 410, 'origHeight': 409, 'width': 410, 'height': 409, 'widthPercent': 0.45, 'rescaleHeight': False, 'trialN': 102, 'loaded': True, 'loadedTime': 3340.5, 'positionName': 'RIGHT', 'positionCoords': [998.4, 335.5], 'bid': 7.98}]",230134.69999998808,1669839367587,mashed potato,omelette,9.95,7.98,-1.9699999999999989,omelette,1643.300000011921,1644,1643.6000000238419,True,i,232288.19999998808,2153.5,1669839369741,2154,HRV,HRV_0278,2022-11-30 20:18:36
103,"[{'imgObject': {}, 'id': 'bagel plain', 'src': '/static/foodstim60/bagel plain.jpg', 'key': 'u', 'origWidth': 410, 'origHeight': 410, 'width': 410, 'height': 410, 'widthPercent': 0.45, 'rescaleHeight': False, 'trialN': 103, 'loaded': True, 'loadedTime': 3568.800000011921, 'positionName': 'LEFT', 'positionCoords': [511.6, 335], 'bid': 5.1000000000000005}, {'imgObject': {}, 'id': 'blackbeanswithrice', 'src': '/static/foodstim60/blackbeanswithrice.jpg', 'key': 'i', 'origWidth': 410, 'origHeight': 410, 'width': 410, 'height': 410, 'widthPercent': 0.45, 'rescaleHeight': False, 'trialN': 103, 'loaded': True, 'loadedTime': 3561.800000011921, 'positionName': 'RIGHT', 'positionCoords': [998.4, 335], 'bid': 6.03}]",232288.5,1669839369741,bagel plain,blackbeanswithrice,5.1000000000000005,6.03,0.9299999999999997,blackbeanswithrice,968,968,968.3000000119209,True,i,233770.90000000596,1482.4000000059605,1669839371223,1482,HRV,HRV_0278,2022-11-30 20:18:36
104,"[{'imgObject': {}, 'id': 'chickenfingers', 'src': '/static/foodstim60/chickenfingers.jpg', 'key': 'u', 'origWidth': 410, 'origHeight': 410, 'width': 410, 'height': 410, 'widthPercent': 0.45, 'rescaleHeight': False, 'trialN': 104, 'loaded': True, 'loadedTime': 3302.5, 'positionName': 'LEFT', 'positionCoords': [511.6, 335], 'bid': 9.38}, {'imgObject': {}, 'id': 'cherries', 'src': '/static/foodstim60/cherries.jpg', 'key': 'i', 'origWidth': 410, 'origHeight': 411, 'width': 410, 'height': 411, 'widthPercent': 0.45, 'rescaleHeight': False, 'trialN': 104, 'loaded': True, 'loadedTime': 3347.199999988079, 'positionName': 'RIGHT', 'positionCoords': [998.4, 334.5], 'bid': 8.82}]",233771.09999999404,1669839371223,chickenfingers,cherries,9.38,8.82,-0.5600000000000005,cherries,1914,1915,1914.2000000178814,True,i,236189.19999998808,2418.0999999940395,1669839373642,2419,HRV,HRV_0278,2022-11-30 20:18:36
105,"[{'imgObject': {}, 'id': 'blueberries', 'src': '/static/foodstim60/blueberries.jpg', 'key': 'u', 'origWidth': 411, 'origHeight': 411, 'width': 411, 'height': 411, 'widthPercent': 0.45, 'rescaleHeight': False, 'trialN': 105, 'loaded': True, 'loadedTime': 3298.5999999940395, 'positionName': 'LEFT', 'positionCoords': [510.6, 334.5], 'bid': 7.17}, {'imgObject': {}, 'id': 'roastedpotatoes', 'src': '/static/foodstim60/roastedpotatoes.jpg', 'key': 'i', 'origWidth': 409, 'origHeight': 410, 'width': 409, 'height': 410, 'widthPercent': 0.45, 'rescaleHeight': False, 'trialN': 105, 'loaded': True, 'loadedTime': 3569.0999999940395, 'positionName': 'RIGHT', 'positionCoords': [998.4, 335], 'bid': 7.92}]",236189.40000000596,1669839373642,blueberries,roastedpotatoes,7.17,7.92,0.75,blueberries,1537.699999988079,1538,1538.0,True,u,238238.5,2049.0999999940395,1669839375691,2049,HRV,HRV_0278,2022-11-30 20:18:36
106,"[{'imgObject': {}, 'id': 'raspberries', 'src': '/static/foodstim60/raspberries.jpg', 'key': 'u', 'origWidth': 411, 'origHeight': 411, 'width': 411, 'height': 411, 'widthPercent': 0.45, 'rescaleHeight': False, 'trialN': 106, 'loaded': True, 'loadedTime': 3416.0999999940395, 'positionName': 'LEFT', 'positionCoords': [510.6, 334.5], 'bid': 7.94}, {'imgObject': {}, 'id': 'yogurt no spoon', 'src': '/static/foodstim60/yogurt no spoon.jpg', 'key': 'i', 'origWidth': 411, 'origHeight': 410, 'width': 411, 'height': 410, 'widthPercent': 0.45, 'rescaleHeight': False, 'trialN': 106, 'loaded': True, 'loadedTime': 3533.5999999940395, 'positionName': 'RIGHT', 'positionCoords': [998.4, 335], 'bid': 8.08}]",238238.59999999404,1669839375691,raspberries,yogurt no spoon,7.94,8.08,0.13999999999999968,yogurt no spoon,1191.4000000059605,1192,1191.800000011921,True,i,239947.0,1708.4000000059605,1669839377399,1708,HRV,HRV_0278,2022-11-30 20:18:36
107,"[{'imgObject': {}, 'id': 'veggieswithdip', 'src': '/static/foodstim60/veggieswithdip.jpg', 'key': 'u', 'origWidth': 409, 'origHeight': 409, 'width': 409, 'height': 409, 'widthPercent': 0.45, 'rescaleHeight': False, 'trialN': 107, 'loaded': True, 'loadedTime': 3372.5, 'positionName': 'LEFT', 'positionCoords': [512.6, 335.5], 'bid': 8.36}, {'imgObject': {}, 'id': 'raspberries', 'src': '/static/foodstim60/raspberries.jpg', 'key': 'i', 'origWidth': 411, 'origHeight': 411, 'width': 411, 'height': 411, 'widthPercent': 0.45, 'rescaleHeight': False, 'trialN': 107, 'loaded': True, 'loadedTime': 3416.300000011921, 'positionName': 'RIGHT', 'positionCoords': [998.4, 334.5], 'bid': 7.94}]",239947.19999998808,1669839377399,veggieswithdip,raspberries,8.36,7.94,-0.41999999999999904,veggieswithdip,966.9000000059605,968,967.3000000119209,True,u,241429.5,1482.300000011921,1669839378882,1483,HRV,HRV_0278,2022-11-30 20:18:36
108,"[{'imgObject': {}, 'id': 'cheerios', 'src': '/static/foodstim60/cheerios.jpg', 'key': 'u', 'origWidth': 409, 'origHeight': 410, 'width': 409, 'height': 410, 'widthPercent': 0.45, 'rescaleHeight': False, 'trialN': 108, 'loaded': True, 'loadedTime': 3325.800000011921, 'positionName': 'LEFT', 'positionCoords': [512.6, 335], 'bid': 4.92}, {'imgObject': {}, 'id': 'froot loops w milk', 'src': '/static/foodstim60/froot loops w milk.jpg', 'key': 'i', 'origWidth': 410, 'origHeight': 410, 'width': 410, 'height': 410, 'widthPercent': 0.45, 'rescaleHeight': False, 'trialN': 108, 'loaded': True, 'loadedTime': 3348.199999988079, 'positionName': 'RIGHT', 'positionCoords': [998.4, 335], 'bid': 0.03}]",241429.69999998808,1669839378882,cheerios,froot loops w milk,4.92,0.03,-4.89,cheerios,1141,1141,1141.300000011921,True,u,243082.19999998808,1652.5,1669839380535,1653,HRV,HRV_0278,2022-11-30 20:18:36
