success,trial_type,trial_index,time_elapsed,internal_node_id,Block,TrialNumber,TrialTime,trialTimeDiff,FPS_avg,FPS_med,FPS_mode,TrialDur,winResizeTime,rt,block,button_pressed,MotCoh,MotDir,ColCoh,Color,ChoiceKey,Choice,Accuracy,RT,nFrames,FPS,PPD,missTrial,missTrialMsg,onsetDelay,fullScreenExitTime,canvCenter,TrialType,Score,BlockTrial,stimulus,button_labels,exp,subjectId,date
True,fullscreen,0,1367,0.0-0.0,0.0,1.0,,,,,,,,,,,,,,,,,,,,,,,,,,,,,,,,HRV,HRV_0278,2022-11-30 20:41:16
,wl-check-fps,1,5521,0.0-1.0,0.0,2.0,"[1809.2, 1812.1, 1826, 1839.8, 1853.7, 1870.4, 1886.2, 1899.2, 1913.8, 1923, 1937.5, 1953.2, 1967.7, 1981.2, 1995.1, 2006.3, 2020.5, 2034.5, 2048.4, 2062.1, 2076.4, 2089.8, 2103.7, 2117.4, 2131.3, 2145.4, 2159.3, 2173.2, 2186.9, 2200.6, 2214.6, 2228.5, 2242.5, 2256.2, 2270.4, 2284.3, 2297.9, 2311.5, 2325.5, 2339.4, 2353.4, 2367.2, 2381, 2394.8, 2408.9, 2423.1, 2436.8, 2450.5, 2464.2, 2478.3, 2492, 2506, 2519.8, 2533.8, 2547.6, 2561.5, 2575.4, 2589.4, 2603.1, 2617, 2630.9, 2644.8, 2658.4, 2672.6, 2686.5, 2700.6, 2714.1, 2728.1, 2741.9, 2755.8, 2769.8, 2783.5, 2797.6, 2811.2, 2825.3, 2839.1, 2852.8, 2866.7, 2880.6, 2894.5, 2908.3, 2922.1, 2936.5, 2950.3, 2964, 2977.9, 2992, 3005.6, 3019.3, 3033.4, 3047, 3060.9, 3075, 3088.8, 3102.9, 3116.6, 3130.6, 3144.3, 3158.2, 3172.3, 3185.7, 3199.6, 3213.4, 3231.5, 3241.4, 3259.5, 3269.6, 3283.1, 3299.2, 3310.6, 3324.5, 3338.5, 3352.2, 3366.3, 3380.2, 3394.1, 3408, 3421.9, 3436, 3449.6, 3463.3, 3477.5, 3491.1, 3505, 3518.8, 3533, 3546.8, 3560.8, 3574.4, 3588.4, 3602, 3615.9, 3629.9, 3643.7, 3657.7, 3671.5, 3685.5, 3699.3, 3713.3, 3726.9, 3740.8, 3754.9, 3768.7, 3782.5, 3796.4, 3810.3, 3824.2, 3838.3, 3852, 3865.7, 3879.8, 3893.4, 3907.4, 3921.3, 3935.4, 3949.2, 3963, 3977, 3990.6, 4004.4, 4018.5, 4032.2, 4046, 4060.1, 4073.8, 4087.8, 4101.6, 4115.4, 4129.2, 4143.3, 4157, 4171.1, 4184.9, 4198.9, 4212.6, 4226.5, 4241, 4254.4, 4268.6, 4281.9, 4295.7, 4309.5, 4323.5, 4337.5, 4351.5, 4365.2, 4379.2, 4392.8, 4407.1, 4420.6, 4434.6, 4448.5, 4462.3, 4476.4, 4490.4, 4504.4, 4517.9, 4531.8, 4545.6, 4559.4, 4573.2, 4587.4, 4601.1, 4615, 4628.7, 4642.6, 4656.6, 4670.5, 4684.4, 4698.2, 4712.2, 4725.9, 4739.8, 4753.5, 4767.3, 4781.3, 4795.4, 4809.4, 4823, 4836.9, 4851, 4865, 4878.8, 4892.6, 4906.1, 4920.2, 4934.1, 4948.1, 4961.8, 4975.8, 4989.6, 5003.4, 5017.5, 5031.5, 5045.1, 5059.1, 5072.7, 5086.8, 5100.5, 5114.5, 5128.4, 5142.1, 5156.2, 5170, 5183.9, 5197.5, 5215.4, 5225.2, 5243.6, 5254, 5267.3, 5284.2, 5294.7, 5308.6, 5322.4, 5336.6, 5350.3, 5364.3, 5378.3, 5391.9, 5405.8, 5420.1, 5433.7, 5447.1, 5464.8, 5475, 5488.8, 5504.9, 5520, 5533.1, 5544.5, 5558.3, 5574.4, 5588.8, 5602.5, 5616.3, 5627.7, 5641.7, 5658, 5672.3, 5686, 5700.6, 5710.8, 5724.8, 5741.1, 5755.2, 5769.8, 5783.1, 5794.2, 5808.2, 5824.3, 5838.6, 5852.7, 5863.4, 5877.7, 5893.7, 5908.6, 5921.7, 5935.8, 5946.9]","[0.8, 2.9, 13.9, 13.8, 13.9, 16.7, 15.8, 13, 14.6, 9.2, 14.5, 15.7, 14.5, 13.5, 13.9, 11.2, 14.2, 14, 13.9, 13.7, 14.3, 13.4, 13.9, 13.7, 13.9, 14.1, 13.9, 13.9, 13.7, 13.7, 14, 13.9, 14, 13.7, 14.2, 13.9, 13.6, 13.6, 14, 13.9, 14, 13.8, 13.8, 13.8, 14.1, 14.2, 13.7, 13.7, 13.7, 14.1, 13.7, 14, 13.8, 14, 13.8, 13.9, 13.9, 14, 13.7, 13.9, 13.9, 13.9, 13.6, 14.2, 13.9, 14.1, 13.5, 14, 13.8, 13.9, 14, 13.7, 14.1, 13.6, 14.1, 13.8, 13.7, 13.9, 13.9, 13.9, 13.8, 13.8, 14.4, 13.8, 13.7, 13.9, 14.1, 13.6, 13.7, 14.1, 13.6, 13.9, 14.1, 13.8, 14.1, 13.7, 14, 13.7, 13.9, 14.1, 13.4, 13.9, 13.8, 18.1, 9.9, 18.1, 10.1, 13.5, 16.1, 11.4, 13.9, 14, 13.7, 14.1, 13.9, 13.9, 13.9, 13.9, 14.1, 13.6, 13.7, 14.2, 13.6, 13.9, 13.8, 14.2, 13.8, 14, 13.6, 14, 13.6, 13.9, 14, 13.8, 14, 13.8, 14, 13.8, 14, 13.6, 13.9, 14.1, 13.8, 13.8, 13.9, 13.9, 13.9, 14.1, 13.7, 13.7, 14.1, 13.6, 14, 13.9, 14.1, 13.8, 13.8, 14, 13.6, 13.8, 14.1, 13.7, 13.8, 14.1, 13.7, 14, 13.8, 13.8, 13.8, 14.1, 13.7, 14.1, 13.8, 14, 13.7, 13.9, 14.5, 13.4, 14.2, 13.3, 13.8, 13.8, 14, 14, 14, 13.7, 14, 13.6, 14.3, 13.5, 14, 13.9, 13.8, 14.1, 14, 14, 13.5, 13.9, 13.8, 13.8, 13.8, 14.2, 13.7, 13.9, 13.7, 13.9, 14, 13.9, 13.9, 13.8, 14, 13.7, 13.9, 13.7, 13.8, 14, 14.1, 14, 13.6, 13.9, 14.1, 14, 13.8, 13.8, 13.5, 14.1, 13.9, 14, 13.7, 14, 13.8, 13.8, 14.1, 14, 13.6, 14, 13.6, 14.1, 13.7, 14, 13.9, 13.7, 14.1, 13.8, 13.9, 13.6, 17.9, 9.8, 18.4, 10.4, 13.3, 16.9, 10.5, 13.9, 13.8, 14.2, 13.7, 14, 14, 13.6, 13.9, 14.3, 13.6, 13.4, 17.7, 10.2, 13.8, 16.1, 15.1, 13.1, 11.4, 13.8, 16.1, 14.4, 13.7, 13.8, 11.4, 14, 16.3, 14.3, 13.7, 14.6, 10.2, 14, 16.3, 14.1, 14.6, 13.3, 11.1, 14, 16.1, 14.3, 14.1, 10.7, 14.3, 16, 14.9, 13.1, 14.1, 11.1]",72.0,72.0,72.0,4152.4,[],,,,,,,,,,,,,,,,,,,,,,,,,HRV,HRV_0278,2022-11-30 20:41:16
,wl-html-keyboard-response,2,20829,0.0-2.0-0.0,0.0,3.0,,,,,,,,13282.200000017881,0.0,0,,,,,,,,,,,,,,,,,,,,,,HRV,HRV_0278,2022-11-30 20:41:16
,wl-rdm,3,27721,0.0-3.0-0.0,0.0,4.0,,,,,,,[],,,,0.0,0.0,87.9,0.0,u,0.0,True,1265.5,46.0,72.0,40.0,False,,3000.0,[],"[960, 540]",ColorTask_Demo,,,,,HRV,HRV_0278,2022-11-30 20:41:16
,wl-rdm,4,32465,0.0-3.0-1.0,0.0,5.0,,,,,,,[],,,,0.0,0.0,87.9,1.0,i,1.0,True,601.4000000059605,22.0,72.0,40.0,False,,2000.0,[],"[960, 540]",ColorTask_Demo,,,,,HRV,HRV_0278,2022-11-30 20:41:16
,wl-html-keyboard-response,5,36444,0.0-3.0-2.0,0.0,6.0,,,,,,,,1973.0999999940395,0.0,1,,,,,,,,,,,,,,,,,,,,,,HRV,HRV_0278,2022-11-30 20:41:16
,wl-html-keyboard-response,6,46364,0.0-4.0-0.0,0.0,7.0,,,,,,,,7914.800000011921,0.0,0,,,,,,,,,,,,,,,,,,,,,,HRV,HRV_0278,2022-11-30 20:41:16
,wl-html-keyboard-response,7,55212,0.0-5.0-0.0,0.0,8.0,,,,,,,,6841.5,0.0,0,,,,,,,,,,,,,,,,,,,,,,HRV,HRV_0278,2022-11-30 20:41:16
,wl-rdm,8,57494,0.0-6.0-0.0,0.0,9.0,,,,,,,[],,,,,,50.0,1.0,u,0.0,False,860.7999999821186,32.0,72.0,40.0,False,,304.0455341004944,[],"[960, 540]",ColorTask,-1.0,1.0,,,HRV,HRV_0278,2022-11-30 20:41:16
,wl-rdm,9,59465,0.0-6.1-0.1,0.0,10.0,,,,,,,[],,,,,,87.9,1.0,i,1.0,True,573.5,21.0,72.0,40.0,False,,276.1275224741786,[],"[960, 540]",ColorTask,0.0,2.0,,,HRV,HRV_0278,2022-11-30 20:41:16
,wl-rdm,10,61657,0.0-6.2-0.2,0.0,11.0,,,,,,,[],,,,,,73.6,0.0,u,0.0,True,748.6999999880791,27.0,72.0,40.0,False,,307.76593820731784,[],"[960, 540]",ColorTask,1.0,3.0,,,HRV,HRV_0278,2022-11-30 20:41:16
,wl-rdm,11,63821,0.0-6.3-0.3,0.0,12.0,,,,,,,[],,,,,,50.0,1.0,u,0.0,False,779.7000000178814,29.0,72.0,40.0,False,,246.49276803677824,[],"[960, 540]",ColorTask,0.0,4.0,,,HRV,HRV_0278,2022-11-30 20:41:16
,wl-rdm,12,65875,0.0-6.4-0.4,0.0,13.0,,,,,,,[],,,,,,73.6,0.0,u,0.0,True,703.5999999940395,26.0,72.0,40.0,False,,206.57299677817005,[],"[960, 540]",ColorTask,1.0,5.0,,,HRV,HRV_0278,2022-11-30 20:41:16
,wl-rdm,13,68012,0.0-6.5-0.5,0.0,14.0,,,,,,,[],,,,,,62.5,0.0,u,0.0,True,755.4999999701977,28.0,72.0,40.0,False,,247.09542860257574,[],"[960, 540]",ColorTask,2.0,6.0,,,HRV,HRV_0278,2022-11-30 20:41:16
,wl-rdm,14,70065,0.0-6.6-0.6,0.0,15.0,,,,,,,[],,,,,,73.6,1.0,i,1.0,True,564.6999999880791,21.0,72.0,40.0,False,,384.7222532317464,[],"[960, 540]",ColorTask,3.0,7.0,,,HRV,HRV_0278,2022-11-30 20:41:16
,wl-rdm,15,72118,0.0-6.7-0.7,0.0,16.0,,,,,,,[],,,,,,87.9,0.0,u,0.0,True,589.0000000298023,22.0,72.0,40.0,False,,316.24903894011004,[],"[960, 540]",ColorTask,4.0,8.0,,,HRV,HRV_0278,2022-11-30 20:41:16
,wl-rdm,16,74311,0.0-6.8-0.8,0.0,17.0,,,,,,,[],,,,,,56.4,1.0,i,1.0,True,801.9000000059605,29.0,72.0,40.0,False,,250.73864616395358,[],"[960, 540]",ColorTask,5.0,9.0,,,HRV,HRV_0278,2022-11-30 20:41:16
,wl-rdm,17,76420,0.0-6.9-0.9,0.0,18.0,,,,,,,[],,,,,,50.0,1.0,i,1.0,True,597.0999999940395,22.0,72.0,40.0,False,,383.39218864229827,[],"[960, 540]",ColorTask,6.0,10.0,,,HRV,HRV_0278,2022-11-30 20:41:16
,wl-rdm,18,78445,0.0-6.10-0.10,0.0,19.0,,,,,,,[],,,,,,62.5,0.0,i,1.0,False,666.9000000059605,25.0,72.0,40.0,False,,200.46253641142675,[],"[960, 540]",ColorTask,5.0,11.0,,,HRV,HRV_0278,2022-11-30 20:41:16
,wl-rdm,19,80832,0.0-6.11-0.11,0.0,20.0,,,,,,,[],,,,,,50.0,0.0,u,0.0,True,1011.8000000119209,37.0,72.0,40.0,False,,234.55394395053094,[],"[960, 540]",ColorTask,6.0,12.0,,,HRV,HRV_0278,2022-11-30 20:41:16
,wl-rdm,20,82802,0.0-6.12-0.12,0.0,21.0,,,,,,,[],,,,,,73.6,1.0,i,1.0,True,571.4000000059605,21.0,72.0,40.0,False,,265.68997682797465,[],"[960, 540]",ColorTask,7.0,13.0,,,HRV,HRV_0278,2022-11-30 20:41:16
,wl-rdm,21,84967,0.0-6.13-0.13,0.0,22.0,,,,,,,[],,,,,,50.0,0.0,u,0.0,True,736.4000000059605,27.0,72.0,40.0,False,,314.5939361611022,[],"[960, 540]",ColorTask,8.0,14.0,,,HRV,HRV_0278,2022-11-30 20:41:16
,wl-rdm,22,87186,0.0-6.14-0.14,0.0,23.0,,,,,,,[],,,,,,73.6,0.0,i,1.0,False,702.6000000238419,26.0,72.0,40.0,False,,365.5880110548025,[],"[960, 540]",ColorTask,7.0,15.0,,,HRV,HRV_0278,2022-11-30 20:41:16
,wl-rdm,23,89545,0.0-6.15-0.15,0.0,24.0,,,,,,,[],,,,,,50.0,1.0,u,0.0,False,990.5,36.0,72.0,40.0,False,,240.2196688545456,[],"[960, 540]",ColorTask,6.0,16.0,,,HRV,HRV_0278,2022-11-30 20:41:16
,wl-rdm,24,91627,0.0-6.16-0.16,0.0,25.0,,,,,,,[],,,,,,53.2,1.0,i,1.0,True,645.9000000059605,24.0,72.0,40.0,False,,282.60234588386754,[],"[960, 540]",ColorTask,7.0,17.0,,,HRV,HRV_0278,2022-11-30 20:41:16
,wl-rdm,25,93901,0.0-6.17-0.17,0.0,26.0,,,,,,,[],,,,,,62.5,0.0,u,0.0,True,895.3000000119209,33.0,72.0,40.0,False,,233.55879615981536,[],"[960, 540]",ColorTask,8.0,18.0,,,HRV,HRV_0278,2022-11-30 20:41:16
,wl-rdm,26,96399,0.0-6.18-0.18,0.0,27.0,,,,,,,[],,,,,,53.2,1.0,u,0.0,False,1037.4000000059605,38.0,72.0,40.0,False,,308.1621938246036,[],"[960, 540]",ColorTask,7.0,19.0,,,HRV,HRV_0278,2022-11-30 20:41:16
,wl-rdm,27,98341,0.0-6.19-0.19,0.0,28.0,,,,,,,[],,,,,,87.9,1.0,i,1.0,True,581.0999999940395,21.0,72.0,40.0,False,,224.43331657495716,[],"[960, 540]",ColorTask,8.0,20.0,,,HRV,HRV_0278,2022-11-30 20:41:16
,wl-rdm,28,100478,0.0-6.20-0.20,0.0,29.0,,,,,,,[],,,,,,56.4,1.0,i,1.0,True,666.9000000059605,25.0,72.0,40.0,False,,330.4012564967654,[],"[960, 540]",ColorTask,9.0,21.0,,,HRV,HRV_0278,2022-11-30 20:41:16
,wl-rdm,29,102504,0.0-6.21-0.21,0.0,30.0,,,,,,,[],,,,,,87.9,1.0,i,1.0,True,633.2000000178814,23.0,72.0,40.0,False,,274.0364985593719,[],"[960, 540]",ColorTask,10.0,22.0,,,HRV,HRV_0278,2022-11-30 20:41:16
,wl-rdm,30,104640,0.0-6.22-0.22,0.0,31.0,,,,,,,[],,,,,,73.6,1.0,i,1.0,True,623.9000000059605,23.0,72.0,40.0,False,,383.5799368102744,[],"[960, 540]",ColorTask,11.0,23.0,,,HRV,HRV_0278,2022-11-30 20:41:16
,wl-rdm,31,106610,0.0-6.23-0.23,0.0,32.0,,,,,,,[],,,,,,87.9,1.0,i,1.0,True,602.0999999940395,22.0,72.0,40.0,False,,250.24502710160013,[],"[960, 540]",ColorTask,12.0,24.0,,,HRV,HRV_0278,2022-11-30 20:41:16
,wl-rdm,32,108636,0.0-6.24-0.24,0.0,33.0,,,,,,,[],,,,,,87.9,0.0,u,0.0,True,602.2999999821186,22.0,72.0,40.0,False,,283.40412434962064,[],"[960, 540]",ColorTask,13.0,25.0,,,HRV,HRV_0278,2022-11-30 20:41:16
,wl-rdm,33,110717,0.0-6.25-0.25,0.0,34.0,,,,,,,[],,,,,,50.0,0.0,i,1.0,False,714.6999999880791,26.0,72.0,40.0,False,,236.74638259576662,[],"[960, 540]",ColorTask,12.0,26.0,,,HRV,HRV_0278,2022-11-30 20:41:16
,wl-rdm,34,113076,0.0-6.26-0.26,0.0,35.0,,,,,,,[],,,,,,53.2,0.0,u,0.0,True,1016.5,37.0,72.0,40.0,False,,230.05254272549473,[],"[960, 540]",ColorTask,13.0,27.0,,,HRV,HRV_0278,2022-11-30 20:41:16
,wl-rdm,35,115380,0.0-6.27-0.27,0.0,36.0,,,,,,,[],,,,,,53.2,1.0,i,1.0,True,788.7999999821186,29.0,72.0,40.0,False,,384.49469287326826,[],"[960, 540]",ColorTask,14.0,28.0,,,HRV,HRV_0278,2022-11-30 20:41:16
,wl-rdm,36,117821,0.0-6.28-0.28,0.0,37.0,,,,,,,[],,,,,,53.2,1.0,i,1.0,True,1005.0,37.0,72.0,40.0,False,,294.197465189722,[],"[960, 540]",ColorTask,15.0,29.0,,,HRV,HRV_0278,2022-11-30 20:41:16
,wl-rdm,37,119958,0.0-6.29-0.29,0.0,38.0,,,,,,,[],,,,,,53.2,1.0,u,0.0,False,660.8000000119209,24.0,72.0,40.0,False,,340.5172374200692,[],"[960, 540]",ColorTask,14.0,30.0,,,HRV,HRV_0278,2022-11-30 20:41:16
,wl-rdm,38,122150,0.0-6.30-0.30,0.0,39.0,,,,,,,[],,,,,,62.5,1.0,i,1.0,True,754.8000000119209,28.0,72.0,40.0,False,,297.06620885571715,[],"[960, 540]",ColorTask,15.0,31.0,,,HRV,HRV_0278,2022-11-30 20:41:16
,wl-rdm,39,124564,0.0-6.31-0.31,0.0,40.0,,,,,,,[],,,,,,56.4,0.0,u,0.0,True,894.0,33.0,72.0,40.0,False,,386.12459721119967,[],"[960, 540]",ColorTask,16.0,32.0,,,HRV,HRV_0278,2022-11-30 20:41:16
,wl-rdm,40,126812,0.0-6.32-0.32,0.0,41.0,,,,,,,[],,,,,,62.5,0.0,i,1.0,False,755.1999999880791,28.0,72.0,40.0,False,,357.5182823682718,[],"[960, 540]",ColorTask,15.0,33.0,,,HRV,HRV_0278,2022-11-30 20:41:16
,wl-rdm,41,129012,0.0-6.33-0.33,0.0,42.0,,,,,,,[],,,,,,56.4,1.0,i,1.0,True,720.6999999880791,26.0,72.0,40.0,False,,358.13734201627005,[],"[960, 540]",ColorTask,16.0,34.0,,,HRV,HRV_0278,2022-11-30 20:41:16
,wl-rdm,42,131169,0.0-6.34-0.34,0.0,43.0,,,,,,,[],,,,,,53.2,1.0,i,1.0,True,770.0999999940395,28.0,72.0,40.0,False,,260.1512452494034,[],"[960, 540]",ColorTask,17.0,35.0,,,HRV,HRV_0278,2022-11-30 20:41:16
,wl-rdm,43,133138,0.0-6.35-0.35,0.0,44.0,,,,,,,[],,,,,,53.2,1.0,i,1.0,True,602.7999999821186,22.0,72.0,40.0,False,,224.76386411181142,[],"[960, 540]",ColorTask,18.0,36.0,,,HRV,HRV_0278,2022-11-30 20:41:16
,wl-rdm,44,135220,0.0-6.36-0.36,0.0,45.0,,,,,,,[],,,,,,87.9,0.0,u,0.0,True,608.3999999761581,22.0,72.0,40.0,False,,333.41119563152785,[],"[960, 540]",ColorTask,19.0,37.0,,,HRV,HRV_0278,2022-11-30 20:41:16
,wl-rdm,45,137273,0.0-6.37-0.37,0.0,46.0,,,,,,,[],,,,,,56.4,0.0,i,1.0,False,705.5999999940395,26.0,72.0,40.0,False,,221.6946859534663,[],"[960, 540]",ColorTask,18.0,38.0,,,HRV,HRV_0278,2022-11-30 20:41:16
,wl-rdm,46,139354,0.0-6.38-0.38,0.0,47.0,,,,,,,[],,,,,,53.2,1.0,u,0.0,False,714.9000000357628,26.0,72.0,40.0,False,,237.27255711396464,[],"[960, 540]",ColorTask,17.0,39.0,,,HRV,HRV_0278,2022-11-30 20:41:16
,wl-rdm,47,141436,0.0-6.39-0.39,0.0,48.0,,,,,,,[],,,,,,56.4,1.0,i,1.0,True,604.8000000119209,22.0,72.0,40.0,False,,350.63233150579595,[],"[960, 540]",ColorTask,18.0,40.0,,,HRV,HRV_0278,2022-11-30 20:41:16
,wl-rdm,48,143628,0.0-6.40-0.40,0.0,49.0,,,,,,,[],,,,,,56.4,0.0,u,0.0,True,782.5999999940395,29.0,72.0,40.0,False,,254.85238307593448,[],"[960, 540]",ColorTask,19.0,41.0,,,HRV,HRV_0278,2022-11-30 20:41:16
,wl-rdm,49,145764,0.0-6.41-0.41,0.0,50.0,,,,,,,[],,,,,,56.4,1.0,i,1.0,True,742.0,27.0,72.0,40.0,False,,271.28904588225663,[],"[960, 540]",ColorTask,20.0,42.0,,,HRV,HRV_0278,2022-11-30 20:41:16
,wl-rdm,50,147846,0.0-6.42-0.42,0.0,51.0,,,,,,,[],,,,,,62.5,0.0,i,1.0,False,623.5,23.0,72.0,40.0,False,,356.148396586844,[],"[960, 540]",ColorTask,19.0,43.0,,,HRV,HRV_0278,2022-11-30 20:41:16
,wl-rdm,51,149954,0.0-6.43-0.43,0.0,52.0,,,,,,,[],,,,,,50.0,1.0,i,1.0,True,626.6999999880791,23.0,72.0,40.0,False,,346.9622846023739,[],"[960, 540]",ColorTask,20.0,44.0,,,HRV,HRV_0278,2022-11-30 20:41:16
,wl-rdm,52,152064,0.0-6.44-0.44,0.0,53.0,,,,,,,[],,,,,,62.5,0.0,u,0.0,True,631.2999999821186,23.0,72.0,40.0,False,,338.7228668867774,[],"[960, 540]",ColorTask,21.0,45.0,,,HRV,HRV_0278,2022-11-30 20:41:16
,wl-rdm,53,154339,0.0-6.45-0.45,0.0,54.0,,,,,,,[],,,,,,62.5,1.0,i,1.0,True,732.7999999821186,27.0,72.0,40.0,False,,391.0772762194986,[],"[960, 540]",ColorTask,22.0,46.0,,,HRV,HRV_0278,2022-11-30 20:41:16
,wl-rdm,54,156365,0.0-6.46-0.46,0.0,55.0,,,,,,,[],,,,,,87.9,1.0,i,1.0,True,655.6000000238419,24.0,72.0,40.0,False,,228.83734659968437,[],"[960, 540]",ColorTask,23.0,47.0,,,HRV,HRV_0278,2022-11-30 20:41:16
,wl-rdm,55,158668,0.0-6.47-0.47,0.0,56.0,,,,,,,[],,,,,,50.0,1.0,u,0.0,False,805.5,30.0,72.0,40.0,False,,341.6096634861021,[],"[960, 540]",ColorTask,22.0,48.0,,,HRV,HRV_0278,2022-11-30 20:41:16
,wl-rdm,56,160860,0.0-6.48-0.48,0.0,57.0,,,,,,,[],,,,,,87.9,0.0,u,0.0,True,716.5999999940395,26.0,72.0,40.0,False,,339.91210029210475,[],"[960, 540]",ColorTask,23.0,49.0,,,HRV,HRV_0278,2022-11-30 20:41:16
,wl-rdm,57,163163,0.0-6.49-0.49,0.0,58.0,,,,,,,[],,,,,,56.4,1.0,i,1.0,True,882.1999999880791,32.0,72.0,40.0,False,,286.0621723524892,[],"[960, 540]",ColorTask,24.0,50.0,,,HRV,HRV_0278,2022-11-30 20:41:16
,wl-rdm,58,165217,0.0-6.50-0.50,0.0,59.0,,,,,,,[],,,,,,87.9,0.0,u,0.0,True,629.9000000059605,23.0,72.0,40.0,False,,278.7704179323923,[],"[960, 540]",ColorTask,25.0,51.0,,,HRV,HRV_0278,2022-11-30 20:41:16
,wl-rdm,59,167576,0.0-6.51-0.51,0.0,60.0,,,,,,,[],,,,,,53.2,0.0,i,1.0,False,918.6999999880791,34.0,72.0,40.0,False,,279.8074168156708,[],"[960, 540]",ColorTask,24.0,52.0,,,HRV,HRV_0278,2022-11-30 20:41:16
,wl-rdm,60,169823,0.0-6.52-0.52,0.0,61.0,,,,,,,[],,,,,,50.0,1.0,u,0.0,False,901.0999999940395,33.0,72.0,40.0,False,,221.76008537983662,[],"[960, 540]",ColorTask,23.0,53.0,,,HRV,HRV_0278,2022-11-30 20:41:16
,wl-rdm,61,172181,0.0-6.53-0.53,0.0,62.0,,,,,,,[],,,,,,73.6,0.0,u,0.0,True,870.3000000119209,32.0,72.0,40.0,False,,335.24510266265145,[],"[960, 540]",ColorTask,24.0,54.0,,,HRV,HRV_0278,2022-11-30 20:41:16
,wl-rdm,62,174595,0.0-6.54-0.54,0.0,63.0,,,,,,,[],,,,,,53.2,0.0,i,1.0,False,900.6000000238419,33.0,72.0,40.0,False,,386.629633206079,[],"[960, 540]",ColorTask,23.0,55.0,,,HRV,HRV_0278,2022-11-30 20:41:16
,wl-rdm,63,176844,0.0-6.55-0.55,0.0,64.0,,,,,,,[],,,,,,73.6,0.0,u,0.0,True,871.5,32.0,72.0,40.0,False,,231.1376287807352,[],"[960, 540]",ColorTask,24.0,56.0,,,HRV,HRV_0278,2022-11-30 20:41:16
,wl-rdm,64,178953,0.0-6.56-0.56,0.0,65.0,,,,,,,[],,,,,,73.6,0.0,u,0.0,True,705.5,26.0,72.0,40.0,False,,259.81626134200656,[],"[960, 540]",ColorTask,25.0,57.0,,,HRV,HRV_0278,2022-11-30 20:41:16
,wl-rdm,65,180867,0.0-6.57-0.57,0.0,66.0,,,,,,,[],,,,,,87.9,1.0,i,1.0,True,574.8999999761581,21.0,72.0,40.0,False,,205.76823904925797,[],"[960, 540]",ColorTask,26.0,58.0,,,HRV,HRV_0278,2022-11-30 20:41:16
,wl-rdm,66,183198,0.0-6.58-0.58,0.0,67.0,,,,,,,[],,,,,,53.2,1.0,i,1.0,True,932.5000000298023,34.0,72.0,40.0,False,,260.806799355701,[],"[960, 540]",ColorTask,27.0,59.0,,,HRV,HRV_0278,2022-11-30 20:41:16
,wl-rdm,67,185307,0.0-6.59-0.59,0.0,68.0,,,,,,,[],,,,,,73.6,1.0,i,1.0,True,736.7000000178814,27.0,72.0,40.0,False,,239.2533739631935,[],"[960, 540]",ColorTask,28.0,60.0,,,HRV,HRV_0278,2022-11-30 20:41:16
,wl-rdm,68,187222,0.0-6.60-0.60,0.0,69.0,,,,,,,[],,,,,,73.6,1.0,i,1.0,True,523.2999999821186,19.0,72.0,40.0,False,,271.57551598749313,[],"[960, 540]",ColorTask,29.0,61.0,,,HRV,HRV_0278,2022-11-30 20:41:16
,wl-rdm,69,189386,0.0-6.61-0.61,0.0,70.0,,,,,,,[],,,,,,62.5,1.0,i,1.0,True,760.4000000059605,28.0,72.0,40.0,False,,304.49845194825747,[],"[960, 540]",ColorTask,30.0,62.0,,,HRV,HRV_0278,2022-11-30 20:41:16
,wl-rdm,70,191578,0.0-6.62-0.62,0.0,71.0,,,,,,,[],,,,,,50.0,0.0,i,1.0,False,757.5,28.0,72.0,40.0,False,,331.8121499229318,[],"[960, 540]",ColorTask,29.0,63.0,,,HRV,HRV_0278,2022-11-30 20:41:16
,wl-rdm,71,193715,0.0-6.63-0.63,0.0,72.0,,,,,,,[],,,,,,53.2,0.0,u,0.0,True,777.7000000178814,29.0,72.0,40.0,False,,210.6505205576002,[],"[960, 540]",ColorTask,30.0,64.0,,,HRV,HRV_0278,2022-11-30 20:41:16
,wl-rdm,72,195768,0.0-6.64-0.64,0.0,73.0,,,,,,,[],,,,,,56.4,1.0,i,1.0,True,598.9000000059605,22.0,72.0,40.0,False,,311.2406918644933,[],"[960, 540]",ColorTask,31.0,65.0,,,HRV,HRV_0278,2022-11-30 20:41:16
,wl-rdm,73,197766,0.0-6.65-0.65,0.0,74.0,,,,,,,[],,,,,,73.6,0.0,u,0.0,True,635.0999999940395,23.0,72.0,40.0,False,,235.2360503324188,[],"[960, 540]",ColorTask,32.0,66.0,,,HRV,HRV_0278,2022-11-30 20:41:16
,wl-rdm,74,199959,0.0-6.66-0.66,0.0,75.0,,,,,,,[],,,,,,62.5,1.0,i,1.0,True,824.0999999940395,30.0,72.0,40.0,False,,225.58407632945776,[],"[960, 540]",ColorTask,33.0,67.0,,,HRV,HRV_0278,2022-11-30 20:41:16
,wl-rdm,75,202178,0.0-6.67-0.67,0.0,76.0,,,,,,,[],,,,,,53.2,0.0,u,0.0,True,732.2999999821186,27.0,72.0,40.0,False,,338.13978740952825,[],"[960, 540]",ColorTask,34.0,68.0,,,HRV,HRV_0278,2022-11-30 20:41:16
,wl-rdm,76,204537,0.0-6.68-0.68,0.0,77.0,,,,,,,[],,,,,,53.2,0.0,u,0.0,True,907.9000000059605,33.0,72.0,40.0,False,,315.2094218546205,[],"[960, 540]",ColorTask,35.0,69.0,,,HRV,HRV_0278,2022-11-30 20:41:16
,wl-rdm,77,206590,0.0-6.69-0.69,0.0,78.0,,,,,,,[],,,,,,87.9,0.0,u,0.0,True,538.9000000059605,20.0,72.0,40.0,False,,397.5644563490054,[],"[960, 540]",ColorTask,36.0,70.0,,,HRV,HRV_0278,2022-11-30 20:41:16
,wl-rdm,78,208644,0.0-6.70-0.70,0.0,79.0,,,,,,,[],,,,,,62.5,1.0,i,1.0,True,587.6999999880791,22.0,72.0,40.0,False,,307.9032564991563,[],"[960, 540]",ColorTask,37.0,71.0,,,HRV,HRV_0278,2022-11-30 20:41:16
,wl-rdm,79,210891,0.0-6.71-0.71,0.0,80.0,,,,,,,[],,,,,,56.4,0.0,u,0.0,True,751.9000000059605,28.0,72.0,40.0,False,,355.46041374945435,[],"[960, 540]",ColorTask,38.0,72.0,,,HRV,HRV_0278,2022-11-30 20:41:16
,wl-rdm,80,213032,0.0-6.72-0.72,0.0,81.0,,,,,,,[],,,,,,53.2,0.0,i,1.0,False,629.1999999880791,23.0,72.0,40.0,False,,362.8908349024771,[],"[960, 540]",ColorTask,37.0,73.0,,,HRV,HRV_0278,2022-11-30 20:41:16
,wl-rdm,81,215054,0.0-6.73-0.73,0.0,82.0,,,,,,,[],,,,,,87.9,0.0,u,0.0,True,562.9000000059605,21.0,72.0,40.0,False,,320.6627725199305,[],"[960, 540]",ColorTask,38.0,74.0,,,HRV,HRV_0278,2022-11-30 20:41:16
,wl-rdm,82,217080,0.0-6.74-0.74,0.0,83.0,,,,,,,[],,,,,,73.6,1.0,i,1.0,True,614.0,23.0,72.0,40.0,False,,262.34194377304465,[],"[960, 540]",ColorTask,39.0,75.0,,,HRV,HRV_0278,2022-11-30 20:41:16
,wl-rdm,83,219216,0.0-6.75-0.75,0.0,84.0,,,,,,,[],,,,,,62.5,0.0,u,0.0,True,682.6000000238419,25.0,72.0,40.0,False,,330.48955475963817,[],"[960, 540]",ColorTask,40.0,76.0,,,HRV,HRV_0278,2022-11-30 20:41:16
,wl-rdm,84,221297,0.0-6.76-0.76,0.0,85.0,,,,,,,[],,,,,,56.4,0.0,u,0.0,True,727.0999999940395,27.0,72.0,40.0,False,,209.05220971186367,[],"[960, 540]",ColorTask,41.0,77.0,,,HRV,HRV_0278,2022-11-30 20:41:16
,wl-rdm,85,223545,0.0-6.77-0.77,0.0,86.0,,,,,,,[],,,,,,73.6,1.0,i,1.0,True,815.9000000059605,30.0,72.0,40.0,False,,300.75798584079746,[],"[960, 540]",ColorTask,42.0,78.0,,,HRV,HRV_0278,2022-11-30 20:41:16
,wl-rdm,86,225571,0.0-6.78-0.78,0.0,87.0,,,,,,,[],,,,,,62.5,0.0,u,0.0,True,592.4999999701977,22.0,72.0,40.0,False,,287.54058385942375,[],"[960, 540]",ColorTask,43.0,79.0,,,HRV,HRV_0278,2022-11-30 20:41:16
,wl-rdm,87,227624,0.0-6.79-0.79,0.0,88.0,,,,,,,[],,,,,,62.5,1.0,i,1.0,True,585.0,22.0,72.0,40.0,False,,313.672908621709,[],"[960, 540]",ColorTask,44.0,80.0,,,HRV,HRV_0278,2022-11-30 20:41:16
,wl-rdm,88,229706,0.0-6.80-0.80,0.0,89.0,,,,,,,[],,,,,,87.9,1.0,i,1.0,True,548.0,20.0,72.0,40.0,False,,389.92311884596006,[],"[960, 540]",ColorTask,45.0,81.0,,,HRV,HRV_0278,2022-11-30 20:41:16
,wl-rdm,89,232036,0.0-6.81-0.81,0.0,90.0,,,,,,,[],,,,,,56.4,0.0,u,0.0,True,843.5000000298023,31.0,72.0,40.0,False,,334.62328593061704,[],"[960, 540]",ColorTask,46.0,82.0,,,HRV,HRV_0278,2022-11-30 20:41:16
,wl-rdm,90,234340,0.0-6.82-0.82,0.0,91.0,,,,,,,[],,,,,,73.6,0.0,i,1.0,False,813.2999999821186,30.0,72.0,40.0,False,,364.60808167997385,[],"[960, 540]",ColorTask,45.0,83.0,,,HRV,HRV_0278,2022-11-30 20:41:16
,wl-rdm,91,236532,0.0-6.83-0.83,0.0,92.0,,,,,,,[],,,,,,56.4,0.0,u,0.0,True,878.3000000119209,32.0,72.0,40.0,False,,211.93140374217194,[],"[960, 540]",ColorTask,46.0,84.0,,,HRV,HRV_0278,2022-11-30 20:41:16
,wl-rdm,92,238557,0.0-6.84-0.84,0.0,93.0,,,,,,,[],,,,,,56.4,1.0,i,1.0,True,683.3000000119209,25.0,72.0,40.0,False,,212.42107701170218,[],"[960, 540]",ColorTask,47.0,85.0,,,HRV,HRV_0278,2022-11-30 20:41:16
,wl-rdm,93,240861,0.0-6.85-0.85,0.0,94.0,,,,,,,[],,,,,,50.0,0.0,u,0.0,True,941.1999999880791,34.0,72.0,40.0,False,,241.5487209111452,[],"[960, 540]",ColorTask,48.0,86.0,,,HRV,HRV_0278,2022-11-30 20:41:16
,wl-rdm,94,243025,0.0-6.86-0.86,0.0,95.0,,,,,,,[],,,,,,50.0,0.0,i,1.0,False,813.3999999761581,30.0,72.0,40.0,False,,209.61219234783943,[],"[960, 540]",ColorTask,47.0,87.0,,,HRV,HRV_0278,2022-11-30 20:41:16
,wl-rdm,95,245078,0.0-6.87-0.87,0.0,96.0,,,,,,,[],,,,,,73.6,0.0,u,0.0,True,669.5999999940395,25.0,72.0,40.0,False,,248.33353782525572,[],"[960, 540]",ColorTask,48.0,88.0,,,HRV,HRV_0278,2022-11-30 20:41:16
,wl-rdm,96,247437,0.0-6.88-0.88,0.0,97.0,,,,,,,[],,,,,,62.5,1.0,i,1.0,True,929.1999999880791,34.0,72.0,40.0,False,,305.9126690335888,[],"[960, 540]",ColorTask,49.0,89.0,,,HRV,HRV_0278,2022-11-30 20:41:16
,wl-rdm,97,250712,0.0-6.89-0.89,0.0,98.0,,,,,,,[],,,,,,50.0,0.0,u,0.0,True,905.9000000059605,34.0,72.0,40.0,False,,261.59375623987216,[],"[960, 540]",ColorTask,50.0,90.0,,,HRV,HRV_0278,2022-11-30 20:41:16
,wl-rdm,98,252932,0.0-6.90-0.90,0.0,99.0,,,,,,,[],,,,,,56.4,1.0,i,1.0,True,850.0999999940395,31.0,72.0,40.0,False,,230.9687468389981,[],"[960, 540]",ColorTask,51.0,91.0,,,HRV,HRV_0278,2022-11-30 20:41:16
,wl-rdm,99,255123,0.0-6.91-0.91,0.0,100.0,,,,,,,[],,,,,,50.0,1.0,u,0.0,False,732.5,27.0,72.0,40.0,False,,331.639047759938,[],"[960, 540]",ColorTask,50.0,92.0,,,HRV,HRV_0278,2022-11-30 20:41:16
,wl-rdm,100,257371,0.0-6.92-0.92,0.0,101.0,,,,,,,[],,,,,,53.2,0.0,i,1.0,False,910.0,33.0,72.0,40.0,False,,218.32967287910586,[],"[960, 540]",ColorTask,49.0,93.0,,,HRV,HRV_0278,2022-11-30 20:41:16
,wl-rdm,101,259675,0.0-6.93-0.93,0.0,102.0,,,,,,,[],,,,,,87.9,1.0,i,1.0,True,852.1999999880791,31.0,72.0,40.0,False,,355.4169860497234,[],"[960, 540]",ColorTask,50.0,94.0,,,HRV,HRV_0278,2022-11-30 20:41:16
,wl-rdm,102,261923,0.0-6.94-0.94,0.0,103.0,,,,,,,[],,,,,,62.5,1.0,i,1.0,True,808.0999999940395,30.0,72.0,40.0,False,,282.30441208559023,[],"[960, 540]",ColorTask,51.0,95.0,,,HRV,HRV_0278,2022-11-30 20:41:16
,wl-rdm,103,264087,0.0-6.95-0.95,0.0,104.0,,,,,,,[],,,,,,56.4,0.0,u,0.0,True,694.0999999940395,25.0,72.0,40.0,False,,348.4269681006069,[],"[960, 540]",ColorTask,52.0,96.0,,,HRV,HRV_0278,2022-11-30 20:41:16
,wl-rdm,104,266251,0.0-6.96-0.96,0.0,105.0,,,,,,,[],,,,,,73.6,1.0,i,1.0,True,739.7999999821186,27.0,72.0,40.0,False,,293.73466850611203,[],"[960, 540]",ColorTask,53.0,97.0,,,HRV,HRV_0278,2022-11-30 20:41:16
,wl-rdm,105,268666,0.0-6.97-0.97,0.0,106.0,,,,,,,[],,,,,,50.0,0.0,u,0.0,True,1014.9000000059605,37.0,72.0,40.0,False,,255.66060613670427,[],"[960, 540]",ColorTask,54.0,98.0,,,HRV,HRV_0278,2022-11-30 20:41:16
,wl-rdm,106,270802,0.0-6.98-0.98,0.0,107.0,,,,,,,[],,,,,,73.6,1.0,i,1.0,True,740.7999999821186,27.0,72.0,40.0,False,,265.9537896996045,[],"[960, 540]",ColorTask,55.0,99.0,,,HRV,HRV_0278,2022-11-30 20:41:16
,wl-rdm,107,273022,0.0-6.99-0.99,0.0,108.0,,,,,,,[],,,,,,56.4,0.0,u,0.0,True,807.8000000119209,30.0,72.0,40.0,False,,256.3360138953931,[],"[960, 540]",ColorTask,56.0,100.0,,,HRV,HRV_0278,2022-11-30 20:41:16
,wl-rdm,108,275492,0.0-6.100-0.100,0.0,109.0,,,,,,,[],,,,,,62.5,0.0,i,1.0,False,915.5999999940395,34.0,72.0,40.0,False,,399.12348869415325,[],"[960, 540]",ColorTask,55.0,101.0,,,HRV,HRV_0278,2022-11-30 20:41:16
,wl-rdm,109,277573,0.0-6.101-0.101,0.0,110.0,,,,,,,[],,,,,,87.9,1.0,i,1.0,True,669.5,25.0,72.0,40.0,False,,304.99526895056255,[],"[960, 540]",ColorTask,56.0,102.0,,,HRV,HRV_0278,2022-11-30 20:41:16
,wl-rdm,110,279821,0.0-6.102-0.102,0.0,111.0,,,,,,,[],,,,,,53.2,0.0,i,1.0,False,887.3000000417233,32.0,72.0,40.0,False,,223.89607089346856,[],"[960, 540]",ColorTask,55.0,103.0,,,HRV,HRV_0278,2022-11-30 20:41:16
,wl-rdm,111,282151,0.0-6.103-0.103,0.0,112.0,,,,,,,[],,,,,,87.9,0.0,u,0.0,True,955.1000000238419,35.0,72.0,40.0,False,,237.58397125172837,[],"[960, 540]",ColorTask,56.0,104.0,,,HRV,HRV_0278,2022-11-30 20:41:16
,wl-rdm,112,284149,0.0-6.104-0.104,0.0,113.0,,,,,,,[],,,,,,50.0,0.0,i,1.0,False,619.5,23.0,72.0,40.0,False,,242.1895477299777,[],"[960, 540]",ColorTask,55.0,105.0,,,HRV,HRV_0278,2022-11-30 20:41:16
,wl-rdm,113,286231,0.0-6.105-0.105,0.0,114.0,,,,,,,[],,,,,,87.9,0.0,u,0.0,True,726.0999999940395,27.0,72.0,40.0,False,,210.83763363576696,[],"[960, 540]",ColorTask,56.0,106.0,,,HRV,HRV_0278,2022-11-30 20:41:16
,wl-rdm,114,288339,0.0-6.106-0.106,0.0,115.0,,,,,,,[],,,,,,62.5,1.0,i,1.0,True,694.5999999940395,26.0,72.0,40.0,False,,253.557221372861,[],"[960, 540]",ColorTask,57.0,107.0,,,HRV,HRV_0278,2022-11-30 20:41:16
,wl-rdm,115,290754,0.0-6.107-0.107,0.0,116.0,,,,,,,[],,,,,,50.0,1.0,u,0.0,False,1020.0,37.0,72.0,40.0,False,,257.1911984709374,[],"[960, 540]",ColorTask,56.0,108.0,,,HRV,HRV_0278,2022-11-30 20:41:16
,wl-html-keyboard-response,116,299365,0.0-7.0-0.0,1.0,117.0,,,,,,,,6598.5,1.0,0,,,,,,,,,,,,,,,,,,,,,,HRV,HRV_0278,2022-11-30 20:41:16
,wl-rdm,117,301270,0.0-8.0-0.0,1.0,118.0,,,,,,,[],,,,,,87.9,1.0,i,1.0,True,559.7999999821186,21.0,72.0,40.0,False,,203.8668913804634,[],"[960, 540]",ColorTask,57.0,1.0,,,HRV,HRV_0278,2022-11-30 20:41:16
,wl-rdm,118,303573,0.0-8.1-0.1,1.0,119.0,,,,,,,[],,,,,,62.5,1.0,i,1.0,True,760.9000000059605,28.0,72.0,40.0,False,,390.0202180939406,[],"[960, 540]",ColorTask,58.0,2.0,,,HRV,HRV_0278,2022-11-30 20:41:16
,wl-rdm,119,305599,0.0-8.2-0.2,1.0,120.0,,,,,,,[],,,,,,62.5,0.0,u,0.0,True,649.5999999940395,24.0,72.0,40.0,False,,245.40318084774992,[],"[960, 540]",ColorTask,59.0,3.0,,,HRV,HRV_0278,2022-11-30 20:41:16
,wl-rdm,120,307708,0.0-8.3-0.3,1.0,121.0,,,,,,,[],,,,,,53.2,0.0,u,0.0,True,770.2999999821186,28.0,72.0,40.0,False,,230.72501894999482,[],"[960, 540]",ColorTask,60.0,4.0,,,HRV,HRV_0278,2022-11-30 20:41:16
,wl-rdm,121,309734,0.0-8.4-0.4,1.0,122.0,,,,,,,[],,,,,,56.4,1.0,i,1.0,True,688.9000000059605,25.0,72.0,40.0,False,,212.57250290076524,[],"[960, 540]",ColorTask,61.0,5.0,,,HRV,HRV_0278,2022-11-30 20:41:16
,wl-rdm,122,311898,0.0-8.5-0.5,1.0,123.0,,,,,,,[],,,,,,50.0,1.0,u,0.0,False,764.0999999940395,28.0,72.0,40.0,False,,256.44383300523253,[],"[960, 540]",ColorTask,60.0,6.0,,,HRV,HRV_0278,2022-11-30 20:41:16
,wl-rdm,123,314174,0.0-8.6-0.6,1.0,124.0,,,,,,,[],,,,,,50.0,0.0,u,0.0,True,929.2999999821186,34.0,72.0,40.0,False,,220.81217568275952,[],"[960, 540]",ColorTask,61.0,7.0,,,HRV,HRV_0278,2022-11-30 20:41:16
,wl-rdm,124,316422,0.0-8.7-0.7,1.0,125.0,,,,,,,[],,,,,,50.0,0.0,u,0.0,True,892.0,33.0,72.0,40.0,False,,216.22956005272437,[],"[960, 540]",ColorTask,62.0,8.0,,,HRV,HRV_0278,2022-11-30 20:41:16
,wl-rdm,125,318502,0.0-8.8-0.8,1.0,126.0,,,,,,,[],,,,,,56.4,1.0,i,1.0,True,698.7999999821186,26.0,72.0,40.0,False,,244.31878950130186,[],"[960, 540]",ColorTask,63.0,9.0,,,HRV,HRV_0278,2022-11-30 20:41:16
,wl-rdm,126,320500,0.0-8.9-0.9,1.0,127.0,,,,,,,[],,,,,,87.9,1.0,i,1.0,True,510.59999999403954,19.0,72.0,40.0,False,,335.1926000767436,[],"[960, 540]",ColorTask,64.0,10.0,,,HRV,HRV_0278,2022-11-30 20:41:16
,wl-rdm,127,322720,0.0-8.10-0.10,1.0,128.0,,,,,,,[],,,,,,62.5,0.0,u,0.0,True,830.0,30.0,72.0,40.0,False,,301.8562609736993,[],"[960, 540]",ColorTask,65.0,11.0,,,HRV,HRV_0278,2022-11-30 20:41:16
,wl-rdm,128,324718,0.0-8.11-0.11,1.0,129.0,,,,,,,[],,,,,,50.0,0.0,i,1.0,False,595.3999999761581,22.0,72.0,40.0,False,,252.95400568067765,[],"[960, 540]",ColorTask,64.0,12.0,,,HRV,HRV_0278,2022-11-30 20:41:16
,wl-rdm,129,326799,0.0-8.12-0.12,1.0,130.0,,,,,,,[],,,,,,50.0,0.0,u,0.0,True,730.6999999880791,27.0,72.0,40.0,False,,212.720369276364,[],"[960, 540]",ColorTask,65.0,13.0,,,HRV,HRV_0278,2022-11-30 20:41:16
,wl-rdm,130,329158,0.0-8.13-0.13,1.0,131.0,,,,,,,[],,,,,,50.0,1.0,u,0.0,False,860.8999999761581,32.0,72.0,40.0,False,,360.8007712338082,[],"[960, 540]",ColorTask,64.0,14.0,,,HRV,HRV_0278,2022-11-30 20:41:16
,wl-rdm,131,331323,0.0-8.14-0.14,1.0,132.0,,,,,,,[],,,,,,56.4,1.0,i,1.0,True,801.2999999821186,29.0,72.0,40.0,False,,238.0406703973516,[],"[960, 540]",ColorTask,65.0,15.0,,,HRV,HRV_0278,2022-11-30 20:41:16
,wl-rdm,132,333376,0.0-8.15-0.15,1.0,133.0,,,,,,,[],,,,,,73.6,1.0,i,1.0,True,625.3000000119209,23.0,72.0,40.0,False,,301.1050663882331,[],"[960, 540]",ColorTask,66.0,16.0,,,HRV,HRV_0278,2022-11-30 20:41:16
,wl-rdm,133,335346,0.0-8.16-0.16,1.0,134.0,,,,,,,[],,,,,,87.9,0.0,u,0.0,True,590.0,22.0,72.0,40.0,False,,237.8600643235545,[],"[960, 540]",ColorTask,67.0,17.0,,,HRV,HRV_0278,2022-11-30 20:41:16
,wl-rdm,134,337288,0.0-8.17-0.17,1.0,135.0,,,,,,,[],,,,,,73.6,1.0,i,1.0,True,586.2000000178814,22.0,72.0,40.0,False,,205.31551567195996,[],"[960, 540]",ColorTask,68.0,18.0,,,HRV,HRV_0278,2022-11-30 20:41:16
,wl-rdm,135,339619,0.0-8.18-0.18,1.0,136.0,,,,,,,[],,,,,,53.2,1.0,i,1.0,True,966.0999999940395,35.0,72.0,40.0,False,,240.323387461844,[],"[960, 540]",ColorTask,69.0,19.0,,,HRV,HRV_0278,2022-11-30 20:41:16
,wl-rdm,136,342172,0.0-8.19-0.19,1.0,137.0,,,,,,,[],,,,,,53.2,1.0,u,0.0,False,1117.8999999761581,41.0,72.0,40.0,False,,319.1057437572867,[],"[960, 540]",ColorTask,68.0,20.0,,,HRV,HRV_0278,2022-11-30 20:41:16
,wl-rdm,137,344198,0.0-8.20-0.20,1.0,138.0,,,,,,,[],,,,,,53.2,1.0,i,1.0,True,636.5999999940395,23.0,72.0,40.0,False,,287.3734705104052,[],"[960, 540]",ColorTask,69.0,21.0,,,HRV,HRV_0278,2022-11-30 20:41:16
,wl-rdm,138,346279,0.0-8.21-0.21,1.0,139.0,,,,,,,[],,,,,,62.5,0.0,u,0.0,True,654.9000000357628,24.0,72.0,40.0,False,,292.5726752122945,[],"[960, 540]",ColorTask,70.0,22.0,,,HRV,HRV_0278,2022-11-30 20:41:16
,wl-rdm,139,348221,0.0-8.22-0.22,1.0,140.0,,,,,,,[],,,,,,87.9,0.0,u,0.0,True,599.8000000119209,22.0,72.0,40.0,False,,213.82222909585684,[],"[960, 540]",ColorTask,71.0,23.0,,,HRV,HRV_0278,2022-11-30 20:41:16
,wl-rdm,140,350386,0.0-8.23-0.23,1.0,141.0,,,,,,,[],,,,,,53.2,0.0,u,0.0,True,858.0999999940395,31.0,72.0,40.0,False,,201.38635069160853,[],"[960, 540]",ColorTask,72.0,24.0,,,HRV,HRV_0278,2022-11-30 20:41:16
,wl-rdm,141,352522,0.0-8.24-0.24,1.0,142.0,,,,,,,[],,,,,,87.9,0.0,u,0.0,True,679.8000000119209,25.0,72.0,40.0,False,,315.8531077684489,[],"[960, 540]",ColorTask,73.0,25.0,,,HRV,HRV_0278,2022-11-30 20:41:16
,wl-rdm,142,354743,0.0-8.25-0.25,1.0,143.0,,,,,,,[],,,,,,56.4,0.0,u,0.0,True,799.4000000059605,29.0,72.0,40.0,False,,298.0169556955313,[],"[960, 540]",ColorTask,74.0,26.0,,,HRV,HRV_0278,2022-11-30 20:41:16
,wl-rdm,143,357351,0.0-8.26-0.26,1.0,144.0,,,,,,,[],,,,,,53.2,1.0,u,0.0,False,1092.5999999940395,40.0,72.0,40.0,False,,363.43628497424316,[],"[960, 540]",ColorTask,73.0,27.0,,,HRV,HRV_0278,2022-11-30 20:41:16
,wl-rdm,144,359404,0.0-8.27-0.27,1.0,145.0,,,,,,,[],,,,,,50.0,0.0,u,0.0,True,675.7000000178814,25.0,72.0,40.0,False,,241.75730357086536,[],"[960, 540]",ColorTask,74.0,28.0,,,HRV,HRV_0278,2022-11-30 20:41:16
,wl-rdm,145,361708,0.0-8.28-0.28,1.0,146.0,,,,,,,[],,,,,,50.0,1.0,u,0.0,False,904.5999999940395,33.0,72.0,40.0,False,,259.65879464477234,[],"[960, 540]",ColorTask,73.0,29.0,,,HRV,HRV_0278,2022-11-30 20:41:16
,wl-rdm,146,364233,0.0-8.29-0.29,1.0,147.0,,,,,,,[],,,,,,53.2,0.0,u,0.0,True,1096.0,40.0,72.0,40.0,False,,279.12107754917986,[],"[960, 540]",ColorTask,74.0,30.0,,,HRV,HRV_0278,2022-11-30 20:41:16
,wl-rdm,147,366563,0.0-8.30-0.30,1.0,148.0,,,,,,,[],,,,,,56.4,1.0,i,1.0,True,893.5999999940395,33.0,72.0,40.0,False,,277.7104652942936,[],"[960, 540]",ColorTask,75.0,31.0,,,HRV,HRV_0278,2022-11-30 20:41:16
,wl-rdm,148,368950,0.0-8.31-0.31,1.0,149.0,,,,,,,[],,,,,,53.2,0.0,u,0.0,True,1038.9000000059605,38.0,72.0,40.0,False,,205.504777329152,[],"[960, 540]",ColorTask,76.0,32.0,,,HRV,HRV_0278,2022-11-30 20:41:16
,wl-rdm,149,370892,0.0-8.32-0.32,1.0,150.0,,,,,,,[],,,,,,73.6,1.0,i,1.0,True,620.5999999940395,23.0,72.0,40.0,False,,220.10726038082873,[],"[960, 540]",ColorTask,77.0,33.0,,,HRV,HRV_0278,2022-11-30 20:41:16
,wl-rdm,150,373001,0.0-8.33-0.33,1.0,151.0,,,,,,,[],,,,,,56.4,0.0,u,0.0,True,615.9000000059605,23.0,72.0,40.0,False,,346.33510862696266,[],"[960, 540]",ColorTask,78.0,34.0,,,HRV,HRV_0278,2022-11-30 20:41:16
,wl-rdm,151,375415,0.0-8.34-0.34,1.0,152.0,,,,,,,[],,,,,,50.0,1.0,u,0.0,False,946.3000000119209,35.0,72.0,40.0,False,,314.0851647258877,[],"[960, 540]",ColorTask,77.0,35.0,,,HRV,HRV_0278,2022-11-30 20:41:16
,wl-rdm,152,377441,0.0-8.35-0.35,1.0,153.0,,,,,,,[],,,,,,62.5,0.0,i,1.0,False,674.3000000119209,25.0,72.0,40.0,False,,206.91615805655348,[],"[960, 540]",ColorTask,76.0,36.0,,,HRV,HRV_0278,2022-11-30 20:41:16
,wl-rdm,153,380272,0.0-8.36-0.36,1.0,154.0,,,,,,,[],,,,,,53.2,1.0,u,0.0,False,1475.800000011921,54.0,72.0,40.0,False,,203.4745578611104,[],"[960, 540]",ColorTask,75.0,37.0,,,HRV,HRV_0278,2022-11-30 20:41:16
,wl-rdm,154,382214,0.0-8.37-0.37,1.0,155.0,,,,,,,[],,,,,,73.6,0.0,u,0.0,True,578.1999999880791,21.0,72.0,40.0,False,,230.95838265817395,[],"[960, 540]",ColorTask,76.0,38.0,,,HRV,HRV_0278,2022-11-30 20:41:16
,wl-rdm,155,384352,0.0-8.38-0.38,1.0,156.0,,,,,,,[],,,,,,73.6,0.0,u,0.0,True,674.5,25.0,72.0,40.0,False,,306.4898870268075,[],"[960, 540]",ColorTask,77.0,39.0,,,HRV,HRV_0278,2022-11-30 20:41:16
,wl-rdm,156,386266,0.0-8.39-0.39,1.0,157.0,,,,,,,[],,,,,,87.9,1.0,i,1.0,True,574.3999999761581,21.0,72.0,40.0,False,,248.75027023246633,[],"[960, 540]",ColorTask,78.0,40.0,,,HRV,HRV_0278,2022-11-30 20:41:16
,wl-rdm,157,388458,0.0-8.40-0.40,1.0,158.0,,,,,,,[],,,,,,62.5,1.0,i,1.0,True,784.6999999880791,29.0,72.0,40.0,False,,273.20051012392,[],"[960, 540]",ColorTask,79.0,41.0,,,HRV,HRV_0278,2022-11-30 20:41:16
,wl-rdm,158,390622,0.0-8.41-0.41,1.0,159.0,,,,,,,[],,,,,,73.6,0.0,u,0.0,True,730.0999999940395,27.0,72.0,40.0,False,,282.6977863040994,[],"[960, 540]",ColorTask,80.0,42.0,,,HRV,HRV_0278,2022-11-30 20:41:16
,wl-rdm,159,392926,0.0-8.42-0.42,1.0,160.0,,,,,,,[],,,,,,56.4,0.0,u,0.0,True,891.0,33.0,72.0,40.0,False,,268.62157789379324,[],"[960, 540]",ColorTask,81.0,43.0,,,HRV,HRV_0278,2022-11-30 20:41:16
,wl-rdm,160,395090,0.0-8.43-0.43,1.0,161.0,,,,,,,[],,,,,,50.0,1.0,i,1.0,True,805.3999999761581,30.0,72.0,40.0,False,,206.86303961494392,[],"[960, 540]",ColorTask,82.0,44.0,,,HRV,HRV_0278,2022-11-30 20:41:16
,wl-rdm,161,398060,0.0-8.44-0.44,1.0,162.0,,,,,,,[],,,,,,50.0,0.0,i,1.0,False,1568.7999999821186,57.0,72.0,40.0,False,,273.4761168633638,[],"[960, 540]",ColorTask,81.0,45.0,,,HRV,HRV_0278,2022-11-30 20:41:16
,wl-rdm,162,400778,0.0-8.45-0.45,1.0,163.0,,,,,,,[],,,,,,50.0,0.0,i,1.0,False,1344.3000000417233,49.0,72.0,40.0,False,,233.9407119704131,[],"[960, 540]",ColorTask,80.0,46.0,,,HRV,HRV_0278,2022-11-30 20:41:16
,wl-rdm,163,402943,0.0-8.46-0.46,1.0,164.0,,,,,,,[],,,,,,56.4,1.0,i,1.0,True,697.3000000119209,26.0,72.0,40.0,False,,316.01661789886555,[],"[960, 540]",ColorTask,81.0,47.0,,,HRV,HRV_0278,2022-11-30 20:41:16
,wl-rdm,164,404941,0.0-8.47-0.47,1.0,165.0,,,,,,,[],,,,,,53.2,0.0,u,0.0,True,595.5,22.0,72.0,40.0,False,,263.60162833200576,[],"[960, 540]",ColorTask,82.0,48.0,,,HRV,HRV_0278,2022-11-30 20:41:16
,wl-rdm,165,406966,0.0-8.48-0.48,1.0,166.0,,,,,,,[],,,,,,87.9,1.0,i,1.0,True,602.2000000178814,22.0,72.0,40.0,False,,277.5504020342976,[],"[960, 540]",ColorTask,83.0,49.0,,,HRV,HRV_0278,2022-11-30 20:41:16
,wl-rdm,166,408965,0.0-8.49-0.49,1.0,167.0,,,,,,,[],,,,,,87.9,1.0,i,1.0,True,541.3000000119209,20.0,72.0,40.0,False,,356.907152936037,[],"[960, 540]",ColorTask,84.0,50.0,,,HRV,HRV_0278,2022-11-30 20:41:16
,wl-rdm,167,411489,0.0-8.50-0.50,1.0,168.0,,,,,,,[],,,,,,62.5,0.0,u,0.0,True,1153.4000000059605,42.0,72.0,40.0,False,,228.70102170034838,[],"[960, 540]",ColorTask,85.0,51.0,,,HRV,HRV_0278,2022-11-30 20:41:16
,wl-rdm,168,413710,0.0-8.51-0.51,1.0,169.0,,,,,,,[],,,,,,73.6,0.0,u,0.0,True,837.7999999821186,31.0,72.0,40.0,False,,273.3601326388175,[],"[960, 540]",ColorTask,86.0,52.0,,,HRV,HRV_0278,2022-11-30 20:41:16
,wl-rdm,169,416346,0.0-8.52-0.52,1.0,170.0,,,,,,,[],,,,,,50.0,0.0,u,0.0,True,1178.699999988079,43.0,72.0,40.0,False,,325.239257726699,[],"[960, 540]",ColorTask,87.0,53.0,,,HRV,HRV_0278,2022-11-30 20:41:16
,wl-rdm,170,418455,0.0-8.53-0.53,1.0,171.0,,,,,,,[],,,,,,87.9,1.0,i,1.0,True,668.8999999761581,25.0,72.0,40.0,False,,296.1895926672163,[],"[960, 540]",ColorTask,88.0,54.0,,,HRV,HRV_0278,2022-11-30 20:41:16
,wl-rdm,171,420619,0.0-8.54-0.54,1.0,172.0,,,,,,,[],,,,,,53.2,0.0,u,0.0,True,673.3999999761581,25.0,72.0,40.0,False,,337.635144354398,[],"[960, 540]",ColorTask,89.0,55.0,,,HRV,HRV_0278,2022-11-30 20:41:16
,wl-rdm,172,422840,0.0-8.55-0.55,1.0,173.0,,,,,,,[],,,,,,62.5,1.0,i,1.0,True,843.0999999940395,31.0,72.0,40.0,False,,230.5142613853873,[],"[960, 540]",ColorTask,90.0,56.0,,,HRV,HRV_0278,2022-11-30 20:41:16
,wl-rdm,173,424948,0.0-8.56-0.56,1.0,174.0,,,,,,,[],,,,,,87.9,0.0,u,0.0,True,671.6000000238419,25.0,72.0,40.0,False,,280.122329998456,[],"[960, 540]",ColorTask,91.0,57.0,,,HRV,HRV_0278,2022-11-30 20:41:16
,wl-rdm,174,426973,0.0-8.57-0.57,1.0,175.0,,,,,,,[],,,,,,62.5,1.0,i,1.0,True,599.5999999940395,22.0,72.0,40.0,False,,308.2693181505143,[],"[960, 540]",ColorTask,92.0,58.0,,,HRV,HRV_0278,2022-11-30 20:41:16
,wl-rdm,175,429249,0.0-8.58-0.58,1.0,176.0,,,,,,,[],,,,,,62.5,0.0,u,0.0,True,742.3000000119209,27.0,72.0,40.0,False,,394.1008864180425,[],"[960, 540]",ColorTask,93.0,59.0,,,HRV,HRV_0278,2022-11-30 20:41:16
,wl-rdm,176,431996,0.0-8.59-0.59,1.0,177.0,,,,,,,[],,,,,,53.2,0.0,i,1.0,False,1401.2000000178814,51.0,72.0,40.0,False,,216.90075384895397,[],"[960, 540]",ColorTask,92.0,60.0,,,HRV,HRV_0278,2022-11-30 20:41:16
,wl-rdm,177,434189,0.0-8.60-0.60,1.0,178.0,,,,,,,[],,,,,,62.5,1.0,u,0.0,False,682.8000000119209,25.0,72.0,40.0,False,,363.62807045496186,[],"[960, 540]",ColorTask,91.0,61.0,,,HRV,HRV_0278,2022-11-30 20:41:16
,wl-rdm,178,436492,0.0-8.61-0.61,1.0,179.0,,,,,,,[],,,,,,50.0,1.0,i,1.0,True,853.6999999880791,31.0,72.0,40.0,False,,330.74735370444137,[],"[960, 540]",ColorTask,92.0,62.0,,,HRV,HRV_0278,2022-11-30 20:41:16
,wl-rdm,179,438490,0.0-8.62-0.62,1.0,180.0,,,,,,,[],,,,,,73.6,1.0,i,1.0,True,616.2999999821186,23.0,72.0,40.0,False,,241.27298232178617,[],"[960, 540]",ColorTask,93.0,63.0,,,HRV,HRV_0278,2022-11-30 20:41:16
,wl-rdm,180,440543,0.0-8.63-0.63,1.0,181.0,,,,,,,[],,,,,,73.6,0.0,u,0.0,True,657.5,24.0,72.0,40.0,False,,268.1123314176398,[],"[960, 540]",ColorTask,94.0,64.0,,,HRV,HRV_0278,2022-11-30 20:41:16
,wl-rdm,181,442957,0.0-8.64-0.64,1.0,182.0,,,,,,,[],,,,,,73.6,1.0,i,1.0,True,1061.0000000298023,39.0,72.0,40.0,False,,211.42485447872693,[],"[960, 540]",ColorTask,95.0,65.0,,,HRV,HRV_0278,2022-11-30 20:41:16
,wl-rdm,182,445066,0.0-8.65-0.65,1.0,183.0,,,,,,,[],,,,,,53.2,1.0,i,1.0,True,775.0999999940395,28.0,72.0,40.0,False,,216.00923105292495,[],"[960, 540]",ColorTask,96.0,66.0,,,HRV,HRV_0278,2022-11-30 20:41:16
,wl-rdm,183,447453,0.0-8.66-0.66,1.0,184.0,,,,,,,[],,,,,,62.5,0.0,u,0.0,True,940.8999999761581,34.0,72.0,40.0,False,,337.78469014830415,[],"[960, 540]",ColorTask,97.0,67.0,,,HRV,HRV_0278,2022-11-30 20:41:16
,wl-rdm,184,450172,0.0-8.67-0.67,1.0,185.0,,,,,,,[],,,,,,56.4,0.0,u,0.0,True,1324.800000011921,48.0,72.0,40.0,False,,257.7160040066666,[],"[960, 540]",ColorTask,98.0,68.0,,,HRV,HRV_0278,2022-11-30 20:41:16
,wl-rdm,185,452253,0.0-8.68-0.68,1.0,186.0,,,,,,,[],,,,,,73.6,0.0,u,0.0,True,664.4000000059605,24.0,72.0,40.0,False,,277.5141565230965,[],"[960, 540]",ColorTask,99.0,69.0,,,HRV,HRV_0278,2022-11-30 20:41:16
,wl-rdm,186,454584,0.0-8.69-0.69,1.0,187.0,,,,,,,[],,,,,,53.2,0.0,i,1.0,False,807.5999999940395,30.0,72.0,40.0,False,,366.15386938343954,[],"[960, 540]",ColorTask,98.0,70.0,,,HRV,HRV_0278,2022-11-30 20:41:16
,wl-rdm,187,456749,0.0-8.70-0.70,1.0,188.0,,,,,,,[],,,,,,87.9,0.0,u,0.0,True,751.5,28.0,72.0,40.0,False,,263.44372458876956,[],"[960, 540]",ColorTask,99.0,71.0,,,HRV,HRV_0278,2022-11-30 20:41:16
,wl-rdm,188,458829,0.0-8.71-0.71,1.0,189.0,,,,,,,[],,,,,,73.6,1.0,i,1.0,True,674.7999999821186,25.0,72.0,40.0,False,,275.5376969452271,[],"[960, 540]",ColorTask,100.0,72.0,,,HRV,HRV_0278,2022-11-30 20:41:16
,wl-rdm,189,460856,0.0-8.72-0.72,1.0,190.0,,,,,,,[],,,,,,87.9,0.0,u,0.0,True,671.7000000178814,25.0,72.0,40.0,False,,216.16629992217668,[],"[960, 540]",ColorTask,101.0,73.0,,,HRV,HRV_0278,2022-11-30 20:41:16
,wl-rdm,190,462853,0.0-8.73-0.73,1.0,191.0,,,,,,,[],,,,,,62.5,1.0,i,1.0,True,641.0,24.0,72.0,40.0,False,,202.20877490175755,[],"[960, 540]",ColorTask,102.0,74.0,,,HRV,HRV_0278,2022-11-30 20:41:16
,wl-rdm,191,465184,0.0-8.74-0.74,1.0,192.0,,,,,,,[],,,,,,53.2,0.0,u,0.0,True,846.1000000238419,31.0,72.0,40.0,False,,357.3989349345272,[],"[960, 540]",ColorTask,103.0,75.0,,,HRV,HRV_0278,2022-11-30 20:41:16
,wl-rdm,192,467459,0.0-8.75-0.75,1.0,193.0,,,,,,,[],,,,,,56.4,1.0,i,1.0,True,780.0999999940395,29.0,72.0,40.0,False,,354.92829850705164,[],"[960, 540]",ColorTask,104.0,76.0,,,HRV,HRV_0278,2022-11-30 20:41:16
,wl-rdm,193,469569,0.0-8.76-0.76,1.0,194.0,,,,,,,[],,,,,,56.4,1.0,i,1.0,True,626.0,23.0,72.0,40.0,False,,336.74159284360456,[],"[960, 540]",ColorTask,105.0,77.0,,,HRV,HRV_0278,2022-11-30 20:41:16
,wl-rdm,194,471483,0.0-8.77-0.77,1.0,195.0,,,,,,,[],,,,,,73.6,1.0,i,1.0,True,563.8000000119209,21.0,72.0,40.0,False,,210.96389700716128,[],"[960, 540]",ColorTask,106.0,78.0,,,HRV,HRV_0278,2022-11-30 20:41:16
,wl-rdm,195,473592,0.0-8.78-0.78,1.0,196.0,,,,,,,[],,,,,,50.0,0.0,u,0.0,True,721.8000000119209,27.0,72.0,40.0,False,,231.74803336892526,[],"[960, 540]",ColorTask,107.0,79.0,,,HRV,HRV_0278,2022-11-30 20:41:16
,wl-rdm,196,475645,0.0-8.79-0.79,1.0,197.0,,,,,,,[],,,,,,87.9,0.0,u,0.0,True,530.9000000059605,20.0,72.0,40.0,False,,369.5940427016729,[],"[960, 540]",ColorTask,108.0,80.0,,,HRV,HRV_0278,2022-11-30 20:41:16
,wl-rdm,197,477726,0.0-8.80-0.80,1.0,198.0,,,,,,,[],,,,,,53.2,1.0,i,1.0,True,718.3000000417233,26.0,72.0,40.0,False,,268.7410326430292,[],"[960, 540]",ColorTask,109.0,81.0,,,HRV,HRV_0278,2022-11-30 20:41:16
,wl-rdm,198,479697,0.0-8.81-0.81,1.0,199.0,,,,,,,[],,,,,,73.6,0.0,u,0.0,True,612.7999999821186,23.0,72.0,40.0,False,,208.69352959819307,[],"[960, 540]",ColorTask,110.0,82.0,,,HRV,HRV_0278,2022-11-30 20:41:16
,wl-rdm,199,481778,0.0-8.82-0.82,1.0,200.0,,,,,,,[],,,,,,73.6,1.0,i,1.0,True,580.3999999761581,21.0,72.0,40.0,False,,362.88841008311715,[],"[960, 540]",ColorTask,111.0,83.0,,,HRV,HRV_0278,2022-11-30 20:41:16
,wl-rdm,200,483748,0.0-8.83-0.83,1.0,201.0,,,,,,,[],,,,,,73.6,0.0,u,0.0,True,563.8000000119209,21.0,72.0,40.0,False,,269.6702974022127,[],"[960, 540]",ColorTask,112.0,84.0,,,HRV,HRV_0278,2022-11-30 20:41:16
,wl-rdm,201,485746,0.0-8.84-0.84,1.0,202.0,,,,,,,[],,,,,,62.5,1.0,i,1.0,True,635.0999999940395,23.0,72.0,40.0,False,,245.21140105258007,[],"[960, 540]",ColorTask,113.0,85.0,,,HRV,HRV_0278,2022-11-30 20:41:16
,wl-rdm,202,487855,0.0-8.85-0.85,1.0,203.0,,,,,,,[],,,,,,50.0,1.0,u,0.0,False,769.6999999880791,28.0,72.0,40.0,False,,213.8136893753024,[],"[960, 540]",ColorTask,112.0,86.0,,,HRV,HRV_0278,2022-11-30 20:41:16
,wl-rdm,203,489881,0.0-8.86-0.86,1.0,204.0,,,,,,,[],,,,,,56.4,0.0,i,1.0,False,616.8999999761581,23.0,72.0,40.0,False,,268.32000046419,[],"[960, 540]",ColorTask,111.0,87.0,,,HRV,HRV_0278,2022-11-30 20:41:16
,wl-rdm,204,491823,0.0-8.87-0.87,1.0,205.0,,,,,,,[],,,,,,87.9,1.0,i,1.0,True,586.5,22.0,72.0,40.0,False,,215.12682585420254,[],"[960, 540]",ColorTask,112.0,88.0,,,HRV,HRV_0278,2022-11-30 20:41:16
,wl-rdm,205,493849,0.0-8.88-0.88,1.0,206.0,,,,,,,[],,,,,,56.4,1.0,i,1.0,True,605.0,22.0,72.0,40.0,False,,289.17030888273825,[],"[960, 540]",ColorTask,113.0,89.0,,,HRV,HRV_0278,2022-11-30 20:41:16
,wl-rdm,206,495874,0.0-8.89-0.89,1.0,207.0,,,,,,,[],,,,,,87.9,0.0,u,0.0,True,654.5,24.0,72.0,40.0,False,,249.35812256106894,[],"[960, 540]",ColorTask,114.0,90.0,,,HRV,HRV_0278,2022-11-30 20:41:16
,wl-rdm,207,498206,0.0-8.90-0.90,1.0,208.0,,,,,,,[],,,,,,73.6,0.0,u,0.0,True,960.9000000059605,35.0,72.0,40.0,False,,223.43388532656115,[],"[960, 540]",ColorTask,115.0,91.0,,,HRV,HRV_0278,2022-11-30 20:41:16
,wl-rdm,208,500703,0.0-8.91-0.91,1.0,209.0,,,,,,,[],,,,,,62.5,0.0,u,0.0,True,1086.5,40.0,72.0,40.0,False,,277.59559027441117,[],"[960, 540]",ColorTask,116.0,92.0,,,HRV,HRV_0278,2022-11-30 20:41:16
,wl-rdm,209,503005,0.0-8.92-0.92,1.0,210.0,,,,,,,[],,,,,,56.4,0.0,u,0.0,True,939.6999999880791,34.0,72.0,40.0,False,,238.51404120515573,[],"[960, 540]",ColorTask,117.0,93.0,,,HRV,HRV_0278,2022-11-30 20:41:16
,wl-rdm,210,505448,0.0-8.93-0.93,1.0,211.0,,,,,,,[],,,,,,53.2,1.0,i,1.0,True,925.0999999940395,34.0,72.0,40.0,False,,370.9750202291806,[],"[960, 540]",ColorTask,118.0,94.0,,,HRV,HRV_0278,2022-11-30 20:41:16
,wl-rdm,211,508111,0.0-8.94-0.94,1.0,212.0,,,,,,,[],,,,,,50.0,1.0,i,1.0,True,1327.6000000238419,48.0,72.0,40.0,False,,241.60649965598742,[],"[960, 540]",ColorTask,119.0,95.0,,,HRV,HRV_0278,2022-11-30 20:41:16
,wl-rdm,212,510387,0.0-8.95-0.95,1.0,213.0,,,,,,,[],,,,,,56.4,0.0,u,0.0,True,910.0,33.0,72.0,40.0,False,,233.21753398512237,[],"[960, 540]",ColorTask,120.0,96.0,,,HRV,HRV_0278,2022-11-30 20:41:16
,wl-rdm,213,512412,0.0-8.96-0.96,1.0,214.0,,,,,,,[],,,,,,87.9,0.0,u,0.0,True,588.1999999880791,22.0,72.0,40.0,False,,305.26791557491674,[],"[960, 540]",ColorTask,121.0,97.0,,,HRV,HRV_0278,2022-11-30 20:41:16
,wl-rdm,214,514854,0.0-8.97-0.97,1.0,215.0,,,,,,,[],,,,,,53.2,1.0,i,1.0,True,1058.5,39.0,72.0,40.0,False,,222.83133572966457,[],"[960, 540]",ColorTask,122.0,98.0,,,HRV,HRV_0278,2022-11-30 20:41:16
,wl-rdm,215,516964,0.0-8.98-0.98,1.0,216.0,,,,,,,[],,,,,,73.6,1.0,i,1.0,True,670.6999999880791,25.0,72.0,40.0,False,,299.78030982053406,[],"[960, 540]",ColorTask,123.0,99.0,,,HRV,HRV_0278,2022-11-30 20:41:16
,wl-rdm,216,519183,0.0-8.99-0.99,1.0,217.0,,,,,,,[],,,,,,56.4,0.0,u,0.0,True,727.7000000178814,27.0,72.0,40.0,False,,346.3697706722712,[],"[960, 540]",ColorTask,124.0,100.0,,,HRV,HRV_0278,2022-11-30 20:41:16
,wl-rdm,217,521237,0.0-8.100-0.100,1.0,218.0,,,,,,,[],,,,,,62.5,0.0,u,0.0,True,574.9000000059605,21.0,72.0,40.0,False,,351.967251719066,[],"[960, 540]",ColorTask,125.0,101.0,,,HRV,HRV_0278,2022-11-30 20:41:16
,wl-rdm,218,523568,0.0-8.101-0.101,1.0,219.0,,,,,,,[],,,,,,56.4,1.0,u,0.0,False,887.5999999940395,32.0,72.0,40.0,False,,325.2351370916766,[],"[960, 540]",ColorTask,124.0,102.0,,,HRV,HRV_0278,2022-11-30 20:41:16
,wl-rdm,219,525704,0.0-8.102-0.102,1.0,220.0,,,,,,,[],,,,,,87.9,1.0,i,1.0,True,653.9000000059605,24.0,72.0,40.0,False,,358.54214116186307,[],"[960, 540]",ColorTask,125.0,103.0,,,HRV,HRV_0278,2022-11-30 20:41:16
,wl-rdm,220,527703,0.0-8.103-0.103,1.0,221.0,,,,,,,[],,,,,,62.5,1.0,i,1.0,True,567.7000000178814,21.0,72.0,40.0,False,,284.13617579893645,[],"[960, 540]",ColorTask,126.0,104.0,,,HRV,HRV_0278,2022-11-30 20:41:16
,wl-rdm,221,529728,0.0-8.104-0.104,1.0,222.0,,,,,,,[],,,,,,87.9,1.0,i,1.0,True,552.5999999940395,20.0,72.0,40.0,False,,346.4541912715289,[],"[960, 540]",ColorTask,127.0,105.0,,,HRV,HRV_0278,2022-11-30 20:41:16
,wl-rdm,222,531781,0.0-8.105-0.105,1.0,223.0,,,,,,,[],,,,,,56.4,0.0,u,0.0,True,697.9000000059605,26.0,72.0,40.0,False,,212.5943575347924,[],"[960, 540]",ColorTask,128.0,106.0,,,HRV,HRV_0278,2022-11-30 20:41:16
,wl-rdm,223,534113,0.0-8.106-0.106,1.0,224.0,,,,,,,[],,,,,,50.0,1.0,u,0.0,False,940.4000000059605,34.0,72.0,40.0,False,,257.2614767789944,[],"[960, 540]",ColorTask,127.0,107.0,,,HRV,HRV_0278,2022-11-30 20:41:16
,wl-rdm,224,536471,0.0-8.107-0.107,1.0,225.0,,,,,,,[],,,,,,62.5,1.0,i,1.0,True,889.8000000119209,33.0,72.0,40.0,False,,326.11986252087064,[],"[960, 540]",ColorTask,128.0,108.0,,,HRV,HRV_0278,2022-11-30 20:41:16
,wl-html-button-response,225,538625,0.0-9.0-0.0,,,,,,,,,,2151.199999988079,,0,,,,,,,,,,,,,,,,,,,,<h3>End of this session. Thank you!</h3><br>,['Close window'],HRV,HRV_0278,2022-11-30 20:41:16
