Answer,C_Pay,Question,QuestionNum,jitter,C_Trial,C_QPresent,rsp,C_SWK,C_SWK_rt,C_AnswerPresent,C_WorthPresent,C_TrialEnd,C_Worth,C_Worth_rt,trialEvents,exp,subjectId,date
Juvenile deliquent,1,What did popular author J.D. Salinger reveal the first two intials in his name to stand for?  ,163,1.313,0,4820.600000143051,t,W,5183.0,12543.600000143051,16596.299999952316,21115.60000014305,,,,HRV,HRV_0299,2022-11-30 20:42:50
Capitol Hill,7,"Until 1790, what was known as Jenkins Hill? ",119,1.645,1,21115.799999952316,q,S,3603.2000000476837,,,26895.60000014305,,,,HRV,HRV_0299,2022-11-30 20:42:50
The dodo,5,"What is believed to have received its name from the Portuguese word for ""simpleton""? ",199,0.761,2,26896.0,q,S,3614.2000000476837,,,31823.900000095367,,,,HRV,HRV_0299,2022-11-30 20:42:50
Egypt,3,"In what country would you find the port of Rosetta, of Rosetta Stone fame?  ",63,1.581,3,31824.0,q,S,3426.2999999523163,,,37356.40000009537,,,,HRV,HRV_0299,2022-11-30 20:42:50
On Christ's crucifix ,2,"Where did the abbreviation ""INRI"" traditionally appear? ",315,1.148,4,37356.90000009537,q,S,3421.899999856949,,,42453.10000014305,,,,HRV,HRV_0299,2022-11-30 20:42:50
Broccoli! ,4,Whice vegeteable has more vitamin C than an orange and as much calcium as whole milk?,456,1.584,5,42453.299999952316,t,W,5357.800000190735,50342.90000009537,54370.5,58779.10000014305,4,2310.7999999523163,,HRV,HRV_0299,2022-11-30 20:42:50
Fiber is the gut bacteria's preferred fuel source. ,3,What food is most beneficial for your gut bacteria?,458,1.929,6,58779.299999952316,q,S,2754.2000000476837,,,63986.60000014305,,,,HRV,HRV_0299,2022-11-30 20:42:50
The Mini Cooper,2,"With over 5.3 million sold since 1959, what's by far the most successful British car of all time?",394,1.156,7,63986.700000047684,q,S,4552.400000095367,,,70221.10000014305,,,,HRV,HRV_0299,2022-11-30 20:42:50
Tse-tse fly,2,What transmits the disease typanosomiasis to humans and cattle? ,267,0.804,8,70221.20000004768,t,W,5295.900000095367,78041.20000004768,82066.70000004768,85382.0,2,1993.2999999523163,,HRV,HRV_0299,2022-11-30 20:42:50
spiced ham,4,What two words were combined to make the word Spam?,426,1.575,9,85382.10000014305,q,S,3981.899999856949,,,91462.10000014305,,,,HRV,HRV_0299,2022-11-30 20:42:50
Let's spend some time together,1,"In 1967, what did The Ed Sullivan Show force the Rolling Stones to sing instead of the title of their song ""Let's Spend the Night Together""?",54,0.769,10,91462.10000014305,q,S,4509.699999809265,,,97280.70000004768,,,,HRV,HRV_0299,2022-11-30 20:42:50
Nutmeg,6,What slightly hallucinogenic spice did Malcolm X use to get high while in prison? ,407,0.938,11,97280.90000009537,q,S,3433.2000000476837,,,102190.40000009537,,,,HRV,HRV_0299,2022-11-30 20:42:50
Bolivia,1,"Of all the countries named for a person, which country is named for the person who lived most recently?",75,1.589,12,102190.5,t,W,5863.100000143051,110578.79999995232,114607.5,118859.40000009537,2,2140.4000000953674,,HRV,HRV_0299,2022-11-30 20:42:50
Papillae,3,What are the bumps on the tongue that carry the taste buds called? ,137,0.829,13,118859.70000004768,q,S,6924.099999904633,,,127143.29999995232,,,"[{'event': 'onblur', 'details': 'out of focus', 'performance time': 123784.79999995232, 'date time': 1669840491807}]",HRV,HRV_0299,2022-11-30 20:42:50
All in the Family ,2,"What's the only TV show to top the Nielsen ratings five seasons in a row, from 1972 to 1976?  ",311,1.552,14,127143.40000009537,q,S,3687.5999999046326,,,132914.70000004768,,,,HRV,HRV_0299,2022-11-30 20:42:50
I'm a Believer ,1,What Monkees number one hit was written by a young Neil Diamond? ,233,1.005,15,132914.79999995232,q,S,4450.800000190735,,,138900.20000004768,,,,HRV,HRV_0299,2022-11-30 20:42:50
Quotations ,5,What did the letter Q originally stand for in NASDAQ?  ,165,1.707,16,138900.5,q,S,3264.7999999523163,,,144432.70000004768,,,,HRV,HRV_0299,2022-11-30 20:42:50
Green Eggs and Ham,7,What 1960 classic originated when Bennett Cerf bet one of his authors that he couldn't write a book using only fifty words?,419,0.92,17,144432.70000004768,t,W,7347.700000047684,154320.29999995232,158340.29999995232,161428.0,4,1651.9000000953674,,HRV,HRV_0299,2022-11-30 20:42:50
Gone with the Wind,2,The first swear word on the big screen was in what movie?,100,0.67,18,161428.29999995232,q,S,3179.4000000953674,,,165807.60000014305,,,,HRV,HRV_0299,2022-11-30 20:42:50
Every jar of peanut butter must be at least 90% peanuts,7,What percentage of peanuts is found in a standard jar of peanut butter?,423,1.433,19,165807.90000009537,q,S,2538.0999999046326,,,170302.0,,,,HRV,HRV_0299,2022-11-30 20:42:50
Yahoo!,6,What Internet portal was sued for copyright infringement in 2000 by the star of Young Einstein? ,190,0.933,20,170302.10000014305,q,S,4351.099999904633,,,176120.79999995232,,,,HRV,HRV_0299,2022-11-30 20:42:50
Strom Thurmond ,1,Who filibustered for a record twenty-four hours and eighteen minutes -- with a urine pail standing at the ready -- in the hope of preventing the Civil Rights Act of 1957?,366,0.803,21,176121.20000004768,q,S,5392.799999952316,,,182855.79999995232,,,,HRV,HRV_0299,2022-11-30 20:42:50
Eric the Red,4,"According to Norse sagas, who gave Greenland its misleading name in order to attract settlers? ",12,1.677,22,182856.20000004768,t,W,5370.799999952316,190762.20000004768,194785.60000014305,199682.5,2,2698.899999856949,,HRV,HRV_0299,2022-11-30 20:42:50
Coca-cola,4,What popular drink was first marketed as a brain tonic?,405,1.857,23,199682.5,q,S,3979.2000000476837,,,206044.10000014305,,,,HRV,HRV_0299,2022-11-30 20:42:50
Louie Louie,5,What 1963 song led to a thirty-one month FBI investigation into supposed obscenities hidden in its unintelligible lyrics?,122,1.794,24,206044.20000004768,,,,,,215562.29999995232,,,,HRV,HRV_0299,2022-11-30 20:42:50
Bright red,6,Vitamin A is largely available in natural food sources with which colour?,448,0.57,25,215562.40000009537,q,S,2738.5999999046326,,,219400.70000004768,,,,HRV,HRV_0299,2022-11-30 20:42:50
Ampersand (&),4,"What began as a ligature of the letters ""e"" and ""t""?",144,1.923,26,219401.0,q,S,4557.200000047684,,,226407.79999995232,,,,HRV,HRV_0299,2022-11-30 20:42:50
The U.S. Air Force,7,What current branch of the U.S. military was a corps of only 50 soldiers when World War I broke out?,161,0.581,27,226408.20000004768,q,S,4908.799999952316,,,232433.10000014305,,,,HRV,HRV_0299,2022-11-30 20:42:50
George VI,6,Who was the last British Monarch to also be an emperor?  ,381,0.88,28,232433.20000004768,t,W,3857.2999999523163,238817.5,242845.0,246158.10000014305,2,1908.2999999523163,,HRV,HRV_0299,2022-11-30 20:42:50
Gerald Ford ,7,What president was shot while walking to California Governor Jerry Brown's office?  ,247,0.704,29,246158.5,t,W,4524.5,253242.20000004768,257271.10000014305,259931.5,4,1424.0999999046326,,HRV,HRV_0299,2022-11-30 20:42:50
Cayenne pepper ,2,What spice is named for the capital of French Guiana? ,409,1.268,30,259931.60000014305,q,S,2663.399999856949,,,264400.2000000477,,,,HRV,HRV_0299,2022-11-30 20:42:50
Pride and Prejudice,5,"""An Assembly Such as This"" was a retelling of what famous literary work from a different character's point of view?",1,0.606,31,264400.60000014305,q,S,3913.0,,,269453.10000014305,,,,HRV,HRV_0299,2022-11-30 20:42:50
Bono ,5,What singer took his stage name from a Dublin hearing aid billboard?  ,257,0.887,32,269453.40000009537,t,W,4291.200000047684,276287.2999999523,280305.90000009537,282878.2000000477,3,1160.0,,HRV,HRV_0299,2022-11-30 20:42:50
Martin Luther King Jr. ,5,What civil rights leader did Dorothy Parker leave the bulk of her estate to?,149,1.672,33,282878.5,q,S,4700.900000095367,,,289771.60000014305,,,,HRV,HRV_0299,2022-11-30 20:42:50
Generals,6,Eleven U.S. presidents have been what before being elected?,36,0.792,34,289771.7999999523,q,S,4138.300000190735,,,295232.0,,,,HRV,HRV_0299,2022-11-30 20:42:50
Mountain Dew,7,"What was first marketed with hillbilly-themed advertising, since its name is a euphemism for moonshine?",421,1.997,35,295234.90000009537,q,S,4998.5,,,302741.40000009537,,,,HRV,HRV_0299,2022-11-30 20:42:50
The Atlas,7,"The U.S.'s first successful ICBM was what rocket named for a Titan of Greek myth, later used to launch John Glenn into orbit?",107,1.982,36,302741.5,q,S,3964.7999999523163,,,309210.7999999523,,,,HRV,HRV_0299,2022-11-30 20:42:50
Australia,7,"""Welcome Stranger,"" the largest nugget of gold discovered, weighed 158 pounds and was discovered in what country?",5,1.846,37,309210.7999999523,t,W,5717.900000095367,317463.2999999523,321480.40000009537,324648.2999999523,2,792.0,,HRV,HRV_0299,2022-11-30 20:42:50
Toledo,3,"The world's first ""sister cities"" were what Spanish city and its midwestern namesake?",110,1.278,38,324648.5,q,S,2148.100000143051,,,328599.40000009537,,,,HRV,HRV_0299,2022-11-30 20:42:50
Pressure,5,What is measured in millibars? ,202,0.552,39,328599.40000009537,q,S,2291.0,,,331957.60000014305,,,,HRV,HRV_0299,2022-11-30 20:42:50
Chicago,1,What city has the only drive-thru post office in the world? ,147,0.974,40,331958.2000000477,t,W,3313.2999999523163,337803.7999999523,341829.5,344379.7000000477,3,1041.0,,HRV,HRV_0299,2022-11-30 20:42:50
University of Phoenix,6,"What school has the most students over age 25, according to U.S. News & World Report?",256,1.156,41,344379.7999999523,q,S,2902.300000190735,,,348957.2999999523,,,,HRV,HRV_0299,2022-11-30 20:42:50
Claudius,6,Which Roman emperor had a speech impediment?  ,351,0.945,42,348957.5,q,S,1781.7999999523163,,,352224.40000009537,,,,HRV,HRV_0299,2022-11-30 20:42:50
The Hindenburg explosion,3,"What event inspired Herbert Morrison's famous quote ""Oh, the humanity!""?",174,0.994,43,352224.5,q,S,3126.9000000953674,,,356876.90000009537,,,,HRV,HRV_0299,2022-11-30 20:42:50
France,3,"What country launched Europe's first super-high-speed passenger train, in 1981?",159,1.647,44,356876.90000009537,q,S,3511.5,,,362566.5,,,,HRV,HRV_0299,2022-11-30 20:42:50
The Beatles' Rain ,4,What was the first rock song ever to feature hidden messages in the form of back-masked vocals?  ,284,1.901,45,362566.5,q,S,3880.4000000953674,,,368879.40000009537,,,,HRV,HRV_0299,2022-11-30 20:42:50
Sri Lanka,4,"The word serendipity comes from Serendip, the Persian name for what island? ",109,0.95,46,368879.40000009537,q,S,3727.0999999046326,,,374090.40000009537,,,,HRV,HRV_0299,2022-11-30 20:42:50
60 fragments per 100 gram ,2,What amount of insects does the FDA allow in chocolate,453,1.006,47,374090.7999999523,q,S,3149.4000000953674,,,378776.7999999523,,,,HRV,HRV_0299,2022-11-30 20:42:50
Grover Cleveland ,7,Who was the only U.S. president to have been married in the White House? ,385,1.855,48,378776.90000009537,t,W,3685.0,385009.2999999523,389027.10000014305,392089.5,3,692.0,,HRV,HRV_0299,2022-11-30 20:42:50
Untethered space walk,7,Challenger Astronaut Bruce McCandless II became Earth's first human to ever do what?,31,0.69,49,392089.5,q,S,3896.0,,,397200.10000014305,,,,HRV,HRV_0299,2022-11-30 20:42:50
Model train set,4,HO scale is the world's most popular size of what?,45,1.124,50,397200.2000000477,q,S,3747.0,,,402600.0,,,,HRV,HRV_0299,2022-11-30 20:42:50
Avocado,4,Pet parrots can eat most human foods except chocolate and which pitted food?  ,398,1.925,51,402600.10000014305,q,S,4012.399999856949,,,409072.90000009537,,,,HRV,HRV_0299,2022-11-30 20:42:50
the skin and bones of animals,1,What is gelatin made from?,445,1.67,52,409072.90000009537,q,S,1983.2000000476837,,,413251.0,,,,HRV,HRV_0299,2022-11-30 20:42:50
"the Red Hot Chili Peppers, followed closely by Meatloaf",2,Some bands share a name with a food. Which band named after a foodstuff has sold the most records?,439,1.152,53,413251.0,q,S,6253.5,,,421193.10000014305,,,,HRV,HRV_0299,2022-11-30 20:42:50
Traffic lights,1,"Thimpu, the capital of Bhutan, is known for being the only world capital without any what?",113,1.686,54,421193.10000014305,q,S,3917.199999809265,,,427316.2999999523,,,,HRV,HRV_0299,2022-11-30 20:42:50
The popsicle,4,Which popular treat was invented by an 11-year-old in California? ,413,0.673,55,427316.40000009537,t,W,4010.0999999046326,433849.7999999523,437876.0,439952.2000000477,2,875.9000000953674,,HRV,HRV_0299,2022-11-30 20:42:50
potein,1,"What nutrient comes from meat, eggs, and fish?",433,0.525,56,439952.40000009537,p,K,4245.799999952316,,,445256.2000000477,,,,HRV,HRV_0299,2022-11-30 20:42:50
Benjamin Franklin ,4,"Who carried hundreds of imported books in his Philadelphia shop in the 1730s, the same decade in which he started America's first lending library?",362,0.998,57,445256.2999999523,q,S,5427.300000190735,,,452217.5,,,,HRV,HRV_0299,2022-11-30 20:42:50
Cricket,3,"What sport used the term ""home run"" long before baseball?  ",260,1.126,58,452217.5,q,S,3438.2999999523163,,,457309.5,,,,HRV,HRV_0299,2022-11-30 20:42:50
Walt Disney,5,Which person has been awarded the most Oscars ever? ,349,0.927,59,457309.90000009537,t,W,3718.7999999523163,463552.2000000477,467570.7000000477,471799.7000000477,2,2776.2000000476837,,HRV,HRV_0299,2022-11-30 20:42:50
Love Me Do ,5,What was The Beatles's first song to hit the UK charts?,280,0.888,60,471799.90000009537,q,S,3099.2000000476837,,,476315.0,,,,HRV,HRV_0299,2022-11-30 20:42:50
Matches,5,"Which accidentally invented household items were first marketed as ""friction lights""? ",322,0.963,61,476315.40000009537,q,S,5037.099999904633,,,482846.10000014305,,,,HRV,HRV_0299,2022-11-30 20:42:50
PayPal,5,YouTube.com is the brainchild of three former employees of what other major website? ,396,0.975,62,482846.5,q,S,4508.0,,,488863.7999999523,,,,HRV,HRV_0299,2022-11-30 20:42:50
The Korean War,7,"What 20th-century conflict was dubbed the ""forgotten war"" despite over 50,000 U.S. deaths?",126,0.634,63,488863.90000009537,q,S,3435.2999999523163,,,493468.7000000477,,,,HRV,HRV_0299,2022-11-30 20:42:50
"Portland, Oregon",4,What city at the intersection of I-5 and I-84 is home to America's most courteous drivers according to a 2007 study? ,146,1.859,64,493469.0,q,S,4436.900000095367,,,500293.40000009537,,,,HRV,HRV_0299,2022-11-30 20:42:50
Giant squid,5,What is the largest creature without a backbone? ,203,0.989,65,500293.40000009537,t,W,2811.7999999523163,505632.2999999523,509651.10000014305,511746.5,2,578.2999999523163,,HRV,HRV_0299,2022-11-30 20:42:50
The budgerigar,3,"What pet bird takes its name from Australian Aborigine words for ""good eating""?",244,1.51,66,511746.60000014305,q,S,4091.5,,,517871.40000009537,,,,HRV,HRV_0299,2022-11-30 20:42:50
Marriage,1,Gamophobia is the fear of what?,42,0.543,67,517871.7999999523,p,K,4331.400000095367,,,523274.7999999523,,,,HRV,HRV_0299,2022-11-30 20:42:50
Syzygy,7,What's the astronomical term for three celestial bodies aligning?   ,302,1.793,68,523274.7999999523,q,S,3408.5,,,528996.9000000954,,,,HRV,HRV_0299,2022-11-30 20:42:50
Kayak,7,An umiak is a larger version of what? ,20,1.253,69,528997.2000000477,q,S,2226.2000000476837,,,533006.4000000954,,,,HRV,HRV_0299,2022-11-30 20:42:50
A jenny ,4,What is a female donkey called?,194,1.644,70,533006.4000000954,q,S,1819.5999999046326,,,536991.0,,,,HRV,HRV_0299,2022-11-30 20:42:50
Apples. They don't have caffeine but the natural sugar and vitamins release slowly and make you feel more awake. ,5,Whice fruit is effective than coffee at waking you up in the morning?,454,0.696,71,536991.2999999523,q,S,4163.100000143051,,,542380.5,,,,HRV,HRV_0299,2022-11-30 20:42:50
The Stanley Cup ,3,Where is Jacques Plante's name misspelled five of the six times it appears? ,318,0.914,72,542380.600000143,q,S,3914.199999809265,,,547727.7000000477,,,,HRV,HRV_0299,2022-11-30 20:42:50
Montenegro,2,What European country is named for the dark-looking Dinaric Alps? ,173,1.92,73,547727.7000000477,q,S,3124.7999999523163,,,553308.4000000954,,,,HRV,HRV_0299,2022-11-30 20:42:50
Columbia,5,What company introduced the first LP record albums?  ,155,0.804,74,553308.5,q,S,2713.5,,,557350.2000000477,,,,HRV,HRV_0299,2022-11-30 20:42:50
Apple sauce,4,What was the first food eaten in space?,435,1.547,75,557350.2000000477,q,S,3827.2999999523163,,,563239.600000143,,,,HRV,HRV_0299,2022-11-30 20:42:50
Hippopotamus ,5,Which wild mammal in Africa has killed the highest number of people? ,358,0.758,76,563239.600000143,t,W,4485.199999809265,570260.7999999523,574284.7999999523,576242.9000000954,4,678.3000001907349,,HRV,HRV_0299,2022-11-30 20:42:50
Dorito is Spanish for little golden things,2,What does Dorito actually mean?,434,1.155,77,576242.9000000954,q,S,1956.7999999523163,,,579883.5,,,,HRV,HRV_0299,2022-11-30 20:42:50
Haddock,2,"If you ordered an Omelet Arnold Bennett, what fish would you find in it?",429,1.725,78,579883.9000000954,q,S,4902.599999904633,,,587037.9000000954,,,,HRV,HRV_0299,2022-11-30 20:42:50
Monrovia,7,What African capital city is named after a U.S. president? ,128,1.832,79,587038.2999999523,q,S,2256.2000000476837,,,591661.600000143,,,,HRV,HRV_0299,2022-11-30 20:42:50
Draw,4,What does a screever do on a sidewalk? ,167,1.253,80,591661.600000143,q,S,3261.0,,,596698.0,,,,HRV,HRV_0299,2022-11-30 20:42:50
Black,5,What color lipstick did silent movie stars wear?  ,151,1.098,81,596698.100000143,p,K,4235.0,,,602551.4000000954,,,,HRV,HRV_0299,2022-11-30 20:42:50
