success,trial_type,trial_index,time_elapsed,internal_node_id,Block,TrialNumber,TrialTime,trialTimeDiff,FPS_avg,FPS_med,FPS_mode,TrialDur,winResizeTime,rt,block,button_pressed,MotCoh,MotDir,ColCoh,Color,ChoiceKey,Choice,Accuracy,RT,nFrames,FPS,PPD,missTrial,missTrialMsg,onsetDelay,fullScreenExitTime,canvCenter,TrialType,Score,BlockTrial,stimulus,button_labels,exp,subjectId,date
True,fullscreen,0,4011,0.0-0.0,0.0,1.0,,,,,,,,,,,,,,,,,,,,,,,,,,,,,,,,HRV,HRV_0299,2022-11-30 21:22:52
,wl-check-fps,1,9238,0.0-1.0,0.0,2.0,"[8906.2, 8919.7, 8982.4, 9121.8, 9128.3, 9144.8, 9160.4, 9186.4, 9199.9, 9228.1, 9229.9, 9246, 9260.5, 9278, 9293.6, 9312.4, 9326.7, 9344.5, 9360, 9376.9, 9394.9, 9412.6, 9426.9, 9445.2, 9460.1, 9478.1, 9493.8, 9512.7, 9527.2, 9545, 9560.1, 9578.9, 9597.5, 9617.2, 9626.5, 9645.6, 9659.9, 9678, 9693.6, 9712.3, 9726.7, 9745.2, 9760, 9778, 9796.9, 9817.8, 9829.7, 9849.7, 9864.1, 9886.3, 9896.6, 9917.6, 9929.8, 9946.7, 9966.8, 9997.2, 9999.8, 10017.7, 10030.3, 10050.1, 10063.9, 10083.1, 10099.7, 10117.2, 10126.6, 10144.2, 10162.2, 10177.8, 10197.5, 10209.7, 10228.4, 10244.5, 10259.9, 10278.7, 10294.3, 10312.2, 10326.3, 10344.5, 10360, 10378.9, 10393.4, 10412.4, 10426.5, 10444.9, 10459.7, 10476.6, 10494.6, 10512.2, 10526.7, 10544.9, 10559.9, 10577.9, 10593.5, 10610.5, 10628.1, 10644.4, 10659.9, 10683.7, 10697, 10716.8, 10728.8, 10744.8, 10759.6, 10776.5, 10794.5, 10816.4, 10829.4, 10850.1, 10866.8, 10879.6, 10899.8, 10916.7, 10950, 10953.1, 10963.8, 10979.7, 10999, 11017.1, 11029.2, 11063.5, 11065.9, 11083.7, 11096.4, 11117.1, 11129.3, 11146.1, 11160.8, 11177.6, 11193.2, 11210.7, 11226, 11245.3, 11259.8, 11276.4, 11294.2, 11310.8, 11326.2, 11345, 11359.7, 11377.5, 11393.5, 11409.9, 11428, 11444.6, 11459.9, 11476.5, 11494.4, 11512, 11526.3, 11544.6, 11559.9, 11585.7, 11596.7, 11609.3, 11628.2, 11644.1, 11662.3, 11677.4, 11693.3, 11709.4, 11727.3, 11744.1, 11759.3, 11777.3, 11793.1, 11810.9, 11828.8, 11850.9, 11863.4, 11879.6, 11899.1, 11917.1, 11930.9, 11947.1, 11966.8, 11983, 11995.7, 12034.9, 12036.8, 12049.6, 12062.8, 12079.8, 12098.8, 12116.6, 12128.8, 12149.6, 12160.5, 12175.8, 12194.4, 12210.6, 12225.9, 12244.9, 12259.6, 12276, 12294.6, 12310.7, 12325.9, 12344.6, 12359.1, 12375.9, 12395.2, 12409.7, 12425.8, 12445.3, 12459.1, 12478.4, 12494.7, 12536.7, 12538.5, 12546.2, 12567.1, 12576, 12593.8, 12610.1, 12627.3, 12644.6, 12659.4, 12677.7, 12693.8, 12710, 12728, 12744.7, 12759.1, 12776, 12794.9, 12810.9, 12830.7, 12853.5, 12865.8, 12883.1, 12903.2, 12920.3, 12936.5, 12949.6, 12963.7, 12986, 13019.5, 13022.4, 13037.2, 13052.7, 13066.4, 13086.7, 13096.5, 13135.6, 13137.6, 13147.4, 13168.2, 13176.5, 13193.9, 13207.6, 13227, 13244.1, 13260.6, 13278.3, 13295.4, 13308.6, 13325.7, 13344.3, 13359.2, 13374.4, 13394.2, 13407.7, 13425.9, 13443.7, 13459.2, 13475.6, 13494.4, 13508, 13527.4, 13541.7, 13558.9, 13598.1, 13608.6, 13625.4, 13643.2, 13659.8, 13675, 13690.8, 13708.5, 13726.1, 13742.8, 13757.5, 13775.3, 13793.9, 13808.5, 13824.5, 13847.3, 13866.2, 13877.5, 13893.8, 13917.7, 13930.5, 13944.9, 13959.8, 13983.5, 13999.2, 14010.7, 14025.5, 14048, 14065]","[49.8, 13.5, 62.7, 139.4, 6.5, 16.5, 15.6, 26, 13.5, 28.2, 1.8, 16.1, 14.5, 17.5, 15.6, 18.8, 14.3, 17.8, 15.5, 16.9, 18, 17.7, 14.3, 18.3, 14.9, 18, 15.7, 18.9, 14.5, 17.8, 15.1, 18.8, 18.6, 19.7, 9.3, 19.1, 14.3, 18.1, 15.6, 18.7, 14.4, 18.5, 14.8, 18, 18.9, 20.9, 11.9, 20, 14.4, 22.2, 10.3, 21, 12.2, 16.9, 20.1, 30.4, 2.6, 17.9, 12.6, 19.8, 13.8, 19.2, 16.6, 17.5, 9.4, 17.6, 18, 15.6, 19.7, 12.2, 18.7, 16.1, 15.4, 18.8, 15.6, 17.9, 14.1, 18.2, 15.5, 18.9, 14.5, 19, 14.1, 18.4, 14.8, 16.9, 18, 17.6, 14.5, 18.2, 15, 18, 15.6, 17, 17.6, 16.3, 15.5, 23.8, 13.3, 19.8, 12, 16, 14.8, 16.9, 18, 21.9, 13, 20.7, 16.7, 12.8, 20.2, 16.9, 33.3, 3.1, 10.7, 15.9, 19.3, 18.1, 12.1, 34.3, 2.4, 17.8, 12.7, 20.7, 12.2, 16.8, 14.7, 16.8, 15.6, 17.5, 15.3, 19.3, 14.5, 16.6, 17.8, 16.6, 15.4, 18.8, 14.7, 17.8, 16, 16.4, 18.1, 16.6, 15.3, 16.6, 17.9, 17.6, 14.3, 18.3, 15.3, 25.8, 11, 12.6, 18.9, 15.9, 18.2, 15.1, 15.9, 16.1, 17.9, 16.8, 15.2, 18, 15.8, 17.8, 17.9, 22.1, 12.5, 16.2, 19.5, 18, 13.8, 16.2, 19.7, 16.2, 12.7, 39.2, 1.9, 12.8, 13.2, 17, 19, 17.8, 12.2, 20.8, 10.9, 15.3, 18.6, 16.2, 15.3, 19, 14.7, 16.4, 18.6, 16.1, 15.2, 18.7, 14.5, 16.8, 19.3, 14.5, 16.1, 19.5, 13.8, 19.3, 16.3, 42, 1.8, 7.7, 20.9, 8.9, 17.8, 16.3, 17.2, 17.3, 14.8, 18.3, 16.1, 16.2, 18, 16.7, 14.4, 16.9, 18.9, 16, 19.8, 22.8, 12.3, 17.3, 20.1, 17.1, 16.2, 13.1, 14.1, 22.3, 33.5, 2.9, 14.8, 15.5, 13.7, 20.3, 9.8, 39.1, 2, 9.8, 20.8, 8.3, 17.4, 13.7, 19.4, 17.1, 16.5, 17.7, 17.1, 13.2, 17.1, 18.6, 14.9, 15.2, 19.8, 13.5, 18.2, 17.8, 15.5, 16.4, 18.8, 13.6, 19.4, 14.3, 17.2, 39.2, 10.5, 16.8, 17.8, 16.6, 15.2, 15.8, 17.7, 17.6, 16.7, 14.7, 17.8, 18.6, 14.6, 16, 22.8, 18.9, 11.3, 16.3, 23.9, 12.8, 14.4, 14.9, 23.7, 15.7, 11.5, 14.8, 22.5, 17]",58.0,60.0,56.0,5220.9,[],,,,,,,,,,,,,,,,,,,,,,,,,HRV,HRV_0299,2022-11-30 21:22:52
,wl-html-keyboard-response,2,24468,0.0-2.0-0.0,0.0,3.0,,,,,,,,13215.0,0.0,0,,,,,,,,,,,,,,,,,,,,,,HRV,HRV_0299,2022-11-30 21:22:52
,wl-rdm,3,31879,0.0-3.0-0.0,0.0,4.0,,,,,,,[],,,,0.0,0.0,87.9,0.0,u,0.0,True,1809.2000000476837,107.0,56.0,40.0,False,,3000.0,[],"[853.5, 480]",ColorTask_Demo,,,,,HRV,HRV_0299,2022-11-30 21:22:52
,wl-rdm,4,37516,0.0-3.0-1.0,0.0,5.0,,,,,,,[],,,,0.0,0.0,87.9,1.0,i,1.0,True,1533.4000000953674,92.0,56.0,40.0,False,,2000.0,[],"[853.5, 480]",ColorTask_Demo,,,,,HRV,HRV_0299,2022-11-30 21:22:52
,wl-html-keyboard-response,5,51809,0.0-3.0-2.0,0.0,6.0,,,,,,,,12283.700000047684,0.0,1,,,,,,,,,,,,,,,,,,,,,,HRV,HRV_0299,2022-11-30 21:22:52
,wl-html-keyboard-response,6,61090,0.0-4.0-0.0,0.0,7.0,,,,,,,,7272.200000047684,0.0,0,,,,,,,,,,,,,,,,,,,,,,HRV,HRV_0299,2022-11-30 21:22:52
,wl-html-keyboard-response,7,71842,0.0-5.0-0.0,0.0,8.0,,,,,,,,8744.599999904633,0.0,0,,,,,,,,,,,,,,,,,,,,,,HRV,HRV_0299,2022-11-30 21:22:52
,wl-rdm,8,74869,0.0-6.0-0.0,0.0,9.0,,,,,,,[],,,,,,62.5,0.0,u,0.0,True,1778.9999997615814,107.0,56.0,40.0,False,,200.04822434602823,[],"[853.5, 480]",ColorTask,1.0,1.0,,,HRV,HRV_0299,2022-11-30 21:22:52
,wl-rdm,9,77709,0.0-6.1-0.1,0.0,10.0,,,,,,,[],,,,,,56.4,0.0,i,1.0,False,1482.9000000953674,89.0,56.0,40.0,False,,279.88634037244856,[],"[853.5, 480]",ColorTask,0.0,2.0,,,HRV,HRV_0299,2022-11-30 21:22:52
,wl-rdm,10,80115,0.0-6.2-0.2,0.0,11.0,,,,,,,[],,,,,,87.9,1.0,i,1.0,True,915.5,55.0,56.0,40.0,False,,398.11010732914406,[],"[853.5, 480]",ColorTask,1.0,3.0,,,HRV,HRV_0299,2022-11-30 21:22:52
,wl-rdm,11,83131,0.0-6.3-0.3,0.0,12.0,,,,,,,[],,,,,,56.4,1.0,i,1.0,True,1649.6999998092651,97.0,56.0,40.0,False,,294.74283126788146,[],"[853.5, 480]",ColorTask,2.0,4.0,,,HRV,HRV_0299,2022-11-30 21:22:52
,wl-rdm,12,85282,0.0-6.4-0.4,0.0,13.0,,,,,,,[],,,,,,87.9,1.0,i,1.0,True,834.3999998569489,50.0,56.0,40.0,False,,250.8398950942772,[],"[853.5, 480]",ColorTask,3.0,5.0,,,HRV,HRV_0299,2022-11-30 21:22:52
,wl-rdm,13,88196,0.0-6.5-0.5,0.0,14.0,,,,,,,[],,,,,,53.2,0.0,i,1.0,False,1599.0999999046326,95.0,56.0,40.0,False,,228.14240973094317,[],"[853.5, 480]",ColorTask,2.0,6.0,,,HRV,HRV_0299,2022-11-30 21:22:52
,wl-rdm,14,91363,0.0-6.6-0.6,0.0,15.0,,,,,,,[],,,,,,56.4,1.0,i,1.0,True,1816.7999999523163,108.0,56.0,40.0,False,,288.1112157896845,[],"[853.5, 480]",ColorTask,3.0,7.0,,,HRV,HRV_0299,2022-11-30 21:22:52
,wl-rdm,15,94129,0.0-6.7-0.7,0.0,16.0,,,,,,,[],,,,,,53.2,0.0,u,0.0,True,1462.3999998569489,88.0,56.0,40.0,False,,219.49622682190102,[],"[853.5, 480]",ColorTask,4.0,8.0,,,HRV,HRV_0299,2022-11-30 21:22:52
,wl-rdm,16,96799,0.0-6.8-0.8,0.0,17.0,,,,,,,[],,,,,,50.0,0.0,i,1.0,False,1391.4000000953674,84.0,56.0,40.0,False,,204.84971037765595,[],"[853.5, 480]",ColorTask,3.0,9.0,,,HRV,HRV_0299,2022-11-30 21:22:52
,wl-rdm,17,99710,0.0-6.9-0.9,0.0,18.0,,,,,,,[],,,,,,73.6,0.0,u,0.0,True,1620.8000001907349,96.0,56.0,40.0,False,,225.67649355708338,[],"[853.5, 480]",ColorTask,4.0,10.0,,,HRV,HRV_0299,2022-11-30 21:22:52
,wl-rdm,18,102611,0.0-6.10-0.10,0.0,19.0,,,,,,,[],,,,,,62.5,1.0,i,1.0,True,1608.5999999046326,97.0,56.0,40.0,False,,207.34154203783768,[],"[853.5, 480]",ColorTask,5.0,11.0,,,HRV,HRV_0299,2022-11-30 21:22:52
,wl-rdm,19,104946,0.0-6.11-0.11,0.0,20.0,,,,,,,[],,,,,,73.6,1.0,i,1.0,True,920.7000000476837,56.0,56.0,40.0,False,,334.3889942713628,[],"[853.5, 480]",ColorTask,6.0,12.0,,,HRV,HRV_0299,2022-11-30 21:22:52
,wl-rdm,20,108011,0.0-6.12-0.12,0.0,21.0,,,,,,,[],,,,,,62.5,0.0,u,0.0,True,1670.6000001430511,101.0,56.0,40.0,False,,312.2115883443709,[],"[853.5, 480]",ColorTask,7.0,13.0,,,HRV,HRV_0299,2022-11-30 21:22:52
,wl-rdm,21,111194,0.0-6.13-0.13,0.0,22.0,,,,,,,[],,,,,,62.5,1.0,i,1.0,True,1734.9999997615814,103.0,56.0,40.0,False,,369.28413873618416,[],"[853.5, 480]",ColorTask,8.0,14.0,,,HRV,HRV_0299,2022-11-30 21:22:52
,wl-rdm,22,113506,0.0-6.14-0.14,0.0,23.0,,,,,,,[],,,,,,87.9,1.0,i,1.0,True,870.2999999523163,53.0,56.0,40.0,False,,365.39542549269254,[],"[853.5, 480]",ColorTask,9.0,15.0,,,HRV,HRV_0299,2022-11-30 21:22:52
,wl-rdm,23,116210,0.0-6.15-0.15,0.0,24.0,,,,,,,[],,,,,,53.2,1.0,i,1.0,True,1392.4000000953674,83.0,56.0,40.0,False,,239.94724633186414,[],"[853.5, 480]",ColorTask,10.0,16.0,,,HRV,HRV_0299,2022-11-30 21:22:52
,wl-rdm,24,119191,0.0-6.16-0.16,0.0,25.0,,,,,,,[],,,,,,53.2,0.0,u,0.0,True,1542.8999998569489,93.0,56.0,40.0,False,,370.4069031921447,[],"[853.5, 480]",ColorTask,11.0,17.0,,,HRV,HRV_0299,2022-11-30 21:22:52
,wl-rdm,25,123074,0.0-6.17-0.17,0.0,26.0,,,,,,,[],,,,,,50.0,1.0,u,0.0,False,2452.5,147.0,56.0,40.0,False,,356.28354080535354,[],"[853.5, 480]",ColorTask,10.0,18.0,,,HRV,HRV_0299,2022-11-30 21:22:52
,wl-rdm,26,126420,0.0-6.18-0.18,0.0,27.0,,,,,,,[],,,,,,56.4,1.0,i,1.0,True,1984.0,118.0,56.0,40.0,False,,272.8044178511924,[],"[853.5, 480]",ColorTask,11.0,19.0,,,HRV,HRV_0299,2022-11-30 21:22:52
,wl-rdm,27,128769,0.0-6.19-0.19,0.0,28.0,,,,,,,[],,,,,,73.6,1.0,i,1.0,True,1064.4999997615814,63.0,56.0,40.0,False,,211.43690973898418,[],"[853.5, 480]",ColorTask,12.0,20.0,,,HRV,HRV_0299,2022-11-30 21:22:52
,wl-rdm,28,131718,0.0-6.20-0.20,0.0,29.0,,,,,,,[],,,,,,56.4,0.0,i,1.0,False,1554.2000000476837,93.0,56.0,40.0,False,,326.42298634055294,[],"[853.5, 480]",ColorTask,11.0,21.0,,,HRV,HRV_0299,2022-11-30 21:22:52
,wl-rdm,29,135255,0.0-6.21-0.21,0.0,30.0,,,,,,,[],,,,,,56.4,1.0,i,1.0,True,2218.0999999046326,133.0,56.0,40.0,False,,234.48018134594432,[],"[853.5, 480]",ColorTask,12.0,22.0,,,HRV,HRV_0299,2022-11-30 21:22:52
,wl-rdm,30,138285,0.0-6.22-0.22,0.0,31.0,,,,,,,[],,,,,,50.0,1.0,i,1.0,True,1678.5,96.0,56.0,40.0,False,,296.9140647742784,[],"[853.5, 480]",ColorTask,13.0,23.0,,,HRV,HRV_0299,2022-11-30 21:22:52
,wl-rdm,31,140850,0.0-6.23-0.23,0.0,32.0,,,,,,,[],,,,,,87.9,1.0,i,1.0,True,1093.4000000953674,65.0,56.0,40.0,False,,393.6170424263161,[],"[853.5, 480]",ColorTask,14.0,24.0,,,HRV,HRV_0299,2022-11-30 21:22:52
,wl-rdm,32,143648,0.0-6.24-0.24,0.0,33.0,,,,,,,[],,,,,,73.6,0.0,u,0.0,True,1403.7000000476837,85.0,56.0,40.0,False,,306.9140532937964,[],"[853.5, 480]",ColorTask,15.0,25.0,,,HRV,HRV_0299,2022-11-30 21:22:52
,wl-rdm,33,146999,0.0-6.25-0.25,0.0,34.0,,,,,,,[],,,,,,50.0,0.0,i,1.0,False,1897.0999999046326,113.0,56.0,40.0,False,,379.26443310304313,[],"[853.5, 480]",ColorTask,14.0,26.0,,,HRV,HRV_0299,2022-11-30 21:22:52
,wl-rdm,34,149350,0.0-6.26-0.26,0.0,35.0,,,,,,,[],,,,,,73.6,1.0,i,1.0,True,1023.7000000476837,62.0,56.0,40.0,False,,258.19295616813434,[],"[853.5, 480]",ColorTask,15.0,27.0,,,HRV,HRV_0299,2022-11-30 21:22:52
,wl-rdm,35,152179,0.0-6.27-0.27,0.0,36.0,,,,,,,[],,,,,,62.5,0.0,u,0.0,True,1507.5999999046326,91.0,56.0,40.0,False,,245.6086061650011,[],"[853.5, 480]",ColorTask,16.0,28.0,,,HRV,HRV_0299,2022-11-30 21:22:52
,wl-rdm,36,155096,0.0-6.28-0.28,0.0,37.0,,,,,,,[],,,,,,50.0,0.0,i,1.0,False,1623.3000001907349,98.0,56.0,40.0,False,,202.81721890621847,[],"[853.5, 480]",ColorTask,15.0,29.0,,,HRV,HRV_0299,2022-11-30 21:22:52
,wl-rdm,37,157563,0.0-6.29-0.29,0.0,38.0,,,,,,,[],,,,,,56.4,0.0,i,1.0,False,1134.5,64.0,56.0,40.0,False,,279.6440168868985,[],"[853.5, 480]",ColorTask,14.0,30.0,,,HRV,HRV_0299,2022-11-30 21:22:52
,wl-rdm,38,160810,0.0-6.30-0.30,0.0,39.0,,,,,,,[],,,,,,62.5,1.0,i,1.0,True,1918.8000001907349,115.0,56.0,40.0,False,,252.77932024334058,[],"[853.5, 480]",ColorTask,15.0,31.0,,,HRV,HRV_0299,2022-11-30 21:22:52
,wl-rdm,39,163359,0.0-6.31-0.31,0.0,40.0,,,,,,,[],,,,,,87.9,0.0,u,0.0,True,1266.5,76.0,56.0,40.0,False,,205.28445439494135,[],"[853.5, 480]",ColorTask,16.0,32.0,,,HRV,HRV_0299,2022-11-30 21:22:52
,wl-rdm,40,165925,0.0-6.32-0.32,0.0,41.0,,,,,,,[],,,,,,87.9,0.0,u,0.0,True,1287.3999998569489,75.0,56.0,40.0,False,,209.09858912602314,[],"[853.5, 480]",ColorTask,17.0,33.0,,,HRV,HRV_0299,2022-11-30 21:22:52
,wl-rdm,41,169628,0.0-6.33-0.33,0.0,42.0,,,,,,,[],,,,,,53.2,1.0,u,0.0,False,2399.0999999046326,135.0,56.0,40.0,False,,246.7230503578437,[],"[853.5, 480]",ColorTask,16.0,34.0,,,HRV,HRV_0299,2022-11-30 21:22:52
,wl-rdm,42,172523,0.0-6.34-0.34,0.0,43.0,,,,,,,[],,,,,,50.0,1.0,u,0.0,False,1570.3999998569489,95.0,56.0,40.0,False,,249.07800695523082,[],"[853.5, 480]",ColorTask,15.0,35.0,,,HRV,HRV_0299,2022-11-30 21:22:52
,wl-rdm,43,175373,0.0-6.35-0.35,0.0,44.0,,,,,,,[],,,,,,53.2,0.0,i,1.0,False,1376.1000001430511,82.0,56.0,40.0,False,,384.56273650488725,[],"[853.5, 480]",ColorTask,14.0,36.0,,,HRV,HRV_0299,2022-11-30 21:22:52
,wl-rdm,44,178055,0.0-6.36-0.36,0.0,45.0,,,,,,,[],,,,,,62.5,0.0,i,1.0,False,1214.7000000476837,73.0,56.0,40.0,False,,389.97790816039173,[],"[853.5, 480]",ColorTask,13.0,37.0,,,HRV,HRV_0299,2022-11-30 21:22:52
,wl-rdm,45,180338,0.0-6.37-0.37,0.0,46.0,,,,,,,[],,,,,,73.6,1.0,i,1.0,True,908.2000000476837,55.0,56.0,40.0,False,,294.63487894239046,[],"[853.5, 480]",ColorTask,14.0,38.0,,,HRV,HRV_0299,2022-11-30 21:22:52
,wl-rdm,46,182892,0.0-6.38-0.38,0.0,47.0,,,,,,,[],,,,,,73.6,0.0,u,0.0,True,1088.1999998092651,66.0,56.0,40.0,False,,387.39255433043445,[],"[853.5, 480]",ColorTask,15.0,39.0,,,HRV,HRV_0299,2022-11-30 21:22:52
,wl-rdm,47,185827,0.0-6.39-0.39,0.0,48.0,,,,,,,[],,,,,,50.0,1.0,i,1.0,True,1613.7000000476837,95.0,56.0,40.0,False,,257.54996819382114,[],"[853.5, 480]",ColorTask,16.0,40.0,,,HRV,HRV_0299,2022-11-30 21:22:52
,wl-rdm,48,188487,0.0-6.40-0.40,0.0,49.0,,,,,,,[],,,,,,50.0,0.0,i,1.0,False,1318.7999999523163,79.0,56.0,40.0,False,,272.674880545816,[],"[853.5, 480]",ColorTask,15.0,41.0,,,HRV,HRV_0299,2022-11-30 21:22:52
,wl-rdm,49,191186,0.0-6.41-0.41,0.0,50.0,,,,,,,[],,,,,,50.0,1.0,i,1.0,True,1367.0,82.0,56.0,40.0,False,,257.2876548238478,[],"[853.5, 480]",ColorTask,16.0,42.0,,,HRV,HRV_0299,2022-11-30 21:22:52
,wl-rdm,50,194070,0.0-6.42-0.42,0.0,51.0,,,,,,,[],,,,,,53.2,1.0,u,0.0,False,1408.2999999523163,83.0,56.0,40.0,False,,399.8629973018354,[],"[853.5, 480]",ColorTask,15.0,43.0,,,HRV,HRV_0299,2022-11-30 21:22:52
,wl-rdm,51,196435,0.0-6.43-0.43,0.0,52.0,,,,,,,[],,,,,,62.5,1.0,i,1.0,True,1015.2999999523163,62.0,56.0,40.0,False,,262.84441251500766,[],"[853.5, 480]",ColorTask,16.0,44.0,,,HRV,HRV_0299,2022-11-30 21:22:52
,wl-rdm,52,199518,0.0-6.44-0.44,0.0,53.0,,,,,,,[],,,,,,53.2,0.0,u,0.0,True,1791.1999998092651,107.0,56.0,40.0,False,,217.62030798705572,[],"[853.5, 480]",ColorTask,17.0,45.0,,,HRV,HRV_0299,2022-11-30 21:22:52
,wl-rdm,53,202019,0.0-6.45-0.45,0.0,54.0,,,,,,,[],,,,,,87.9,1.0,i,1.0,True,1163.0,70.0,56.0,40.0,False,,277.25688402210267,[],"[853.5, 480]",ColorTask,18.0,46.0,,,HRV,HRV_0299,2022-11-30 21:22:52
,wl-rdm,54,204516,0.0-6.46-0.46,0.0,55.0,,,,,,,[],,,,,,56.4,1.0,i,1.0,True,1187.8999998569489,71.0,56.0,40.0,False,,240.24205323859718,[],"[853.5, 480]",ColorTask,19.0,47.0,,,HRV,HRV_0299,2022-11-30 21:22:52
,wl-rdm,55,206698,0.0-6.47-0.47,0.0,56.0,,,,,,,[],,,,,,87.9,1.0,i,1.0,True,842.7999999523163,39.0,56.0,40.0,False,,271.4390607913725,[],"[853.5, 480]",ColorTask,20.0,48.0,,,HRV,HRV_0299,2022-11-30 21:22:52
,wl-rdm,56,210281,0.0-6.48-0.48,0.0,57.0,,,,,,,[],,,,,,62.5,1.0,i,1.0,True,2270.5,137.0,56.0,40.0,False,,222.05929406143127,[],"[853.5, 480]",ColorTask,21.0,49.0,,,HRV,HRV_0299,2022-11-30 21:22:52
,wl-rdm,57,213398,0.0-6.49-0.49,0.0,58.0,,,,,,,[],,,,,,53.2,0.0,u,0.0,True,1691.2999999523163,102.0,56.0,40.0,False,,339.3056127035038,[],"[853.5, 480]",ColorTask,22.0,50.0,,,HRV,HRV_0299,2022-11-30 21:22:52
,wl-rdm,58,216614,0.0-6.50-0.50,0.0,59.0,,,,,,,[],,,,,,56.4,0.0,i,1.0,False,1918.2000000476837,115.0,56.0,40.0,False,,223.0039030124254,[],"[853.5, 480]",ColorTask,21.0,51.0,,,HRV,HRV_0299,2022-11-30 21:22:52
,wl-rdm,59,219278,0.0-6.51-0.51,0.0,60.0,,,,,,,[],,,,,,87.9,0.0,u,0.0,True,1358.6999998092651,82.0,56.0,40.0,False,,239.45574817118705,[],"[853.5, 480]",ColorTask,22.0,52.0,,,HRV,HRV_0299,2022-11-30 21:22:52
,wl-rdm,60,222344,0.0-6.52-0.52,0.0,61.0,,,,,,,[],,,,,,62.5,1.0,i,1.0,True,1769.6000001430511,105.0,56.0,40.0,False,,209.40702019279556,[],"[853.5, 480]",ColorTask,23.0,53.0,,,HRV,HRV_0299,2022-11-30 21:22:52
,wl-rdm,61,225461,0.0-6.53-0.53,0.0,62.0,,,,,,,[],,,,,,62.5,1.0,i,1.0,True,1811.8000001907349,110.0,56.0,40.0,False,,212.6599341825965,[],"[853.5, 480]",ColorTask,24.0,54.0,,,HRV,HRV_0299,2022-11-30 21:22:52
,wl-rdm,62,229231,0.0-6.54-0.54,0.0,63.0,,,,,,,[],,,,,,50.0,0.0,i,1.0,False,2357.2000000476837,142.0,56.0,40.0,False,,346.664610782167,[],"[853.5, 480]",ColorTask,23.0,55.0,,,HRV,HRV_0299,2022-11-30 21:22:52
,wl-rdm,63,232842,0.0-6.55-0.55,0.0,64.0,,,,,,,[],,,,,,50.0,1.0,u,0.0,False,2152.100000143051,129.0,56.0,40.0,False,,394.2611059720785,[],"[853.5, 480]",ColorTask,22.0,56.0,,,HRV,HRV_0299,2022-11-30 21:22:52
,wl-rdm,64,235974,0.0-6.56-0.56,0.0,65.0,,,,,,,[],,,,,,62.5,0.0,u,0.0,True,1712.1999998092651,102.0,56.0,40.0,False,,322.4763118687176,[],"[853.5, 480]",ColorTask,23.0,57.0,,,HRV,HRV_0299,2022-11-30 21:22:52
,wl-rdm,65,239460,0.0-6.57-0.57,0.0,66.0,,,,,,,[],,,,,,56.4,0.0,i,1.0,False,2029.3999998569489,122.0,56.0,40.0,False,,396.59871247874116,[],"[853.5, 480]",ColorTask,22.0,58.0,,,HRV,HRV_0299,2022-11-30 21:22:52
,wl-rdm,66,242225,0.0-6.58-0.58,0.0,67.0,,,,,,,[],,,,,,53.2,1.0,i,1.0,True,1361.7999997138977,82.0,56.0,40.0,False,,347.27331848788333,[],"[853.5, 480]",ColorTask,23.0,59.0,,,HRV,HRV_0299,2022-11-30 21:22:52
,wl-rdm,67,245805,0.0-6.59-0.59,0.0,68.0,,,,,,,[],,,,,,50.0,1.0,u,0.0,False,2109.4000000953674,125.0,56.0,40.0,False,,387.28573210737176,[],"[853.5, 480]",ColorTask,22.0,60.0,,,HRV,HRV_0299,2022-11-30 21:22:52
,wl-rdm,68,248838,0.0-6.60-0.60,0.0,69.0,,,,,,,[],,,,,,73.6,0.0,u,0.0,True,1754.8999998569489,105.0,56.0,40.0,False,,201.81754483097978,[],"[853.5, 480]",ColorTask,23.0,61.0,,,HRV,HRV_0299,2022-11-30 21:22:52
,wl-rdm,69,251308,0.0-6.61-0.61,0.0,70.0,,,,,,,[],,,,,,62.5,1.0,i,1.0,True,1059.2999999523163,64.0,56.0,40.0,False,,338.3389184708791,[],"[853.5, 480]",ColorTask,24.0,62.0,,,HRV,HRV_0299,2022-11-30 21:22:52
,wl-rdm,70,253641,0.0-6.62-0.62,0.0,71.0,,,,,,,[],,,,,,87.9,0.0,u,0.0,True,981.7999999523163,59.0,56.0,40.0,False,,296.2672544560752,[],"[853.5, 480]",ColorTask,25.0,63.0,,,HRV,HRV_0299,2022-11-30 21:22:52
,wl-rdm,71,255869,0.0-6.63-0.63,0.0,72.0,,,,,,,[],,,,,,87.9,1.0,i,1.0,True,850.6000001430511,51.0,56.0,40.0,False,,304.7609478327686,[],"[853.5, 480]",ColorTask,26.0,64.0,,,HRV,HRV_0299,2022-11-30 21:22:52
,wl-rdm,72,258135,0.0-6.64-0.64,0.0,73.0,,,,,,,[],,,,,,73.6,1.0,i,1.0,True,836.4000000953674,50.0,56.0,40.0,False,,354.6011973946978,[],"[853.5, 480]",ColorTask,27.0,65.0,,,HRV,HRV_0299,2022-11-30 21:22:52
,wl-rdm,73,260454,0.0-6.65-0.65,0.0,74.0,,,,,,,[],,,,,,73.6,0.0,u,0.0,True,938.2999999523163,57.0,56.0,40.0,False,,311.9058318935954,[],"[853.5, 480]",ColorTask,28.0,66.0,,,HRV,HRV_0299,2022-11-30 21:22:52
,wl-rdm,74,263653,0.0-6.66-0.66,0.0,75.0,,,,,,,[],,,,,,53.2,0.0,u,0.0,True,1837.6000001430511,111.0,56.0,40.0,False,,290.8262013217793,[],"[853.5, 480]",ColorTask,29.0,67.0,,,HRV,HRV_0299,2022-11-30 21:22:52
,wl-rdm,75,266169,0.0-6.67-0.67,0.0,76.0,,,,,,,[],,,,,,87.9,0.0,u,0.0,True,1075.4999997615814,64.0,56.0,40.0,False,,382.66094227363646,[],"[853.5, 480]",ColorTask,30.0,68.0,,,HRV,HRV_0299,2022-11-30 21:22:52
,wl-rdm,76,269981,0.0-6.68-0.68,0.0,77.0,,,,,,,[],,,,,,62.5,0.0,i,1.0,False,2478.2999999523163,146.0,56.0,40.0,False,,276.37607850359063,[],"[853.5, 480]",ColorTask,29.0,69.0,,,HRV,HRV_0299,2022-11-30 21:22:52
,wl-rdm,77,272398,0.0-6.69-0.69,0.0,78.0,,,,,,,[],,,,,,56.4,0.0,i,1.0,False,1097.1999998092651,66.0,56.0,40.0,False,,262.21402738056923,[],"[853.5, 480]",ColorTask,28.0,70.0,,,HRV,HRV_0299,2022-11-30 21:22:52
,wl-rdm,78,274699,0.0-6.70-0.70,0.0,79.0,,,,,,,[],,,,,,56.4,1.0,i,1.0,True,1014.7999997138977,61.0,56.0,40.0,False,,231.70604893358393,[],"[853.5, 480]",ColorTask,29.0,71.0,,,HRV,HRV_0299,2022-11-30 21:22:52
,wl-rdm,79,277533,0.0-6.71-0.71,0.0,80.0,,,,,,,[],,,,,,53.2,0.0,u,0.0,True,1367.6000001430511,79.0,56.0,40.0,False,,344.1176220462169,[],"[853.5, 480]",ColorTask,30.0,72.0,,,HRV,HRV_0299,2022-11-30 21:22:52
,wl-rdm,80,280516,0.0-6.72-0.72,0.0,81.0,,,,,,,[],,,,,,73.6,0.0,u,0.0,True,1680.0,100.0,56.0,40.0,False,,221.34246082626004,[],"[853.5, 480]",ColorTask,31.0,73.0,,,HRV,HRV_0299,2022-11-30 21:22:52
,wl-rdm,81,282644,0.0-6.73-0.73,0.0,82.0,,,,,,,[],,,,,,73.6,1.0,i,1.0,True,839.7999997138977,51.0,56.0,40.0,False,,213.36590129750104,[],"[853.5, 480]",ColorTask,32.0,74.0,,,HRV,HRV_0299,2022-11-30 21:22:52
,wl-rdm,82,285511,0.0-6.74-0.74,0.0,83.0,,,,,,,[],,,,,,50.0,0.0,u,0.0,True,1572.0,95.0,56.0,40.0,False,,213.61608325247934,[],"[853.5, 480]",ColorTask,33.0,75.0,,,HRV,HRV_0299,2022-11-30 21:22:52
,wl-rdm,83,287779,0.0-6.75-0.75,0.0,84.0,,,,,,,[],,,,,,73.6,1.0,i,1.0,True,913.0,55.0,56.0,40.0,False,,289.1745622312013,[],"[853.5, 480]",ColorTask,34.0,76.0,,,HRV,HRV_0299,2022-11-30 21:22:52
,wl-rdm,84,290127,0.0-6.76-0.76,0.0,85.0,,,,,,,[],,,,,,62.5,0.0,u,0.0,True,1069.8000001907349,63.0,56.0,40.0,False,,211.94763218825682,[],"[853.5, 480]",ColorTask,35.0,77.0,,,HRV,HRV_0299,2022-11-30 21:22:52
,wl-rdm,85,292510,0.0-6.77-0.77,0.0,86.0,,,,,,,[],,,,,,87.9,0.0,u,0.0,True,1028.1000001430511,62.0,56.0,40.0,False,,267.028698486258,[],"[853.5, 480]",ColorTask,36.0,78.0,,,HRV,HRV_0299,2022-11-30 21:22:52
,wl-rdm,86,294815,0.0-6.78-0.78,0.0,87.0,,,,,,,[],,,,,,73.6,1.0,i,1.0,True,1010.5999999046326,60.0,56.0,40.0,False,,224.14303227743818,[],"[853.5, 480]",ColorTask,37.0,79.0,,,HRV,HRV_0299,2022-11-30 21:22:52
,wl-rdm,87,296991,0.0-6.79-0.79,0.0,88.0,,,,,,,[],,,,,,87.9,1.0,i,1.0,True,841.1999998092651,51.0,56.0,40.0,False,,274.9641579448563,[],"[853.5, 480]",ColorTask,38.0,80.0,,,HRV,HRV_0299,2022-11-30 21:22:52
,wl-rdm,88,299990,0.0-6.80-0.80,0.0,89.0,,,,,,,[],,,,,,53.2,1.0,i,1.0,True,1591.4000000953674,95.0,56.0,40.0,False,,339.9188084409619,[],"[853.5, 480]",ColorTask,39.0,81.0,,,HRV,HRV_0299,2022-11-30 21:22:52
,wl-rdm,89,303256,0.0-6.81-0.81,0.0,90.0,,,,,,,[],,,,,,50.0,0.0,i,1.0,False,1931.5999999046326,115.0,56.0,40.0,False,,243.33064222486286,[],"[853.5, 480]",ColorTask,38.0,82.0,,,HRV,HRV_0299,2022-11-30 21:22:52
,wl-rdm,90,306672,0.0-6.82-0.82,0.0,91.0,,,,,,,[],,,,,,53.2,1.0,u,0.0,False,2090.2000000476837,126.0,56.0,40.0,False,,243.53979762797763,[],"[853.5, 480]",ColorTask,37.0,83.0,,,HRV,HRV_0299,2022-11-30 21:22:52
,wl-rdm,91,309238,0.0-6.83-0.83,0.0,92.0,,,,,,,[],,,,,,87.9,0.0,u,0.0,True,1093.9000000953674,58.0,56.0,40.0,False,,390.30567288016164,[],"[853.5, 480]",ColorTask,38.0,84.0,,,HRV,HRV_0299,2022-11-30 21:22:52
,wl-rdm,92,313108,0.0-6.84-0.84,0.0,93.0,,,,,,,[],,,,,,56.4,0.0,u,0.0,True,2407.5999999046326,145.0,56.0,40.0,False,,389.41513115798136,[],"[853.5, 480]",ColorTask,39.0,85.0,,,HRV,HRV_0299,2022-11-30 21:22:52
,wl-rdm,93,315370,0.0-6.85-0.85,0.0,94.0,,,,,,,[],,,,,,73.6,1.0,i,1.0,True,864.7000000476837,51.0,56.0,40.0,False,,330.30295481952624,[],"[853.5, 480]",ColorTask,40.0,86.0,,,HRV,HRV_0299,2022-11-30 21:22:52
,wl-rdm,94,318369,0.0-6.86-0.86,0.0,95.0,,,,,,,[],,,,,,62.5,1.0,i,1.0,True,1654.8000001907349,98.0,56.0,40.0,False,,268.38085029249373,[],"[853.5, 480]",ColorTask,41.0,87.0,,,HRV,HRV_0299,2022-11-30 21:22:52
,wl-rdm,95,321104,0.0-6.87-0.87,0.0,96.0,,,,,,,[],,,,,,56.4,1.0,u,0.0,False,1364.2999999523163,82.0,56.0,40.0,False,,303.6119560596562,[],"[853.5, 480]",ColorTask,40.0,88.0,,,HRV,HRV_0299,2022-11-30 21:22:52
,wl-rdm,96,323584,0.0-6.88-0.88,0.0,97.0,,,,,,,[],,,,,,73.6,0.0,u,0.0,True,1105.7999999523163,67.0,56.0,40.0,False,,286.27487559188535,[],"[853.5, 480]",ColorTask,41.0,89.0,,,HRV,HRV_0299,2022-11-30 21:22:52
,wl-rdm,97,327004,0.0-6.89-0.89,0.0,98.0,,,,,,,[],,,,,,62.5,0.0,u,0.0,True,2131.7999999523163,128.0,56.0,40.0,False,,225.0108015254083,[],"[853.5, 480]",ColorTask,42.0,90.0,,,HRV,HRV_0299,2022-11-30 21:22:52
,wl-rdm,98,330046,0.0-6.90-0.90,0.0,99.0,,,,,,,[],,,,,,53.2,1.0,i,1.0,True,1749.7999999523163,105.0,56.0,40.0,False,,216.60189243582838,[],"[853.5, 480]",ColorTask,43.0,91.0,,,HRV,HRV_0299,2022-11-30 21:22:52
,wl-rdm,99,332448,0.0-6.91-0.91,0.0,100.0,,,,,,,[],,,,,,87.9,0.0,u,0.0,True,983.5000002384186,59.0,56.0,40.0,False,,341.47379529231625,[],"[853.5, 480]",ColorTask,44.0,92.0,,,HRV,HRV_0299,2022-11-30 21:22:52
,wl-rdm,100,336201,0.0-6.92-0.92,0.0,101.0,,,,,,,[],,,,,,73.6,0.0,i,1.0,False,2440.699999809265,148.0,56.0,40.0,False,,239.94581687940894,[],"[853.5, 480]",ColorTask,43.0,93.0,,,HRV,HRV_0299,2022-11-30 21:22:52
,wl-rdm,101,338830,0.0-6.93-0.93,0.0,102.0,,,,,,,[],,,,,,50.0,1.0,i,1.0,True,1186.4000000953674,72.0,56.0,40.0,False,,359.69491041652964,[],"[853.5, 480]",ColorTask,44.0,94.0,,,HRV,HRV_0299,2022-11-30 21:22:52
,wl-rdm,102,342847,0.0-6.94-0.94,0.0,103.0,,,,,,,[],,,,,,50.0,1.0,u,0.0,False,2743.600000143051,164.0,56.0,40.0,False,,200.6734432316348,[],"[853.5, 480]",ColorTask,43.0,95.0,,,HRV,HRV_0299,2022-11-30 21:22:52
,wl-rdm,103,346233,0.0-6.95-0.95,0.0,104.0,,,,,,,[],,,,,,53.2,0.0,u,0.0,True,1979.8999998569489,119.0,56.0,40.0,False,,346.68557572845884,[],"[853.5, 480]",ColorTask,44.0,96.0,,,HRV,HRV_0299,2022-11-30 21:22:52
,wl-rdm,104,348795,0.0-6.96-0.96,0.0,105.0,,,,,,,[],,,,,,62.5,0.0,u,0.0,True,1188.5000002384186,66.0,56.0,40.0,False,,311.3776807269562,[],"[853.5, 480]",ColorTask,45.0,97.0,,,HRV,HRV_0299,2022-11-30 21:22:52
,wl-rdm,105,351927,0.0-6.97-0.97,0.0,106.0,,,,,,,[],,,,,,56.4,1.0,i,1.0,True,1735.8999998569489,103.0,56.0,40.0,False,,319.9840294975423,[],"[853.5, 480]",ColorTask,46.0,98.0,,,HRV,HRV_0299,2022-11-30 21:22:52
,wl-rdm,106,354528,0.0-6.98-0.98,0.0,107.0,,,,,,,[],,,,,,50.0,0.0,i,1.0,False,1295.1000001430511,75.0,56.0,40.0,False,,251.64486189774416,[],"[853.5, 480]",ColorTask,45.0,99.0,,,HRV,HRV_0299,2022-11-30 21:22:52
,wl-rdm,107,357430,0.0-6.99-0.99,0.0,108.0,,,,,,,[],,,,,,56.4,0.0,u,0.0,True,1617.9999997615814,96.0,56.0,40.0,False,,215.05968984129913,[],"[853.5, 480]",ColorTask,46.0,100.0,,,HRV,HRV_0299,2022-11-30 21:22:52
,wl-rdm,108,359926,0.0-6.100-0.100,0.0,109.0,,,,,,,[],,,,,,53.2,1.0,i,1.0,True,1219.8999998569489,73.0,56.0,40.0,False,,214.9371592024606,[],"[853.5, 480]",ColorTask,47.0,101.0,,,HRV,HRV_0299,2022-11-30 21:22:52
,wl-rdm,109,363360,0.0-6.101-0.101,0.0,110.0,,,,,,,[],,,,,,53.2,1.0,i,1.0,True,2076.0,125.0,56.0,40.0,False,,221.26156349794417,[],"[853.5, 480]",ColorTask,48.0,102.0,,,HRV,HRV_0299,2022-11-30 21:22:52
,wl-rdm,110,365940,0.0-6.102-0.102,0.0,111.0,,,,,,,[],,,,,,87.9,0.0,u,0.0,True,1184.9000000953674,71.0,56.0,40.0,False,,334.8728546084227,[],"[853.5, 480]",ColorTask,49.0,103.0,,,HRV,HRV_0299,2022-11-30 21:22:52
,wl-rdm,111,368477,0.0-6.103-0.103,0.0,112.0,,,,,,,[],,,,,,73.6,0.0,u,0.0,True,1216.2000000476837,73.0,56.0,40.0,False,,236.73456694782385,[],"[853.5, 480]",ColorTask,50.0,104.0,,,HRV,HRV_0299,2022-11-30 21:22:52
,wl-rdm,112,371341,0.0-6.104-0.104,0.0,113.0,,,,,,,[],,,,,,56.4,0.0,u,0.0,True,1405.3999998569489,83.0,56.0,40.0,False,,359.55770364494776,[],"[853.5, 480]",ColorTask,51.0,105.0,,,HRV,HRV_0299,2022-11-30 21:22:52
,wl-rdm,113,374558,0.0-6.105-0.105,0.0,114.0,,,,,,,[],,,,,,50.0,0.0,u,0.0,True,1914.1999998092651,115.0,56.0,40.0,False,,241.04500826163286,[],"[853.5, 480]",ColorTask,52.0,106.0,,,HRV,HRV_0299,2022-11-30 21:22:52
,wl-rdm,114,377270,0.0-6.106-0.106,0.0,115.0,,,,,,,[],,,,,,56.4,1.0,i,1.0,True,1377.0,83.0,56.0,40.0,False,,271.18508855275996,[],"[853.5, 480]",ColorTask,53.0,107.0,,,HRV,HRV_0299,2022-11-30 21:22:52
,wl-rdm,115,379507,0.0-6.107-0.107,0.0,116.0,,,,,,,[],,,,,,87.9,1.0,i,1.0,True,891.2999999523163,54.0,56.0,40.0,False,,269.29289713770487,[],"[853.5, 480]",ColorTask,54.0,108.0,,,HRV,HRV_0299,2022-11-30 21:22:52
,wl-html-keyboard-response,116,387834,0.0-7.0-0.0,1.0,117.0,,,,,,,,6315.699999809265,1.0,0,,,,,,,,,,,,,,,,,,,,,,HRV,HRV_0299,2022-11-30 21:22:52
,wl-rdm,117,390490,0.0-8.0-0.0,1.0,118.0,,,,,,,[],,,,,,50.0,0.0,i,1.0,False,1364.3999998569489,81.0,56.0,40.0,False,,230.55405815798412,[],"[853.5, 480]",ColorTask,53.0,1.0,,,HRV,HRV_0299,2022-11-30 21:22:52
,wl-rdm,118,393133,0.0-8.1-0.1,1.0,119.0,,,,,,,[],,,,,,62.5,0.0,u,0.0,True,1373.5,82.0,56.0,40.0,False,,214.01462006336052,[],"[853.5, 480]",ColorTask,54.0,2.0,,,HRV,HRV_0299,2022-11-30 21:22:52
,wl-rdm,119,395833,0.0-8.2-0.2,1.0,120.0,,,,,,,[],,,,,,53.2,0.0,u,0.0,True,1308.8000001907349,79.0,56.0,40.0,False,,318.4628744790348,[],"[853.5, 480]",ColorTask,55.0,3.0,,,HRV,HRV_0299,2022-11-30 21:22:52
,wl-rdm,120,397915,0.0-8.3-0.3,1.0,121.0,,,,,,,[],,,,,,87.9,0.0,u,0.0,True,780.1000001430511,48.0,56.0,40.0,False,,216.92258383676764,[],"[853.5, 480]",ColorTask,56.0,4.0,,,HRV,HRV_0299,2022-11-30 21:22:52
,wl-rdm,121,400248,0.0-8.4-0.4,1.0,122.0,,,,,,,[],,,,,,50.0,0.0,i,1.0,False,1052.4000000953674,64.0,56.0,40.0,False,,202.09698064852716,[],"[853.5, 480]",ColorTask,55.0,5.0,,,HRV,HRV_0299,2022-11-30 21:22:52
,wl-rdm,122,402732,0.0-8.5-0.5,1.0,123.0,,,,,,,[],,,,,,73.6,0.0,u,0.0,True,1132.4000000953674,68.0,56.0,40.0,False,,249.8096022649371,[],"[853.5, 480]",ColorTask,56.0,6.0,,,HRV,HRV_0299,2022-11-30 21:22:52
,wl-rdm,123,405870,0.0-8.6-0.6,1.0,124.0,,,,,,,[],,,,,,62.5,1.0,i,1.0,True,1780.2000002861023,107.0,56.0,40.0,False,,280.15256634995524,[],"[853.5, 480]",ColorTask,57.0,7.0,,,HRV,HRV_0299,2022-11-30 21:22:52
,wl-rdm,124,408462,0.0-8.7-0.7,1.0,125.0,,,,,,,[],,,,,,62.5,0.0,u,0.0,True,1299.2000000476837,70.0,56.0,40.0,False,,241.66765144079423,[],"[853.5, 480]",ColorTask,58.0,8.0,,,HRV,HRV_0299,2022-11-30 21:22:52
,wl-rdm,125,411931,0.0-8.8-0.8,1.0,126.0,,,,,,,[],,,,,,56.4,0.0,i,1.0,False,2020.8999998569489,122.0,56.0,40.0,False,,381.14119649768355,[],"[853.5, 480]",ColorTask,57.0,9.0,,,HRV,HRV_0299,2022-11-30 21:22:52
,wl-rdm,126,413963,0.0-8.9-0.9,1.0,127.0,,,,,,,[],,,,,,87.9,1.0,i,1.0,True,735.4000000953674,46.0,56.0,40.0,False,,244.87310415531547,[],"[853.5, 480]",ColorTask,58.0,10.0,,,HRV,HRV_0299,2022-11-30 21:22:52
,wl-rdm,127,416127,0.0-8.10-0.10,1.0,128.0,,,,,,,[],,,,,,87.9,1.0,i,1.0,True,876.2999999523163,53.0,56.0,40.0,False,,208.90284303332217,[],"[853.5, 480]",ColorTask,59.0,11.0,,,HRV,HRV_0299,2022-11-30 21:22:52
,wl-rdm,128,419092,0.0-8.11-0.11,1.0,129.0,,,,,,,[],,,,,,53.2,1.0,i,1.0,True,1600.7999999523163,97.0,56.0,40.0,False,,272.3308563740423,[],"[853.5, 480]",ColorTask,60.0,12.0,,,HRV,HRV_0299,2022-11-30 21:22:52
,wl-rdm,129,422708,0.0-8.12-0.12,1.0,130.0,,,,,,,[],,,,,,56.4,1.0,i,1.0,True,2167.2000000476837,131.0,56.0,40.0,False,,352.6239071800436,[],"[853.5, 480]",ColorTask,61.0,13.0,,,HRV,HRV_0299,2022-11-30 21:22:52
,wl-rdm,130,424793,0.0-8.13-0.13,1.0,131.0,,,,,,,[],,,,,,87.9,1.0,i,1.0,True,747.9000000953674,44.0,56.0,40.0,False,,267.50004260379234,[],"[853.5, 480]",ColorTask,62.0,14.0,,,HRV,HRV_0299,2022-11-30 21:22:52
,wl-rdm,131,428260,0.0-8.14-0.14,1.0,132.0,,,,,,,[],,,,,,50.0,0.0,i,1.0,False,2145.5999999046326,129.0,56.0,40.0,False,,235.28120014229825,[],"[853.5, 480]",ColorTask,61.0,15.0,,,HRV,HRV_0299,2022-11-30 21:22:52
,wl-rdm,132,430590,0.0-8.15-0.15,1.0,133.0,,,,,,,[],,,,,,73.6,0.0,u,0.0,True,903.7999999523163,55.0,56.0,40.0,False,,307.866197875456,[],"[853.5, 480]",ColorTask,62.0,16.0,,,HRV,HRV_0299,2022-11-30 21:22:52
,wl-rdm,133,433342,0.0-8.16-0.16,1.0,134.0,,,,,,,[],,,,,,50.0,0.0,i,1.0,False,1464.7000002861023,88.0,56.0,40.0,False,,230.01504579709717,[],"[853.5, 480]",ColorTask,61.0,17.0,,,HRV,HRV_0299,2022-11-30 21:22:52
,wl-rdm,134,436089,0.0-8.17-0.17,1.0,135.0,,,,,,,[],,,,,,50.0,1.0,i,1.0,True,1468.7999999523163,88.0,56.0,40.0,False,,204.38759665782754,[],"[853.5, 480]",ColorTask,62.0,18.0,,,HRV,HRV_0299,2022-11-30 21:22:52
,wl-rdm,135,439239,0.0-8.18-0.18,1.0,136.0,,,,,,,[],,,,,,62.5,1.0,i,1.0,True,1762.4000000953674,106.0,56.0,40.0,False,,315.49797711340386,[],"[853.5, 480]",ColorTask,63.0,19.0,,,HRV,HRV_0299,2022-11-30 21:22:52
,wl-rdm,136,442371,0.0-8.19-0.19,1.0,137.0,,,,,,,[],,,,,,62.5,0.0,u,0.0,True,1743.2000002861023,105.0,56.0,40.0,False,,326.6191101587873,[],"[853.5, 480]",ColorTask,64.0,20.0,,,HRV,HRV_0299,2022-11-30 21:22:52
,wl-rdm,137,445470,0.0-8.20-0.20,1.0,138.0,,,,,,,[],,,,,,53.2,1.0,i,1.0,True,1767.6999998092651,106.0,56.0,40.0,False,,258.75880932854096,[],"[853.5, 480]",ColorTask,65.0,21.0,,,HRV,HRV_0299,2022-11-30 21:22:52
,wl-rdm,138,448139,0.0-8.21-0.21,1.0,139.0,,,,,,,[],,,,,,56.4,1.0,i,1.0,True,1304.4000000953674,79.0,56.0,40.0,False,,286.58338848825593,[],"[853.5, 480]",ColorTask,66.0,22.0,,,HRV,HRV_0299,2022-11-30 21:22:52
,wl-rdm,139,450801,0.0-8.22-0.22,1.0,140.0,,,,,,,[],,,,,,62.5,0.0,u,0.0,True,1376.3999998569489,83.0,56.0,40.0,False,,210.4853208731132,[],"[853.5, 480]",ColorTask,67.0,23.0,,,HRV,HRV_0299,2022-11-30 21:22:52
,wl-rdm,140,454138,0.0-8.23-0.23,1.0,141.0,,,,,,,[],,,,,,53.2,0.0,u,0.0,True,1894.1999998092651,114.0,56.0,40.0,False,,376.1609143590207,[],"[853.5, 480]",ColorTask,68.0,24.0,,,HRV,HRV_0299,2022-11-30 21:22:52
,wl-rdm,141,457254,0.0-8.24-0.24,1.0,142.0,,,,,,,[],,,,,,56.4,0.0,u,0.0,True,1826.1999998092651,110.0,56.0,40.0,False,,228.06721741701426,[],"[853.5, 480]",ColorTask,69.0,25.0,,,HRV,HRV_0299,2022-11-30 21:22:52
,wl-rdm,142,460399,0.0-8.25-0.25,1.0,143.0,,,,,,,[],,,,,,56.4,1.0,i,1.0,True,1710.0999999046326,103.0,56.0,40.0,False,,366.7448431848718,[],"[853.5, 480]",ColorTask,70.0,26.0,,,HRV,HRV_0299,2022-11-30 21:22:52
,wl-rdm,143,462482,0.0-8.26-0.26,1.0,144.0,,,,,,,[],,,,,,87.9,1.0,i,1.0,True,804.1000001430511,49.0,56.0,40.0,False,,211.79398712958096,[],"[853.5, 480]",ColorTask,71.0,27.0,,,HRV,HRV_0299,2022-11-30 21:22:52
,wl-rdm,144,464698,0.0-8.27-0.27,1.0,145.0,,,,,,,[],,,,,,87.9,0.0,u,0.0,True,908.7000000476837,55.0,56.0,40.0,False,,225.26536229229106,[],"[853.5, 480]",ColorTask,72.0,28.0,,,HRV,HRV_0299,2022-11-30 21:22:52
,wl-rdm,145,466897,0.0-8.28-0.28,1.0,146.0,,,,,,,[],,,,,,73.6,1.0,i,1.0,True,892.3000001907349,54.0,56.0,40.0,False,,241.9576163505716,[],"[853.5, 480]",ColorTask,73.0,29.0,,,HRV,HRV_0299,2022-11-30 21:22:52
,wl-rdm,146,470030,0.0-8.29-0.29,1.0,147.0,,,,,,,[],,,,,,53.2,0.0,u,0.0,True,1746.5,105.0,56.0,40.0,False,,312.9925339717366,[],"[853.5, 480]",ColorTask,74.0,30.0,,,HRV,HRV_0299,2022-11-30 21:22:52
,wl-rdm,147,472478,0.0-8.30-0.30,1.0,148.0,,,,,,,[],,,,,,73.6,0.0,u,0.0,True,1121.400000333786,68.0,56.0,40.0,False,,259.4431780835595,[],"[853.5, 480]",ColorTask,75.0,31.0,,,HRV,HRV_0299,2022-11-30 21:22:52
,wl-rdm,148,475028,0.0-8.31-0.31,1.0,149.0,,,,,,,[],,,,,,73.6,0.0,u,0.0,True,1232.5,75.0,56.0,40.0,False,,247.3505623574948,[],"[853.5, 480]",ColorTask,76.0,32.0,,,HRV,HRV_0299,2022-11-30 21:22:52
,wl-rdm,149,477494,0.0-8.32-0.32,1.0,150.0,,,,,,,[],,,,,,53.2,1.0,i,1.0,True,1182.7000000476837,69.0,56.0,40.0,False,,226.89015534686797,[],"[853.5, 480]",ColorTask,77.0,33.0,,,HRV,HRV_0299,2022-11-30 21:22:52
,wl-rdm,150,479777,0.0-8.33-0.33,1.0,151.0,,,,,,,[],,,,,,87.9,0.0,u,0.0,True,923.0,56.0,56.0,40.0,False,,300.6598778717378,[],"[853.5, 480]",ColorTask,78.0,34.0,,,HRV,HRV_0299,2022-11-30 21:22:52
,wl-rdm,151,482364,0.0-8.34-0.34,1.0,152.0,,,,,,,[],,,,,,62.5,0.0,i,1.0,False,1242.2999999523163,75.0,56.0,40.0,False,,272.66163679673946,[],"[853.5, 480]",ColorTask,77.0,35.0,,,HRV,HRV_0299,2022-11-30 21:22:52
,wl-rdm,152,485925,0.0-8.35-0.35,1.0,153.0,,,,,,,[],,,,,,50.0,1.0,u,0.0,False,2123.9000000953674,128.0,56.0,40.0,False,,363.7648217746078,[],"[853.5, 480]",ColorTask,76.0,36.0,,,HRV,HRV_0299,2022-11-30 21:22:52
,wl-rdm,153,488340,0.0-8.36-0.36,1.0,154.0,,,,,,,[],,,,,,53.2,0.0,i,1.0,False,1027.0999999046326,62.0,56.0,40.0,False,,300.12391464175596,[],"[853.5, 480]",ColorTask,75.0,37.0,,,HRV,HRV_0299,2022-11-30 21:22:52
,wl-rdm,154,490907,0.0-8.37-0.37,1.0,155.0,,,,,,,[],,,,,,53.2,1.0,i,1.0,True,1275.7999999523163,77.0,56.0,40.0,False,,204.17830906909845,[],"[853.5, 480]",ColorTask,76.0,38.0,,,HRV,HRV_0299,2022-11-30 21:22:52
,wl-rdm,155,493289,0.0-8.38-0.38,1.0,156.0,,,,,,,[],,,,,,73.6,1.0,i,1.0,True,1051.2000000476837,63.0,56.0,40.0,False,,261.5743727859714,[],"[853.5, 480]",ColorTask,77.0,39.0,,,HRV,HRV_0299,2022-11-30 21:22:52
,wl-rdm,156,496138,0.0-8.39-0.39,1.0,157.0,,,,,,,[],,,,,,53.2,0.0,i,1.0,False,1441.0000002384186,87.0,56.0,40.0,False,,331.20417735616735,[],"[853.5, 480]",ColorTask,76.0,40.0,,,HRV,HRV_0299,2022-11-30 21:22:52
,wl-rdm,157,499706,0.0-8.40-0.40,1.0,158.0,,,,,,,[],,,,,,56.4,1.0,u,0.0,False,2256.600000143051,135.0,56.0,40.0,False,,215.1872212119294,[],"[853.5, 480]",ColorTask,75.0,41.0,,,HRV,HRV_0299,2022-11-30 21:22:52
,wl-rdm,158,502437,0.0-8.41-0.41,1.0,159.0,,,,,,,[],,,,,,62.5,1.0,i,1.0,True,1422.2999999523163,86.0,56.0,40.0,False,,220.93217459651598,[],"[853.5, 480]",ColorTask,76.0,42.0,,,HRV,HRV_0299,2022-11-30 21:22:52
,wl-rdm,159,505970,0.0-8.42-0.42,1.0,160.0,,,,,,,[],,,,,,53.2,0.0,u,0.0,True,2161.300000190735,130.0,56.0,40.0,False,,305.5280132683884,[],"[853.5, 480]",ColorTask,77.0,43.0,,,HRV,HRV_0299,2022-11-30 21:22:52
,wl-rdm,160,509069,0.0-8.43-0.43,1.0,161.0,,,,,,,[],,,,,,50.0,0.0,u,0.0,True,1794.0000002384186,108.0,56.0,40.0,False,,234.6958353381159,[],"[853.5, 480]",ColorTask,78.0,44.0,,,HRV,HRV_0299,2022-11-30 21:22:52
,wl-rdm,161,511268,0.0-8.44-0.44,1.0,162.0,,,,,,,[],,,,,,73.6,1.0,i,1.0,True,890.2999999523163,54.0,56.0,40.0,False,,230.03743088291947,[],"[853.5, 480]",ColorTask,79.0,45.0,,,HRV,HRV_0299,2022-11-30 21:22:52
,wl-rdm,162,513805,0.0-8.45-0.45,1.0,163.0,,,,,,,[],,,,,,73.6,1.0,i,1.0,True,1095.0000002384186,66.0,56.0,40.0,False,,365.4925887707916,[],"[853.5, 480]",ColorTask,80.0,46.0,,,HRV,HRV_0299,2022-11-30 21:22:52
,wl-rdm,163,516283,0.0-8.46-0.46,1.0,164.0,,,,,,,[],,,,,,62.5,1.0,i,1.0,True,1135.3999998569489,68.0,56.0,40.0,False,,273.54329558314146,[],"[853.5, 480]",ColorTask,81.0,47.0,,,HRV,HRV_0299,2022-11-30 21:22:52
,wl-rdm,164,518852,0.0-8.47-0.47,1.0,165.0,,,,,,,[],,,,,,56.4,0.0,i,1.0,False,1290.0999999046326,78.0,56.0,40.0,False,,206.57625160651136,[],"[853.5, 480]",ColorTask,80.0,48.0,,,HRV,HRV_0299,2022-11-30 21:22:52
,wl-rdm,165,521649,0.0-8.48-0.48,1.0,166.0,,,,,,,[],,,,,,53.2,1.0,i,1.0,True,1367.5999999046326,83.0,56.0,40.0,False,,364.29831774039417,[],"[853.5, 480]",ColorTask,81.0,49.0,,,HRV,HRV_0299,2022-11-30 21:22:52
,wl-rdm,166,524922,0.0-8.49-0.49,1.0,167.0,,,,,,,[],,,,,,56.4,0.0,i,1.0,False,1970.2999997138977,118.0,56.0,40.0,False,,223.20585697373227,[],"[853.5, 480]",ColorTask,80.0,50.0,,,HRV,HRV_0299,2022-11-30 21:22:52
,wl-rdm,167,528080,0.0-8.50-0.50,1.0,168.0,,,,,,,[],,,,,,56.4,1.0,u,0.0,False,1875.2999999523163,113.0,56.0,40.0,False,,203.28494193080166,[],"[853.5, 480]",ColorTask,79.0,51.0,,,HRV,HRV_0299,2022-11-30 21:22:52
,wl-rdm,168,530313,0.0-8.51-0.51,1.0,169.0,,,,,,,[],,,,,,87.9,0.0,u,0.0,True,864.5,52.0,56.0,40.0,False,,293.9080982031456,[],"[853.5, 480]",ColorTask,80.0,52.0,,,HRV,HRV_0299,2022-11-30 21:22:52
,wl-rdm,169,533432,0.0-8.52-0.52,1.0,170.0,,,,,,,[],,,,,,62.5,0.0,i,1.0,False,1791.5,107.0,56.0,40.0,False,,257.86565125054886,[],"[853.5, 480]",ColorTask,79.0,53.0,,,HRV,HRV_0299,2022-11-30 21:22:52
,wl-rdm,170,536745,0.0-8.53-0.53,1.0,171.0,,,,,,,[],,,,,,87.9,0.0,u,0.0,True,1993.9000000953674,120.0,56.0,40.0,False,,248.49726289511338,[],"[853.5, 480]",ColorTask,80.0,54.0,,,HRV,HRV_0299,2022-11-30 21:22:52
,wl-rdm,171,539966,0.0-8.54-0.54,1.0,172.0,,,,,,,[],,,,,,50.0,1.0,i,1.0,True,1885.3999998569489,111.0,56.0,40.0,False,,255.8295401306937,[],"[853.5, 480]",ColorTask,81.0,55.0,,,HRV,HRV_0299,2022-11-30 21:22:52
,wl-rdm,172,542293,0.0-8.55-0.55,1.0,173.0,,,,,,,[],,,,,,56.4,1.0,i,1.0,True,990.1000001430511,60.0,56.0,40.0,False,,277.8435546908566,[],"[853.5, 480]",ColorTask,82.0,56.0,,,HRV,HRV_0299,2022-11-30 21:22:52
,wl-rdm,173,544995,0.0-8.56-0.56,1.0,174.0,,,,,,,[],,,,,,62.5,1.0,i,1.0,True,1370.6000001430511,83.0,56.0,40.0,False,,260.1483090246146,[],"[853.5, 480]",ColorTask,83.0,57.0,,,HRV,HRV_0299,2022-11-30 21:22:52
,wl-rdm,174,547325,0.0-8.57-0.57,1.0,175.0,,,,,,,[],,,,,,73.6,1.0,i,1.0,True,900.5,54.0,56.0,40.0,False,,362.0822786126266,[],"[853.5, 480]",ColorTask,84.0,58.0,,,HRV,HRV_0299,2022-11-30 21:22:52
,wl-rdm,175,549575,0.0-8.58-0.58,1.0,176.0,,,,,,,[],,,,,,73.6,0.0,u,0.0,True,926.9999997615814,55.0,56.0,40.0,False,,248.85390842057618,[],"[853.5, 480]",ColorTask,85.0,59.0,,,HRV,HRV_0299,2022-11-30 21:22:52
,wl-rdm,176,552357,0.0-8.59-0.59,1.0,177.0,,,,,,,[],,,,,,62.5,1.0,i,1.0,True,1320.8000001907349,80.0,56.0,40.0,False,,397.4660959005457,[],"[853.5, 480]",ColorTask,86.0,60.0,,,HRV,HRV_0299,2022-11-30 21:22:52
,wl-rdm,177,555107,0.0-8.60-0.60,1.0,178.0,,,,,,,[],,,,,,73.6,0.0,i,1.0,False,1439.3000001907349,86.0,56.0,40.0,False,,248.49662182263313,[],"[853.5, 480]",ColorTask,85.0,61.0,,,HRV,HRV_0299,2022-11-30 21:22:52
,wl-rdm,178,557406,0.0-8.61-0.61,1.0,179.0,,,,,,,[],,,,,,87.9,0.0,u,0.0,True,903.5,55.0,56.0,40.0,False,,311.0906462157406,[],"[853.5, 480]",ColorTask,86.0,62.0,,,HRV,HRV_0299,2022-11-30 21:22:52
,wl-rdm,179,561039,0.0-8.62-0.62,1.0,180.0,,,,,,,[],,,,,,56.4,0.0,i,1.0,False,2351.399999856949,141.0,56.0,40.0,False,,224.83261725908127,[],"[853.5, 480]",ColorTask,85.0,63.0,,,HRV,HRV_0299,2022-11-30 21:22:52
,wl-rdm,180,563455,0.0-8.63-0.63,1.0,181.0,,,,,,,[],,,,,,56.4,0.0,i,1.0,False,1017.0999999046326,61.0,56.0,40.0,False,,336.82516163021216,[],"[853.5, 480]",ColorTask,84.0,64.0,,,HRV,HRV_0299,2022-11-30 21:22:52
,wl-rdm,181,565938,0.0-8.64-0.64,1.0,182.0,,,,,,,[],,,,,,56.4,1.0,i,1.0,True,1178.0999999046326,71.0,56.0,40.0,False,,229.10975865563879,[],"[853.5, 480]",ColorTask,85.0,65.0,,,HRV,HRV_0299,2022-11-30 21:22:52
,wl-rdm,182,568274,0.0-8.65-0.65,1.0,183.0,,,,,,,[],,,,,,87.9,1.0,i,1.0,True,1041.0999999046326,63.0,56.0,40.0,False,,202.15570877906637,[],"[853.5, 480]",ColorTask,86.0,66.0,,,HRV,HRV_0299,2022-11-30 21:22:52
,wl-rdm,183,571119,0.0-8.66-0.66,1.0,184.0,,,,,,,[],,,,,,50.0,1.0,u,0.0,False,1436.6000001430511,85.0,56.0,40.0,False,,346.2680210099277,[],"[853.5, 480]",ColorTask,85.0,67.0,,,HRV,HRV_0299,2022-11-30 21:22:52
,wl-rdm,184,574185,0.0-8.67-0.67,1.0,185.0,,,,,,,[],,,,,,53.2,1.0,i,1.0,True,1748.6000001430511,105.0,56.0,40.0,False,,252.86930702766188,[],"[853.5, 480]",ColorTask,86.0,68.0,,,HRV,HRV_0299,2022-11-30 21:22:52
,wl-rdm,185,576509,0.0-8.68-0.68,1.0,186.0,,,,,,,[],,,,,,62.5,1.0,i,1.0,True,915.5,55.0,56.0,40.0,False,,359.1893461692116,[],"[853.5, 480]",ColorTask,87.0,69.0,,,HRV,HRV_0299,2022-11-30 21:22:52
,wl-rdm,186,578734,0.0-8.69-0.69,1.0,187.0,,,,,,,[],,,,,,87.9,1.0,i,1.0,True,936.5,56.0,56.0,40.0,False,,219.80362805174832,[],"[853.5, 480]",ColorTask,88.0,70.0,,,HRV,HRV_0299,2022-11-30 21:22:52
,wl-rdm,187,581602,0.0-8.70-0.70,1.0,188.0,,,,,,,[],,,,,,73.6,0.0,u,0.0,True,1508.6000001430511,91.0,56.0,40.0,False,,282.4480412736344,[],"[853.5, 480]",ColorTask,89.0,71.0,,,HRV,HRV_0299,2022-11-30 21:22:52
,wl-rdm,188,584666,0.0-8.71-0.71,1.0,189.0,,,,,,,[],,,,,,50.0,1.0,u,0.0,False,1646.0999999046326,99.0,56.0,40.0,False,,345.26794907809415,[],"[853.5, 480]",ColorTask,88.0,72.0,,,HRV,HRV_0299,2022-11-30 21:22:52
,wl-rdm,189,586915,0.0-8.72-0.72,1.0,190.0,,,,,,,[],,,,,,73.6,1.0,i,1.0,True,882.1999998092651,54.0,56.0,40.0,False,,280.71171627266597,[],"[853.5, 480]",ColorTask,89.0,73.0,,,HRV,HRV_0299,2022-11-30 21:22:52
,wl-rdm,190,589182,0.0-8.73-0.73,1.0,191.0,,,,,,,[],,,,,,73.6,1.0,i,1.0,True,817.8000001907349,48.0,56.0,40.0,False,,364.13514727857444,[],"[853.5, 480]",ColorTask,90.0,74.0,,,HRV,HRV_0299,2022-11-30 21:22:52
,wl-rdm,191,591415,0.0-8.74-0.74,1.0,192.0,,,,,,,[],,,,,,87.9,0.0,u,0.0,True,846.9000000953674,51.0,56.0,40.0,False,,307.50118080371686,[],"[853.5, 480]",ColorTask,91.0,75.0,,,HRV,HRV_0299,2022-11-30 21:22:52
,wl-rdm,192,593764,0.0-8.75-0.75,1.0,193.0,,,,,,,[],,,,,,62.5,1.0,i,1.0,True,928.7999999523163,56.0,56.0,40.0,False,,344.73477429149796,[],"[853.5, 480]",ColorTask,92.0,76.0,,,HRV,HRV_0299,2022-11-30 21:22:52
,wl-rdm,193,596264,0.0-8.76-0.76,1.0,194.0,,,,,,,[],,,,,,53.2,1.0,i,1.0,True,1174.2999997138977,71.0,56.0,40.0,False,,256.1385550880777,[],"[853.5, 480]",ColorTask,93.0,77.0,,,HRV,HRV_0299,2022-11-30 21:22:52
,wl-rdm,194,599846,0.0-8.77-0.77,1.0,195.0,,,,,,,[],,,,,,53.2,1.0,i,1.0,True,2153.199999809265,130.0,56.0,40.0,False,,338.233519042381,[],"[853.5, 480]",ColorTask,94.0,78.0,,,HRV,HRV_0299,2022-11-30 21:22:52
,wl-rdm,195,602045,0.0-8.78-0.78,1.0,196.0,,,,,,,[],,,,,,73.6,1.0,i,1.0,True,814.4000000953674,49.0,56.0,40.0,False,,304.5807427854085,[],"[853.5, 480]",ColorTask,95.0,79.0,,,HRV,HRV_0299,2022-11-30 21:22:52
,wl-rdm,196,605278,0.0-8.79-0.79,1.0,197.0,,,,,,,[],,,,,,50.0,0.0,i,1.0,False,1839.7999999523163,111.0,56.0,40.0,False,,306.75282833017235,[],"[853.5, 480]",ColorTask,94.0,80.0,,,HRV,HRV_0299,2022-11-30 21:22:52
,wl-rdm,197,608427,0.0-8.80-0.80,1.0,198.0,,,,,,,[],,,,,,50.0,0.0,u,0.0,True,1822.6000001430511,110.0,56.0,40.0,False,,265.8499393736126,[],"[853.5, 480]",ColorTask,95.0,81.0,,,HRV,HRV_0299,2022-11-30 21:22:52
,wl-rdm,198,611293,0.0-8.81-0.81,1.0,199.0,,,,,,,[],,,,,,50.0,1.0,i,1.0,True,1428.0,86.0,56.0,40.0,False,,352.2449071965211,[],"[853.5, 480]",ColorTask,96.0,82.0,,,HRV,HRV_0299,2022-11-30 21:22:52
,wl-rdm,199,614092,0.0-8.82-0.82,1.0,200.0,,,,,,,[],,,,,,56.4,0.0,u,0.0,True,1383.7000000476837,83.0,56.0,40.0,False,,335.755542582545,[],"[853.5, 480]",ColorTask,97.0,83.0,,,HRV,HRV_0299,2022-11-30 21:22:52
,wl-rdm,200,617141,0.0-8.83-0.83,1.0,201.0,,,,,,,[],,,,,,56.4,0.0,u,0.0,True,1747.5,104.0,56.0,40.0,False,,225.10944719854444,[],"[853.5, 480]",ColorTask,98.0,84.0,,,HRV,HRV_0299,2022-11-30 21:22:52
,wl-rdm,201,619475,0.0-8.84-0.84,1.0,202.0,,,,,,,[],,,,,,50.0,1.0,i,1.0,True,1056.9000000953674,64.0,56.0,40.0,False,,200.73062606079282,[],"[853.5, 480]",ColorTask,99.0,85.0,,,HRV,HRV_0299,2022-11-30 21:22:52
,wl-rdm,202,622373,0.0-8.85-0.85,1.0,203.0,,,,,,,[],,,,,,56.4,1.0,i,1.0,True,1474.9000000953674,89.0,56.0,40.0,False,,338.213944171301,[],"[853.5, 480]",ColorTask,100.0,86.0,,,HRV,HRV_0299,2022-11-30 21:22:52
,wl-rdm,203,624869,0.0-8.86-0.86,1.0,204.0,,,,,,,[],,,,,,53.2,0.0,u,0.0,True,1070.3999998569489,65.0,56.0,40.0,False,,345.08501398998374,[],"[853.5, 480]",ColorTask,101.0,87.0,,,HRV,HRV_0299,2022-11-30 21:22:52
,wl-rdm,204,627874,0.0-8.87-0.87,1.0,205.0,,,,,,,[],,,,,,62.5,0.0,u,0.0,True,1687.5000002384186,102.0,56.0,40.0,False,,233.57030987890113,[],"[853.5, 480]",ColorTask,102.0,88.0,,,HRV,HRV_0299,2022-11-30 21:22:52
,wl-rdm,205,630287,0.0-8.88-0.88,1.0,206.0,,,,,,,[],,,,,,87.9,1.0,i,1.0,True,1023.4000000953674,62.0,56.0,40.0,False,,328.18852234439,[],"[853.5, 480]",ColorTask,103.0,89.0,,,HRV,HRV_0299,2022-11-30 21:22:52
,wl-rdm,206,632975,0.0-8.89-0.89,1.0,207.0,,,,,,,[],,,,,,53.2,0.0,u,0.0,True,1369.2999999523163,83.0,56.0,40.0,False,,235.72703973016985,[],"[853.5, 480]",ColorTask,104.0,90.0,,,HRV,HRV_0299,2022-11-30 21:22:52
,wl-rdm,207,635786,0.0-8.90-0.90,1.0,208.0,,,,,,,[],,,,,,56.4,1.0,i,1.0,True,1409.4000000953674,85.0,56.0,40.0,False,,324.8752617755346,[],"[853.5, 480]",ColorTask,105.0,91.0,,,HRV,HRV_0299,2022-11-30 21:22:52
,wl-rdm,208,638285,0.0-8.91-0.91,1.0,209.0,,,,,,,[],,,,,,50.0,0.0,i,1.0,False,1083.0999999046326,65.0,56.0,40.0,False,,340.4107815457045,[],"[853.5, 480]",ColorTask,104.0,92.0,,,HRV,HRV_0299,2022-11-30 21:22:52
,wl-rdm,209,640785,0.0-8.92-0.92,1.0,210.0,,,,,,,[],,,,,,50.0,1.0,i,1.0,True,1155.9000000953674,70.0,56.0,40.0,False,,258.91910976205077,[],"[853.5, 480]",ColorTask,105.0,93.0,,,HRV,HRV_0299,2022-11-30 21:22:52
,wl-rdm,210,643153,0.0-8.93-0.93,1.0,211.0,,,,,,,[],,,,,,87.9,0.0,u,0.0,True,1001.1000001430511,60.0,56.0,40.0,False,,307.87484123783247,[],"[853.5, 480]",ColorTask,106.0,94.0,,,HRV,HRV_0299,2022-11-30 21:22:52
,wl-rdm,211,646249,0.0-8.94-0.94,1.0,212.0,,,,,,,[],,,,,,73.6,0.0,u,0.0,True,1748.5999999046326,105.0,56.0,40.0,False,,248.71256630091543,[],"[853.5, 480]",ColorTask,107.0,95.0,,,HRV,HRV_0299,2022-11-30 21:22:52
,wl-rdm,212,649103,0.0-8.95-0.95,1.0,213.0,,,,,,,[],,,,,,73.6,0.0,u,0.0,True,1389.5,84.0,56.0,40.0,False,,397.64095612053075,[],"[853.5, 480]",ColorTask,108.0,96.0,,,HRV,HRV_0299,2022-11-30 21:22:52
,wl-rdm,213,652865,0.0-8.96-0.96,1.0,214.0,,,,,,,[],,,,,,53.2,0.0,i,1.0,False,2483.5999999046326,149.0,56.0,40.0,False,,210.87575601226106,[],"[853.5, 480]",ColorTask,107.0,97.0,,,HRV,HRV_0299,2022-11-30 21:22:52
,wl-rdm,214,655219,0.0-8.97-0.97,1.0,215.0,,,,,,,[],,,,,,87.9,1.0,i,1.0,True,914.6000001430511,55.0,56.0,40.0,False,,374.2153397462634,[],"[853.5, 480]",ColorTask,108.0,98.0,,,HRV,HRV_0299,2022-11-30 21:22:52
,wl-rdm,215,658097,0.0-8.98-0.98,1.0,216.0,,,,,,,[],,,,,,87.9,0.0,u,0.0,True,1509.0,91.0,56.0,40.0,False,,290.4549164485374,[],"[853.5, 480]",ColorTask,109.0,99.0,,,HRV,HRV_0299,2022-11-30 21:22:52
,wl-rdm,216,660316,0.0-8.99-0.99,1.0,217.0,,,,,,,[],,,,,,62.5,1.0,i,1.0,True,903.5,54.0,56.0,40.0,False,,244.2178548300827,[],"[853.5, 480]",ColorTask,110.0,100.0,,,HRV,HRV_0299,2022-11-30 21:22:52
,wl-rdm,217,663215,0.0-8.100-0.100,1.0,218.0,,,,,,,[],,,,,,50.0,1.0,u,0.0,False,1564.8999998569489,94.0,56.0,40.0,False,,263.2830511752046,[],"[853.5, 480]",ColorTask,109.0,101.0,,,HRV,HRV_0299,2022-11-30 21:22:52
,wl-rdm,218,666045,0.0-8.101-0.101,1.0,219.0,,,,,,,[],,,,,,62.5,0.0,u,0.0,True,1434.8999998569489,87.0,56.0,40.0,False,,337.4544090854555,[],"[853.5, 480]",ColorTask,110.0,102.0,,,HRV,HRV_0299,2022-11-30 21:22:52
,wl-rdm,219,669461,0.0-8.102-0.102,1.0,220.0,,,,,,,[],,,,,,56.4,0.0,u,0.0,True,2020.7000000476837,120.0,56.0,40.0,False,,331.09234739064783,[],"[853.5, 480]",ColorTask,111.0,103.0,,,HRV,HRV_0299,2022-11-30 21:22:52
,wl-rdm,220,672308,0.0-8.103-0.103,1.0,221.0,,,,,,,[],,,,,,62.5,0.0,u,0.0,True,1488.3999998569489,90.0,56.0,40.0,False,,300.889528833972,[],"[853.5, 480]",ColorTask,112.0,104.0,,,HRV,HRV_0299,2022-11-30 21:22:52
,wl-rdm,221,674974,0.0-8.104-0.104,1.0,222.0,,,,,,,[],,,,,,73.6,1.0,i,1.0,True,1314.5999999046326,79.0,56.0,40.0,False,,274.6516255450991,[],"[853.5, 480]",ColorTask,113.0,105.0,,,HRV,HRV_0299,2022-11-30 21:22:52
,wl-rdm,222,677207,0.0-8.105-0.105,1.0,223.0,,,,,,,[],,,,,,87.9,1.0,i,1.0,True,818.8000001907349,49.0,56.0,40.0,False,,328.1191660315926,[],"[853.5, 480]",ColorTask,114.0,106.0,,,HRV,HRV_0299,2022-11-30 21:22:52
,wl-rdm,223,681289,0.0-8.106-0.106,1.0,224.0,,,,,,,[],,,,,,53.2,1.0,u,0.0,False,2660.7999999523163,160.0,56.0,40.0,False,,339.98409396148753,[],"[853.5, 480]",ColorTask,113.0,107.0,,,HRV,HRV_0299,2022-11-30 21:22:52
,wl-rdm,224,683971,0.0-8.107-0.107,1.0,225.0,,,,,,,[],,,,,,50.0,0.0,i,1.0,False,1221.0,72.0,56.0,40.0,False,,388.8086182747227,[],"[853.5, 480]",ColorTask,112.0,108.0,,,HRV,HRV_0299,2022-11-30 21:22:52
,wl-html-button-response,225,687575,0.0-9.0-0.0,,,,,,,,,,3598.0,,0,,,,,,,,,,,,,,,,,,,,<h3>End of this session. Thank you!</h3><br>,['Close window'],HRV,HRV_0299,2022-11-30 21:22:52
