trialN,stimuli,trialStartTime,trialStartTime_UNIX,stimulus1,stimulus2,stimulus1Bid,stimulus2Bid,delta,selected,rsp,rt,rt_UNIX,receivedResponse,trialEndTime,trialDuration,trialEndTime_UNIX,trialDuration_UNIX,trialEvents,rt_perfnow,exp,subjectId,date
0,"[{'imgObject': {}, 'id': 'raisin bran w milk', 'src': '/static/foodstim60/raisin bran w milk.jpg', 'key': 'u', 'origWidth': 411, 'origHeight': 411, 'width': 411, 'height': 411, 'widthPercent': 0.45, 'rescaleHeight': False, 'trialN': 0, 'loaded': True, 'loadedTime': 123421.70000004768, 'positionName': 'LEFT', 'positionCoords': [408.36, 274.5], 'bid': 4.1}, {'imgObject': {}, 'id': 'salmon', 'src': '/static/foodstim60/salmon.jpg', 'key': 'i', 'origWidth': 410, 'origHeight': 409, 'width': 410, 'height': 409, 'widthPercent': 0.45, 'rescaleHeight': False, 'trialN': 0, 'loaded': True, 'loadedTime': 123684.79999995232, 'positionName': 'RIGHT', 'positionCoords': [887.64, 275.5], 'bid': 0.27}]",136805.5,1669842224977,raisin bran w milk,salmon,4.1,0.27,-3.8299999999999996,NaN,NaN,NaN,NaN,False,140828.70000004768,4023.2000000476837,1669842229000,4023,,,HRV,HRV_0299,2022-11-30 21:11:07
1,"[{'imgObject': {}, 'id': 'bagel plain', 'src': '/static/foodstim60/bagel plain.jpg', 'key': 'u', 'origWidth': 410, 'origHeight': 410, 'width': 410, 'height': 410, 'widthPercent': 0.45, 'rescaleHeight': False, 'trialN': 1, 'loaded': True, 'loadedTime': 123787.10000014305, 'positionName': 'LEFT', 'positionCoords': [409.36, 275], 'bid': 6.3100000000000005}, {'imgObject': {}, 'id': 'olives', 'src': '/static/foodstim60/olives.jpg', 'key': 'i', 'origWidth': 410, 'origHeight': 410, 'width': 410, 'height': 410, 'widthPercent': 0.45, 'rescaleHeight': False, 'trialN': 1, 'loaded': True, 'loadedTime': 123863, 'positionName': 'RIGHT', 'positionCoords': [887.64, 275], 'bid': 0.1}]",140829.29999995232,1669842229000,bagel plain,olives,6.3100000000000005,0.1,-6.210000000000001,NaN,NaN,NaN,NaN,False,144928.70000004768,4099.400000095367,1669842233100,4100,,,HRV,HRV_0299,2022-11-30 21:11:07
2,"[{'imgObject': {}, 'id': 'mashed potato', 'src': '/static/foodstim60/mashed potato.jpg', 'key': 'u', 'origWidth': 409, 'origHeight': 409, 'width': 409, 'height': 409, 'widthPercent': 0.45, 'rescaleHeight': False, 'trialN': 2, 'loaded': True, 'loadedTime': 123957.5, 'positionName': 'LEFT', 'positionCoords': [410.36, 275.5], 'bid': 8.88}, {'imgObject': {}, 'id': 'grilled chicken strips', 'src': '/static/foodstim60/grilled chicken strips.jpg', 'key': 'i', 'origWidth': 410, 'origHeight': 411, 'width': 410, 'height': 411, 'widthPercent': 0.45, 'rescaleHeight': False, 'trialN': 2, 'loaded': True, 'loadedTime': 124005.40000009537, 'positionName': 'RIGHT', 'positionCoords': [887.64, 274.5], 'bid': 9.71}]",144929.0,1669842233100,mashed potato,grilled chicken strips,8.88,9.71,0.8300000000000001,NaN,NaN,NaN,NaN,False,148954.79999995232,4025.7999999523163,1669842237126,4026,,,HRV,HRV_0299,2022-11-30 21:11:07
3,"[{'imgObject': {}, 'id': 'cocktailshrimp', 'src': '/static/foodstim60/cocktailshrimp.jpg', 'key': 'u', 'origWidth': 410, 'origHeight': 410, 'width': 410, 'height': 410, 'widthPercent': 0.45, 'rescaleHeight': False, 'trialN': 3, 'loaded': True, 'loadedTime': 124077.40000009537, 'positionName': 'LEFT', 'positionCoords': [409.36, 275], 'bid': 8.14}, {'imgObject': {}, 'id': 'hotdog w must', 'src': '/static/foodstim60/hotdog w must.jpg', 'key': 'i', 'origWidth': 409, 'origHeight': 409, 'width': 409, 'height': 409, 'widthPercent': 0.45, 'rescaleHeight': False, 'trialN': 3, 'loaded': True, 'loadedTime': 125068.10000014305, 'positionName': 'RIGHT', 'positionCoords': [887.64, 275.5], 'bid': 9.13}]",148955.0,1669842237126,cocktailshrimp,hotdog w must,8.14,9.13,0.9900000000000002,NaN,NaN,NaN,NaN,False,152982.10000014305,4027.100000143051,1669842241153,4027,,,HRV,HRV_0299,2022-11-30 21:11:07
4,"[{'imgObject': {}, 'id': 'raspberries', 'src': '/static/foodstim60/raspberries.jpg', 'key': 'u', 'origWidth': 411, 'origHeight': 411, 'width': 411, 'height': 411, 'widthPercent': 0.45, 'rescaleHeight': False, 'trialN': 4, 'loaded': True, 'loadedTime': 124094.79999995232, 'positionName': 'LEFT', 'positionCoords': [408.36, 274.5], 'bid': 8.55}, {'imgObject': {}, 'id': 'raisin bran w milk', 'src': '/static/foodstim60/raisin bran w milk.jpg', 'key': 'i', 'origWidth': 411, 'origHeight': 411, 'width': 411, 'height': 411, 'widthPercent': 0.45, 'rescaleHeight': False, 'trialN': 4, 'loaded': True, 'loadedTime': 123656.29999995232, 'positionName': 'RIGHT', 'positionCoords': [887.64, 274.5], 'bid': 4.1}]",152982.5,1669842241154,raspberries,raisin bran w milk,8.55,4.1,-4.450000000000001,NaN,NaN,NaN,NaN,False,241142.20000004768,88159.70000004768,1669842329314,88160,,,HRV,HRV_0299,2022-11-30 21:11:07
5,"[{'imgObject': {}, 'id': 'cantaloupe', 'src': '/static/foodstim60/cantaloupe.jpg', 'key': 'u', 'origWidth': 409, 'origHeight': 409, 'width': 409, 'height': 409, 'widthPercent': 0.45, 'rescaleHeight': False, 'trialN': 5, 'loaded': True, 'loadedTime': 124128.79999995232, 'positionName': 'LEFT', 'positionCoords': [410.36, 275.5], 'bid': 5.87}, {'imgObject': {}, 'id': 'eggs', 'src': '/static/foodstim60/eggs.jpg', 'key': 'i', 'origWidth': 409, 'origHeight': 409, 'width': 409, 'height': 409, 'widthPercent': 0.45, 'rescaleHeight': False, 'trialN': 5, 'loaded': True, 'loadedTime': 124183.29999995232, 'positionName': 'RIGHT', 'positionCoords': [887.64, 275.5], 'bid': 1.5}]",241142.79999995232,1669842329314,cantaloupe,eggs,5.87,1.5,-4.37,NaN,NaN,NaN,NaN,False,245519.90000009537,4377.100000143051,1669842333691,4377,"[{'event': 'onblur', 'details': 'out of focus', 'performance time': 243681.90000009537, 'date time': 1669842331854}, {'event': 'fullscreenchange', 'details': 'fullscreenexit', 'performance time': 243747.20000004768, 'date time': 1669842331919}, {'event': 'onfocus', 'details': 'in focus', 'performance time': 244077.5, 'date time': 1669842332249}]",,HRV,HRV_0299,2022-11-30 21:11:07
6,"[{'imgObject': {}, 'id': 'olives', 'src': '/static/foodstim60/olives.jpg', 'key': 'u', 'origWidth': 410, 'origHeight': 410, 'width': 410, 'height': 410, 'widthPercent': 0.45, 'rescaleHeight': False, 'trialN': 6, 'loaded': True, 'loadedTime': 245627.10000014305, 'positionName': 'LEFT', 'positionCoords': [409.36, 180.5], 'bid': 0.1}, {'imgObject': {}, 'id': 'froot loops w milk', 'src': '/static/foodstim60/froot loops w milk.jpg', 'key': 'i', 'origWidth': 410, 'origHeight': 410, 'width': 410, 'height': 410, 'widthPercent': 0.45, 'rescaleHeight': False, 'trialN': 6, 'loaded': True, 'loadedTime': 245660.79999995232, 'positionName': 'RIGHT', 'positionCoords': [887.64, 180.5], 'bid': 1.06}]",245520.5,1669842333692,olives,froot loops w milk,0.1,1.06,0.9600000000000001,froot loops w milk,i,1188.9000000953674,1252,True,247284.5,1764.0,1669842335456,1764,,1251.9000000953674,HRV,HRV_0299,2022-11-30 21:11:07
7,"[{'imgObject': {}, 'id': 'raspberries', 'src': '/static/foodstim60/raspberries.jpg', 'key': 'u', 'origWidth': 411, 'origHeight': 411, 'width': 411, 'height': 411, 'widthPercent': 0.45, 'rescaleHeight': False, 'trialN': 7, 'loaded': True, 'loadedTime': 247287.79999995232, 'positionName': 'LEFT', 'positionCoords': [408.36, 180], 'bid': 8.55}, {'imgObject': {}, 'id': 'blueberries', 'src': '/static/foodstim60/blueberries.jpg', 'key': 'i', 'origWidth': 411, 'origHeight': 411, 'width': 411, 'height': 411, 'widthPercent': 0.45, 'rescaleHeight': False, 'trialN': 7, 'loaded': True, 'loadedTime': 247291, 'positionName': 'RIGHT', 'positionCoords': [887.64, 180], 'bid': 8.23}]",247285.20000004768,1669842335457,raspberries,blueberries,8.55,8.23,-0.3200000000000003,blueberries,i,844.5,854,True,248659.79999995232,1374.5999999046326,1669842336832,1375,,854.5999999046326,HRV,HRV_0299,2022-11-30 21:11:07
8,"[{'imgObject': {}, 'id': 'froot loops w milk', 'src': '/static/foodstim60/froot loops w milk.jpg', 'key': 'u', 'origWidth': 410, 'origHeight': 410, 'width': 410, 'height': 410, 'widthPercent': 0.45, 'rescaleHeight': False, 'trialN': 8, 'loaded': True, 'loadedTime': 248670.60000014305, 'positionName': 'LEFT', 'positionCoords': [409.36, 180.5], 'bid': 1.06}, {'imgObject': {}, 'id': 'sweetpotato', 'src': '/static/foodstim60/sweetpotato.jpg', 'key': 'i', 'origWidth': 410, 'origHeight': 410, 'width': 410, 'height': 410, 'widthPercent': 0.45, 'rescaleHeight': False, 'trialN': 8, 'loaded': True, 'loadedTime': 248671.60000014305, 'positionName': 'RIGHT', 'positionCoords': [887.64, 180.5], 'bid': 7.3}]",248664.40000009537,1669842336836,froot loops w milk,sweetpotato,1.06,7.3,6.24,sweetpotato,i,1060.7999999523163,1062,True,250240.79999995232,1576.3999998569489,1669842338412,1576,,1061.7000000476837,HRV,HRV_0299,2022-11-30 21:11:07
9,"[{'imgObject': {}, 'id': 'avocado', 'src': '/static/foodstim60/avocado.jpg', 'key': 'u', 'origWidth': 409, 'origHeight': 409, 'width': 409, 'height': 409, 'widthPercent': 0.45, 'rescaleHeight': False, 'trialN': 9, 'loaded': True, 'loadedTime': 250244.20000004768, 'positionName': 'LEFT', 'positionCoords': [410.36, 181], 'bid': 4.6000000000000005}, {'imgObject': {}, 'id': 'Grapes', 'src': '/static/foodstim60/Grapes.jpg', 'key': 'i', 'origWidth': 411, 'origHeight': 411, 'width': 411, 'height': 411, 'widthPercent': 0.45, 'rescaleHeight': False, 'trialN': 9, 'loaded': True, 'loadedTime': 250247, 'positionName': 'RIGHT', 'positionCoords': [887.64, 180], 'bid': 4.5}]",250241.60000014305,1669842338413,avocado,Grapes,4.6000000000000005,4.5,-0.10000000000000053,Grapes,i,2067.5999999046326,2069,True,252813.60000014305,2572.0,1669842340985,2572,,2068.399999856949,HRV,HRV_0299,2022-11-30 21:11:07
10,"[{'imgObject': {}, 'id': 'omelette', 'src': '/static/foodstim60/omelette.jpg', 'key': 'u', 'origWidth': 410, 'origHeight': 409, 'width': 410, 'height': 409, 'widthPercent': 0.45, 'rescaleHeight': False, 'trialN': 10, 'loaded': True, 'loadedTime': 252819, 'positionName': 'LEFT', 'positionCoords': [409.36, 181], 'bid': 6.51}, {'imgObject': {}, 'id': 'bagel plain', 'src': '/static/foodstim60/bagel plain.jpg', 'key': 'i', 'origWidth': 410, 'origHeight': 410, 'width': 410, 'height': 410, 'widthPercent': 0.45, 'rescaleHeight': False, 'trialN': 10, 'loaded': True, 'loadedTime': 252821.20000004768, 'positionName': 'RIGHT', 'positionCoords': [887.64, 180.5], 'bid': 6.3100000000000005}]",252814.20000004768,1669842340986,omelette,bagel plain,6.51,6.3100000000000005,-0.1999999999999993,bagel plain,i,943.5,944,True,254267.29999995232,1453.0999999046326,1669842342439,1453,,944.0999999046326,HRV,HRV_0299,2022-11-30 21:11:07
11,"[{'imgObject': {}, 'id': 'ice cream sundae 002', 'src': '/static/foodstim60/ice cream sundae 002.jpg', 'key': 'u', 'origWidth': 409, 'origHeight': 409, 'width': 409, 'height': 409, 'widthPercent': 0.45, 'rescaleHeight': False, 'trialN': 11, 'loaded': True, 'loadedTime': 254271.90000009537, 'positionName': 'LEFT', 'positionCoords': [410.36, 181], 'bid': 5.89}, {'imgObject': {}, 'id': 'banana', 'src': '/static/foodstim60/banana.jpg', 'key': 'i', 'origWidth': 410, 'origHeight': 410, 'width': 410, 'height': 410, 'widthPercent': 0.45, 'rescaleHeight': False, 'trialN': 11, 'loaded': True, 'loadedTime': 254273.79999995232, 'positionName': 'RIGHT', 'positionCoords': [887.64, 180.5], 'bid': 6.5}]",254267.90000009537,1669842342439,ice cream sundae 002,banana,5.89,6.5,0.6100000000000003,banana,i,978.2000000476837,981,True,255754.60000014305,1486.7000000476837,1669842343926,1487,,980.2000000476837,HRV,HRV_0299,2022-11-30 21:11:07
12,"[{'imgObject': {}, 'id': 'turkey sandwich', 'src': '/static/foodstim60/turkey sandwich.jpg', 'key': 'u', 'origWidth': 409, 'origHeight': 409, 'width': 409, 'height': 409, 'widthPercent': 0.45, 'rescaleHeight': False, 'trialN': 12, 'loaded': True, 'loadedTime': 255764.10000014305, 'positionName': 'LEFT', 'positionCoords': [410.36, 181], 'bid': 7.48}, {'imgObject': {}, 'id': 'hotdog w must', 'src': '/static/foodstim60/hotdog w must.jpg', 'key': 'i', 'origWidth': 409, 'origHeight': 409, 'width': 409, 'height': 409, 'widthPercent': 0.45, 'rescaleHeight': False, 'trialN': 12, 'loaded': True, 'loadedTime': 255768.40000009537, 'positionName': 'RIGHT', 'positionCoords': [887.64, 181], 'bid': 9.13}]",255755.20000004768,1669842343927,turkey sandwich,hotdog w must,7.48,9.13,1.6500000000000004,turkey sandwich,u,1166.5999999046326,1168,True,257436.70000004768,1681.5,1669842345608,1681,,1167.9000000953674,HRV,HRV_0299,2022-11-30 21:11:07
13,"[{'imgObject': {}, 'id': 'strawberries', 'src': '/static/foodstim60/strawberries.jpg', 'key': 'u', 'origWidth': 410, 'origHeight': 410, 'width': 410, 'height': 410, 'widthPercent': 0.45, 'rescaleHeight': False, 'trialN': 13, 'loaded': True, 'loadedTime': 257441.20000004768, 'positionName': 'LEFT', 'positionCoords': [409.36, 180.5], 'bid': 8.43}, {'imgObject': {}, 'id': 'Tribe humus pita', 'src': '/static/foodstim60/Tribe humus pita.jpg', 'key': 'i', 'origWidth': 411, 'origHeight': 411, 'width': 411, 'height': 411, 'widthPercent': 0.45, 'rescaleHeight': False, 'trialN': 13, 'loaded': True, 'loadedTime': 257444, 'positionName': 'RIGHT', 'positionCoords': [887.64, 180], 'bid': 3.75}]",257437.40000009537,1669842345609,strawberries,Tribe humus pita,8.43,3.75,-4.68,strawberries,u,1081,1082,True,259037.20000004768,1599.7999999523163,1669842347209,1600,,1082.3999998569489,HRV,HRV_0299,2022-11-30 21:11:07
14,"[{'imgObject': {}, 'id': 'blueberries', 'src': '/static/foodstim60/blueberries.jpg', 'key': 'u', 'origWidth': 411, 'origHeight': 411, 'width': 411, 'height': 411, 'widthPercent': 0.45, 'rescaleHeight': False, 'trialN': 14, 'loaded': True, 'loadedTime': 259046.20000004768, 'positionName': 'LEFT', 'positionCoords': [408.36, 180], 'bid': 8.23}, {'imgObject': {}, 'id': 'grilled chicken strips', 'src': '/static/foodstim60/grilled chicken strips.jpg', 'key': 'i', 'origWidth': 410, 'origHeight': 411, 'width': 410, 'height': 411, 'widthPercent': 0.45, 'rescaleHeight': False, 'trialN': 14, 'loaded': True, 'loadedTime': 259047.90000009537, 'positionName': 'RIGHT', 'positionCoords': [887.64, 180], 'bid': 9.71}]",259038.20000004768,1669842347210,blueberries,grilled chicken strips,8.23,9.71,1.4800000000000004,grilled chicken strips,i,1292.0999999046326,1292,True,260846.70000004768,1808.5,1669842349018,1808,,1292.5999999046326,HRV,HRV_0299,2022-11-30 21:11:07
15,"[{'imgObject': {}, 'id': 'grilled chicken strips', 'src': '/static/foodstim60/grilled chicken strips.jpg', 'key': 'u', 'origWidth': 410, 'origHeight': 411, 'width': 410, 'height': 411, 'widthPercent': 0.45, 'rescaleHeight': False, 'trialN': 15, 'loaded': True, 'loadedTime': 260850, 'positionName': 'LEFT', 'positionCoords': [409.36, 180], 'bid': 9.71}, {'imgObject': {}, 'id': 'mac & cheese', 'src': '/static/foodstim60/mac & cheese.jpg', 'key': 'i', 'origWidth': 410, 'origHeight': 410, 'width': 410, 'height': 410, 'widthPercent': 0.45, 'rescaleHeight': False, 'trialN': 15, 'loaded': True, 'loadedTime': 260852.70000004768, 'positionName': 'RIGHT', 'positionCoords': [887.64, 180.5], 'bid': 7.84}]",260847.5,1669842349019,grilled chicken strips,mac & cheese,9.71,7.84,-1.870000000000001,grilled chicken strips,u,2861.5,2864,True,264223.0,3375.5,1669842352395,3376,,2863.7999999523163,HRV,HRV_0299,2022-11-30 21:11:07
16,"[{'imgObject': {}, 'id': 'hotdog w must', 'src': '/static/foodstim60/hotdog w must.jpg', 'key': 'u', 'origWidth': 409, 'origHeight': 409, 'width': 409, 'height': 409, 'widthPercent': 0.45, 'rescaleHeight': False, 'trialN': 16, 'loaded': True, 'loadedTime': 264246.40000009537, 'positionName': 'LEFT', 'positionCoords': [410.36, 181], 'bid': 9.13}, {'imgObject': {}, 'id': 'strawberries', 'src': '/static/foodstim60/strawberries.jpg', 'key': 'i', 'origWidth': 410, 'origHeight': 410, 'width': 410, 'height': 410, 'widthPercent': 0.45, 'rescaleHeight': False, 'trialN': 16, 'loaded': True, 'loadedTime': 264250.2999999523, 'positionName': 'RIGHT', 'positionCoords': [887.64, 180.5], 'bid': 8.43}]",264234.7999999523,1669842352406,hotdog w must,strawberries,9.13,8.43,-0.7000000000000011,strawberries,i,1298.1000001430511,1300,True,266040.2000000477,1805.4000000953674,1669842354212,1806,,1299.6000001430511,HRV,HRV_0299,2022-11-30 21:11:07
17,"[{'imgObject': {}, 'id': 'Grapes', 'src': '/static/foodstim60/Grapes.jpg', 'key': 'u', 'origWidth': 411, 'origHeight': 411, 'width': 411, 'height': 411, 'widthPercent': 0.45, 'rescaleHeight': False, 'trialN': 17, 'loaded': True, 'loadedTime': 266044.7999999523, 'positionName': 'LEFT', 'positionCoords': [408.36, 180], 'bid': 4.5}, {'imgObject': {}, 'id': 'bagel and cc', 'src': '/static/foodstim60/bagel and cc.jpg', 'key': 'i', 'origWidth': 410, 'origHeight': 410, 'width': 410, 'height': 410, 'widthPercent': 0.45, 'rescaleHeight': False, 'trialN': 17, 'loaded': True, 'loadedTime': 266053.7999999523, 'positionName': 'RIGHT', 'positionCoords': [887.64, 180.5], 'bid': 6.22}]",266041.7000000477,1669842354213,Grapes,bagel and cc,4.5,6.22,1.7199999999999998,bagel and cc,i,110,637,True,267197.7999999523,1156.0999999046326,1669842355369,1156,,636.5999999046326,HRV,HRV_0299,2022-11-30 21:11:07
18,"[{'imgObject': {}, 'id': 'froot loops w milk', 'src': '/static/foodstim60/froot loops w milk.jpg', 'key': 'u', 'origWidth': 410, 'origHeight': 410, 'width': 410, 'height': 410, 'widthPercent': 0.45, 'rescaleHeight': False, 'trialN': 18, 'loaded': True, 'loadedTime': 267213.7999999523, 'positionName': 'LEFT', 'positionCoords': [409.36, 180.5], 'bid': 1.06}, {'imgObject': {}, 'id': 'Tribe humus pita', 'src': '/static/foodstim60/Tribe humus pita.jpg', 'key': 'i', 'origWidth': 411, 'origHeight': 411, 'width': 411, 'height': 411, 'widthPercent': 0.45, 'rescaleHeight': False, 'trialN': 18, 'loaded': True, 'loadedTime': 267234.7999999523, 'positionName': 'RIGHT', 'positionCoords': [887.64, 180], 'bid': 3.75}]",267198.40000009537,1669842355370,froot loops w milk,Tribe humus pita,1.06,3.75,2.69,Tribe humus pita,i,653.5999999046326,655,True,268366.5,1168.0999999046326,1669842356538,1168,,655.0999999046326,HRV,HRV_0299,2022-11-30 21:11:07
19,"[{'imgObject': {}, 'id': 'cherry tomato', 'src': '/static/foodstim60/cherry tomato.jpg', 'key': 'u', 'origWidth': 410, 'origHeight': 410, 'width': 410, 'height': 410, 'widthPercent': 0.45, 'rescaleHeight': False, 'trialN': 19, 'loaded': True, 'loadedTime': 268552.7000000477, 'positionName': 'LEFT', 'positionCoords': [409.36, 180.5], 'bid': 4.37}, {'imgObject': {}, 'id': 'edamame', 'src': '/static/foodstim60/edamame.jpg', 'key': 'i', 'origWidth': 409, 'origHeight': 410, 'width': 409, 'height': 410, 'widthPercent': 0.45, 'rescaleHeight': False, 'trialN': 19, 'loaded': True, 'loadedTime': 268555.2999999523, 'positionName': 'RIGHT', 'positionCoords': [887.64, 180.5], 'bid': 6.2}]",268387.90000009537,1669842356559,cherry tomato,edamame,4.37,6.2,1.83,edamame,i,1481.0999999046326,1482,True,270388.2999999523,2000.3999998569489,1669842358560,2001,,1481.7000000476837,HRV,HRV_0299,2022-11-30 21:11:07
20,"[{'imgObject': {}, 'id': 'hotdog w must', 'src': '/static/foodstim60/hotdog w must.jpg', 'key': 'u', 'origWidth': 409, 'origHeight': 409, 'width': 409, 'height': 409, 'widthPercent': 0.45, 'rescaleHeight': False, 'trialN': 20, 'loaded': True, 'loadedTime': 270390.60000014305, 'positionName': 'LEFT', 'positionCoords': [410.36, 181], 'bid': 9.13}, {'imgObject': {}, 'id': 'baked potato', 'src': '/static/foodstim60/baked potato.jpg', 'key': 'i', 'origWidth': 409, 'origHeight': 410, 'width': 409, 'height': 410, 'widthPercent': 0.45, 'rescaleHeight': False, 'trialN': 20, 'loaded': True, 'loadedTime': 270408.5, 'positionName': 'RIGHT', 'positionCoords': [887.64, 180.5], 'bid': 9.07}]",270389.10000014305,1669842358561,hotdog w must,baked potato,9.13,9.07,-0.0600000000000005,baked potato,i,1373.3999998569489,1374,True,272345.2999999523,1956.1999998092651,1669842360517,1956,,1374.3999998569489,HRV,HRV_0299,2022-11-30 21:11:07
21,"[{'imgObject': {}, 'id': 'omelette', 'src': '/static/foodstim60/omelette.jpg', 'key': 'u', 'origWidth': 410, 'origHeight': 409, 'width': 410, 'height': 409, 'widthPercent': 0.45, 'rescaleHeight': False, 'trialN': 21, 'loaded': True, 'loadedTime': 272347, 'positionName': 'LEFT', 'positionCoords': [409.36, 181], 'bid': 6.51}, {'imgObject': {}, 'id': 'banana', 'src': '/static/foodstim60/banana.jpg', 'key': 'i', 'origWidth': 410, 'origHeight': 410, 'width': 410, 'height': 410, 'widthPercent': 0.45, 'rescaleHeight': False, 'trialN': 21, 'loaded': True, 'loadedTime': 272348.40000009537, 'positionName': 'RIGHT', 'positionCoords': [887.64, 180.5], 'bid': 6.5}]",272345.90000009537,1669842360517,omelette,banana,6.51,6.5,-0.009999999999999787,NaN,NaN,NaN,NaN,False,280049.60000014305,7703.700000047684,1669842368221,7704,,7186.399999856949,HRV,HRV_0299,2022-11-30 21:11:07
22,"[{'imgObject': {}, 'id': 'bagel plain', 'src': '/static/foodstim60/bagel plain.jpg', 'key': 'u', 'origWidth': 410, 'origHeight': 410, 'width': 410, 'height': 410, 'widthPercent': 0.45, 'rescaleHeight': False, 'trialN': 22, 'loaded': True, 'loadedTime': 280052.5, 'positionName': 'LEFT', 'positionCoords': [409.36, 180.5], 'bid': 6.3100000000000005}, {'imgObject': {}, 'id': 'bagel and cc', 'src': '/static/foodstim60/bagel and cc.jpg', 'key': 'i', 'origWidth': 410, 'origHeight': 410, 'width': 410, 'height': 410, 'widthPercent': 0.45, 'rescaleHeight': False, 'trialN': 22, 'loaded': True, 'loadedTime': 280057.5, 'positionName': 'RIGHT', 'positionCoords': [887.64, 180.5], 'bid': 6.22}]",280050.2000000477,1669842368222,bagel plain,bagel and cc,6.3100000000000005,6.22,-0.09000000000000075,bagel and cc,i,2162.7999999523163,2164,True,282722.90000009537,2672.7000000476837,1669842370894,2672,,2164.2000000476837,HRV,HRV_0299,2022-11-30 21:11:07
23,"[{'imgObject': {}, 'id': 'ice cream sundae 002', 'src': '/static/foodstim60/ice cream sundae 002.jpg', 'key': 'u', 'origWidth': 409, 'origHeight': 409, 'width': 409, 'height': 409, 'widthPercent': 0.45, 'rescaleHeight': False, 'trialN': 23, 'loaded': True, 'loadedTime': 282725.60000014305, 'positionName': 'LEFT', 'positionCoords': [410.36, 181], 'bid': 5.89}, {'imgObject': {}, 'id': 'fruitsalad', 'src': '/static/foodstim60/fruitsalad.jpg', 'key': 'i', 'origWidth': 410, 'origHeight': 410, 'width': 410, 'height': 410, 'widthPercent': 0.45, 'rescaleHeight': False, 'trialN': 23, 'loaded': True, 'loadedTime': 282728.5, 'positionName': 'RIGHT', 'positionCoords': [887.64, 180.5], 'bid': 5.93}]",282723.5,1669842370895,ice cream sundae 002,fruitsalad,5.89,5.93,0.040000000000000036,fruitsalad,i,1211.2999999523163,1213,True,284478.7000000477,1755.2000000476837,1669842372650,1755,,1212.7999999523163,HRV,HRV_0299,2022-11-30 21:11:07
24,"[{'imgObject': {}, 'id': 'raisin bran w milk', 'src': '/static/foodstim60/raisin bran w milk.jpg', 'key': 'u', 'origWidth': 411, 'origHeight': 411, 'width': 411, 'height': 411, 'widthPercent': 0.45, 'rescaleHeight': False, 'trialN': 24, 'loaded': True, 'loadedTime': 284565.7999999523, 'positionName': 'LEFT', 'positionCoords': [408.36, 180], 'bid': 4.1}, {'imgObject': {}, 'id': 'orange slices', 'src': '/static/foodstim60/orange slices.jpg', 'key': 'i', 'origWidth': 409, 'origHeight': 410, 'width': 409, 'height': 410, 'widthPercent': 0.45, 'rescaleHeight': False, 'trialN': 24, 'loaded': True, 'loadedTime': 284591.5, 'positionName': 'RIGHT', 'positionCoords': [887.64, 180.5], 'bid': 6.2}]",284479.40000009537,1669842372651,raisin bran w milk,orange slices,4.1,6.2,2.1000000000000005,raisin bran w milk,u,1694.7999999523163,1695,True,286679.7999999523,2200.399999856949,1669842374851,2200,,1695.2999999523163,HRV,HRV_0299,2022-11-30 21:11:07
25,"[{'imgObject': {}, 'id': 'cantaloupe', 'src': '/static/foodstim60/cantaloupe.jpg', 'key': 'u', 'origWidth': 409, 'origHeight': 409, 'width': 409, 'height': 409, 'widthPercent': 0.45, 'rescaleHeight': False, 'trialN': 25, 'loaded': True, 'loadedTime': 286694.60000014305, 'positionName': 'LEFT', 'positionCoords': [410.36, 181], 'bid': 5.87}, {'imgObject': {}, 'id': 'burger', 'src': '/static/foodstim60/burger.jpg', 'key': 'i', 'origWidth': 409, 'origHeight': 409, 'width': 409, 'height': 409, 'widthPercent': 0.45, 'rescaleHeight': False, 'trialN': 25, 'loaded': True, 'loadedTime': 286731.90000009537, 'positionName': 'RIGHT', 'positionCoords': [887.64, 181], 'bid': 9.46}]",286680.40000009537,1669842374852,cantaloupe,burger,5.87,9.46,3.5900000000000007,burger,i,1043.7000000476837,1044,True,288236.2000000477,1555.7999999523163,1669842376408,1556,,1044.2000000476837,HRV,HRV_0299,2022-11-30 21:11:07
26,"[{'imgObject': {}, 'id': 'avocado', 'src': '/static/foodstim60/avocado.jpg', 'key': 'u', 'origWidth': 409, 'origHeight': 409, 'width': 409, 'height': 409, 'widthPercent': 0.45, 'rescaleHeight': False, 'trialN': 26, 'loaded': True, 'loadedTime': 288240.2999999523, 'positionName': 'LEFT', 'positionCoords': [410.36, 181], 'bid': 4.6000000000000005}, {'imgObject': {}, 'id': 'mango', 'src': '/static/foodstim60/mango.jpg', 'key': 'i', 'origWidth': 411, 'origHeight': 411, 'width': 411, 'height': 411, 'widthPercent': 0.45, 'rescaleHeight': False, 'trialN': 26, 'loaded': True, 'loadedTime': 288242.2000000477, 'positionName': 'RIGHT', 'positionCoords': [887.64, 180], 'bid': 3.64}]",288236.7999999523,1669842376408,avocado,mango,4.6000000000000005,3.64,-0.9600000000000004,mango,i,1437,1439,True,290180.2000000477,1943.4000000953674,1669842378352,1944,,1438.3000001907349,HRV,HRV_0299,2022-11-30 21:11:07
27,"[{'imgObject': {}, 'id': 'chickenfingers', 'src': '/static/foodstim60/chickenfingers.jpg', 'key': 'u', 'origWidth': 410, 'origHeight': 410, 'width': 410, 'height': 410, 'widthPercent': 0.45, 'rescaleHeight': False, 'trialN': 27, 'loaded': True, 'loadedTime': 290181.90000009537, 'positionName': 'LEFT', 'positionCoords': [409.36, 180.5], 'bid': 8.18}, {'imgObject': {}, 'id': 'cocktailshrimp', 'src': '/static/foodstim60/cocktailshrimp.jpg', 'key': 'i', 'origWidth': 410, 'origHeight': 410, 'width': 410, 'height': 410, 'widthPercent': 0.45, 'rescaleHeight': False, 'trialN': 27, 'loaded': True, 'loadedTime': 290190.2999999523, 'positionName': 'RIGHT', 'positionCoords': [887.64, 180.5], 'bid': 8.14}]",290180.90000009537,1669842378352,chickenfingers,cocktailshrimp,8.18,8.14,-0.03999999999999915,chickenfingers,u,1578.0999999046326,1580,True,292267.60000014305,2086.7000000476837,1669842380439,2087,,1579.3999998569489,HRV,HRV_0299,2022-11-30 21:11:07
28,"[{'imgObject': {}, 'id': 'shreddedwheatwithmilk', 'src': '/static/foodstim60/shreddedwheatwithmilk.jpg', 'key': 'u', 'origWidth': 410, 'origHeight': 410, 'width': 410, 'height': 410, 'widthPercent': 0.45, 'rescaleHeight': False, 'trialN': 28, 'loaded': True, 'loadedTime': 292270.7999999523, 'positionName': 'LEFT', 'positionCoords': [409.36, 180.5], 'bid': 3.22}, {'imgObject': {}, 'id': 'cocktailshrimp', 'src': '/static/foodstim60/cocktailshrimp.jpg', 'key': 'i', 'origWidth': 410, 'origHeight': 410, 'width': 410, 'height': 410, 'widthPercent': 0.45, 'rescaleHeight': False, 'trialN': 28, 'loaded': True, 'loadedTime': 292273, 'positionName': 'RIGHT', 'positionCoords': [887.64, 180.5], 'bid': 8.14}]",292268.40000009537,1669842380440,shreddedwheatwithmilk,cocktailshrimp,3.22,8.14,4.92,cocktailshrimp,i,1246.0999999046326,1247,True,294028.40000009537,1760.0,1669842382200,1760,,1246.7999999523163,HRV,HRV_0299,2022-11-30 21:11:07
29,"[{'imgObject': {}, 'id': 'steak', 'src': '/static/foodstim60/steak.jpg', 'key': 'u', 'origWidth': 410, 'origHeight': 410, 'width': 410, 'height': 410, 'widthPercent': 0.45, 'rescaleHeight': False, 'trialN': 29, 'loaded': True, 'loadedTime': 294031.2999999523, 'positionName': 'LEFT', 'positionCoords': [409.36, 180.5], 'bid': 10}, {'imgObject': {}, 'id': 'strawberries', 'src': '/static/foodstim60/strawberries.jpg', 'key': 'i', 'origWidth': 410, 'origHeight': 410, 'width': 410, 'height': 410, 'widthPercent': 0.45, 'rescaleHeight': False, 'trialN': 29, 'loaded': True, 'loadedTime': 294033.2999999523, 'positionName': 'RIGHT', 'positionCoords': [887.64, 180.5], 'bid': 8.43}]",294029.2000000477,1669842382201,steak,strawberries,10.0,8.43,-1.5700000000000003,strawberries,i,1030,1030,True,295571.5,1542.2999999523163,1669842383743,1542,,1030.5999999046326,HRV,HRV_0299,2022-11-30 21:11:07
30,"[{'imgObject': {}, 'id': 'corn cob', 'src': '/static/foodstim60/corn cob.jpg', 'key': 'u', 'origWidth': 411, 'origHeight': 411, 'width': 411, 'height': 411, 'widthPercent': 0.45, 'rescaleHeight': False, 'trialN': 30, 'loaded': True, 'loadedTime': 295574.2000000477, 'positionName': 'LEFT', 'positionCoords': [408.36, 180], 'bid': 6.75}, {'imgObject': {}, 'id': 'mac & cheese', 'src': '/static/foodstim60/mac & cheese.jpg', 'key': 'i', 'origWidth': 410, 'origHeight': 410, 'width': 410, 'height': 410, 'widthPercent': 0.45, 'rescaleHeight': False, 'trialN': 30, 'loaded': True, 'loadedTime': 295578, 'positionName': 'RIGHT', 'positionCoords': [887.64, 180.5], 'bid': 7.84}]",295572.10000014305,1669842383744,corn cob,mac & cheese,6.75,7.84,1.0899999999999999,corn cob,u,1495.0999999046326,1496,True,297586.90000009537,2014.7999999523163,1669842385758,2014,,1496.0,HRV,HRV_0299,2022-11-30 21:11:07
31,"[{'imgObject': {}, 'id': 'mango', 'src': '/static/foodstim60/mango.jpg', 'key': 'u', 'origWidth': 411, 'origHeight': 411, 'width': 411, 'height': 411, 'widthPercent': 0.45, 'rescaleHeight': False, 'trialN': 31, 'loaded': True, 'loadedTime': 297590.2999999523, 'positionName': 'LEFT', 'positionCoords': [408.36, 180], 'bid': 3.64}, {'imgObject': {}, 'id': 'pear', 'src': '/static/foodstim60/pear.jpg', 'key': 'i', 'origWidth': 411, 'origHeight': 410, 'width': 411, 'height': 410, 'widthPercent': 0.45, 'rescaleHeight': False, 'trialN': 31, 'loaded': True, 'loadedTime': 297592.7000000477, 'positionName': 'RIGHT', 'positionCoords': [887.64, 180.5], 'bid': 0.94}]",297588.0,1669842385760,mango,pear,3.64,0.94,-2.7,pear,i,1495.4000000953674,1496,True,299590.10000014305,2002.1000001430511,1669842387762,2002,,1495.9000000953674,HRV,HRV_0299,2022-11-30 21:11:07
32,"[{'imgObject': {}, 'id': 'steak', 'src': '/static/foodstim60/steak.jpg', 'key': 'u', 'origWidth': 410, 'origHeight': 410, 'width': 410, 'height': 410, 'widthPercent': 0.45, 'rescaleHeight': False, 'trialN': 32, 'loaded': True, 'loadedTime': 299595.90000009537, 'positionName': 'LEFT', 'positionCoords': [409.36, 180.5], 'bid': 10}, {'imgObject': {}, 'id': 'burrito', 'src': '/static/foodstim60/burrito.jpg', 'key': 'i', 'origWidth': 410, 'origHeight': 410, 'width': 410, 'height': 410, 'widthPercent': 0.45, 'rescaleHeight': False, 'trialN': 32, 'loaded': True, 'loadedTime': 299600.10000014305, 'positionName': 'RIGHT', 'positionCoords': [887.64, 180.5], 'bid': 9}]",299590.90000009537,1669842387762,steak,burrito,10.0,9.0,-1.0,steak,u,1143.5,1145,True,301242.90000009537,1652.0,1669842389414,1652,,1144.7999999523163,HRV,HRV_0299,2022-11-30 21:11:07
33,"[{'imgObject': {}, 'id': 'ice cream sundae 002', 'src': '/static/foodstim60/ice cream sundae 002.jpg', 'key': 'u', 'origWidth': 409, 'origHeight': 409, 'width': 409, 'height': 409, 'widthPercent': 0.45, 'rescaleHeight': False, 'trialN': 33, 'loaded': True, 'loadedTime': 301249.90000009537, 'positionName': 'LEFT', 'positionCoords': [410.36, 181], 'bid': 5.89}, {'imgObject': {}, 'id': 'grilled chicken strips', 'src': '/static/foodstim60/grilled chicken strips.jpg', 'key': 'i', 'origWidth': 410, 'origHeight': 411, 'width': 410, 'height': 411, 'widthPercent': 0.45, 'rescaleHeight': False, 'trialN': 33, 'loaded': True, 'loadedTime': 301252.10000014305, 'positionName': 'RIGHT', 'positionCoords': [887.64, 180], 'bid': 9.71}]",301243.7999999523,1669842389415,ice cream sundae 002,grilled chicken strips,5.89,9.71,3.820000000000001,grilled chicken strips,i,942.6000001430511,943,True,302707.5,1463.7000000476837,1669842390879,1464,,943.3000001907349,HRV,HRV_0299,2022-11-30 21:11:07
34,"[{'imgObject': {}, 'id': 'rigatoni and sauce', 'src': '/static/foodstim60/rigatoni and sauce.jpg', 'key': 'u', 'origWidth': 410, 'origHeight': 411, 'width': 410, 'height': 411, 'widthPercent': 0.45, 'rescaleHeight': False, 'trialN': 34, 'loaded': True, 'loadedTime': 302721.60000014305, 'positionName': 'LEFT', 'positionCoords': [409.36, 180], 'bid': 8.18}, {'imgObject': {}, 'id': 'turkey sandwich', 'src': '/static/foodstim60/turkey sandwich.jpg', 'key': 'i', 'origWidth': 409, 'origHeight': 409, 'width': 409, 'height': 409, 'widthPercent': 0.45, 'rescaleHeight': False, 'trialN': 34, 'loaded': True, 'loadedTime': 302724.5, 'positionName': 'RIGHT', 'positionCoords': [887.64, 181], 'bid': 7.48}]",302708.5,1669842390879,rigatoni and sauce,turkey sandwich,8.18,7.48,-0.6999999999999993,turkey sandwich,i,1486.7999999523163,1488,True,304712.7999999523,2004.2999999523163,1669842392884,2005,,1487.2999999523163,HRV,HRV_0299,2022-11-30 21:11:07
35,"[{'imgObject': {}, 'id': 'bagel plain', 'src': '/static/foodstim60/bagel plain.jpg', 'key': 'u', 'origWidth': 410, 'origHeight': 410, 'width': 410, 'height': 410, 'widthPercent': 0.45, 'rescaleHeight': False, 'trialN': 35, 'loaded': True, 'loadedTime': 304724.2000000477, 'positionName': 'LEFT', 'positionCoords': [409.36, 180.5], 'bid': 6.3100000000000005}, {'imgObject': {}, 'id': 'blueberries', 'src': '/static/foodstim60/blueberries.jpg', 'key': 'i', 'origWidth': 411, 'origHeight': 411, 'width': 411, 'height': 411, 'widthPercent': 0.45, 'rescaleHeight': False, 'trialN': 35, 'loaded': True, 'loadedTime': 304728.5, 'positionName': 'RIGHT', 'positionCoords': [887.64, 180], 'bid': 8.23}]",304714.10000014305,1669842392885,bagel plain,blueberries,6.3100000000000005,8.23,1.92,blueberries,i,946.7999999523163,948,True,306171.60000014305,1457.5,1669842394343,1458,,948.0999999046326,HRV,HRV_0299,2022-11-30 21:11:07
36,"[{'imgObject': {}, 'id': 'shreddedwheatwithmilk', 'src': '/static/foodstim60/shreddedwheatwithmilk.jpg', 'key': 'u', 'origWidth': 410, 'origHeight': 410, 'width': 410, 'height': 410, 'widthPercent': 0.45, 'rescaleHeight': False, 'trialN': 36, 'loaded': True, 'loadedTime': 306179.40000009537, 'positionName': 'LEFT', 'positionCoords': [409.36, 180.5], 'bid': 3.22}, {'imgObject': {}, 'id': 'cheerios', 'src': '/static/foodstim60/cheerios.jpg', 'key': 'i', 'origWidth': 409, 'origHeight': 410, 'width': 409, 'height': 410, 'widthPercent': 0.45, 'rescaleHeight': False, 'trialN': 36, 'loaded': True, 'loadedTime': 306184.40000009537, 'positionName': 'RIGHT', 'positionCoords': [887.64, 180.5], 'bid': 2.33}]",306172.2999999523,1669842394343,shreddedwheatwithmilk,cheerios,3.22,2.33,-0.8900000000000001,shreddedwheatwithmilk,u,1138.9000000953674,1142,True,307828.0,1655.7000000476837,1669842395999,1656,,1141.6000001430511,HRV,HRV_0299,2022-11-30 21:11:07
37,"[{'imgObject': {}, 'id': 'bagel and cc', 'src': '/static/foodstim60/bagel and cc.jpg', 'key': 'u', 'origWidth': 410, 'origHeight': 410, 'width': 410, 'height': 410, 'widthPercent': 0.45, 'rescaleHeight': False, 'trialN': 37, 'loaded': True, 'loadedTime': 307841.7999999523, 'positionName': 'LEFT', 'positionCoords': [409.36, 180.5], 'bid': 6.22}, {'imgObject': {}, 'id': 'banana', 'src': '/static/foodstim60/banana.jpg', 'key': 'i', 'origWidth': 410, 'origHeight': 410, 'width': 410, 'height': 410, 'widthPercent': 0.45, 'rescaleHeight': False, 'trialN': 37, 'loaded': True, 'loadedTime': 307844.7999999523, 'positionName': 'RIGHT', 'positionCoords': [887.64, 180.5], 'bid': 6.5}]",307828.60000014305,1669842396000,bagel and cc,banana,6.22,6.5,0.28000000000000025,bagel and cc,u,1169.5,1171,True,309502.0,1673.3999998569489,1669842397673,1673,,1171.5,HRV,HRV_0299,2022-11-30 21:11:07
38,"[{'imgObject': {}, 'id': 'corn cob', 'src': '/static/foodstim60/corn cob.jpg', 'key': 'u', 'origWidth': 411, 'origHeight': 411, 'width': 411, 'height': 411, 'widthPercent': 0.45, 'rescaleHeight': False, 'trialN': 38, 'loaded': True, 'loadedTime': 309506.2999999523, 'positionName': 'LEFT', 'positionCoords': [408.36, 180], 'bid': 6.75}, {'imgObject': {}, 'id': 'mashed potato', 'src': '/static/foodstim60/mashed potato.jpg', 'key': 'i', 'origWidth': 409, 'origHeight': 409, 'width': 409, 'height': 409, 'widthPercent': 0.45, 'rescaleHeight': False, 'trialN': 38, 'loaded': True, 'loadedTime': 309510.90000009537, 'positionName': 'RIGHT', 'positionCoords': [887.64, 181], 'bid': 8.88}]",309502.7000000477,1669842397674,corn cob,mashed potato,6.75,8.88,2.130000000000001,mashed potato,i,995.7999999523163,996,True,311022.60000014305,1519.9000000953674,1669842399194,1520,,996.2999999523163,HRV,HRV_0299,2022-11-30 21:11:07
39,"[{'imgObject': {}, 'id': 'hashbrowns', 'src': '/static/foodstim60/hashbrowns.jpg', 'key': 'u', 'origWidth': 411, 'origHeight': 410, 'width': 411, 'height': 410, 'widthPercent': 0.45, 'rescaleHeight': False, 'trialN': 39, 'loaded': True, 'loadedTime': 311036.40000009537, 'positionName': 'LEFT', 'positionCoords': [408.36, 180.5], 'bid': 1.05}, {'imgObject': {}, 'id': 'avocado', 'src': '/static/foodstim60/avocado.jpg', 'key': 'i', 'origWidth': 409, 'origHeight': 409, 'width': 409, 'height': 409, 'widthPercent': 0.45, 'rescaleHeight': False, 'trialN': 39, 'loaded': True, 'loadedTime': 311042.5, 'positionName': 'RIGHT', 'positionCoords': [887.64, 181], 'bid': 4.6000000000000005}]",311026.10000014305,1669842399197,hashbrowns,avocado,1.05,4.6000000000000005,3.5500000000000007,avocado,i,1688.7999999523163,1689,True,313228.7000000477,2202.5999999046326,1669842401400,2203,,1689.3999998569489,HRV,HRV_0299,2022-11-30 21:11:07
40,"[{'imgObject': {}, 'id': 'raisin bran w milk', 'src': '/static/foodstim60/raisin bran w milk.jpg', 'key': 'u', 'origWidth': 411, 'origHeight': 411, 'width': 411, 'height': 411, 'widthPercent': 0.45, 'rescaleHeight': False, 'trialN': 40, 'loaded': True, 'loadedTime': 313233, 'positionName': 'LEFT', 'positionCoords': [408.36, 180], 'bid': 4.1}, {'imgObject': {}, 'id': 'cherry tomato', 'src': '/static/foodstim60/cherry tomato.jpg', 'key': 'i', 'origWidth': 410, 'origHeight': 410, 'width': 410, 'height': 410, 'widthPercent': 0.45, 'rescaleHeight': False, 'trialN': 40, 'loaded': True, 'loadedTime': 313234.90000009537, 'positionName': 'RIGHT', 'positionCoords': [887.64, 180.5], 'bid': 4.37}]",313229.5,1669842401401,raisin bran w milk,cherry tomato,4.1,4.37,0.27000000000000046,raisin bran w milk,u,1052.7999999523163,1053,True,314803.0,1573.5,1669842402974,1573,,1053.4000000953674,HRV,HRV_0299,2022-11-30 21:11:07
41,"[{'imgObject': {}, 'id': 'veggieswithdip', 'src': '/static/foodstim60/veggieswithdip.jpg', 'key': 'u', 'origWidth': 409, 'origHeight': 409, 'width': 409, 'height': 409, 'widthPercent': 0.45, 'rescaleHeight': False, 'trialN': 41, 'loaded': True, 'loadedTime': 314825.2999999523, 'positionName': 'LEFT', 'positionCoords': [410.36, 181], 'bid': 5.54}, {'imgObject': {}, 'id': 'baked potato', 'src': '/static/foodstim60/baked potato.jpg', 'key': 'i', 'origWidth': 409, 'origHeight': 410, 'width': 409, 'height': 410, 'widthPercent': 0.45, 'rescaleHeight': False, 'trialN': 41, 'loaded': True, 'loadedTime': 314839, 'positionName': 'RIGHT', 'positionCoords': [887.64, 180.5], 'bid': 9.07}]",314803.7999999523,1669842402975,veggieswithdip,baked potato,5.54,9.07,3.5300000000000002,baked potato,i,1110.9000000953674,1113,True,316434.7999999523,1631.0,1669842404606,1631,,1113.4000000953674,HRV,HRV_0299,2022-11-30 21:11:07
42,"[{'imgObject': {}, 'id': 'blackbeanswithrice', 'src': '/static/foodstim60/blackbeanswithrice.jpg', 'key': 'u', 'origWidth': 410, 'origHeight': 410, 'width': 410, 'height': 410, 'widthPercent': 0.45, 'rescaleHeight': False, 'trialN': 42, 'loaded': True, 'loadedTime': 316439.2999999523, 'positionName': 'LEFT', 'positionCoords': [409.36, 180.5], 'bid': 6.59}, {'imgObject': {}, 'id': 'rigatoni', 'src': '/static/foodstim60/rigatoni.jpg', 'key': 'i', 'origWidth': 411, 'origHeight': 411, 'width': 411, 'height': 411, 'widthPercent': 0.45, 'rescaleHeight': False, 'trialN': 42, 'loaded': True, 'loadedTime': 316441.2999999523, 'positionName': 'RIGHT', 'positionCoords': [887.64, 180], 'bid': 6.91}]",316436.7000000477,1669842404608,blackbeanswithrice,rigatoni,6.59,6.91,0.3200000000000003,blackbeanswithrice,u,1171.9000000953674,1172,True,318135.2999999523,1698.5999999046326,1669842406306,1698,,1172.5,HRV,HRV_0299,2022-11-30 21:11:07
43,"[{'imgObject': {}, 'id': 'blueberries', 'src': '/static/foodstim60/blueberries.jpg', 'key': 'u', 'origWidth': 411, 'origHeight': 411, 'width': 411, 'height': 411, 'widthPercent': 0.45, 'rescaleHeight': False, 'trialN': 43, 'loaded': True, 'loadedTime': 318142.90000009537, 'positionName': 'LEFT', 'positionCoords': [408.36, 180], 'bid': 8.23}, {'imgObject': {}, 'id': 'granola w milk', 'src': '/static/foodstim60/granola w milk.jpg', 'key': 'i', 'origWidth': 410, 'origHeight': 410, 'width': 410, 'height': 410, 'widthPercent': 0.45, 'rescaleHeight': False, 'trialN': 43, 'loaded': True, 'loadedTime': 318174.2999999523, 'positionName': 'RIGHT', 'positionCoords': [887.64, 180.5], 'bid': 3.69}]",318136.0,1669842406307,blueberries,granola w milk,8.23,3.69,-4.540000000000001,blueberries,u,903,904,True,319572.10000014305,1436.1000001430511,1669842407743,1436,,904.4000000953674,HRV,HRV_0299,2022-11-30 21:11:07
44,"[{'imgObject': {}, 'id': 'mashed potato', 'src': '/static/foodstim60/mashed potato.jpg', 'key': 'u', 'origWidth': 409, 'origHeight': 409, 'width': 409, 'height': 409, 'widthPercent': 0.45, 'rescaleHeight': False, 'trialN': 44, 'loaded': True, 'loadedTime': 319579.90000009537, 'positionName': 'LEFT', 'positionCoords': [410.36, 181], 'bid': 8.88}, {'imgObject': {}, 'id': 'turkeysandwich', 'src': '/static/foodstim60/turkeysandwich.jpg', 'key': 'i', 'origWidth': 409, 'origHeight': 409, 'width': 409, 'height': 409, 'widthPercent': 0.45, 'rescaleHeight': False, 'trialN': 44, 'loaded': True, 'loadedTime': 319585, 'positionName': 'RIGHT', 'positionCoords': [887.64, 181], 'bid': 7.54}]",319574.5,1669842407745,mashed potato,turkeysandwich,8.88,7.54,-1.3400000000000007,mashed potato,u,1910.5,1912,True,322003.60000014305,2429.100000143051,1669842410175,2430,,1911.2000000476837,HRV,HRV_0299,2022-11-30 21:11:07
45,"[{'imgObject': {}, 'id': 'corn cob', 'src': '/static/foodstim60/corn cob.jpg', 'key': 'u', 'origWidth': 411, 'origHeight': 411, 'width': 411, 'height': 411, 'widthPercent': 0.45, 'rescaleHeight': False, 'trialN': 45, 'loaded': True, 'loadedTime': 322016.5, 'positionName': 'LEFT', 'positionCoords': [408.36, 180], 'bid': 6.75}, {'imgObject': {}, 'id': 'pear', 'src': '/static/foodstim60/pear.jpg', 'key': 'i', 'origWidth': 411, 'origHeight': 410, 'width': 411, 'height': 410, 'widthPercent': 0.45, 'rescaleHeight': False, 'trialN': 45, 'loaded': True, 'loadedTime': 322039.90000009537, 'positionName': 'RIGHT', 'positionCoords': [887.64, 180.5], 'bid': 0.94}]",322004.2000000477,1669842410175,corn cob,pear,6.75,0.94,-5.8100000000000005,corn cob,u,1454.0999999046326,1456,True,323982.60000014305,1978.4000000953674,1669842412154,1979,,1455.9000000953674,HRV,HRV_0299,2022-11-30 21:11:07
46,"[{'imgObject': {}, 'id': 'turkeysandwich', 'src': '/static/foodstim60/turkeysandwich.jpg', 'key': 'u', 'origWidth': 409, 'origHeight': 409, 'width': 409, 'height': 409, 'widthPercent': 0.45, 'rescaleHeight': False, 'trialN': 46, 'loaded': True, 'loadedTime': 324005.10000014305, 'positionName': 'LEFT', 'positionCoords': [410.36, 181], 'bid': 7.54}, {'imgObject': {}, 'id': 'mac & cheese', 'src': '/static/foodstim60/mac & cheese.jpg', 'key': 'i', 'origWidth': 410, 'origHeight': 410, 'width': 410, 'height': 410, 'widthPercent': 0.45, 'rescaleHeight': False, 'trialN': 46, 'loaded': True, 'loadedTime': 324005.7000000477, 'positionName': 'RIGHT', 'positionCoords': [887.64, 180.5], 'bid': 7.84}]",323987.60000014305,1669842412159,turkeysandwich,mac & cheese,7.54,7.84,0.2999999999999998,turkeysandwich,u,1471,1475,True,325977.0,1989.3999998569489,1669842414148,1989,,1474.8999998569489,HRV,HRV_0299,2022-11-30 21:11:07
47,"[{'imgObject': {}, 'id': 'granola w milk', 'src': '/static/foodstim60/granola w milk.jpg', 'key': 'u', 'origWidth': 410, 'origHeight': 410, 'width': 410, 'height': 410, 'widthPercent': 0.45, 'rescaleHeight': False, 'trialN': 47, 'loaded': True, 'loadedTime': 325984.40000009537, 'positionName': 'LEFT', 'positionCoords': [409.36, 180.5], 'bid': 3.69}, {'imgObject': {}, 'id': 'Tribe humus pita', 'src': '/static/foodstim60/Tribe humus pita.jpg', 'key': 'i', 'origWidth': 411, 'origHeight': 411, 'width': 411, 'height': 411, 'widthPercent': 0.45, 'rescaleHeight': False, 'trialN': 47, 'loaded': True, 'loadedTime': 325987.5, 'positionName': 'RIGHT', 'positionCoords': [887.64, 180], 'bid': 3.75}]",325977.60000014305,1669842414149,granola w milk,Tribe humus pita,3.69,3.75,0.06000000000000005,granola w milk,u,1342.5,1343,True,327830.60000014305,1853.0,1669842416002,1853,,1343.1999998092651,HRV,HRV_0299,2022-11-30 21:11:07
48,"[{'imgObject': {}, 'id': 'hashbrowns', 'src': '/static/foodstim60/hashbrowns.jpg', 'key': 'u', 'origWidth': 411, 'origHeight': 410, 'width': 411, 'height': 410, 'widthPercent': 0.45, 'rescaleHeight': False, 'trialN': 48, 'loaded': True, 'loadedTime': 327837.7999999523, 'positionName': 'LEFT', 'positionCoords': [408.36, 180.5], 'bid': 1.05}, {'imgObject': {}, 'id': 'rigatoni', 'src': '/static/foodstim60/rigatoni.jpg', 'key': 'i', 'origWidth': 411, 'origHeight': 411, 'width': 411, 'height': 411, 'widthPercent': 0.45, 'rescaleHeight': False, 'trialN': 48, 'loaded': True, 'loadedTime': 327844.2000000477, 'positionName': 'RIGHT', 'positionCoords': [887.64, 180], 'bid': 6.91}]",327831.60000014305,1669842416003,hashbrowns,rigatoni,1.05,6.91,5.86,rigatoni,i,1141.5,1143,True,329478.60000014305,1647.0,1669842417650,1647,,1143.0999999046326,HRV,HRV_0299,2022-11-30 21:11:07
49,"[{'imgObject': {}, 'id': 'sushi w_condiments', 'src': '/static/foodstim60/sushi w_condiments.jpg', 'key': 'u', 'origWidth': 410, 'origHeight': 410, 'width': 410, 'height': 410, 'widthPercent': 0.45, 'rescaleHeight': False, 'trialN': 49, 'loaded': True, 'loadedTime': 329482.5, 'positionName': 'LEFT', 'positionCoords': [409.36, 180.5], 'bid': 0.15}, {'imgObject': {}, 'id': 'cheerios', 'src': '/static/foodstim60/cheerios.jpg', 'key': 'i', 'origWidth': 409, 'origHeight': 410, 'width': 409, 'height': 410, 'widthPercent': 0.45, 'rescaleHeight': False, 'trialN': 49, 'loaded': True, 'loadedTime': 329484.5, 'positionName': 'RIGHT', 'positionCoords': [887.64, 180.5], 'bid': 2.33}]",329479.40000009537,1669842417650,sushi w_condiments,cheerios,0.15,2.33,2.18,cheerios,i,1172.3999998569489,1173,True,331167.60000014305,1688.2000000476837,1669842419339,1689,,1173.0,HRV,HRV_0299,2022-11-30 21:11:07
50,"[{'imgObject': {}, 'id': 'sweetpotato', 'src': '/static/foodstim60/sweetpotato.jpg', 'key': 'u', 'origWidth': 410, 'origHeight': 410, 'width': 410, 'height': 410, 'widthPercent': 0.45, 'rescaleHeight': False, 'trialN': 50, 'loaded': True, 'loadedTime': 331175.60000014305, 'positionName': 'LEFT', 'positionCoords': [409.36, 180.5], 'bid': 7.3}, {'imgObject': {}, 'id': 'rigatoni', 'src': '/static/foodstim60/rigatoni.jpg', 'key': 'i', 'origWidth': 411, 'origHeight': 411, 'width': 411, 'height': 411, 'widthPercent': 0.45, 'rescaleHeight': False, 'trialN': 50, 'loaded': True, 'loadedTime': 331178.90000009537, 'positionName': 'RIGHT', 'positionCoords': [887.64, 180], 'bid': 6.91}]",331168.2000000477,1669842419339,sweetpotato,rigatoni,7.3,6.91,-0.3899999999999997,sweetpotato,u,1168.2999999523163,1169,True,332857.60000014305,1689.4000000953674,1669842421029,1690,,1168.9000000953674,HRV,HRV_0299,2022-11-30 21:11:07
51,"[{'imgObject': {}, 'id': 'cheerios', 'src': '/static/foodstim60/cheerios.jpg', 'key': 'u', 'origWidth': 409, 'origHeight': 410, 'width': 409, 'height': 410, 'widthPercent': 0.45, 'rescaleHeight': False, 'trialN': 51, 'loaded': True, 'loadedTime': 332860.2999999523, 'positionName': 'LEFT', 'positionCoords': [410.36, 180.5], 'bid': 2.33}, {'imgObject': {}, 'id': 'raisin bran w milk', 'src': '/static/foodstim60/raisin bran w milk.jpg', 'key': 'i', 'origWidth': 411, 'origHeight': 411, 'width': 411, 'height': 411, 'widthPercent': 0.45, 'rescaleHeight': False, 'trialN': 51, 'loaded': True, 'loadedTime': 332863.2999999523, 'positionName': 'RIGHT', 'positionCoords': [887.64, 180], 'bid': 4.1}]",332858.2999999523,1669842421029,cheerios,raisin bran w milk,2.33,4.1,1.7699999999999996,raisin bran w milk,i,1139.8000001907349,1141,True,334513.10000014305,1654.8000001907349,1669842422684,1655,,1141.0,HRV,HRV_0299,2022-11-30 21:11:07
52,"[{'imgObject': {}, 'id': 'apple slices', 'src': '/static/foodstim60/apple slices.jpg', 'key': 'u', 'origWidth': 409, 'origHeight': 410, 'width': 409, 'height': 410, 'widthPercent': 0.45, 'rescaleHeight': False, 'trialN': 52, 'loaded': True, 'loadedTime': 334529.7999999523, 'positionName': 'LEFT', 'positionCoords': [410.36, 180.5], 'bid': 1.35}, {'imgObject': {}, 'id': 'hashbrowns', 'src': '/static/foodstim60/hashbrowns.jpg', 'key': 'i', 'origWidth': 411, 'origHeight': 410, 'width': 411, 'height': 410, 'widthPercent': 0.45, 'rescaleHeight': False, 'trialN': 52, 'loaded': True, 'loadedTime': 334537, 'positionName': 'RIGHT', 'positionCoords': [887.64, 180.5], 'bid': 1.05}]",334514.60000014305,1669842422686,apple slices,hashbrowns,1.35,1.05,-0.30000000000000004,apple slices,u,1600.7999999523163,1602,True,336626.7999999523,2112.199999809265,1669842424798,2112,,1601.8999998569489,HRV,HRV_0299,2022-11-30 21:11:07
53,"[{'imgObject': {}, 'id': 'baked potato', 'src': '/static/foodstim60/baked potato.jpg', 'key': 'u', 'origWidth': 409, 'origHeight': 410, 'width': 409, 'height': 410, 'widthPercent': 0.45, 'rescaleHeight': False, 'trialN': 53, 'loaded': True, 'loadedTime': 336633.10000014305, 'positionName': 'LEFT', 'positionCoords': [410.36, 180.5], 'bid': 9.07}, {'imgObject': {}, 'id': 'cherries', 'src': '/static/foodstim60/cherries.jpg', 'key': 'i', 'origWidth': 410, 'origHeight': 411, 'width': 410, 'height': 411, 'widthPercent': 0.45, 'rescaleHeight': False, 'trialN': 53, 'loaded': True, 'loadedTime': 336643.7999999523, 'positionName': 'RIGHT', 'positionCoords': [887.64, 180], 'bid': 7.95}]",336628.40000009537,1669842424799,baked potato,cherries,9.07,7.95,-1.12,baked potato,u,1204.3999998569489,1216,True,338349.90000009537,1721.5,1669842426521,1722,,1216.0,HRV,HRV_0299,2022-11-30 21:11:07
54,"[{'imgObject': {}, 'id': 'fried eggs', 'src': '/static/foodstim60/fried eggs.jpg', 'key': 'u', 'origWidth': 410, 'origHeight': 410, 'width': 410, 'height': 410, 'widthPercent': 0.45, 'rescaleHeight': False, 'trialN': 54, 'loaded': True, 'loadedTime': 338359.60000014305, 'positionName': 'LEFT', 'positionCoords': [409.36, 180.5], 'bid': 5.87}, {'imgObject': {}, 'id': 'corn cob', 'src': '/static/foodstim60/corn cob.jpg', 'key': 'i', 'origWidth': 411, 'origHeight': 411, 'width': 411, 'height': 411, 'widthPercent': 0.45, 'rescaleHeight': False, 'trialN': 54, 'loaded': True, 'loadedTime': 338361.90000009537, 'positionName': 'RIGHT', 'positionCoords': [887.64, 180], 'bid': 6.75}]",338350.60000014305,1669842426522,fried eggs,corn cob,5.87,6.75,0.8799999999999999,fried eggs,u,1188.5,1191,True,340052.2000000477,1701.5999999046326,1669842428223,1701,,1190.8999998569489,HRV,HRV_0299,2022-11-30 21:11:07
55,"[{'imgObject': {}, 'id': 'raspberries', 'src': '/static/foodstim60/raspberries.jpg', 'key': 'u', 'origWidth': 411, 'origHeight': 411, 'width': 411, 'height': 411, 'widthPercent': 0.45, 'rescaleHeight': False, 'trialN': 55, 'loaded': True, 'loadedTime': 340061.7999999523, 'positionName': 'LEFT', 'positionCoords': [408.36, 180], 'bid': 8.55}, {'imgObject': {}, 'id': 'burger', 'src': '/static/foodstim60/burger.jpg', 'key': 'i', 'origWidth': 409, 'origHeight': 409, 'width': 409, 'height': 409, 'widthPercent': 0.45, 'rescaleHeight': False, 'trialN': 55, 'loaded': True, 'loadedTime': 340065.10000014305, 'positionName': 'RIGHT', 'positionCoords': [887.64, 181], 'bid': 9.46}]",340052.7000000477,1669842428224,raspberries,burger,8.55,9.46,0.9100000000000001,burger,i,1064.2000000476837,1066,True,341624.10000014305,1571.4000000953674,1669842429795,1571,,1066.2999999523163,HRV,HRV_0299,2022-11-30 21:11:07
56,"[{'imgObject': {}, 'id': 'froot loops w milk', 'src': '/static/foodstim60/froot loops w milk.jpg', 'key': 'u', 'origWidth': 410, 'origHeight': 410, 'width': 410, 'height': 410, 'widthPercent': 0.45, 'rescaleHeight': False, 'trialN': 56, 'loaded': True, 'loadedTime': 341629.40000009537, 'positionName': 'LEFT', 'positionCoords': [409.36, 180.5], 'bid': 1.06}, {'imgObject': {}, 'id': 'veggieswithdip', 'src': '/static/foodstim60/veggieswithdip.jpg', 'key': 'i', 'origWidth': 409, 'origHeight': 409, 'width': 409, 'height': 409, 'widthPercent': 0.45, 'rescaleHeight': False, 'trialN': 56, 'loaded': True, 'loadedTime': 341631.40000009537, 'positionName': 'RIGHT', 'positionCoords': [887.64, 181], 'bid': 5.54}]",341625.5,1669842429797,froot loops w milk,veggieswithdip,1.06,5.54,4.48,veggieswithdip,i,1233.5,1234,True,343379.40000009537,1753.9000000953674,1669842431550,1753,,1234.1000001430511,HRV,HRV_0299,2022-11-30 21:11:07
57,"[{'imgObject': {}, 'id': 'strawberries', 'src': '/static/foodstim60/strawberries.jpg', 'key': 'u', 'origWidth': 410, 'origHeight': 410, 'width': 410, 'height': 410, 'widthPercent': 0.45, 'rescaleHeight': False, 'trialN': 57, 'loaded': True, 'loadedTime': 343389.7000000477, 'positionName': 'LEFT', 'positionCoords': [409.36, 180.5], 'bid': 8.43}, {'imgObject': {}, 'id': 'roastedpotatoes', 'src': '/static/foodstim60/roastedpotatoes.jpg', 'key': 'i', 'origWidth': 409, 'origHeight': 410, 'width': 409, 'height': 410, 'widthPercent': 0.45, 'rescaleHeight': False, 'trialN': 57, 'loaded': True, 'loadedTime': 343393.40000009537, 'positionName': 'RIGHT', 'positionCoords': [887.64, 180.5], 'bid': 8.88}]",343380.0,1669842431551,strawberries,roastedpotatoes,8.43,8.88,0.45000000000000107,roastedpotatoes,i,1397.7999999523163,1400,True,345299.10000014305,1919.1000001430511,1669842433470,1919,,1399.5,HRV,HRV_0299,2022-11-30 21:11:07
58,"[{'imgObject': {}, 'id': 'banana', 'src': '/static/foodstim60/banana.jpg', 'key': 'u', 'origWidth': 410, 'origHeight': 410, 'width': 410, 'height': 410, 'widthPercent': 0.45, 'rescaleHeight': False, 'trialN': 58, 'loaded': True, 'loadedTime': 345312.10000014305, 'positionName': 'LEFT', 'positionCoords': [409.36, 180.5], 'bid': 6.5}, {'imgObject': {}, 'id': 'veggieswithdip', 'src': '/static/foodstim60/veggieswithdip.jpg', 'key': 'i', 'origWidth': 409, 'origHeight': 409, 'width': 409, 'height': 409, 'widthPercent': 0.45, 'rescaleHeight': False, 'trialN': 58, 'loaded': True, 'loadedTime': 345314.5, 'positionName': 'RIGHT', 'positionCoords': [887.64, 181], 'bid': 5.54}]",345299.7000000477,1669842433471,banana,veggieswithdip,6.5,5.54,-0.96,banana,u,1675.5,1677,True,347489.7000000477,2190.0,1669842435661,2190,,1676.9000000953674,HRV,HRV_0299,2022-11-30 21:11:07
59,"[{'imgObject': {}, 'id': 'rigatoni', 'src': '/static/foodstim60/rigatoni.jpg', 'key': 'u', 'origWidth': 411, 'origHeight': 411, 'width': 411, 'height': 411, 'widthPercent': 0.45, 'rescaleHeight': False, 'trialN': 59, 'loaded': True, 'loadedTime': 347497, 'positionName': 'LEFT', 'positionCoords': [408.36, 180], 'bid': 6.91}, {'imgObject': {}, 'id': 'burrito', 'src': '/static/foodstim60/burrito.jpg', 'key': 'i', 'origWidth': 410, 'origHeight': 410, 'width': 410, 'height': 410, 'widthPercent': 0.45, 'rescaleHeight': False, 'trialN': 59, 'loaded': True, 'loadedTime': 347501.2999999523, 'positionName': 'RIGHT', 'positionCoords': [887.64, 180.5], 'bid': 9}]",347491.0,1669842435662,rigatoni,burrito,6.91,9.0,2.09,burrito,i,1268,1269,True,349275.40000009537,1784.4000000953674,1669842437446,1784,,1269.4000000953674,HRV,HRV_0299,2022-11-30 21:11:07
60,"[{'imgObject': {}, 'id': 'burger', 'src': '/static/foodstim60/burger.jpg', 'key': 'u', 'origWidth': 409, 'origHeight': 409, 'width': 409, 'height': 409, 'widthPercent': 0.45, 'rescaleHeight': False, 'trialN': 60, 'loaded': True, 'loadedTime': 349283.2999999523, 'positionName': 'LEFT', 'positionCoords': [410.36, 181], 'bid': 9.46}, {'imgObject': {}, 'id': 'rigatoni and sauce', 'src': '/static/foodstim60/rigatoni and sauce.jpg', 'key': 'i', 'origWidth': 410, 'origHeight': 411, 'width': 410, 'height': 411, 'widthPercent': 0.45, 'rescaleHeight': False, 'trialN': 60, 'loaded': True, 'loadedTime': 349284.2000000477, 'positionName': 'RIGHT', 'positionCoords': [887.64, 180], 'bid': 8.18}]",349275.90000009537,1669842437447,burger,rigatoni and sauce,9.46,8.18,-1.2800000000000011,burger,u,1120.7000000476837,1122,True,350906.7999999523,1630.8999998569489,1669842439078,1631,,1121.7999999523163,HRV,HRV_0299,2022-11-30 21:11:07
61,"[{'imgObject': {}, 'id': 'eggs', 'src': '/static/foodstim60/eggs.jpg', 'key': 'u', 'origWidth': 409, 'origHeight': 409, 'width': 409, 'height': 409, 'widthPercent': 0.45, 'rescaleHeight': False, 'trialN': 61, 'loaded': True, 'loadedTime': 350916.90000009537, 'positionName': 'LEFT', 'positionCoords': [410.36, 181], 'bid': 1.5}, {'imgObject': {}, 'id': 'salmon', 'src': '/static/foodstim60/salmon.jpg', 'key': 'i', 'origWidth': 410, 'origHeight': 409, 'width': 410, 'height': 409, 'widthPercent': 0.45, 'rescaleHeight': False, 'trialN': 61, 'loaded': True, 'loadedTime': 350924.60000014305, 'positionName': 'RIGHT', 'positionCoords': [887.64, 181], 'bid': 0.27}]",350908.7000000477,1669842439080,eggs,salmon,1.5,0.27,-1.23,eggs,u,1213.0999999046326,1215,True,352636.7999999523,1728.0999999046326,1669842440808,1728,,1215.0,HRV,HRV_0299,2022-11-30 21:11:07
62,"[{'imgObject': {}, 'id': 'eggsalad', 'src': '/static/foodstim60/eggsalad.jpg', 'key': 'u', 'origWidth': 410, 'origHeight': 409, 'width': 410, 'height': 409, 'widthPercent': 0.45, 'rescaleHeight': False, 'trialN': 62, 'loaded': True, 'loadedTime': 352641, 'positionName': 'LEFT', 'positionCoords': [409.36, 181], 'bid': 1.87}, {'imgObject': {}, 'id': 'shreddedwheatwithmilk', 'src': '/static/foodstim60/shreddedwheatwithmilk.jpg', 'key': 'i', 'origWidth': 410, 'origHeight': 410, 'width': 410, 'height': 410, 'widthPercent': 0.45, 'rescaleHeight': False, 'trialN': 62, 'loaded': True, 'loadedTime': 352642.90000009537, 'positionName': 'RIGHT', 'positionCoords': [887.64, 180.5], 'bid': 3.22}]",352637.5,1669842440809,eggsalad,shreddedwheatwithmilk,1.87,3.22,1.35,eggsalad,u,1551.6000001430511,1553,True,354696.7000000477,2059.2000000476837,1669842442868,2059,,1553.1000001430511,HRV,HRV_0299,2022-11-30 21:11:07
63,"[{'imgObject': {}, 'id': 'banana', 'src': '/static/foodstim60/banana.jpg', 'key': 'u', 'origWidth': 410, 'origHeight': 410, 'width': 410, 'height': 410, 'widthPercent': 0.45, 'rescaleHeight': False, 'trialN': 63, 'loaded': True, 'loadedTime': 354709, 'positionName': 'LEFT', 'positionCoords': [409.36, 180.5], 'bid': 6.5}, {'imgObject': {}, 'id': 'sushi w_condiments', 'src': '/static/foodstim60/sushi w_condiments.jpg', 'key': 'i', 'origWidth': 410, 'origHeight': 410, 'width': 410, 'height': 410, 'widthPercent': 0.45, 'rescaleHeight': False, 'trialN': 63, 'loaded': True, 'loadedTime': 354725.2000000477, 'positionName': 'RIGHT', 'positionCoords': [887.64, 180.5], 'bid': 0.15}]",354697.5,1669842442868,banana,sushi w_condiments,6.5,0.15,-6.35,banana,u,1170.6000001430511,1178,True,356391.7999999523,1694.2999999523163,1669842444563,1695,,1177.4000000953674,HRV,HRV_0299,2022-11-30 21:11:07
64,"[{'imgObject': {}, 'id': 'salad w chicken', 'src': '/static/foodstim60/salad w chicken.jpg', 'key': 'u', 'origWidth': 411, 'origHeight': 411, 'width': 411, 'height': 411, 'widthPercent': 0.45, 'rescaleHeight': False, 'trialN': 64, 'loaded': True, 'loadedTime': 356398.7999999523, 'positionName': 'LEFT', 'positionCoords': [408.36, 180], 'bid': 7.5}, {'imgObject': {}, 'id': 'roastedpotatoes', 'src': '/static/foodstim60/roastedpotatoes.jpg', 'key': 'i', 'origWidth': 409, 'origHeight': 410, 'width': 409, 'height': 410, 'widthPercent': 0.45, 'rescaleHeight': False, 'trialN': 64, 'loaded': True, 'loadedTime': 356408.7000000477, 'positionName': 'RIGHT', 'positionCoords': [887.64, 180.5], 'bid': 8.88}]",356392.40000009537,1669842444563,salad w chicken,roastedpotatoes,7.5,8.88,1.3800000000000008,roastedpotatoes,i,1186.0999999046326,1187,True,358099.10000014305,1706.7000000476837,1669842446270,1707,,1186.7000000476837,HRV,HRV_0299,2022-11-30 21:11:07
65,"[{'imgObject': {}, 'id': 'mac & cheese', 'src': '/static/foodstim60/mac & cheese.jpg', 'key': 'u', 'origWidth': 410, 'origHeight': 410, 'width': 410, 'height': 410, 'widthPercent': 0.45, 'rescaleHeight': False, 'trialN': 65, 'loaded': True, 'loadedTime': 358109.2999999523, 'positionName': 'LEFT', 'positionCoords': [409.36, 180.5], 'bid': 7.84}, {'imgObject': {}, 'id': 'eggsalad', 'src': '/static/foodstim60/eggsalad.jpg', 'key': 'i', 'origWidth': 410, 'origHeight': 409, 'width': 410, 'height': 409, 'widthPercent': 0.45, 'rescaleHeight': False, 'trialN': 65, 'loaded': True, 'loadedTime': 358115.2000000477, 'positionName': 'RIGHT', 'positionCoords': [887.64, 181], 'bid': 1.87}]",358102.2000000477,1669842446273,mac & cheese,eggsalad,7.84,1.87,-5.97,mac & cheese,u,1308.4000000953674,1310,True,359924.5,1822.2999999523163,1669842448096,1823,,1309.5999999046326,HRV,HRV_0299,2022-11-30 21:11:07
66,"[{'imgObject': {}, 'id': 'sweetpotato', 'src': '/static/foodstim60/sweetpotato.jpg', 'key': 'u', 'origWidth': 410, 'origHeight': 410, 'width': 410, 'height': 410, 'widthPercent': 0.45, 'rescaleHeight': False, 'trialN': 66, 'loaded': True, 'loadedTime': 359928.40000009537, 'positionName': 'LEFT', 'positionCoords': [409.36, 180.5], 'bid': 7.3}, {'imgObject': {}, 'id': 'cocktailshrimp', 'src': '/static/foodstim60/cocktailshrimp.jpg', 'key': 'i', 'origWidth': 410, 'origHeight': 410, 'width': 410, 'height': 410, 'widthPercent': 0.45, 'rescaleHeight': False, 'trialN': 66, 'loaded': True, 'loadedTime': 359934.40000009537, 'positionName': 'RIGHT', 'positionCoords': [887.64, 180.5], 'bid': 8.14}]",359925.2999999523,1669842448096,sweetpotato,cocktailshrimp,7.3,8.14,0.8400000000000007,cocktailshrimp,i,1561.6000001430511,1563,True,362008.5,2083.2000000476837,1669842450179,2083,,1563.2000000476837,HRV,HRV_0299,2022-11-30 21:11:07
67,"[{'imgObject': {}, 'id': 'popsicles', 'src': '/static/foodstim60/popsicles.jpg', 'key': 'u', 'origWidth': 410, 'origHeight': 410, 'width': 410, 'height': 410, 'widthPercent': 0.45, 'rescaleHeight': False, 'trialN': 67, 'loaded': True, 'loadedTime': 362016.7000000477, 'positionName': 'LEFT', 'positionCoords': [409.36, 180.5], 'bid': 0.41}, {'imgObject': {}, 'id': 'kiwi', 'src': '/static/foodstim60/kiwi.jpg', 'key': 'i', 'origWidth': 410, 'origHeight': 410, 'width': 410, 'height': 410, 'widthPercent': 0.45, 'rescaleHeight': False, 'trialN': 67, 'loaded': True, 'loadedTime': 362018.5, 'positionName': 'RIGHT', 'positionCoords': [887.64, 180.5], 'bid': 3.47}]",362009.2000000477,1669842450180,popsicles,kiwi,0.41,3.47,3.06,kiwi,i,1358.9000000953674,1364,True,363885.90000009537,1876.7000000476837,1669842452057,1877,,1364.5,HRV,HRV_0299,2022-11-30 21:11:07
68,"[{'imgObject': {}, 'id': 'turkeysandwich', 'src': '/static/foodstim60/turkeysandwich.jpg', 'key': 'u', 'origWidth': 409, 'origHeight': 409, 'width': 409, 'height': 409, 'widthPercent': 0.45, 'rescaleHeight': False, 'trialN': 68, 'loaded': True, 'loadedTime': 363890.7999999523, 'positionName': 'LEFT', 'positionCoords': [410.36, 181], 'bid': 7.54}, {'imgObject': {}, 'id': 'yogurt no spoon', 'src': '/static/foodstim60/yogurt no spoon.jpg', 'key': 'i', 'origWidth': 411, 'origHeight': 410, 'width': 411, 'height': 410, 'widthPercent': 0.45, 'rescaleHeight': False, 'trialN': 68, 'loaded': True, 'loadedTime': 363893.5, 'positionName': 'RIGHT', 'positionCoords': [887.64, 180.5], 'bid': 1.63}]",363886.7000000477,1669842452057,turkeysandwich,yogurt no spoon,7.54,1.63,-5.91,turkeysandwich,u,1289.7999999523163,1291,True,365686.7000000477,1800.0,1669842453858,1801,,1290.2999999523163,HRV,HRV_0299,2022-11-30 21:11:07
69,"[{'imgObject': {}, 'id': 'turkeysandwich', 'src': '/static/foodstim60/turkeysandwich.jpg', 'key': 'u', 'origWidth': 409, 'origHeight': 409, 'width': 409, 'height': 409, 'widthPercent': 0.45, 'rescaleHeight': False, 'trialN': 69, 'loaded': True, 'loadedTime': 365692, 'positionName': 'LEFT', 'positionCoords': [410.36, 181], 'bid': 7.54}, {'imgObject': {}, 'id': 'tacos', 'src': '/static/foodstim60/tacos.jpg', 'key': 'i', 'origWidth': 411, 'origHeight': 411, 'width': 411, 'height': 411, 'widthPercent': 0.45, 'rescaleHeight': False, 'trialN': 69, 'loaded': True, 'loadedTime': 365704.5, 'positionName': 'RIGHT', 'positionCoords': [887.64, 180], 'bid': 9.56}]",365688.2000000477,1669842453859,turkeysandwich,tacos,7.54,9.56,2.0200000000000005,tacos,i,881.2999999523163,883,True,367089.2000000477,1401.0,1669842455260,1401,,883.0,HRV,HRV_0299,2022-11-30 21:11:07
70,"[{'imgObject': {}, 'id': 'eggsalad', 'src': '/static/foodstim60/eggsalad.jpg', 'key': 'u', 'origWidth': 410, 'origHeight': 409, 'width': 410, 'height': 409, 'widthPercent': 0.45, 'rescaleHeight': False, 'trialN': 70, 'loaded': True, 'loadedTime': 367093.10000014305, 'positionName': 'LEFT', 'positionCoords': [409.36, 181], 'bid': 1.87}, {'imgObject': {}, 'id': 'yogurt no spoon', 'src': '/static/foodstim60/yogurt no spoon.jpg', 'key': 'i', 'origWidth': 411, 'origHeight': 410, 'width': 411, 'height': 410, 'widthPercent': 0.45, 'rescaleHeight': False, 'trialN': 70, 'loaded': True, 'loadedTime': 367095.10000014305, 'positionName': 'RIGHT', 'positionCoords': [887.64, 180.5], 'bid': 1.63}]",367089.90000009537,1669842455261,eggsalad,yogurt no spoon,1.87,1.63,-0.2400000000000002,yogurt no spoon,i,1298.2000000476837,1299,True,368899.40000009537,1809.5,1669842457070,1809,,1299.5999999046326,HRV,HRV_0299,2022-11-30 21:11:07
71,"[{'imgObject': {}, 'id': 'granola w milk', 'src': '/static/foodstim60/granola w milk.jpg', 'key': 'u', 'origWidth': 410, 'origHeight': 410, 'width': 410, 'height': 410, 'widthPercent': 0.45, 'rescaleHeight': False, 'trialN': 71, 'loaded': True, 'loadedTime': 368905.60000014305, 'positionName': 'LEFT', 'positionCoords': [409.36, 180.5], 'bid': 3.69}, {'imgObject': {}, 'id': 'yogurt no spoon', 'src': '/static/foodstim60/yogurt no spoon.jpg', 'key': 'i', 'origWidth': 411, 'origHeight': 410, 'width': 411, 'height': 410, 'widthPercent': 0.45, 'rescaleHeight': False, 'trialN': 71, 'loaded': True, 'loadedTime': 368909.60000014305, 'positionName': 'RIGHT', 'positionCoords': [887.64, 180.5], 'bid': 1.63}]",368900.10000014305,1669842457071,granola w milk,yogurt no spoon,3.69,1.63,-2.06,granola w milk,u,1776.3999998569489,1777,True,371190.7999999523,2290.699999809265,1669842459362,2291,,1776.8999998569489,HRV,HRV_0299,2022-11-30 21:11:07
72,"[{'imgObject': {}, 'id': 'edamame', 'src': '/static/foodstim60/edamame.jpg', 'key': 'u', 'origWidth': 409, 'origHeight': 410, 'width': 409, 'height': 410, 'widthPercent': 0.45, 'rescaleHeight': False, 'trialN': 72, 'loaded': True, 'loadedTime': 371202, 'positionName': 'LEFT', 'positionCoords': [410.36, 180.5], 'bid': 6.2}, {'imgObject': {}, 'id': 'lox', 'src': '/static/foodstim60/lox.jpg', 'key': 'i', 'origWidth': 410, 'origHeight': 411, 'width': 410, 'height': 411, 'widthPercent': 0.45, 'rescaleHeight': False, 'trialN': 72, 'loaded': True, 'loadedTime': 371207.7000000477, 'positionName': 'RIGHT', 'positionCoords': [887.64, 180], 'bid': 0.09}]",371192.2999999523,1669842459363,edamame,lox,6.2,0.09,-6.11,edamame,u,1265.9000000953674,1275,True,372981.10000014305,1788.8000001907349,1669842461152,1789,,1274.5,HRV,HRV_0299,2022-11-30 21:11:07
73,"[{'imgObject': {}, 'id': 'tacos', 'src': '/static/foodstim60/tacos.jpg', 'key': 'u', 'origWidth': 411, 'origHeight': 411, 'width': 411, 'height': 411, 'widthPercent': 0.45, 'rescaleHeight': False, 'trialN': 73, 'loaded': True, 'loadedTime': 372984.2000000477, 'positionName': 'LEFT', 'positionCoords': [408.36, 180], 'bid': 9.56}, {'imgObject': {}, 'id': 'steak', 'src': '/static/foodstim60/steak.jpg', 'key': 'i', 'origWidth': 410, 'origHeight': 410, 'width': 410, 'height': 410, 'widthPercent': 0.45, 'rescaleHeight': False, 'trialN': 73, 'loaded': True, 'loadedTime': 372986.10000014305, 'positionName': 'RIGHT', 'positionCoords': [887.64, 180.5], 'bid': 10}]",372982.10000014305,1669842461153,tacos,steak,9.56,10.0,0.4399999999999995,steak,i,1233.0999999046326,1234,True,374728.0,1745.8999998569489,1669842462899,1746,,1233.8999998569489,HRV,HRV_0299,2022-11-30 21:11:07
74,"[{'imgObject': {}, 'id': 'eggsalad', 'src': '/static/foodstim60/eggsalad.jpg', 'key': 'u', 'origWidth': 410, 'origHeight': 409, 'width': 410, 'height': 409, 'widthPercent': 0.45, 'rescaleHeight': False, 'trialN': 74, 'loaded': True, 'loadedTime': 374743.7999999523, 'positionName': 'LEFT', 'positionCoords': [409.36, 181], 'bid': 1.87}, {'imgObject': {}, 'id': 'olives', 'src': '/static/foodstim60/olives.jpg', 'key': 'i', 'origWidth': 410, 'origHeight': 410, 'width': 410, 'height': 410, 'widthPercent': 0.45, 'rescaleHeight': False, 'trialN': 74, 'loaded': True, 'loadedTime': 374751.2999999523, 'positionName': 'RIGHT', 'positionCoords': [887.64, 180.5], 'bid': 0.1}]",374730.60000014305,1669842462901,eggsalad,olives,1.87,0.1,-1.77,eggsalad,u,879.3999998569489,890,True,376130.2999999523,1399.6999998092651,1669842464301,1400,,889.2999999523163,HRV,HRV_0299,2022-11-30 21:11:07
75,"[{'imgObject': {}, 'id': 'cheerios', 'src': '/static/foodstim60/cheerios.jpg', 'key': 'u', 'origWidth': 409, 'origHeight': 410, 'width': 409, 'height': 410, 'widthPercent': 0.45, 'rescaleHeight': False, 'trialN': 75, 'loaded': True, 'loadedTime': 376137.90000009537, 'positionName': 'LEFT', 'positionCoords': [410.36, 180.5], 'bid': 2.33}, {'imgObject': {}, 'id': 'yogurt no spoon', 'src': '/static/foodstim60/yogurt no spoon.jpg', 'key': 'i', 'origWidth': 411, 'origHeight': 410, 'width': 411, 'height': 410, 'widthPercent': 0.45, 'rescaleHeight': False, 'trialN': 75, 'loaded': True, 'loadedTime': 376141.5, 'positionName': 'RIGHT', 'positionCoords': [887.64, 180.5], 'bid': 1.63}]",376131.10000014305,1669842464302,cheerios,yogurt no spoon,2.33,1.63,-0.7000000000000002,cheerios,u,1516.1999998092651,1518,True,378168.2999999523,2037.1999998092651,1669842466339,2037,,1517.8999998569489,HRV,HRV_0299,2022-11-30 21:11:07
76,"[{'imgObject': {}, 'id': 'cherries', 'src': '/static/foodstim60/cherries.jpg', 'key': 'u', 'origWidth': 410, 'origHeight': 411, 'width': 410, 'height': 411, 'widthPercent': 0.45, 'rescaleHeight': False, 'trialN': 76, 'loaded': True, 'loadedTime': 378175.5, 'positionName': 'LEFT', 'positionCoords': [409.36, 180], 'bid': 7.95}, {'imgObject': {}, 'id': 'cheerios', 'src': '/static/foodstim60/cheerios.jpg', 'key': 'i', 'origWidth': 409, 'origHeight': 410, 'width': 409, 'height': 410, 'widthPercent': 0.45, 'rescaleHeight': False, 'trialN': 76, 'loaded': True, 'loadedTime': 378179.60000014305, 'positionName': 'RIGHT', 'positionCoords': [887.64, 180.5], 'bid': 2.33}]",378169.0,1669842466340,cherries,cheerios,7.95,2.33,-5.62,cherries,u,1279.1000001430511,1280,True,379958.7999999523,1789.7999999523163,1669842468130,1790,,1280.6000001430511,HRV,HRV_0299,2022-11-30 21:11:07
77,"[{'imgObject': {}, 'id': 'burrito', 'src': '/static/foodstim60/burrito.jpg', 'key': 'u', 'origWidth': 410, 'origHeight': 410, 'width': 410, 'height': 410, 'widthPercent': 0.45, 'rescaleHeight': False, 'trialN': 77, 'loaded': True, 'loadedTime': 379962.60000014305, 'positionName': 'LEFT', 'positionCoords': [409.36, 180.5], 'bid': 9}, {'imgObject': {}, 'id': 'mashed potato', 'src': '/static/foodstim60/mashed potato.jpg', 'key': 'i', 'origWidth': 409, 'origHeight': 409, 'width': 409, 'height': 409, 'widthPercent': 0.45, 'rescaleHeight': False, 'trialN': 77, 'loaded': True, 'loadedTime': 379964.2999999523, 'positionName': 'RIGHT', 'positionCoords': [887.64, 181], 'bid': 8.88}]",379959.5,1669842468130,burrito,mashed potato,9.0,8.88,-0.11999999999999922,burrito,u,1587.2000000476837,1589,True,382055.2999999523,2095.7999999523163,1669842470226,2096,,1588.5,HRV,HRV_0299,2022-11-30 21:11:07
78,"[{'imgObject': {}, 'id': 'cherry tomato', 'src': '/static/foodstim60/cherry tomato.jpg', 'key': 'u', 'origWidth': 410, 'origHeight': 410, 'width': 410, 'height': 410, 'widthPercent': 0.45, 'rescaleHeight': False, 'trialN': 78, 'loaded': True, 'loadedTime': 382059.2999999523, 'positionName': 'LEFT', 'positionCoords': [409.36, 180.5], 'bid': 4.37}, {'imgObject': {}, 'id': 'shreddedwheatwithmilk', 'src': '/static/foodstim60/shreddedwheatwithmilk.jpg', 'key': 'i', 'origWidth': 410, 'origHeight': 410, 'width': 410, 'height': 410, 'widthPercent': 0.45, 'rescaleHeight': False, 'trialN': 78, 'loaded': True, 'loadedTime': 382063.2999999523, 'positionName': 'RIGHT', 'positionCoords': [887.64, 180.5], 'bid': 3.22}]",382056.0,1669842470227,cherry tomato,shreddedwheatwithmilk,4.37,3.22,-1.15,shreddedwheatwithmilk,i,1371.2999999523163,1377,True,383948.7999999523,1892.7999999523163,1669842472120,1893,,1377.1000001430511,HRV,HRV_0299,2022-11-30 21:11:07
79,"[{'imgObject': {}, 'id': 'burrito', 'src': '/static/foodstim60/burrito.jpg', 'key': 'u', 'origWidth': 410, 'origHeight': 410, 'width': 410, 'height': 410, 'widthPercent': 0.45, 'rescaleHeight': False, 'trialN': 79, 'loaded': True, 'loadedTime': 383954, 'positionName': 'LEFT', 'positionCoords': [409.36, 180.5], 'bid': 9}, {'imgObject': {}, 'id': 'avocado', 'src': '/static/foodstim60/avocado.jpg', 'key': 'i', 'origWidth': 409, 'origHeight': 409, 'width': 409, 'height': 409, 'widthPercent': 0.45, 'rescaleHeight': False, 'trialN': 79, 'loaded': True, 'loadedTime': 383954.7000000477, 'positionName': 'RIGHT', 'positionCoords': [887.64, 181], 'bid': 4.6000000000000005}]",383949.7000000477,1669842472120,burrito,avocado,9.0,4.6000000000000005,-4.3999999999999995,burrito,u,1204.7000000476837,1206,True,385668.2000000477,1718.5,1669842473839,1719,,1205.7999999523163,HRV,HRV_0299,2022-11-30 21:11:07
80,"[{'imgObject': {}, 'id': 'avocado', 'src': '/static/foodstim60/avocado.jpg', 'key': 'u', 'origWidth': 409, 'origHeight': 409, 'width': 409, 'height': 409, 'widthPercent': 0.45, 'rescaleHeight': False, 'trialN': 80, 'loaded': True, 'loadedTime': 385683, 'positionName': 'LEFT', 'positionCoords': [410.36, 181], 'bid': 4.6000000000000005}, {'imgObject': {}, 'id': 'cherry tomato', 'src': '/static/foodstim60/cherry tomato.jpg', 'key': 'i', 'origWidth': 410, 'origHeight': 410, 'width': 410, 'height': 410, 'widthPercent': 0.45, 'rescaleHeight': False, 'trialN': 80, 'loaded': True, 'loadedTime': 385683.5, 'positionName': 'RIGHT', 'positionCoords': [887.64, 180.5], 'bid': 4.37}]",385668.7999999523,1669842473840,avocado,cherry tomato,4.6000000000000005,4.37,-0.23000000000000043,avocado,u,1432.9000000953674,1433,True,387619.2000000477,1950.4000000953674,1669842475790,1950,,1433.6000001430511,HRV,HRV_0299,2022-11-30 21:11:07
81,"[{'imgObject': {}, 'id': 'roastedpotatoes', 'src': '/static/foodstim60/roastedpotatoes.jpg', 'key': 'u', 'origWidth': 409, 'origHeight': 410, 'width': 409, 'height': 410, 'widthPercent': 0.45, 'rescaleHeight': False, 'trialN': 81, 'loaded': True, 'loadedTime': 387630.2999999523, 'positionName': 'LEFT', 'positionCoords': [410.36, 180.5], 'bid': 8.88}, {'imgObject': {}, 'id': 'blackbeanswithrice', 'src': '/static/foodstim60/blackbeanswithrice.jpg', 'key': 'i', 'origWidth': 410, 'origHeight': 410, 'width': 410, 'height': 410, 'widthPercent': 0.45, 'rescaleHeight': False, 'trialN': 81, 'loaded': True, 'loadedTime': 387633.7000000477, 'positionName': 'RIGHT', 'positionCoords': [887.64, 180.5], 'bid': 6.59}]",387619.90000009537,1669842475791,roastedpotatoes,blackbeanswithrice,8.88,6.59,-2.290000000000001,blackbeanswithrice,i,1462.5,1463,True,389590.10000014305,1970.2000000476837,1669842477761,1970,,1463.0,HRV,HRV_0299,2022-11-30 21:11:07
82,"[{'imgObject': {}, 'id': 'Grapes', 'src': '/static/foodstim60/Grapes.jpg', 'key': 'u', 'origWidth': 411, 'origHeight': 411, 'width': 411, 'height': 411, 'widthPercent': 0.45, 'rescaleHeight': False, 'trialN': 82, 'loaded': True, 'loadedTime': 389601.7999999523, 'positionName': 'LEFT', 'positionCoords': [408.36, 180], 'bid': 4.5}, {'imgObject': {}, 'id': 'pear', 'src': '/static/foodstim60/pear.jpg', 'key': 'i', 'origWidth': 411, 'origHeight': 410, 'width': 411, 'height': 410, 'widthPercent': 0.45, 'rescaleHeight': False, 'trialN': 82, 'loaded': True, 'loadedTime': 389606.5, 'positionName': 'RIGHT', 'positionCoords': [887.64, 180.5], 'bid': 0.94}]",389590.60000014305,1669842477761,Grapes,pear,4.5,0.94,-3.56,Grapes,u,1473,1474,True,391575.7000000477,1985.0999999046326,1669842479746,1985,,1473.5999999046326,HRV,HRV_0299,2022-11-30 21:11:07
83,"[{'imgObject': {}, 'id': 'rigatoni', 'src': '/static/foodstim60/rigatoni.jpg', 'key': 'u', 'origWidth': 411, 'origHeight': 411, 'width': 411, 'height': 411, 'widthPercent': 0.45, 'rescaleHeight': False, 'trialN': 83, 'loaded': True, 'loadedTime': 391578.60000014305, 'positionName': 'LEFT', 'positionCoords': [408.36, 180], 'bid': 6.91}, {'imgObject': {}, 'id': 'ice cream sundae 002', 'src': '/static/foodstim60/ice cream sundae 002.jpg', 'key': 'i', 'origWidth': 409, 'origHeight': 409, 'width': 409, 'height': 409, 'widthPercent': 0.45, 'rescaleHeight': False, 'trialN': 83, 'loaded': True, 'loadedTime': 391581.90000009537, 'positionName': 'RIGHT', 'positionCoords': [887.64, 181], 'bid': 5.89}]",391576.40000009537,1669842479747,rigatoni,ice cream sundae 002,6.91,5.89,-1.0200000000000005,rigatoni,u,1068.0999999046326,1070,True,393158.7999999523,1582.3999998569489,1669842481330,1583,,1069.7999999523163,HRV,HRV_0299,2022-11-30 21:11:07
84,"[{'imgObject': {}, 'id': 'salad w chicken', 'src': '/static/foodstim60/salad w chicken.jpg', 'key': 'u', 'origWidth': 411, 'origHeight': 411, 'width': 411, 'height': 411, 'widthPercent': 0.45, 'rescaleHeight': False, 'trialN': 84, 'loaded': True, 'loadedTime': 393162.10000014305, 'positionName': 'LEFT', 'positionCoords': [408.36, 180], 'bid': 7.5}, {'imgObject': {}, 'id': 'eggs', 'src': '/static/foodstim60/eggs.jpg', 'key': 'i', 'origWidth': 409, 'origHeight': 409, 'width': 409, 'height': 409, 'widthPercent': 0.45, 'rescaleHeight': False, 'trialN': 84, 'loaded': True, 'loadedTime': 393165.7999999523, 'positionName': 'RIGHT', 'positionCoords': [887.64, 181], 'bid': 1.5}]",393159.5,1669842481330,salad w chicken,eggs,7.5,1.5,-6.0,salad w chicken,u,1286.4000000953674,1287,True,394948.5,1789.0,1669842483119,1789,,1287.0,HRV,HRV_0299,2022-11-30 21:11:07
85,"[{'imgObject': {}, 'id': 'burger', 'src': '/static/foodstim60/burger.jpg', 'key': 'u', 'origWidth': 409, 'origHeight': 409, 'width': 409, 'height': 409, 'widthPercent': 0.45, 'rescaleHeight': False, 'trialN': 85, 'loaded': True, 'loadedTime': 394950.10000014305, 'positionName': 'LEFT', 'positionCoords': [410.36, 181], 'bid': 9.46}, {'imgObject': {}, 'id': 'salad w chicken', 'src': '/static/foodstim60/salad w chicken.jpg', 'key': 'i', 'origWidth': 411, 'origHeight': 411, 'width': 411, 'height': 411, 'widthPercent': 0.45, 'rescaleHeight': False, 'trialN': 85, 'loaded': True, 'loadedTime': 394952.40000009537, 'positionName': 'RIGHT', 'positionCoords': [887.64, 180], 'bid': 7.5}]",394949.10000014305,1669842483120,burger,salad w chicken,9.46,7.5,-1.9600000000000009,salad w chicken,i,1439,1440,True,396896.5,1947.3999998569489,1669842485067,1947,,1439.6999998092651,HRV,HRV_0299,2022-11-30 21:11:07
86,"[{'imgObject': {}, 'id': 'steak', 'src': '/static/foodstim60/steak.jpg', 'key': 'u', 'origWidth': 410, 'origHeight': 410, 'width': 410, 'height': 410, 'widthPercent': 0.45, 'rescaleHeight': False, 'trialN': 86, 'loaded': True, 'loadedTime': 396899.2000000477, 'positionName': 'LEFT', 'positionCoords': [409.36, 180.5], 'bid': 10}, {'imgObject': {}, 'id': 'cherries', 'src': '/static/foodstim60/cherries.jpg', 'key': 'i', 'origWidth': 410, 'origHeight': 411, 'width': 410, 'height': 411, 'widthPercent': 0.45, 'rescaleHeight': False, 'trialN': 86, 'loaded': True, 'loadedTime': 396901.40000009537, 'positionName': 'RIGHT', 'positionCoords': [887.64, 180], 'bid': 7.95}]",396897.10000014305,1669842485068,steak,cherries,10.0,7.95,-2.05,steak,u,817.3999998569489,819,True,398225.40000009537,1328.2999999523163,1669842486396,1328,,818.7999999523163,HRV,HRV_0299,2022-11-30 21:11:07
87,"[{'imgObject': {}, 'id': 'seaweed', 'src': '/static/foodstim60/seaweed.jpg', 'key': 'u', 'origWidth': 410, 'origHeight': 410, 'width': 410, 'height': 410, 'widthPercent': 0.45, 'rescaleHeight': False, 'trialN': 87, 'loaded': True, 'loadedTime': 398228.2999999523, 'positionName': 'LEFT', 'positionCoords': [409.36, 180.5], 'bid': 0}, {'imgObject': {}, 'id': 'popsicles', 'src': '/static/foodstim60/popsicles.jpg', 'key': 'i', 'origWidth': 410, 'origHeight': 410, 'width': 410, 'height': 410, 'widthPercent': 0.45, 'rescaleHeight': False, 'trialN': 87, 'loaded': True, 'loadedTime': 398230.7000000477, 'positionName': 'RIGHT', 'positionCoords': [887.64, 180.5], 'bid': 0.41}]",398226.40000009537,1669842486397,seaweed,popsicles,0.0,0.41,0.41,popsicles,i,821.0999999046326,822,True,399567.0,1340.5999999046326,1669842487738,1341,,821.8999998569489,HRV,HRV_0299,2022-11-30 21:11:07
88,"[{'imgObject': {}, 'id': 'cherries', 'src': '/static/foodstim60/cherries.jpg', 'key': 'u', 'origWidth': 410, 'origHeight': 411, 'width': 410, 'height': 411, 'widthPercent': 0.45, 'rescaleHeight': False, 'trialN': 88, 'loaded': True, 'loadedTime': 399568.7999999523, 'positionName': 'LEFT', 'positionCoords': [409.36, 180], 'bid': 7.95}, {'imgObject': {}, 'id': 'rigatoni', 'src': '/static/foodstim60/rigatoni.jpg', 'key': 'i', 'origWidth': 411, 'origHeight': 411, 'width': 411, 'height': 411, 'widthPercent': 0.45, 'rescaleHeight': False, 'trialN': 88, 'loaded': True, 'loadedTime': 399569.10000014305, 'positionName': 'RIGHT', 'positionCoords': [887.64, 180], 'bid': 6.91}]",399567.60000014305,1669842487738,cherries,rigatoni,7.95,6.91,-1.04,rigatoni,i,1253.3999998569489,1256,True,401335.2000000477,1767.5999999046326,1669842489506,1768,,1255.3999998569489,HRV,HRV_0299,2022-11-30 21:11:07
89,"[{'imgObject': {}, 'id': 'blackbeanswithrice', 'src': '/static/foodstim60/blackbeanswithrice.jpg', 'key': 'u', 'origWidth': 410, 'origHeight': 410, 'width': 410, 'height': 410, 'widthPercent': 0.45, 'rescaleHeight': False, 'trialN': 89, 'loaded': True, 'loadedTime': 401342.7999999523, 'positionName': 'LEFT', 'positionCoords': [409.36, 180.5], 'bid': 6.59}, {'imgObject': {}, 'id': 'corn cob', 'src': '/static/foodstim60/corn cob.jpg', 'key': 'i', 'origWidth': 411, 'origHeight': 411, 'width': 411, 'height': 411, 'widthPercent': 0.45, 'rescaleHeight': False, 'trialN': 89, 'loaded': True, 'loadedTime': 401343.40000009537, 'positionName': 'RIGHT', 'positionCoords': [887.64, 180], 'bid': 6.75}]",401335.90000009537,1669842489507,blackbeanswithrice,corn cob,6.59,6.75,0.16000000000000014,blackbeanswithrice,u,1042.8999998569489,1043,True,402894.2999999523,1558.3999998569489,1669842491065,1558,,1043.5999999046326,HRV,HRV_0299,2022-11-30 21:11:07
90,"[{'imgObject': {}, 'id': 'sushi w_condiments', 'src': '/static/foodstim60/sushi w_condiments.jpg', 'key': 'u', 'origWidth': 410, 'origHeight': 410, 'width': 410, 'height': 410, 'widthPercent': 0.45, 'rescaleHeight': False, 'trialN': 90, 'loaded': True, 'loadedTime': 133881.40000009537, 'positionName': 'LEFT', 'positionCoords': [409.36, 275], 'bid': 0.15}, {'imgObject': {}, 'id': 'Tribe humus pita', 'src': '/static/foodstim60/Tribe humus pita.jpg', 'key': 'i', 'origWidth': 411, 'origHeight': 411, 'width': 411, 'height': 411, 'widthPercent': 0.45, 'rescaleHeight': False, 'trialN': 90, 'loaded': True, 'loadedTime': 125663.10000014305, 'positionName': 'RIGHT', 'positionCoords': [887.64, 274.5], 'bid': 3.75}]",414867.60000014305,1669842503038,sushi w_condiments,Tribe humus pita,0.15,3.75,3.6,Tribe humus pita,i,2299.2999999523163,2301,True,417708.5,2840.899999856949,1669842505879,2841,"[{'event': 'fullscreenchange', 'details': 'fullscreenenter', 'performance time': 414890.2999999523, 'date time': 1669842503061}]",2301.0,HRV,HRV_0299,2022-11-30 21:11:07
91,"[{'imgObject': {}, 'id': 'Grapes', 'src': '/static/foodstim60/Grapes.jpg', 'key': 'u', 'origWidth': 411, 'origHeight': 411, 'width': 411, 'height': 411, 'widthPercent': 0.45, 'rescaleHeight': False, 'trialN': 91, 'loaded': True, 'loadedTime': 124790.20000004768, 'positionName': 'LEFT', 'positionCoords': [408.36, 274.5], 'bid': 4.5}, {'imgObject': {}, 'id': 'kiwi', 'src': '/static/foodstim60/kiwi.jpg', 'key': 'i', 'origWidth': 410, 'origHeight': 410, 'width': 410, 'height': 410, 'widthPercent': 0.45, 'rescaleHeight': False, 'trialN': 91, 'loaded': True, 'loadedTime': 135854.20000004768, 'positionName': 'RIGHT', 'positionCoords': [887.64, 275], 'bid': 3.47}]",417708.7999999523,1669842505880,Grapes,kiwi,4.5,3.47,-1.0299999999999998,kiwi,i,1268.9000000953674,1269,True,419486.0,1777.2000000476837,1669842507657,1777,,1269.6000001430511,HRV,HRV_0299,2022-11-30 21:11:07
92,"[{'imgObject': {}, 'id': 'cocktailshrimp', 'src': '/static/foodstim60/cocktailshrimp.jpg', 'key': 'u', 'origWidth': 410, 'origHeight': 410, 'width': 410, 'height': 410, 'widthPercent': 0.45, 'rescaleHeight': False, 'trialN': 92, 'loaded': True, 'loadedTime': 124074.79999995232, 'positionName': 'LEFT', 'positionCoords': [409.36, 275], 'bid': 8.14}, {'imgObject': {}, 'id': 'orange slices', 'src': '/static/foodstim60/orange slices.jpg', 'key': 'i', 'origWidth': 409, 'origHeight': 410, 'width': 409, 'height': 410, 'widthPercent': 0.45, 'rescaleHeight': False, 'trialN': 92, 'loaded': True, 'loadedTime': 129017.90000009537, 'positionName': 'RIGHT', 'positionCoords': [887.64, 275], 'bid': 6.2}]",419486.2000000477,1669842507657,cocktailshrimp,orange slices,8.14,6.2,-1.9400000000000004,cocktailshrimp,u,1493.0999999046326,1494,True,421485.60000014305,1999.4000000953674,1669842509656,1999,,1493.7999999523163,HRV,HRV_0299,2022-11-30 21:11:07
93,"[{'imgObject': {}, 'id': 'mango', 'src': '/static/foodstim60/mango.jpg', 'key': 'u', 'origWidth': 411, 'origHeight': 411, 'width': 411, 'height': 411, 'widthPercent': 0.45, 'rescaleHeight': False, 'trialN': 93, 'loaded': True, 'loadedTime': 130837.60000014305, 'positionName': 'LEFT', 'positionCoords': [408.36, 274.5], 'bid': 3.64}, {'imgObject': {}, 'id': 'Tribe humus pita', 'src': '/static/foodstim60/Tribe humus pita.jpg', 'key': 'i', 'origWidth': 411, 'origHeight': 411, 'width': 411, 'height': 411, 'widthPercent': 0.45, 'rescaleHeight': False, 'trialN': 93, 'loaded': True, 'loadedTime': 125666.5, 'positionName': 'RIGHT', 'positionCoords': [887.64, 274.5], 'bid': 3.75}]",421486.10000014305,1669842509657,mango,Tribe humus pita,3.64,3.75,0.10999999999999988,mango,u,1650,1651,True,423713.5,2227.399999856949,1669842511885,2228,,1650.6999998092651,HRV,HRV_0299,2022-11-30 21:11:07
94,"[{'imgObject': {}, 'id': 'burger', 'src': '/static/foodstim60/burger.jpg', 'key': 'u', 'origWidth': 409, 'origHeight': 409, 'width': 409, 'height': 409, 'widthPercent': 0.45, 'rescaleHeight': False, 'trialN': 94, 'loaded': True, 'loadedTime': 129818.90000009537, 'positionName': 'LEFT', 'positionCoords': [410.36, 275.5], 'bid': 9.46}, {'imgObject': {}, 'id': 'tacos', 'src': '/static/foodstim60/tacos.jpg', 'key': 'i', 'origWidth': 411, 'origHeight': 411, 'width': 411, 'height': 411, 'widthPercent': 0.45, 'rescaleHeight': False, 'trialN': 94, 'loaded': True, 'loadedTime': 135890.29999995232, 'positionName': 'RIGHT', 'positionCoords': [887.64, 274.5], 'bid': 9.56}]",423714.2000000477,1669842511886,burger,tacos,9.46,9.56,0.09999999999999964,tacos,i,1165.7000000476837,1166,True,425395.90000009537,1681.7000000476837,1669842513567,1681,,1166.7000000476837,HRV,HRV_0299,2022-11-30 21:11:07
95,"[{'imgObject': {}, 'id': 'hotdog w must', 'src': '/static/foodstim60/hotdog w must.jpg', 'key': 'u', 'origWidth': 409, 'origHeight': 409, 'width': 409, 'height': 409, 'widthPercent': 0.45, 'rescaleHeight': False, 'trialN': 95, 'loaded': True, 'loadedTime': 125068.5, 'positionName': 'LEFT', 'positionCoords': [410.36, 275.5], 'bid': 9.13}, {'imgObject': {}, 'id': 'chicken nuggets2', 'src': '/static/foodstim60/chicken nuggets2.jpg', 'key': 'i', 'origWidth': 410, 'origHeight': 409, 'width': 410, 'height': 409, 'widthPercent': 0.45, 'rescaleHeight': False, 'trialN': 95, 'loaded': True, 'loadedTime': 136622.40000009537, 'positionName': 'RIGHT', 'positionCoords': [887.64, 275.5], 'bid': 5.79}]",425396.2999999523,1669842513568,hotdog w must,chicken nuggets2,9.13,5.79,-3.3400000000000007,chicken nuggets2,i,1086,1087,True,427002.2000000477,1605.9000000953674,1669842515174,1606,,1087.1000001430511,HRV,HRV_0299,2022-11-30 21:11:07
96,"[{'imgObject': {}, 'id': 'salad w chicken', 'src': '/static/foodstim60/salad w chicken.jpg', 'key': 'u', 'origWidth': 411, 'origHeight': 411, 'width': 411, 'height': 411, 'widthPercent': 0.45, 'rescaleHeight': False, 'trialN': 96, 'loaded': True, 'loadedTime': 135044.79999995232, 'positionName': 'LEFT', 'positionCoords': [408.36, 274.5], 'bid': 7.5}, {'imgObject': {}, 'id': 'turkey sandwich', 'src': '/static/foodstim60/turkey sandwich.jpg', 'key': 'i', 'origWidth': 409, 'origHeight': 409, 'width': 409, 'height': 409, 'widthPercent': 0.45, 'rescaleHeight': False, 'trialN': 96, 'loaded': True, 'loadedTime': 125709.40000009537, 'positionName': 'RIGHT', 'positionCoords': [887.64, 275.5], 'bid': 7.48}]",427002.40000009537,1669842515174,salad w chicken,turkey sandwich,7.5,7.48,-0.019999999999999574,salad w chicken,u,1277.8999998569489,1279,True,428825.60000014305,1823.2000000476837,1669842516997,1823,,1279.2000000476837,HRV,HRV_0299,2022-11-30 21:11:07
97,"[{'imgObject': {}, 'id': 'rigatoni and sauce', 'src': '/static/foodstim60/rigatoni and sauce.jpg', 'key': 'u', 'origWidth': 410, 'origHeight': 411, 'width': 410, 'height': 411, 'widthPercent': 0.45, 'rescaleHeight': False, 'trialN': 97, 'loaded': True, 'loadedTime': 132153.10000014305, 'positionName': 'LEFT', 'positionCoords': [409.36, 274.5], 'bid': 8.18}, {'imgObject': {}, 'id': 'cherries', 'src': '/static/foodstim60/cherries.jpg', 'key': 'i', 'origWidth': 410, 'origHeight': 411, 'width': 410, 'height': 411, 'widthPercent': 0.45, 'rescaleHeight': False, 'trialN': 97, 'loaded': True, 'loadedTime': 134743.79999995232, 'positionName': 'RIGHT', 'positionCoords': [887.64, 274.5], 'bid': 7.95}]",428825.90000009537,1669842516997,rigatoni and sauce,cherries,8.18,7.95,-0.22999999999999954,rigatoni and sauce,u,1406.3999998569489,1407,True,430770.2999999523,1944.3999998569489,1669842518942,1945,,1406.8999998569489,HRV,HRV_0299,2022-11-30 21:11:07
98,"[{'imgObject': {}, 'id': 'sushi w_condiments', 'src': '/static/foodstim60/sushi w_condiments.jpg', 'key': 'u', 'origWidth': 410, 'origHeight': 410, 'width': 410, 'height': 410, 'widthPercent': 0.45, 'rescaleHeight': False, 'trialN': 98, 'loaded': True, 'loadedTime': 133885.10000014305, 'positionName': 'LEFT', 'positionCoords': [409.36, 275], 'bid': 0.15}, {'imgObject': {}, 'id': 'popsicles', 'src': '/static/foodstim60/popsicles.jpg', 'key': 'i', 'origWidth': 410, 'origHeight': 410, 'width': 410, 'height': 410, 'widthPercent': 0.45, 'rescaleHeight': False, 'trialN': 98, 'loaded': True, 'loadedTime': 135735, 'positionName': 'RIGHT', 'positionCoords': [887.64, 275], 'bid': 0.41}]",430770.60000014305,1669842518942,sushi w_condiments,popsicles,0.15,0.41,0.26,popsicles,i,788.2999999523163,789,True,432067.7999999523,1297.1999998092651,1669842520239,1297,,788.8999998569489,HRV,HRV_0299,2022-11-30 21:11:07
99,"[{'imgObject': {}, 'id': 'granola w milk', 'src': '/static/foodstim60/granola w milk.jpg', 'key': 'u', 'origWidth': 410, 'origHeight': 410, 'width': 410, 'height': 410, 'widthPercent': 0.45, 'rescaleHeight': False, 'trialN': 99, 'loaded': True, 'loadedTime': 133306.5, 'positionName': 'LEFT', 'positionCoords': [409.36, 275], 'bid': 3.69}, {'imgObject': {}, 'id': 'olives', 'src': '/static/foodstim60/olives.jpg', 'key': 'i', 'origWidth': 410, 'origHeight': 410, 'width': 410, 'height': 410, 'widthPercent': 0.45, 'rescaleHeight': False, 'trialN': 99, 'loaded': True, 'loadedTime': 123898.90000009537, 'positionName': 'RIGHT', 'positionCoords': [887.64, 275], 'bid': 0.1}]",432068.2000000477,1669842520239,granola w milk,olives,3.69,0.1,-3.59,granola w milk,u,1148.4000000953674,1152,True,433736.0,1667.7999999523163,1669842521907,1668,,1151.5999999046326,HRV,HRV_0299,2022-11-30 21:11:07
100,"[{'imgObject': {}, 'id': 'chicken nuggets2', 'src': '/static/foodstim60/chicken nuggets2.jpg', 'key': 'u', 'origWidth': 410, 'origHeight': 409, 'width': 410, 'height': 409, 'widthPercent': 0.45, 'rescaleHeight': False, 'trialN': 100, 'loaded': True, 'loadedTime': 136511.40000009537, 'positionName': 'LEFT', 'positionCoords': [409.36, 275.5], 'bid': 5.79}, {'imgObject': {}, 'id': 'omelette', 'src': '/static/foodstim60/omelette.jpg', 'key': 'i', 'origWidth': 410, 'origHeight': 409, 'width': 410, 'height': 409, 'widthPercent': 0.45, 'rescaleHeight': False, 'trialN': 100, 'loaded': True, 'loadedTime': 124791.20000004768, 'positionName': 'RIGHT', 'positionCoords': [887.64, 275.5], 'bid': 6.51}]",433736.2999999523,1669842521908,chicken nuggets2,omelette,5.79,6.51,0.7199999999999998,chicken nuggets2,u,1498.5,1499,True,435745.10000014305,2008.8000001907349,1669842523916,2008,,1499.0,HRV,HRV_0299,2022-11-30 21:11:07
101,"[{'imgObject': {}, 'id': 'chickenfingers', 'src': '/static/foodstim60/chickenfingers.jpg', 'key': 'u', 'origWidth': 410, 'origHeight': 410, 'width': 410, 'height': 410, 'widthPercent': 0.45, 'rescaleHeight': False, 'trialN': 101, 'loaded': True, 'loadedTime': 129219.10000014305, 'positionName': 'LEFT', 'positionCoords': [409.36, 275], 'bid': 8.18}, {'imgObject': {}, 'id': 'bagel and cc', 'src': '/static/foodstim60/bagel and cc.jpg', 'key': 'i', 'origWidth': 410, 'origHeight': 410, 'width': 410, 'height': 410, 'widthPercent': 0.45, 'rescaleHeight': False, 'trialN': 101, 'loaded': True, 'loadedTime': 127345.79999995232, 'positionName': 'RIGHT', 'positionCoords': [887.64, 275], 'bid': 6.22}]",435745.2999999523,1669842523917,chickenfingers,bagel and cc,8.18,6.22,-1.96,chickenfingers,u,1197.4000000953674,1206,True,437462.60000014305,1717.3000001907349,1669842525634,1717,,1206.0,HRV,HRV_0299,2022-11-30 21:11:07
102,"[{'imgObject': {}, 'id': 'sushi w_condiments', 'src': '/static/foodstim60/sushi w_condiments.jpg', 'key': 'u', 'origWidth': 410, 'origHeight': 410, 'width': 410, 'height': 410, 'widthPercent': 0.45, 'rescaleHeight': False, 'trialN': 102, 'loaded': True, 'loadedTime': 133880.10000014305, 'positionName': 'LEFT', 'positionCoords': [409.36, 275], 'bid': 0.15}, {'imgObject': {}, 'id': 'salmon', 'src': '/static/foodstim60/salmon.jpg', 'key': 'i', 'origWidth': 410, 'origHeight': 409, 'width': 410, 'height': 409, 'widthPercent': 0.45, 'rescaleHeight': False, 'trialN': 102, 'loaded': True, 'loadedTime': 123775, 'positionName': 'RIGHT', 'positionCoords': [887.64, 275.5], 'bid': 0.27}]",437463.0,1669842525634,sushi w_condiments,salmon,0.15,0.27,0.12000000000000002,salmon,i,1073.5,1074,True,439055.5,1592.5,1669842527227,1593,,1074.0,HRV,HRV_0299,2022-11-30 21:11:07
103,"[{'imgObject': {}, 'id': 'roastedpotatoes', 'src': '/static/foodstim60/roastedpotatoes.jpg', 'key': 'u', 'origWidth': 409, 'origHeight': 410, 'width': 409, 'height': 410, 'widthPercent': 0.45, 'rescaleHeight': False, 'trialN': 103, 'loaded': True, 'loadedTime': 135031.10000014305, 'positionName': 'LEFT', 'positionCoords': [410.36, 275], 'bid': 8.88}, {'imgObject': {}, 'id': 'cherry tomato', 'src': '/static/foodstim60/cherry tomato.jpg', 'key': 'i', 'origWidth': 410, 'origHeight': 410, 'width': 410, 'height': 410, 'widthPercent': 0.45, 'rescaleHeight': False, 'trialN': 103, 'loaded': True, 'loadedTime': 127347.60000014305, 'positionName': 'RIGHT', 'positionCoords': [887.64, 275], 'bid': 4.37}]",439055.90000009537,1669842527227,roastedpotatoes,cherry tomato,8.88,4.37,-4.510000000000001,roastedpotatoes,u,1148.7000000476837,1150,True,440709.7999999523,1653.8999998569489,1669842528881,1654,,1149.5999999046326,HRV,HRV_0299,2022-11-30 21:11:07
104,"[{'imgObject': {}, 'id': 'seaweed', 'src': '/static/foodstim60/seaweed.jpg', 'key': 'u', 'origWidth': 410, 'origHeight': 410, 'width': 410, 'height': 410, 'widthPercent': 0.45, 'rescaleHeight': False, 'trialN': 104, 'loaded': True, 'loadedTime': 136251.5, 'positionName': 'LEFT', 'positionCoords': [409.36, 275], 'bid': 0}, {'imgObject': {}, 'id': 'orange slices', 'src': '/static/foodstim60/orange slices.jpg', 'key': 'i', 'origWidth': 409, 'origHeight': 410, 'width': 409, 'height': 410, 'widthPercent': 0.45, 'rescaleHeight': False, 'trialN': 104, 'loaded': True, 'loadedTime': 129020.79999995232, 'positionName': 'RIGHT', 'positionCoords': [887.64, 275], 'bid': 6.2}]",440710.10000014305,1669842528881,seaweed,orange slices,0.0,6.2,6.2,orange slices,i,876.5,877,True,442098.60000014305,1388.5,1669842530270,1389,,877.0999999046326,HRV,HRV_0299,2022-11-30 21:11:07
105,"[{'imgObject': {}, 'id': 'Grapes', 'src': '/static/foodstim60/Grapes.jpg', 'key': 'u', 'origWidth': 411, 'origHeight': 411, 'width': 411, 'height': 411, 'widthPercent': 0.45, 'rescaleHeight': False, 'trialN': 105, 'loaded': True, 'loadedTime': 124750.70000004768, 'positionName': 'LEFT', 'positionCoords': [408.36, 274.5], 'bid': 4.5}, {'imgObject': {}, 'id': 'raisin bran w milk', 'src': '/static/foodstim60/raisin bran w milk.jpg', 'key': 'i', 'origWidth': 411, 'origHeight': 411, 'width': 411, 'height': 411, 'widthPercent': 0.45, 'rescaleHeight': False, 'trialN': 105, 'loaded': True, 'loadedTime': 123421.5, 'positionName': 'RIGHT', 'positionCoords': [887.64, 274.5], 'bid': 4.1}]",442098.7999999523,1669842530270,Grapes,raisin bran w milk,4.5,4.1,-0.40000000000000036,raisin bran w milk,i,1705.1000001430511,1720,True,444334.90000009537,2236.100000143051,1669842532506,2236,,1720.2000000476837,HRV,HRV_0299,2022-11-30 21:11:07
106,"[{'imgObject': {}, 'id': 'seaweed', 'src': '/static/foodstim60/seaweed.jpg', 'key': 'u', 'origWidth': 410, 'origHeight': 410, 'width': 410, 'height': 410, 'widthPercent': 0.45, 'rescaleHeight': False, 'trialN': 106, 'loaded': True, 'loadedTime': 136239.90000009537, 'positionName': 'LEFT', 'positionCoords': [409.36, 275], 'bid': 0}, {'imgObject': {}, 'id': 'lox', 'src': '/static/foodstim60/lox.jpg', 'key': 'i', 'origWidth': 410, 'origHeight': 411, 'width': 410, 'height': 411, 'widthPercent': 0.45, 'rescaleHeight': False, 'trialN': 106, 'loaded': True, 'loadedTime': 135807.40000009537, 'positionName': 'RIGHT', 'positionCoords': [887.64, 274.5], 'bid': 0.09}]",444335.10000014305,1669842532506,seaweed,lox,0.0,0.09,0.09,lox,i,1914.8999998569489,1916,True,446759.10000014305,2424.0,1669842534930,2424,,1915.5,HRV,HRV_0299,2022-11-30 21:11:07
107,"[{'imgObject': {}, 'id': 'Tribe humus pita', 'src': '/static/foodstim60/Tribe humus pita.jpg', 'key': 'u', 'origWidth': 411, 'origHeight': 411, 'width': 411, 'height': 411, 'widthPercent': 0.45, 'rescaleHeight': False, 'trialN': 107, 'loaded': True, 'loadedTime': 125665.70000004768, 'positionName': 'LEFT', 'positionCoords': [408.36, 274.5], 'bid': 3.75}, {'imgObject': {}, 'id': 'eggsalad', 'src': '/static/foodstim60/eggsalad.jpg', 'key': 'i', 'origWidth': 410, 'origHeight': 409, 'width': 410, 'height': 409, 'widthPercent': 0.45, 'rescaleHeight': False, 'trialN': 107, 'loaded': True, 'loadedTime': 135040.79999995232, 'positionName': 'RIGHT', 'positionCoords': [887.64, 275.5], 'bid': 1.87}]",446759.2999999523,1669842534931,Tribe humus pita,eggsalad,3.75,1.87,-1.88,Tribe humus pita,u,1957,1957,True,449223.7999999523,2464.5,1669842537395,2464,,1957.7000000476837,HRV,HRV_0299,2022-11-30 21:11:07
