trialN,stimuli,question,trialStartTime,trialStartTime_UNIX,stimulus1,rt,receivedResponse,rating,trialEndTime,trialDuration,stimulus1Loaded,exp,subjectId,date
0,"[{'imgObject': {}, 'id': 'bagel plain', 'src': '/static/foodstim60/bagel plain.jpg', 'key': 'NaN', 'origWidth': 410, 'origHeight': 410, 'width': 410, 'height': 410, 'widthPercent': 0.8, 'rescaleHeight': True, 'trialN': 0, 'loaded': True, 'loadedTime': 4686.299999952316, 'positionName': 'CENTER', 'positionCoords': [648.5, 275]}]",Rate how much you want to eat this food from 0 (least) to 10 (most).,7378.299999952316,1669841446996,bagel plain,2232.2000000476837,True,6.3100000000000005,9610.5,2232.2000000476837,True,HRV,HRV_0299,2022-11-30 20:53:28
1,"[{'imgObject': {}, 'id': 'fried eggs', 'src': '/static/foodstim60/fried eggs.jpg', 'key': 'NaN', 'origWidth': 410, 'origHeight': 410, 'width': 410, 'height': 410, 'widthPercent': 0.8, 'rescaleHeight': True, 'trialN': 1, 'loaded': True, 'loadedTime': 4711.900000095367, 'positionName': 'CENTER', 'positionCoords': [648.5, 275]}]",Rate how much you want to eat this food from 0 (least) to 10 (most).,9616.400000095367,1669841449234,fried eggs,1883.0,True,5.87,11499.400000095367,1883.0,True,HRV,HRV_0299,2022-11-30 20:53:28
2,"[{'imgObject': {}, 'id': 'pear', 'src': '/static/foodstim60/pear.jpg', 'key': 'NaN', 'origWidth': 411, 'origHeight': 410, 'width': 411, 'height': 410, 'widthPercent': 0.8, 'rescaleHeight': True, 'trialN': 2, 'loaded': True, 'loadedTime': 4774.599999904633, 'positionName': 'CENTER', 'positionCoords': [648, 275]}]",Rate how much you want to eat this food from 0 (least) to 10 (most).,11502.700000047684,1669841451120,pear,4578.399999856949,True,0.9400000000000001,16081.099999904633,4578.399999856949,True,HRV,HRV_0299,2022-11-30 20:53:28
3,"[{'imgObject': {}, 'id': 'popsicles', 'src': '/static/foodstim60/popsicles.jpg', 'key': 'NaN', 'origWidth': 410, 'origHeight': 410, 'width': 410, 'height': 410, 'widthPercent': 0.8, 'rescaleHeight': True, 'trialN': 3, 'loaded': True, 'loadedTime': 4869.400000095367, 'positionName': 'CENTER', 'positionCoords': [648.5, 275]}]",Rate how much you want to eat this food from 0 (least) to 10 (most).,16084.099999904633,1669841455701,popsicles,2781.5,True,0.41000000000000003,18865.599999904633,2781.5,True,HRV,HRV_0299,2022-11-30 20:53:28
4,"[{'imgObject': {}, 'id': 'banana', 'src': '/static/foodstim60/banana.jpg', 'key': 'NaN', 'origWidth': 410, 'origHeight': 410, 'width': 410, 'height': 410, 'widthPercent': 0.8, 'rescaleHeight': True, 'trialN': 4, 'loaded': True, 'loadedTime': 4871.099999904633, 'positionName': 'CENTER', 'positionCoords': [648.5, 275]}]",Rate how much you want to eat this food from 0 (least) to 10 (most).,18869.200000047684,1669841458487,banana,2333.0999999046326,True,6.5,21202.299999952316,2333.0999999046326,True,HRV,HRV_0299,2022-11-30 20:53:28
5,"[{'imgObject': {}, 'id': 'salad w chicken', 'src': '/static/foodstim60/salad w chicken.jpg', 'key': 'NaN', 'origWidth': 411, 'origHeight': 411, 'width': 411, 'height': 411, 'widthPercent': 0.8, 'rescaleHeight': True, 'trialN': 5, 'loaded': True, 'loadedTime': 4875.400000095367, 'positionName': 'CENTER', 'positionCoords': [648, 274.5]}]",Rate how much you want to eat this food from 0 (least) to 10 (most).,21205.599999904633,1669841460822,salad w chicken,2463.800000190735,True,7.5,23669.400000095367,2463.800000190735,True,HRV,HRV_0299,2022-11-30 20:53:28
6,"[{'imgObject': {}, 'id': 'kiwi', 'src': '/static/foodstim60/kiwi.jpg', 'key': 'NaN', 'origWidth': 410, 'origHeight': 410, 'width': 410, 'height': 410, 'widthPercent': 0.8, 'rescaleHeight': True, 'trialN': 6, 'loaded': True, 'loadedTime': 5051.400000095367, 'positionName': 'CENTER', 'positionCoords': [648.5, 275]}]",Rate how much you want to eat this food from 0 (least) to 10 (most).,23672.799999952316,1669841463290,kiwi,3272.600000143051,True,3.47,26945.400000095367,3272.600000143051,True,HRV,HRV_0299,2022-11-30 20:53:28
7,"[{'imgObject': {}, 'id': 'cheerios', 'src': '/static/foodstim60/cheerios.jpg', 'key': 'NaN', 'origWidth': 409, 'origHeight': 410, 'width': 409, 'height': 410, 'widthPercent': 0.8, 'rescaleHeight': True, 'trialN': 7, 'loaded': True, 'loadedTime': 5053.200000047684, 'positionName': 'CENTER', 'positionCoords': [649, 275]}]",Rate how much you want to eat this food from 0 (least) to 10 (most).,26947.599999904633,1669841466565,cheerios,2712.9000000953674,True,2.33,29660.5,2712.9000000953674,True,HRV,HRV_0299,2022-11-30 20:53:28
8,"[{'imgObject': {}, 'id': 'bagel and cc', 'src': '/static/foodstim60/bagel and cc.jpg', 'key': 'NaN', 'origWidth': 410, 'origHeight': 410, 'width': 410, 'height': 410, 'widthPercent': 0.8, 'rescaleHeight': True, 'trialN': 8, 'loaded': True, 'loadedTime': 5176.099999904633, 'positionName': 'CENTER', 'positionCoords': [648.5, 275]}]",Rate how much you want to eat this food from 0 (least) to 10 (most).,29663.900000095367,1669841469281,bagel and cc,2016.8999998569489,True,6.22,31680.799999952316,2016.8999998569489,True,HRV,HRV_0299,2022-11-30 20:53:28
9,"[{'imgObject': {}, 'id': 'mashed potato', 'src': '/static/foodstim60/mashed potato.jpg', 'key': 'NaN', 'origWidth': 409, 'origHeight': 409, 'width': 409, 'height': 409, 'widthPercent': 0.8, 'rescaleHeight': True, 'trialN': 9, 'loaded': True, 'loadedTime': 5055.200000047684, 'positionName': 'CENTER', 'positionCoords': [649, 275.5]}]",Rate how much you want to eat this food from 0 (least) to 10 (most).,31684.400000095367,1669841471301,mashed potato,1969.0,True,8.88,33653.40000009537,1969.0,True,HRV,HRV_0299,2022-11-30 20:53:28
10,"[{'imgObject': {}, 'id': 'ice cream sundae 002', 'src': '/static/foodstim60/ice cream sundae 002.jpg', 'key': 'NaN', 'origWidth': 409, 'origHeight': 409, 'width': 409, 'height': 409, 'widthPercent': 0.8, 'rescaleHeight': True, 'trialN': 10, 'loaded': True, 'loadedTime': 4956.099999904633, 'positionName': 'CENTER', 'positionCoords': [649, 275.5]}]",Rate how much you want to eat this food from 0 (least) to 10 (most).,33655.90000009537,1669841473273,ice cream sundae 002,4069.5999999046326,True,5.89,37725.5,4069.5999999046326,True,HRV,HRV_0299,2022-11-30 20:53:28
11,"[{'imgObject': {}, 'id': 'yogurt no spoon', 'src': '/static/foodstim60/yogurt no spoon.jpg', 'key': 'NaN', 'origWidth': 411, 'origHeight': 410, 'width': 411, 'height': 410, 'widthPercent': 0.8, 'rescaleHeight': True, 'trialN': 11, 'loaded': True, 'loadedTime': 5056.900000095367, 'positionName': 'CENTER', 'positionCoords': [648, 275]}]",Rate how much you want to eat this food from 0 (least) to 10 (most).,37727.700000047684,1669841477345,yogurt no spoon,3537.0999999046326,True,1.6300000000000001,41264.799999952316,3537.0999999046326,True,HRV,HRV_0299,2022-11-30 20:53:28
12,"[{'imgObject': {}, 'id': 'lox', 'src': '/static/foodstim60/lox.jpg', 'key': 'NaN', 'origWidth': 410, 'origHeight': 411, 'width': 410, 'height': 411, 'widthPercent': 0.8, 'rescaleHeight': True, 'trialN': 12, 'loaded': True, 'loadedTime': 5180.200000047684, 'positionName': 'CENTER', 'positionCoords': [648.5, 274.5]}]",Rate how much you want to eat this food from 0 (least) to 10 (most).,41268.90000009537,1669841480886,lox,2940.5,True,0.09,44209.40000009537,2940.5,True,HRV,HRV_0299,2022-11-30 20:53:28
13,"[{'imgObject': {}, 'id': 'baked potato', 'src': '/static/foodstim60/baked potato.jpg', 'key': 'NaN', 'origWidth': 409, 'origHeight': 410, 'width': 409, 'height': 410, 'widthPercent': 0.8, 'rescaleHeight': True, 'trialN': 13, 'loaded': True, 'loadedTime': 5350.599999904633, 'positionName': 'CENTER', 'positionCoords': [649, 275]}]",Rate how much you want to eat this food from 0 (least) to 10 (most).,44212.299999952316,1669841483829,baked potato,2241.5,True,9.07,46453.799999952316,2241.5,True,HRV,HRV_0299,2022-11-30 20:53:28
14,"[{'imgObject': {}, 'id': 'avocado', 'src': '/static/foodstim60/avocado.jpg', 'key': 'NaN', 'origWidth': 409, 'origHeight': 409, 'width': 409, 'height': 409, 'widthPercent': 0.8, 'rescaleHeight': True, 'trialN': 14, 'loaded': True, 'loadedTime': 5268.200000047684, 'positionName': 'CENTER', 'positionCoords': [649, 275.5]}]",Rate how much you want to eat this food from 0 (least) to 10 (most).,46457.200000047684,1669841486074,avocado,2664.2999999523163,True,4.6000000000000005,49121.5,2664.2999999523163,True,HRV,HRV_0299,2022-11-30 20:53:28
15,"[{'imgObject': {}, 'id': 'strawberries', 'src': '/static/foodstim60/strawberries.jpg', 'key': 'NaN', 'origWidth': 410, 'origHeight': 410, 'width': 410, 'height': 410, 'widthPercent': 0.8, 'rescaleHeight': True, 'trialN': 15, 'loaded': True, 'loadedTime': 5352.599999904633, 'positionName': 'CENTER', 'positionCoords': [648.5, 275]}]",Rate how much you want to eat this food from 0 (least) to 10 (most).,49124.200000047684,1669841488741,strawberries,2125.7999999523163,True,8.43,51250.0,2125.7999999523163,True,HRV,HRV_0299,2022-11-30 20:53:28
16,"[{'imgObject': {}, 'id': 'tacos', 'src': '/static/foodstim60/tacos.jpg', 'key': 'NaN', 'origWidth': 411, 'origHeight': 411, 'width': 411, 'height': 411, 'widthPercent': 0.8, 'rescaleHeight': True, 'trialN': 16, 'loaded': True, 'loadedTime': 5354.599999904633, 'positionName': 'CENTER', 'positionCoords': [648, 274.5]}]",Rate how much you want to eat this food from 0 (least) to 10 (most).,51252.5,1669841490869,tacos,2249.7999999523163,True,9.56,53502.299999952316,2249.7999999523163,True,HRV,HRV_0299,2022-11-30 20:53:28
17,"[{'imgObject': {}, 'id': 'granola w milk', 'src': '/static/foodstim60/granola w milk.jpg', 'key': 'NaN', 'origWidth': 410, 'origHeight': 410, 'width': 410, 'height': 410, 'widthPercent': 0.8, 'rescaleHeight': True, 'trialN': 17, 'loaded': True, 'loadedTime': 5259.5, 'positionName': 'CENTER', 'positionCoords': [648.5, 275]}]",Rate how much you want to eat this food from 0 (least) to 10 (most).,53507.5,1669841493124,granola w milk,3078.5999999046326,True,3.69,56586.09999990463,3078.5999999046326,True,HRV,HRV_0299,2022-11-30 20:53:28
18,"[{'imgObject': {}, 'id': 'apple slices', 'src': '/static/foodstim60/apple slices.jpg', 'key': 'NaN', 'origWidth': 409, 'origHeight': 410, 'width': 409, 'height': 410, 'widthPercent': 0.8, 'rescaleHeight': True, 'trialN': 18, 'loaded': True, 'loadedTime': 5375.400000095367, 'positionName': 'CENTER', 'positionCoords': [649, 275]}]",Rate how much you want to eat this food from 0 (least) to 10 (most).,56589.0,1669841496206,apple slices,2010.5999999046326,True,1.35,58599.59999990463,2010.5999999046326,True,HRV,HRV_0299,2022-11-30 20:53:28
19,"[{'imgObject': {}, 'id': 'hashbrowns', 'src': '/static/foodstim60/hashbrowns.jpg', 'key': 'NaN', 'origWidth': 411, 'origHeight': 410, 'width': 411, 'height': 410, 'widthPercent': 0.8, 'rescaleHeight': True, 'trialN': 19, 'loaded': True, 'loadedTime': 5478.700000047684, 'positionName': 'CENTER', 'positionCoords': [648, 275]}]",Rate how much you want to eat this food from 0 (least) to 10 (most).,58605.40000009537,1669841498222,hashbrowns,2075.199999809265,True,1.05,60680.59999990463,2075.199999809265,True,HRV,HRV_0299,2022-11-30 20:53:28
20,"[{'imgObject': {}, 'id': 'sushi w_condiments', 'src': '/static/foodstim60/sushi w_condiments.jpg', 'key': 'NaN', 'origWidth': 410, 'origHeight': 410, 'width': 410, 'height': 410, 'widthPercent': 0.8, 'rescaleHeight': True, 'trialN': 20, 'loaded': True, 'loadedTime': 5475.099999904633, 'positionName': 'CENTER', 'positionCoords': [648.5, 275]}]",Rate how much you want to eat this food from 0 (least) to 10 (most).,60683.59999990463,1669841500301,sushi w_condiments,3591.4000000953674,True,0.15,64275.0,3591.4000000953674,True,HRV,HRV_0299,2022-11-30 20:53:28
21,"[{'imgObject': {}, 'id': 'eggs', 'src': '/static/foodstim60/eggs.jpg', 'key': 'NaN', 'origWidth': 409, 'origHeight': 409, 'width': 409, 'height': 409, 'widthPercent': 0.8, 'rescaleHeight': True, 'trialN': 21, 'loaded': True, 'loadedTime': 5481.799999952316, 'positionName': 'CENTER', 'positionCoords': [649, 275.5]}]",Rate how much you want to eat this food from 0 (least) to 10 (most).,64279.59999990463,1669841503897,eggs,2742.300000190735,True,1.5,67021.90000009537,2742.300000190735,True,HRV,HRV_0299,2022-11-30 20:53:28
22,"[{'imgObject': {}, 'id': 'shreddedwheatwithmilk', 'src': '/static/foodstim60/shreddedwheatwithmilk.jpg', 'key': 'NaN', 'origWidth': 410, 'origHeight': 410, 'width': 410, 'height': 410, 'widthPercent': 0.8, 'rescaleHeight': True, 'trialN': 22, 'loaded': True, 'loadedTime': 5718.5, 'positionName': 'CENTER', 'positionCoords': [648.5, 275]}]",Rate how much you want to eat this food from 0 (least) to 10 (most).,67025.29999995232,1669841506642,shreddedwheatwithmilk,6619.5,True,3.22,73644.79999995232,6619.5,True,HRV,HRV_0299,2022-11-30 20:53:28
23,"[{'imgObject': {}, 'id': 'mac & cheese', 'src': '/static/foodstim60/mac & cheese.jpg', 'key': 'NaN', 'origWidth': 410, 'origHeight': 410, 'width': 410, 'height': 410, 'widthPercent': 0.8, 'rescaleHeight': True, 'trialN': 23, 'loaded': True, 'loadedTime': 5606.099999904633, 'positionName': 'CENTER', 'positionCoords': [648.5, 275]}]",Rate how much you want to eat this food from 0 (least) to 10 (most).,73650.70000004768,1669841513268,mac & cheese,2169.0,True,7.84,75819.70000004768,2169.0,True,HRV,HRV_0299,2022-11-30 20:53:28
24,"[{'imgObject': {}, 'id': 'burrito', 'src': '/static/foodstim60/burrito.jpg', 'key': 'NaN', 'origWidth': 410, 'origHeight': 410, 'width': 410, 'height': 410, 'widthPercent': 0.8, 'rescaleHeight': True, 'trialN': 24, 'loaded': True, 'loadedTime': 5720.400000095367, 'positionName': 'CENTER', 'positionCoords': [648.5, 275]}]",Rate how much you want to eat this food from 0 (least) to 10 (most).,75825.79999995232,1669841515443,burrito,2197.7999999523163,True,9.0,78023.59999990463,2197.7999999523163,True,HRV,HRV_0299,2022-11-30 20:53:28
25,"[{'imgObject': {}, 'id': 'burger', 'src': '/static/foodstim60/burger.jpg', 'key': 'NaN', 'origWidth': 409, 'origHeight': 409, 'width': 409, 'height': 409, 'widthPercent': 0.8, 'rescaleHeight': True, 'trialN': 25, 'loaded': True, 'loadedTime': 5722.400000095367, 'positionName': 'CENTER', 'positionCoords': [649, 275.5]}]",Rate how much you want to eat this food from 0 (least) to 10 (most).,78026.59999990463,1669841517643,burger,2002.2000000476837,True,9.46,80028.79999995232,2002.2000000476837,True,HRV,HRV_0299,2022-11-30 20:53:28
26,"[{'imgObject': {}, 'id': 'cherries', 'src': '/static/foodstim60/cherries.jpg', 'key': 'NaN', 'origWidth': 410, 'origHeight': 411, 'width': 410, 'height': 411, 'widthPercent': 0.8, 'rescaleHeight': True, 'trialN': 26, 'loaded': True, 'loadedTime': 5716.099999904633, 'positionName': 'CENTER', 'positionCoords': [648.5, 274.5]}]",Rate how much you want to eat this food from 0 (least) to 10 (most).,80031.70000004768,1669841519637,cherries,1996.0,True,7.95,82027.70000004768,1996.0,True,HRV,HRV_0299,2022-11-30 20:53:28
27,"[{'imgObject': {}, 'id': 'orange slices', 'src': '/static/foodstim60/orange slices.jpg', 'key': 'NaN', 'origWidth': 409, 'origHeight': 410, 'width': 409, 'height': 410, 'widthPercent': 0.8, 'rescaleHeight': True, 'trialN': 27, 'loaded': True, 'loadedTime': 5836.700000047684, 'positionName': 'CENTER', 'positionCoords': [649, 275]}]",Rate how much you want to eat this food from 0 (least) to 10 (most).,82032.79999995232,1669841521638,orange slices,1948.0,True,6.2,83980.79999995232,1948.0,True,HRV,HRV_0299,2022-11-30 20:53:28
28,"[{'imgObject': {}, 'id': 'froot loops w milk', 'src': '/static/foodstim60/froot loops w milk.jpg', 'key': 'NaN', 'origWidth': 410, 'origHeight': 410, 'width': 410, 'height': 410, 'widthPercent': 0.8, 'rescaleHeight': True, 'trialN': 28, 'loaded': True, 'loadedTime': 5995.799999952316, 'positionName': 'CENTER', 'positionCoords': [648.5, 275]}]",Rate how much you want to eat this food from 0 (least) to 10 (most).,83983.40000009537,1669841523588,froot loops w milk,2601.5999999046326,True,1.06,86585.0,2601.5999999046326,True,HRV,HRV_0299,2022-11-30 20:53:28
29,"[{'imgObject': {}, 'id': 'chickenfingers', 'src': '/static/foodstim60/chickenfingers.jpg', 'key': 'NaN', 'origWidth': 410, 'origHeight': 410, 'width': 410, 'height': 410, 'widthPercent': 0.8, 'rescaleHeight': True, 'trialN': 29, 'loaded': True, 'loadedTime': 5843.700000047684, 'positionName': 'CENTER', 'positionCoords': [648.5, 275]}]",Rate how much you want to eat this food from 0 (least) to 10 (most).,86588.20000004768,1669841526193,chickenfingers,3266.7000000476837,True,8.18,89854.90000009537,3266.7000000476837,True,HRV,HRV_0299,2022-11-30 20:53:28
30,"[{'imgObject': {}, 'id': 'seaweed', 'src': '/static/foodstim60/seaweed.jpg', 'key': 'NaN', 'origWidth': 410, 'origHeight': 410, 'width': 410, 'height': 410, 'widthPercent': 0.8, 'rescaleHeight': True, 'trialN': 30, 'loaded': True, 'loadedTime': 6168.900000095367, 'positionName': 'CENTER', 'positionCoords': [648.5, 275]}]",Rate how much you want to eat this food from 0 (least) to 10 (most).,89858.40000009537,1669841529463,seaweed,4014.0,True,0.0,93872.40000009537,4014.0,True,HRV,HRV_0299,2022-11-30 20:53:28
31,"[{'imgObject': {}, 'id': 'corn cob', 'src': '/static/foodstim60/corn cob.jpg', 'key': 'NaN', 'origWidth': 411, 'origHeight': 411, 'width': 411, 'height': 411, 'widthPercent': 0.8, 'rescaleHeight': True, 'trialN': 31, 'loaded': True, 'loadedTime': 5909.099999904633, 'positionName': 'CENTER', 'positionCoords': [648, 274.5]}]",Rate how much you want to eat this food from 0 (least) to 10 (most).,93876.40000009537,1669841533481,corn cob,2171.0,True,6.75,96047.40000009537,2171.0,True,HRV,HRV_0299,2022-11-30 20:53:28
32,"[{'imgObject': {}, 'id': 'mango', 'src': '/static/foodstim60/mango.jpg', 'key': 'NaN', 'origWidth': 411, 'origHeight': 411, 'width': 411, 'height': 411, 'widthPercent': 0.8, 'rescaleHeight': True, 'trialN': 32, 'loaded': True, 'loadedTime': 6074.799999952316, 'positionName': 'CENTER', 'positionCoords': [648, 274.5]}]",Rate how much you want to eat this food from 0 (least) to 10 (most).,96050.09999990463,1669841535655,mango,2318.0,True,3.64,98368.09999990463,2318.0,True,HRV,HRV_0299,2022-11-30 20:53:28
33,"[{'imgObject': {}, 'id': 'roastedpotatoes', 'src': '/static/foodstim60/roastedpotatoes.jpg', 'key': 'NaN', 'origWidth': 409, 'origHeight': 410, 'width': 409, 'height': 410, 'widthPercent': 0.8, 'rescaleHeight': True, 'trialN': 33, 'loaded': True, 'loadedTime': 5845.200000047684, 'positionName': 'CENTER', 'positionCoords': [649, 275]}]",Rate how much you want to eat this food from 0 (least) to 10 (most).,98372.0,1669841537977,roastedpotatoes,2354.5999999046326,True,8.88,100726.59999990463,2354.5999999046326,True,HRV,HRV_0299,2022-11-30 20:53:28
34,"[{'imgObject': {}, 'id': 'raspberries', 'src': '/static/foodstim60/raspberries.jpg', 'key': 'NaN', 'origWidth': 411, 'origHeight': 411, 'width': 411, 'height': 411, 'widthPercent': 0.8, 'rescaleHeight': True, 'trialN': 34, 'loaded': True, 'loadedTime': 6072.799999952316, 'positionName': 'CENTER', 'positionCoords': [648, 274.5]}]",Rate how much you want to eat this food from 0 (least) to 10 (most).,100729.09999990463,1669841540334,raspberries,2597.600000143051,True,8.55,103326.70000004768,2597.600000143051,True,HRV,HRV_0299,2022-11-30 20:53:28
35,"[{'imgObject': {}, 'id': 'grilled chicken strips', 'src': '/static/foodstim60/grilled chicken strips.jpg', 'key': 'NaN', 'origWidth': 410, 'origHeight': 411, 'width': 410, 'height': 411, 'widthPercent': 0.8, 'rescaleHeight': True, 'trialN': 35, 'loaded': True, 'loadedTime': 6068.5, 'positionName': 'CENTER', 'positionCoords': [648.5, 274.5]}]",Rate how much you want to eat this food from 0 (least) to 10 (most).,103330.5,1669841542935,grilled chicken strips,2347.7999999523163,True,9.71,105678.29999995232,2347.7999999523163,True,HRV,HRV_0299,2022-11-30 20:53:28
36,"[{'imgObject': {}, 'id': 'cherry tomato', 'src': '/static/foodstim60/cherry tomato.jpg', 'key': 'NaN', 'origWidth': 410, 'origHeight': 410, 'width': 410, 'height': 410, 'widthPercent': 0.8, 'rescaleHeight': True, 'trialN': 36, 'loaded': True, 'loadedTime': 6193.599999904633, 'positionName': 'CENTER', 'positionCoords': [648.5, 275]}]",Rate how much you want to eat this food from 0 (least) to 10 (most).,105680.70000004768,1669841545286,cherry tomato,3036.0999999046326,True,4.37,108716.79999995232,3036.0999999046326,True,HRV,HRV_0299,2022-11-30 20:53:28
37,"[{'imgObject': {}, 'id': 'veggieswithdip', 'src': '/static/foodstim60/veggieswithdip.jpg', 'key': 'NaN', 'origWidth': 409, 'origHeight': 409, 'width': 409, 'height': 409, 'widthPercent': 0.8, 'rescaleHeight': True, 'trialN': 37, 'loaded': True, 'loadedTime': 6242.299999952316, 'positionName': 'CENTER', 'positionCoords': [649, 275.5]}]",Rate how much you want to eat this food from 0 (least) to 10 (most).,108719.59999990463,1669841548324,veggieswithdip,2171.4000000953674,True,5.54,110891.0,2171.4000000953674,True,HRV,HRV_0299,2022-11-30 20:53:28
38,"[{'imgObject': {}, 'id': 'blackbeanswithrice', 'src': '/static/foodstim60/blackbeanswithrice.jpg', 'key': 'NaN', 'origWidth': 410, 'origHeight': 410, 'width': 410, 'height': 410, 'widthPercent': 0.8, 'rescaleHeight': True, 'trialN': 38, 'loaded': True, 'loadedTime': 6335.099999904633, 'positionName': 'CENTER', 'positionCoords': [648.5, 275]}]",Rate how much you want to eat this food from 0 (least) to 10 (most).,110907.59999990463,1669841550512,blackbeanswithrice,2009.5,True,6.59,112917.09999990463,2009.5,True,HRV,HRV_0299,2022-11-30 20:53:28
39,"[{'imgObject': {}, 'id': 'Tribe humus pita', 'src': '/static/foodstim60/Tribe humus pita.jpg', 'key': 'NaN', 'origWidth': 411, 'origHeight': 411, 'width': 411, 'height': 411, 'widthPercent': 0.8, 'rescaleHeight': True, 'trialN': 39, 'loaded': True, 'loadedTime': 6430, 'positionName': 'CENTER', 'positionCoords': [648, 274.5]}]",Rate how much you want to eat this food from 0 (least) to 10 (most).,112927.09999990463,1669841552532,Tribe humus pita,2668.300000190735,True,3.75,115595.40000009537,2668.300000190735,True,HRV,HRV_0299,2022-11-30 20:53:28
40,"[{'imgObject': {}, 'id': 'eggsalad', 'src': '/static/foodstim60/eggsalad.jpg', 'key': 'NaN', 'origWidth': 410, 'origHeight': 409, 'width': 410, 'height': 409, 'widthPercent': 0.8, 'rescaleHeight': True, 'trialN': 40, 'loaded': True, 'loadedTime': 6570.400000095367, 'positionName': 'CENTER', 'positionCoords': [648.5, 275.5]}]",Rate how much you want to eat this food from 0 (least) to 10 (most).,115598.09999990463,1669841555203,eggsalad,3367.2000000476837,True,1.87,118965.29999995232,3367.2000000476837,True,HRV,HRV_0299,2022-11-30 20:53:28
41,"[{'imgObject': {}, 'id': 'Grapes', 'src': '/static/foodstim60/Grapes.jpg', 'key': 'NaN', 'origWidth': 411, 'origHeight': 411, 'width': 411, 'height': 411, 'widthPercent': 0.8, 'rescaleHeight': True, 'trialN': 41, 'loaded': True, 'loadedTime': 6707.400000095367, 'positionName': 'CENTER', 'positionCoords': [648, 274.5]}]",Rate how much you want to eat this food from 0 (least) to 10 (most).,118967.79999995232,1669841558573,Grapes,1927.0,True,4.5,120894.79999995232,1927.0,True,HRV,HRV_0299,2022-11-30 20:53:28
42,"[{'imgObject': {}, 'id': 'chicken nuggets2', 'src': '/static/foodstim60/chicken nuggets2.jpg', 'key': 'NaN', 'origWidth': 410, 'origHeight': 409, 'width': 410, 'height': 409, 'widthPercent': 0.8, 'rescaleHeight': True, 'trialN': 42, 'loaded': True, 'loadedTime': 6705.400000095367, 'positionName': 'CENTER', 'positionCoords': [648.5, 275.5]}]",Rate how much you want to eat this food from 0 (least) to 10 (most).,120899.29999995232,1669841560504,chicken nuggets2,2264.2000000476837,True,5.79,123163.5,2264.2000000476837,True,HRV,HRV_0299,2022-11-30 20:53:28
43,"[{'imgObject': {}, 'id': 'steak', 'src': '/static/foodstim60/steak.jpg', 'key': 'NaN', 'origWidth': 410, 'origHeight': 410, 'width': 410, 'height': 410, 'widthPercent': 0.8, 'rescaleHeight': True, 'trialN': 43, 'loaded': True, 'loadedTime': 6709.799999952316, 'positionName': 'CENTER', 'positionCoords': [648.5, 275]}]",Rate how much you want to eat this food from 0 (least) to 10 (most).,123173.29999995232,1669841562778,steak,3011.4000000953674,True,10.0,126184.70000004768,3011.4000000953674,True,HRV,HRV_0299,2022-11-30 20:53:28
44,"[{'imgObject': {}, 'id': 'cocktailshrimp', 'src': '/static/foodstim60/cocktailshrimp.jpg', 'key': 'NaN', 'origWidth': 410, 'origHeight': 410, 'width': 410, 'height': 410, 'widthPercent': 0.8, 'rescaleHeight': True, 'trialN': 44, 'loaded': True, 'loadedTime': 6588.400000095367, 'positionName': 'CENTER', 'positionCoords': [648.5, 275]}]",Rate how much you want to eat this food from 0 (least) to 10 (most).,126187.5,1669841565792,cocktailshrimp,2780.0,True,8.14,128967.5,2780.0,True,HRV,HRV_0299,2022-11-30 20:53:28
45,"[{'imgObject': {}, 'id': 'hotdog w must', 'src': '/static/foodstim60/hotdog w must.jpg', 'key': 'NaN', 'origWidth': 409, 'origHeight': 409, 'width': 409, 'height': 409, 'widthPercent': 0.8, 'rescaleHeight': True, 'trialN': 45, 'loaded': True, 'loadedTime': 6593.200000047684, 'positionName': 'CENTER', 'positionCoords': [649, 275.5]}]",Rate how much you want to eat this food from 0 (least) to 10 (most).,128970.40000009537,1669841568575,hotdog w must,1725.0999999046326,True,9.13,130695.5,1725.0999999046326,True,HRV,HRV_0299,2022-11-30 20:53:28
46,"[{'imgObject': {}, 'id': 'sweetpotato', 'src': '/static/foodstim60/sweetpotato.jpg', 'key': 'NaN', 'origWidth': 410, 'origHeight': 410, 'width': 410, 'height': 410, 'widthPercent': 0.8, 'rescaleHeight': True, 'trialN': 46, 'loaded': True, 'loadedTime': 6754.299999952316, 'positionName': 'CENTER', 'positionCoords': [648.5, 275]}]",Rate how much you want to eat this food from 0 (least) to 10 (most).,130699.70000004768,1669841570305,sweetpotato,2580.0,True,7.3,133279.70000004768,2580.0,True,HRV,HRV_0299,2022-11-30 20:53:28
47,"[{'imgObject': {}, 'id': 'cantaloupe', 'src': '/static/foodstim60/cantaloupe.jpg', 'key': 'NaN', 'origWidth': 409, 'origHeight': 409, 'width': 409, 'height': 409, 'widthPercent': 0.8, 'rescaleHeight': True, 'trialN': 47, 'loaded': True, 'loadedTime': 6945.799999952316, 'positionName': 'CENTER', 'positionCoords': [649, 275.5]}]",Rate how much you want to eat this food from 0 (least) to 10 (most).,133291.0,1669841572896,cantaloupe,2055.0,True,5.87,135346.0,2055.0,True,HRV,HRV_0299,2022-11-30 20:53:28
48,"[{'imgObject': {}, 'id': 'turkey sandwich', 'src': '/static/foodstim60/turkey sandwich.jpg', 'key': 'NaN', 'origWidth': 409, 'origHeight': 409, 'width': 409, 'height': 409, 'widthPercent': 0.8, 'rescaleHeight': True, 'trialN': 48, 'loaded': True, 'loadedTime': 6954.700000047684, 'positionName': 'CENTER', 'positionCoords': [649, 275.5]}]",Rate how much you want to eat this food from 0 (least) to 10 (most).,135348.59999990463,1669841574954,turkey sandwich,2280.5,True,7.48,137629.09999990463,2280.5,True,HRV,HRV_0299,2022-11-30 20:53:28
49,"[{'imgObject': {}, 'id': 'rigatoni', 'src': '/static/foodstim60/rigatoni.jpg', 'key': 'NaN', 'origWidth': 411, 'origHeight': 411, 'width': 411, 'height': 411, 'widthPercent': 0.8, 'rescaleHeight': True, 'trialN': 49, 'loaded': True, 'loadedTime': 7102.299999952316, 'positionName': 'CENTER', 'positionCoords': [648, 274.5]}]",Rate how much you want to eat this food from 0 (least) to 10 (most).,137633.79999995232,1669841577239,rigatoni,2540.7000000476837,True,6.91,140174.5,2540.7000000476837,True,HRV,HRV_0299,2022-11-30 20:53:28
50,"[{'imgObject': {}, 'id': 'salmon', 'src': '/static/foodstim60/salmon.jpg', 'key': 'NaN', 'origWidth': 410, 'origHeight': 409, 'width': 410, 'height': 409, 'widthPercent': 0.8, 'rescaleHeight': True, 'trialN': 50, 'loaded': True, 'loadedTime': 6970.299999952316, 'positionName': 'CENTER', 'positionCoords': [648.5, 275.5]}]",Rate how much you want to eat this food from 0 (least) to 10 (most).,140178.0,1669841579795,salmon,4816.099999904633,True,0.27,144994.09999990463,4816.099999904633,True,HRV,HRV_0299,2022-11-30 20:53:28
51,"[{'imgObject': {}, 'id': 'omelette', 'src': '/static/foodstim60/omelette.jpg', 'key': 'NaN', 'origWidth': 410, 'origHeight': 409, 'width': 410, 'height': 409, 'widthPercent': 0.8, 'rescaleHeight': True, 'trialN': 51, 'loaded': True, 'loadedTime': 7012, 'positionName': 'CENTER', 'positionCoords': [648.5, 275.5]}]",Rate how much you want to eat this food from 0 (least) to 10 (most).,144996.29999995232,1669841584614,omelette,2374.100000143051,True,6.51,147370.40000009537,2374.100000143051,True,HRV,HRV_0299,2022-11-30 20:53:28
52,"[{'imgObject': {}, 'id': 'turkeysandwich', 'src': '/static/foodstim60/turkeysandwich.jpg', 'key': 'NaN', 'origWidth': 409, 'origHeight': 409, 'width': 409, 'height': 409, 'widthPercent': 0.8, 'rescaleHeight': True, 'trialN': 52, 'loaded': True, 'loadedTime': 7096.900000095367, 'positionName': 'CENTER', 'positionCoords': [649, 275.5]}]",Rate how much you want to eat this food from 0 (least) to 10 (most).,147373.70000004768,1669841586991,turkeysandwich,2224.7999999523163,True,7.54,149598.5,2224.7999999523163,True,HRV,HRV_0299,2022-11-30 20:53:28
53,"[{'imgObject': {}, 'id': 'rigatoni and sauce', 'src': '/static/foodstim60/rigatoni and sauce.jpg', 'key': 'NaN', 'origWidth': 410, 'origHeight': 411, 'width': 410, 'height': 411, 'widthPercent': 0.8, 'rescaleHeight': True, 'trialN': 53, 'loaded': True, 'loadedTime': 7158, 'positionName': 'CENTER', 'positionCoords': [648.5, 274.5]}]",Rate how much you want to eat this food from 0 (least) to 10 (most).,149601.0,1669841589218,rigatoni and sauce,3245.0999999046326,True,8.18,152846.09999990463,3245.0999999046326,True,HRV,HRV_0299,2022-11-30 20:53:28
54,"[{'imgObject': {}, 'id': 'fruitsalad', 'src': '/static/foodstim60/fruitsalad.jpg', 'key': 'NaN', 'origWidth': 410, 'origHeight': 410, 'width': 410, 'height': 410, 'widthPercent': 0.8, 'rescaleHeight': True, 'trialN': 54, 'loaded': True, 'loadedTime': 7149.700000047684, 'positionName': 'CENTER', 'positionCoords': [648.5, 275]}]",Rate how much you want to eat this food from 0 (least) to 10 (most).,152849.59999990463,1669841592467,fruitsalad,2302.4000000953674,True,5.93,155152.0,2302.4000000953674,True,HRV,HRV_0299,2022-11-30 20:53:28
55,"[{'imgObject': {}, 'id': 'olives', 'src': '/static/foodstim60/olives.jpg', 'key': 'NaN', 'origWidth': 410, 'origHeight': 410, 'width': 410, 'height': 410, 'widthPercent': 0.8, 'rescaleHeight': True, 'trialN': 55, 'loaded': True, 'loadedTime': 7302.200000047684, 'positionName': 'CENTER', 'positionCoords': [648.5, 275]}]",Rate how much you want to eat this food from 0 (least) to 10 (most).,155155.70000004768,1669841594773,olives,3066.399999856949,True,0.1,158222.09999990463,3066.399999856949,True,HRV,HRV_0299,2022-11-30 20:53:28
56,"[{'imgObject': {}, 'id': 'blueberries', 'src': '/static/foodstim60/blueberries.jpg', 'key': 'NaN', 'origWidth': 411, 'origHeight': 411, 'width': 411, 'height': 411, 'widthPercent': 0.8, 'rescaleHeight': True, 'trialN': 56, 'loaded': True, 'loadedTime': 7326.5, 'positionName': 'CENTER', 'positionCoords': [648, 274.5]}]",Rate how much you want to eat this food from 0 (least) to 10 (most).,158226.5,1669841597844,blueberries,2270.9000000953674,True,8.23,160497.40000009537,2270.9000000953674,True,HRV,HRV_0299,2022-11-30 20:53:28
57,"[{'imgObject': {}, 'id': 'edamame', 'src': '/static/foodstim60/edamame.jpg', 'key': 'NaN', 'origWidth': 409, 'origHeight': 410, 'width': 409, 'height': 410, 'widthPercent': 0.8, 'rescaleHeight': True, 'trialN': 57, 'loaded': True, 'loadedTime': 7345.299999952316, 'positionName': 'CENTER', 'positionCoords': [649, 275]}]",Rate how much you want to eat this food from 0 (least) to 10 (most).,160501.59999990463,1669841600119,edamame,2217.600000143051,True,6.2,162719.20000004768,2217.600000143051,True,HRV,HRV_0299,2022-11-30 20:53:28
58,"[{'imgObject': {}, 'id': 'luckycharms', 'src': '/static/foodstim60/luckycharms.jpg', 'key': 'NaN', 'origWidth': 410, 'origHeight': 409, 'width': 410, 'height': 409, 'widthPercent': 0.8, 'rescaleHeight': True, 'trialN': 58, 'loaded': True, 'loadedTime': 7347, 'positionName': 'CENTER', 'positionCoords': [648.5, 275.5]}]",Rate how much you want to eat this food from 0 (least) to 10 (most).,162722.5,1669841602340,luckycharms,3212.4000000953674,True,0.1,165934.90000009537,3212.4000000953674,True,HRV,HRV_0299,2022-11-30 20:53:28
59,"[{'imgObject': {}, 'id': 'raisin bran w milk', 'src': '/static/foodstim60/raisin bran w milk.jpg', 'key': 'NaN', 'origWidth': 411, 'origHeight': 411, 'width': 411, 'height': 411, 'widthPercent': 0.8, 'rescaleHeight': True, 'trialN': 59, 'loaded': True, 'loadedTime': 7349.5, 'positionName': 'CENTER', 'positionCoords': [648, 274.5]}]",Rate how much you want to eat this food from 0 (least) to 10 (most).,165939.20000004768,1669841605556,raisin bran w milk,3217.7999999523163,True,4.1,169157.0,3217.7999999523163,True,HRV,HRV_0299,2022-11-30 20:53:28
