success,trial_type,trial_index,time_elapsed,internal_node_id,Block,TrialNumber,TrialTime,trialTimeDiff,FPS_avg,FPS_med,FPS_mode,TrialDur,winResizeTime,rt,block,button_pressed,MotCoh,MotDir,ColCoh,Color,ChoiceKey,Choice,Accuracy,RT,nFrames,FPS,PPD,missTrial,missTrialMsg,onsetDelay,fullScreenExitTime,canvCenter,TrialType,Score,BlockTrial,stimulus,button_labels,exp,subjectId,date
True,fullscreen,0,3117,0.0-0.0,0.0,1.0,,,,,,,,,,,,,,,,,,,,,,,,,,,,,,,,HRV,HRV_0245,2022-11-30 19:46:10
,wl-check-fps,1,8114,0.0-1.0,0.0,2.0,"[3579.3, 3585.4, 3602.1, 3618.8, 3635.6, 3652.1, 3668.8, 3685.5, 3702, 3718.4, 3735.3, 3752, 3768.8, 3785.4, 3802.2, 3818.9, 3835.7, 3852.4, 3869, 3885.9, 3902.6, 3918.9, 3936.1, 3952.3, 3968.8, 3985.5, 4002.4, 4019, 4035.7, 4052.4, 4068.8, 4085.6, 4102.3, 4118.9, 4135.6, 4152.2, 4168.8, 4185.8, 4202.5, 4218.9, 4235.7, 4252.1, 4268.7, 4285.7, 4302.3, 4319, 4335.6, 4352.2, 4368.8, 4385.8, 4402.1, 4418.9, 4435.5, 4452.3, 4468.8, 4485.6, 4502.1, 4518.8, 4535.9, 4552.2, 4569, 4585.7, 4602.1, 4618.9, 4635.7, 4652.2, 4668.9, 4685.6, 4702.4, 4718.8, 4735.6, 4752.2, 4768.9, 4785.8, 4802.1, 4818.9, 4835.6, 4852.5, 4869, 4885.8, 4902.7, 4918.9, 4935.6, 4952.2, 4968.9, 4985.6, 5002.2, 5018.7, 5035.1, 5051.9, 5070.8, 5087.6, 5102.5, 5118.4, 5135.1, 5151.7, 5168.6, 5185, 5201.7, 5218.4, 5235, 5251.7, 5268.4, 5285.2, 5302, 5318.7, 5335.3, 5352, 5368.6, 5385.5, 5402.1, 5418.7, 5435.5, 5452.4, 5469, 5485.8, 5502.6, 5519, 5535.7, 5552.4, 5568.8, 5585.8, 5602.5, 5618.9, 5635.6, 5652.3, 5668.8, 5685.6, 5702.2, 5718.7, 5735.3, 5752, 5768.5, 5785.3, 5802.5, 5818.9, 5835.5, 5852.2, 5869.1, 5885.6, 5902.4, 5919.1, 5935.8, 5952.5, 5969, 5985.7, 6002.5, 6018.9, 6035.6, 6052.2, 6068.8, 6085.7, 6102.4, 6119, 6136.1, 6152.4, 6169, 6185.8, 6202.3, 6218.9, 6235.9, 6252.5, 6268.9, 6285.7, 6302.1, 6318.9, 6335.5, 6352.3, 6369.1, 6385.8, 6402.3, 6419.2, 6436, 6452.7, 6469.2, 6485.7, 6502.5, 6519, 6535.9, 6552.3, 6568.9, 6585.5, 6602.5, 6619, 6635.9, 6652.3, 6669, 6685.9, 6702.3, 6719.1, 6735.7, 6752.7, 6769, 6785.6, 6802.1, 6818.9, 6835.8, 6852.6, 6868.9, 6885.8, 6902.7, 6919, 6936.1, 6952.4, 6969.2, 6985.8, 7002.3, 7019.1, 7035.8, 7052, 7069, 7085.4, 7102.1, 7118.4, 7135.2, 7152.2, 7168.8, 7185.4, 7202.4, 7218.8, 7235.7, 7252.3, 7268.8, 7285.5, 7302.3, 7318.9, 7335.5, 7352.3, 7368.9, 7385.5, 7401.9, 7418.8, 7435.5, 7451.9, 7469, 7485.5, 7502.3, 7518.9, 7535.9, 7552.4, 7569.2, 7585.8, 7602.6, 7619, 7635.8, 7652.9, 7669.2, 7686.1, 7702.3, 7719.1, 7735.7, 7752.8, 7769.1, 7785.8, 7802.4, 7818.8, 7835.4, 7851.9, 7868.5, 7888.1, 7904.4, 7918.7, 7937.9, 7951.9, 7968.6, 7985.2, 8002.1, 8018.6, 8035.4, 8052.3, 8069.1, 8085.6, 8102.6, 8119.2, 8135.9, 8152.3, 8168.8, 8185.8, 8202.4, 8219.1, 8236.1, 8252.8, 8269.1, 8286.2, 8302.5, 8319.2, 8335.8, 8352.6, 8369, 8385.9, 8402.4, 8419, 8435.8, 8452.7, 8469.1, 8486.1, 8502.8, 8519.1, 8536.1, 8552.5]","[2.9, 6.1, 16.7, 16.7, 16.8, 16.5, 16.7, 16.7, 16.5, 16.4, 16.9, 16.7, 16.8, 16.6, 16.8, 16.7, 16.8, 16.7, 16.6, 16.9, 16.7, 16.3, 17.2, 16.2, 16.5, 16.7, 16.9, 16.6, 16.7, 16.7, 16.4, 16.8, 16.7, 16.6, 16.7, 16.6, 16.6, 17, 16.7, 16.4, 16.8, 16.4, 16.6, 17, 16.6, 16.7, 16.6, 16.6, 16.6, 17, 16.3, 16.8, 16.6, 16.8, 16.5, 16.8, 16.5, 16.7, 17.1, 16.3, 16.8, 16.7, 16.4, 16.8, 16.8, 16.5, 16.7, 16.7, 16.8, 16.4, 16.8, 16.6, 16.7, 16.9, 16.3, 16.8, 16.7, 16.9, 16.5, 16.8, 16.9, 16.2, 16.7, 16.6, 16.7, 16.7, 16.6, 16.5, 16.4, 16.8, 18.9, 16.8, 14.9, 15.9, 16.7, 16.6, 16.9, 16.4, 16.7, 16.7, 16.6, 16.7, 16.7, 16.8, 16.8, 16.7, 16.6, 16.7, 16.6, 16.9, 16.6, 16.6, 16.8, 16.9, 16.6, 16.8, 16.8, 16.4, 16.7, 16.7, 16.4, 17, 16.7, 16.4, 16.7, 16.7, 16.5, 16.8, 16.6, 16.5, 16.6, 16.7, 16.5, 16.8, 17.2, 16.4, 16.6, 16.7, 16.9, 16.5, 16.8, 16.7, 16.7, 16.7, 16.5, 16.7, 16.8, 16.4, 16.7, 16.6, 16.6, 16.9, 16.7, 16.6, 17.1, 16.3, 16.6, 16.8, 16.5, 16.6, 17, 16.6, 16.4, 16.8, 16.4, 16.8, 16.6, 16.8, 16.8, 16.7, 16.5, 16.9, 16.8, 16.7, 16.5, 16.5, 16.8, 16.5, 16.9, 16.4, 16.6, 16.6, 17, 16.5, 16.9, 16.4, 16.7, 16.9, 16.4, 16.8, 16.6, 17, 16.3, 16.6, 16.5, 16.8, 16.9, 16.8, 16.3, 16.9, 16.9, 16.3, 17.1, 16.3, 16.8, 16.6, 16.5, 16.8, 16.7, 16.2, 17, 16.4, 16.7, 16.3, 16.8, 17, 16.6, 16.6, 17, 16.4, 16.9, 16.6, 16.5, 16.7, 16.8, 16.6, 16.6, 16.8, 16.6, 16.6, 16.4, 16.9, 16.7, 16.4, 17.1, 16.5, 16.8, 16.6, 17, 16.5, 16.8, 16.6, 16.8, 16.4, 16.8, 17.1, 16.3, 16.9, 16.2, 16.8, 16.6, 17.1, 16.3, 16.7, 16.6, 16.4, 16.6, 16.5, 16.6, 19.6, 16.3, 14.3, 19.2, 14, 16.7, 16.6, 16.9, 16.5, 16.8, 16.9, 16.8, 16.5, 17, 16.6, 16.7, 16.4, 16.5, 17, 16.6, 16.7, 17, 16.7, 16.3, 17.1, 16.3, 16.7, 16.6, 16.8, 16.4, 16.9, 16.5, 16.6, 16.8, 16.9, 16.4, 17, 16.7, 16.3, 17, 16.4]",60.0,60.0,60.0,4992.7,[],,,,,,,,,,,,,,,,,,,,,,,,,HRV,HRV_0245,2022-11-30 19:46:10
,wl-html-keyboard-response,2,26870,0.0-2.0-0.0,0.0,3.0,,,,,,,,16746.0,0.0,0,,,,,,,,,,,,,,,,,,,,,,HRV,HRV_0245,2022-11-30 19:46:10
,wl-rdm,3,35175,0.0-3.0-0.0,0.0,4.0,,,,,,,[],,,,0.0,0.0,87.9,0.0,u,0.0,True,2747.2000000476837,165.0,60.0,40.0,False,,3000.0,[],"[768, 512]",ColorTask_Demo,,,,,HRV,HRV_0245,2022-11-30 19:46:10
,wl-rdm,4,39759,0.0-3.0-1.0,0.0,5.0,,,,,,,[],,,,0.0,0.0,87.9,1.0,i,1.0,True,512.0,31.0,60.0,40.0,False,,2000.0,[],"[768, 512]",ColorTask_Demo,,,,,HRV,HRV_0245,2022-11-30 19:46:10
,wl-html-keyboard-response,5,44830,0.0-3.0-2.0,0.0,6.0,,,,,,,,3065.2000000476837,0.0,1,,,,,,,,,,,,,,,,,,,,,,HRV,HRV_0245,2022-11-30 19:46:10
,wl-html-keyboard-response,6,52373,0.0-4.0-0.0,0.0,7.0,,,,,,,,5537.799999952316,0.0,0,,,,,,,,,,,,,,,,,,,,,,HRV,HRV_0245,2022-11-30 19:46:10
,wl-html-keyboard-response,7,78145,0.0-5.0-0.0,0.0,8.0,,,,,,,,23762.100000023842,0.0,0,,,,,,,,,,,,,,,,,,,,,,HRV,HRV_0245,2022-11-30 19:46:10
,wl-rdm,8,81504,0.0-6.0-0.0,0.0,9.0,,,,,,,[],,,,,,62.5,0.0,u,0.0,True,2081.7999999523163,125.0,60.0,40.0,False,,216.51617580307123,[],"[768, 512]",ColorTask,1.0,1.0,,,HRV,HRV_0245,2022-11-30 19:46:10
,wl-rdm,9,84738,0.0-6.1-0.1,0.0,10.0,,,,,,,[],,,,,,53.2,1.0,i,1.0,True,1810.0000001192093,109.0,60.0,40.0,False,,339.36053508876387,[],"[768, 512]",ColorTask,2.0,2.0,,,HRV,HRV_0245,2022-11-30 19:46:10
,wl-rdm,10,87436,0.0-6.2-0.2,0.0,11.0,,,,,,,[],,,,,,56.4,1.0,i,1.0,True,1306.5,79.0,60.0,40.0,False,,290.46128916363256,[],"[768, 512]",ColorTask,3.0,3.0,,,HRV,HRV_0245,2022-11-30 19:46:10
,wl-rdm,11,91005,0.0-6.3-0.3,0.0,12.0,,,,,,,[],,,,,,56.4,0.0,i,1.0,False,2228.600000023842,134.0,60.0,40.0,False,,266.1264181152659,[],"[768, 512]",ColorTask,2.0,4.0,,,HRV,HRV_0245,2022-11-30 19:46:10
,wl-rdm,12,93655,0.0-6.4-0.4,0.0,13.0,,,,,,,[],,,,,,53.2,1.0,u,0.0,False,1337.6000000238419,81.0,60.0,40.0,False,,229.25365116996443,[],"[768, 512]",ColorTask,1.0,5.0,,,HRV,HRV_0245,2022-11-30 19:46:10
,wl-rdm,13,98005,0.0-6.5-0.5,0.0,14.0,,,,,,,[],,,,,,73.6,0.0,u,0.0,True,3014.2999999523163,179.0,60.0,40.0,False,,278.3368074281477,[],"[768, 512]",ColorTask,2.0,6.0,,,HRV,HRV_0245,2022-11-30 19:46:10
,wl-rdm,14,101555,0.0-6.6-0.6,0.0,15.0,,,,,,,[],,,,,,53.2,0.0,u,0.0,True,2204.4999998807907,133.0,60.0,40.0,False,,267.07563586105914,[],"[768, 512]",ColorTask,3.0,7.0,,,HRV,HRV_0245,2022-11-30 19:46:10
,wl-rdm,15,103856,0.0-6.7-0.7,0.0,16.0,,,,,,,[],,,,,,87.9,0.0,u,0.0,True,900.8999998569489,55.0,60.0,40.0,False,,330.7273300297534,[],"[768, 512]",ColorTask,4.0,8.0,,,HRV,HRV_0245,2022-11-30 19:46:10
,wl-rdm,16,106372,0.0-6.8-0.8,0.0,17.0,,,,,,,[],,,,,,53.2,0.0,i,1.0,False,1222.299999833107,74.0,60.0,40.0,False,,203.121728172026,[],"[768, 512]",ColorTask,3.0,9.0,,,HRV,HRV_0245,2022-11-30 19:46:10
,wl-rdm,17,109405,0.0-6.9-0.9,0.0,18.0,,,,,,,[],,,,,,50.0,1.0,i,1.0,True,1657.6999999284744,100.0,60.0,40.0,False,,288.4956078009574,[],"[768, 512]",ColorTask,4.0,10.0,,,HRV,HRV_0245,2022-11-30 19:46:10
,wl-rdm,18,111473,0.0-6.10-0.10,0.0,19.0,,,,,,,[],,,,,,87.9,0.0,u,0.0,True,736.2999999523163,45.0,60.0,40.0,False,,255.0674669092,[],"[768, 512]",ColorTask,5.0,11.0,,,HRV,HRV_0245,2022-11-30 19:46:10
,wl-rdm,19,113773,0.0-6.11-0.11,0.0,20.0,,,,,,,[],,,,,,56.4,1.0,i,1.0,True,915.7999999523163,55.0,60.0,40.0,False,,318.06073569323627,[],"[768, 512]",ColorTask,6.0,12.0,,,HRV,HRV_0245,2022-11-30 19:46:10
,wl-rdm,20,116955,0.0-6.12-0.12,0.0,21.0,,,,,,,[],,,,,,50.0,0.0,i,1.0,False,1881.8999999761581,113.0,60.0,40.0,False,,249.9459460819175,[],"[768, 512]",ColorTask,5.0,13.0,,,HRV,HRV_0245,2022-11-30 19:46:10
,wl-rdm,21,119288,0.0-6.13-0.13,0.0,22.0,,,,,,,[],,,,,,50.0,1.0,i,1.0,True,1042.2000000476837,64.0,60.0,40.0,False,,200.05069651331578,[],"[768, 512]",ColorTask,6.0,14.0,,,HRV,HRV_0245,2022-11-30 19:46:10
,wl-rdm,22,122172,0.0-6.14-0.14,0.0,23.0,,,,,,,[],,,,,,50.0,0.0,i,1.0,False,1606.8000000715256,97.0,60.0,40.0,False,,208.92915524696664,[],"[768, 512]",ColorTask,5.0,15.0,,,HRV,HRV_0245,2022-11-30 19:46:10
,wl-rdm,23,124456,0.0-6.15-0.15,0.0,24.0,,,,,,,[],,,,,,73.6,1.0,i,1.0,True,979.1000000238419,59.0,60.0,40.0,False,,222.27748286904847,[],"[768, 512]",ColorTask,6.0,16.0,,,HRV,HRV_0245,2022-11-30 19:46:10
,wl-rdm,24,126739,0.0-6.16-0.16,0.0,25.0,,,,,,,[],,,,,,73.6,0.0,u,0.0,True,991.9000000953674,60.0,60.0,40.0,False,,216.62476211102177,[],"[768, 512]",ColorTask,7.0,17.0,,,HRV,HRV_0245,2022-11-30 19:46:10
,wl-rdm,25,129206,0.0-6.17-0.17,0.0,26.0,,,,,,,[],,,,,,56.4,1.0,i,1.0,True,1153.8999999761581,70.0,60.0,40.0,False,,242.89893390017335,[],"[768, 512]",ColorTask,8.0,18.0,,,HRV,HRV_0245,2022-11-30 19:46:10
,wl-rdm,26,131939,0.0-6.18-0.18,0.0,27.0,,,,,,,[],,,,,,53.2,0.0,u,0.0,True,1411.2999999523163,85.0,60.0,40.0,False,,257.61268862945957,[],"[768, 512]",ColorTask,9.0,19.0,,,HRV,HRV_0245,2022-11-30 19:46:10
,wl-rdm,27,134456,0.0-6.19-0.19,0.0,28.0,,,,,,,[],,,,,,56.4,1.0,i,1.0,True,1185.2000000476837,72.0,60.0,40.0,False,,256.60091763570915,[],"[768, 512]",ColorTask,10.0,20.0,,,HRV,HRV_0245,2022-11-30 19:46:10
,wl-rdm,28,137123,0.0-6.20-0.20,0.0,29.0,,,,,,,[],,,,,,50.0,0.0,i,1.0,False,1355.9999998807907,82.0,60.0,40.0,False,,229.2602795457619,[],"[768, 512]",ColorTask,9.0,21.0,,,HRV,HRV_0245,2022-11-30 19:46:10
,wl-rdm,29,139590,0.0-6.21-0.21,0.0,30.0,,,,,,,[],,,,,,62.5,0.0,u,0.0,True,1097.5,66.0,60.0,40.0,False,,293.26231987673776,[],"[768, 512]",ColorTask,10.0,22.0,,,HRV,HRV_0245,2022-11-30 19:46:10
,wl-rdm,30,142390,0.0-6.22-0.22,0.0,31.0,,,,,,,[],,,,,,50.0,1.0,u,0.0,False,1437.6000000238419,87.0,60.0,40.0,False,,299.2763873352618,[],"[768, 512]",ColorTask,9.0,23.0,,,HRV,HRV_0245,2022-11-30 19:46:10
,wl-rdm,31,144590,0.0-6.23-0.23,0.0,32.0,,,,,,,[],,,,,,73.6,1.0,i,1.0,True,741.7000000476837,45.0,60.0,40.0,False,,378.2109368542207,[],"[768, 512]",ColorTask,10.0,24.0,,,HRV,HRV_0245,2022-11-30 19:46:10
,wl-rdm,32,148973,0.0-6.24-0.24,0.0,32.0,,,,,,,[],,,,,,53.2,1.0,,,,,179.0,60.0,40.0,True,RT_timeout ,290.93109797735224,[],"[768, 512]",ColorTask,9.0,25.0,,,HRV,HRV_0245,2022-11-30 19:46:10
,wl-rdm,33,151674,0.0-6.25-0.25,0.0,33.0,,,,,,,[],,,,,,62.5,0.0,u,0.0,True,1313.6000000238419,79.0,60.0,40.0,False,,315.93206177222646,[],"[768, 512]",ColorTask,10.0,26.0,,,HRV,HRV_0245,2022-11-30 19:46:10
,wl-rdm,34,154957,0.0-6.26-0.26,0.0,34.0,,,,,,,[],,,,,,62.5,0.0,u,0.0,True,1896.6000000238419,114.0,60.0,40.0,False,,323.69611989583876,[],"[768, 512]",ColorTask,11.0,27.0,,,HRV,HRV_0245,2022-11-30 19:46:10
,wl-rdm,35,158640,0.0-6.27-0.27,0.0,35.0,,,,,,,[],,,,,,50.0,0.0,u,0.0,True,2395.4000000953674,144.0,60.0,40.0,False,,204.9732514933397,[],"[768, 512]",ColorTask,12.0,28.0,,,HRV,HRV_0245,2022-11-30 19:46:10
,wl-rdm,36,161361,0.0-6.28-0.28,0.0,36.0,,,,,,,[],,,,,,62.5,0.0,u,0.0,True,1404.7999999523163,85.0,60.0,40.0,False,,234.1953588819013,[],"[768, 512]",ColorTask,13.0,29.0,,,HRV,HRV_0245,2022-11-30 19:46:10
,wl-rdm,37,163508,0.0-6.29-0.29,0.0,37.0,,,,,,,[],,,,,,87.9,1.0,i,1.0,True,742.2999999523163,45.0,60.0,40.0,False,,346.9218642114415,[],"[768, 512]",ColorTask,14.0,30.0,,,HRV,HRV_0245,2022-11-30 19:46:10
,wl-rdm,38,165974,0.0-6.30-0.30,0.0,38.0,,,,,,,[],,,,,,56.4,0.0,i,1.0,False,1162.1000000238419,70.0,60.0,40.0,False,,242.82525758202647,[],"[768, 512]",ColorTask,13.0,31.0,,,HRV,HRV_0245,2022-11-30 19:46:10
,wl-rdm,39,168325,0.0-6.31-0.31,0.0,39.0,,,,,,,[],,,,,,62.5,0.0,u,0.0,True,989.0,60.0,60.0,40.0,False,,270.59755362357305,[],"[768, 512]",ColorTask,14.0,32.0,,,HRV,HRV_0245,2022-11-30 19:46:10
,wl-rdm,40,170758,0.0-6.32-0.32,0.0,40.0,,,,,,,[],,,,,,56.4,0.0,u,0.0,True,1008.5,61.0,60.0,40.0,False,,335.2573280426882,[],"[768, 512]",ColorTask,15.0,33.0,,,HRV,HRV_0245,2022-11-30 19:46:10
,wl-rdm,41,173425,0.0-6.33-0.33,0.0,41.0,,,,,,,[],,,,,,73.6,1.0,i,1.0,True,1231.799999833107,74.0,60.0,40.0,False,,379.34644286522825,[],"[768, 512]",ColorTask,16.0,34.0,,,HRV,HRV_0245,2022-11-30 19:46:10
,wl-rdm,42,176092,0.0-6.34-0.34,0.0,42.0,,,,,,,[],,,,,,62.5,0.0,u,0.0,True,1289.5,78.0,60.0,40.0,False,,289.4706360954344,[],"[768, 512]",ColorTask,17.0,35.0,,,HRV,HRV_0245,2022-11-30 19:46:10
,wl-rdm,43,178558,0.0-6.35-0.35,0.0,43.0,,,,,,,[],,,,,,50.0,1.0,u,0.0,False,1032.6000000238419,62.0,60.0,40.0,False,,362.21227030225845,[],"[768, 512]",ColorTask,16.0,36.0,,,HRV,HRV_0245,2022-11-30 19:46:10
,wl-rdm,44,180958,0.0-6.36-0.36,0.0,44.0,,,,,,,[],,,,,,53.2,1.0,i,1.0,True,990.8999999761581,60.0,60.0,40.0,False,,329.0087012673744,[],"[768, 512]",ColorTask,17.0,37.0,,,HRV,HRV_0245,2022-11-30 19:46:10
,wl-rdm,45,183475,0.0-6.37-0.37,0.0,45.0,,,,,,,[],,,,,,62.5,1.0,i,1.0,True,1224.6000000238419,74.0,60.0,40.0,False,,221.73632426354018,[],"[768, 512]",ColorTask,18.0,38.0,,,HRV,HRV_0245,2022-11-30 19:46:10
,wl-rdm,46,185842,0.0-6.38-0.38,0.0,46.0,,,,,,,[],,,,,,73.6,1.0,i,1.0,True,1048.7000000476837,63.0,60.0,40.0,False,,261.97875766042466,[],"[768, 512]",ColorTask,19.0,39.0,,,HRV,HRV_0245,2022-11-30 19:46:10
,wl-rdm,47,188425,0.0-6.39-0.39,0.0,47.0,,,,,,,[],,,,,,53.2,1.0,i,1.0,True,1282.3000000715256,77.0,60.0,40.0,False,,242.15367749178586,[],"[768, 512]",ColorTask,20.0,40.0,,,HRV,HRV_0245,2022-11-30 19:46:10
,wl-rdm,48,190592,0.0-6.40-0.40,0.0,48.0,,,,,,,[],,,,,,87.9,0.0,u,0.0,True,761.2000000476837,46.0,60.0,40.0,False,,321.1637261396695,[],"[768, 512]",ColorTask,21.0,41.0,,,HRV,HRV_0245,2022-11-30 19:46:10
,wl-rdm,49,192626,0.0-6.41-0.41,0.0,49.0,,,,,,,[],,,,,,87.9,1.0,i,1.0,True,705.7000000476837,43.0,60.0,40.0,False,,233.56313687706498,[],"[768, 512]",ColorTask,22.0,42.0,,,HRV,HRV_0245,2022-11-30 19:46:10
,wl-rdm,50,195243,0.0-6.42-0.42,0.0,50.0,,,,,,,[],,,,,,50.0,0.0,u,0.0,True,1186.1000000238419,72.0,60.0,40.0,False,,362.7232580175288,[],"[768, 512]",ColorTask,23.0,43.0,,,HRV,HRV_0245,2022-11-30 19:46:10
,wl-rdm,51,197393,0.0-6.43-0.43,0.0,51.0,,,,,,,[],,,,,,73.6,0.0,u,0.0,True,703.5999999046326,43.0,60.0,40.0,False,,375.2738368339791,[],"[768, 512]",ColorTask,24.0,44.0,,,HRV,HRV_0245,2022-11-30 19:46:10
,wl-rdm,52,200243,0.0-6.44-0.44,0.0,52.0,,,,,,,[],,,,,,53.2,0.0,u,0.0,True,1568.0,95.0,60.0,40.0,False,,200.46362006964821,[],"[768, 512]",ColorTask,25.0,45.0,,,HRV,HRV_0245,2022-11-30 19:46:10
,wl-rdm,53,202710,0.0-6.45-0.45,0.0,53.0,,,,,,,[],,,,,,50.0,0.0,i,1.0,False,1153.3999999761581,70.0,60.0,40.0,False,,220.1816568913178,[],"[768, 512]",ColorTask,24.0,46.0,,,HRV,HRV_0245,2022-11-30 19:46:10
,wl-rdm,54,205410,0.0-6.46-0.46,0.0,54.0,,,,,,,[],,,,,,53.2,1.0,i,1.0,True,1337.6000000238419,81.0,60.0,40.0,False,,290.20607937657405,[],"[768, 512]",ColorTask,25.0,47.0,,,HRV,HRV_0245,2022-11-30 19:46:10
,wl-rdm,55,208626,0.0-6.47-0.47,0.0,55.0,,,,,,,[],,,,,,56.4,1.0,i,1.0,True,1739.1000000238419,105.0,60.0,40.0,False,,395.1268658726791,[],"[768, 512]",ColorTask,26.0,48.0,,,HRV,HRV_0245,2022-11-30 19:46:10
,wl-rdm,56,211444,0.0-6.48-0.48,0.0,56.0,,,,,,,[],,,,,,62.5,1.0,i,1.0,True,1392.8000000715256,84.0,60.0,40.0,False,,337.7110190106879,[],"[768, 512]",ColorTask,27.0,49.0,,,HRV,HRV_0245,2022-11-30 19:46:10
,wl-rdm,57,214793,0.0-6.49-0.49,0.0,57.0,,,,,,,[],,,,,,56.4,0.0,u,0.0,True,2058.899999976158,124.0,60.0,40.0,False,,218.7830867562483,[],"[768, 512]",ColorTask,28.0,50.0,,,HRV,HRV_0245,2022-11-30 19:46:10
,wl-rdm,58,217377,0.0-6.50-0.50,0.0,58.0,,,,,,,[],,,,,,50.0,1.0,i,1.0,True,1244.0000001192093,75.0,60.0,40.0,False,,264.3907941517916,[],"[768, 512]",ColorTask,29.0,51.0,,,HRV,HRV_0245,2022-11-30 19:46:10
,wl-rdm,59,220077,0.0-6.51-0.51,0.0,59.0,,,,,,,[],,,,,,73.6,0.0,u,0.0,True,1280.5000001192093,77.0,60.0,40.0,False,,338.6724868396594,[],"[768, 512]",ColorTask,30.0,52.0,,,HRV,HRV_0245,2022-11-30 19:46:10
,wl-rdm,60,222343,0.0-6.52-0.52,0.0,60.0,,,,,,,[],,,,,,87.9,1.0,i,1.0,True,868.7999999523163,53.0,60.0,40.0,False,,309.75406569103325,[],"[768, 512]",ColorTask,31.0,53.0,,,HRV,HRV_0245,2022-11-30 19:46:10
,wl-rdm,61,224761,0.0-6.53-0.53,0.0,61.0,,,,,,,[],,,,,,87.9,1.0,i,1.0,True,989.7000000476837,60.0,60.0,40.0,False,,340.3689508351212,[],"[768, 512]",ColorTask,32.0,54.0,,,HRV,HRV_0245,2022-11-30 19:46:10
,wl-rdm,62,227344,0.0-6.54-0.54,0.0,62.0,,,,,,,[],,,,,,56.4,0.0,u,0.0,True,1299.2000000476837,78.0,60.0,40.0,False,,214.2904697377551,[],"[768, 512]",ColorTask,33.0,55.0,,,HRV,HRV_0245,2022-11-30 19:46:10
,wl-rdm,63,230361,0.0-6.55-0.55,0.0,63.0,,,,,,,[],,,,,,62.5,1.0,i,1.0,True,1698.0,102.0,60.0,40.0,False,,257.65878350975584,[],"[768, 512]",ColorTask,34.0,56.0,,,HRV,HRV_0245,2022-11-30 19:46:10
,wl-rdm,64,233411,0.0-6.56-0.56,0.0,64.0,,,,,,,[],,,,,,50.0,1.0,u,0.0,False,1605.3000000715256,97.0,60.0,40.0,False,,353.32049663913784,[],"[768, 512]",ColorTask,33.0,57.0,,,HRV,HRV_0245,2022-11-30 19:46:10
,wl-rdm,65,236444,0.0-6.57-0.57,0.0,65.0,,,,,,,[],,,,,,50.0,1.0,u,0.0,False,1619.8000000715256,97.0,60.0,40.0,False,,342.01896555170777,[],"[768, 512]",ColorTask,32.0,58.0,,,HRV,HRV_0245,2022-11-30 19:46:10
,wl-rdm,66,239477,0.0-6.58-0.58,0.0,66.0,,,,,,,[],,,,,,50.0,0.0,i,1.0,False,1721.7000000476837,104.0,60.0,40.0,False,,232.27994261707715,[],"[768, 512]",ColorTask,31.0,59.0,,,HRV,HRV_0245,2022-11-30 19:46:10
,wl-rdm,67,242261,0.0-6.59-0.59,0.0,67.0,,,,,,,[],,,,,,56.4,1.0,u,0.0,False,1333.8999999761581,81.0,60.0,40.0,False,,383.04588672406356,[],"[768, 512]",ColorTask,30.0,60.0,,,HRV,HRV_0245,2022-11-30 19:46:10
,wl-rdm,68,245844,0.0-6.60-0.60,0.0,68.0,,,,,,,[],,,,,,56.4,0.0,u,0.0,True,2230.399999976158,134.0,60.0,40.0,False,,271.0639429134248,[],"[768, 512]",ColorTask,31.0,61.0,,,HRV,HRV_0245,2022-11-30 19:46:10
,wl-rdm,69,249361,0.0-6.61-0.61,0.0,69.0,,,,,,,[],,,,,,53.2,0.0,u,0.0,True,2231.5,134.0,60.0,40.0,False,,201.9422076038397,[],"[768, 512]",ColorTask,32.0,62.0,,,HRV,HRV_0245,2022-11-30 19:46:10
,wl-rdm,70,252028,0.0-6.62-0.62,0.0,70.0,,,,,,,[],,,,,,62.5,1.0,i,1.0,True,1328.6999999284744,80.0,60.0,40.0,False,,273.0459925669519,[],"[768, 512]",ColorTask,33.0,63.0,,,HRV,HRV_0245,2022-11-30 19:46:10
,wl-rdm,71,254962,0.0-6.63-0.63,0.0,71.0,,,,,,,[],,,,,,73.6,0.0,u,0.0,True,1523.5999999046326,92.0,60.0,40.0,False,,339.9609239851195,[],"[768, 512]",ColorTask,34.0,64.0,,,HRV,HRV_0245,2022-11-30 19:46:10
,wl-rdm,72,257545,0.0-6.64-0.64,0.0,72.0,,,,,,,[],,,,,,87.9,1.0,i,1.0,True,1264.3999999761581,76.0,60.0,40.0,False,,249.46016015107836,[],"[768, 512]",ColorTask,35.0,65.0,,,HRV,HRV_0245,2022-11-30 19:46:10
,wl-rdm,73,260646,0.0-6.65-0.65,0.0,73.0,,,,,,,[],,,,,,62.5,1.0,i,1.0,True,1629.7999999523163,98.0,60.0,40.0,False,,390.49433615032103,[],"[768, 512]",ColorTask,36.0,66.0,,,HRV,HRV_0245,2022-11-30 19:46:10
,wl-rdm,74,263912,0.0-6.66-0.66,0.0,74.0,,,,,,,[],,,,,,73.6,1.0,i,1.0,True,1925.8999999761581,116.0,60.0,40.0,False,,274.4014594940124,[],"[768, 512]",ColorTask,37.0,67.0,,,HRV,HRV_0245,2022-11-30 19:46:10
,wl-rdm,75,267163,0.0-6.67-0.67,0.0,75.0,,,,,,,[],,,,,,53.2,0.0,u,0.0,True,1982.299999833107,119.0,60.0,40.0,False,,202.65829901651514,[],"[768, 512]",ColorTask,38.0,68.0,,,HRV,HRV_0245,2022-11-30 19:46:10
,wl-rdm,76,270129,0.0-6.68-0.68,0.0,76.0,,,,,,,[],,,,,,73.6,0.0,u,0.0,True,1675.5,101.0,60.0,40.0,False,,222.4660021614006,[],"[768, 512]",ColorTask,39.0,69.0,,,HRV,HRV_0245,2022-11-30 19:46:10
,wl-rdm,77,273029,0.0-6.69-0.69,0.0,77.0,,,,,,,[],,,,,,56.4,0.0,u,0.0,True,1437.9000000953674,87.0,60.0,40.0,False,,377.23494462605174,[],"[768, 512]",ColorTask,40.0,70.0,,,HRV,HRV_0245,2022-11-30 19:46:10
,wl-rdm,78,275779,0.0-6.70-0.70,0.0,78.0,,,,,,,[],,,,,,87.9,1.0,i,1.0,True,1411.2999999523163,85.0,60.0,40.0,False,,262.8763426289303,[],"[768, 512]",ColorTask,41.0,71.0,,,HRV,HRV_0245,2022-11-30 19:46:10
,wl-rdm,79,278663,0.0-6.71-0.71,0.0,79.0,,,,,,,[],,,,,,50.0,1.0,u,0.0,False,1462.3999999761581,88.0,60.0,40.0,False,,354.75833712361833,[],"[768, 512]",ColorTask,40.0,72.0,,,HRV,HRV_0245,2022-11-30 19:46:10
,wl-rdm,80,280946,0.0-6.72-0.72,0.0,80.0,,,,,,,[],,,,,,87.9,0.0,u,0.0,True,982.1000000238419,59.0,60.0,40.0,False,,250.49215763377765,[],"[768, 512]",ColorTask,41.0,73.0,,,HRV,HRV_0245,2022-11-30 19:46:10
,wl-rdm,81,284063,0.0-6.73-0.73,0.0,81.0,,,,,,,[],,,,,,53.2,0.0,u,0.0,True,1784.6999999284744,108.0,60.0,40.0,False,,251.78672085443625,[],"[768, 512]",ColorTask,42.0,74.0,,,HRV,HRV_0245,2022-11-30 19:46:10
,wl-rdm,82,286580,0.0-6.74-0.74,0.0,82.0,,,,,,,[],,,,,,73.6,1.0,i,1.0,True,1218.3999999761581,74.0,60.0,40.0,False,,210.43508683307604,[],"[768, 512]",ColorTask,43.0,75.0,,,HRV,HRV_0245,2022-11-30 19:46:10
,wl-rdm,83,289914,0.0-6.75-0.75,0.0,83.0,,,,,,,[],,,,,,73.6,1.0,i,1.0,True,1968.0,119.0,60.0,40.0,False,,279.49140798477345,[],"[768, 512]",ColorTask,44.0,76.0,,,HRV,HRV_0245,2022-11-30 19:46:10
,wl-rdm,84,292746,0.0-6.76-0.76,0.0,84.0,,,,,,,[],,,,,,73.6,0.0,u,0.0,True,1435.0,87.0,60.0,40.0,False,,300.6383291533111,[],"[768, 512]",ColorTask,45.0,77.0,,,HRV,HRV_0245,2022-11-30 19:46:10
,wl-rdm,85,295765,0.0-6.77-0.77,0.0,85.0,,,,,,,[],,,,,,87.9,0.0,u,0.0,True,1699.6999999284744,102.0,60.0,40.0,False,,253.94911238982436,[],"[768, 512]",ColorTask,46.0,78.0,,,HRV,HRV_0245,2022-11-30 19:46:10
,wl-rdm,86,298531,0.0-6.78-0.78,0.0,86.0,,,,,,,[],,,,,,73.6,1.0,i,1.0,True,1368.2000000476837,83.0,60.0,40.0,False,,316.8064212389294,[],"[768, 512]",ColorTask,47.0,79.0,,,HRV,HRV_0245,2022-11-30 19:46:10
,wl-rdm,87,301214,0.0-6.79-0.79,0.0,87.0,,,,,,,[],,,,,,56.4,0.0,u,0.0,True,1406.1000000238419,85.0,60.0,40.0,False,,209.94295687845414,[],"[768, 512]",ColorTask,48.0,80.0,,,HRV,HRV_0245,2022-11-30 19:46:10
,wl-rdm,88,304164,0.0-6.80-0.80,0.0,88.0,,,,,,,[],,,,,,53.2,0.0,u,0.0,True,1507.7000000476837,91.0,60.0,40.0,False,,380.26217303113214,[],"[768, 512]",ColorTask,49.0,81.0,,,HRV,HRV_0245,2022-11-30 19:46:10
,wl-rdm,89,306881,0.0-6.81-0.81,0.0,89.0,,,,,,,[],,,,,,50.0,0.0,u,0.0,True,1449.7999999523163,87.0,60.0,40.0,False,,210.26095923595685,[],"[768, 512]",ColorTask,50.0,82.0,,,HRV,HRV_0245,2022-11-30 19:46:10
,wl-rdm,90,309366,0.0-6.82-0.82,0.0,90.0,,,,,,,[],,,,,,87.9,0.0,u,0.0,True,1089.1999999284744,66.0,60.0,40.0,False,,323.6859619192968,[],"[768, 512]",ColorTask,51.0,83.0,,,HRV,HRV_0245,2022-11-30 19:46:10
,wl-rdm,91,311882,0.0-6.83-0.83,0.0,91.0,,,,,,,[],,,,,,56.4,1.0,i,1.0,True,1197.7999999523163,72.0,60.0,40.0,False,,240.64061083726682,[],"[768, 512]",ColorTask,52.0,84.0,,,HRV,HRV_0245,2022-11-30 19:46:10
,wl-rdm,92,314751,0.0-6.84-0.84,0.0,92.0,,,,,,,[],,,,,,62.5,0.0,u,0.0,True,1448.7000000476837,87.0,60.0,40.0,False,,345.55939364142705,[],"[768, 512]",ColorTask,53.0,85.0,,,HRV,HRV_0245,2022-11-30 19:46:10
,wl-rdm,93,317782,0.0-6.85-0.85,0.0,93.0,,,,,,,[],,,,,,53.2,1.0,u,0.0,False,1671.7000000476837,101.0,60.0,40.0,False,,293.8990996920262,[],"[768, 512]",ColorTask,52.0,86.0,,,HRV,HRV_0245,2022-11-30 19:46:10
,wl-rdm,94,320599,0.0-6.86-0.86,0.0,94.0,,,,,,,[],,,,,,53.2,1.0,i,1.0,True,1335.3000000715256,81.0,60.0,40.0,False,,382.8796307016937,[],"[768, 512]",ColorTask,53.0,87.0,,,HRV,HRV_0245,2022-11-30 19:46:10
,wl-rdm,95,323799,0.0-6.87-0.87,0.0,95.0,,,,,,,[],,,,,,56.4,1.0,i,1.0,True,1884.8999999761581,114.0,60.0,40.0,False,,217.53984622708518,[],"[768, 512]",ColorTask,54.0,88.0,,,HRV,HRV_0245,2022-11-30 19:46:10
,wl-rdm,96,326649,0.0-6.88-0.88,0.0,96.0,,,,,,,[],,,,,,53.2,1.0,u,0.0,False,1475.5,89.0,60.0,40.0,False,,298.78241545528465,[],"[768, 512]",ColorTask,53.0,89.0,,,HRV,HRV_0245,2022-11-30 19:46:10
,wl-rdm,97,329332,0.0-6.89-0.89,0.0,97.0,,,,,,,[],,,,,,73.6,0.0,u,0.0,True,1326.7000000476837,80.0,60.0,40.0,False,,284.0524513868239,[],"[768, 512]",ColorTask,54.0,90.0,,,HRV,HRV_0245,2022-11-30 19:46:10
,wl-rdm,98,332332,0.0-6.90-0.90,0.0,98.0,,,,,,,[],,,,,,73.6,0.0,u,0.0,True,1625.6999999284744,98.0,60.0,40.0,False,,288.27178195802196,[],"[768, 512]",ColorTask,55.0,91.0,,,HRV,HRV_0245,2022-11-30 19:46:10
,wl-rdm,99,335683,0.0-6.91-0.91,0.0,99.0,,,,,,,[],,,,,,50.0,0.0,u,0.0,True,2061.600000023842,124.0,60.0,40.0,False,,227.02665093346843,[],"[768, 512]",ColorTask,56.0,92.0,,,HRV,HRV_0245,2022-11-30 19:46:10
,wl-rdm,100,338233,0.0-6.92-0.92,0.0,100.0,,,,,,,[],,,,,,87.9,0.0,u,0.0,True,1172.8999999761581,71.0,60.0,40.0,False,,294.8841467398197,[],"[768, 512]",ColorTask,57.0,93.0,,,HRV,HRV_0245,2022-11-30 19:46:10
,wl-rdm,101,341017,0.0-6.93-0.93,0.0,101.0,,,,,,,[],,,,,,62.5,1.0,i,1.0,True,1472.6000000238419,89.0,60.0,40.0,False,,221.22604989894245,[],"[768, 512]",ColorTask,58.0,94.0,,,HRV,HRV_0245,2022-11-30 19:46:10
,wl-rdm,102,344084,0.0-6.94-0.94,0.0,102.0,,,,,,,[],,,,,,62.5,1.0,i,1.0,True,1778.6000000238419,107.0,60.0,40.0,False,,231.3687858026884,[],"[768, 512]",ColorTask,59.0,95.0,,,HRV,HRV_0245,2022-11-30 19:46:10
,wl-rdm,103,346450,0.0-6.95-0.95,0.0,103.0,,,,,,,[],,,,,,87.9,1.0,i,1.0,True,1009.6000000238419,61.0,60.0,40.0,False,,269.3187043551151,[],"[768, 512]",ColorTask,60.0,96.0,,,HRV,HRV_0245,2022-11-30 19:46:10
,wl-rdm,104,349484,0.0-6.96-0.96,0.0,104.0,,,,,,,[],,,,,,53.2,0.0,u,0.0,True,1559.0000001192093,94.0,60.0,40.0,False,,383.167452386625,[],"[768, 512]",ColorTask,61.0,97.0,,,HRV,HRV_0245,2022-11-30 19:46:10
,wl-rdm,105,352550,0.0-6.97-0.97,0.0,105.0,,,,,,,[],,,,,,56.4,1.0,i,1.0,True,1597.8000000715256,96.0,60.0,40.0,False,,383.3999792398509,[],"[768, 512]",ColorTask,62.0,98.0,,,HRV,HRV_0245,2022-11-30 19:46:10
,wl-rdm,106,355084,0.0-6.98-0.98,0.0,106.0,,,,,,,[],,,,,,87.9,0.0,u,0.0,True,1231.6000000238419,74.0,60.0,40.0,False,,247.39618413695896,[],"[768, 512]",ColorTask,63.0,99.0,,,HRV,HRV_0245,2022-11-30 19:46:10
,wl-rdm,107,358385,0.0-6.99-0.99,0.0,107.0,,,,,,,[],,,,,,62.5,0.0,u,0.0,True,1856.2000000476837,112.0,60.0,40.0,False,,358.8201446294214,[],"[768, 512]",ColorTask,64.0,100.0,,,HRV,HRV_0245,2022-11-30 19:46:10
,wl-rdm,108,361451,0.0-6.100-0.100,0.0,108.0,,,,,,,[],,,,,,50.0,1.0,i,1.0,True,1757.8999999761581,106.0,60.0,40.0,False,,248.36517759618673,[],"[768, 512]",ColorTask,65.0,101.0,,,HRV,HRV_0245,2022-11-30 19:46:10
,wl-rdm,109,364867,0.0-6.101-0.101,0.0,109.0,,,,,,,[],,,,,,87.9,0.0,u,0.0,True,2105.100000023842,127.0,60.0,40.0,False,,225.43578033443896,[],"[768, 512]",ColorTask,66.0,102.0,,,HRV,HRV_0245,2022-11-30 19:46:10
,wl-rdm,110,368434,0.0-6.102-0.102,0.0,110.0,,,,,,,[],,,,,,62.5,1.0,i,1.0,True,2140.0,129.0,60.0,40.0,False,,335.73720278886924,[],"[768, 512]",ColorTask,67.0,103.0,,,HRV,HRV_0245,2022-11-30 19:46:10
,wl-rdm,111,371518,0.0-6.103-0.103,0.0,111.0,,,,,,,[],,,,,,56.4,0.0,u,0.0,True,1810.5,109.0,60.0,40.0,False,,206.55122570731126,[],"[768, 512]",ColorTask,68.0,104.0,,,HRV,HRV_0245,2022-11-30 19:46:10
,wl-rdm,112,374417,0.0-6.104-0.104,0.0,112.0,,,,,,,[],,,,,,62.5,1.0,i,1.0,True,1554.6000000238419,94.0,60.0,40.0,False,,264.50118523745505,[],"[768, 512]",ColorTask,69.0,105.0,,,HRV,HRV_0245,2022-11-30 19:46:10
,wl-rdm,113,377535,0.0-6.105-0.105,0.0,113.0,,,,,,,[],,,,,,53.2,1.0,i,1.0,True,1688.8000000715256,102.0,60.0,40.0,False,,350.2906049475223,[],"[768, 512]",ColorTask,70.0,106.0,,,HRV,HRV_0245,2022-11-30 19:46:10
,wl-rdm,114,380485,0.0-6.106-0.106,0.0,114.0,,,,,,,[],,,,,,73.6,1.0,i,1.0,True,1663.3999999761581,100.0,60.0,40.0,False,,205.585648551718,[],"[768, 512]",ColorTask,71.0,107.0,,,HRV,HRV_0245,2022-11-30 19:46:10
,wl-rdm,115,383052,0.0-6.107-0.107,0.0,115.0,,,,,,,[],,,,,,87.9,1.0,i,1.0,True,1296.1000000238419,78.0,60.0,40.0,False,,206.61894101543328,[],"[768, 512]",ColorTask,72.0,108.0,,,HRV,HRV_0245,2022-11-30 19:46:10
,wl-rdm,116,385519,0.0-6.108-0.108,0.0,116.0,,,,,,,[],,,,,,87.9,1.0,i,1.0,True,1135.8000000715256,69.0,60.0,40.0,False,,234.16529168281946,[],"[768, 512]",ColorTask,73.0,109.0,,,HRV,HRV_0245,2022-11-30 19:46:10
,wl-html-keyboard-response,117,563136,0.0-7.0-0.0,1.0,117.0,,,,,,,,175608.79999995232,1.0,0,,,,,,,,,,,,,,,,,,,,,,HRV,HRV_0245,2022-11-30 19:46:10
,wl-rdm,118,566121,0.0-8.0-0.0,1.0,118.0,,,,,,,[],,,,,,50.0,1.0,u,0.0,False,1627.5,98.0,60.0,40.0,False,,287.76046832955154,[],"[768, 512]",ColorTask,72.0,1.0,,,HRV,HRV_0245,2022-11-30 19:46:10
,wl-rdm,119,568221,0.0-8.1-0.1,1.0,119.0,,,,,,,[],,,,,,50.0,0.0,i,1.0,False,762.3999999761581,46.0,60.0,40.0,False,,266.9032396632293,[],"[768, 512]",ColorTask,71.0,2.0,,,HRV,HRV_0245,2022-11-30 19:46:10
,wl-rdm,120,571771,0.0-8.2-0.2,1.0,120.0,,,,,,,[],,,,,,56.4,1.0,u,0.0,False,2221.5,134.0,60.0,40.0,False,,244.76329167609347,[],"[768, 512]",ColorTask,70.0,3.0,,,HRV,HRV_0245,2022-11-30 19:46:10
,wl-rdm,121,574005,0.0-8.3-0.3,1.0,121.0,,,,,,,[],,,,,,87.9,1.0,i,1.0,True,870.6000000238419,53.0,60.0,40.0,False,,274.3056420742721,[],"[768, 512]",ColorTask,71.0,4.0,,,HRV,HRV_0245,2022-11-30 19:46:10
,wl-rdm,122,577104,0.0-8.4-0.4,1.0,122.0,,,,,,,[],,,,,,56.4,0.0,u,0.0,True,1781.7000000476837,107.0,60.0,40.0,False,,255.16860495248773,[],"[768, 512]",ColorTask,72.0,5.0,,,HRV,HRV_0245,2022-11-30 19:46:10
,wl-rdm,123,579721,0.0-8.5-0.5,1.0,123.0,,,,,,,[],,,,,,73.6,1.0,i,1.0,True,1282.5,77.0,60.0,40.0,False,,270.5827466189744,[],"[768, 512]",ColorTask,73.0,6.0,,,HRV,HRV_0245,2022-11-30 19:46:10
,wl-rdm,124,582988,0.0-8.6-0.6,1.0,124.0,,,,,,,[],,,,,,50.0,0.0,u,0.0,True,1946.5,117.0,60.0,40.0,False,,240.76502996107075,[],"[768, 512]",ColorTask,74.0,7.0,,,HRV,HRV_0245,2022-11-30 19:46:10
,wl-rdm,125,586005,0.0-8.7-0.7,1.0,125.0,,,,,,,[],,,,,,50.0,0.0,u,0.0,True,1690.5,102.0,60.0,40.0,False,,261.92047637911253,[],"[768, 512]",ColorTask,75.0,8.0,,,HRV,HRV_0245,2022-11-30 19:46:10
,wl-rdm,126,588922,0.0-8.8-0.8,1.0,126.0,,,,,,,[],,,,,,87.9,0.0,u,0.0,True,1639.7000000476837,99.0,60.0,40.0,False,,209.6054244265514,[],"[768, 512]",ColorTask,76.0,9.0,,,HRV,HRV_0245,2022-11-30 19:46:10
,wl-rdm,127,592205,0.0-8.9-0.9,1.0,127.0,,,,,,,[],,,,,,53.2,0.0,u,0.0,True,1883.5,113.0,60.0,40.0,False,,328.4556133921087,[],"[768, 512]",ColorTask,77.0,10.0,,,HRV,HRV_0245,2022-11-30 19:46:10
,wl-rdm,128,595689,0.0-8.10-0.10,1.0,128.0,,,,,,,[],,,,,,50.0,0.0,i,1.0,False,2122.5999999046326,128.0,60.0,40.0,False,,297.99423678055507,[],"[768, 512]",ColorTask,76.0,11.0,,,HRV,HRV_0245,2022-11-30 19:46:10
,wl-rdm,129,598422,0.0-8.11-0.11,1.0,129.0,,,,,,,[],,,,,,87.9,0.0,u,0.0,True,1447.6000000238419,87.0,60.0,40.0,False,,201.38150607058986,[],"[768, 512]",ColorTask,77.0,12.0,,,HRV,HRV_0245,2022-11-30 19:46:10
,wl-rdm,130,601539,0.0-8.12-0.12,1.0,130.0,,,,,,,[],,,,,,56.4,0.0,u,0.0,True,1751.4999998807907,106.0,60.0,40.0,False,,288.0616119171003,[],"[768, 512]",ColorTask,78.0,13.0,,,HRV,HRV_0245,2022-11-30 19:46:10
,wl-rdm,131,603923,0.0-8.13-0.13,1.0,131.0,,,,,,,[],,,,,,87.9,1.0,i,1.0,True,1094.7999999523163,66.0,60.0,40.0,False,,206.84910782560652,[],"[768, 512]",ColorTask,79.0,14.0,,,HRV,HRV_0245,2022-11-30 19:46:10
,wl-rdm,132,606606,0.0-8.14-0.14,1.0,132.0,,,,,,,[],,,,,,53.2,0.0,u,0.0,True,1306.3999999761581,79.0,60.0,40.0,False,,314.16980329972887,[],"[768, 512]",ColorTask,80.0,15.0,,,HRV,HRV_0245,2022-11-30 19:46:10
,wl-rdm,133,609156,0.0-8.15-0.15,1.0,133.0,,,,,,,[],,,,,,73.6,0.0,u,0.0,True,1105.0999999046326,67.0,60.0,40.0,False,,372.2219222285617,[],"[768, 512]",ColorTask,81.0,16.0,,,HRV,HRV_0245,2022-11-30 19:46:10
,wl-rdm,134,612056,0.0-8.16-0.16,1.0,134.0,,,,,,,[],,,,,,50.0,0.0,i,1.0,False,1489.0,90.0,60.0,40.0,False,,325.727666503559,[],"[768, 512]",ColorTask,80.0,17.0,,,HRV,HRV_0245,2022-11-30 19:46:10
,wl-rdm,135,614439,0.0-8.17-0.17,1.0,135.0,,,,,,,[],,,,,,62.5,1.0,i,1.0,True,1000.0,60.0,60.0,40.0,False,,302.0468189934069,[],"[768, 512]",ColorTask,81.0,18.0,,,HRV,HRV_0245,2022-11-30 19:46:10
,wl-rdm,136,616556,0.0-8.18-0.18,1.0,136.0,,,,,,,[],,,,,,87.9,1.0,i,1.0,True,758.8000000715256,46.0,60.0,40.0,False,,267.80890610970084,[],"[768, 512]",ColorTask,82.0,19.0,,,HRV,HRV_0245,2022-11-30 19:46:10
,wl-rdm,137,619073,0.0-8.19-0.19,1.0,137.0,,,,,,,[],,,,,,56.4,1.0,u,0.0,False,1104.1999999284744,67.0,60.0,40.0,False,,317.73716114079593,[],"[768, 512]",ColorTask,81.0,20.0,,,HRV,HRV_0245,2022-11-30 19:46:10
,wl-rdm,138,621206,0.0-8.20-0.20,1.0,138.0,,,,,,,[],,,,,,87.9,1.0,i,1.0,True,701.3000000715256,43.0,60.0,40.0,False,,364.015387242836,[],"[768, 512]",ColorTask,82.0,21.0,,,HRV,HRV_0245,2022-11-30 19:46:10
,wl-rdm,139,623607,0.0-8.21-0.21,1.0,139.0,,,,,,,[],,,,,,53.2,0.0,u,0.0,True,1055.6000000238419,64.0,60.0,40.0,False,,251.21771120761554,[],"[768, 512]",ColorTask,83.0,22.0,,,HRV,HRV_0245,2022-11-30 19:46:10
,wl-rdm,140,625707,0.0-8.22-0.22,1.0,140.0,,,,,,,[],,,,,,87.9,1.0,i,1.0,True,796.3999999761581,48.0,60.0,40.0,False,,245.54193346028728,[],"[768, 512]",ColorTask,84.0,23.0,,,HRV,HRV_0245,2022-11-30 19:46:10
,wl-rdm,141,628224,0.0-8.23-0.23,1.0,141.0,,,,,,,[],,,,,,56.4,0.0,u,0.0,True,1107.6999999284744,67.0,60.0,40.0,False,,352.822007853747,[],"[768, 512]",ColorTask,85.0,24.0,,,HRV,HRV_0245,2022-11-30 19:46:10
,wl-rdm,142,630491,0.0-8.24-0.24,1.0,142.0,,,,,,,[],,,,,,62.5,1.0,i,1.0,True,955.8999998569489,58.0,60.0,40.0,False,,222.15857911735264,[],"[768, 512]",ColorTask,86.0,25.0,,,HRV,HRV_0245,2022-11-30 19:46:10
,wl-rdm,143,633007,0.0-8.25-0.25,1.0,143.0,,,,,,,[],,,,,,56.4,1.0,i,1.0,True,1103.0,67.0,60.0,40.0,False,,318.31689023210464,[],"[768, 512]",ColorTask,87.0,26.0,,,HRV,HRV_0245,2022-11-30 19:46:10
,wl-rdm,144,635374,0.0-8.26-0.26,1.0,144.0,,,,,,,[],,,,,,50.0,0.0,u,0.0,True,1046.7999999523163,63.0,60.0,40.0,False,,239.86998776227085,[],"[768, 512]",ColorTask,88.0,27.0,,,HRV,HRV_0245,2022-11-30 19:46:10
,wl-rdm,145,637524,0.0-8.27-0.27,1.0,145.0,,,,,,,[],,,,,,73.6,1.0,i,1.0,True,880.8999999761581,53.0,60.0,40.0,False,,208.60713011528287,[],"[768, 512]",ColorTask,89.0,28.0,,,HRV,HRV_0245,2022-11-30 19:46:10
,wl-rdm,146,640091,0.0-8.28-0.28,1.0,146.0,,,,,,,[],,,,,,62.5,1.0,i,1.0,True,1155.2999999523163,70.0,60.0,40.0,False,,322.15917755023474,[],"[768, 512]",ColorTask,90.0,29.0,,,HRV,HRV_0245,2022-11-30 19:46:10
,wl-rdm,147,642941,0.0-8.29-0.29,1.0,147.0,,,,,,,[],,,,,,50.0,0.0,u,0.0,True,1462.1000000238419,88.0,60.0,40.0,False,,326.3261901650983,[],"[768, 512]",ColorTask,91.0,30.0,,,HRV,HRV_0245,2022-11-30 19:46:10
,wl-rdm,148,645241,0.0-8.30-0.30,1.0,148.0,,,,,,,[],,,,,,50.0,1.0,u,0.0,False,968.5,59.0,60.0,40.0,False,,261.65888070265163,[],"[768, 512]",ColorTask,90.0,31.0,,,HRV,HRV_0245,2022-11-30 19:46:10
,wl-rdm,149,648358,0.0-8.31-0.31,1.0,149.0,,,,,,,[],,,,,,50.0,1.0,u,0.0,False,1822.2000000476837,110.0,60.0,40.0,False,,210.72054504846628,[],"[768, 512]",ColorTask,89.0,32.0,,,HRV,HRV_0245,2022-11-30 19:46:10
,wl-rdm,150,651441,0.0-8.32-0.32,1.0,150.0,,,,,,,[],,,,,,56.4,1.0,i,1.0,True,1679.7999999523163,101.0,60.0,40.0,False,,339.0874280599743,[],"[768, 512]",ColorTask,90.0,33.0,,,HRV,HRV_0245,2022-11-30 19:46:10
,wl-rdm,151,654058,0.0-8.33-0.33,1.0,151.0,,,,,,,[],,,,,,56.4,1.0,i,1.0,True,1192.4999998807907,72.0,60.0,40.0,False,,349.9530883674314,[],"[768, 512]",ColorTask,91.0,34.0,,,HRV,HRV_0245,2022-11-30 19:46:10
,wl-rdm,152,656609,0.0-8.34-0.34,1.0,152.0,,,,,,,[],,,,,,73.6,1.0,i,1.0,True,1215.5,73.0,60.0,40.0,False,,266.53205062855875,[],"[768, 512]",ColorTask,92.0,35.0,,,HRV,HRV_0245,2022-11-30 19:46:10
,wl-rdm,153,659442,0.0-8.35-0.35,1.0,153.0,,,,,,,[],,,,,,62.5,0.0,u,0.0,True,1372.2000000476837,83.0,60.0,40.0,False,,380.5015831668999,[],"[768, 512]",ColorTask,93.0,36.0,,,HRV,HRV_0245,2022-11-30 19:46:10
,wl-rdm,154,662542,0.0-8.36-0.36,1.0,154.0,,,,,,,[],,,,,,50.0,1.0,u,0.0,False,1777.7000000476837,107.0,60.0,40.0,False,,262.18566269258156,[],"[768, 512]",ColorTask,92.0,37.0,,,HRV,HRV_0245,2022-11-30 19:46:10
,wl-rdm,155,666059,0.0-8.37-0.37,1.0,155.0,,,,,,,[],,,,,,50.0,1.0,i,1.0,True,2237.6999999284744,135.0,60.0,40.0,False,,203.91099915521087,[],"[768, 512]",ColorTask,93.0,38.0,,,HRV,HRV_0245,2022-11-30 19:46:10
,wl-rdm,156,669326,0.0-8.38-0.38,1.0,156.0,,,,,,,[],,,,,,62.5,0.0,u,0.0,True,1818.7999999523163,110.0,60.0,40.0,False,,355.69353286598465,[],"[768, 512]",ColorTask,94.0,39.0,,,HRV,HRV_0245,2022-11-30 19:46:10
,wl-rdm,157,673376,0.0-8.39-0.39,1.0,157.0,,,,,,,[],,,,,,53.2,1.0,i,1.0,True,2590.100000023842,156.0,60.0,40.0,False,,388.91441569627636,[],"[768, 512]",ColorTask,95.0,40.0,,,HRV,HRV_0245,2022-11-30 19:46:10
,wl-rdm,158,676743,0.0-8.40-0.40,1.0,158.0,,,,,,,[],,,,,,53.2,1.0,u,0.0,False,2049.799999833107,123.0,60.0,40.0,False,,252.6091781764821,[],"[768, 512]",ColorTask,94.0,41.0,,,HRV,HRV_0245,2022-11-30 19:46:10
,wl-rdm,159,679842,0.0-8.41-0.41,1.0,159.0,,,,,,,[],,,,,,56.4,1.0,i,1.0,True,1699.5,102.0,60.0,40.0,False,,319.0540728268715,[],"[768, 512]",ColorTask,95.0,42.0,,,HRV,HRV_0245,2022-11-30 19:46:10
,wl-rdm,160,682592,0.0-8.42-0.42,1.0,160.0,,,,,,,[],,,,,,62.5,0.0,u,0.0,True,1330.2999999523163,80.0,60.0,40.0,False,,350.3369585347631,[],"[768, 512]",ColorTask,96.0,43.0,,,HRV,HRV_0245,2022-11-30 19:46:10
,wl-rdm,161,685327,0.0-8.43-0.43,1.0,161.0,,,,,,,[],,,,,,73.6,0.0,u,0.0,True,1391.6000000238419,84.0,60.0,40.0,False,,255.25714372584255,[],"[768, 512]",ColorTask,97.0,44.0,,,HRV,HRV_0245,2022-11-30 19:46:10
,wl-rdm,162,688401,0.0-8.44-0.44,1.0,162.0,,,,,,,[],,,,,,56.4,1.0,i,1.0,True,1617.2000000476837,98.0,60.0,40.0,False,,354.55632962870516,[],"[768, 512]",ColorTask,98.0,45.0,,,HRV,HRV_0245,2022-11-30 19:46:10
,wl-rdm,163,691210,0.0-8.45-0.45,1.0,163.0,,,,,,,[],,,,,,73.6,0.0,u,0.0,True,1395.7999999523163,84.0,60.0,40.0,False,,342.43911461004376,[],"[768, 512]",ColorTask,99.0,46.0,,,HRV,HRV_0245,2022-11-30 19:46:10
,wl-rdm,164,693676,0.0-8.46-0.46,1.0,164.0,,,,,,,[],,,,,,87.9,0.0,u,0.0,True,1147.4999998807907,69.0,60.0,40.0,False,,238.83671982534264,[],"[768, 512]",ColorTask,100.0,47.0,,,HRV,HRV_0245,2022-11-30 19:46:10
,wl-rdm,165,696310,0.0-8.47-0.47,1.0,165.0,,,,,,,[],,,,,,73.6,0.0,u,0.0,True,1286.8999999761581,78.0,60.0,40.0,False,,279.7414109227944,[],"[768, 512]",ColorTask,101.0,48.0,,,HRV,HRV_0245,2022-11-30 19:46:10
,wl-rdm,166,698810,0.0-8.48-0.48,1.0,166.0,,,,,,,[],,,,,,87.9,1.0,i,1.0,True,1213.1999999284744,73.0,60.0,40.0,False,,224.85988421939194,[],"[768, 512]",ColorTask,102.0,49.0,,,HRV,HRV_0245,2022-11-30 19:46:10
,wl-rdm,167,701393,0.0-8.49-0.49,1.0,167.0,,,,,,,[],,,,,,87.9,0.0,u,0.0,True,1212.6000000238419,73.0,60.0,40.0,False,,286.9980228627968,[],"[768, 512]",ColorTask,103.0,50.0,,,HRV,HRV_0245,2022-11-30 19:46:10
,wl-rdm,168,704228,0.0-8.50-0.50,1.0,168.0,,,,,,,[],,,,,,53.2,0.0,u,0.0,True,1563.6000000238419,94.0,60.0,40.0,False,,208.5153995528927,[],"[768, 512]",ColorTask,104.0,51.0,,,HRV,HRV_0245,2022-11-30 19:46:10
,wl-rdm,169,707061,0.0-8.51-0.51,1.0,169.0,,,,,,,[],,,,,,62.5,1.0,i,1.0,True,1501.5999999046326,91.0,60.0,40.0,False,,238.78357746835084,[],"[768, 512]",ColorTask,105.0,52.0,,,HRV,HRV_0245,2022-11-30 19:46:10
,wl-rdm,170,709577,0.0-8.52-0.52,1.0,170.0,,,,,,,[],,,,,,87.9,1.0,i,1.0,True,1164.9000000953674,70.0,60.0,40.0,False,,272.3335616349596,[],"[768, 512]",ColorTask,106.0,53.0,,,HRV,HRV_0245,2022-11-30 19:46:10
,wl-rdm,171,712761,0.0-8.53-0.53,1.0,171.0,,,,,,,[],,,,,,62.5,1.0,u,0.0,False,1793.5,108.0,60.0,40.0,False,,301.3919738543077,[],"[768, 512]",ColorTask,105.0,54.0,,,HRV,HRV_0245,2022-11-30 19:46:10
,wl-rdm,172,715594,0.0-8.54-0.54,1.0,172.0,,,,,,,[],,,,,,73.6,1.0,i,1.0,True,1424.5,86.0,60.0,40.0,False,,327.82983165705105,[],"[768, 512]",ColorTask,106.0,55.0,,,HRV,HRV_0245,2022-11-30 19:46:10
,wl-rdm,173,718427,0.0-8.55-0.55,1.0,173.0,,,,,,,[],,,,,,73.6,1.0,i,1.0,True,1467.8000000715256,89.0,60.0,40.0,False,,299.0669319690844,[],"[768, 512]",ColorTask,107.0,56.0,,,HRV,HRV_0245,2022-11-30 19:46:10
,wl-rdm,174,721311,0.0-8.56-0.56,1.0,174.0,,,,,,,[],,,,,,53.2,0.0,u,0.0,True,1590.2000000476837,96.0,60.0,40.0,False,,213.4785620988849,[],"[768, 512]",ColorTask,108.0,57.0,,,HRV,HRV_0245,2022-11-30 19:46:10
,wl-rdm,175,725128,0.0-8.57-0.57,1.0,175.0,,,,,,,[],,,,,,50.0,1.0,u,0.0,False,2538.5999999046326,153.0,60.0,40.0,False,,215.41318632765947,[],"[768, 512]",ColorTask,107.0,58.0,,,HRV,HRV_0245,2022-11-30 19:46:10
,wl-rdm,176,728244,0.0-8.58-0.58,1.0,176.0,,,,,,,[],,,,,,56.4,0.0,u,0.0,True,1841.0,111.0,60.0,40.0,False,,204.78189041934203,[],"[768, 512]",ColorTask,108.0,59.0,,,HRV,HRV_0245,2022-11-30 19:46:10
,wl-rdm,177,731078,0.0-8.59-0.59,1.0,177.0,,,,,,,[],,,,,,56.4,0.0,u,0.0,True,1478.3999999761581,89.0,60.0,40.0,False,,284.3084409827191,[],"[768, 512]",ColorTask,109.0,60.0,,,HRV,HRV_0245,2022-11-30 19:46:10
,wl-rdm,178,734162,0.0-8.60-0.60,1.0,178.0,,,,,,,[],,,,,,56.4,0.0,u,0.0,True,1641.5,99.0,60.0,40.0,False,,368.25654871636925,[],"[768, 512]",ColorTask,110.0,61.0,,,HRV,HRV_0245,2022-11-30 19:46:10
,wl-rdm,179,737312,0.0-8.61-0.61,1.0,179.0,,,,,,,[],,,,,,50.0,0.0,u,0.0,True,1838.3999999761581,111.0,60.0,40.0,False,,231.94094371916543,[],"[768, 512]",ColorTask,111.0,62.0,,,HRV,HRV_0245,2022-11-30 19:46:10
,wl-rdm,180,739462,0.0-8.62-0.62,1.0,180.0,,,,,,,[],,,,,,87.9,0.0,u,0.0,True,830.5,50.0,60.0,40.0,False,,251.63234318648097,[],"[768, 512]",ColorTask,112.0,63.0,,,HRV,HRV_0245,2022-11-30 19:46:10
,wl-rdm,181,742229,0.0-8.63-0.63,1.0,181.0,,,,,,,[],,,,,,62.5,0.0,u,0.0,True,1379.2000000476837,83.0,60.0,40.0,False,,327.7109477957165,[],"[768, 512]",ColorTask,113.0,64.0,,,HRV,HRV_0245,2022-11-30 19:46:10
,wl-rdm,182,745262,0.0-8.64-0.64,1.0,182.0,,,,,,,[],,,,,,53.2,0.0,u,0.0,True,1659.6000000238419,100.0,60.0,40.0,False,,286.3319859682636,[],"[768, 512]",ColorTask,114.0,65.0,,,HRV,HRV_0245,2022-11-30 19:46:10
,wl-rdm,183,748112,0.0-8.65-0.65,1.0,183.0,,,,,,,[],,,,,,73.6,1.0,i,1.0,True,1485.5999999046326,90.0,60.0,40.0,False,,273.7250520131554,[],"[768, 512]",ColorTask,115.0,66.0,,,HRV,HRV_0245,2022-11-30 19:46:10
,wl-rdm,184,752179,0.0-8.66-0.66,1.0,184.0,,,,,,,[],,,,,,56.4,0.0,i,1.0,False,2761.2999999523163,166.0,60.0,40.0,False,,238.45749732008207,[],"[768, 512]",ColorTask,114.0,67.0,,,HRV,HRV_0245,2022-11-30 19:46:10
,wl-rdm,185,755146,0.0-8.67-0.67,1.0,185.0,,,,,,,[],,,,,,62.5,1.0,i,1.0,True,1652.0000001192093,100.0,60.0,40.0,False,,225.94084845014785,[],"[768, 512]",ColorTask,115.0,68.0,,,HRV,HRV_0245,2022-11-30 19:46:10
,wl-rdm,186,758346,0.0-8.68-0.68,1.0,186.0,,,,,,,[],,,,,,56.4,0.0,u,0.0,True,1900.8000000715256,115.0,60.0,40.0,False,,227.93186956919791,[],"[768, 512]",ColorTask,116.0,69.0,,,HRV,HRV_0245,2022-11-30 19:46:10
,wl-rdm,187,761329,0.0-8.69-0.69,1.0,187.0,,,,,,,[],,,,,,56.4,1.0,i,1.0,True,1690.5,102.0,60.0,40.0,False,,224.4676886337278,[],"[768, 512]",ColorTask,117.0,70.0,,,HRV,HRV_0245,2022-11-30 19:46:10
,wl-rdm,188,764830,0.0-8.70-0.70,1.0,188.0,,,,,,,[],,,,,,62.5,0.0,u,0.0,True,2029.6999999284744,122.0,60.0,40.0,False,,386.453114516759,[],"[768, 512]",ColorTask,118.0,71.0,,,HRV,HRV_0245,2022-11-30 19:46:10
,wl-rdm,189,767812,0.0-8.71-0.71,1.0,189.0,,,,,,,[],,,,,,62.5,0.0,u,0.0,True,1601.8999999761581,97.0,60.0,40.0,False,,287.55944460700493,[],"[768, 512]",ColorTask,119.0,72.0,,,HRV,HRV_0245,2022-11-30 19:46:10
,wl-rdm,190,770763,0.0-8.72-0.72,1.0,190.0,,,,,,,[],,,,,,50.0,1.0,i,1.0,True,1574.2000000476837,95.0,60.0,40.0,False,,292.5090537686826,[],"[768, 512]",ColorTask,120.0,73.0,,,HRV,HRV_0245,2022-11-30 19:46:10
,wl-rdm,191,773480,0.0-8.73-0.73,1.0,191.0,,,,,,,[],,,,,,53.2,1.0,i,1.0,True,1429.7000000476837,86.0,60.0,40.0,False,,224.45361298707397,[],"[768, 512]",ColorTask,121.0,74.0,,,HRV,HRV_0245,2022-11-30 19:46:10
,wl-rdm,192,776097,0.0-8.74-0.74,1.0,192.0,,,,,,,[],,,,,,87.9,0.0,u,0.0,True,1305.5,79.0,60.0,40.0,False,,236.37733925184827,[],"[768, 512]",ColorTask,122.0,75.0,,,HRV,HRV_0245,2022-11-30 19:46:10
,wl-rdm,193,779047,0.0-8.75-0.75,1.0,193.0,,,,,,,[],,,,,,50.0,1.0,i,1.0,True,1625.7000000476837,98.0,60.0,40.0,False,,256.27892111798064,[],"[768, 512]",ColorTask,123.0,76.0,,,HRV,HRV_0245,2022-11-30 19:46:10
,wl-rdm,194,781730,0.0-8.76-0.76,1.0,194.0,,,,,,,[],,,,,,53.2,0.0,i,1.0,False,1335.0000001192093,81.0,60.0,40.0,False,,265.3621901558577,[],"[768, 512]",ColorTask,122.0,77.0,,,HRV,HRV_0245,2022-11-30 19:46:10
,wl-rdm,195,784430,0.0-8.77-0.77,1.0,195.0,,,,,,,[],,,,,,62.5,1.0,i,1.0,True,1392.0,84.0,60.0,40.0,False,,230.5238357699419,[],"[768, 512]",ColorTask,123.0,78.0,,,HRV,HRV_0245,2022-11-30 19:46:10
,wl-rdm,196,787431,0.0-8.78-0.78,1.0,196.0,,,,,,,[],,,,,,53.2,1.0,u,0.0,False,1537.8999999761581,93.0,60.0,40.0,False,,380.52688019501335,[],"[768, 512]",ColorTask,122.0,79.0,,,HRV,HRV_0245,2022-11-30 19:46:10
,wl-rdm,197,790281,0.0-8.79-0.79,1.0,197.0,,,,,,,[],,,,,,50.0,1.0,u,0.0,False,1528.1000000238419,92.0,60.0,40.0,False,,258.47904734899413,[],"[768, 512]",ColorTask,121.0,80.0,,,HRV,HRV_0245,2022-11-30 19:46:10
,wl-rdm,198,792664,0.0-8.80-0.80,1.0,198.0,,,,,,,[],,,,,,73.6,1.0,i,1.0,True,1053.8999999761581,64.0,60.0,40.0,False,,236.74856416968512,[],"[768, 512]",ColorTask,122.0,81.0,,,HRV,HRV_0245,2022-11-30 19:46:10
,wl-rdm,199,795548,0.0-8.81-0.81,1.0,199.0,,,,,,,[],,,,,,56.4,1.0,i,1.0,True,1542.7999999523163,93.0,60.0,40.0,False,,254.26964068667877,[],"[768, 512]",ColorTask,123.0,82.0,,,HRV,HRV_0245,2022-11-30 19:46:10
,wl-rdm,200,798431,0.0-8.82-0.82,1.0,200.0,,,,,,,[],,,,,,73.6,0.0,u,0.0,True,1501.6000000238419,91.0,60.0,40.0,False,,292.51003275933317,[],"[768, 512]",ColorTask,124.0,83.0,,,HRV,HRV_0245,2022-11-30 19:46:10
,wl-rdm,201,801565,0.0-8.83-0.83,1.0,201.0,,,,,,,[],,,,,,87.9,0.0,u,0.0,True,1805.4999998807907,109.0,60.0,40.0,False,,250.5311118951833,[],"[768, 512]",ColorTask,125.0,84.0,,,HRV,HRV_0245,2022-11-30 19:46:10
,wl-rdm,202,804798,0.0-8.84-0.84,1.0,202.0,,,,,,,[],,,,,,87.9,0.0,u,0.0,True,1879.2999999523163,113.0,60.0,40.0,False,,293.02926761210483,[],"[768, 512]",ColorTask,126.0,85.0,,,HRV,HRV_0245,2022-11-30 19:46:10
,wl-rdm,203,808065,0.0-8.85-0.85,1.0,203.0,,,,,,,[],,,,,,53.2,1.0,i,1.0,True,1934.6999999284744,117.0,60.0,40.0,False,,252.41411662528185,[],"[768, 512]",ColorTask,127.0,86.0,,,HRV,HRV_0245,2022-11-30 19:46:10
,wl-rdm,204,810748,0.0-8.86-0.86,1.0,204.0,,,,,,,[],,,,,,87.9,1.0,i,1.0,True,1297.7000000476837,78.0,60.0,40.0,False,,310.45051554963493,[],"[768, 512]",ColorTask,128.0,87.0,,,HRV,HRV_0245,2022-11-30 19:46:10
,wl-rdm,205,813165,0.0-8.87-0.87,1.0,205.0,,,,,,,[],,,,,,53.2,0.0,u,0.0,True,1096.3000000715256,66.0,60.0,40.0,False,,261.1871039657751,[],"[768, 512]",ColorTask,129.0,88.0,,,HRV,HRV_0245,2022-11-30 19:46:10
,wl-rdm,206,815866,0.0-8.88-0.88,1.0,206.0,,,,,,,[],,,,,,62.5,0.0,u,0.0,True,1406.0,85.0,60.0,40.0,False,,219.12207624658495,[],"[768, 512]",ColorTask,130.0,89.0,,,HRV,HRV_0245,2022-11-30 19:46:10
,wl-rdm,207,818849,0.0-8.89-0.89,1.0,207.0,,,,,,,[],,,,,,87.9,0.0,u,0.0,True,1648.8999999761581,99.0,60.0,40.0,False,,274.99684782307367,[],"[768, 512]",ColorTask,131.0,90.0,,,HRV,HRV_0245,2022-11-30 19:46:10
,wl-rdm,208,822033,0.0-8.90-0.90,1.0,208.0,,,,,,,[],,,,,,56.4,0.0,u,0.0,True,1751.7000000476837,106.0,60.0,40.0,False,,366.0251437241761,[],"[768, 512]",ColorTask,132.0,91.0,,,HRV,HRV_0245,2022-11-30 19:46:10
,wl-rdm,209,825132,0.0-8.91-0.91,1.0,209.0,,,,,,,[],,,,,,53.2,1.0,i,1.0,True,1711.8000000715256,103.0,60.0,40.0,False,,316.377568675611,[],"[768, 512]",ColorTask,133.0,92.0,,,HRV,HRV_0245,2022-11-30 19:46:10
,wl-rdm,210,828316,0.0-8.92-0.92,1.0,210.0,,,,,,,[],,,,,,53.2,0.0,u,0.0,True,1768.0,107.0,60.0,40.0,False,,346.5936122254818,[],"[768, 512]",ColorTask,134.0,93.0,,,HRV,HRV_0245,2022-11-30 19:46:10
,wl-rdm,211,831133,0.0-8.93-0.93,1.0,211.0,,,,,,,[],,,,,,73.6,0.0,u,0.0,True,1494.4999998807907,90.0,60.0,40.0,False,,246.43510107679492,[],"[768, 512]",ColorTask,135.0,94.0,,,HRV,HRV_0245,2022-11-30 19:46:10
,wl-rdm,212,834350,0.0-8.94-0.94,1.0,212.0,,,,,,,[],,,,,,62.5,0.0,u,0.0,True,1823.8000000715256,110.0,60.0,40.0,False,,330.6598402893907,[],"[768, 512]",ColorTask,136.0,95.0,,,HRV,HRV_0245,2022-11-30 19:46:10
,wl-rdm,213,836949,0.0-8.95-0.95,1.0,213.0,,,,,,,[],,,,,,62.5,1.0,i,1.0,True,1261.3000000715256,76.0,60.0,40.0,False,,256.6106729010218,[],"[768, 512]",ColorTask,137.0,96.0,,,HRV,HRV_0245,2022-11-30 19:46:10
,wl-rdm,214,839983,0.0-8.96-0.96,1.0,214.0,,,,,,,[],,,,,,53.2,1.0,i,1.0,True,1709.5,103.0,60.0,40.0,False,,236.44152787222083,[],"[768, 512]",ColorTask,138.0,97.0,,,HRV,HRV_0245,2022-11-30 19:46:10
,wl-rdm,215,843033,0.0-8.97-0.97,1.0,215.0,,,,,,,[],,,,,,62.5,1.0,i,1.0,True,1746.8999998569489,105.0,60.0,40.0,False,,246.591244939484,[],"[768, 512]",ColorTask,139.0,98.0,,,HRV,HRV_0245,2022-11-30 19:46:10
,wl-rdm,216,845750,0.0-8.98-0.98,1.0,216.0,,,,,,,[],,,,,,73.6,1.0,i,1.0,True,1429.8999999761581,86.0,60.0,40.0,False,,201.80232884848598,[],"[768, 512]",ColorTask,140.0,99.0,,,HRV,HRV_0245,2022-11-30 19:46:10
,wl-rdm,217,848600,0.0-8.99-0.99,1.0,217.0,,,,,,,[],,,,,,53.2,1.0,i,1.0,True,1499.9000000953674,90.0,60.0,40.0,False,,289.1672442195762,[],"[768, 512]",ColorTask,141.0,100.0,,,HRV,HRV_0245,2022-11-30 19:46:10
,wl-rdm,218,851383,0.0-8.100-0.100,1.0,218.0,,,,,,,[],,,,,,87.9,1.0,i,1.0,True,1460.8000000715256,88.0,60.0,40.0,False,,239.51271447662816,[],"[768, 512]",ColorTask,142.0,101.0,,,HRV,HRV_0245,2022-11-30 19:46:10
,wl-rdm,219,854417,0.0-8.101-0.101,1.0,219.0,,,,,,,[],,,,,,73.6,0.0,u,0.0,True,1720.6000000238419,104.0,60.0,40.0,False,,244.66315889835286,[],"[768, 512]",ColorTask,143.0,102.0,,,HRV,HRV_0245,2022-11-30 19:46:10
,wl-rdm,220,856934,0.0-8.102-0.102,1.0,220.0,,,,,,,[],,,,,,73.6,1.0,u,0.0,False,1232.3999999761581,74.0,60.0,40.0,False,,228.1861695753123,[],"[768, 512]",ColorTask,142.0,103.0,,,HRV,HRV_0245,2022-11-30 19:46:10
,wl-rdm,221,859984,0.0-8.103-0.103,1.0,221.0,,,,,,,[],,,,,,73.6,0.0,i,1.0,False,1688.5,102.0,60.0,40.0,False,,291.71770546646786,[],"[768, 512]",ColorTask,141.0,104.0,,,HRV,HRV_0245,2022-11-30 19:46:10
,wl-rdm,222,862901,0.0-8.104-0.104,1.0,222.0,,,,,,,[],,,,,,53.2,1.0,i,1.0,True,1585.0,96.0,60.0,40.0,False,,235.13975106423868,[],"[768, 512]",ColorTask,142.0,105.0,,,HRV,HRV_0245,2022-11-30 19:46:10
,wl-rdm,223,865451,0.0-8.105-0.105,1.0,223.0,,,,,,,[],,,,,,62.5,0.0,u,0.0,True,1226.4999998807907,74.0,60.0,40.0,False,,247.77263823609684,[],"[768, 512]",ColorTask,143.0,106.0,,,HRV,HRV_0245,2022-11-30 19:46:10
,wl-rdm,224,868201,0.0-8.106-0.106,1.0,224.0,,,,,,,[],,,,,,73.6,0.0,u,0.0,True,1473.7999999523163,89.0,60.0,40.0,False,,202.91069218904508,[],"[768, 512]",ColorTask,144.0,107.0,,,HRV,HRV_0245,2022-11-30 19:46:10
,wl-rdm,225,871418,0.0-8.107-0.107,1.0,225.0,,,,,,,[],,,,,,50.0,0.0,u,0.0,True,1867.8999999761581,113.0,60.0,40.0,False,,262.90421939925324,[],"[768, 512]",ColorTask,145.0,108.0,,,HRV,HRV_0245,2022-11-30 19:46:10
,wl-html-button-response,226,880879,0.0-9.0-0.0,,,,,,,,,,9455.399999976158,,0,,,,,,,,,,,,,,,,,,,,<h3>End of this session. Thank you!</h3><br>,['Close window'],HRV,HRV_0245,2022-11-30 19:46:10
