trialN,stimuli,trialStartTime,trialStartTime_UNIX,stimulus1,stimulus2,stimulus1Bid,stimulus2Bid,delta,selected,rt,rt_UNIX,rt_perfnow,receivedResponse,rsp,trialEndTime,trialDuration,trialEndTime_UNIX,trialDuration_UNIX,exp,subjectId,date
0,"[{'imgObject': {}, 'id': 'sweetpotato', 'src': '/static/foodstim60/sweetpotato.jpg', 'key': 'u', 'origWidth': 410, 'origHeight': 410, 'width': 410, 'height': 410, 'widthPercent': 0.45, 'rescaleHeight': False, 'trialN': 0, 'loaded': True, 'loadedTime': 2401.7000000476837, 'positionName': 'LEFT', 'positionCoords': [327.28, 307], 'bid': 1.56}, {'imgObject': {}, 'id': 'lox', 'src': '/static/foodstim60/lox.jpg', 'key': 'i', 'origWidth': 410, 'origHeight': 411, 'width': 410, 'height': 411, 'widthPercent': 0.45, 'rescaleHeight': False, 'trialN': 0, 'loaded': True, 'loadedTime': 2433.7000000476837, 'positionName': 'RIGHT', 'positionCoords': [798.72, 306.5], 'bid': 1.75}]",2990.899999976158,1669836414881,sweetpotato,lox,1.56,1.75,0.18999999999999995,sweetpotato,2613.100000023842,2614,2614.0,True,u,6113.700000047684,3122.8000000715256,1669836418004,3123,HRV,HRV_0245,2022-11-30 19:31:24
1,"[{'imgObject': {}, 'id': 'corn cob', 'src': '/static/foodstim60/corn cob.jpg', 'key': 'u', 'origWidth': 411, 'origHeight': 411, 'width': 411, 'height': 411, 'widthPercent': 0.45, 'rescaleHeight': False, 'trialN': 1, 'loaded': True, 'loadedTime': 2454.100000023842, 'positionName': 'LEFT', 'positionCoords': [326.28, 306.5], 'bid': 3.99}, {'imgObject': {}, 'id': 'seaweed', 'src': '/static/foodstim60/seaweed.jpg', 'key': 'i', 'origWidth': 410, 'origHeight': 410, 'width': 410, 'height': 410, 'widthPercent': 0.45, 'rescaleHeight': False, 'trialN': 1, 'loaded': True, 'loadedTime': 2479.600000023842, 'positionName': 'RIGHT', 'positionCoords': [798.72, 307], 'bid': 0.41}]",6113.899999976158,1669836418004,corn cob,seaweed,3.99,0.41,-3.58,corn cob,756.4000000953674,757,757.0,True,u,7386.800000071526,1272.9000000953674,1669836419277,1273,HRV,HRV_0245,2022-11-30 19:31:24
2,"[{'imgObject': {}, 'id': 'blackbeanswithrice', 'src': '/static/foodstim60/blackbeanswithrice.jpg', 'key': 'u', 'origWidth': 410, 'origHeight': 410, 'width': 410, 'height': 410, 'widthPercent': 0.45, 'rescaleHeight': False, 'trialN': 2, 'loaded': True, 'loadedTime': 2516.3000000715256, 'positionName': 'LEFT', 'positionCoords': [327.28, 307], 'bid': 6.2700000000000005}, {'imgObject': {}, 'id': 'shreddedwheatwithmilk', 'src': '/static/foodstim60/shreddedwheatwithmilk.jpg', 'key': 'i', 'origWidth': 410, 'origHeight': 410, 'width': 410, 'height': 410, 'widthPercent': 0.45, 'rescaleHeight': False, 'trialN': 2, 'loaded': True, 'loadedTime': 2529.5, 'positionName': 'RIGHT', 'positionCoords': [798.72, 307], 'bid': 5.09}]",7387.200000047684,1669836419278,blackbeanswithrice,shreddedwheatwithmilk,6.2700000000000005,5.09,-1.1800000000000006,blackbeanswithrice,784.6000000238419,785,785.1000000238419,True,u,8680.100000023842,1292.8999999761581,1669836420571,1293,HRV,HRV_0245,2022-11-30 19:31:24
3,"[{'imgObject': {}, 'id': 'raspberries', 'src': '/static/foodstim60/raspberries.jpg', 'key': 'u', 'origWidth': 411, 'origHeight': 411, 'width': 411, 'height': 411, 'widthPercent': 0.45, 'rescaleHeight': False, 'trialN': 3, 'loaded': True, 'loadedTime': 2581.3000000715256, 'positionName': 'LEFT', 'positionCoords': [326.28, 306.5], 'bid': 5.13}, {'imgObject': {}, 'id': 'burrito', 'src': '/static/foodstim60/burrito.jpg', 'key': 'i', 'origWidth': 410, 'origHeight': 410, 'width': 410, 'height': 410, 'widthPercent': 0.45, 'rescaleHeight': False, 'trialN': 3, 'loaded': True, 'loadedTime': 2592.600000023842, 'positionName': 'RIGHT', 'positionCoords': [798.72, 307], 'bid': 5.45}]",8680.300000071526,1669836420571,raspberries,burrito,5.13,5.45,0.3200000000000003,burrito,806.5,807,807.0,True,i,10001.100000023842,1320.7999999523163,1669836421892,1321,HRV,HRV_0245,2022-11-30 19:31:24
4,"[{'imgObject': {}, 'id': 'tacos', 'src': '/static/foodstim60/tacos.jpg', 'key': 'u', 'origWidth': 411, 'origHeight': 411, 'width': 411, 'height': 411, 'widthPercent': 0.45, 'rescaleHeight': False, 'trialN': 4, 'loaded': True, 'loadedTime': 2616, 'positionName': 'LEFT', 'positionCoords': [326.28, 306.5], 'bid': 4.32}, {'imgObject': {}, 'id': 'cocktailshrimp', 'src': '/static/foodstim60/cocktailshrimp.jpg', 'key': 'i', 'origWidth': 410, 'origHeight': 410, 'width': 410, 'height': 410, 'widthPercent': 0.45, 'rescaleHeight': False, 'trialN': 4, 'loaded': True, 'loadedTime': 2629.600000023842, 'positionName': 'RIGHT', 'positionCoords': [798.72, 307], 'bid': 1.19}]",10001.300000071526,1669836421892,tacos,cocktailshrimp,4.32,1.19,-3.1300000000000003,tacos,725.0,725,725.5,True,u,11238.0,1236.6999999284744,1669836423128,1236,HRV,HRV_0245,2022-11-30 19:31:24
5,"[{'imgObject': {}, 'id': 'seaweed', 'src': '/static/foodstim60/seaweed.jpg', 'key': 'u', 'origWidth': 410, 'origHeight': 410, 'width': 410, 'height': 410, 'widthPercent': 0.45, 'rescaleHeight': False, 'trialN': 5, 'loaded': True, 'loadedTime': 2480.100000023842, 'positionName': 'LEFT', 'positionCoords': [327.28, 307], 'bid': 0.41}, {'imgObject': {}, 'id': 'sushi w_condiments', 'src': '/static/foodstim60/sushi w_condiments.jpg', 'key': 'i', 'origWidth': 410, 'origHeight': 410, 'width': 410, 'height': 410, 'widthPercent': 0.45, 'rescaleHeight': False, 'trialN': 5, 'loaded': True, 'loadedTime': 2643.7000000476837, 'positionName': 'RIGHT', 'positionCoords': [798.72, 307], 'bid': 0.5}]",11238.300000071526,1669836423129,seaweed,sushi w_condiments,0.41,0.5,0.09000000000000002,sushi w_condiments,621.1999999284744,621,621.5999999046326,True,i,12368.700000047684,1130.3999999761581,1669836424259,1130,HRV,HRV_0245,2022-11-30 19:31:24
6,"[{'imgObject': {}, 'id': 'hotdog w must', 'src': '/static/foodstim60/hotdog w must.jpg', 'key': 'u', 'origWidth': 409, 'origHeight': 409, 'width': 409, 'height': 409, 'widthPercent': 0.45, 'rescaleHeight': False, 'trialN': 6, 'loaded': True, 'loadedTime': 2660.5, 'positionName': 'LEFT', 'positionCoords': [328.28, 307.5], 'bid': 3.26}, {'imgObject': {}, 'id': 'raisin bran w milk', 'src': '/static/foodstim60/raisin bran w milk.jpg', 'key': 'i', 'origWidth': 411, 'origHeight': 411, 'width': 411, 'height': 411, 'widthPercent': 0.45, 'rescaleHeight': False, 'trialN': 6, 'loaded': True, 'loadedTime': 2667.100000023842, 'positionName': 'RIGHT', 'positionCoords': [798.72, 306.5], 'bid': 4.28}]",12368.899999976158,1669836424259,hotdog w must,raisin bran w milk,3.26,4.28,1.0200000000000005,raisin bran w milk,1011.6000000238419,1012,1012.1000000238419,True,i,13883.100000023842,1514.2000000476837,1669836425774,1515,HRV,HRV_0245,2022-11-30 19:31:24
7,"[{'imgObject': {}, 'id': 'orange slices', 'src': '/static/foodstim60/orange slices.jpg', 'key': 'u', 'origWidth': 409, 'origHeight': 410, 'width': 409, 'height': 410, 'widthPercent': 0.45, 'rescaleHeight': False, 'trialN': 7, 'loaded': True, 'loadedTime': 2671.899999976158, 'positionName': 'LEFT', 'positionCoords': [328.28, 307], 'bid': 6.11}, {'imgObject': {}, 'id': 'ice cream sundae 002', 'src': '/static/foodstim60/ice cream sundae 002.jpg', 'key': 'i', 'origWidth': 409, 'origHeight': 409, 'width': 409, 'height': 409, 'widthPercent': 0.45, 'rescaleHeight': False, 'trialN': 7, 'loaded': True, 'loadedTime': 2697.399999976158, 'positionName': 'RIGHT', 'positionCoords': [798.72, 307.5], 'bid': 5.87}]",13883.399999976158,1669836425774,orange slices,ice cream sundae 002,6.11,5.87,-0.2400000000000002,orange slices,648.4000000953674,649,648.9000000953674,True,u,15043.800000071526,1160.4000000953674,1669836426934,1160,HRV,HRV_0245,2022-11-30 19:31:24
8,"[{'imgObject': {}, 'id': 'mango', 'src': '/static/foodstim60/mango.jpg', 'key': 'u', 'origWidth': 411, 'origHeight': 411, 'width': 411, 'height': 411, 'widthPercent': 0.45, 'rescaleHeight': False, 'trialN': 8, 'loaded': True, 'loadedTime': 2700.100000023842, 'positionName': 'LEFT', 'positionCoords': [326.28, 306.5], 'bid': 2.69}, {'imgObject': {}, 'id': 'cocktailshrimp', 'src': '/static/foodstim60/cocktailshrimp.jpg', 'key': 'i', 'origWidth': 410, 'origHeight': 410, 'width': 410, 'height': 410, 'widthPercent': 0.45, 'rescaleHeight': False, 'trialN': 8, 'loaded': True, 'loadedTime': 2629.8000000715256, 'positionName': 'RIGHT', 'positionCoords': [798.72, 307], 'bid': 1.19}]",15044.100000023842,1669836426935,mango,cocktailshrimp,2.69,1.19,-1.5,mango,914.1000000238419,914,914.6000000238419,True,u,16464.300000071526,1420.2000000476837,1669836428355,1420,HRV,HRV_0245,2022-11-30 19:31:24
9,"[{'imgObject': {}, 'id': 'chicken nuggets2', 'src': '/static/foodstim60/chicken nuggets2.jpg', 'key': 'u', 'origWidth': 410, 'origHeight': 409, 'width': 410, 'height': 409, 'widthPercent': 0.45, 'rescaleHeight': False, 'trialN': 9, 'loaded': True, 'loadedTime': 2712.600000023842, 'positionName': 'LEFT', 'positionCoords': [327.28, 307.5], 'bid': 6.32}, {'imgObject': {}, 'id': 'turkeysandwich', 'src': '/static/foodstim60/turkeysandwich.jpg', 'key': 'i', 'origWidth': 409, 'origHeight': 409, 'width': 409, 'height': 409, 'widthPercent': 0.45, 'rescaleHeight': False, 'trialN': 9, 'loaded': True, 'loadedTime': 2727.5, 'positionName': 'RIGHT', 'positionCoords': [798.72, 307.5], 'bid': 6.3}]",16464.399999976158,1669836428355,chicken nuggets2,turkeysandwich,6.32,6.3,-0.020000000000000462,chicken nuggets2,1376.2000000476837,1377,1376.9000000953674,True,u,18355.100000023842,1890.7000000476837,1669836430246,1891,HRV,HRV_0245,2022-11-30 19:31:24
10,"[{'imgObject': {}, 'id': 'cocktailshrimp', 'src': '/static/foodstim60/cocktailshrimp.jpg', 'key': 'u', 'origWidth': 410, 'origHeight': 410, 'width': 410, 'height': 410, 'widthPercent': 0.45, 'rescaleHeight': False, 'trialN': 10, 'loaded': True, 'loadedTime': 2640.600000023842, 'positionName': 'LEFT', 'positionCoords': [327.28, 307], 'bid': 1.19}, {'imgObject': {}, 'id': 'omelette', 'src': '/static/foodstim60/omelette.jpg', 'key': 'i', 'origWidth': 410, 'origHeight': 409, 'width': 410, 'height': 409, 'widthPercent': 0.45, 'rescaleHeight': False, 'trialN': 10, 'loaded': True, 'loadedTime': 2738.7000000476837, 'positionName': 'RIGHT', 'positionCoords': [798.72, 307.5], 'bid': 1.41}]",18355.300000071526,1669836430246,cocktailshrimp,omelette,1.19,1.41,0.21999999999999997,omelette,879.0999999046326,879,879.6999999284744,True,i,19740.800000071526,1385.5,1669836431631,1385,HRV,HRV_0245,2022-11-30 19:31:24
11,"[{'imgObject': {}, 'id': 'tacos', 'src': '/static/foodstim60/tacos.jpg', 'key': 'u', 'origWidth': 411, 'origHeight': 411, 'width': 411, 'height': 411, 'widthPercent': 0.45, 'rescaleHeight': False, 'trialN': 11, 'loaded': True, 'loadedTime': 2628.100000023842, 'positionName': 'LEFT', 'positionCoords': [326.28, 306.5], 'bid': 4.32}, {'imgObject': {}, 'id': 'burger', 'src': '/static/foodstim60/burger.jpg', 'key': 'i', 'origWidth': 409, 'origHeight': 409, 'width': 409, 'height': 409, 'widthPercent': 0.45, 'rescaleHeight': False, 'trialN': 11, 'loaded': True, 'loadedTime': 2502.8000000715256, 'positionName': 'RIGHT', 'positionCoords': [798.72, 307.5], 'bid': 6.41}]",19741.0,1669836431631,tacos,burger,4.32,6.41,2.09,burger,846.2000000476837,847,846.7000000476837,True,i,21099.700000047684,1358.7000000476837,1669836432990,1359,HRV,HRV_0245,2022-11-30 19:31:24
12,"[{'imgObject': {}, 'id': 'lox', 'src': '/static/foodstim60/lox.jpg', 'key': 'u', 'origWidth': 410, 'origHeight': 411, 'width': 410, 'height': 411, 'widthPercent': 0.45, 'rescaleHeight': False, 'trialN': 12, 'loaded': True, 'loadedTime': 2435.5, 'positionName': 'LEFT', 'positionCoords': [327.28, 306.5], 'bid': 1.75}, {'imgObject': {}, 'id': 'salmon', 'src': '/static/foodstim60/salmon.jpg', 'key': 'i', 'origWidth': 410, 'origHeight': 409, 'width': 410, 'height': 409, 'widthPercent': 0.45, 'rescaleHeight': False, 'trialN': 12, 'loaded': True, 'loadedTime': 2528.8000000715256, 'positionName': 'RIGHT', 'positionCoords': [798.72, 307.5], 'bid': 0.46}]",21099.899999976158,1669836432990,lox,salmon,1.75,0.46,-1.29,salmon,1793.2000000476837,1794,1793.7000000476837,True,i,23405.899999976158,2306.0,1669836435296,2306,HRV,HRV_0245,2022-11-30 19:31:24
13,"[{'imgObject': {}, 'id': 'baked potato', 'src': '/static/foodstim60/baked potato.jpg', 'key': 'u', 'origWidth': 409, 'origHeight': 410, 'width': 409, 'height': 410, 'widthPercent': 0.45, 'rescaleHeight': False, 'trialN': 13, 'loaded': True, 'loadedTime': 2544.8000000715256, 'positionName': 'LEFT', 'positionCoords': [328.28, 307], 'bid': 6.05}, {'imgObject': {}, 'id': 'roastedpotatoes', 'src': '/static/foodstim60/roastedpotatoes.jpg', 'key': 'i', 'origWidth': 409, 'origHeight': 410, 'width': 409, 'height': 410, 'widthPercent': 0.45, 'rescaleHeight': False, 'trialN': 13, 'loaded': True, 'loadedTime': 2566, 'positionName': 'RIGHT', 'positionCoords': [798.72, 307], 'bid': 7.22}]",23406.100000023842,1669836435297,baked potato,roastedpotatoes,6.05,7.22,1.17,roastedpotatoes,610.2999999523163,610,610.7000000476837,True,i,24531.5,1125.3999999761581,1669836436422,1125,HRV,HRV_0245,2022-11-30 19:31:24
14,"[{'imgObject': {}, 'id': 'tacos', 'src': '/static/foodstim60/tacos.jpg', 'key': 'u', 'origWidth': 411, 'origHeight': 411, 'width': 411, 'height': 411, 'widthPercent': 0.45, 'rescaleHeight': False, 'trialN': 14, 'loaded': True, 'loadedTime': 2614.7000000476837, 'positionName': 'LEFT', 'positionCoords': [326.28, 306.5], 'bid': 4.32}, {'imgObject': {}, 'id': 'bagel plain', 'src': '/static/foodstim60/bagel plain.jpg', 'key': 'i', 'origWidth': 410, 'origHeight': 410, 'width': 410, 'height': 410, 'widthPercent': 0.45, 'rescaleHeight': False, 'trialN': 14, 'loaded': True, 'loadedTime': 2733.7000000476837, 'positionName': 'RIGHT', 'positionCoords': [798.72, 307], 'bid': 2.36}]",24531.800000071526,1669836436422,tacos,bagel plain,4.32,2.36,-1.9600000000000004,bagel plain,1377.5,1378,1377.8999999761581,True,i,26417.899999976158,1886.0999999046326,1669836438308,1886,HRV,HRV_0245,2022-11-30 19:31:24
15,"[{'imgObject': {}, 'id': 'raspberries', 'src': '/static/foodstim60/raspberries.jpg', 'key': 'u', 'origWidth': 411, 'origHeight': 411, 'width': 411, 'height': 411, 'widthPercent': 0.45, 'rescaleHeight': False, 'trialN': 15, 'loaded': True, 'loadedTime': 2592.2000000476837, 'positionName': 'LEFT', 'positionCoords': [326.28, 306.5], 'bid': 5.13}, {'imgObject': {}, 'id': 'chicken nuggets2', 'src': '/static/foodstim60/chicken nuggets2.jpg', 'key': 'i', 'origWidth': 410, 'origHeight': 409, 'width': 410, 'height': 409, 'widthPercent': 0.45, 'rescaleHeight': False, 'trialN': 15, 'loaded': True, 'loadedTime': 2712.899999976158, 'positionName': 'RIGHT', 'positionCoords': [798.72, 307.5], 'bid': 6.32}]",26418.200000047684,1669836438309,raspberries,chicken nuggets2,5.13,6.32,1.1900000000000004,chicken nuggets2,800.3999999761581,801,800.8999999761581,True,i,27735.200000047684,1317.0,1669836439626,1317,HRV,HRV_0245,2022-11-30 19:31:24
16,"[{'imgObject': {}, 'id': 'rigatoni', 'src': '/static/foodstim60/rigatoni.jpg', 'key': 'u', 'origWidth': 411, 'origHeight': 411, 'width': 411, 'height': 411, 'widthPercent': 0.45, 'rescaleHeight': False, 'trialN': 16, 'loaded': True, 'loadedTime': 2754.8000000715256, 'positionName': 'LEFT', 'positionCoords': [326.28, 306.5], 'bid': 5.03}, {'imgObject': {}, 'id': 'steak', 'src': '/static/foodstim60/steak.jpg', 'key': 'i', 'origWidth': 410, 'origHeight': 410, 'width': 410, 'height': 410, 'widthPercent': 0.45, 'rescaleHeight': False, 'trialN': 16, 'loaded': True, 'loadedTime': 2758, 'positionName': 'RIGHT', 'positionCoords': [798.72, 307], 'bid': 9.3}]",27735.5,1669836439626,rigatoni,steak,5.03,9.3,4.2700000000000005,steak,1023.7000000476837,1022,1024.1000000238419,True,i,29272.5,1537.0,1669836441161,1535,HRV,HRV_0245,2022-11-30 19:31:24
17,"[{'imgObject': {}, 'id': 'froot loops w milk', 'src': '/static/foodstim60/froot loops w milk.jpg', 'key': 'u', 'origWidth': 410, 'origHeight': 410, 'width': 410, 'height': 410, 'widthPercent': 0.45, 'rescaleHeight': False, 'trialN': 17, 'loaded': True, 'loadedTime': 2758.399999976158, 'positionName': 'LEFT', 'positionCoords': [327.28, 307], 'bid': 6.34}, {'imgObject': {}, 'id': 'grilled chicken strips', 'src': '/static/foodstim60/grilled chicken strips.jpg', 'key': 'i', 'origWidth': 410, 'origHeight': 411, 'width': 410, 'height': 411, 'widthPercent': 0.45, 'rescaleHeight': False, 'trialN': 17, 'loaded': True, 'loadedTime': 2769.899999976158, 'positionName': 'RIGHT', 'positionCoords': [798.72, 306.5], 'bid': 6.73}]",29272.800000071526,1669836441161,froot loops w milk,grilled chicken strips,6.34,6.73,0.39000000000000057,grilled chicken strips,1288.6999999284744,1290,1289.0999999046326,True,i,31070.800000071526,1798.0,1669836442960,1799,HRV,HRV_0245,2022-11-30 19:31:24
18,"[{'imgObject': {}, 'id': 'granola w milk', 'src': '/static/foodstim60/granola w milk.jpg', 'key': 'u', 'origWidth': 410, 'origHeight': 410, 'width': 410, 'height': 410, 'widthPercent': 0.45, 'rescaleHeight': False, 'trialN': 18, 'loaded': True, 'loadedTime': 2784, 'positionName': 'LEFT', 'positionCoords': [327.28, 307], 'bid': 5.03}, {'imgObject': {}, 'id': 'shreddedwheatwithmilk', 'src': '/static/foodstim60/shreddedwheatwithmilk.jpg', 'key': 'i', 'origWidth': 410, 'origHeight': 410, 'width': 410, 'height': 410, 'widthPercent': 0.45, 'rescaleHeight': False, 'trialN': 18, 'loaded': True, 'loadedTime': 2541.8000000715256, 'positionName': 'RIGHT', 'positionCoords': [798.72, 307], 'bid': 5.09}]",31071.0,1669836442960,granola w milk,shreddedwheatwithmilk,5.03,5.09,0.05999999999999961,shreddedwheatwithmilk,1804.8999999761581,1805,1805.3999999761581,True,i,33388.200000047684,2317.2000000476837,1669836445277,2317,HRV,HRV_0245,2022-11-30 19:31:24
19,"[{'imgObject': {}, 'id': 'tacos', 'src': '/static/foodstim60/tacos.jpg', 'key': 'u', 'origWidth': 411, 'origHeight': 411, 'width': 411, 'height': 411, 'widthPercent': 0.45, 'rescaleHeight': False, 'trialN': 19, 'loaded': True, 'loadedTime': 2627.600000023842, 'positionName': 'LEFT', 'positionCoords': [326.28, 306.5], 'bid': 4.32}, {'imgObject': {}, 'id': 'blueberries', 'src': '/static/foodstim60/blueberries.jpg', 'key': 'i', 'origWidth': 411, 'origHeight': 411, 'width': 411, 'height': 411, 'widthPercent': 0.45, 'rescaleHeight': False, 'trialN': 19, 'loaded': True, 'loadedTime': 2798.100000023842, 'positionName': 'RIGHT', 'positionCoords': [798.72, 306.5], 'bid': 4.25}]",33388.5,1669836445277,tacos,blueberries,4.32,4.25,-0.07000000000000028,tacos,1244.2000000476837,1245,1244.8000000715256,True,u,35227.700000047684,1839.2000000476837,1669836447116,1839,HRV,HRV_0245,2022-11-30 19:31:24
20,"[{'imgObject': {}, 'id': 'eggs', 'src': '/static/foodstim60/eggs.jpg', 'key': 'u', 'origWidth': 409, 'origHeight': 409, 'width': 409, 'height': 409, 'widthPercent': 0.45, 'rescaleHeight': False, 'trialN': 20, 'loaded': True, 'loadedTime': 2800.5, 'positionName': 'LEFT', 'positionCoords': [328.28, 307.5], 'bid': 5.66}, {'imgObject': {}, 'id': 'baked potato', 'src': '/static/foodstim60/baked potato.jpg', 'key': 'i', 'origWidth': 409, 'origHeight': 410, 'width': 409, 'height': 410, 'widthPercent': 0.45, 'rescaleHeight': False, 'trialN': 20, 'loaded': True, 'loadedTime': 2554.399999976158, 'positionName': 'RIGHT', 'positionCoords': [798.72, 307], 'bid': 6.05}]",35228.0,1669836447117,eggs,baked potato,5.66,6.05,0.3899999999999997,baked potato,1059.8000000715256,1060,1060.3000000715256,True,i,36796.700000047684,1568.7000000476837,1669836448685,1568,HRV,HRV_0245,2022-11-30 19:31:24
21,"[{'imgObject': {}, 'id': 'baked potato', 'src': '/static/foodstim60/baked potato.jpg', 'key': 'u', 'origWidth': 409, 'origHeight': 410, 'width': 409, 'height': 410, 'widthPercent': 0.45, 'rescaleHeight': False, 'trialN': 21, 'loaded': True, 'loadedTime': 2554, 'positionName': 'LEFT', 'positionCoords': [328.28, 307], 'bid': 6.05}, {'imgObject': {}, 'id': 'apple slices', 'src': '/static/foodstim60/apple slices.jpg', 'key': 'i', 'origWidth': 409, 'origHeight': 410, 'width': 409, 'height': 410, 'widthPercent': 0.45, 'rescaleHeight': False, 'trialN': 21, 'loaded': True, 'loadedTime': 2815.100000023842, 'positionName': 'RIGHT', 'positionCoords': [798.72, 307], 'bid': 5.96}]",36797.10000002384,1669836448686,baked potato,apple slices,6.05,5.96,-0.08999999999999986,apple slices,920.1000000238419,920,920.6000000238419,True,i,38223.5,1426.3999999761581,1669836450112,1426,HRV,HRV_0245,2022-11-30 19:31:24
22,"[{'imgObject': {}, 'id': 'steak', 'src': '/static/foodstim60/steak.jpg', 'key': 'u', 'origWidth': 410, 'origHeight': 410, 'width': 410, 'height': 410, 'widthPercent': 0.45, 'rescaleHeight': False, 'trialN': 22, 'loaded': True, 'loadedTime': 2758.100000023842, 'positionName': 'LEFT', 'positionCoords': [327.28, 307], 'bid': 9.3}, {'imgObject': {}, 'id': 'orange slices', 'src': '/static/foodstim60/orange slices.jpg', 'key': 'i', 'origWidth': 409, 'origHeight': 410, 'width': 409, 'height': 410, 'widthPercent': 0.45, 'rescaleHeight': False, 'trialN': 22, 'loaded': True, 'loadedTime': 2671.7000000476837, 'positionName': 'RIGHT', 'positionCoords': [798.72, 307], 'bid': 6.11}]",38223.700000047684,1669836450112,steak,orange slices,9.3,6.11,-3.1900000000000004,steak,804.5,805,804.7999999523163,True,u,39540.60000002384,1316.8999999761581,1669836451429,1317,HRV,HRV_0245,2022-11-30 19:31:24
23,"[{'imgObject': {}, 'id': 'mac & cheese', 'src': '/static/foodstim60/mac & cheese.jpg', 'key': 'u', 'origWidth': 410, 'origHeight': 410, 'width': 410, 'height': 410, 'widthPercent': 0.45, 'rescaleHeight': False, 'trialN': 23, 'loaded': True, 'loadedTime': 2833, 'positionName': 'LEFT', 'positionCoords': [327.28, 307], 'bid': 4.41}, {'imgObject': {}, 'id': 'sweetpotato', 'src': '/static/foodstim60/sweetpotato.jpg', 'key': 'i', 'origWidth': 410, 'origHeight': 410, 'width': 410, 'height': 410, 'widthPercent': 0.45, 'rescaleHeight': False, 'trialN': 23, 'loaded': True, 'loadedTime': 2402, 'positionName': 'RIGHT', 'positionCoords': [798.72, 307], 'bid': 1.56}]",39540.700000047684,1669836451429,mac & cheese,sweetpotato,4.41,1.56,-2.85,mac & cheese,1118.6999999284744,1119,1119.0,True,u,41164.0,1623.2999999523163,1669836453053,1624,HRV,HRV_0245,2022-11-30 19:31:24
24,"[{'imgObject': {}, 'id': 'cherries', 'src': '/static/foodstim60/cherries.jpg', 'key': 'u', 'origWidth': 410, 'origHeight': 411, 'width': 410, 'height': 411, 'widthPercent': 0.45, 'rescaleHeight': False, 'trialN': 24, 'loaded': True, 'loadedTime': 2844.5, 'positionName': 'LEFT', 'positionCoords': [327.28, 306.5], 'bid': 6.83}, {'imgObject': {}, 'id': 'olives', 'src': '/static/foodstim60/olives.jpg', 'key': 'i', 'origWidth': 410, 'origHeight': 410, 'width': 410, 'height': 410, 'widthPercent': 0.45, 'rescaleHeight': False, 'trialN': 24, 'loaded': True, 'loadedTime': 2856.600000023842, 'positionName': 'RIGHT', 'positionCoords': [798.72, 307], 'bid': 4.68}]",41164.300000071526,1669836453053,cherries,olives,6.83,4.68,-2.1500000000000004,cherries,1352.1999999284744,1353,1352.5999999046326,True,u,43028.60000002384,1864.2999999523163,1669836454917,1864,HRV,HRV_0245,2022-11-30 19:31:24
25,"[{'imgObject': {}, 'id': 'seaweed', 'src': '/static/foodstim60/seaweed.jpg', 'key': 'u', 'origWidth': 410, 'origHeight': 410, 'width': 410, 'height': 410, 'widthPercent': 0.45, 'rescaleHeight': False, 'trialN': 25, 'loaded': True, 'loadedTime': 2479.399999976158, 'positionName': 'LEFT', 'positionCoords': [327.28, 307], 'bid': 0.41}, {'imgObject': {}, 'id': 'sweetpotato', 'src': '/static/foodstim60/sweetpotato.jpg', 'key': 'i', 'origWidth': 410, 'origHeight': 410, 'width': 410, 'height': 410, 'widthPercent': 0.45, 'rescaleHeight': False, 'trialN': 25, 'loaded': True, 'loadedTime': 2400.399999976158, 'positionName': 'RIGHT', 'positionCoords': [798.72, 307], 'bid': 1.56}]",43028.89999997616,1669836454918,seaweed,sweetpotato,0.41,1.56,1.1500000000000001,sweetpotato,674.3000000715256,674,674.9000000953674,True,i,44220.10000002384,1191.2000000476837,1669836456109,1191,HRV,HRV_0245,2022-11-30 19:31:24
26,"[{'imgObject': {}, 'id': 'bagel plain', 'src': '/static/foodstim60/bagel plain.jpg', 'key': 'u', 'origWidth': 410, 'origHeight': 410, 'width': 410, 'height': 410, 'widthPercent': 0.45, 'rescaleHeight': False, 'trialN': 26, 'loaded': True, 'loadedTime': 2733.399999976158, 'positionName': 'LEFT', 'positionCoords': [327.28, 307], 'bid': 2.36}, {'imgObject': {}, 'id': 'edamame', 'src': '/static/foodstim60/edamame.jpg', 'key': 'i', 'origWidth': 409, 'origHeight': 410, 'width': 409, 'height': 410, 'widthPercent': 0.45, 'rescaleHeight': False, 'trialN': 26, 'loaded': True, 'loadedTime': 2869.3000000715256, 'positionName': 'RIGHT', 'positionCoords': [798.72, 307], 'bid': 2.89}]",44220.200000047684,1669836456109,bagel plain,edamame,2.36,2.89,0.5300000000000002,bagel plain,862.6999999284744,863,863.1999999284744,True,u,45593.89999997616,1373.6999999284744,1669836457483,1374,HRV,HRV_0245,2022-11-30 19:31:24
27,"[{'imgObject': {}, 'id': 'cherries', 'src': '/static/foodstim60/cherries.jpg', 'key': 'u', 'origWidth': 410, 'origHeight': 411, 'width': 410, 'height': 411, 'widthPercent': 0.45, 'rescaleHeight': False, 'trialN': 27, 'loaded': True, 'loadedTime': 2844.7000000476837, 'positionName': 'LEFT', 'positionCoords': [327.28, 306.5], 'bid': 6.83}, {'imgObject': {}, 'id': 'pear', 'src': '/static/foodstim60/pear.jpg', 'key': 'i', 'origWidth': 411, 'origHeight': 410, 'width': 411, 'height': 410, 'widthPercent': 0.45, 'rescaleHeight': False, 'trialN': 27, 'loaded': True, 'loadedTime': 2872.399999976158, 'positionName': 'RIGHT', 'positionCoords': [798.72, 307], 'bid': 5.95}]",45594.10000002384,1669836457483,cherries,pear,6.83,5.95,-0.8799999999999999,pear,1600.5,1601,1601.0,True,i,47703.200000047684,2109.100000023842,1669836459592,2109,HRV,HRV_0245,2022-11-30 19:31:24
28,"[{'imgObject': {}, 'id': 'chicken nuggets2', 'src': '/static/foodstim60/chicken nuggets2.jpg', 'key': 'u', 'origWidth': 410, 'origHeight': 409, 'width': 410, 'height': 409, 'widthPercent': 0.45, 'rescaleHeight': False, 'trialN': 28, 'loaded': True, 'loadedTime': 2713.2000000476837, 'positionName': 'LEFT', 'positionCoords': [327.28, 307.5], 'bid': 6.32}, {'imgObject': {}, 'id': 'luckycharms', 'src': '/static/foodstim60/luckycharms.jpg', 'key': 'i', 'origWidth': 410, 'origHeight': 409, 'width': 410, 'height': 409, 'widthPercent': 0.45, 'rescaleHeight': False, 'trialN': 28, 'loaded': True, 'loadedTime': 2874.3000000715256, 'positionName': 'RIGHT', 'positionCoords': [798.72, 307.5], 'bid': 7}]",47703.300000071526,1669836459592,chicken nuggets2,luckycharms,6.32,7.0,0.6799999999999997,chicken nuggets2,1137.8999999761581,1138,1138.3999999761581,True,u,49360.800000071526,1657.5,1669836461250,1658,HRV,HRV_0245,2022-11-30 19:31:24
29,"[{'imgObject': {}, 'id': 'blackbeanswithrice', 'src': '/static/foodstim60/blackbeanswithrice.jpg', 'key': 'u', 'origWidth': 410, 'origHeight': 410, 'width': 410, 'height': 410, 'widthPercent': 0.45, 'rescaleHeight': False, 'trialN': 29, 'loaded': True, 'loadedTime': 2516.100000023842, 'positionName': 'LEFT', 'positionCoords': [327.28, 307], 'bid': 6.2700000000000005}, {'imgObject': {}, 'id': 'cherries', 'src': '/static/foodstim60/cherries.jpg', 'key': 'i', 'origWidth': 410, 'origHeight': 411, 'width': 410, 'height': 411, 'widthPercent': 0.45, 'rescaleHeight': False, 'trialN': 29, 'loaded': True, 'loadedTime': 2842.899999976158, 'positionName': 'RIGHT', 'positionCoords': [798.72, 306.5], 'bid': 6.83}]",49361.10000002384,1669836461250,blackbeanswithrice,cherries,6.2700000000000005,6.83,0.5599999999999996,blackbeanswithrice,792.3999999761581,793,793.0,True,u,50663.800000071526,1302.7000000476837,1669836462552,1302,HRV,HRV_0245,2022-11-30 19:31:24
30,"[{'imgObject': {}, 'id': 'froot loops w milk', 'src': '/static/foodstim60/froot loops w milk.jpg', 'key': 'u', 'origWidth': 410, 'origHeight': 410, 'width': 410, 'height': 410, 'widthPercent': 0.45, 'rescaleHeight': False, 'trialN': 30, 'loaded': True, 'loadedTime': 2761.5, 'positionName': 'LEFT', 'positionCoords': [327.28, 307], 'bid': 6.34}, {'imgObject': {}, 'id': 'burger', 'src': '/static/foodstim60/burger.jpg', 'key': 'i', 'origWidth': 409, 'origHeight': 409, 'width': 409, 'height': 409, 'widthPercent': 0.45, 'rescaleHeight': False, 'trialN': 30, 'loaded': True, 'loadedTime': 2490.2000000476837, 'positionName': 'RIGHT', 'positionCoords': [798.72, 307.5], 'bid': 6.41}]",50663.89999997616,1669836462553,froot loops w milk,burger,6.34,6.41,0.07000000000000028,burger,1252.3000000715256,1252,1252.8000000715256,True,i,52421.700000047684,1757.8000000715256,1669836464310,1757,HRV,HRV_0245,2022-11-30 19:31:24
31,"[{'imgObject': {}, 'id': 'baked potato', 'src': '/static/foodstim60/baked potato.jpg', 'key': 'u', 'origWidth': 409, 'origHeight': 410, 'width': 409, 'height': 410, 'widthPercent': 0.45, 'rescaleHeight': False, 'trialN': 31, 'loaded': True, 'loadedTime': 2543.399999976158, 'positionName': 'LEFT', 'positionCoords': [328.28, 307], 'bid': 6.05}, {'imgObject': {}, 'id': 'yogurt no spoon', 'src': '/static/foodstim60/yogurt no spoon.jpg', 'key': 'i', 'origWidth': 411, 'origHeight': 410, 'width': 411, 'height': 410, 'widthPercent': 0.45, 'rescaleHeight': False, 'trialN': 31, 'loaded': True, 'loadedTime': 2886.5, 'positionName': 'RIGHT', 'positionCoords': [798.72, 307], 'bid': 3.72}]",52422.10000002384,1669836464311,baked potato,yogurt no spoon,6.05,3.72,-2.3299999999999996,baked potato,964.2000000476837,964,964.5,True,u,53895.800000071526,1473.7000000476837,1669836465784,1473,HRV,HRV_0245,2022-11-30 19:31:24
32,"[{'imgObject': {}, 'id': 'rigatoni', 'src': '/static/foodstim60/rigatoni.jpg', 'key': 'u', 'origWidth': 411, 'origHeight': 411, 'width': 411, 'height': 411, 'widthPercent': 0.45, 'rescaleHeight': False, 'trialN': 32, 'loaded': True, 'loadedTime': 2749.899999976158, 'positionName': 'LEFT', 'positionCoords': [326.28, 306.5], 'bid': 5.03}, {'imgObject': {}, 'id': 'granola w milk', 'src': '/static/foodstim60/granola w milk.jpg', 'key': 'i', 'origWidth': 410, 'origHeight': 410, 'width': 410, 'height': 410, 'widthPercent': 0.45, 'rescaleHeight': False, 'trialN': 32, 'loaded': True, 'loadedTime': 2783.2000000476837, 'positionName': 'RIGHT', 'positionCoords': [798.72, 307], 'bid': 5.03}]",53895.89999997616,1669836465785,rigatoni,granola w milk,5.03,5.03,0.0,rigatoni,910.0,910,910.5,True,u,55316.0,1420.1000000238419,1669836467205,1420,HRV,HRV_0245,2022-11-30 19:31:24
33,"[{'imgObject': {}, 'id': 'chickenfingers', 'src': '/static/foodstim60/chickenfingers.jpg', 'key': 'u', 'origWidth': 410, 'origHeight': 410, 'width': 410, 'height': 410, 'widthPercent': 0.45, 'rescaleHeight': False, 'trialN': 33, 'loaded': True, 'loadedTime': 2900.600000023842, 'positionName': 'LEFT', 'positionCoords': [327.28, 307], 'bid': 6.9}, {'imgObject': {}, 'id': 'apple slices', 'src': '/static/foodstim60/apple slices.jpg', 'key': 'i', 'origWidth': 409, 'origHeight': 410, 'width': 409, 'height': 410, 'widthPercent': 0.45, 'rescaleHeight': False, 'trialN': 33, 'loaded': True, 'loadedTime': 2815.600000023842, 'positionName': 'RIGHT', 'positionCoords': [798.72, 307], 'bid': 5.96}]",55316.300000071526,1669836467205,chickenfingers,apple slices,6.9,5.96,-0.9400000000000004,chickenfingers,720.5999999046326,721,721.0999999046326,True,u,56540.700000047684,1224.3999999761581,1669836468429,1224,HRV,HRV_0245,2022-11-30 19:31:24
34,"[{'imgObject': {}, 'id': 'blueberries', 'src': '/static/foodstim60/blueberries.jpg', 'key': 'u', 'origWidth': 411, 'origHeight': 411, 'width': 411, 'height': 411, 'widthPercent': 0.45, 'rescaleHeight': False, 'trialN': 34, 'loaded': True, 'loadedTime': 2785.8000000715256, 'positionName': 'LEFT', 'positionCoords': [326.28, 306.5], 'bid': 4.25}, {'imgObject': {}, 'id': 'veggieswithdip', 'src': '/static/foodstim60/veggieswithdip.jpg', 'key': 'i', 'origWidth': 409, 'origHeight': 409, 'width': 409, 'height': 409, 'widthPercent': 0.45, 'rescaleHeight': False, 'trialN': 34, 'loaded': True, 'loadedTime': 2913.5, 'positionName': 'RIGHT', 'positionCoords': [798.72, 307.5], 'bid': 4.67}]",56540.89999997616,1669836468430,blueberries,veggieswithdip,4.25,4.67,0.41999999999999993,veggieswithdip,2476.600000023842,2477,2477.100000023842,True,i,59531.800000071526,2990.9000000953674,1669836471421,2991,HRV,HRV_0245,2022-11-30 19:31:24
35,"[{'imgObject': {}, 'id': 'popsicles', 'src': '/static/foodstim60/popsicles.jpg', 'key': 'u', 'origWidth': 410, 'origHeight': 410, 'width': 410, 'height': 410, 'widthPercent': 0.45, 'rescaleHeight': False, 'trialN': 35, 'loaded': True, 'loadedTime': 2990.3000000715256, 'positionName': 'LEFT', 'positionCoords': [327.28, 307], 'bid': 6.640000000000001}, {'imgObject': {}, 'id': 'turkey sandwich', 'src': '/static/foodstim60/turkey sandwich.jpg', 'key': 'i', 'origWidth': 409, 'origHeight': 409, 'width': 409, 'height': 409, 'widthPercent': 0.45, 'rescaleHeight': False, 'trialN': 35, 'loaded': True, 'loadedTime': 2915.3000000715256, 'positionName': 'RIGHT', 'positionCoords': [798.72, 307.5], 'bid': 6.640000000000001}]",59532.10000002384,1669836471421,popsicles,turkey sandwich,6.640000000000001,6.640000000000001,0.0,turkey sandwich,591.1000000238419,591,591.5,True,i,60626.89999997616,1094.7999999523163,1669836472516,1095,HRV,HRV_0245,2022-11-30 19:31:24
36,"[{'imgObject': {}, 'id': 'eggsalad', 'src': '/static/foodstim60/eggsalad.jpg', 'key': 'u', 'origWidth': 410, 'origHeight': 409, 'width': 410, 'height': 409, 'widthPercent': 0.45, 'rescaleHeight': False, 'trialN': 36, 'loaded': True, 'loadedTime': 2917.100000023842, 'positionName': 'LEFT', 'positionCoords': [327.28, 307.5], 'bid': 4.21}, {'imgObject': {}, 'id': 'raisin bran w milk', 'src': '/static/foodstim60/raisin bran w milk.jpg', 'key': 'i', 'origWidth': 411, 'origHeight': 411, 'width': 411, 'height': 411, 'widthPercent': 0.45, 'rescaleHeight': False, 'trialN': 36, 'loaded': True, 'loadedTime': 2667.2000000476837, 'positionName': 'RIGHT', 'positionCoords': [798.72, 306.5], 'bid': 4.28}]",60627.10000002384,1669836472516,eggsalad,raisin bran w milk,4.21,4.28,0.07000000000000028,raisin bran w milk,1825.1000000238419,1826,1825.7000000476837,True,i,62956.10000002384,2329.0,1669836474845,2329,HRV,HRV_0245,2022-11-30 19:31:24
37,"[{'imgObject': {}, 'id': 'burrito', 'src': '/static/foodstim60/burrito.jpg', 'key': 'u', 'origWidth': 410, 'origHeight': 410, 'width': 410, 'height': 410, 'widthPercent': 0.45, 'rescaleHeight': False, 'trialN': 37, 'loaded': True, 'loadedTime': 2604.399999976158, 'positionName': 'LEFT', 'positionCoords': [327.28, 307], 'bid': 5.45}, {'imgObject': {}, 'id': 'froot loops w milk', 'src': '/static/foodstim60/froot loops w milk.jpg', 'key': 'i', 'origWidth': 410, 'origHeight': 410, 'width': 410, 'height': 410, 'widthPercent': 0.45, 'rescaleHeight': False, 'trialN': 37, 'loaded': True, 'loadedTime': 2760.3000000715256, 'positionName': 'RIGHT', 'positionCoords': [798.72, 307], 'bid': 6.34}]",62956.200000047684,1669836474845,burrito,froot loops w milk,5.45,6.34,0.8899999999999997,burrito,851.3999999761581,852,851.8999999761581,True,u,64315.200000047684,1359.0,1669836476204,1359,HRV,HRV_0245,2022-11-30 19:31:24
38,"[{'imgObject': {}, 'id': 'blueberries', 'src': '/static/foodstim60/blueberries.jpg', 'key': 'u', 'origWidth': 411, 'origHeight': 411, 'width': 411, 'height': 411, 'widthPercent': 0.45, 'rescaleHeight': False, 'trialN': 38, 'loaded': True, 'loadedTime': 2797.7000000476837, 'positionName': 'LEFT', 'positionCoords': [326.28, 306.5], 'bid': 4.25}, {'imgObject': {}, 'id': 'lox', 'src': '/static/foodstim60/lox.jpg', 'key': 'i', 'origWidth': 410, 'origHeight': 411, 'width': 410, 'height': 411, 'widthPercent': 0.45, 'rescaleHeight': False, 'trialN': 38, 'loaded': True, 'loadedTime': 2435.100000023842, 'positionName': 'RIGHT', 'positionCoords': [798.72, 306.5], 'bid': 1.75}]",64315.39999997616,1669836476204,blueberries,lox,4.25,1.75,-2.5,blueberries,1095.5,1096,1095.9000000953674,True,u,65927.80000007153,1612.4000000953674,1669836477816,1612,HRV,HRV_0245,2022-11-30 19:31:24
39,"[{'imgObject': {}, 'id': 'veggieswithdip', 'src': '/static/foodstim60/veggieswithdip.jpg', 'key': 'u', 'origWidth': 409, 'origHeight': 409, 'width': 409, 'height': 409, 'widthPercent': 0.45, 'rescaleHeight': False, 'trialN': 39, 'loaded': True, 'loadedTime': 2901, 'positionName': 'LEFT', 'positionCoords': [328.28, 307.5], 'bid': 4.67}, {'imgObject': {}, 'id': 'bagel and cc', 'src': '/static/foodstim60/bagel and cc.jpg', 'key': 'i', 'origWidth': 410, 'origHeight': 410, 'width': 410, 'height': 410, 'widthPercent': 0.45, 'rescaleHeight': False, 'trialN': 39, 'loaded': True, 'loadedTime': 2930.100000023842, 'positionName': 'RIGHT', 'positionCoords': [798.72, 307], 'bid': 2.34}]",65928.10000002384,1669836477817,veggieswithdip,bagel and cc,4.67,2.34,-2.33,bagel and cc,790.2999999523163,790,790.3999999761581,True,i,67225.80000007153,1297.7000000476837,1669836479115,1298,HRV,HRV_0245,2022-11-30 19:31:24
40,"[{'imgObject': {}, 'id': 'lox', 'src': '/static/foodstim60/lox.jpg', 'key': 'u', 'origWidth': 410, 'origHeight': 411, 'width': 410, 'height': 411, 'widthPercent': 0.45, 'rescaleHeight': False, 'trialN': 40, 'loaded': True, 'loadedTime': 2435.899999976158, 'positionName': 'LEFT', 'positionCoords': [327.28, 306.5], 'bid': 1.75}, {'imgObject': {}, 'id': 'eggs', 'src': '/static/foodstim60/eggs.jpg', 'key': 'i', 'origWidth': 409, 'origHeight': 409, 'width': 409, 'height': 409, 'widthPercent': 0.45, 'rescaleHeight': False, 'trialN': 40, 'loaded': True, 'loadedTime': 2801.3000000715256, 'positionName': 'RIGHT', 'positionCoords': [798.72, 307.5], 'bid': 5.66}]",67226.10000002384,1669836479115,lox,eggs,1.75,5.66,3.91,eggs,854.2000000476837,854,854.7000000476837,True,i,68584.60000002384,1358.5,1669836480473,1358,HRV,HRV_0245,2022-11-30 19:31:24
41,"[{'imgObject': {}, 'id': 'pear', 'src': '/static/foodstim60/pear.jpg', 'key': 'u', 'origWidth': 411, 'origHeight': 410, 'width': 411, 'height': 410, 'widthPercent': 0.45, 'rescaleHeight': False, 'trialN': 41, 'loaded': True, 'loadedTime': 2872.899999976158, 'positionName': 'LEFT', 'positionCoords': [326.28, 307], 'bid': 5.95}, {'imgObject': {}, 'id': 'mango', 'src': '/static/foodstim60/mango.jpg', 'key': 'i', 'origWidth': 411, 'origHeight': 411, 'width': 411, 'height': 411, 'widthPercent': 0.45, 'rescaleHeight': False, 'trialN': 41, 'loaded': True, 'loadedTime': 2711, 'positionName': 'RIGHT', 'positionCoords': [798.72, 306.5], 'bid': 2.69}]",68584.80000007153,1669836480473,pear,mango,5.95,2.69,-3.2600000000000002,pear,711.3999999761581,712,711.7999999523163,True,u,69817.80000007153,1233.0,1669836481707,1234,HRV,HRV_0245,2022-11-30 19:31:24
42,"[{'imgObject': {}, 'id': 'grilled chicken strips', 'src': '/static/foodstim60/grilled chicken strips.jpg', 'key': 'u', 'origWidth': 410, 'origHeight': 411, 'width': 410, 'height': 411, 'widthPercent': 0.45, 'rescaleHeight': False, 'trialN': 42, 'loaded': True, 'loadedTime': 2770, 'positionName': 'LEFT', 'positionCoords': [327.28, 306.5], 'bid': 6.73}, {'imgObject': {}, 'id': 'cherries', 'src': '/static/foodstim60/cherries.jpg', 'key': 'i', 'origWidth': 410, 'origHeight': 411, 'width': 410, 'height': 411, 'widthPercent': 0.45, 'rescaleHeight': False, 'trialN': 42, 'loaded': True, 'loadedTime': 2844.2000000476837, 'positionName': 'RIGHT', 'positionCoords': [798.72, 306.5], 'bid': 6.83}]",69818.0,1669836481707,grilled chicken strips,cherries,6.73,6.83,0.09999999999999964,grilled chicken strips,613.8999999761581,614,614.6000000238419,True,u,70945.20000004768,1127.2000000476837,1669836482834,1127,HRV,HRV_0245,2022-11-30 19:31:24
43,"[{'imgObject': {}, 'id': 'granola w milk', 'src': '/static/foodstim60/granola w milk.jpg', 'key': 'u', 'origWidth': 410, 'origHeight': 410, 'width': 410, 'height': 410, 'widthPercent': 0.45, 'rescaleHeight': False, 'trialN': 43, 'loaded': True, 'loadedTime': 2783.100000023842, 'positionName': 'LEFT', 'positionCoords': [327.28, 307], 'bid': 5.03}, {'imgObject': {}, 'id': 'ice cream sundae 002', 'src': '/static/foodstim60/ice cream sundae 002.jpg', 'key': 'i', 'origWidth': 409, 'origHeight': 409, 'width': 409, 'height': 409, 'widthPercent': 0.45, 'rescaleHeight': False, 'trialN': 43, 'loaded': True, 'loadedTime': 2684, 'positionName': 'RIGHT', 'positionCoords': [798.72, 307.5], 'bid': 5.87}]",70945.20000004768,1669836482834,granola w milk,ice cream sundae 002,5.03,5.87,0.8399999999999999,ice cream sundae 002,798.0,798,798.2999999523163,True,i,72260.80000007153,1315.6000000238419,1669836484150,1316,HRV,HRV_0245,2022-11-30 19:31:24
44,"[{'imgObject': {}, 'id': 'orange slices', 'src': '/static/foodstim60/orange slices.jpg', 'key': 'u', 'origWidth': 409, 'origHeight': 410, 'width': 409, 'height': 410, 'widthPercent': 0.45, 'rescaleHeight': False, 'trialN': 44, 'loaded': True, 'loadedTime': 2672, 'positionName': 'LEFT', 'positionCoords': [328.28, 307], 'bid': 6.11}, {'imgObject': {}, 'id': 'grilled chicken strips', 'src': '/static/foodstim60/grilled chicken strips.jpg', 'key': 'i', 'origWidth': 410, 'origHeight': 411, 'width': 410, 'height': 411, 'widthPercent': 0.45, 'rescaleHeight': False, 'trialN': 44, 'loaded': True, 'loadedTime': 2768, 'positionName': 'RIGHT', 'positionCoords': [798.72, 306.5], 'bid': 6.73}]",72261.10000002384,1669836484150,orange slices,grilled chicken strips,6.11,6.73,0.6200000000000001,grilled chicken strips,634.0,634,634.2000000476837,True,i,73411.80000007153,1150.7000000476837,1669836485301,1151,HRV,HRV_0245,2022-11-30 19:31:24
45,"[{'imgObject': {}, 'id': 'sweetpotato', 'src': '/static/foodstim60/sweetpotato.jpg', 'key': 'u', 'origWidth': 410, 'origHeight': 410, 'width': 410, 'height': 410, 'widthPercent': 0.45, 'rescaleHeight': False, 'trialN': 45, 'loaded': True, 'loadedTime': 2409.7000000476837, 'positionName': 'LEFT', 'positionCoords': [327.28, 307], 'bid': 1.56}, {'imgObject': {}, 'id': 'eggsalad', 'src': '/static/foodstim60/eggsalad.jpg', 'key': 'i', 'origWidth': 410, 'origHeight': 409, 'width': 410, 'height': 409, 'widthPercent': 0.45, 'rescaleHeight': False, 'trialN': 45, 'loaded': True, 'loadedTime': 2915.7000000476837, 'positionName': 'RIGHT', 'positionCoords': [798.72, 307.5], 'bid': 4.21}]",73412.10000002384,1669836485301,sweetpotato,eggsalad,1.56,4.21,2.65,sweetpotato,721.8999999761581,722,722.3999999761581,True,u,74648.0,1235.8999999761581,1669836486537,1236,HRV,HRV_0245,2022-11-30 19:31:24
46,"[{'imgObject': {}, 'id': 'Tribe humus pita', 'src': '/static/foodstim60/Tribe humus pita.jpg', 'key': 'u', 'origWidth': 411, 'origHeight': 411, 'width': 411, 'height': 411, 'widthPercent': 0.45, 'rescaleHeight': False, 'trialN': 46, 'loaded': True, 'loadedTime': 2933.3000000715256, 'positionName': 'LEFT', 'positionCoords': [326.28, 306.5], 'bid': 6.53}, {'imgObject': {}, 'id': 'fruitsalad', 'src': '/static/foodstim60/fruitsalad.jpg', 'key': 'i', 'origWidth': 410, 'origHeight': 410, 'width': 410, 'height': 410, 'widthPercent': 0.45, 'rescaleHeight': False, 'trialN': 46, 'loaded': True, 'loadedTime': 2945, 'positionName': 'RIGHT', 'positionCoords': [798.72, 307], 'bid': 6.41}]",74648.30000007153,1669836486537,Tribe humus pita,fruitsalad,6.53,6.41,-0.1200000000000001,fruitsalad,1606.6999999284744,1607,1607.0,True,i,76763.30000007153,2115.0,1669836488652,2115,HRV,HRV_0245,2022-11-30 19:31:24
47,"[{'imgObject': {}, 'id': 'Grapes', 'src': '/static/foodstim60/Grapes.jpg', 'key': 'u', 'origWidth': 411, 'origHeight': 411, 'width': 411, 'height': 411, 'widthPercent': 0.45, 'rescaleHeight': False, 'trialN': 47, 'loaded': True, 'loadedTime': 2946.3000000715256, 'positionName': 'LEFT', 'positionCoords': [326.28, 306.5], 'bid': 5.54}, {'imgObject': {}, 'id': 'granola w milk', 'src': '/static/foodstim60/granola w milk.jpg', 'key': 'i', 'origWidth': 410, 'origHeight': 410, 'width': 410, 'height': 410, 'widthPercent': 0.45, 'rescaleHeight': False, 'trialN': 47, 'loaded': True, 'loadedTime': 2783.600000023842, 'positionName': 'RIGHT', 'positionCoords': [798.72, 307], 'bid': 5.03}]",76763.5,1669836488652,Grapes,granola w milk,5.54,5.03,-0.5099999999999998,Grapes,1227.8999999761581,1229,1228.5,True,u,78512.0,1748.5,1669836490401,1749,HRV,HRV_0245,2022-11-30 19:31:24
48,"[{'imgObject': {}, 'id': 'cherry tomato', 'src': '/static/foodstim60/cherry tomato.jpg', 'key': 'u', 'origWidth': 410, 'origHeight': 410, 'width': 410, 'height': 410, 'widthPercent': 0.45, 'rescaleHeight': False, 'trialN': 48, 'loaded': True, 'loadedTime': 2948.7000000476837, 'positionName': 'LEFT', 'positionCoords': [327.28, 307], 'bid': 3.77}, {'imgObject': {}, 'id': 'cocktailshrimp', 'src': '/static/foodstim60/cocktailshrimp.jpg', 'key': 'i', 'origWidth': 410, 'origHeight': 410, 'width': 410, 'height': 410, 'widthPercent': 0.45, 'rescaleHeight': False, 'trialN': 48, 'loaded': True, 'loadedTime': 2630.2000000476837, 'positionName': 'RIGHT', 'positionCoords': [798.72, 307], 'bid': 1.19}]",78512.20000004768,1669836490401,cherry tomato,cocktailshrimp,3.77,1.19,-2.58,cherry tomato,1003.6000000238419,1004,1004.1000000238419,True,u,80033.0,1520.7999999523163,1669836491922,1521,HRV,HRV_0245,2022-11-30 19:31:24
49,"[{'imgObject': {}, 'id': 'popsicles', 'src': '/static/foodstim60/popsicles.jpg', 'key': 'u', 'origWidth': 410, 'origHeight': 410, 'width': 410, 'height': 410, 'widthPercent': 0.45, 'rescaleHeight': False, 'trialN': 49, 'loaded': True, 'loadedTime': 2988.100000023842, 'positionName': 'LEFT', 'positionCoords': [327.28, 307], 'bid': 6.640000000000001}, {'imgObject': {}, 'id': 'steak', 'src': '/static/foodstim60/steak.jpg', 'key': 'i', 'origWidth': 410, 'origHeight': 410, 'width': 410, 'height': 410, 'widthPercent': 0.45, 'rescaleHeight': False, 'trialN': 49, 'loaded': True, 'loadedTime': 2755.5, 'positionName': 'RIGHT', 'positionCoords': [798.72, 307], 'bid': 9.3}]",80033.20000004768,1669836491922,popsicles,steak,6.640000000000001,9.3,2.66,steak,778.7999999523163,779,779.2999999523163,True,i,81318.20000004768,1285.0,1669836493207,1285,HRV,HRV_0245,2022-11-30 19:31:24
50,"[{'imgObject': {}, 'id': 'bagel and cc', 'src': '/static/foodstim60/bagel and cc.jpg', 'key': 'u', 'origWidth': 410, 'origHeight': 410, 'width': 410, 'height': 410, 'widthPercent': 0.45, 'rescaleHeight': False, 'trialN': 50, 'loaded': True, 'loadedTime': 2931, 'positionName': 'LEFT', 'positionCoords': [327.28, 307], 'bid': 2.34}, {'imgObject': {}, 'id': 'raisin bran w milk', 'src': '/static/foodstim60/raisin bran w milk.jpg', 'key': 'i', 'origWidth': 411, 'origHeight': 411, 'width': 411, 'height': 411, 'widthPercent': 0.45, 'rescaleHeight': False, 'trialN': 50, 'loaded': True, 'loadedTime': 2666.8000000715256, 'positionName': 'RIGHT', 'positionCoords': [798.72, 306.5], 'bid': 4.28}]",81318.39999997616,1669836493207,bagel and cc,raisin bran w milk,2.34,4.28,1.9400000000000004,bagel and cc,1467.9000000953674,1469,1468.4000000953674,True,u,83292.89999997616,1974.5,1669836495182,1975,HRV,HRV_0245,2022-11-30 19:31:24
51,"[{'imgObject': {}, 'id': 'omelette', 'src': '/static/foodstim60/omelette.jpg', 'key': 'u', 'origWidth': 410, 'origHeight': 409, 'width': 410, 'height': 409, 'widthPercent': 0.45, 'rescaleHeight': False, 'trialN': 51, 'loaded': True, 'loadedTime': 2739, 'positionName': 'LEFT', 'positionCoords': [327.28, 307.5], 'bid': 1.41}, {'imgObject': {}, 'id': 'corn cob', 'src': '/static/foodstim60/corn cob.jpg', 'key': 'i', 'origWidth': 411, 'origHeight': 411, 'width': 411, 'height': 411, 'widthPercent': 0.45, 'rescaleHeight': False, 'trialN': 51, 'loaded': True, 'loadedTime': 2468.100000023842, 'positionName': 'RIGHT', 'positionCoords': [798.72, 306.5], 'bid': 3.99}]",83293.10000002384,1669836495182,omelette,corn cob,1.41,3.99,2.58,corn cob,682.2999999523163,683,682.7999999523163,True,i,84498.10000002384,1205.0,1669836496387,1205,HRV,HRV_0245,2022-11-30 19:31:24
52,"[{'imgObject': {}, 'id': 'avocado', 'src': '/static/foodstim60/avocado.jpg', 'key': 'u', 'origWidth': 409, 'origHeight': 409, 'width': 409, 'height': 409, 'widthPercent': 0.45, 'rescaleHeight': False, 'trialN': 52, 'loaded': True, 'loadedTime': 2949.8000000715256, 'positionName': 'LEFT', 'positionCoords': [328.28, 307.5], 'bid': 0.5700000000000001}, {'imgObject': {}, 'id': 'raisin bran w milk', 'src': '/static/foodstim60/raisin bran w milk.jpg', 'key': 'i', 'origWidth': 411, 'origHeight': 411, 'width': 411, 'height': 411, 'widthPercent': 0.45, 'rescaleHeight': False, 'trialN': 52, 'loaded': True, 'loadedTime': 2662.7000000476837, 'positionName': 'RIGHT', 'positionCoords': [798.72, 306.5], 'bid': 4.28}]",84498.39999997616,1669836496387,avocado,raisin bran w milk,0.5700000000000001,4.28,3.71,raisin bran w milk,1189.0,1190,1189.6000000238419,True,i,86199.39999997616,1701.0,1669836498088,1701,HRV,HRV_0245,2022-11-30 19:31:24
53,"[{'imgObject': {}, 'id': 'rigatoni and sauce', 'src': '/static/foodstim60/rigatoni and sauce.jpg', 'key': 'u', 'origWidth': 410, 'origHeight': 411, 'width': 410, 'height': 411, 'widthPercent': 0.45, 'rescaleHeight': False, 'trialN': 53, 'loaded': True, 'loadedTime': 2951.899999976158, 'positionName': 'LEFT', 'positionCoords': [327.28, 306.5], 'bid': 6.01}, {'imgObject': {}, 'id': 'luckycharms', 'src': '/static/foodstim60/luckycharms.jpg', 'key': 'i', 'origWidth': 410, 'origHeight': 409, 'width': 410, 'height': 409, 'widthPercent': 0.45, 'rescaleHeight': False, 'trialN': 53, 'loaded': True, 'loadedTime': 2874.5, 'positionName': 'RIGHT', 'positionCoords': [798.72, 307.5], 'bid': 7}]",86199.60000002384,1669836498088,rigatoni and sauce,luckycharms,6.01,7.0,0.9900000000000002,rigatoni and sauce,862.7999999523163,864,863.3999999761581,True,u,87580.60000002384,1381.0,1669836499469,1381,HRV,HRV_0245,2022-11-30 19:31:24
54,"[{'imgObject': {}, 'id': 'baked potato', 'src': '/static/foodstim60/baked potato.jpg', 'key': 'u', 'origWidth': 409, 'origHeight': 410, 'width': 409, 'height': 410, 'widthPercent': 0.45, 'rescaleHeight': False, 'trialN': 54, 'loaded': True, 'loadedTime': 2554.7000000476837, 'positionName': 'LEFT', 'positionCoords': [328.28, 307], 'bid': 6.05}, {'imgObject': {}, 'id': 'rigatoni and sauce', 'src': '/static/foodstim60/rigatoni and sauce.jpg', 'key': 'i', 'origWidth': 410, 'origHeight': 411, 'width': 410, 'height': 411, 'widthPercent': 0.45, 'rescaleHeight': False, 'trialN': 54, 'loaded': True, 'loadedTime': 2951.5, 'positionName': 'RIGHT', 'positionCoords': [798.72, 306.5], 'bid': 6.01}]",87580.89999997616,1669836499470,baked potato,rigatoni and sauce,6.05,6.01,-0.040000000000000036,rigatoni and sauce,1179.0,1172,1179.5,True,i,89269.30000007153,1688.4000000953674,1669836501151,1681,HRV,HRV_0245,2022-11-30 19:31:24
55,"[{'imgObject': {}, 'id': 'popsicles', 'src': '/static/foodstim60/popsicles.jpg', 'key': 'u', 'origWidth': 410, 'origHeight': 410, 'width': 410, 'height': 410, 'widthPercent': 0.45, 'rescaleHeight': False, 'trialN': 55, 'loaded': True, 'loadedTime': 2990, 'positionName': 'LEFT', 'positionCoords': [327.28, 307], 'bid': 6.640000000000001}, {'imgObject': {}, 'id': 'veggieswithdip', 'src': '/static/foodstim60/veggieswithdip.jpg', 'key': 'i', 'origWidth': 409, 'origHeight': 409, 'width': 409, 'height': 409, 'widthPercent': 0.45, 'rescaleHeight': False, 'trialN': 55, 'loaded': True, 'loadedTime': 2903.100000023842, 'positionName': 'RIGHT', 'positionCoords': [798.72, 307.5], 'bid': 4.67}]",89269.5,1669836501151,popsicles,veggieswithdip,6.640000000000001,4.67,-1.9700000000000006,popsicles,731.3999999761581,732,732.0,True,u,90517.60000002384,1248.1000000238419,1669836502399,1248,HRV,HRV_0245,2022-11-30 19:31:24
56,"[{'imgObject': {}, 'id': 'grilled chicken strips', 'src': '/static/foodstim60/grilled chicken strips.jpg', 'key': 'u', 'origWidth': 410, 'origHeight': 411, 'width': 410, 'height': 411, 'widthPercent': 0.45, 'rescaleHeight': False, 'trialN': 56, 'loaded': True, 'loadedTime': 2770.100000023842, 'positionName': 'LEFT', 'positionCoords': [327.28, 306.5], 'bid': 6.73}, {'imgObject': {}, 'id': 'mashed potato', 'src': '/static/foodstim60/mashed potato.jpg', 'key': 'i', 'origWidth': 409, 'origHeight': 409, 'width': 409, 'height': 409, 'widthPercent': 0.45, 'rescaleHeight': False, 'trialN': 56, 'loaded': True, 'loadedTime': 2964.2000000476837, 'positionName': 'RIGHT', 'positionCoords': [798.72, 307.5], 'bid': 4.68}]",90517.80000007153,1669836502400,grilled chicken strips,mashed potato,6.73,4.68,-2.0500000000000007,grilled chicken strips,605.0,605,605.5,True,u,91638.80000007153,1121.0,1669836503521,1121,HRV,HRV_0245,2022-11-30 19:31:24
57,"[{'imgObject': {}, 'id': 'mashed potato', 'src': '/static/foodstim60/mashed potato.jpg', 'key': 'u', 'origWidth': 409, 'origHeight': 409, 'width': 409, 'height': 409, 'widthPercent': 0.45, 'rescaleHeight': False, 'trialN': 57, 'loaded': True, 'loadedTime': 2962.8000000715256, 'positionName': 'LEFT', 'positionCoords': [328.28, 307.5], 'bid': 4.68}, {'imgObject': {}, 'id': 'bagel plain', 'src': '/static/foodstim60/bagel plain.jpg', 'key': 'i', 'origWidth': 410, 'origHeight': 410, 'width': 410, 'height': 410, 'widthPercent': 0.45, 'rescaleHeight': False, 'trialN': 57, 'loaded': True, 'loadedTime': 2733.8000000715256, 'positionName': 'RIGHT', 'positionCoords': [798.72, 307], 'bid': 2.36}]",91639.10000002384,1669836503521,mashed potato,bagel plain,4.68,2.36,-2.32,bagel plain,696.2000000476837,697,696.7000000476837,True,i,92853.10000002384,1214.0,1669836504735,1214,HRV,HRV_0245,2022-11-30 19:31:24
58,"[{'imgObject': {}, 'id': 'eggsalad', 'src': '/static/foodstim60/eggsalad.jpg', 'key': 'u', 'origWidth': 410, 'origHeight': 409, 'width': 410, 'height': 409, 'widthPercent': 0.45, 'rescaleHeight': False, 'trialN': 58, 'loaded': True, 'loadedTime': 2928.600000023842, 'positionName': 'LEFT', 'positionCoords': [327.28, 307.5], 'bid': 4.21}, {'imgObject': {}, 'id': 'turkeysandwich', 'src': '/static/foodstim60/turkeysandwich.jpg', 'key': 'i', 'origWidth': 409, 'origHeight': 409, 'width': 409, 'height': 409, 'widthPercent': 0.45, 'rescaleHeight': False, 'trialN': 58, 'loaded': True, 'loadedTime': 2729.100000023842, 'positionName': 'RIGHT', 'positionCoords': [798.72, 307.5], 'bid': 6.3}]",92853.39999997616,1669836504735,eggsalad,turkeysandwich,4.21,6.3,2.09,turkeysandwich,808.2000000476837,809,808.6000000238419,True,i,94171.5,1318.1000000238419,1669836506053,1318,HRV,HRV_0245,2022-11-30 19:31:24
59,"[{'imgObject': {}, 'id': 'apple slices', 'src': '/static/foodstim60/apple slices.jpg', 'key': 'u', 'origWidth': 409, 'origHeight': 410, 'width': 409, 'height': 410, 'widthPercent': 0.45, 'rescaleHeight': False, 'trialN': 59, 'loaded': True, 'loadedTime': 2815.399999976158, 'positionName': 'LEFT', 'positionCoords': [328.28, 307], 'bid': 5.96}, {'imgObject': {}, 'id': 'pear', 'src': '/static/foodstim60/pear.jpg', 'key': 'i', 'origWidth': 411, 'origHeight': 410, 'width': 411, 'height': 410, 'widthPercent': 0.45, 'rescaleHeight': False, 'trialN': 59, 'loaded': True, 'loadedTime': 2872.899999976158, 'positionName': 'RIGHT', 'positionCoords': [798.72, 307], 'bid': 5.95}]",94171.80000007153,1669836506054,apple slices,pear,5.96,5.95,-0.009999999999999787,pear,1053.3999999761581,1053,1053.8999999761581,True,i,95734.5,1562.6999999284744,1669836507616,1562,HRV,HRV_0245,2022-11-30 19:31:24
60,"[{'imgObject': {}, 'id': 'mac & cheese', 'src': '/static/foodstim60/mac & cheese.jpg', 'key': 'u', 'origWidth': 410, 'origHeight': 410, 'width': 410, 'height': 410, 'widthPercent': 0.45, 'rescaleHeight': False, 'trialN': 60, 'loaded': True, 'loadedTime': 2834.2000000476837, 'positionName': 'LEFT', 'positionCoords': [327.28, 307], 'bid': 4.41}, {'imgObject': {}, 'id': 'salad w chicken', 'src': '/static/foodstim60/salad w chicken.jpg', 'key': 'i', 'origWidth': 411, 'origHeight': 411, 'width': 411, 'height': 411, 'widthPercent': 0.45, 'rescaleHeight': False, 'trialN': 60, 'loaded': True, 'loadedTime': 2964.399999976158, 'positionName': 'RIGHT', 'positionCoords': [798.72, 306.5], 'bid': 4.36}]",95734.70000004768,1669836507616,mac & cheese,salad w chicken,4.41,4.36,-0.04999999999999982,mac & cheese,1073.1000000238419,1074,1073.6999999284744,True,u,97316.89999997616,1582.1999999284744,1669836509199,1583,HRV,HRV_0245,2022-11-30 19:31:24
61,"[{'imgObject': {}, 'id': 'cherry tomato', 'src': '/static/foodstim60/cherry tomato.jpg', 'key': 'u', 'origWidth': 410, 'origHeight': 410, 'width': 410, 'height': 410, 'widthPercent': 0.45, 'rescaleHeight': False, 'trialN': 61, 'loaded': True, 'loadedTime': 2948.600000023842, 'positionName': 'LEFT', 'positionCoords': [327.28, 307], 'bid': 3.77}, {'imgObject': {}, 'id': 'corn cob', 'src': '/static/foodstim60/corn cob.jpg', 'key': 'i', 'origWidth': 411, 'origHeight': 411, 'width': 411, 'height': 411, 'widthPercent': 0.45, 'rescaleHeight': False, 'trialN': 61, 'loaded': True, 'loadedTime': 2454.399999976158, 'positionName': 'RIGHT', 'positionCoords': [798.72, 306.5], 'bid': 3.99}]",97317.10000002384,1669836509199,cherry tomato,corn cob,3.77,3.99,0.2200000000000002,corn cob,1419.1000000238419,1419,1419.2999999523163,True,i,99247.60000002384,1930.5,1669836511129,1930,HRV,HRV_0245,2022-11-30 19:31:24
62,"[{'imgObject': {}, 'id': 'popsicles', 'src': '/static/foodstim60/popsicles.jpg', 'key': 'u', 'origWidth': 410, 'origHeight': 410, 'width': 410, 'height': 410, 'widthPercent': 0.45, 'rescaleHeight': False, 'trialN': 62, 'loaded': True, 'loadedTime': 2989.8000000715256, 'positionName': 'LEFT', 'positionCoords': [327.28, 307], 'bid': 6.640000000000001}, {'imgObject': {}, 'id': 'ice cream sundae 002', 'src': '/static/foodstim60/ice cream sundae 002.jpg', 'key': 'i', 'origWidth': 409, 'origHeight': 409, 'width': 409, 'height': 409, 'widthPercent': 0.45, 'rescaleHeight': False, 'trialN': 62, 'loaded': True, 'loadedTime': 2685.7000000476837, 'positionName': 'RIGHT', 'positionCoords': [798.72, 307.5], 'bid': 5.87}]",99247.89999997616,1669836511130,popsicles,ice cream sundae 002,6.640000000000001,5.87,-0.7700000000000005,ice cream sundae 002,686.0,686,686.6000000238419,True,i,100449.30000007153,1201.4000000953674,1669836512331,1201,HRV,HRV_0245,2022-11-30 19:31:24
63,"[{'imgObject': {}, 'id': 'corn cob', 'src': '/static/foodstim60/corn cob.jpg', 'key': 'u', 'origWidth': 411, 'origHeight': 411, 'width': 411, 'height': 411, 'widthPercent': 0.45, 'rescaleHeight': False, 'trialN': 63, 'loaded': True, 'loadedTime': 2468.5, 'positionName': 'LEFT', 'positionCoords': [326.28, 306.5], 'bid': 3.99}, {'imgObject': {}, 'id': 'mac & cheese', 'src': '/static/foodstim60/mac & cheese.jpg', 'key': 'i', 'origWidth': 410, 'origHeight': 410, 'width': 410, 'height': 410, 'widthPercent': 0.45, 'rescaleHeight': False, 'trialN': 63, 'loaded': True, 'loadedTime': 2834, 'positionName': 'RIGHT', 'positionCoords': [798.72, 307], 'bid': 4.41}]",100449.39999997616,1669836512331,corn cob,mac & cheese,3.99,4.41,0.41999999999999993,corn cob,1857.5,1858,1857.9000000953674,True,u,102812.80000007153,2363.4000000953674,1669836514695,2364,HRV,HRV_0245,2022-11-30 19:31:24
64,"[{'imgObject': {}, 'id': 'ice cream sundae 002', 'src': '/static/foodstim60/ice cream sundae 002.jpg', 'key': 'u', 'origWidth': 409, 'origHeight': 409, 'width': 409, 'height': 409, 'widthPercent': 0.45, 'rescaleHeight': False, 'trialN': 64, 'loaded': True, 'loadedTime': 2686, 'positionName': 'LEFT', 'positionCoords': [328.28, 307.5], 'bid': 5.87}, {'imgObject': {}, 'id': 'kiwi', 'src': '/static/foodstim60/kiwi.jpg', 'key': 'i', 'origWidth': 410, 'origHeight': 410, 'width': 410, 'height': 410, 'widthPercent': 0.45, 'rescaleHeight': False, 'trialN': 64, 'loaded': True, 'loadedTime': 2968.899999976158, 'positionName': 'RIGHT', 'positionCoords': [798.72, 307], 'bid': 5.61}]",102812.89999997616,1669836514695,ice cream sundae 002,kiwi,5.87,5.61,-0.2599999999999998,ice cream sundae 002,640.8000000715256,641,641.2000000476837,True,u,103967.30000007153,1154.4000000953674,1669836515849,1154,HRV,HRV_0245,2022-11-30 19:31:24
65,"[{'imgObject': {}, 'id': 'Grapes', 'src': '/static/foodstim60/Grapes.jpg', 'key': 'u', 'origWidth': 411, 'origHeight': 411, 'width': 411, 'height': 411, 'widthPercent': 0.45, 'rescaleHeight': False, 'trialN': 65, 'loaded': True, 'loadedTime': 2945.100000023842, 'positionName': 'LEFT', 'positionCoords': [326.28, 306.5], 'bid': 5.54}, {'imgObject': {}, 'id': 'mashed potato', 'src': '/static/foodstim60/mashed potato.jpg', 'key': 'i', 'origWidth': 409, 'origHeight': 409, 'width': 409, 'height': 409, 'widthPercent': 0.45, 'rescaleHeight': False, 'trialN': 65, 'loaded': True, 'loadedTime': 2964, 'positionName': 'RIGHT', 'positionCoords': [798.72, 307.5], 'bid': 4.68}]",103967.5,1669836515849,Grapes,mashed potato,5.54,4.68,-0.8600000000000003,Grapes,1087.8000000715256,1089,1088.3000000715256,True,u,105577.60000002384,1610.1000000238419,1669836517459,1610,HRV,HRV_0245,2022-11-30 19:31:24
66,"[{'imgObject': {}, 'id': 'shreddedwheatwithmilk', 'src': '/static/foodstim60/shreddedwheatwithmilk.jpg', 'key': 'u', 'origWidth': 410, 'origHeight': 410, 'width': 410, 'height': 410, 'widthPercent': 0.45, 'rescaleHeight': False, 'trialN': 66, 'loaded': True, 'loadedTime': 2531.5, 'positionName': 'LEFT', 'positionCoords': [327.28, 307], 'bid': 5.09}, {'imgObject': {}, 'id': 'cheerios', 'src': '/static/foodstim60/cheerios.jpg', 'key': 'i', 'origWidth': 409, 'origHeight': 410, 'width': 409, 'height': 410, 'widthPercent': 0.45, 'rescaleHeight': False, 'trialN': 66, 'loaded': True, 'loadedTime': 2970.3000000715256, 'positionName': 'RIGHT', 'positionCoords': [798.72, 307], 'bid': 5.1000000000000005}]",105577.80000007153,1669836517460,shreddedwheatwithmilk,cheerios,5.09,5.1000000000000005,0.010000000000000675,shreddedwheatwithmilk,953.5,954,954.0,True,u,107039.60000002384,1461.7999999523163,1669836518921,1461,HRV,HRV_0245,2022-11-30 19:31:24
67,"[{'imgObject': {}, 'id': 'granola w milk', 'src': '/static/foodstim60/granola w milk.jpg', 'key': 'u', 'origWidth': 410, 'origHeight': 410, 'width': 410, 'height': 410, 'widthPercent': 0.45, 'rescaleHeight': False, 'trialN': 67, 'loaded': True, 'loadedTime': 2783.399999976158, 'positionName': 'LEFT', 'positionCoords': [327.28, 307], 'bid': 5.03}, {'imgObject': {}, 'id': 'yogurt no spoon', 'src': '/static/foodstim60/yogurt no spoon.jpg', 'key': 'i', 'origWidth': 411, 'origHeight': 410, 'width': 411, 'height': 410, 'widthPercent': 0.45, 'rescaleHeight': False, 'trialN': 67, 'loaded': True, 'loadedTime': 2886.8000000715256, 'positionName': 'RIGHT', 'positionCoords': [798.72, 307], 'bid': 3.72}]",107039.80000007153,1669836518922,granola w milk,yogurt no spoon,5.03,3.72,-1.31,granola w milk,1025.7999999523163,1026,1026.1999999284744,True,u,108571.80000007153,1532.0,1669836520454,1532,HRV,HRV_0245,2022-11-30 19:31:24
68,"[{'imgObject': {}, 'id': 'roastedpotatoes', 'src': '/static/foodstim60/roastedpotatoes.jpg', 'key': 'u', 'origWidth': 409, 'origHeight': 410, 'width': 409, 'height': 410, 'widthPercent': 0.45, 'rescaleHeight': False, 'trialN': 68, 'loaded': True, 'loadedTime': 2567.7000000476837, 'positionName': 'LEFT', 'positionCoords': [328.28, 307], 'bid': 7.22}, {'imgObject': {}, 'id': 'chickenfingers', 'src': '/static/foodstim60/chickenfingers.jpg', 'key': 'i', 'origWidth': 410, 'origHeight': 410, 'width': 410, 'height': 410, 'widthPercent': 0.45, 'rescaleHeight': False, 'trialN': 68, 'loaded': True, 'loadedTime': 2900.8000000715256, 'positionName': 'RIGHT', 'positionCoords': [798.72, 307], 'bid': 6.9}]",108572.20000004768,1669836520454,roastedpotatoes,chickenfingers,7.22,6.9,-0.3199999999999994,roastedpotatoes,879.7999999523163,880,880.3999999761581,True,u,109969.5,1397.2999999523163,1669836521851,1397,HRV,HRV_0245,2022-11-30 19:31:24
69,"[{'imgObject': {}, 'id': 'sushi w_condiments', 'src': '/static/foodstim60/sushi w_condiments.jpg', 'key': 'u', 'origWidth': 410, 'origHeight': 410, 'width': 410, 'height': 410, 'widthPercent': 0.45, 'rescaleHeight': False, 'trialN': 69, 'loaded': True, 'loadedTime': 2643, 'positionName': 'LEFT', 'positionCoords': [327.28, 307], 'bid': 0.5}, {'imgObject': {}, 'id': 'hotdog w must', 'src': '/static/foodstim60/hotdog w must.jpg', 'key': 'i', 'origWidth': 409, 'origHeight': 409, 'width': 409, 'height': 409, 'widthPercent': 0.45, 'rescaleHeight': False, 'trialN': 69, 'loaded': True, 'loadedTime': 2657, 'positionName': 'RIGHT', 'positionCoords': [798.72, 307.5], 'bid': 3.26}]",109969.89999997616,1669836521852,sushi w_condiments,hotdog w must,0.5,3.26,2.76,hotdog w must,774.5,775,774.9000000953674,True,i,111256.70000004768,1286.8000000715256,1669836523138,1286,HRV,HRV_0245,2022-11-30 19:31:24
70,"[{'imgObject': {}, 'id': 'strawberries', 'src': '/static/foodstim60/strawberries.jpg', 'key': 'u', 'origWidth': 410, 'origHeight': 410, 'width': 410, 'height': 410, 'widthPercent': 0.45, 'rescaleHeight': False, 'trialN': 70, 'loaded': True, 'loadedTime': 2971.600000023842, 'positionName': 'LEFT', 'positionCoords': [327.28, 307], 'bid': 5.59}, {'imgObject': {}, 'id': 'Grapes', 'src': '/static/foodstim60/Grapes.jpg', 'key': 'i', 'origWidth': 411, 'origHeight': 411, 'width': 411, 'height': 411, 'widthPercent': 0.45, 'rescaleHeight': False, 'trialN': 70, 'loaded': True, 'loadedTime': 2946.7000000476837, 'positionName': 'RIGHT', 'positionCoords': [798.72, 306.5], 'bid': 5.54}]",111256.89999997616,1669836523139,strawberries,Grapes,5.59,5.54,-0.04999999999999982,strawberries,994.5,995,995.0,True,u,112760.0,1503.1000000238419,1669836524642,1503,HRV,HRV_0245,2022-11-30 19:31:24
71,"[{'imgObject': {}, 'id': 'omelette', 'src': '/static/foodstim60/omelette.jpg', 'key': 'u', 'origWidth': 410, 'origHeight': 409, 'width': 410, 'height': 409, 'widthPercent': 0.45, 'rescaleHeight': False, 'trialN': 71, 'loaded': True, 'loadedTime': 2738.899999976158, 'positionName': 'LEFT', 'positionCoords': [327.28, 307.5], 'bid': 1.41}, {'imgObject': {}, 'id': 'lox', 'src': '/static/foodstim60/lox.jpg', 'key': 'i', 'origWidth': 410, 'origHeight': 411, 'width': 410, 'height': 411, 'widthPercent': 0.45, 'rescaleHeight': False, 'trialN': 71, 'loaded': True, 'loadedTime': 2451.8000000715256, 'positionName': 'RIGHT', 'positionCoords': [798.72, 306.5], 'bid': 1.75}]",112760.30000007153,1669836524642,omelette,lox,1.41,1.75,0.3400000000000001,omelette,775.2999999523163,776,775.7999999523163,True,u,114054.10000002384,1293.7999999523163,1669836525936,1294,HRV,HRV_0245,2022-11-30 19:31:24
72,"[{'imgObject': {}, 'id': 'shreddedwheatwithmilk', 'src': '/static/foodstim60/shreddedwheatwithmilk.jpg', 'key': 'u', 'origWidth': 410, 'origHeight': 410, 'width': 410, 'height': 410, 'widthPercent': 0.45, 'rescaleHeight': False, 'trialN': 72, 'loaded': True, 'loadedTime': 2531.100000023842, 'positionName': 'LEFT', 'positionCoords': [327.28, 307], 'bid': 5.09}, {'imgObject': {}, 'id': 'mashed potato', 'src': '/static/foodstim60/mashed potato.jpg', 'key': 'i', 'origWidth': 409, 'origHeight': 409, 'width': 409, 'height': 409, 'widthPercent': 0.45, 'rescaleHeight': False, 'trialN': 72, 'loaded': True, 'loadedTime': 2963.899999976158, 'positionName': 'RIGHT', 'positionCoords': [798.72, 307.5], 'bid': 4.68}]",114054.39999997616,1669836525936,shreddedwheatwithmilk,mashed potato,5.09,4.68,-0.41000000000000014,mashed potato,1260.9000000953674,1262,1261.5,True,i,115822.0,1767.6000000238419,1669836527704,1768,HRV,HRV_0245,2022-11-30 19:31:24
73,"[{'imgObject': {}, 'id': 'burger', 'src': '/static/foodstim60/burger.jpg', 'key': 'u', 'origWidth': 409, 'origHeight': 409, 'width': 409, 'height': 409, 'widthPercent': 0.45, 'rescaleHeight': False, 'trialN': 73, 'loaded': True, 'loadedTime': 2490.5, 'positionName': 'LEFT', 'positionCoords': [328.28, 307.5], 'bid': 6.41}, {'imgObject': {}, 'id': 'Grapes', 'src': '/static/foodstim60/Grapes.jpg', 'key': 'i', 'origWidth': 411, 'origHeight': 411, 'width': 411, 'height': 411, 'widthPercent': 0.45, 'rescaleHeight': False, 'trialN': 73, 'loaded': True, 'loadedTime': 2947.100000023842, 'positionName': 'RIGHT', 'positionCoords': [798.72, 306.5], 'bid': 5.54}]",115822.30000007153,1669836527704,burger,Grapes,6.41,5.54,-0.8700000000000001,burger,1406.1999999284744,1407,1406.6999999284744,True,u,117738.39999997616,1916.0999999046326,1669836529620,1916,HRV,HRV_0245,2022-11-30 19:31:24
74,"[{'imgObject': {}, 'id': 'eggs', 'src': '/static/foodstim60/eggs.jpg', 'key': 'u', 'origWidth': 409, 'origHeight': 409, 'width': 409, 'height': 409, 'widthPercent': 0.45, 'rescaleHeight': False, 'trialN': 74, 'loaded': True, 'loadedTime': 2800.7000000476837, 'positionName': 'LEFT', 'positionCoords': [328.28, 307.5], 'bid': 5.66}, {'imgObject': {}, 'id': 'hashbrowns', 'src': '/static/foodstim60/hashbrowns.jpg', 'key': 'i', 'origWidth': 411, 'origHeight': 410, 'width': 411, 'height': 410, 'widthPercent': 0.45, 'rescaleHeight': False, 'trialN': 74, 'loaded': True, 'loadedTime': 2981.8000000715256, 'positionName': 'RIGHT', 'positionCoords': [798.72, 307], 'bid': 4.84}]",117738.5,1669836529620,eggs,hashbrowns,5.66,4.84,-0.8200000000000003,hashbrowns,694.8999999761581,695,695.2000000476837,True,i,118952.10000002384,1213.6000000238419,1669836530834,1214,HRV,HRV_0245,2022-11-30 19:31:24
75,"[{'imgObject': {}, 'id': 'burrito', 'src': '/static/foodstim60/burrito.jpg', 'key': 'u', 'origWidth': 410, 'origHeight': 410, 'width': 410, 'height': 410, 'widthPercent': 0.45, 'rescaleHeight': False, 'trialN': 75, 'loaded': True, 'loadedTime': 2594.2000000476837, 'positionName': 'LEFT', 'positionCoords': [327.28, 307], 'bid': 5.45}, {'imgObject': {}, 'id': 'avocado', 'src': '/static/foodstim60/avocado.jpg', 'key': 'i', 'origWidth': 409, 'origHeight': 409, 'width': 409, 'height': 409, 'widthPercent': 0.45, 'rescaleHeight': False, 'trialN': 75, 'loaded': True, 'loadedTime': 2950.100000023842, 'positionName': 'RIGHT', 'positionCoords': [798.72, 307.5], 'bid': 0.5700000000000001}]",118952.39999997616,1669836530834,burrito,avocado,5.45,0.5700000000000001,-4.88,burrito,746.6000000238419,747,747.2000000476837,True,u,120211.60000002384,1259.2000000476837,1669836532093,1259,HRV,HRV_0245,2022-11-30 19:31:24
76,"[{'imgObject': {}, 'id': 'kiwi', 'src': '/static/foodstim60/kiwi.jpg', 'key': 'u', 'origWidth': 410, 'origHeight': 410, 'width': 410, 'height': 410, 'widthPercent': 0.45, 'rescaleHeight': False, 'trialN': 76, 'loaded': True, 'loadedTime': 2969, 'positionName': 'LEFT', 'positionCoords': [327.28, 307], 'bid': 5.61}, {'imgObject': {}, 'id': 'sweetpotato', 'src': '/static/foodstim60/sweetpotato.jpg', 'key': 'i', 'origWidth': 410, 'origHeight': 410, 'width': 410, 'height': 410, 'widthPercent': 0.45, 'rescaleHeight': False, 'trialN': 76, 'loaded': True, 'loadedTime': 2402.2000000476837, 'positionName': 'RIGHT', 'positionCoords': [798.72, 307], 'bid': 1.56}]",120211.80000007153,1669836532094,kiwi,sweetpotato,5.61,1.56,-4.050000000000001,kiwi,1086.3999999761581,1086,1086.7999999523163,True,u,121814.70000004768,1602.8999999761581,1669836533696,1602,HRV,HRV_0245,2022-11-30 19:31:24
77,"[{'imgObject': {}, 'id': 'blackbeanswithrice', 'src': '/static/foodstim60/blackbeanswithrice.jpg', 'key': 'u', 'origWidth': 410, 'origHeight': 410, 'width': 410, 'height': 410, 'widthPercent': 0.45, 'rescaleHeight': False, 'trialN': 77, 'loaded': True, 'loadedTime': 2504.7000000476837, 'positionName': 'LEFT', 'positionCoords': [327.28, 307], 'bid': 6.2700000000000005}, {'imgObject': {}, 'id': 'chicken nuggets2', 'src': '/static/foodstim60/chicken nuggets2.jpg', 'key': 'i', 'origWidth': 410, 'origHeight': 409, 'width': 410, 'height': 409, 'widthPercent': 0.45, 'rescaleHeight': False, 'trialN': 77, 'loaded': True, 'loadedTime': 2713, 'positionName': 'RIGHT', 'positionCoords': [798.72, 307.5], 'bid': 6.32}]",121815.0,1669836533697,blackbeanswithrice,chicken nuggets2,6.2700000000000005,6.32,0.04999999999999982,chicken nuggets2,913.3999999761581,914,913.8999999761581,True,i,123238.10000002384,1423.1000000238419,1669836535120,1423,HRV,HRV_0245,2022-11-30 19:31:24
78,"[{'imgObject': {}, 'id': 'orange slices', 'src': '/static/foodstim60/orange slices.jpg', 'key': 'u', 'origWidth': 409, 'origHeight': 410, 'width': 409, 'height': 410, 'widthPercent': 0.45, 'rescaleHeight': False, 'trialN': 78, 'loaded': True, 'loadedTime': 2671.3000000715256, 'positionName': 'LEFT', 'positionCoords': [328.28, 307], 'bid': 6.11}, {'imgObject': {}, 'id': 'cherry tomato', 'src': '/static/foodstim60/cherry tomato.jpg', 'key': 'i', 'origWidth': 410, 'origHeight': 410, 'width': 410, 'height': 410, 'widthPercent': 0.45, 'rescaleHeight': False, 'trialN': 78, 'loaded': True, 'loadedTime': 2948.8000000715256, 'positionName': 'RIGHT', 'positionCoords': [798.72, 307], 'bid': 3.77}]",123238.30000007153,1669836535120,orange slices,cherry tomato,6.11,3.77,-2.3400000000000003,orange slices,664.6999999284744,665,665.0,True,u,124411.5,1173.1999999284744,1669836536293,1173,HRV,HRV_0245,2022-11-30 19:31:24
79,"[{'imgObject': {}, 'id': 'eggs', 'src': '/static/foodstim60/eggs.jpg', 'key': 'u', 'origWidth': 409, 'origHeight': 409, 'width': 409, 'height': 409, 'widthPercent': 0.45, 'rescaleHeight': False, 'trialN': 79, 'loaded': True, 'loadedTime': 2799, 'positionName': 'LEFT', 'positionCoords': [328.28, 307.5], 'bid': 5.66}, {'imgObject': {}, 'id': 'kiwi', 'src': '/static/foodstim60/kiwi.jpg', 'key': 'i', 'origWidth': 410, 'origHeight': 410, 'width': 410, 'height': 410, 'widthPercent': 0.45, 'rescaleHeight': False, 'trialN': 79, 'loaded': True, 'loadedTime': 2967, 'positionName': 'RIGHT', 'positionCoords': [798.72, 307], 'bid': 5.61}]",124411.70000004768,1669836536293,eggs,kiwi,5.66,5.61,-0.04999999999999982,kiwi,724.2999999523163,725,724.6999999284744,True,i,125643.10000002384,1231.3999999761581,1669836537525,1232,HRV,HRV_0245,2022-11-30 19:31:24
80,"[{'imgObject': {}, 'id': 'orange slices', 'src': '/static/foodstim60/orange slices.jpg', 'key': 'u', 'origWidth': 409, 'origHeight': 410, 'width': 409, 'height': 410, 'widthPercent': 0.45, 'rescaleHeight': False, 'trialN': 80, 'loaded': True, 'loadedTime': 2667.5, 'positionName': 'LEFT', 'positionCoords': [328.28, 307], 'bid': 6.11}, {'imgObject': {}, 'id': 'turkeysandwich', 'src': '/static/foodstim60/turkeysandwich.jpg', 'key': 'i', 'origWidth': 409, 'origHeight': 409, 'width': 409, 'height': 409, 'widthPercent': 0.45, 'rescaleHeight': False, 'trialN': 80, 'loaded': True, 'loadedTime': 2729.2000000476837, 'positionName': 'RIGHT', 'positionCoords': [798.72, 307.5], 'bid': 6.3}]",125643.60000002384,1669836537525,orange slices,turkeysandwich,6.11,6.3,0.1899999999999995,turkeysandwich,1505.2000000476837,1506,1505.6000000238419,True,i,127661.10000002384,2017.5,1669836539543,2018,HRV,HRV_0245,2022-11-30 19:31:24
81,"[{'imgObject': {}, 'id': 'mashed potato', 'src': '/static/foodstim60/mashed potato.jpg', 'key': 'u', 'origWidth': 409, 'origHeight': 409, 'width': 409, 'height': 409, 'widthPercent': 0.45, 'rescaleHeight': False, 'trialN': 81, 'loaded': True, 'loadedTime': 2964.3000000715256, 'positionName': 'LEFT', 'positionCoords': [328.28, 307.5], 'bid': 4.68}, {'imgObject': {}, 'id': 'banana', 'src': '/static/foodstim60/banana.jpg', 'key': 'i', 'origWidth': 410, 'origHeight': 410, 'width': 410, 'height': 410, 'widthPercent': 0.45, 'rescaleHeight': False, 'trialN': 81, 'loaded': True, 'loadedTime': 2982.5, 'positionName': 'RIGHT', 'positionCoords': [798.72, 307], 'bid': 4.7}]",127661.30000007153,1669836539543,mashed potato,banana,4.68,4.7,0.020000000000000462,mashed potato,875.0,875,875.5,True,u,129045.39999997616,1384.0999999046326,1669836540927,1384,HRV,HRV_0245,2022-11-30 19:31:24
82,"[{'imgObject': {}, 'id': 'fried eggs', 'src': '/static/foodstim60/fried eggs.jpg', 'key': 'u', 'origWidth': 410, 'origHeight': 410, 'width': 410, 'height': 410, 'widthPercent': 0.45, 'rescaleHeight': False, 'trialN': 82, 'loaded': True, 'loadedTime': 2985.100000023842, 'positionName': 'LEFT', 'positionCoords': [327.28, 307], 'bid': 5.95}, {'imgObject': {}, 'id': 'eggs', 'src': '/static/foodstim60/eggs.jpg', 'key': 'i', 'origWidth': 409, 'origHeight': 409, 'width': 409, 'height': 409, 'widthPercent': 0.45, 'rescaleHeight': False, 'trialN': 82, 'loaded': True, 'loadedTime': 2801.399999976158, 'positionName': 'RIGHT', 'positionCoords': [798.72, 307.5], 'bid': 5.66}]",129045.70000004768,1669836540927,fried eggs,eggs,5.95,5.66,-0.29000000000000004,fried eggs,872.3999999761581,873,872.8999999761581,True,u,130427.10000002384,1381.3999999761581,1669836542309,1382,HRV,HRV_0245,2022-11-30 19:31:24
83,"[{'imgObject': {}, 'id': 'seaweed', 'src': '/static/foodstim60/seaweed.jpg', 'key': 'u', 'origWidth': 410, 'origHeight': 410, 'width': 410, 'height': 410, 'widthPercent': 0.45, 'rescaleHeight': False, 'trialN': 83, 'loaded': True, 'loadedTime': 2469, 'positionName': 'LEFT', 'positionCoords': [327.28, 307], 'bid': 0.41}, {'imgObject': {}, 'id': 'salmon', 'src': '/static/foodstim60/salmon.jpg', 'key': 'i', 'origWidth': 410, 'origHeight': 409, 'width': 410, 'height': 409, 'widthPercent': 0.45, 'rescaleHeight': False, 'trialN': 83, 'loaded': True, 'loadedTime': 2528.7000000476837, 'positionName': 'RIGHT', 'positionCoords': [798.72, 307.5], 'bid': 0.46}]",130427.39999997616,1669836542309,seaweed,salmon,0.41,0.46,0.050000000000000044,salmon,600.9000000953674,602,601.5,True,i,131545.60000002384,1118.2000000476837,1669836543427,1118,HRV,HRV_0245,2022-11-30 19:31:24
84,"[{'imgObject': {}, 'id': 'burger', 'src': '/static/foodstim60/burger.jpg', 'key': 'u', 'origWidth': 409, 'origHeight': 409, 'width': 409, 'height': 409, 'widthPercent': 0.45, 'rescaleHeight': False, 'trialN': 84, 'loaded': True, 'loadedTime': 2490.600000023842, 'positionName': 'LEFT', 'positionCoords': [328.28, 307.5], 'bid': 6.41}, {'imgObject': {}, 'id': 'cherries', 'src': '/static/foodstim60/cherries.jpg', 'key': 'i', 'origWidth': 410, 'origHeight': 411, 'width': 410, 'height': 411, 'widthPercent': 0.45, 'rescaleHeight': False, 'trialN': 84, 'loaded': True, 'loadedTime': 2844.100000023842, 'positionName': 'RIGHT', 'positionCoords': [798.72, 306.5], 'bid': 6.83}]",131545.80000007153,1669836543428,burger,cherries,6.41,6.83,0.41999999999999993,burger,1337.0,1337,1337.5999999046326,True,u,133393.70000004768,1847.8999999761581,1669836545275,1847,HRV,HRV_0245,2022-11-30 19:31:24
85,"[{'imgObject': {}, 'id': 'roastedpotatoes', 'src': '/static/foodstim60/roastedpotatoes.jpg', 'key': 'u', 'origWidth': 409, 'origHeight': 410, 'width': 409, 'height': 410, 'widthPercent': 0.45, 'rescaleHeight': False, 'trialN': 85, 'loaded': True, 'loadedTime': 2567.3000000715256, 'positionName': 'LEFT', 'positionCoords': [328.28, 307], 'bid': 7.22}, {'imgObject': {}, 'id': 'turkey sandwich', 'src': '/static/foodstim60/turkey sandwich.jpg', 'key': 'i', 'origWidth': 409, 'origHeight': 409, 'width': 409, 'height': 409, 'widthPercent': 0.45, 'rescaleHeight': False, 'trialN': 85, 'loaded': True, 'loadedTime': 2915.5, 'positionName': 'RIGHT', 'positionCoords': [798.72, 307.5], 'bid': 6.640000000000001}]",133394.10000002384,1669836545276,roastedpotatoes,turkey sandwich,7.22,6.640000000000001,-0.5799999999999992,roastedpotatoes,765.6000000238419,766,766.2000000476837,True,u,134676.39999997616,1282.2999999523163,1669836546558,1282,HRV,HRV_0245,2022-11-30 19:31:24
86,"[{'imgObject': {}, 'id': 'hotdog w must', 'src': '/static/foodstim60/hotdog w must.jpg', 'key': 'u', 'origWidth': 409, 'origHeight': 409, 'width': 409, 'height': 409, 'widthPercent': 0.45, 'rescaleHeight': False, 'trialN': 86, 'loaded': True, 'loadedTime': 2659.100000023842, 'positionName': 'LEFT', 'positionCoords': [328.28, 307.5], 'bid': 3.26}, {'imgObject': {}, 'id': 'rigatoni and sauce', 'src': '/static/foodstim60/rigatoni and sauce.jpg', 'key': 'i', 'origWidth': 410, 'origHeight': 411, 'width': 410, 'height': 411, 'widthPercent': 0.45, 'rescaleHeight': False, 'trialN': 86, 'loaded': True, 'loadedTime': 2950.3000000715256, 'positionName': 'RIGHT', 'positionCoords': [798.72, 306.5], 'bid': 6.01}]",134676.80000007153,1669836546559,hotdog w must,rigatoni and sauce,3.26,6.01,2.75,rigatoni and sauce,881.5,882,881.8999999761581,True,i,136070.5,1393.6999999284744,1669836547952,1393,HRV,HRV_0245,2022-11-30 19:31:24
87,"[{'imgObject': {}, 'id': 'salad w chicken', 'src': '/static/foodstim60/salad w chicken.jpg', 'key': 'u', 'origWidth': 411, 'origHeight': 411, 'width': 411, 'height': 411, 'widthPercent': 0.45, 'rescaleHeight': False, 'trialN': 87, 'loaded': True, 'loadedTime': 2966.100000023842, 'positionName': 'LEFT', 'positionCoords': [326.28, 306.5], 'bid': 4.36}, {'imgObject': {}, 'id': 'shreddedwheatwithmilk', 'src': '/static/foodstim60/shreddedwheatwithmilk.jpg', 'key': 'i', 'origWidth': 410, 'origHeight': 410, 'width': 410, 'height': 410, 'widthPercent': 0.45, 'rescaleHeight': False, 'trialN': 87, 'loaded': True, 'loadedTime': 2541.399999976158, 'positionName': 'RIGHT', 'positionCoords': [798.72, 307], 'bid': 5.09}]",136070.80000007153,1669836547952,salad w chicken,shreddedwheatwithmilk,4.36,5.09,0.7299999999999995,shreddedwheatwithmilk,1615.5,1617,1616.0,True,i,138208.60000002384,2137.7999999523163,1669836550090,2138,HRV,HRV_0245,2022-11-30 19:31:24
88,"[{'imgObject': {}, 'id': 'steak', 'src': '/static/foodstim60/steak.jpg', 'key': 'u', 'origWidth': 410, 'origHeight': 410, 'width': 410, 'height': 410, 'widthPercent': 0.45, 'rescaleHeight': False, 'trialN': 88, 'loaded': True, 'loadedTime': 2757.3000000715256, 'positionName': 'LEFT', 'positionCoords': [327.28, 307], 'bid': 9.3}, {'imgObject': {}, 'id': 'luckycharms', 'src': '/static/foodstim60/luckycharms.jpg', 'key': 'i', 'origWidth': 410, 'origHeight': 409, 'width': 410, 'height': 409, 'widthPercent': 0.45, 'rescaleHeight': False, 'trialN': 88, 'loaded': True, 'loadedTime': 2873, 'positionName': 'RIGHT', 'positionCoords': [798.72, 307.5], 'bid': 7}]",138208.89999997616,1669836550091,steak,luckycharms,9.3,7.0,-2.3000000000000007,steak,620.9000000953674,621,621.6000000238419,True,u,139342.10000002384,1133.2000000476837,1669836551224,1133,HRV,HRV_0245,2022-11-30 19:31:24
89,"[{'imgObject': {}, 'id': 'blackbeanswithrice', 'src': '/static/foodstim60/blackbeanswithrice.jpg', 'key': 'u', 'origWidth': 410, 'origHeight': 410, 'width': 410, 'height': 410, 'widthPercent': 0.45, 'rescaleHeight': False, 'trialN': 89, 'loaded': True, 'loadedTime': 2504.399999976158, 'positionName': 'LEFT', 'positionCoords': [327.28, 307], 'bid': 6.2700000000000005}, {'imgObject': {}, 'id': 'fried eggs', 'src': '/static/foodstim60/fried eggs.jpg', 'key': 'i', 'origWidth': 410, 'origHeight': 410, 'width': 410, 'height': 410, 'widthPercent': 0.45, 'rescaleHeight': False, 'trialN': 89, 'loaded': True, 'loadedTime': 2984.8000000715256, 'positionName': 'RIGHT', 'positionCoords': [798.72, 307], 'bid': 5.95}]",139342.30000007153,1669836551224,blackbeanswithrice,fried eggs,6.2700000000000005,5.95,-0.3200000000000003,blackbeanswithrice,734.1999999284744,735,734.6999999284744,True,u,140580.30000007153,1238.0,1669836552462,1238,HRV,HRV_0245,2022-11-30 19:31:24
90,"[{'imgObject': {}, 'id': 'turkey sandwich', 'src': '/static/foodstim60/turkey sandwich.jpg', 'key': 'u', 'origWidth': 409, 'origHeight': 409, 'width': 409, 'height': 409, 'widthPercent': 0.45, 'rescaleHeight': False, 'trialN': 90, 'loaded': True, 'loadedTime': 2914.600000023842, 'positionName': 'LEFT', 'positionCoords': [328.28, 307.5], 'bid': 6.640000000000001}, {'imgObject': {}, 'id': 'eggs', 'src': '/static/foodstim60/eggs.jpg', 'key': 'i', 'origWidth': 409, 'origHeight': 409, 'width': 409, 'height': 409, 'widthPercent': 0.45, 'rescaleHeight': False, 'trialN': 90, 'loaded': True, 'loadedTime': 2801.100000023842, 'positionName': 'RIGHT', 'positionCoords': [798.72, 307.5], 'bid': 5.66}]",143762.5,1669836555644,turkey sandwich,eggs,6.640000000000001,5.66,-0.9800000000000004,turkey sandwich,1363.7000000476837,1364,1364.2000000476837,True,u,145635.0,1872.5,1669836557517,1873,HRV,HRV_0245,2022-11-30 19:31:24
91,"[{'imgObject': {}, 'id': 'fruitsalad', 'src': '/static/foodstim60/fruitsalad.jpg', 'key': 'u', 'origWidth': 410, 'origHeight': 410, 'width': 410, 'height': 410, 'widthPercent': 0.45, 'rescaleHeight': False, 'trialN': 91, 'loaded': True, 'loadedTime': 2935.5, 'positionName': 'LEFT', 'positionCoords': [327.28, 307], 'bid': 6.41}, {'imgObject': {}, 'id': 'strawberries', 'src': '/static/foodstim60/strawberries.jpg', 'key': 'i', 'origWidth': 410, 'origHeight': 410, 'width': 410, 'height': 410, 'widthPercent': 0.45, 'rescaleHeight': False, 'trialN': 91, 'loaded': True, 'loadedTime': 2971.8000000715256, 'positionName': 'RIGHT', 'positionCoords': [798.72, 307], 'bid': 5.59}]",145635.10000002384,1669836557517,fruitsalad,strawberries,6.41,5.59,-0.8200000000000003,fruitsalad,684.5,685,685.2000000476837,True,u,146830.39999997616,1195.2999999523163,1669836558712,1195,HRV,HRV_0245,2022-11-30 19:31:24
92,"[{'imgObject': {}, 'id': 'strawberries', 'src': '/static/foodstim60/strawberries.jpg', 'key': 'u', 'origWidth': 410, 'origHeight': 410, 'width': 410, 'height': 410, 'widthPercent': 0.45, 'rescaleHeight': False, 'trialN': 92, 'loaded': True, 'loadedTime': 2971.600000023842, 'positionName': 'LEFT', 'positionCoords': [327.28, 307], 'bid': 5.59}, {'imgObject': {}, 'id': 'olives', 'src': '/static/foodstim60/olives.jpg', 'key': 'i', 'origWidth': 410, 'origHeight': 410, 'width': 410, 'height': 410, 'widthPercent': 0.45, 'rescaleHeight': False, 'trialN': 92, 'loaded': True, 'loadedTime': 2857.5, 'positionName': 'RIGHT', 'positionCoords': [798.72, 307], 'bid': 4.68}]",146830.60000002384,1669836558712,strawberries,olives,5.59,4.68,-0.9100000000000001,strawberries,881.2999999523163,882,881.7000000476837,True,u,148230.0,1399.3999999761581,1669836560112,1400,HRV,HRV_0245,2022-11-30 19:31:24
93,"[{'imgObject': {}, 'id': 'burger', 'src': '/static/foodstim60/burger.jpg', 'key': 'u', 'origWidth': 409, 'origHeight': 409, 'width': 409, 'height': 409, 'widthPercent': 0.45, 'rescaleHeight': False, 'trialN': 93, 'loaded': True, 'loadedTime': 2490.7000000476837, 'positionName': 'LEFT', 'positionCoords': [328.28, 307.5], 'bid': 6.41}, {'imgObject': {}, 'id': 'Tribe humus pita', 'src': '/static/foodstim60/Tribe humus pita.jpg', 'key': 'i', 'origWidth': 411, 'origHeight': 411, 'width': 411, 'height': 411, 'widthPercent': 0.45, 'rescaleHeight': False, 'trialN': 93, 'loaded': True, 'loadedTime': 2933.5, 'positionName': 'RIGHT', 'positionCoords': [798.72, 306.5], 'bid': 6.53}]",148230.30000007153,1669836560112,burger,Tribe humus pita,6.41,6.53,0.1200000000000001,Tribe humus pita,629.5,624,629.8999999761581,True,i,149372.30000007153,1142.0,1669836561248,1136,HRV,HRV_0245,2022-11-30 19:31:24
94,"[{'imgObject': {}, 'id': 'bagel and cc', 'src': '/static/foodstim60/bagel and cc.jpg', 'key': 'u', 'origWidth': 410, 'origHeight': 410, 'width': 410, 'height': 410, 'widthPercent': 0.45, 'rescaleHeight': False, 'trialN': 94, 'loaded': True, 'loadedTime': 2928.8000000715256, 'positionName': 'LEFT', 'positionCoords': [327.28, 307], 'bid': 2.34}, {'imgObject': {}, 'id': 'bagel plain', 'src': '/static/foodstim60/bagel plain.jpg', 'key': 'i', 'origWidth': 410, 'origHeight': 410, 'width': 410, 'height': 410, 'widthPercent': 0.45, 'rescaleHeight': False, 'trialN': 94, 'loaded': True, 'loadedTime': 2730.600000023842, 'positionName': 'RIGHT', 'positionCoords': [798.72, 307], 'bid': 2.36}]",149372.5,1669836561249,bagel and cc,bagel plain,2.34,2.36,0.020000000000000018,bagel and cc,1158.3999999761581,1159,1158.8999999761581,True,u,151046.30000007153,1673.8000000715256,1669836562922,1673,HRV,HRV_0245,2022-11-30 19:31:24
95,"[{'imgObject': {}, 'id': 'hotdog w must', 'src': '/static/foodstim60/hotdog w must.jpg', 'key': 'u', 'origWidth': 409, 'origHeight': 409, 'width': 409, 'height': 409, 'widthPercent': 0.45, 'rescaleHeight': False, 'trialN': 95, 'loaded': True, 'loadedTime': 2659.3000000715256, 'positionName': 'LEFT', 'positionCoords': [328.28, 307.5], 'bid': 3.26}, {'imgObject': {}, 'id': 'cherry tomato', 'src': '/static/foodstim60/cherry tomato.jpg', 'key': 'i', 'origWidth': 410, 'origHeight': 410, 'width': 410, 'height': 410, 'widthPercent': 0.45, 'rescaleHeight': False, 'trialN': 95, 'loaded': True, 'loadedTime': 2947.3000000715256, 'positionName': 'RIGHT', 'positionCoords': [798.72, 307], 'bid': 3.77}]",151046.60000002384,1669836562923,hotdog w must,cherry tomato,3.26,3.77,0.5100000000000002,cherry tomato,835.6000000238419,836,836.0,True,i,152398.10000002384,1351.5,1669836564274,1351,HRV,HRV_0245,2022-11-30 19:31:24
96,"[{'imgObject': {}, 'id': 'Tribe humus pita', 'src': '/static/foodstim60/Tribe humus pita.jpg', 'key': 'u', 'origWidth': 411, 'origHeight': 411, 'width': 411, 'height': 411, 'widthPercent': 0.45, 'rescaleHeight': False, 'trialN': 96, 'loaded': True, 'loadedTime': 2932.7000000476837, 'positionName': 'LEFT', 'positionCoords': [326.28, 306.5], 'bid': 6.53}, {'imgObject': {}, 'id': 'kiwi', 'src': '/static/foodstim60/kiwi.jpg', 'key': 'i', 'origWidth': 410, 'origHeight': 410, 'width': 410, 'height': 410, 'widthPercent': 0.45, 'rescaleHeight': False, 'trialN': 96, 'loaded': True, 'loadedTime': 2968.399999976158, 'positionName': 'RIGHT', 'positionCoords': [798.72, 307], 'bid': 5.61}]",152398.30000007153,1669836564274,Tribe humus pita,kiwi,6.53,5.61,-0.9199999999999999,Tribe humus pita,1083.5,1084,1084.0,True,u,153997.89999997616,1599.5999999046326,1669836565874,1600,HRV,HRV_0245,2022-11-30 19:31:24
97,"[{'imgObject': {}, 'id': 'ice cream sundae 002', 'src': '/static/foodstim60/ice cream sundae 002.jpg', 'key': 'u', 'origWidth': 409, 'origHeight': 409, 'width': 409, 'height': 409, 'widthPercent': 0.45, 'rescaleHeight': False, 'trialN': 97, 'loaded': True, 'loadedTime': 2686.2000000476837, 'positionName': 'LEFT', 'positionCoords': [328.28, 307.5], 'bid': 5.87}, {'imgObject': {}, 'id': 'fried eggs', 'src': '/static/foodstim60/fried eggs.jpg', 'key': 'i', 'origWidth': 410, 'origHeight': 410, 'width': 410, 'height': 410, 'widthPercent': 0.45, 'rescaleHeight': False, 'trialN': 97, 'loaded': True, 'loadedTime': 2983.899999976158, 'positionName': 'RIGHT', 'positionCoords': [798.72, 307], 'bid': 5.95}]",153998.10000002384,1669836565874,ice cream sundae 002,fried eggs,5.87,5.95,0.08000000000000007,ice cream sundae 002,1135.8999999761581,1137,1136.3999999761581,True,u,155637.70000004768,1639.6000000238419,1669836567514,1640,HRV,HRV_0245,2022-11-30 19:31:24
98,"[{'imgObject': {}, 'id': 'mango', 'src': '/static/foodstim60/mango.jpg', 'key': 'u', 'origWidth': 411, 'origHeight': 411, 'width': 411, 'height': 411, 'widthPercent': 0.45, 'rescaleHeight': False, 'trialN': 98, 'loaded': True, 'loadedTime': 2699.600000023842, 'positionName': 'LEFT', 'positionCoords': [326.28, 306.5], 'bid': 2.69}, {'imgObject': {}, 'id': 'bagel and cc', 'src': '/static/foodstim60/bagel and cc.jpg', 'key': 'i', 'origWidth': 410, 'origHeight': 410, 'width': 410, 'height': 410, 'widthPercent': 0.45, 'rescaleHeight': False, 'trialN': 98, 'loaded': True, 'loadedTime': 2930.7000000476837, 'positionName': 'RIGHT', 'positionCoords': [798.72, 307], 'bid': 2.34}]",155637.89999997616,1669836567514,mango,bagel and cc,2.69,2.34,-0.3500000000000001,bagel and cc,684.8000000715256,685,685.3000000715256,True,i,156838.0,1200.1000000238419,1669836568714,1200,HRV,HRV_0245,2022-11-30 19:31:24
99,"[{'imgObject': {}, 'id': 'apple slices', 'src': '/static/foodstim60/apple slices.jpg', 'key': 'u', 'origWidth': 409, 'origHeight': 410, 'width': 409, 'height': 410, 'widthPercent': 0.45, 'rescaleHeight': False, 'trialN': 99, 'loaded': True, 'loadedTime': 2816, 'positionName': 'LEFT', 'positionCoords': [328.28, 307], 'bid': 5.96}, {'imgObject': {}, 'id': 'Tribe humus pita', 'src': '/static/foodstim60/Tribe humus pita.jpg', 'key': 'i', 'origWidth': 411, 'origHeight': 411, 'width': 411, 'height': 411, 'widthPercent': 0.45, 'rescaleHeight': False, 'trialN': 99, 'loaded': True, 'loadedTime': 2933, 'positionName': 'RIGHT', 'positionCoords': [798.72, 306.5], 'bid': 6.53}]",156838.10000002384,1669836568714,apple slices,Tribe humus pita,5.96,6.53,0.5700000000000003,Tribe humus pita,1124.2999999523163,1125,1124.7999999523163,True,i,158469.20000004768,1631.1000000238419,1669836570345,1631,HRV,HRV_0245,2022-11-30 19:31:24
100,"[{'imgObject': {}, 'id': 'blueberries', 'src': '/static/foodstim60/blueberries.jpg', 'key': 'u', 'origWidth': 411, 'origHeight': 411, 'width': 411, 'height': 411, 'widthPercent': 0.45, 'rescaleHeight': False, 'trialN': 100, 'loaded': True, 'loadedTime': 2785.7000000476837, 'positionName': 'LEFT', 'positionCoords': [326.28, 306.5], 'bid': 4.25}, {'imgObject': {}, 'id': 'sushi w_condiments', 'src': '/static/foodstim60/sushi w_condiments.jpg', 'key': 'i', 'origWidth': 410, 'origHeight': 410, 'width': 410, 'height': 410, 'widthPercent': 0.45, 'rescaleHeight': False, 'trialN': 100, 'loaded': True, 'loadedTime': 2653.899999976158, 'positionName': 'RIGHT', 'positionCoords': [798.72, 307], 'bid': 0.5}]",158469.39999997616,1669836570346,blueberries,sushi w_condiments,4.25,0.5,-3.75,blueberries,655.3000000715256,655,655.8000000715256,True,u,159629.60000002384,1160.2000000476837,1669836571506,1160,HRV,HRV_0245,2022-11-30 19:31:24
101,"[{'imgObject': {}, 'id': 'fried eggs', 'src': '/static/foodstim60/fried eggs.jpg', 'key': 'u', 'origWidth': 410, 'origHeight': 410, 'width': 410, 'height': 410, 'widthPercent': 0.45, 'rescaleHeight': False, 'trialN': 101, 'loaded': True, 'loadedTime': 2985, 'positionName': 'LEFT', 'positionCoords': [327.28, 307], 'bid': 5.95}, {'imgObject': {}, 'id': 'bagel plain', 'src': '/static/foodstim60/bagel plain.jpg', 'key': 'i', 'origWidth': 410, 'origHeight': 410, 'width': 410, 'height': 410, 'widthPercent': 0.45, 'rescaleHeight': False, 'trialN': 101, 'loaded': True, 'loadedTime': 2732.2000000476837, 'positionName': 'RIGHT', 'positionCoords': [798.72, 307], 'bid': 2.36}]",159629.70000004768,1669836571506,fried eggs,bagel plain,5.95,2.36,-3.5900000000000003,fried eggs,842.8999999761581,843,843.6000000238419,True,u,160992.70000004768,1363.0,1669836572869,1363,HRV,HRV_0245,2022-11-30 19:31:24
102,"[{'imgObject': {}, 'id': 'burrito', 'src': '/static/foodstim60/burrito.jpg', 'key': 'u', 'origWidth': 410, 'origHeight': 410, 'width': 410, 'height': 410, 'widthPercent': 0.45, 'rescaleHeight': False, 'trialN': 102, 'loaded': True, 'loadedTime': 2603.8000000715256, 'positionName': 'LEFT', 'positionCoords': [327.28, 307], 'bid': 5.45}, {'imgObject': {}, 'id': 'hashbrowns', 'src': '/static/foodstim60/hashbrowns.jpg', 'key': 'i', 'origWidth': 411, 'origHeight': 410, 'width': 411, 'height': 410, 'widthPercent': 0.45, 'rescaleHeight': False, 'trialN': 102, 'loaded': True, 'loadedTime': 2980.899999976158, 'positionName': 'RIGHT', 'positionCoords': [798.72, 307], 'bid': 4.84}]",160993.0,1669836572869,burrito,hashbrowns,5.45,4.84,-0.6100000000000003,hashbrowns,1062.5,1063,1063.0,True,i,162576.5,1583.5,1669836574453,1584,HRV,HRV_0245,2022-11-30 19:31:24
103,"[{'imgObject': {}, 'id': 'popsicles', 'src': '/static/foodstim60/popsicles.jpg', 'key': 'u', 'origWidth': 410, 'origHeight': 410, 'width': 410, 'height': 410, 'widthPercent': 0.45, 'rescaleHeight': False, 'trialN': 103, 'loaded': True, 'loadedTime': 2990.2000000476837, 'positionName': 'LEFT', 'positionCoords': [327.28, 307], 'bid': 6.640000000000001}, {'imgObject': {}, 'id': 'baked potato', 'src': '/static/foodstim60/baked potato.jpg', 'key': 'i', 'origWidth': 409, 'origHeight': 410, 'width': 409, 'height': 410, 'widthPercent': 0.45, 'rescaleHeight': False, 'trialN': 103, 'loaded': True, 'loadedTime': 2554.8000000715256, 'positionName': 'RIGHT', 'positionCoords': [798.72, 307], 'bid': 6.05}]",162576.70000004768,1669836574453,popsicles,baked potato,6.640000000000001,6.05,-0.5900000000000007,popsicles,910.7999999523163,911,911.2999999523163,True,u,164005.60000002384,1428.8999999761581,1669836575882,1429,HRV,HRV_0245,2022-11-30 19:31:24
104,"[{'imgObject': {}, 'id': 'turkeysandwich', 'src': '/static/foodstim60/turkeysandwich.jpg', 'key': 'u', 'origWidth': 409, 'origHeight': 409, 'width': 409, 'height': 409, 'widthPercent': 0.45, 'rescaleHeight': False, 'trialN': 104, 'loaded': True, 'loadedTime': 2729.399999976158, 'positionName': 'LEFT', 'positionCoords': [328.28, 307.5], 'bid': 6.3}, {'imgObject': {}, 'id': 'pear', 'src': '/static/foodstim60/pear.jpg', 'key': 'i', 'origWidth': 411, 'origHeight': 410, 'width': 411, 'height': 410, 'widthPercent': 0.45, 'rescaleHeight': False, 'trialN': 104, 'loaded': True, 'loadedTime': 2870.7000000476837, 'positionName': 'RIGHT', 'positionCoords': [798.72, 307], 'bid': 5.95}]",164005.89999997616,1669836575882,turkeysandwich,pear,6.3,5.95,-0.34999999999999964,turkeysandwich,738.6000000238419,739,739.1000000238419,True,u,165251.89999997616,1246.0,1669836577128,1246,HRV,HRV_0245,2022-11-30 19:31:24
105,"[{'imgObject': {}, 'id': 'fried eggs', 'src': '/static/foodstim60/fried eggs.jpg', 'key': 'u', 'origWidth': 410, 'origHeight': 410, 'width': 410, 'height': 410, 'widthPercent': 0.45, 'rescaleHeight': False, 'trialN': 105, 'loaded': True, 'loadedTime': 2985.100000023842, 'positionName': 'LEFT', 'positionCoords': [327.28, 307], 'bid': 5.95}, {'imgObject': {}, 'id': 'rigatoni', 'src': '/static/foodstim60/rigatoni.jpg', 'key': 'i', 'origWidth': 411, 'origHeight': 411, 'width': 411, 'height': 411, 'widthPercent': 0.45, 'rescaleHeight': False, 'trialN': 105, 'loaded': True, 'loadedTime': 2753.3000000715256, 'positionName': 'RIGHT', 'positionCoords': [798.72, 306.5], 'bid': 5.03}]",165252.10000002384,1669836577128,fried eggs,rigatoni,5.95,5.03,-0.9199999999999999,fried eggs,1154.8999999761581,1155,1155.2000000476837,True,u,166930.20000004768,1678.1000000238419,1669836578806,1678,HRV,HRV_0245,2022-11-30 19:31:24
106,"[{'imgObject': {}, 'id': 'hotdog w must', 'src': '/static/foodstim60/hotdog w must.jpg', 'key': 'u', 'origWidth': 409, 'origHeight': 409, 'width': 409, 'height': 409, 'widthPercent': 0.45, 'rescaleHeight': False, 'trialN': 106, 'loaded': True, 'loadedTime': 2661.600000023842, 'positionName': 'LEFT', 'positionCoords': [328.28, 307.5], 'bid': 3.26}, {'imgObject': {}, 'id': 'hashbrowns', 'src': '/static/foodstim60/hashbrowns.jpg', 'key': 'i', 'origWidth': 411, 'origHeight': 410, 'width': 411, 'height': 410, 'widthPercent': 0.45, 'rescaleHeight': False, 'trialN': 106, 'loaded': True, 'loadedTime': 2982.2000000476837, 'positionName': 'RIGHT', 'positionCoords': [798.72, 307], 'bid': 4.84}]",166930.39999997616,1669836578807,hotdog w must,hashbrowns,3.26,4.84,1.58,hashbrowns,838.1000000238419,838,838.6000000238419,True,i,168290.0,1359.6000000238419,1669836580166,1359,HRV,HRV_0245,2022-11-30 19:31:24
107,"[{'imgObject': {}, 'id': 'chicken nuggets2', 'src': '/static/foodstim60/chicken nuggets2.jpg', 'key': 'u', 'origWidth': 410, 'origHeight': 409, 'width': 410, 'height': 409, 'widthPercent': 0.45, 'rescaleHeight': False, 'trialN': 107, 'loaded': True, 'loadedTime': 2711.3000000715256, 'positionName': 'LEFT', 'positionCoords': [327.28, 307.5], 'bid': 6.32}, {'imgObject': {}, 'id': 'blueberries', 'src': '/static/foodstim60/blueberries.jpg', 'key': 'i', 'origWidth': 411, 'origHeight': 411, 'width': 411, 'height': 411, 'widthPercent': 0.45, 'rescaleHeight': False, 'trialN': 107, 'loaded': True, 'loadedTime': 2784.100000023842, 'positionName': 'RIGHT', 'positionCoords': [798.72, 306.5], 'bid': 4.25}]",168290.20000004768,1669836580166,chicken nuggets2,blueberries,6.32,4.25,-2.0700000000000003,chicken nuggets2,701.8999999761581,703,702.2999999523163,True,u,169514.0,1223.7999999523163,1669836581390,1224,HRV,HRV_0245,2022-11-30 19:31:24
108,"[{'imgObject': {}, 'id': 'banana', 'src': '/static/foodstim60/banana.jpg', 'key': 'u', 'origWidth': 410, 'origHeight': 410, 'width': 410, 'height': 410, 'widthPercent': 0.45, 'rescaleHeight': False, 'trialN': 108, 'loaded': True, 'loadedTime': 2983.3000000715256, 'positionName': 'LEFT', 'positionCoords': [327.28, 307], 'bid': 4.7}, {'imgObject': {}, 'id': 'hashbrowns', 'src': '/static/foodstim60/hashbrowns.jpg', 'key': 'i', 'origWidth': 411, 'origHeight': 410, 'width': 411, 'height': 410, 'widthPercent': 0.45, 'rescaleHeight': False, 'trialN': 108, 'loaded': True, 'loadedTime': 2982, 'positionName': 'RIGHT', 'positionCoords': [798.72, 307], 'bid': 4.84}]",169514.20000004768,1669836581390,banana,hashbrowns,4.7,4.84,0.13999999999999968,hashbrowns,788.5,789,788.8999999761581,True,i,170810.80000007153,1296.6000000238419,1669836582687,1297,HRV,HRV_0245,2022-11-30 19:31:24
