trialN,stimuli,question,trialStartTime,trialStartTime_UNIX,stimulus1,rt,receivedResponse,rating,trialEndTime,trialDuration,stimulus1Loaded,exp,subjectId,date
0,"[{'imgObject': {}, 'id': 'fruitsalad', 'src': '/static/foodstim60/fruitsalad.jpg', 'key': 'NaN', 'origWidth': 410, 'origHeight': 410, 'width': 410, 'height': 410, 'widthPercent': 0.8, 'rescaleHeight': True, 'trialN': 0, 'loaded': True, 'loadedTime': 2037.4000000953674, 'positionName': 'CENTER', 'positionCoords': [563, 307]}]",Rate how much you want to eat this food from 0 (least) to 10 (most).,2210.2000000476837,1669836133740,fruitsalad,2001.2000000476837,True,6.41,4211.400000095367,2001.2000000476837,True,HRV,HRV_0245,2022-11-30 19:23:39
1,"[{'imgObject': {}, 'id': 'Grapes', 'src': '/static/foodstim60/Grapes.jpg', 'key': 'NaN', 'origWidth': 411, 'origHeight': 411, 'width': 411, 'height': 411, 'widthPercent': 0.8, 'rescaleHeight': True, 'trialN': 1, 'loaded': True, 'loadedTime': 2040.3000000715256, 'positionName': 'CENTER', 'positionCoords': [562.5, 306.5]}]",Rate how much you want to eat this food from 0 (least) to 10 (most).,4216.900000095367,1669836135746,Grapes,1157.5999999046326,True,5.54,5374.5,1157.5999999046326,True,HRV,HRV_0245,2022-11-30 19:23:39
2,"[{'imgObject': {}, 'id': 'roastedpotatoes', 'src': '/static/foodstim60/roastedpotatoes.jpg', 'key': 'NaN', 'origWidth': 409, 'origHeight': 410, 'width': 409, 'height': 410, 'widthPercent': 0.8, 'rescaleHeight': True, 'trialN': 2, 'loaded': True, 'loadedTime': 2042.4000000953674, 'positionName': 'CENTER', 'positionCoords': [563.5, 307]}]",Rate how much you want to eat this food from 0 (least) to 10 (most).,5375.700000047684,1669836136905,roastedpotatoes,1019.7999999523163,True,7.22,6395.5,1019.7999999523163,True,HRV,HRV_0245,2022-11-30 19:23:39
3,"[{'imgObject': {}, 'id': 'veggieswithdip', 'src': '/static/foodstim60/veggieswithdip.jpg', 'key': 'NaN', 'origWidth': 409, 'origHeight': 409, 'width': 409, 'height': 409, 'widthPercent': 0.8, 'rescaleHeight': True, 'trialN': 3, 'loaded': True, 'loadedTime': 2059.600000023842, 'positionName': 'CENTER', 'positionCoords': [563.5, 307.5]}]",Rate how much you want to eat this food from 0 (least) to 10 (most).,6396.900000095367,1669836137926,veggieswithdip,1134.5999999046326,True,4.67,7531.5,1134.5999999046326,True,HRV,HRV_0245,2022-11-30 19:23:39
4,"[{'imgObject': {}, 'id': 'grilled chicken strips', 'src': '/static/foodstim60/grilled chicken strips.jpg', 'key': 'NaN', 'origWidth': 410, 'origHeight': 411, 'width': 410, 'height': 411, 'widthPercent': 0.8, 'rescaleHeight': True, 'trialN': 4, 'loaded': True, 'loadedTime': 2071.5, 'positionName': 'CENTER', 'positionCoords': [563, 306.5]}]",Rate how much you want to eat this food from 0 (least) to 10 (most).,7532.800000071526,1669836139062,grilled chicken strips,1204.8999999761581,True,6.73,8737.700000047684,1204.8999999761581,True,HRV,HRV_0245,2022-11-30 19:23:39
5,"[{'imgObject': {}, 'id': 'burrito', 'src': '/static/foodstim60/burrito.jpg', 'key': 'NaN', 'origWidth': 410, 'origHeight': 410, 'width': 410, 'height': 410, 'widthPercent': 0.8, 'rescaleHeight': True, 'trialN': 5, 'loaded': True, 'loadedTime': 2056.100000023842, 'positionName': 'CENTER', 'positionCoords': [563, 307]}]",Rate how much you want to eat this food from 0 (least) to 10 (most).,8739.200000047684,1669836140269,burrito,1061.7000000476837,True,5.45,9800.900000095367,1061.7000000476837,True,HRV,HRV_0245,2022-11-30 19:23:39
6,"[{'imgObject': {}, 'id': 'olives', 'src': '/static/foodstim60/olives.jpg', 'key': 'NaN', 'origWidth': 410, 'origHeight': 410, 'width': 410, 'height': 410, 'widthPercent': 0.8, 'rescaleHeight': True, 'trialN': 6, 'loaded': True, 'loadedTime': 2077.8000000715256, 'positionName': 'CENTER', 'positionCoords': [563, 307]}]",Rate how much you want to eat this food from 0 (least) to 10 (most).,9802.5,1669836141332,olives,940.0,True,4.68,10742.5,940.0,True,HRV,HRV_0245,2022-11-30 19:23:39
7,"[{'imgObject': {}, 'id': 'eggs', 'src': '/static/foodstim60/eggs.jpg', 'key': 'NaN', 'origWidth': 409, 'origHeight': 409, 'width': 409, 'height': 409, 'widthPercent': 0.8, 'rescaleHeight': True, 'trialN': 7, 'loaded': True, 'loadedTime': 2079.3000000715256, 'positionName': 'CENTER', 'positionCoords': [563.5, 307.5]}]",Rate how much you want to eat this food from 0 (least) to 10 (most).,10744.200000047684,1669836142274,eggs,1153.6000000238419,True,5.66,11897.800000071526,1153.6000000238419,True,HRV,HRV_0245,2022-11-30 19:23:39
8,"[{'imgObject': {}, 'id': 'chicken nuggets2', 'src': '/static/foodstim60/chicken nuggets2.jpg', 'key': 'NaN', 'origWidth': 410, 'origHeight': 409, 'width': 410, 'height': 409, 'widthPercent': 0.8, 'rescaleHeight': True, 'trialN': 8, 'loaded': True, 'loadedTime': 2080.5, 'positionName': 'CENTER', 'positionCoords': [563, 307.5]}]",Rate how much you want to eat this food from 0 (least) to 10 (most).,11899.600000023842,1669836143429,chicken nuggets2,1204.6000000238419,True,6.32,13104.200000047684,1204.6000000238419,True,HRV,HRV_0245,2022-11-30 19:23:39
9,"[{'imgObject': {}, 'id': 'steak', 'src': '/static/foodstim60/steak.jpg', 'key': 'NaN', 'origWidth': 410, 'origHeight': 410, 'width': 410, 'height': 410, 'widthPercent': 0.8, 'rescaleHeight': True, 'trialN': 9, 'loaded': True, 'loadedTime': 2093.4000000953674, 'positionName': 'CENTER', 'positionCoords': [563, 307]}]",Rate how much you want to eat this food from 0 (least) to 10 (most).,13105.600000023842,1669836144635,steak,1303.1000000238419,True,9.3,14408.700000047684,1303.1000000238419,True,HRV,HRV_0245,2022-11-30 19:23:39
10,"[{'imgObject': {}, 'id': 'strawberries', 'src': '/static/foodstim60/strawberries.jpg', 'key': 'NaN', 'origWidth': 410, 'origHeight': 410, 'width': 410, 'height': 410, 'widthPercent': 0.8, 'rescaleHeight': True, 'trialN': 10, 'loaded': True, 'loadedTime': 2095.4000000953674, 'positionName': 'CENTER', 'positionCoords': [563, 307]}]",Rate how much you want to eat this food from 0 (least) to 10 (most).,14410.900000095367,1669836145940,strawberries,2666.5,True,5.59,17077.400000095367,2666.5,True,HRV,HRV_0245,2022-11-30 19:23:39
11,"[{'imgObject': {}, 'id': 'lox', 'src': '/static/foodstim60/lox.jpg', 'key': 'NaN', 'origWidth': 410, 'origHeight': 411, 'width': 410, 'height': 411, 'widthPercent': 0.8, 'rescaleHeight': True, 'trialN': 11, 'loaded': True, 'loadedTime': 2098, 'positionName': 'CENTER', 'positionCoords': [563, 306.5]}]",Rate how much you want to eat this food from 0 (least) to 10 (most).,17079.0,1669836148609,lox,1282.4000000953674,True,1.75,18361.400000095367,1282.4000000953674,True,HRV,HRV_0245,2022-11-30 19:23:39
12,"[{'imgObject': {}, 'id': 'salmon', 'src': '/static/foodstim60/salmon.jpg', 'key': 'NaN', 'origWidth': 410, 'origHeight': 409, 'width': 410, 'height': 409, 'widthPercent': 0.8, 'rescaleHeight': True, 'trialN': 12, 'loaded': True, 'loadedTime': 2111.4000000953674, 'positionName': 'CENTER', 'positionCoords': [563, 307.5]}]",Rate how much you want to eat this food from 0 (least) to 10 (most).,18363.100000023842,1669836149893,salmon,1243.2000000476837,True,0.46,19606.300000071526,1243.2000000476837,True,HRV,HRV_0245,2022-11-30 19:23:39
13,"[{'imgObject': {}, 'id': 'turkeysandwich', 'src': '/static/foodstim60/turkeysandwich.jpg', 'key': 'NaN', 'origWidth': 409, 'origHeight': 409, 'width': 409, 'height': 409, 'widthPercent': 0.8, 'rescaleHeight': True, 'trialN': 13, 'loaded': True, 'loadedTime': 2114.5, 'positionName': 'CENTER', 'positionCoords': [563.5, 307.5]}]",Rate how much you want to eat this food from 0 (least) to 10 (most).,19608.200000047684,1669836151138,turkeysandwich,1147.3999999761581,True,6.3,20755.600000023842,1147.3999999761581,True,HRV,HRV_0245,2022-11-30 19:23:39
14,"[{'imgObject': {}, 'id': 'sweetpotato', 'src': '/static/foodstim60/sweetpotato.jpg', 'key': 'NaN', 'origWidth': 410, 'origHeight': 410, 'width': 410, 'height': 410, 'widthPercent': 0.8, 'rescaleHeight': True, 'trialN': 14, 'loaded': True, 'loadedTime': 2118.100000023842, 'positionName': 'CENTER', 'positionCoords': [563, 307]}]",Rate how much you want to eat this food from 0 (least) to 10 (most).,20758.0,1669836152288,sweetpotato,1073.6000000238419,True,1.56,21831.600000023842,1073.6000000238419,True,HRV,HRV_0245,2022-11-30 19:23:39
15,"[{'imgObject': {}, 'id': 'corn cob', 'src': '/static/foodstim60/corn cob.jpg', 'key': 'NaN', 'origWidth': 411, 'origHeight': 411, 'width': 411, 'height': 411, 'widthPercent': 0.8, 'rescaleHeight': True, 'trialN': 15, 'loaded': True, 'loadedTime': 2120, 'positionName': 'CENTER', 'positionCoords': [562.5, 306.5]}]",Rate how much you want to eat this food from 0 (least) to 10 (most).,21833.5,1669836153363,corn cob,1162.3000000715256,True,3.99,22995.800000071526,1162.3000000715256,True,HRV,HRV_0245,2022-11-30 19:23:39
16,"[{'imgObject': {}, 'id': 'kiwi', 'src': '/static/foodstim60/kiwi.jpg', 'key': 'NaN', 'origWidth': 410, 'origHeight': 410, 'width': 410, 'height': 410, 'widthPercent': 0.8, 'rescaleHeight': True, 'trialN': 16, 'loaded': True, 'loadedTime': 2122.8000000715256, 'positionName': 'CENTER', 'positionCoords': [563, 307]}]",Rate how much you want to eat this food from 0 (least) to 10 (most).,22998.200000047684,1669836154528,kiwi,1114.2000000476837,True,5.61,24112.400000095367,1114.2000000476837,True,HRV,HRV_0245,2022-11-30 19:23:39
17,"[{'imgObject': {}, 'id': 'chickenfingers', 'src': '/static/foodstim60/chickenfingers.jpg', 'key': 'NaN', 'origWidth': 410, 'origHeight': 410, 'width': 410, 'height': 410, 'widthPercent': 0.8, 'rescaleHeight': True, 'trialN': 17, 'loaded': True, 'loadedTime': 2125.3000000715256, 'positionName': 'CENTER', 'positionCoords': [563, 307]}]",Rate how much you want to eat this food from 0 (least) to 10 (most).,24115.100000023842,1669836155645,chickenfingers,1581.8999999761581,True,6.9,25697.0,1581.8999999761581,True,HRV,HRV_0245,2022-11-30 19:23:39
18,"[{'imgObject': {}, 'id': 'cantaloupe', 'src': '/static/foodstim60/cantaloupe.jpg', 'key': 'NaN', 'origWidth': 409, 'origHeight': 409, 'width': 409, 'height': 409, 'widthPercent': 0.8, 'rescaleHeight': True, 'trialN': 18, 'loaded': True, 'loadedTime': 2129.8000000715256, 'positionName': 'CENTER', 'positionCoords': [563.5, 307.5]}]",Rate how much you want to eat this food from 0 (least) to 10 (most).,25699.600000023842,1669836157229,cantaloupe,1155.0,True,4.58,26854.600000023842,1155.0,True,HRV,HRV_0245,2022-11-30 19:23:39
19,"[{'imgObject': {}, 'id': 'raspberries', 'src': '/static/foodstim60/raspberries.jpg', 'key': 'NaN', 'origWidth': 411, 'origHeight': 411, 'width': 411, 'height': 411, 'widthPercent': 0.8, 'rescaleHeight': True, 'trialN': 19, 'loaded': True, 'loadedTime': 2130.8000000715256, 'positionName': 'CENTER', 'positionCoords': [562.5, 306.5]}]",Rate how much you want to eat this food from 0 (least) to 10 (most).,26856.200000047684,1669836158386,raspberries,1046.2000000476837,True,5.13,27902.400000095367,1046.2000000476837,True,HRV,HRV_0245,2022-11-30 19:23:39
20,"[{'imgObject': {}, 'id': 'seaweed', 'src': '/static/foodstim60/seaweed.jpg', 'key': 'NaN', 'origWidth': 410, 'origHeight': 410, 'width': 410, 'height': 410, 'widthPercent': 0.8, 'rescaleHeight': True, 'trialN': 20, 'loaded': True, 'loadedTime': 2131.5, 'positionName': 'CENTER', 'positionCoords': [563, 307]}]",Rate how much you want to eat this food from 0 (least) to 10 (most).,27904.100000023842,1669836159434,seaweed,1754.8999999761581,True,0.41000000000000003,29659.0,1754.8999999761581,True,HRV,HRV_0245,2022-11-30 19:23:39
21,"[{'imgObject': {}, 'id': 'cocktailshrimp', 'src': '/static/foodstim60/cocktailshrimp.jpg', 'key': 'NaN', 'origWidth': 410, 'origHeight': 410, 'width': 410, 'height': 410, 'widthPercent': 0.8, 'rescaleHeight': True, 'trialN': 21, 'loaded': True, 'loadedTime': 2132.600000023842, 'positionName': 'CENTER', 'positionCoords': [563, 307]}]",Rate how much you want to eat this food from 0 (least) to 10 (most).,29660.700000047684,1669836161191,cocktailshrimp,894.6000000238419,True,1.19,30555.300000071526,894.6000000238419,True,HRV,HRV_0245,2022-11-30 19:23:39
22,"[{'imgObject': {}, 'id': 'omelette', 'src': '/static/foodstim60/omelette.jpg', 'key': 'NaN', 'origWidth': 410, 'origHeight': 409, 'width': 410, 'height': 409, 'widthPercent': 0.8, 'rescaleHeight': True, 'trialN': 22, 'loaded': True, 'loadedTime': 2133.8000000715256, 'positionName': 'CENTER', 'positionCoords': [563, 307.5]}]",Rate how much you want to eat this food from 0 (least) to 10 (most).,30557.700000047684,1669836162088,omelette,1622.2999999523163,True,1.41,32180.0,1622.2999999523163,True,HRV,HRV_0245,2022-11-30 19:23:39
23,"[{'imgObject': {}, 'id': 'bagel and cc', 'src': '/static/foodstim60/bagel and cc.jpg', 'key': 'NaN', 'origWidth': 410, 'origHeight': 410, 'width': 410, 'height': 410, 'widthPercent': 0.8, 'rescaleHeight': True, 'trialN': 23, 'loaded': True, 'loadedTime': 2134.7000000476837, 'positionName': 'CENTER', 'positionCoords': [563, 307]}]",Rate how much you want to eat this food from 0 (least) to 10 (most).,32181.5,1669836163711,bagel and cc,1195.5,True,2.34,33377.0,1195.5,True,HRV,HRV_0245,2022-11-30 19:23:39
24,"[{'imgObject': {}, 'id': 'froot loops w milk', 'src': '/static/foodstim60/froot loops w milk.jpg', 'key': 'NaN', 'origWidth': 410, 'origHeight': 410, 'width': 410, 'height': 410, 'widthPercent': 0.8, 'rescaleHeight': True, 'trialN': 24, 'loaded': True, 'loadedTime': 2143.9000000953674, 'positionName': 'CENTER', 'positionCoords': [563, 307]}]",Rate how much you want to eat this food from 0 (least) to 10 (most).,33378.800000071526,1669836164909,froot loops w milk,1113.3999999761581,True,6.34,34492.200000047684,1113.3999999761581,True,HRV,HRV_0245,2022-11-30 19:23:39
25,"[{'imgObject': {}, 'id': 'avocado', 'src': '/static/foodstim60/avocado.jpg', 'key': 'NaN', 'origWidth': 409, 'origHeight': 409, 'width': 409, 'height': 409, 'widthPercent': 0.8, 'rescaleHeight': True, 'trialN': 25, 'loaded': True, 'loadedTime': 2145.7000000476837, 'positionName': 'CENTER', 'positionCoords': [563.5, 307.5]}]",Rate how much you want to eat this food from 0 (least) to 10 (most).,34492.90000009537,1669836166023,avocado,1733.0999999046326,True,0.5700000000000001,36226.0,1733.0999999046326,True,HRV,HRV_0245,2022-11-30 19:23:39
26,"[{'imgObject': {}, 'id': 'burger', 'src': '/static/foodstim60/burger.jpg', 'key': 'NaN', 'origWidth': 409, 'origHeight': 409, 'width': 409, 'height': 409, 'widthPercent': 0.8, 'rescaleHeight': True, 'trialN': 26, 'loaded': True, 'loadedTime': 2151.9000000953674, 'positionName': 'CENTER', 'positionCoords': [563.5, 307.5]}]",Rate how much you want to eat this food from 0 (least) to 10 (most).,36228.5,1669836167758,burger,1234.1000000238419,True,6.41,37462.60000002384,1234.1000000238419,True,HRV,HRV_0245,2022-11-30 19:23:39
27,"[{'imgObject': {}, 'id': 'blueberries', 'src': '/static/foodstim60/blueberries.jpg', 'key': 'NaN', 'origWidth': 411, 'origHeight': 411, 'width': 411, 'height': 411, 'widthPercent': 0.8, 'rescaleHeight': True, 'trialN': 27, 'loaded': True, 'loadedTime': 2153.100000023842, 'positionName': 'CENTER', 'positionCoords': [562.5, 306.5]}]",Rate how much you want to eat this food from 0 (least) to 10 (most).,37463.90000009537,1669836168994,blueberries,1086.5,True,4.25,38550.40000009537,1086.5,True,HRV,HRV_0245,2022-11-30 19:23:39
28,"[{'imgObject': {}, 'id': 'yogurt no spoon', 'src': '/static/foodstim60/yogurt no spoon.jpg', 'key': 'NaN', 'origWidth': 411, 'origHeight': 410, 'width': 411, 'height': 410, 'widthPercent': 0.8, 'rescaleHeight': True, 'trialN': 28, 'loaded': True, 'loadedTime': 2165, 'positionName': 'CENTER', 'positionCoords': [562.5, 307]}]",Rate how much you want to eat this food from 0 (least) to 10 (most).,38551.5,1669836170081,yogurt no spoon,1056.7000000476837,True,3.72,39608.200000047684,1056.7000000476837,True,HRV,HRV_0245,2022-11-30 19:23:39
29,"[{'imgObject': {}, 'id': 'bagel plain', 'src': '/static/foodstim60/bagel plain.jpg', 'key': 'NaN', 'origWidth': 410, 'origHeight': 410, 'width': 410, 'height': 410, 'widthPercent': 0.8, 'rescaleHeight': True, 'trialN': 29, 'loaded': True, 'loadedTime': 2168.2000000476837, 'positionName': 'CENTER', 'positionCoords': [563, 307]}]",Rate how much you want to eat this food from 0 (least) to 10 (most).,39609.90000009537,1669836171140,bagel plain,1077.7999999523163,True,2.36,40687.700000047684,1077.7999999523163,True,HRV,HRV_0245,2022-11-30 19:23:39
30,"[{'imgObject': {}, 'id': 'cherry tomato', 'src': '/static/foodstim60/cherry tomato.jpg', 'key': 'NaN', 'origWidth': 410, 'origHeight': 410, 'width': 410, 'height': 410, 'widthPercent': 0.8, 'rescaleHeight': True, 'trialN': 30, 'loaded': True, 'loadedTime': 2169.5, 'positionName': 'CENTER', 'positionCoords': [563, 307]}]",Rate how much you want to eat this food from 0 (least) to 10 (most).,40689.5,1669836172219,cherry tomato,1187.6000000238419,True,3.77,41877.10000002384,1187.6000000238419,True,HRV,HRV_0245,2022-11-30 19:23:39
31,"[{'imgObject': {}, 'id': 'pear', 'src': '/static/foodstim60/pear.jpg', 'key': 'NaN', 'origWidth': 411, 'origHeight': 410, 'width': 411, 'height': 410, 'widthPercent': 0.8, 'rescaleHeight': True, 'trialN': 31, 'loaded': True, 'loadedTime': 2171.2000000476837, 'positionName': 'CENTER', 'positionCoords': [562.5, 307]}]",Rate how much you want to eat this food from 0 (least) to 10 (most).,41879.300000071526,1669836173409,pear,1274.2999999523163,True,5.95,43153.60000002384,1274.2999999523163,True,HRV,HRV_0245,2022-11-30 19:23:39
32,"[{'imgObject': {}, 'id': 'blackbeanswithrice', 'src': '/static/foodstim60/blackbeanswithrice.jpg', 'key': 'NaN', 'origWidth': 410, 'origHeight': 410, 'width': 410, 'height': 410, 'widthPercent': 0.8, 'rescaleHeight': True, 'trialN': 32, 'loaded': True, 'loadedTime': 2173.3000000715256, 'positionName': 'CENTER', 'positionCoords': [563, 307]}]",Rate how much you want to eat this food from 0 (least) to 10 (most).,43156.10000002384,1669836174686,blackbeanswithrice,1385.8999999761581,True,6.2700000000000005,44542.0,1385.8999999761581,True,HRV,HRV_0245,2022-11-30 19:23:39
33,"[{'imgObject': {}, 'id': 'Tribe humus pita', 'src': '/static/foodstim60/Tribe humus pita.jpg', 'key': 'NaN', 'origWidth': 411, 'origHeight': 411, 'width': 411, 'height': 411, 'widthPercent': 0.8, 'rescaleHeight': True, 'trialN': 33, 'loaded': True, 'loadedTime': 2176.100000023842, 'positionName': 'CENTER', 'positionCoords': [562.5, 306.5]}]",Rate how much you want to eat this food from 0 (least) to 10 (most).,44544.0,1669836176074,Tribe humus pita,1246.7000000476837,True,6.53,45790.700000047684,1246.7000000476837,True,HRV,HRV_0245,2022-11-30 19:23:39
34,"[{'imgObject': {}, 'id': 'mashed potato', 'src': '/static/foodstim60/mashed potato.jpg', 'key': 'NaN', 'origWidth': 409, 'origHeight': 409, 'width': 409, 'height': 409, 'widthPercent': 0.8, 'rescaleHeight': True, 'trialN': 34, 'loaded': True, 'loadedTime': 2178.100000023842, 'positionName': 'CENTER', 'positionCoords': [563.5, 307.5]}]",Rate how much you want to eat this food from 0 (least) to 10 (most).,45793.10000002384,1669836177323,mashed potato,1677.1000000238419,True,4.68,47470.200000047684,1677.1000000238419,True,HRV,HRV_0245,2022-11-30 19:23:39
35,"[{'imgObject': {}, 'id': 'sushi w_condiments', 'src': '/static/foodstim60/sushi w_condiments.jpg', 'key': 'NaN', 'origWidth': 410, 'origHeight': 410, 'width': 410, 'height': 410, 'widthPercent': 0.8, 'rescaleHeight': True, 'trialN': 35, 'loaded': True, 'loadedTime': 2179.600000023842, 'positionName': 'CENTER', 'positionCoords': [563, 307]}]",Rate how much you want to eat this food from 0 (least) to 10 (most).,47471.300000071526,1669836179001,sushi w_condiments,1304.3999999761581,True,0.5,48775.700000047684,1304.3999999761581,True,HRV,HRV_0245,2022-11-30 19:23:39
36,"[{'imgObject': {}, 'id': 'rigatoni', 'src': '/static/foodstim60/rigatoni.jpg', 'key': 'NaN', 'origWidth': 411, 'origHeight': 411, 'width': 411, 'height': 411, 'widthPercent': 0.8, 'rescaleHeight': True, 'trialN': 36, 'loaded': True, 'loadedTime': 2181.3000000715256, 'positionName': 'CENTER', 'positionCoords': [562.5, 306.5]}]",Rate how much you want to eat this food from 0 (least) to 10 (most).,48777.5,1669836180307,rigatoni,1491.7000000476837,True,5.03,50269.200000047684,1491.7000000476837,True,HRV,HRV_0245,2022-11-30 19:23:39
37,"[{'imgObject': {}, 'id': 'granola w milk', 'src': '/static/foodstim60/granola w milk.jpg', 'key': 'NaN', 'origWidth': 410, 'origHeight': 410, 'width': 410, 'height': 410, 'widthPercent': 0.8, 'rescaleHeight': True, 'trialN': 37, 'loaded': True, 'loadedTime': 2182.7000000476837, 'positionName': 'CENTER', 'positionCoords': [563, 307]}]",Rate how much you want to eat this food from 0 (least) to 10 (most).,50271.10000002384,1669836181801,granola w milk,1350.3000000715256,True,5.03,51621.40000009537,1350.3000000715256,True,HRV,HRV_0245,2022-11-30 19:23:39
38,"[{'imgObject': {}, 'id': 'shreddedwheatwithmilk', 'src': '/static/foodstim60/shreddedwheatwithmilk.jpg', 'key': 'NaN', 'origWidth': 410, 'origHeight': 410, 'width': 410, 'height': 410, 'widthPercent': 0.8, 'rescaleHeight': True, 'trialN': 38, 'loaded': True, 'loadedTime': 2183.9000000953674, 'positionName': 'CENTER', 'positionCoords': [563, 307]}]",Rate how much you want to eat this food from 0 (least) to 10 (most).,51623.90000009537,1669836183154,shreddedwheatwithmilk,1358.0999999046326,True,5.09,52982.0,1358.0999999046326,True,HRV,HRV_0245,2022-11-30 19:23:39
39,"[{'imgObject': {}, 'id': 'ice cream sundae 002', 'src': '/static/foodstim60/ice cream sundae 002.jpg', 'key': 'NaN', 'origWidth': 409, 'origHeight': 409, 'width': 409, 'height': 409, 'widthPercent': 0.8, 'rescaleHeight': True, 'trialN': 39, 'loaded': True, 'loadedTime': 2185.2000000476837, 'positionName': 'CENTER', 'positionCoords': [563.5, 307.5]}]",Rate how much you want to eat this food from 0 (least) to 10 (most).,52983.60000002384,1669836184513,ice cream sundae 002,1135.7000000476837,True,5.87,54119.300000071526,1135.7000000476837,True,HRV,HRV_0245,2022-11-30 19:23:39
40,"[{'imgObject': {}, 'id': 'eggsalad', 'src': '/static/foodstim60/eggsalad.jpg', 'key': 'NaN', 'origWidth': 410, 'origHeight': 409, 'width': 410, 'height': 409, 'widthPercent': 0.8, 'rescaleHeight': True, 'trialN': 40, 'loaded': True, 'loadedTime': 2186.7000000476837, 'positionName': 'CENTER', 'positionCoords': [563, 307.5]}]",Rate how much you want to eat this food from 0 (least) to 10 (most).,54120.800000071526,1669836185651,eggsalad,1869.5,True,4.21,55990.300000071526,1869.5,True,HRV,HRV_0245,2022-11-30 19:23:39
41,"[{'imgObject': {}, 'id': 'hotdog w must', 'src': '/static/foodstim60/hotdog w must.jpg', 'key': 'NaN', 'origWidth': 409, 'origHeight': 409, 'width': 409, 'height': 409, 'widthPercent': 0.8, 'rescaleHeight': True, 'trialN': 41, 'loaded': True, 'loadedTime': 2188.100000023842, 'positionName': 'CENTER', 'positionCoords': [563.5, 307.5]}]",Rate how much you want to eat this food from 0 (least) to 10 (most).,55996.700000047684,1669836187527,hotdog w must,1146.7000000476837,True,3.2600000000000002,57143.40000009537,1146.7000000476837,True,HRV,HRV_0245,2022-11-30 19:23:39
42,"[{'imgObject': {}, 'id': 'tacos', 'src': '/static/foodstim60/tacos.jpg', 'key': 'NaN', 'origWidth': 411, 'origHeight': 411, 'width': 411, 'height': 411, 'widthPercent': 0.8, 'rescaleHeight': True, 'trialN': 42, 'loaded': True, 'loadedTime': 2189.4000000953674, 'positionName': 'CENTER', 'positionCoords': [562.5, 306.5]}]",Rate how much you want to eat this food from 0 (least) to 10 (most).,57144.5,1669836188674,tacos,1253.0,True,4.32,58397.5,1253.0,True,HRV,HRV_0245,2022-11-30 19:23:39
43,"[{'imgObject': {}, 'id': 'baked potato', 'src': '/static/foodstim60/baked potato.jpg', 'key': 'NaN', 'origWidth': 409, 'origHeight': 410, 'width': 409, 'height': 410, 'widthPercent': 0.8, 'rescaleHeight': True, 'trialN': 43, 'loaded': True, 'loadedTime': 2190.600000023842, 'positionName': 'CENTER', 'positionCoords': [563.5, 307]}]",Rate how much you want to eat this food from 0 (least) to 10 (most).,58399.10000002384,1669836189929,baked potato,2151.399999976158,True,6.05,60550.5,2151.399999976158,True,HRV,HRV_0245,2022-11-30 19:23:39
44,"[{'imgObject': {}, 'id': 'mango', 'src': '/static/foodstim60/mango.jpg', 'key': 'NaN', 'origWidth': 411, 'origHeight': 411, 'width': 411, 'height': 411, 'widthPercent': 0.8, 'rescaleHeight': True, 'trialN': 44, 'loaded': True, 'loadedTime': 2191.5, 'positionName': 'CENTER', 'positionCoords': [562.5, 306.5]}]",Rate how much you want to eat this food from 0 (least) to 10 (most).,60552.10000002384,1669836192082,mango,1137.7000000476837,True,2.69,61689.800000071526,1137.7000000476837,True,HRV,HRV_0245,2022-11-30 19:23:39
45,"[{'imgObject': {}, 'id': 'edamame', 'src': '/static/foodstim60/edamame.jpg', 'key': 'NaN', 'origWidth': 409, 'origHeight': 410, 'width': 409, 'height': 410, 'widthPercent': 0.8, 'rescaleHeight': True, 'trialN': 45, 'loaded': True, 'loadedTime': 2192.5, 'positionName': 'CENTER', 'positionCoords': [563.5, 307]}]",Rate how much you want to eat this food from 0 (least) to 10 (most).,61692.300000071526,1669836193222,edamame,1278.1000000238419,True,2.89,62970.40000009537,1278.1000000238419,True,HRV,HRV_0245,2022-11-30 19:23:39
46,"[{'imgObject': {}, 'id': 'mac & cheese', 'src': '/static/foodstim60/mac & cheese.jpg', 'key': 'NaN', 'origWidth': 410, 'origHeight': 410, 'width': 410, 'height': 410, 'widthPercent': 0.8, 'rescaleHeight': True, 'trialN': 46, 'loaded': True, 'loadedTime': 2193.5, 'positionName': 'CENTER', 'positionCoords': [563, 307]}]",Rate how much you want to eat this food from 0 (least) to 10 (most).,62971.700000047684,1669836194501,mac & cheese,2047.5,True,4.41,65019.200000047684,2047.5,True,HRV,HRV_0245,2022-11-30 19:23:39
47,"[{'imgObject': {}, 'id': 'orange slices', 'src': '/static/foodstim60/orange slices.jpg', 'key': 'NaN', 'origWidth': 409, 'origHeight': 410, 'width': 409, 'height': 410, 'widthPercent': 0.8, 'rescaleHeight': True, 'trialN': 47, 'loaded': True, 'loadedTime': 2194.8000000715256, 'positionName': 'CENTER', 'positionCoords': [563.5, 307]}]",Rate how much you want to eat this food from 0 (least) to 10 (most).,65021.0,1669836196551,orange slices,1226.4000000953674,True,6.11,66247.40000009537,1226.4000000953674,True,HRV,HRV_0245,2022-11-30 19:23:39
48,"[{'imgObject': {}, 'id': 'cherries', 'src': '/static/foodstim60/cherries.jpg', 'key': 'NaN', 'origWidth': 410, 'origHeight': 411, 'width': 410, 'height': 411, 'widthPercent': 0.8, 'rescaleHeight': True, 'trialN': 48, 'loaded': True, 'loadedTime': 2195.9000000953674, 'positionName': 'CENTER', 'positionCoords': [563, 306.5]}]",Rate how much you want to eat this food from 0 (least) to 10 (most).,66248.5,1669836197778,cherries,1296.9000000953674,True,6.83,67545.40000009537,1296.9000000953674,True,HRV,HRV_0245,2022-11-30 19:23:39
49,"[{'imgObject': {}, 'id': 'apple slices', 'src': '/static/foodstim60/apple slices.jpg', 'key': 'NaN', 'origWidth': 409, 'origHeight': 410, 'width': 409, 'height': 410, 'widthPercent': 0.8, 'rescaleHeight': True, 'trialN': 49, 'loaded': True, 'loadedTime': 2197, 'positionName': 'CENTER', 'positionCoords': [563.5, 307]}]",Rate how much you want to eat this food from 0 (least) to 10 (most).,67547.40000009537,1669836199077,apple slices,1223.0999999046326,True,5.96,68770.5,1223.0999999046326,True,HRV,HRV_0245,2022-11-30 19:23:39
50,"[{'imgObject': {}, 'id': 'popsicles', 'src': '/static/foodstim60/popsicles.jpg', 'key': 'NaN', 'origWidth': 410, 'origHeight': 410, 'width': 410, 'height': 410, 'widthPercent': 0.8, 'rescaleHeight': True, 'trialN': 50, 'loaded': True, 'loadedTime': 2198, 'positionName': 'CENTER', 'positionCoords': [563, 307]}]",Rate how much you want to eat this food from 0 (least) to 10 (most).,68773.20000004768,1669836200303,popsicles,1360.6000000238419,True,6.640000000000001,70133.80000007153,1360.6000000238419,True,HRV,HRV_0245,2022-11-30 19:23:39
51,"[{'imgObject': {}, 'id': 'hashbrowns', 'src': '/static/foodstim60/hashbrowns.jpg', 'key': 'NaN', 'origWidth': 411, 'origHeight': 410, 'width': 411, 'height': 410, 'widthPercent': 0.8, 'rescaleHeight': True, 'trialN': 51, 'loaded': True, 'loadedTime': 2199.4000000953674, 'positionName': 'CENTER', 'positionCoords': [562.5, 307]}]",Rate how much you want to eat this food from 0 (least) to 10 (most).,70135.70000004768,1669836201665,hashbrowns,4989.600000023842,True,4.84,75125.30000007153,4989.600000023842,True,HRV,HRV_0245,2022-11-30 19:23:39
52,"[{'imgObject': {}, 'id': 'banana', 'src': '/static/foodstim60/banana.jpg', 'key': 'NaN', 'origWidth': 410, 'origHeight': 410, 'width': 410, 'height': 410, 'widthPercent': 0.8, 'rescaleHeight': True, 'trialN': 52, 'loaded': True, 'loadedTime': 2201.4000000953674, 'positionName': 'CENTER', 'positionCoords': [563, 307]}]",Rate how much you want to eat this food from 0 (least) to 10 (most).,75128.10000002384,1669836206658,banana,1744.2000000476837,True,4.7,76872.30000007153,1744.2000000476837,True,HRV,HRV_0245,2022-11-30 19:23:39
53,"[{'imgObject': {}, 'id': 'raisin bran w milk', 'src': '/static/foodstim60/raisin bran w milk.jpg', 'key': 'NaN', 'origWidth': 411, 'origHeight': 411, 'width': 411, 'height': 411, 'widthPercent': 0.8, 'rescaleHeight': True, 'trialN': 53, 'loaded': True, 'loadedTime': 2202.5, 'positionName': 'CENTER', 'positionCoords': [562.5, 306.5]}]",Rate how much you want to eat this food from 0 (least) to 10 (most).,76873.10000002384,1669836208403,raisin bran w milk,1425.2000000476837,True,4.28,78298.30000007153,1425.2000000476837,True,HRV,HRV_0245,2022-11-30 19:23:39
54,"[{'imgObject': {}, 'id': 'cheerios', 'src': '/static/foodstim60/cheerios.jpg', 'key': 'NaN', 'origWidth': 409, 'origHeight': 410, 'width': 409, 'height': 410, 'widthPercent': 0.8, 'rescaleHeight': True, 'trialN': 54, 'loaded': True, 'loadedTime': 2203.7000000476837, 'positionName': 'CENTER', 'positionCoords': [563.5, 307]}]",Rate how much you want to eat this food from 0 (least) to 10 (most).,78299.70000004768,1669836209829,cheerios,1383.5,True,5.1000000000000005,79683.20000004768,1383.5,True,HRV,HRV_0245,2022-11-30 19:23:39
55,"[{'imgObject': {}, 'id': 'turkey sandwich', 'src': '/static/foodstim60/turkey sandwich.jpg', 'key': 'NaN', 'origWidth': 409, 'origHeight': 409, 'width': 409, 'height': 409, 'widthPercent': 0.8, 'rescaleHeight': True, 'trialN': 55, 'loaded': True, 'loadedTime': 2205, 'positionName': 'CENTER', 'positionCoords': [563.5, 307.5]}]",Rate how much you want to eat this food from 0 (least) to 10 (most).,79685.0,1669836211215,turkey sandwich,1105.7000000476837,True,6.640000000000001,80790.70000004768,1105.7000000476837,True,HRV,HRV_0245,2022-11-30 19:23:39
56,"[{'imgObject': {}, 'id': 'fried eggs', 'src': '/static/foodstim60/fried eggs.jpg', 'key': 'NaN', 'origWidth': 410, 'origHeight': 410, 'width': 410, 'height': 410, 'widthPercent': 0.8, 'rescaleHeight': True, 'trialN': 56, 'loaded': True, 'loadedTime': 2206.3000000715256, 'positionName': 'CENTER', 'positionCoords': [563, 307]}]",Rate how much you want to eat this food from 0 (least) to 10 (most).,80793.20000004768,1669836212323,fried eggs,1262.1000000238419,True,5.95,82055.30000007153,1262.1000000238419,True,HRV,HRV_0245,2022-11-30 19:23:39
57,"[{'imgObject': {}, 'id': 'luckycharms', 'src': '/static/foodstim60/luckycharms.jpg', 'key': 'NaN', 'origWidth': 410, 'origHeight': 409, 'width': 410, 'height': 409, 'widthPercent': 0.8, 'rescaleHeight': True, 'trialN': 57, 'loaded': True, 'loadedTime': 2207.4000000953674, 'positionName': 'CENTER', 'positionCoords': [563, 307.5]}]",Rate how much you want to eat this food from 0 (least) to 10 (most).,82056.30000007153,1669836213586,luckycharms,1668.7999999523163,True,7.0,83725.10000002384,1668.7999999523163,True,HRV,HRV_0245,2022-11-30 19:23:39
58,"[{'imgObject': {}, 'id': 'rigatoni and sauce', 'src': '/static/foodstim60/rigatoni and sauce.jpg', 'key': 'NaN', 'origWidth': 410, 'origHeight': 411, 'width': 410, 'height': 411, 'widthPercent': 0.8, 'rescaleHeight': True, 'trialN': 58, 'loaded': True, 'loadedTime': 2208.5, 'positionName': 'CENTER', 'positionCoords': [563, 306.5]}]",Rate how much you want to eat this food from 0 (least) to 10 (most).,83726.90000009537,1669836215256,rigatoni and sauce,1751.2999999523163,True,6.01,85478.20000004768,1751.2999999523163,True,HRV,HRV_0245,2022-11-30 19:23:39
59,"[{'imgObject': {}, 'id': 'salad w chicken', 'src': '/static/foodstim60/salad w chicken.jpg', 'key': 'NaN', 'origWidth': 411, 'origHeight': 411, 'width': 411, 'height': 411, 'widthPercent': 0.8, 'rescaleHeight': True, 'trialN': 59, 'loaded': True, 'loadedTime': 2209.7000000476837, 'positionName': 'CENTER', 'positionCoords': [562.5, 306.5]}]",Rate how much you want to eat this food from 0 (least) to 10 (most).,85479.90000009537,1669836217009,salad w chicken,1717.7999999523163,True,4.36,87197.70000004768,1717.7999999523163,True,HRV,HRV_0245,2022-11-30 19:23:39
