trialN,stimuli,trialStartTime,trialStartTime_UNIX,stimulus1,stimulus2,stimulus1Bid,stimulus2Bid,delta,selected,rt,rt_UNIX,rt_perfnow,receivedResponse,rsp,trialEndTime,trialDuration,trialEndTime_UNIX,trialDuration_UNIX,exp,subjectId,date
0,"[{'imgObject': {}, 'id': 'blackbeanswithrice', 'src': '/static/foodstim60/blackbeanswithrice.jpg', 'key': 'u', 'origWidth': 410, 'origHeight': 410, 'width': 410, 'height': 410, 'widthPercent': 0.45, 'rescaleHeight': False, 'trialN': 0, 'loaded': True, 'loadedTime': 5584.700000047684, 'positionName': 'LEFT', 'positionCoords': [245.68, 179], 'bid': 5.68}, {'imgObject': {}, 'id': 'apple slices', 'src': '/static/foodstim60/apple slices.jpg', 'key': 'i', 'origWidth': 409, 'origHeight': 410, 'width': 409, 'height': 410, 'widthPercent': 0.45, 'rescaleHeight': False, 'trialN': 0, 'loaded': True, 'loadedTime': 5643.700000047684, 'positionName': 'RIGHT', 'positionCoords': [710.32, 179], 'bid': 9.02}]",8123.100000023842,1669833332683,blackbeanswithrice,apple slices,5.68,9.02,3.34,apple slices,2142.3000000715256,2153,2152.600000023842,True,i,10787.5,2664.399999976158,1669833335348,2665,HRV,HRV_0210,2022-11-30 18:40:44
1,"[{'imgObject': {}, 'id': 'salmon', 'src': '/static/foodstim60/salmon.jpg', 'key': 'u', 'origWidth': 410, 'origHeight': 409, 'width': 410, 'height': 409, 'widthPercent': 0.45, 'rescaleHeight': False, 'trialN': 1, 'loaded': True, 'loadedTime': 5719.900000095367, 'positionName': 'LEFT', 'positionCoords': [245.68, 179.5], 'bid': 6.36}, {'imgObject': {}, 'id': 'mango', 'src': '/static/foodstim60/mango.jpg', 'key': 'i', 'origWidth': 411, 'origHeight': 411, 'width': 411, 'height': 411, 'widthPercent': 0.45, 'rescaleHeight': False, 'trialN': 1, 'loaded': True, 'loadedTime': 5786.900000095367, 'positionName': 'RIGHT', 'positionCoords': [710.32, 178.5], 'bid': 6.34}]",10787.800000071526,1669833335348,salmon,mango,6.36,6.34,-0.020000000000000462,mango,1020,1021,1021.1999999284744,True,i,12323.600000023842,1535.7999999523163,1669833336884,1536,HRV,HRV_0210,2022-11-30 18:40:44
2,"[{'imgObject': {}, 'id': 'sweetpotato', 'src': '/static/foodstim60/sweetpotato.jpg', 'key': 'u', 'origWidth': 410, 'origHeight': 410, 'width': 410, 'height': 410, 'widthPercent': 0.45, 'rescaleHeight': False, 'trialN': 2, 'loaded': True, 'loadedTime': 5832.100000023842, 'positionName': 'LEFT', 'positionCoords': [245.68, 179], 'bid': 4.25}, {'imgObject': {}, 'id': 'edamame', 'src': '/static/foodstim60/edamame.jpg', 'key': 'i', 'origWidth': 409, 'origHeight': 410, 'width': 409, 'height': 410, 'widthPercent': 0.45, 'rescaleHeight': False, 'trialN': 2, 'loaded': True, 'loadedTime': 5933.100000023842, 'positionName': 'RIGHT', 'positionCoords': [710.32, 179], 'bid': 4.3100000000000005}]",12323.800000071526,1669833336884,sweetpotato,edamame,4.25,4.3100000000000005,0.0600000000000005,sweetpotato,1224.3999999761581,1225,1225.1999999284744,True,u,14055.200000047684,1731.3999999761581,1669833338616,1732,HRV,HRV_0210,2022-11-30 18:40:44
3,"[{'imgObject': {}, 'id': 'banana', 'src': '/static/foodstim60/banana.jpg', 'key': 'u', 'origWidth': 410, 'origHeight': 410, 'width': 410, 'height': 410, 'widthPercent': 0.45, 'rescaleHeight': False, 'trialN': 3, 'loaded': True, 'loadedTime': 6012.400000095367, 'positionName': 'LEFT', 'positionCoords': [245.68, 179], 'bid': 5.29}, {'imgObject': {}, 'id': 'luckycharms', 'src': '/static/foodstim60/luckycharms.jpg', 'key': 'i', 'origWidth': 410, 'origHeight': 409, 'width': 410, 'height': 409, 'widthPercent': 0.45, 'rescaleHeight': False, 'trialN': 3, 'loaded': True, 'loadedTime': 6027.900000095367, 'positionName': 'RIGHT', 'positionCoords': [710.32, 179.5], 'bid': 5.38}]",14055.700000047684,1669833338616,banana,luckycharms,5.29,5.38,0.08999999999999986,banana,661.7999999523163,663,662.5,True,u,15227.400000095367,1171.7000000476837,1669833339788,1172,HRV,HRV_0210,2022-11-30 18:40:44
4,"[{'imgObject': {}, 'id': 'cherries', 'src': '/static/foodstim60/cherries.jpg', 'key': 'u', 'origWidth': 410, 'origHeight': 411, 'width': 410, 'height': 411, 'widthPercent': 0.45, 'rescaleHeight': False, 'trialN': 4, 'loaded': True, 'loadedTime': 6100.5, 'positionName': 'LEFT', 'positionCoords': [245.68, 178.5], 'bid': 8.16}, {'imgObject': {}, 'id': 'cheerios', 'src': '/static/foodstim60/cheerios.jpg', 'key': 'i', 'origWidth': 409, 'origHeight': 410, 'width': 409, 'height': 410, 'widthPercent': 0.45, 'rescaleHeight': False, 'trialN': 4, 'loaded': True, 'loadedTime': 6169.600000023842, 'positionName': 'RIGHT', 'positionCoords': [710.32, 179], 'bid': 5.46}]",15227.900000095367,1669833339788,cherries,cheerios,8.16,5.46,-2.7,cherries,987.2999999523163,988,987.8999999761581,True,u,16727.400000095367,1499.5,1669833341288,1500,HRV,HRV_0210,2022-11-30 18:40:44
5,"[{'imgObject': {}, 'id': 'hotdog w must', 'src': '/static/foodstim60/hotdog w must.jpg', 'key': 'u', 'origWidth': 409, 'origHeight': 409, 'width': 409, 'height': 409, 'widthPercent': 0.45, 'rescaleHeight': False, 'trialN': 5, 'loaded': True, 'loadedTime': 6234.700000047684, 'positionName': 'LEFT', 'positionCoords': [246.68, 179.5], 'bid': 5.99}, {'imgObject': {}, 'id': 'hashbrowns', 'src': '/static/foodstim60/hashbrowns.jpg', 'key': 'i', 'origWidth': 411, 'origHeight': 410, 'width': 411, 'height': 410, 'widthPercent': 0.45, 'rescaleHeight': False, 'trialN': 5, 'loaded': True, 'loadedTime': 6300.100000023842, 'positionName': 'RIGHT', 'positionCoords': [710.32, 179], 'bid': 5.79}]",16728.0,1669833341288,hotdog w must,hashbrowns,5.99,5.79,-0.20000000000000018,hashbrowns,1544.9000000953674,1546,1545.5,True,i,18784.700000047684,2056.7000000476837,1669833343345,2057,HRV,HRV_0210,2022-11-30 18:40:44
6,"[{'imgObject': {}, 'id': 'hashbrowns', 'src': '/static/foodstim60/hashbrowns.jpg', 'key': 'u', 'origWidth': 411, 'origHeight': 410, 'width': 411, 'height': 410, 'widthPercent': 0.45, 'rescaleHeight': False, 'trialN': 6, 'loaded': True, 'loadedTime': 6299.800000071526, 'positionName': 'LEFT', 'positionCoords': [244.68, 179], 'bid': 5.79}, {'imgObject': {}, 'id': 'blackbeanswithrice', 'src': '/static/foodstim60/blackbeanswithrice.jpg', 'key': 'i', 'origWidth': 410, 'origHeight': 410, 'width': 410, 'height': 410, 'widthPercent': 0.45, 'rescaleHeight': False, 'trialN': 6, 'loaded': True, 'loadedTime': 5585.300000071526, 'positionName': 'RIGHT', 'positionCoords': [710.32, 179], 'bid': 5.68}]",18785.300000071526,1669833343346,hashbrowns,blackbeanswithrice,5.79,5.68,-0.11000000000000032,hashbrowns,1143.2999999523163,1171,1171.6000000238419,True,u,20552.0,1766.6999999284744,1669833345112,1766,HRV,HRV_0210,2022-11-30 18:40:44
7,"[{'imgObject': {}, 'id': 'hashbrowns', 'src': '/static/foodstim60/hashbrowns.jpg', 'key': 'u', 'origWidth': 411, 'origHeight': 410, 'width': 411, 'height': 410, 'widthPercent': 0.45, 'rescaleHeight': False, 'trialN': 7, 'loaded': True, 'loadedTime': 6286.900000095367, 'positionName': 'LEFT', 'positionCoords': [244.68, 179], 'bid': 5.79}, {'imgObject': {}, 'id': 'blueberries', 'src': '/static/foodstim60/blueberries.jpg', 'key': 'i', 'origWidth': 411, 'origHeight': 411, 'width': 411, 'height': 411, 'widthPercent': 0.45, 'rescaleHeight': False, 'trialN': 7, 'loaded': True, 'loadedTime': 6310.300000071526, 'positionName': 'RIGHT', 'positionCoords': [710.32, 178.5], 'bid': 9.05}]",20552.300000071526,1669833345113,hashbrowns,blueberries,5.79,9.05,3.2600000000000007,blueberries,1001.2999999523163,1001,1001.7999999523163,True,i,22066.100000023842,1513.7999999523163,1669833346626,1513,HRV,HRV_0210,2022-11-30 18:40:44
8,"[{'imgObject': {}, 'id': 'cheerios', 'src': '/static/foodstim60/cheerios.jpg', 'key': 'u', 'origWidth': 409, 'origHeight': 410, 'width': 409, 'height': 410, 'widthPercent': 0.45, 'rescaleHeight': False, 'trialN': 8, 'loaded': True, 'loadedTime': 6169.800000071526, 'positionName': 'LEFT', 'positionCoords': [246.68, 179], 'bid': 5.46}, {'imgObject': {}, 'id': 'mac & cheese', 'src': '/static/foodstim60/mac & cheese.jpg', 'key': 'i', 'origWidth': 410, 'origHeight': 410, 'width': 410, 'height': 410, 'widthPercent': 0.45, 'rescaleHeight': False, 'trialN': 8, 'loaded': True, 'loadedTime': 6436.200000047684, 'positionName': 'RIGHT', 'positionCoords': [710.32, 179], 'bid': 5.93}]",22068.300000071526,1669833346629,cheerios,mac & cheese,5.46,5.93,0.46999999999999975,mac & cheese,1314.6999999284744,1315,1315.3999999761581,True,i,23886.600000023842,1818.2999999523163,1669833348447,1818,HRV,HRV_0210,2022-11-30 18:40:44
9,"[{'imgObject': {}, 'id': 'banana', 'src': '/static/foodstim60/banana.jpg', 'key': 'u', 'origWidth': 410, 'origHeight': 410, 'width': 410, 'height': 410, 'widthPercent': 0.45, 'rescaleHeight': False, 'trialN': 9, 'loaded': True, 'loadedTime': 5973.200000047684, 'positionName': 'LEFT', 'positionCoords': [245.68, 179], 'bid': 5.29}, {'imgObject': {}, 'id': 'eggs', 'src': '/static/foodstim60/eggs.jpg', 'key': 'i', 'origWidth': 409, 'origHeight': 409, 'width': 409, 'height': 409, 'widthPercent': 0.45, 'rescaleHeight': False, 'trialN': 9, 'loaded': True, 'loadedTime': 6452, 'positionName': 'RIGHT', 'positionCoords': [710.32, 179.5], 'bid': 5.36}]",23887.0,1669833348447,banana,eggs,5.29,5.36,0.07000000000000028,banana,1023.1000000238419,1024,1023.8000000715256,True,u,25423.200000047684,1536.2000000476837,1669833349983,1536,HRV,HRV_0210,2022-11-30 18:40:44
10,"[{'imgObject': {}, 'id': 'olives', 'src': '/static/foodstim60/olives.jpg', 'key': 'u', 'origWidth': 410, 'origHeight': 410, 'width': 410, 'height': 410, 'widthPercent': 0.45, 'rescaleHeight': False, 'trialN': 10, 'loaded': True, 'loadedTime': 6462.5, 'positionName': 'LEFT', 'positionCoords': [245.68, 179], 'bid': 6.8100000000000005}, {'imgObject': {}, 'id': 'mashed potato', 'src': '/static/foodstim60/mashed potato.jpg', 'key': 'i', 'origWidth': 409, 'origHeight': 409, 'width': 409, 'height': 409, 'widthPercent': 0.45, 'rescaleHeight': False, 'trialN': 10, 'loaded': True, 'loadedTime': 6465.600000023842, 'positionName': 'RIGHT', 'positionCoords': [710.32, 179.5], 'bid': 7.19}]",25423.5,1669833349984,olives,mashed potato,6.8100000000000005,7.19,0.3799999999999999,mashed potato,1163.2000000476837,1165,1164.8000000715256,True,i,27105.900000095367,1682.4000000953674,1669833351666,1682,HRV,HRV_0210,2022-11-30 18:40:44
11,"[{'imgObject': {}, 'id': 'chickenfingers', 'src': '/static/foodstim60/chickenfingers.jpg', 'key': 'u', 'origWidth': 410, 'origHeight': 410, 'width': 410, 'height': 410, 'widthPercent': 0.45, 'rescaleHeight': False, 'trialN': 11, 'loaded': True, 'loadedTime': 6613.900000095367, 'positionName': 'LEFT', 'positionCoords': [245.68, 179], 'bid': 6.11}, {'imgObject': {}, 'id': 'Tribe humus pita', 'src': '/static/foodstim60/Tribe humus pita.jpg', 'key': 'i', 'origWidth': 411, 'origHeight': 411, 'width': 411, 'height': 411, 'widthPercent': 0.45, 'rescaleHeight': False, 'trialN': 11, 'loaded': True, 'loadedTime': 6801.600000023842, 'positionName': 'RIGHT', 'positionCoords': [710.32, 178.5], 'bid': 5.84}]",27106.200000047684,1669833351667,chickenfingers,Tribe humus pita,6.11,5.84,-0.27000000000000046,chickenfingers,1383.7999999523163,1385,1385.1000000238419,True,u,29011.400000095367,1905.2000000476837,1669833353572,1905,HRV,HRV_0210,2022-11-30 18:40:44
12,"[{'imgObject': {}, 'id': 'salmon', 'src': '/static/foodstim60/salmon.jpg', 'key': 'u', 'origWidth': 410, 'origHeight': 409, 'width': 410, 'height': 409, 'widthPercent': 0.45, 'rescaleHeight': False, 'trialN': 12, 'loaded': True, 'loadedTime': 5719.5, 'positionName': 'LEFT', 'positionCoords': [245.68, 179.5], 'bid': 6.36}, {'imgObject': {}, 'id': 'tacos', 'src': '/static/foodstim60/tacos.jpg', 'key': 'i', 'origWidth': 411, 'origHeight': 411, 'width': 411, 'height': 411, 'widthPercent': 0.45, 'rescaleHeight': False, 'trialN': 12, 'loaded': True, 'loadedTime': 6951.100000023842, 'positionName': 'RIGHT', 'positionCoords': [710.32, 178.5], 'bid': 4.41}]",29011.900000095367,1669833353572,salmon,tacos,6.36,4.41,-1.9500000000000002,tacos,1808.6999999284744,1810,1809.2999999523163,True,i,31336.800000071526,2324.899999976158,1669833355897,2325,HRV,HRV_0210,2022-11-30 18:40:44
13,"[{'imgObject': {}, 'id': 'froot loops w milk', 'src': '/static/foodstim60/froot loops w milk.jpg', 'key': 'u', 'origWidth': 410, 'origHeight': 410, 'width': 410, 'height': 410, 'widthPercent': 0.45, 'rescaleHeight': False, 'trialN': 13, 'loaded': True, 'loadedTime': 6737.100000023842, 'positionName': 'LEFT', 'positionCoords': [245.68, 179], 'bid': 3.52}, {'imgObject': {}, 'id': 'avocado', 'src': '/static/foodstim60/avocado.jpg', 'key': 'i', 'origWidth': 409, 'origHeight': 409, 'width': 409, 'height': 409, 'widthPercent': 0.45, 'rescaleHeight': False, 'trialN': 13, 'loaded': True, 'loadedTime': 6725, 'positionName': 'RIGHT', 'positionCoords': [710.32, 179.5], 'bid': 2.64}]",31337.200000047684,1669833355898,froot loops w milk,avocado,3.52,2.64,-0.8799999999999999,avocado,2530.7000000476837,2531,2531.399999976158,True,i,34374.60000002384,3037.399999976158,1669833358935,3037,HRV,HRV_0210,2022-11-30 18:40:44
14,"[{'imgObject': {}, 'id': 'granola w milk', 'src': '/static/foodstim60/granola w milk.jpg', 'key': 'u', 'origWidth': 410, 'origHeight': 410, 'width': 410, 'height': 410, 'widthPercent': 0.45, 'rescaleHeight': False, 'trialN': 14, 'loaded': True, 'loadedTime': 6730.5, 'positionName': 'LEFT', 'positionCoords': [245.68, 179], 'bid': 3.96}, {'imgObject': {}, 'id': 'popsicles', 'src': '/static/foodstim60/popsicles.jpg', 'key': 'i', 'origWidth': 410, 'origHeight': 410, 'width': 410, 'height': 410, 'widthPercent': 0.45, 'rescaleHeight': False, 'trialN': 14, 'loaded': True, 'loadedTime': 8079.5, 'positionName': 'RIGHT', 'positionCoords': [710.32, 179], 'bid': 4.23}]",34374.800000071526,1669833358935,granola w milk,popsicles,3.96,4.23,0.27000000000000046,granola w milk,1384.2999999523163,1372,1384.8999999761581,True,u,36264.0,1889.1999999284744,1669833360811,1876,HRV,HRV_0210,2022-11-30 18:40:44
15,"[{'imgObject': {}, 'id': 'cocktailshrimp', 'src': '/static/foodstim60/cocktailshrimp.jpg', 'key': 'u', 'origWidth': 410, 'origHeight': 410, 'width': 410, 'height': 410, 'widthPercent': 0.45, 'rescaleHeight': False, 'trialN': 15, 'loaded': True, 'loadedTime': 6965.900000095367, 'positionName': 'LEFT', 'positionCoords': [245.68, 179], 'bid': 5.49}, {'imgObject': {}, 'id': 'rigatoni and sauce', 'src': '/static/foodstim60/rigatoni and sauce.jpg', 'key': 'i', 'origWidth': 410, 'origHeight': 411, 'width': 410, 'height': 411, 'widthPercent': 0.45, 'rescaleHeight': False, 'trialN': 15, 'loaded': True, 'loadedTime': 6974.100000023842, 'positionName': 'RIGHT', 'positionCoords': [710.32, 178.5], 'bid': 5.17}]",36264.5,1669833360812,cocktailshrimp,rigatoni and sauce,5.49,5.17,-0.3200000000000003,rigatoni and sauce,1209,1210,1209.8000000715256,True,i,37984.90000009537,1720.4000000953674,1669833362532,1720,HRV,HRV_0210,2022-11-30 18:40:44
16,"[{'imgObject': {}, 'id': 'baked potato', 'src': '/static/foodstim60/baked potato.jpg', 'key': 'u', 'origWidth': 409, 'origHeight': 410, 'width': 409, 'height': 410, 'widthPercent': 0.45, 'rescaleHeight': False, 'trialN': 16, 'loaded': True, 'loadedTime': 7021.600000023842, 'positionName': 'LEFT', 'positionCoords': [246.68, 179], 'bid': 3.87}, {'imgObject': {}, 'id': 'froot loops w milk', 'src': '/static/foodstim60/froot loops w milk.jpg', 'key': 'i', 'origWidth': 410, 'origHeight': 410, 'width': 410, 'height': 410, 'widthPercent': 0.45, 'rescaleHeight': False, 'trialN': 16, 'loaded': True, 'loadedTime': 6745.400000095367, 'positionName': 'RIGHT', 'positionCoords': [710.32, 179], 'bid': 3.52}]",37985.200000047684,1669833362533,baked potato,froot loops w milk,3.87,3.52,-0.3500000000000001,baked potato,1054.2999999523163,1055,1054.8999999761581,True,u,39555.90000009537,1570.7000000476837,1669833364103,1570,HRV,HRV_0210,2022-11-30 18:40:44
17,"[{'imgObject': {}, 'id': 'blueberries', 'src': '/static/foodstim60/blueberries.jpg', 'key': 'u', 'origWidth': 411, 'origHeight': 411, 'width': 411, 'height': 411, 'widthPercent': 0.45, 'rescaleHeight': False, 'trialN': 17, 'loaded': True, 'loadedTime': 6348.400000095367, 'positionName': 'LEFT', 'positionCoords': [244.68, 178.5], 'bid': 9.05}, {'imgObject': {}, 'id': 'yogurt no spoon', 'src': '/static/foodstim60/yogurt no spoon.jpg', 'key': 'i', 'origWidth': 411, 'origHeight': 410, 'width': 411, 'height': 410, 'widthPercent': 0.45, 'rescaleHeight': False, 'trialN': 17, 'loaded': True, 'loadedTime': 7030.100000023842, 'positionName': 'RIGHT', 'positionCoords': [710.32, 179], 'bid': 6.46}]",39556.200000047684,1669833364104,blueberries,yogurt no spoon,9.05,6.46,-2.5900000000000007,blueberries,1001.1000000238419,1021,1021.7000000476837,True,u,41112.40000009537,1556.2000000476837,1669833365660,1556,HRV,HRV_0210,2022-11-30 18:40:44
18,"[{'imgObject': {}, 'id': 'sushi w_condiments', 'src': '/static/foodstim60/sushi w_condiments.jpg', 'key': 'u', 'origWidth': 410, 'origHeight': 410, 'width': 410, 'height': 410, 'widthPercent': 0.45, 'rescaleHeight': False, 'trialN': 18, 'loaded': True, 'loadedTime': 7031.200000047684, 'positionName': 'LEFT', 'positionCoords': [245.68, 179], 'bid': 5.83}, {'imgObject': {}, 'id': 'blackbeanswithrice', 'src': '/static/foodstim60/blackbeanswithrice.jpg', 'key': 'i', 'origWidth': 410, 'origHeight': 410, 'width': 410, 'height': 410, 'widthPercent': 0.45, 'rescaleHeight': False, 'trialN': 18, 'loaded': True, 'loadedTime': 5585.600000023842, 'positionName': 'RIGHT', 'positionCoords': [710.32, 179], 'bid': 5.68}]",41112.60000002384,1669833365660,sushi w_condiments,blackbeanswithrice,5.83,5.68,-0.15000000000000036,sushi w_condiments,2072.399999976158,2073,2073.0,True,u,43707.300000071526,2594.7000000476837,1669833368255,2595,HRV,HRV_0210,2022-11-30 18:40:44
19,"[{'imgObject': {}, 'id': 'Tribe humus pita', 'src': '/static/foodstim60/Tribe humus pita.jpg', 'key': 'u', 'origWidth': 411, 'origHeight': 411, 'width': 411, 'height': 411, 'widthPercent': 0.45, 'rescaleHeight': False, 'trialN': 19, 'loaded': True, 'loadedTime': 6775.300000071526, 'positionName': 'LEFT', 'positionCoords': [244.68, 178.5], 'bid': 5.84}, {'imgObject': {}, 'id': 'sushi w_condiments', 'src': '/static/foodstim60/sushi w_condiments.jpg', 'key': 'i', 'origWidth': 410, 'origHeight': 410, 'width': 410, 'height': 410, 'widthPercent': 0.45, 'rescaleHeight': False, 'trialN': 19, 'loaded': True, 'loadedTime': 7132.200000047684, 'positionName': 'RIGHT', 'positionCoords': [710.32, 179], 'bid': 5.83}]",43707.700000047684,1669833368255,Tribe humus pita,sushi w_condiments,5.84,5.83,-0.009999999999999787,Tribe humus pita,957.8999999761581,959,958.5,True,u,45181.700000047684,1474.0,1669833369729,1474,HRV,HRV_0210,2022-11-30 18:40:44
20,"[{'imgObject': {}, 'id': 'banana', 'src': '/static/foodstim60/banana.jpg', 'key': 'u', 'origWidth': 410, 'origHeight': 410, 'width': 410, 'height': 410, 'widthPercent': 0.45, 'rescaleHeight': False, 'trialN': 20, 'loaded': True, 'loadedTime': 5980, 'positionName': 'LEFT', 'positionCoords': [245.68, 179], 'bid': 5.29}, {'imgObject': {}, 'id': 'Grapes', 'src': '/static/foodstim60/Grapes.jpg', 'key': 'i', 'origWidth': 411, 'origHeight': 411, 'width': 411, 'height': 411, 'widthPercent': 0.45, 'rescaleHeight': False, 'trialN': 20, 'loaded': True, 'loadedTime': 7214.300000071526, 'positionName': 'RIGHT', 'positionCoords': [710.32, 178.5], 'bid': 7.5}]",45182.200000047684,1669833369730,banana,Grapes,5.29,7.5,2.21,banana,1966.1000000238419,1966,1966.7000000476837,True,u,47670.200000047684,2488.0,1669833372218,2488,HRV,HRV_0210,2022-11-30 18:40:44
21,"[{'imgObject': {}, 'id': 'apple slices', 'src': '/static/foodstim60/apple slices.jpg', 'key': 'u', 'origWidth': 409, 'origHeight': 410, 'width': 409, 'height': 410, 'widthPercent': 0.45, 'rescaleHeight': False, 'trialN': 21, 'loaded': True, 'loadedTime': 5636.900000095367, 'positionName': 'LEFT', 'positionCoords': [246.68, 179], 'bid': 9.02}, {'imgObject': {}, 'id': 'blueberries', 'src': '/static/foodstim60/blueberries.jpg', 'key': 'i', 'origWidth': 411, 'origHeight': 411, 'width': 411, 'height': 411, 'widthPercent': 0.45, 'rescaleHeight': False, 'trialN': 21, 'loaded': True, 'loadedTime': 6361.600000023842, 'positionName': 'RIGHT', 'positionCoords': [710.32, 178.5], 'bid': 9.05}]",47670.60000002384,1669833372218,apple slices,blueberries,9.02,9.05,0.030000000000001137,blueberries,1584.6000000238419,1585,1585.3000000715256,True,i,49805.5,2134.899999976158,1669833374353,2135,HRV,HRV_0210,2022-11-30 18:40:44
22,"[{'imgObject': {}, 'id': 'fruitsalad', 'src': '/static/foodstim60/fruitsalad.jpg', 'key': 'u', 'origWidth': 410, 'origHeight': 410, 'width': 410, 'height': 410, 'widthPercent': 0.45, 'rescaleHeight': False, 'trialN': 22, 'loaded': True, 'loadedTime': 7222.300000071526, 'positionName': 'LEFT', 'positionCoords': [245.68, 179], 'bid': 9.28}, {'imgObject': {}, 'id': 'strawberries', 'src': '/static/foodstim60/strawberries.jpg', 'key': 'i', 'origWidth': 410, 'origHeight': 410, 'width': 410, 'height': 410, 'widthPercent': 0.45, 'rescaleHeight': False, 'trialN': 22, 'loaded': True, 'loadedTime': 7318.300000071526, 'positionName': 'RIGHT', 'positionCoords': [710.32, 179], 'bid': 9.61}]",49805.700000047684,1669833374353,fruitsalad,strawberries,9.28,9.61,0.33000000000000007,fruitsalad,1508.7000000476837,1509,1509.2999999523163,True,u,51826.10000002384,2020.3999999761581,1669833376374,2021,HRV,HRV_0210,2022-11-30 18:40:44
23,"[{'imgObject': {}, 'id': 'chicken nuggets2', 'src': '/static/foodstim60/chicken nuggets2.jpg', 'key': 'u', 'origWidth': 410, 'origHeight': 409, 'width': 410, 'height': 409, 'widthPercent': 0.45, 'rescaleHeight': False, 'trialN': 23, 'loaded': True, 'loadedTime': 7269.900000095367, 'positionName': 'LEFT', 'positionCoords': [245.68, 179.5], 'bid': 5.64}, {'imgObject': {}, 'id': 'kiwi', 'src': '/static/foodstim60/kiwi.jpg', 'key': 'i', 'origWidth': 410, 'origHeight': 410, 'width': 410, 'height': 410, 'widthPercent': 0.45, 'rescaleHeight': False, 'trialN': 23, 'loaded': True, 'loadedTime': 7331.800000071526, 'positionName': 'RIGHT', 'positionCoords': [710.32, 179], 'bid': 8.33}]",51826.5,1669833376374,chicken nuggets2,kiwi,5.64,8.33,2.6900000000000004,kiwi,991,992,991.6000000238419,True,i,53330.700000047684,1504.2000000476837,1669833377878,1504,HRV,HRV_0210,2022-11-30 18:40:44
24,"[{'imgObject': {}, 'id': 'granola w milk', 'src': '/static/foodstim60/granola w milk.jpg', 'key': 'u', 'origWidth': 410, 'origHeight': 410, 'width': 410, 'height': 410, 'widthPercent': 0.45, 'rescaleHeight': False, 'trialN': 24, 'loaded': True, 'loadedTime': 6731.400000095367, 'positionName': 'LEFT', 'positionCoords': [245.68, 179], 'bid': 3.96}, {'imgObject': {}, 'id': 'raisin bran w milk', 'src': '/static/foodstim60/raisin bran w milk.jpg', 'key': 'i', 'origWidth': 411, 'origHeight': 411, 'width': 411, 'height': 411, 'widthPercent': 0.45, 'rescaleHeight': False, 'trialN': 24, 'loaded': True, 'loadedTime': 7337.700000047684, 'positionName': 'RIGHT', 'positionCoords': [710.32, 178.5], 'bid': 5.45}]",53331.10000002384,1669833377879,granola w milk,raisin bran w milk,3.96,5.45,1.4900000000000002,raisin bran w milk,1086.8999999761581,1087,1087.6000000238419,True,i,54938.5,1607.3999999761581,1669833379486,1607,HRV,HRV_0210,2022-11-30 18:40:44
25,"[{'imgObject': {}, 'id': 'lox', 'src': '/static/foodstim60/lox.jpg', 'key': 'u', 'origWidth': 410, 'origHeight': 411, 'width': 410, 'height': 411, 'widthPercent': 0.45, 'rescaleHeight': False, 'trialN': 25, 'loaded': True, 'loadedTime': 7360.800000071526, 'positionName': 'LEFT', 'positionCoords': [245.68, 178.5], 'bid': 4.73}, {'imgObject': {}, 'id': 'shreddedwheatwithmilk', 'src': '/static/foodstim60/shreddedwheatwithmilk.jpg', 'key': 'i', 'origWidth': 410, 'origHeight': 410, 'width': 410, 'height': 410, 'widthPercent': 0.45, 'rescaleHeight': False, 'trialN': 25, 'loaded': True, 'loadedTime': 7373.100000023842, 'positionName': 'RIGHT', 'positionCoords': [710.32, 179], 'bid': 2.78}]",54938.90000009537,1669833379486,lox,shreddedwheatwithmilk,4.73,2.78,-1.9500000000000006,shreddedwheatwithmilk,1406.1999999284744,1407,1406.7999999523163,True,i,56857.5,1918.5999999046326,1669833381405,1919,HRV,HRV_0210,2022-11-30 18:40:44
26,"[{'imgObject': {}, 'id': 'cheerios', 'src': '/static/foodstim60/cheerios.jpg', 'key': 'u', 'origWidth': 409, 'origHeight': 410, 'width': 409, 'height': 410, 'widthPercent': 0.45, 'rescaleHeight': False, 'trialN': 26, 'loaded': True, 'loadedTime': 6170.200000047684, 'positionName': 'LEFT', 'positionCoords': [246.68, 179], 'bid': 5.46}, {'imgObject': {}, 'id': 'popsicles', 'src': '/static/foodstim60/popsicles.jpg', 'key': 'i', 'origWidth': 410, 'origHeight': 410, 'width': 410, 'height': 410, 'widthPercent': 0.45, 'rescaleHeight': False, 'trialN': 26, 'loaded': True, 'loadedTime': 8084.600000023842, 'positionName': 'RIGHT', 'positionCoords': [710.32, 179], 'bid': 4.23}]",56857.60000002384,1669833381405,cheerios,popsicles,5.46,4.23,-1.2299999999999995,popsicles,1240.5,1241,1241.1000000238419,True,i,58659.40000009537,1801.8000000715256,1669833383207,1802,HRV,HRV_0210,2022-11-30 18:40:44
27,"[{'imgObject': {}, 'id': 'orange slices', 'src': '/static/foodstim60/orange slices.jpg', 'key': 'u', 'origWidth': 409, 'origHeight': 410, 'width': 409, 'height': 410, 'widthPercent': 0.45, 'rescaleHeight': False, 'trialN': 27, 'loaded': True, 'loadedTime': 7394.800000071526, 'positionName': 'LEFT', 'positionCoords': [246.68, 179], 'bid': 9.93}, {'imgObject': {}, 'id': 'kiwi', 'src': '/static/foodstim60/kiwi.jpg', 'key': 'i', 'origWidth': 410, 'origHeight': 410, 'width': 410, 'height': 410, 'widthPercent': 0.45, 'rescaleHeight': False, 'trialN': 27, 'loaded': True, 'loadedTime': 7336.700000047684, 'positionName': 'RIGHT', 'positionCoords': [710.32, 179], 'bid': 8.33}]",58659.700000047684,1669833383207,orange slices,kiwi,9.93,8.33,-1.5999999999999996,orange slices,1035.6000000238419,1036,1036.1000000238419,True,u,60204.700000047684,1545.0,1669833384752,1545,HRV,HRV_0210,2022-11-30 18:40:44
28,"[{'imgObject': {}, 'id': 'cheerios', 'src': '/static/foodstim60/cheerios.jpg', 'key': 'u', 'origWidth': 409, 'origHeight': 410, 'width': 409, 'height': 410, 'widthPercent': 0.45, 'rescaleHeight': False, 'trialN': 28, 'loaded': True, 'loadedTime': 6161.5, 'positionName': 'LEFT', 'positionCoords': [246.68, 179], 'bid': 5.46}, {'imgObject': {}, 'id': 'cocktailshrimp', 'src': '/static/foodstim60/cocktailshrimp.jpg', 'key': 'i', 'origWidth': 410, 'origHeight': 410, 'width': 410, 'height': 410, 'widthPercent': 0.45, 'rescaleHeight': False, 'trialN': 28, 'loaded': True, 'loadedTime': 6964.400000095367, 'positionName': 'RIGHT', 'positionCoords': [710.32, 179], 'bid': 5.49}]",60205.10000002384,1669833384753,cheerios,cocktailshrimp,5.46,5.49,0.03000000000000025,cocktailshrimp,1948.5,1949,1949.1000000238419,True,i,62660.5,2455.399999976158,1669833387208,2455,HRV,HRV_0210,2022-11-30 18:40:44
29,"[{'imgObject': {}, 'id': 'Grapes', 'src': '/static/foodstim60/Grapes.jpg', 'key': 'u', 'origWidth': 411, 'origHeight': 411, 'width': 411, 'height': 411, 'widthPercent': 0.45, 'rescaleHeight': False, 'trialN': 29, 'loaded': True, 'loadedTime': 7216.100000023842, 'positionName': 'LEFT', 'positionCoords': [244.68, 178.5], 'bid': 7.5}, {'imgObject': {}, 'id': 'fruitsalad', 'src': '/static/foodstim60/fruitsalad.jpg', 'key': 'i', 'origWidth': 410, 'origHeight': 410, 'width': 410, 'height': 410, 'widthPercent': 0.45, 'rescaleHeight': False, 'trialN': 29, 'loaded': True, 'loadedTime': 7221.200000047684, 'positionName': 'RIGHT', 'positionCoords': [710.32, 179], 'bid': 9.28}]",62661.10000002384,1669833387209,Grapes,fruitsalad,7.5,9.28,1.7799999999999994,Grapes,2071.7000000476837,2072,2072.399999976158,True,u,65242.5,2581.399999976158,1669833389790,2581,HRV,HRV_0210,2022-11-30 18:40:44
30,"[{'imgObject': {}, 'id': 'burger', 'src': '/static/foodstim60/burger.jpg', 'key': 'u', 'origWidth': 409, 'origHeight': 409, 'width': 409, 'height': 409, 'widthPercent': 0.45, 'rescaleHeight': False, 'trialN': 30, 'loaded': True, 'loadedTime': 7441.100000023842, 'positionName': 'LEFT', 'positionCoords': [246.68, 179.5], 'bid': 7.94}, {'imgObject': {}, 'id': 'cherry tomato', 'src': '/static/foodstim60/cherry tomato.jpg', 'key': 'i', 'origWidth': 410, 'origHeight': 410, 'width': 410, 'height': 410, 'widthPercent': 0.45, 'rescaleHeight': False, 'trialN': 30, 'loaded': True, 'loadedTime': 7441.5, 'positionName': 'RIGHT', 'positionCoords': [710.32, 179], 'bid': 7.97}]",65243.0,1669833389790,burger,cherry tomato,7.94,7.97,0.02999999999999936,cherry tomato,1089.4000000953674,1092,1090.1000000238419,True,i,66881.70000004768,1638.7000000476837,1669833391429,1639,HRV,HRV_0210,2022-11-30 18:40:44
31,"[{'imgObject': {}, 'id': 'ice cream sundae 002', 'src': '/static/foodstim60/ice cream sundae 002.jpg', 'key': 'u', 'origWidth': 409, 'origHeight': 409, 'width': 409, 'height': 409, 'widthPercent': 0.45, 'rescaleHeight': False, 'trialN': 31, 'loaded': True, 'loadedTime': 7500.700000047684, 'positionName': 'LEFT', 'positionCoords': [246.68, 179.5], 'bid': 7.76}, {'imgObject': {}, 'id': 'Grapes', 'src': '/static/foodstim60/Grapes.jpg', 'key': 'i', 'origWidth': 411, 'origHeight': 411, 'width': 411, 'height': 411, 'widthPercent': 0.45, 'rescaleHeight': False, 'trialN': 31, 'loaded': True, 'loadedTime': 7218.200000047684, 'positionName': 'RIGHT', 'positionCoords': [710.32, 178.5], 'bid': 7.5}]",66882.20000004768,1669833391430,ice cream sundae 002,Grapes,7.76,7.5,-0.2599999999999998,Grapes,936.5,939,939.0,True,i,68338.60000002384,1456.3999999761581,1669833392886,1456,HRV,HRV_0210,2022-11-30 18:40:44
32,"[{'imgObject': {}, 'id': 'hashbrowns', 'src': '/static/foodstim60/hashbrowns.jpg', 'key': 'u', 'origWidth': 411, 'origHeight': 410, 'width': 411, 'height': 410, 'widthPercent': 0.45, 'rescaleHeight': False, 'trialN': 32, 'loaded': True, 'loadedTime': 6291.5, 'positionName': 'LEFT', 'positionCoords': [244.68, 179], 'bid': 5.79}, {'imgObject': {}, 'id': 'salad w chicken', 'src': '/static/foodstim60/salad w chicken.jpg', 'key': 'i', 'origWidth': 411, 'origHeight': 411, 'width': 411, 'height': 411, 'widthPercent': 0.45, 'rescaleHeight': False, 'trialN': 32, 'loaded': True, 'loadedTime': 7510.5, 'positionName': 'RIGHT', 'positionCoords': [710.32, 178.5], 'bid': 4.53}]",68338.90000009537,1669833392886,hashbrowns,salad w chicken,5.79,4.53,-1.2599999999999998,salad w chicken,910.2999999523163,912,911.0999999046326,True,i,69764.70000004768,1425.7999999523163,1669833394312,1426,HRV,HRV_0210,2022-11-30 18:40:44
33,"[{'imgObject': {}, 'id': 'baked potato', 'src': '/static/foodstim60/baked potato.jpg', 'key': 'u', 'origWidth': 409, 'origHeight': 410, 'width': 409, 'height': 410, 'widthPercent': 0.45, 'rescaleHeight': False, 'trialN': 33, 'loaded': True, 'loadedTime': 7023.400000095367, 'positionName': 'LEFT', 'positionCoords': [246.68, 179], 'bid': 3.87}, {'imgObject': {}, 'id': 'steak', 'src': '/static/foodstim60/steak.jpg', 'key': 'i', 'origWidth': 410, 'origHeight': 410, 'width': 410, 'height': 410, 'widthPercent': 0.45, 'rescaleHeight': False, 'trialN': 33, 'loaded': True, 'loadedTime': 7512.400000095367, 'positionName': 'RIGHT', 'positionCoords': [710.32, 179], 'bid': 4.97}]",69765.0,1669833394312,baked potato,steak,3.87,4.97,1.0999999999999996,steak,1353.1000000238419,1354,1353.8000000715256,True,i,71638.0,1873.0,1669833396185,1873,HRV,HRV_0210,2022-11-30 18:40:44
34,"[{'imgObject': {}, 'id': 'burger', 'src': '/static/foodstim60/burger.jpg', 'key': 'u', 'origWidth': 409, 'origHeight': 409, 'width': 409, 'height': 409, 'widthPercent': 0.45, 'rescaleHeight': False, 'trialN': 34, 'loaded': True, 'loadedTime': 7440.300000071526, 'positionName': 'LEFT', 'positionCoords': [246.68, 179.5], 'bid': 7.94}, {'imgObject': {}, 'id': 'luckycharms', 'src': '/static/foodstim60/luckycharms.jpg', 'key': 'i', 'origWidth': 410, 'origHeight': 409, 'width': 410, 'height': 409, 'widthPercent': 0.45, 'rescaleHeight': False, 'trialN': 34, 'loaded': True, 'loadedTime': 6030.300000071526, 'positionName': 'RIGHT', 'positionCoords': [710.32, 179.5], 'bid': 5.38}]",71638.20000004768,1669833396186,burger,luckycharms,7.94,5.38,-2.5600000000000005,burger,963.5,964,964.1000000238419,True,u,73120.40000009537,1482.2000000476837,1669833397668,1482,HRV,HRV_0210,2022-11-30 18:40:44
35,"[{'imgObject': {}, 'id': 'turkey sandwich', 'src': '/static/foodstim60/turkey sandwich.jpg', 'key': 'u', 'origWidth': 409, 'origHeight': 409, 'width': 409, 'height': 409, 'widthPercent': 0.45, 'rescaleHeight': False, 'trialN': 35, 'loaded': True, 'loadedTime': 7514, 'positionName': 'LEFT', 'positionCoords': [246.68, 179.5], 'bid': 8.3}, {'imgObject': {}, 'id': 'corn cob', 'src': '/static/foodstim60/corn cob.jpg', 'key': 'i', 'origWidth': 411, 'origHeight': 411, 'width': 411, 'height': 411, 'widthPercent': 0.45, 'rescaleHeight': False, 'trialN': 35, 'loaded': True, 'loadedTime': 7598.200000047684, 'positionName': 'RIGHT', 'positionCoords': [710.32, 178.5], 'bid': 9.72}]",73120.70000004768,1669833397668,turkey sandwich,corn cob,8.3,9.72,1.42,corn cob,928.3999999761581,929,929.2000000476837,True,i,74565.20000004768,1444.5,1669833399113,1445,HRV,HRV_0210,2022-11-30 18:40:44
36,"[{'imgObject': {}, 'id': 'baked potato', 'src': '/static/foodstim60/baked potato.jpg', 'key': 'u', 'origWidth': 409, 'origHeight': 410, 'width': 409, 'height': 410, 'widthPercent': 0.45, 'rescaleHeight': False, 'trialN': 36, 'loaded': True, 'loadedTime': 7012.600000023842, 'positionName': 'LEFT', 'positionCoords': [246.68, 179], 'bid': 3.87}, {'imgObject': {}, 'id': 'shreddedwheatwithmilk', 'src': '/static/foodstim60/shreddedwheatwithmilk.jpg', 'key': 'i', 'origWidth': 410, 'origHeight': 410, 'width': 410, 'height': 410, 'widthPercent': 0.45, 'rescaleHeight': False, 'trialN': 36, 'loaded': True, 'loadedTime': 7393.800000071526, 'positionName': 'RIGHT', 'positionCoords': [710.32, 179], 'bid': 2.78}]",74565.5,1669833399113,baked potato,shreddedwheatwithmilk,3.87,2.78,-1.0900000000000003,baked potato,1495.8000000715256,1497,1496.9000000953674,True,u,76570.30000007153,2004.8000000715256,1669833401118,2005,HRV,HRV_0210,2022-11-30 18:40:44
37,"[{'imgObject': {}, 'id': 'tacos', 'src': '/static/foodstim60/tacos.jpg', 'key': 'u', 'origWidth': 411, 'origHeight': 411, 'width': 411, 'height': 411, 'widthPercent': 0.45, 'rescaleHeight': False, 'trialN': 37, 'loaded': True, 'loadedTime': 6943.200000047684, 'positionName': 'LEFT', 'positionCoords': [244.68, 178.5], 'bid': 4.41}, {'imgObject': {}, 'id': 'raisin bran w milk', 'src': '/static/foodstim60/raisin bran w milk.jpg', 'key': 'i', 'origWidth': 411, 'origHeight': 411, 'width': 411, 'height': 411, 'widthPercent': 0.45, 'rescaleHeight': False, 'trialN': 37, 'loaded': True, 'loadedTime': 7356.400000095367, 'positionName': 'RIGHT', 'positionCoords': [710.32, 178.5], 'bid': 5.45}]",76570.70000004768,1669833401118,tacos,raisin bran w milk,4.41,5.45,1.04,tacos,1164.1000000238419,1165,1165.2000000476837,True,u,78256.20000004768,1685.5,1669833402804,1686,HRV,HRV_0210,2022-11-30 18:40:44
38,"[{'imgObject': {}, 'id': 'roastedpotatoes', 'src': '/static/foodstim60/roastedpotatoes.jpg', 'key': 'u', 'origWidth': 409, 'origHeight': 410, 'width': 409, 'height': 410, 'widthPercent': 0.45, 'rescaleHeight': False, 'trialN': 38, 'loaded': True, 'loadedTime': 7598.700000047684, 'positionName': 'LEFT', 'positionCoords': [246.68, 179], 'bid': 6.08}, {'imgObject': {}, 'id': 'bagel and cc', 'src': '/static/foodstim60/bagel and cc.jpg', 'key': 'i', 'origWidth': 410, 'origHeight': 410, 'width': 410, 'height': 410, 'widthPercent': 0.45, 'rescaleHeight': False, 'trialN': 38, 'loaded': True, 'loadedTime': 7609, 'positionName': 'RIGHT', 'positionCoords': [710.32, 179], 'bid': 6.15}]",78256.40000009537,1669833402804,roastedpotatoes,bagel and cc,6.08,6.15,0.07000000000000028,bagel and cc,1140.0999999046326,1141,1140.6999999284744,True,i,79912.5,1656.0999999046326,1669833404460,1656,HRV,HRV_0210,2022-11-30 18:40:44
39,"[{'imgObject': {}, 'id': 'banana', 'src': '/static/foodstim60/banana.jpg', 'key': 'u', 'origWidth': 410, 'origHeight': 410, 'width': 410, 'height': 410, 'widthPercent': 0.45, 'rescaleHeight': False, 'trialN': 39, 'loaded': True, 'loadedTime': 5972.200000047684, 'positionName': 'LEFT', 'positionCoords': [245.68, 179], 'bid': 5.29}, {'imgObject': {}, 'id': 'veggieswithdip', 'src': '/static/foodstim60/veggieswithdip.jpg', 'key': 'i', 'origWidth': 409, 'origHeight': 409, 'width': 409, 'height': 409, 'widthPercent': 0.45, 'rescaleHeight': False, 'trialN': 39, 'loaded': True, 'loadedTime': 7628.5, 'positionName': 'RIGHT', 'positionCoords': [710.32, 179.5], 'bid': 5.5200000000000005}]",79912.90000009537,1669833404460,banana,veggieswithdip,5.29,5.5200000000000005,0.23000000000000043,banana,1241.2999999523163,1242,1241.8999999761581,True,u,81664.0,1751.0999999046326,1669833406211,1751,HRV,HRV_0210,2022-11-30 18:40:44
40,"[{'imgObject': {}, 'id': 'roastedpotatoes', 'src': '/static/foodstim60/roastedpotatoes.jpg', 'key': 'u', 'origWidth': 409, 'origHeight': 410, 'width': 409, 'height': 410, 'widthPercent': 0.45, 'rescaleHeight': False, 'trialN': 40, 'loaded': True, 'loadedTime': 7602.5, 'positionName': 'LEFT', 'positionCoords': [246.68, 179], 'bid': 6.08}, {'imgObject': {}, 'id': 'chickenfingers', 'src': '/static/foodstim60/chickenfingers.jpg', 'key': 'i', 'origWidth': 410, 'origHeight': 410, 'width': 410, 'height': 410, 'widthPercent': 0.45, 'rescaleHeight': False, 'trialN': 40, 'loaded': True, 'loadedTime': 6617.400000095367, 'positionName': 'RIGHT', 'positionCoords': [710.32, 179], 'bid': 6.11}]",81664.20000004768,1669833406212,roastedpotatoes,chickenfingers,6.08,6.11,0.03000000000000025,chickenfingers,1136.3999999761581,1138,1138.3999999761581,True,i,83321.5,1657.2999999523163,1669833407869,1657,HRV,HRV_0210,2022-11-30 18:40:44
41,"[{'imgObject': {}, 'id': 'turkeysandwich', 'src': '/static/foodstim60/turkeysandwich.jpg', 'key': 'u', 'origWidth': 409, 'origHeight': 409, 'width': 409, 'height': 409, 'widthPercent': 0.45, 'rescaleHeight': False, 'trialN': 41, 'loaded': True, 'loadedTime': 7629.700000047684, 'positionName': 'LEFT', 'positionCoords': [246.68, 179.5], 'bid': 7.28}, {'imgObject': {}, 'id': 'Grapes', 'src': '/static/foodstim60/Grapes.jpg', 'key': 'i', 'origWidth': 411, 'origHeight': 411, 'width': 411, 'height': 411, 'widthPercent': 0.45, 'rescaleHeight': False, 'trialN': 41, 'loaded': True, 'loadedTime': 7217.700000047684, 'positionName': 'RIGHT', 'positionCoords': [710.32, 178.5], 'bid': 7.5}]",83321.90000009537,1669833407869,turkeysandwich,Grapes,7.28,7.5,0.21999999999999975,Grapes,1043.7999999523163,1045,1044.6999999284744,True,i,84872.40000009537,1550.5,1669833409420,1551,HRV,HRV_0210,2022-11-30 18:40:44
42,"[{'imgObject': {}, 'id': 'burrito', 'src': '/static/foodstim60/burrito.jpg', 'key': 'u', 'origWidth': 410, 'origHeight': 410, 'width': 410, 'height': 410, 'widthPercent': 0.45, 'rescaleHeight': False, 'trialN': 42, 'loaded': True, 'loadedTime': 7647.800000071526, 'positionName': 'LEFT', 'positionCoords': [245.68, 179], 'bid': 6.2}, {'imgObject': {}, 'id': 'cherries', 'src': '/static/foodstim60/cherries.jpg', 'key': 'i', 'origWidth': 410, 'origHeight': 411, 'width': 410, 'height': 411, 'widthPercent': 0.45, 'rescaleHeight': False, 'trialN': 42, 'loaded': True, 'loadedTime': 6101.900000095367, 'positionName': 'RIGHT', 'positionCoords': [710.32, 178.5], 'bid': 8.16}]",84872.90000009537,1669833409420,burrito,cherries,6.2,8.16,1.96,cherries,900.5999999046326,902,901.1999999284744,True,i,86328.10000002384,1455.1999999284744,1669833410875,1455,HRV,HRV_0210,2022-11-30 18:40:44
43,"[{'imgObject': {}, 'id': 'cherries', 'src': '/static/foodstim60/cherries.jpg', 'key': 'u', 'origWidth': 410, 'origHeight': 411, 'width': 410, 'height': 411, 'widthPercent': 0.45, 'rescaleHeight': False, 'trialN': 43, 'loaded': True, 'loadedTime': 6102.700000047684, 'positionName': 'LEFT', 'positionCoords': [245.68, 178.5], 'bid': 8.16}, {'imgObject': {}, 'id': 'raspberries', 'src': '/static/foodstim60/raspberries.jpg', 'key': 'i', 'origWidth': 411, 'origHeight': 411, 'width': 411, 'height': 411, 'widthPercent': 0.45, 'rescaleHeight': False, 'trialN': 43, 'loaded': True, 'loadedTime': 7659.600000023842, 'positionName': 'RIGHT', 'positionCoords': [710.32, 178.5], 'bid': 8.22}]",86328.30000007153,1669833410876,cherries,raspberries,8.16,8.22,0.0600000000000005,raspberries,1024.1000000238419,1053,1053.1999999284744,True,i,87902.0,1573.6999999284744,1669833412449,1573,HRV,HRV_0210,2022-11-30 18:40:44
44,"[{'imgObject': {}, 'id': 'froot loops w milk', 'src': '/static/foodstim60/froot loops w milk.jpg', 'key': 'u', 'origWidth': 410, 'origHeight': 410, 'width': 410, 'height': 410, 'widthPercent': 0.45, 'rescaleHeight': False, 'trialN': 44, 'loaded': True, 'loadedTime': 6775, 'positionName': 'LEFT', 'positionCoords': [245.68, 179], 'bid': 3.52}, {'imgObject': {}, 'id': 'rigatoni', 'src': '/static/foodstim60/rigatoni.jpg', 'key': 'i', 'origWidth': 411, 'origHeight': 411, 'width': 411, 'height': 411, 'widthPercent': 0.45, 'rescaleHeight': False, 'trialN': 44, 'loaded': True, 'loadedTime': 7666.5, 'positionName': 'RIGHT', 'positionCoords': [710.32, 178.5], 'bid': 4.89}]",87902.40000009537,1669833412450,froot loops w milk,rigatoni,3.52,4.89,1.3699999999999997,rigatoni,1078.5,1079,1079.1999999284744,True,i,89484.0,1581.5999999046326,1669833414031,1581,HRV,HRV_0210,2022-11-30 18:40:44
45,"[{'imgObject': {}, 'id': 'sushi w_condiments', 'src': '/static/foodstim60/sushi w_condiments.jpg', 'key': 'u', 'origWidth': 410, 'origHeight': 410, 'width': 410, 'height': 410, 'widthPercent': 0.45, 'rescaleHeight': False, 'trialN': 45, 'loaded': True, 'loadedTime': 7035, 'positionName': 'LEFT', 'positionCoords': [245.68, 179], 'bid': 5.83}, {'imgObject': {}, 'id': 'fruitsalad', 'src': '/static/foodstim60/fruitsalad.jpg', 'key': 'i', 'origWidth': 410, 'origHeight': 410, 'width': 410, 'height': 410, 'widthPercent': 0.45, 'rescaleHeight': False, 'trialN': 45, 'loaded': True, 'loadedTime': 7221.400000095367, 'positionName': 'RIGHT', 'positionCoords': [710.32, 179], 'bid': 9.28}]",89486.40000009537,1669833414034,sushi w_condiments,fruitsalad,5.83,9.28,3.4499999999999993,fruitsalad,1208.7999999523163,1210,1210.5,True,i,91212.10000002384,1725.6999999284744,1669833415760,1726,HRV,HRV_0210,2022-11-30 18:40:44
46,"[{'imgObject': {}, 'id': 'raspberries', 'src': '/static/foodstim60/raspberries.jpg', 'key': 'u', 'origWidth': 411, 'origHeight': 411, 'width': 411, 'height': 411, 'widthPercent': 0.45, 'rescaleHeight': False, 'trialN': 46, 'loaded': True, 'loadedTime': 7657.800000071526, 'positionName': 'LEFT', 'positionCoords': [244.68, 178.5], 'bid': 8.22}, {'imgObject': {}, 'id': 'cherry tomato', 'src': '/static/foodstim60/cherry tomato.jpg', 'key': 'i', 'origWidth': 410, 'origHeight': 410, 'width': 410, 'height': 410, 'widthPercent': 0.45, 'rescaleHeight': False, 'trialN': 46, 'loaded': True, 'loadedTime': 7443.800000071526, 'positionName': 'RIGHT', 'positionCoords': [710.32, 179], 'bid': 7.97}]",91212.5,1669833415760,raspberries,cherry tomato,8.22,7.97,-0.2500000000000009,cherry tomato,699.3000000715256,700,699.8000000715256,True,i,92416.30000007153,1203.8000000715256,1669833416964,1204,HRV,HRV_0210,2022-11-30 18:40:44
47,"[{'imgObject': {}, 'id': 'Grapes', 'src': '/static/foodstim60/Grapes.jpg', 'key': 'u', 'origWidth': 411, 'origHeight': 411, 'width': 411, 'height': 411, 'widthPercent': 0.45, 'rescaleHeight': False, 'trialN': 47, 'loaded': True, 'loadedTime': 7215.800000071526, 'positionName': 'LEFT', 'positionCoords': [244.68, 178.5], 'bid': 7.5}, {'imgObject': {}, 'id': 'yogurt no spoon', 'src': '/static/foodstim60/yogurt no spoon.jpg', 'key': 'i', 'origWidth': 411, 'origHeight': 410, 'width': 411, 'height': 410, 'widthPercent': 0.45, 'rescaleHeight': False, 'trialN': 47, 'loaded': True, 'loadedTime': 7029.5, 'positionName': 'RIGHT', 'positionCoords': [710.32, 179], 'bid': 6.46}]",92416.5,1669833416964,Grapes,yogurt no spoon,7.5,6.46,-1.04,yogurt no spoon,2513.9000000953674,2514,2514.5,True,i,95441.30000007153,3024.8000000715256,1669833419989,3025,HRV,HRV_0210,2022-11-30 18:40:44
48,"[{'imgObject': {}, 'id': 'mashed potato', 'src': '/static/foodstim60/mashed potato.jpg', 'key': 'u', 'origWidth': 409, 'origHeight': 409, 'width': 409, 'height': 409, 'widthPercent': 0.45, 'rescaleHeight': False, 'trialN': 48, 'loaded': True, 'loadedTime': 6522.200000047684, 'positionName': 'LEFT', 'positionCoords': [246.68, 179.5], 'bid': 7.19}, {'imgObject': {}, 'id': 'corn cob', 'src': '/static/foodstim60/corn cob.jpg', 'key': 'i', 'origWidth': 411, 'origHeight': 411, 'width': 411, 'height': 411, 'widthPercent': 0.45, 'rescaleHeight': False, 'trialN': 48, 'loaded': True, 'loadedTime': 7598.600000023842, 'positionName': 'RIGHT', 'positionCoords': [710.32, 178.5], 'bid': 9.72}]",95441.60000002384,1669833419989,mashed potato,corn cob,7.19,9.72,2.5300000000000002,NaN,NaN,NaN,,False,NaN,99483.0,4041.399999976158,1669833424044,4055,HRV,HRV_0210,2022-11-30 18:40:44
49,"[{'imgObject': {}, 'id': 'lox', 'src': '/static/foodstim60/lox.jpg', 'key': 'u', 'origWidth': 410, 'origHeight': 411, 'width': 410, 'height': 411, 'widthPercent': 0.45, 'rescaleHeight': False, 'trialN': 49, 'loaded': True, 'loadedTime': 7370.400000095367, 'positionName': 'LEFT', 'positionCoords': [245.68, 178.5], 'bid': 4.73}, {'imgObject': {}, 'id': 'olives', 'src': '/static/foodstim60/olives.jpg', 'key': 'i', 'origWidth': 410, 'origHeight': 410, 'width': 410, 'height': 410, 'widthPercent': 0.45, 'rescaleHeight': False, 'trialN': 49, 'loaded': True, 'loadedTime': 6465.200000047684, 'positionName': 'RIGHT', 'positionCoords': [710.32, 179], 'bid': 6.8100000000000005}]",99483.80000007153,1669833424045,lox,olives,4.73,6.8100000000000005,2.08,olives,216.29999995231628,217,216.89999997615814,True,i,100213.0,729.1999999284744,1669833424774,729,HRV,HRV_0210,2022-11-30 18:40:44
50,"[{'imgObject': {}, 'id': 'raspberries', 'src': '/static/foodstim60/raspberries.jpg', 'key': 'u', 'origWidth': 411, 'origHeight': 411, 'width': 411, 'height': 411, 'widthPercent': 0.45, 'rescaleHeight': False, 'trialN': 50, 'loaded': True, 'loadedTime': 7649.600000023842, 'positionName': 'LEFT', 'positionCoords': [244.68, 178.5], 'bid': 8.22}, {'imgObject': {}, 'id': 'eggsalad', 'src': '/static/foodstim60/eggsalad.jpg', 'key': 'i', 'origWidth': 410, 'origHeight': 409, 'width': 410, 'height': 409, 'widthPercent': 0.45, 'rescaleHeight': False, 'trialN': 50, 'loaded': True, 'loadedTime': 7719, 'positionName': 'RIGHT', 'positionCoords': [710.32, 179.5], 'bid': 6.33}]",100213.40000009537,1669833424775,raspberries,eggsalad,8.22,6.33,-1.8900000000000006,eggsalad,1375.5,1377,1377.3999999761581,True,i,102101.90000009537,1888.5,1669833426663,1888,HRV,HRV_0210,2022-11-30 18:40:44
51,"[{'imgObject': {}, 'id': 'turkeysandwich', 'src': '/static/foodstim60/turkeysandwich.jpg', 'key': 'u', 'origWidth': 409, 'origHeight': 409, 'width': 409, 'height': 409, 'widthPercent': 0.45, 'rescaleHeight': False, 'trialN': 51, 'loaded': True, 'loadedTime': 7630.900000095367, 'positionName': 'LEFT', 'positionCoords': [246.68, 179.5], 'bid': 7.28}, {'imgObject': {}, 'id': 'orange slices', 'src': '/static/foodstim60/orange slices.jpg', 'key': 'i', 'origWidth': 409, 'origHeight': 410, 'width': 409, 'height': 410, 'widthPercent': 0.45, 'rescaleHeight': False, 'trialN': 51, 'loaded': True, 'loadedTime': 7396.5, 'positionName': 'RIGHT', 'positionCoords': [710.32, 179], 'bid': 9.93}]",102102.30000007153,1669833426664,turkeysandwich,orange slices,7.28,9.93,2.6499999999999995,orange slices,793.6000000238419,794,794.2999999523163,True,i,103405.70000004768,1303.3999999761581,1669833427967,1303,HRV,HRV_0210,2022-11-30 18:40:44
52,"[{'imgObject': {}, 'id': 'chickenfingers', 'src': '/static/foodstim60/chickenfingers.jpg', 'key': 'u', 'origWidth': 410, 'origHeight': 410, 'width': 410, 'height': 410, 'widthPercent': 0.45, 'rescaleHeight': False, 'trialN': 52, 'loaded': True, 'loadedTime': 6523.400000095367, 'positionName': 'LEFT', 'positionCoords': [245.68, 179], 'bid': 6.11}, {'imgObject': {}, 'id': 'burrito', 'src': '/static/foodstim60/burrito.jpg', 'key': 'i', 'origWidth': 410, 'origHeight': 410, 'width': 410, 'height': 410, 'widthPercent': 0.45, 'rescaleHeight': False, 'trialN': 52, 'loaded': True, 'loadedTime': 7641.800000071526, 'positionName': 'RIGHT', 'positionCoords': [710.32, 179], 'bid': 6.2}]",103406.10000002384,1669833427967,chickenfingers,burrito,6.11,6.2,0.08999999999999986,burrito,1403,1404,1404.2000000476837,True,i,105326.30000007153,1920.2000000476837,1669833429888,1921,HRV,HRV_0210,2022-11-30 18:40:44
53,"[{'imgObject': {}, 'id': 'Tribe humus pita', 'src': '/static/foodstim60/Tribe humus pita.jpg', 'key': 'u', 'origWidth': 411, 'origHeight': 411, 'width': 411, 'height': 411, 'widthPercent': 0.45, 'rescaleHeight': False, 'trialN': 53, 'loaded': True, 'loadedTime': 6801.200000047684, 'positionName': 'LEFT', 'positionCoords': [244.68, 178.5], 'bid': 5.84}, {'imgObject': {}, 'id': 'hashbrowns', 'src': '/static/foodstim60/hashbrowns.jpg', 'key': 'i', 'origWidth': 411, 'origHeight': 410, 'width': 411, 'height': 410, 'widthPercent': 0.45, 'rescaleHeight': False, 'trialN': 53, 'loaded': True, 'loadedTime': 6297, 'positionName': 'RIGHT', 'positionCoords': [710.32, 179], 'bid': 5.79}]",105326.80000007153,1669833429888,Tribe humus pita,hashbrowns,5.84,5.79,-0.04999999999999982,hashbrowns,843.6999999284744,845,844.6999999284744,True,i,106721.60000002384,1394.7999999523163,1669833431283,1395,HRV,HRV_0210,2022-11-30 18:40:44
54,"[{'imgObject': {}, 'id': 'veggieswithdip', 'src': '/static/foodstim60/veggieswithdip.jpg', 'key': 'u', 'origWidth': 409, 'origHeight': 409, 'width': 409, 'height': 409, 'widthPercent': 0.45, 'rescaleHeight': False, 'trialN': 54, 'loaded': True, 'loadedTime': 7619.400000095367, 'positionName': 'LEFT', 'positionCoords': [246.68, 179.5], 'bid': 5.5200000000000005}, {'imgObject': {}, 'id': 'roastedpotatoes', 'src': '/static/foodstim60/roastedpotatoes.jpg', 'key': 'i', 'origWidth': 409, 'origHeight': 410, 'width': 409, 'height': 410, 'widthPercent': 0.45, 'rescaleHeight': False, 'trialN': 54, 'loaded': True, 'loadedTime': 7602.900000095367, 'positionName': 'RIGHT', 'positionCoords': [710.32, 179], 'bid': 6.08}]",106722.0,1669833431283,veggieswithdip,roastedpotatoes,5.5200000000000005,6.08,0.5599999999999996,veggieswithdip,1752.8000000715256,1754,1753.9000000953674,True,u,108990.40000009537,2268.4000000953674,1669833433552,2269,HRV,HRV_0210,2022-11-30 18:40:44
55,"[{'imgObject': {}, 'id': 'cherry tomato', 'src': '/static/foodstim60/cherry tomato.jpg', 'key': 'u', 'origWidth': 410, 'origHeight': 410, 'width': 410, 'height': 410, 'widthPercent': 0.45, 'rescaleHeight': False, 'trialN': 55, 'loaded': True, 'loadedTime': 7450.300000071526, 'positionName': 'LEFT', 'positionCoords': [245.68, 179], 'bid': 7.97}, {'imgObject': {}, 'id': 'bagel and cc', 'src': '/static/foodstim60/bagel and cc.jpg', 'key': 'i', 'origWidth': 410, 'origHeight': 410, 'width': 410, 'height': 410, 'widthPercent': 0.45, 'rescaleHeight': False, 'trialN': 55, 'loaded': True, 'loadedTime': 7613.5, 'positionName': 'RIGHT', 'positionCoords': [710.32, 179], 'bid': 6.15}]",108990.80000007153,1669833433552,cherry tomato,bagel and cc,7.97,6.15,-1.8199999999999994,cherry tomato,1225.5,1226,1226.1999999284744,True,u,110725.70000004768,1734.8999999761581,1669833435287,1735,HRV,HRV_0210,2022-11-30 18:40:44
56,"[{'imgObject': {}, 'id': 'Tribe humus pita', 'src': '/static/foodstim60/Tribe humus pita.jpg', 'key': 'u', 'origWidth': 411, 'origHeight': 411, 'width': 411, 'height': 411, 'widthPercent': 0.45, 'rescaleHeight': False, 'trialN': 56, 'loaded': True, 'loadedTime': 6807.200000047684, 'positionName': 'LEFT', 'positionCoords': [244.68, 178.5], 'bid': 5.84}, {'imgObject': {}, 'id': 'rigatoni', 'src': '/static/foodstim60/rigatoni.jpg', 'key': 'i', 'origWidth': 411, 'origHeight': 411, 'width': 411, 'height': 411, 'widthPercent': 0.45, 'rescaleHeight': False, 'trialN': 56, 'loaded': True, 'loadedTime': 7670.600000023842, 'positionName': 'RIGHT', 'positionCoords': [710.32, 178.5], 'bid': 4.89}]",110726.10000002384,1669833435287,Tribe humus pita,rigatoni,5.84,4.89,-0.9500000000000002,Tribe humus pita,1015.7000000476837,1017,1016.5,True,u,112254.5,1528.3999999761581,1669833436816,1529,HRV,HRV_0210,2022-11-30 18:40:44
57,"[{'imgObject': {}, 'id': 'olives', 'src': '/static/foodstim60/olives.jpg', 'key': 'u', 'origWidth': 410, 'origHeight': 410, 'width': 410, 'height': 410, 'widthPercent': 0.45, 'rescaleHeight': False, 'trialN': 57, 'loaded': True, 'loadedTime': 6462.100000023842, 'positionName': 'LEFT', 'positionCoords': [245.68, 179], 'bid': 6.8100000000000005}, {'imgObject': {}, 'id': 'yogurt no spoon', 'src': '/static/foodstim60/yogurt no spoon.jpg', 'key': 'i', 'origWidth': 411, 'origHeight': 410, 'width': 411, 'height': 410, 'widthPercent': 0.45, 'rescaleHeight': False, 'trialN': 57, 'loaded': True, 'loadedTime': 7024, 'positionName': 'RIGHT', 'positionCoords': [710.32, 179], 'bid': 6.46}]",112254.90000009537,1669833436816,olives,yogurt no spoon,6.8100000000000005,6.46,-0.35000000000000053,yogurt no spoon,1111.5,1112,1112.0999999046326,True,i,113869.90000009537,1615.0,1669833438431,1615,HRV,HRV_0210,2022-11-30 18:40:44
58,"[{'imgObject': {}, 'id': 'salad w chicken', 'src': '/static/foodstim60/salad w chicken.jpg', 'key': 'u', 'origWidth': 411, 'origHeight': 411, 'width': 411, 'height': 411, 'widthPercent': 0.45, 'rescaleHeight': False, 'trialN': 58, 'loaded': True, 'loadedTime': 7510.5, 'positionName': 'LEFT', 'positionCoords': [244.68, 178.5], 'bid': 4.53}, {'imgObject': {}, 'id': 'lox', 'src': '/static/foodstim60/lox.jpg', 'key': 'i', 'origWidth': 410, 'origHeight': 411, 'width': 410, 'height': 411, 'widthPercent': 0.45, 'rescaleHeight': False, 'trialN': 58, 'loaded': True, 'loadedTime': 7371.900000095367, 'positionName': 'RIGHT', 'positionCoords': [710.32, 178.5], 'bid': 4.73}]",113870.0,1669833438431,salad w chicken,lox,4.53,4.73,0.20000000000000018,lox,1454.5,1455,1455.1000000238419,True,i,115837.10000002384,1967.1000000238419,1669833440398,1967,HRV,HRV_0210,2022-11-30 18:40:44
59,"[{'imgObject': {}, 'id': 'corn cob', 'src': '/static/foodstim60/corn cob.jpg', 'key': 'u', 'origWidth': 411, 'origHeight': 411, 'width': 411, 'height': 411, 'widthPercent': 0.45, 'rescaleHeight': False, 'trialN': 59, 'loaded': True, 'loadedTime': 7598.300000071526, 'positionName': 'LEFT', 'positionCoords': [244.68, 178.5], 'bid': 9.72}, {'imgObject': {}, 'id': 'fruitsalad', 'src': '/static/foodstim60/fruitsalad.jpg', 'key': 'i', 'origWidth': 410, 'origHeight': 410, 'width': 410, 'height': 410, 'widthPercent': 0.45, 'rescaleHeight': False, 'trialN': 59, 'loaded': True, 'loadedTime': 7218.800000071526, 'positionName': 'RIGHT', 'positionCoords': [710.32, 179], 'bid': 9.28}]",115837.30000007153,1669833440398,corn cob,fruitsalad,9.72,9.28,-0.4400000000000013,fruitsalad,1375.6000000238419,1377,1376.1999999284744,True,i,117717.90000009537,1880.6000000238419,1669833442279,1881,HRV,HRV_0210,2022-11-30 18:40:44
60,"[{'imgObject': {}, 'id': 'mashed potato', 'src': '/static/foodstim60/mashed potato.jpg', 'key': 'u', 'origWidth': 409, 'origHeight': 409, 'width': 409, 'height': 409, 'widthPercent': 0.45, 'rescaleHeight': False, 'trialN': 60, 'loaded': True, 'loadedTime': 6469.200000047684, 'positionName': 'LEFT', 'positionCoords': [246.68, 179.5], 'bid': 7.19}, {'imgObject': {}, 'id': 'seaweed', 'src': '/static/foodstim60/seaweed.jpg', 'key': 'i', 'origWidth': 410, 'origHeight': 410, 'width': 410, 'height': 410, 'widthPercent': 0.45, 'rescaleHeight': False, 'trialN': 60, 'loaded': True, 'loadedTime': 7726.600000023842, 'positionName': 'RIGHT', 'positionCoords': [710.32, 179], 'bid': 6.33}]",117718.30000007153,1669833442279,mashed potato,seaweed,7.19,6.33,-0.8600000000000003,mashed potato,1931.6999999284744,1933,1932.6000000238419,True,u,120162.0,2443.6999999284744,1669833444723,2444,HRV,HRV_0210,2022-11-30 18:40:44
61,"[{'imgObject': {}, 'id': 'edamame', 'src': '/static/foodstim60/edamame.jpg', 'key': 'u', 'origWidth': 409, 'origHeight': 410, 'width': 409, 'height': 410, 'widthPercent': 0.45, 'rescaleHeight': False, 'trialN': 61, 'loaded': True, 'loadedTime': 5938, 'positionName': 'LEFT', 'positionCoords': [246.68, 179], 'bid': 4.3100000000000005}, {'imgObject': {}, 'id': 'popsicles', 'src': '/static/foodstim60/popsicles.jpg', 'key': 'i', 'origWidth': 410, 'origHeight': 410, 'width': 410, 'height': 410, 'widthPercent': 0.45, 'rescaleHeight': False, 'trialN': 61, 'loaded': True, 'loadedTime': 8080.800000071526, 'positionName': 'RIGHT', 'positionCoords': [710.32, 179], 'bid': 4.23}]",120162.40000009537,1669833444724,edamame,popsicles,4.3100000000000005,4.23,-0.08000000000000007,edamame,1683,1684,1684.0999999046326,True,u,122369.90000009537,2207.5,1669833446931,2207,HRV,HRV_0210,2022-11-30 18:40:44
62,"[{'imgObject': {}, 'id': 'mac & cheese', 'src': '/static/foodstim60/mac & cheese.jpg', 'key': 'u', 'origWidth': 410, 'origHeight': 410, 'width': 410, 'height': 410, 'widthPercent': 0.45, 'rescaleHeight': False, 'trialN': 62, 'loaded': True, 'loadedTime': 6435.200000047684, 'positionName': 'LEFT', 'positionCoords': [245.68, 179], 'bid': 5.93}, {'imgObject': {}, 'id': 'omelette', 'src': '/static/foodstim60/omelette.jpg', 'key': 'i', 'origWidth': 410, 'origHeight': 409, 'width': 410, 'height': 409, 'widthPercent': 0.45, 'rescaleHeight': False, 'trialN': 62, 'loaded': True, 'loadedTime': 7727.200000047684, 'positionName': 'RIGHT', 'positionCoords': [710.32, 179.5], 'bid': 7.4}]",122370.10000002384,1669833446931,mac & cheese,omelette,5.93,7.4,1.4700000000000006,mac & cheese,1345.8999999761581,1347,1346.5,True,u,124280.0,1909.8999999761581,1669833448841,1910,HRV,HRV_0210,2022-11-30 18:40:44
63,"[{'imgObject': {}, 'id': 'eggsalad', 'src': '/static/foodstim60/eggsalad.jpg', 'key': 'u', 'origWidth': 410, 'origHeight': 409, 'width': 410, 'height': 409, 'widthPercent': 0.45, 'rescaleHeight': False, 'trialN': 63, 'loaded': True, 'loadedTime': 7723, 'positionName': 'LEFT', 'positionCoords': [245.68, 179.5], 'bid': 6.33}, {'imgObject': {}, 'id': 'sweetpotato', 'src': '/static/foodstim60/sweetpotato.jpg', 'key': 'i', 'origWidth': 410, 'origHeight': 410, 'width': 410, 'height': 410, 'widthPercent': 0.45, 'rescaleHeight': False, 'trialN': 63, 'loaded': True, 'loadedTime': 5839.800000071526, 'positionName': 'RIGHT', 'positionCoords': [710.32, 179], 'bid': 4.25}]",124280.40000009537,1669833448842,eggsalad,sweetpotato,6.33,4.25,-2.08,eggsalad,1017.7999999523163,1018,1018.3999999761581,True,u,125805.90000009537,1525.5,1669833450367,1525,HRV,HRV_0210,2022-11-30 18:40:44
64,"[{'imgObject': {}, 'id': 'turkeysandwich', 'src': '/static/foodstim60/turkeysandwich.jpg', 'key': 'u', 'origWidth': 409, 'origHeight': 409, 'width': 409, 'height': 409, 'widthPercent': 0.45, 'rescaleHeight': False, 'trialN': 64, 'loaded': True, 'loadedTime': 7631.100000023842, 'positionName': 'LEFT', 'positionCoords': [246.68, 179.5], 'bid': 7.28}, {'imgObject': {}, 'id': 'mango', 'src': '/static/foodstim60/mango.jpg', 'key': 'i', 'origWidth': 411, 'origHeight': 411, 'width': 411, 'height': 411, 'widthPercent': 0.45, 'rescaleHeight': False, 'trialN': 64, 'loaded': True, 'loadedTime': 5787.800000071526, 'positionName': 'RIGHT', 'positionCoords': [710.32, 178.5], 'bid': 6.34}]",125806.10000002384,1669833450367,turkeysandwich,mango,7.28,6.34,-0.9400000000000004,turkeysandwich,920.2000000476837,921,920.8999999761581,True,u,127247.0,1440.8999999761581,1669833451808,1441,HRV,HRV_0210,2022-11-30 18:40:44
65,"[{'imgObject': {}, 'id': 'luckycharms', 'src': '/static/foodstim60/luckycharms.jpg', 'key': 'u', 'origWidth': 410, 'origHeight': 409, 'width': 410, 'height': 409, 'widthPercent': 0.45, 'rescaleHeight': False, 'trialN': 65, 'loaded': True, 'loadedTime': 6015.900000095367, 'positionName': 'LEFT', 'positionCoords': [245.68, 179.5], 'bid': 5.38}, {'imgObject': {}, 'id': 'rigatoni', 'src': '/static/foodstim60/rigatoni.jpg', 'key': 'i', 'origWidth': 411, 'origHeight': 411, 'width': 411, 'height': 411, 'widthPercent': 0.45, 'rescaleHeight': False, 'trialN': 65, 'loaded': True, 'loadedTime': 7670.800000071526, 'positionName': 'RIGHT', 'positionCoords': [710.32, 178.5], 'bid': 4.89}]",127247.20000004768,1669833451808,luckycharms,rigatoni,5.38,4.89,-0.4900000000000002,rigatoni,1220.2999999523163,1222,1222.0,True,i,128983.20000004768,1736.0,1669833453544,1736,HRV,HRV_0210,2022-11-30 18:40:44
66,"[{'imgObject': {}, 'id': 'avocado', 'src': '/static/foodstim60/avocado.jpg', 'key': 'u', 'origWidth': 409, 'origHeight': 409, 'width': 409, 'height': 409, 'widthPercent': 0.45, 'rescaleHeight': False, 'trialN': 66, 'loaded': True, 'loadedTime': 6677.400000095367, 'positionName': 'LEFT', 'positionCoords': [246.68, 179.5], 'bid': 2.64}, {'imgObject': {}, 'id': 'shreddedwheatwithmilk', 'src': '/static/foodstim60/shreddedwheatwithmilk.jpg', 'key': 'i', 'origWidth': 410, 'origHeight': 410, 'width': 410, 'height': 410, 'widthPercent': 0.45, 'rescaleHeight': False, 'trialN': 66, 'loaded': True, 'loadedTime': 7393.300000071526, 'positionName': 'RIGHT', 'positionCoords': [710.32, 179], 'bid': 2.78}]",128983.5,1669833453545,avocado,shreddedwheatwithmilk,2.64,2.78,0.13999999999999968,NaN,NaN,NaN,,False,NaN,133009.80000007153,4026.3000000715256,1669833457571,4026,HRV,HRV_0210,2022-11-30 18:40:44
67,"[{'imgObject': {}, 'id': 'salad w chicken', 'src': '/static/foodstim60/salad w chicken.jpg', 'key': 'u', 'origWidth': 411, 'origHeight': 411, 'width': 411, 'height': 411, 'widthPercent': 0.45, 'rescaleHeight': False, 'trialN': 67, 'loaded': True, 'loadedTime': 7510.600000023842, 'positionName': 'LEFT', 'positionCoords': [244.68, 178.5], 'bid': 4.53}, {'imgObject': {}, 'id': 'yogurt no spoon', 'src': '/static/foodstim60/yogurt no spoon.jpg', 'key': 'i', 'origWidth': 411, 'origHeight': 410, 'width': 411, 'height': 410, 'widthPercent': 0.45, 'rescaleHeight': False, 'trialN': 67, 'loaded': True, 'loadedTime': 7028.200000047684, 'positionName': 'RIGHT', 'positionCoords': [710.32, 179], 'bid': 6.46}]",133010.30000007153,1669833457571,salad w chicken,yogurt no spoon,4.53,6.46,1.9299999999999997,yogurt no spoon,975.2999999523163,976,975.7999999523163,True,i,134497.10000002384,1486.7999999523163,1669833459058,1487,HRV,HRV_0210,2022-11-30 18:40:44
68,"[{'imgObject': {}, 'id': 'granola w milk', 'src': '/static/foodstim60/granola w milk.jpg', 'key': 'u', 'origWidth': 410, 'origHeight': 410, 'width': 410, 'height': 410, 'widthPercent': 0.45, 'rescaleHeight': False, 'trialN': 68, 'loaded': True, 'loadedTime': 6730.900000095367, 'positionName': 'LEFT', 'positionCoords': [245.68, 179], 'bid': 3.96}, {'imgObject': {}, 'id': 'bagel and cc', 'src': '/static/foodstim60/bagel and cc.jpg', 'key': 'i', 'origWidth': 410, 'origHeight': 410, 'width': 410, 'height': 410, 'widthPercent': 0.45, 'rescaleHeight': False, 'trialN': 68, 'loaded': True, 'loadedTime': 7614.900000095367, 'positionName': 'RIGHT', 'positionCoords': [710.32, 179], 'bid': 6.15}]",134497.30000007153,1669833459059,granola w milk,bagel and cc,3.96,6.15,2.1900000000000004,bagel and cc,882,882,882.6999999284744,True,i,135891.80000007153,1394.5,1669833460453,1394,HRV,HRV_0210,2022-11-30 18:40:44
69,"[{'imgObject': {}, 'id': 'rigatoni', 'src': '/static/foodstim60/rigatoni.jpg', 'key': 'u', 'origWidth': 411, 'origHeight': 411, 'width': 411, 'height': 411, 'widthPercent': 0.45, 'rescaleHeight': False, 'trialN': 69, 'loaded': True, 'loadedTime': 7670.100000023842, 'positionName': 'LEFT', 'positionCoords': [244.68, 178.5], 'bid': 4.89}, {'imgObject': {}, 'id': 'grilled chicken strips', 'src': '/static/foodstim60/grilled chicken strips.jpg', 'key': 'i', 'origWidth': 410, 'origHeight': 411, 'width': 410, 'height': 411, 'widthPercent': 0.45, 'rescaleHeight': False, 'trialN': 69, 'loaded': True, 'loadedTime': 7746.100000023842, 'positionName': 'RIGHT', 'positionCoords': [710.32, 178.5], 'bid': 5.05}]",135892.30000007153,1669833460453,rigatoni,grilled chicken strips,4.89,5.05,0.16000000000000014,grilled chicken strips,920.7999999523163,922,921.3999999761581,True,i,137328.30000007153,1436.0,1669833461889,1436,HRV,HRV_0210,2022-11-30 18:40:44
70,"[{'imgObject': {}, 'id': 'avocado', 'src': '/static/foodstim60/avocado.jpg', 'key': 'u', 'origWidth': 409, 'origHeight': 409, 'width': 409, 'height': 409, 'widthPercent': 0.45, 'rescaleHeight': False, 'trialN': 70, 'loaded': True, 'loadedTime': 6629.900000095367, 'positionName': 'LEFT', 'positionCoords': [246.68, 179.5], 'bid': 2.64}, {'imgObject': {}, 'id': 'mac & cheese', 'src': '/static/foodstim60/mac & cheese.jpg', 'key': 'i', 'origWidth': 410, 'origHeight': 410, 'width': 410, 'height': 410, 'widthPercent': 0.45, 'rescaleHeight': False, 'trialN': 70, 'loaded': True, 'loadedTime': 6428.700000047684, 'positionName': 'RIGHT', 'positionCoords': [710.32, 179], 'bid': 5.93}]",137328.40000009537,1669833461890,avocado,mac & cheese,2.64,5.93,3.2899999999999996,mac & cheese,1012.5,1013,1013.0999999046326,True,i,138862.10000002384,1533.6999999284744,1669833463423,1533,HRV,HRV_0210,2022-11-30 18:40:44
71,"[{'imgObject': {}, 'id': 'orange slices', 'src': '/static/foodstim60/orange slices.jpg', 'key': 'u', 'origWidth': 409, 'origHeight': 410, 'width': 409, 'height': 410, 'widthPercent': 0.45, 'rescaleHeight': False, 'trialN': 71, 'loaded': True, 'loadedTime': 7424.400000095367, 'positionName': 'LEFT', 'positionCoords': [246.68, 179], 'bid': 9.93}, {'imgObject': {}, 'id': 'corn cob', 'src': '/static/foodstim60/corn cob.jpg', 'key': 'i', 'origWidth': 411, 'origHeight': 411, 'width': 411, 'height': 411, 'widthPercent': 0.45, 'rescaleHeight': False, 'trialN': 71, 'loaded': True, 'loadedTime': 7595.100000023842, 'positionName': 'RIGHT', 'positionCoords': [710.32, 178.5], 'bid': 9.72}]",138862.40000009537,1669833463424,orange slices,corn cob,9.93,9.72,-0.20999999999999908,corn cob,1176.3999999761581,1177,1177.0,True,i,140540.90000009537,1678.5,1669833465102,1678,HRV,HRV_0210,2022-11-30 18:40:44
72,"[{'imgObject': {}, 'id': 'mac & cheese', 'src': '/static/foodstim60/mac & cheese.jpg', 'key': 'u', 'origWidth': 410, 'origHeight': 410, 'width': 410, 'height': 410, 'widthPercent': 0.45, 'rescaleHeight': False, 'trialN': 72, 'loaded': True, 'loadedTime': 6362, 'positionName': 'LEFT', 'positionCoords': [245.68, 179], 'bid': 5.93}, {'imgObject': {}, 'id': 'fried eggs', 'src': '/static/foodstim60/fried eggs.jpg', 'key': 'i', 'origWidth': 410, 'origHeight': 410, 'width': 410, 'height': 410, 'widthPercent': 0.45, 'rescaleHeight': False, 'trialN': 72, 'loaded': True, 'loadedTime': 7757.400000095367, 'positionName': 'RIGHT', 'positionCoords': [710.32, 179], 'bid': 5.84}]",140541.30000007153,1669833465102,mac & cheese,fried eggs,5.93,5.84,-0.08999999999999986,fried eggs,1970.2999999523163,1971,1970.8999999761581,True,i,143023.80000007153,2482.5,1669833467585,2483,HRV,HRV_0210,2022-11-30 18:40:44
73,"[{'imgObject': {}, 'id': 'rigatoni and sauce', 'src': '/static/foodstim60/rigatoni and sauce.jpg', 'key': 'u', 'origWidth': 410, 'origHeight': 411, 'width': 410, 'height': 411, 'widthPercent': 0.45, 'rescaleHeight': False, 'trialN': 73, 'loaded': True, 'loadedTime': 6983.300000071526, 'positionName': 'LEFT', 'positionCoords': [245.68, 178.5], 'bid': 5.17}, {'imgObject': {}, 'id': 'popsicles', 'src': '/static/foodstim60/popsicles.jpg', 'key': 'i', 'origWidth': 410, 'origHeight': 410, 'width': 410, 'height': 410, 'widthPercent': 0.45, 'rescaleHeight': False, 'trialN': 73, 'loaded': True, 'loadedTime': 8084, 'positionName': 'RIGHT', 'positionCoords': [710.32, 179], 'bid': 4.23}]",143024.30000007153,1669833467585,rigatoni and sauce,popsicles,5.17,4.23,-0.9399999999999995,rigatoni and sauce,1508.3999999761581,1521,1520.1000000238419,True,u,145053.40000009537,2029.1000000238419,1669833469615,2030,HRV,HRV_0210,2022-11-30 18:40:44
74,"[{'imgObject': {}, 'id': 'apple slices', 'src': '/static/foodstim60/apple slices.jpg', 'key': 'u', 'origWidth': 409, 'origHeight': 410, 'width': 409, 'height': 410, 'widthPercent': 0.45, 'rescaleHeight': False, 'trialN': 74, 'loaded': True, 'loadedTime': 5637.5, 'positionName': 'LEFT', 'positionCoords': [246.68, 179], 'bid': 9.02}, {'imgObject': {}, 'id': 'burger', 'src': '/static/foodstim60/burger.jpg', 'key': 'i', 'origWidth': 409, 'origHeight': 409, 'width': 409, 'height': 409, 'widthPercent': 0.45, 'rescaleHeight': False, 'trialN': 74, 'loaded': True, 'loadedTime': 7440.700000047684, 'positionName': 'RIGHT', 'positionCoords': [710.32, 179.5], 'bid': 7.94}]",145053.80000007153,1669833469615,apple slices,burger,9.02,7.94,-1.0799999999999992,burger,1312.6000000238419,1318,1317.6000000238419,True,i,146889.5,1835.6999999284744,1669833471451,1836,HRV,HRV_0210,2022-11-30 18:40:44
75,"[{'imgObject': {}, 'id': 'froot loops w milk', 'src': '/static/foodstim60/froot loops w milk.jpg', 'key': 'u', 'origWidth': 410, 'origHeight': 410, 'width': 410, 'height': 410, 'widthPercent': 0.45, 'rescaleHeight': False, 'trialN': 75, 'loaded': True, 'loadedTime': 6739.900000095367, 'positionName': 'LEFT', 'positionCoords': [245.68, 179], 'bid': 3.52}, {'imgObject': {}, 'id': 'roastedpotatoes', 'src': '/static/foodstim60/roastedpotatoes.jpg', 'key': 'i', 'origWidth': 409, 'origHeight': 410, 'width': 409, 'height': 410, 'widthPercent': 0.45, 'rescaleHeight': False, 'trialN': 75, 'loaded': True, 'loadedTime': 7606.200000047684, 'positionName': 'RIGHT', 'positionCoords': [710.32, 179], 'bid': 6.08}]",146889.90000009537,1669833471451,froot loops w milk,roastedpotatoes,3.52,6.08,2.56,roastedpotatoes,1042.0999999046326,1043,1042.7999999523163,True,i,148446.90000009537,1557.0,1669833473008,1557,HRV,HRV_0210,2022-11-30 18:40:44
76,"[{'imgObject': {}, 'id': 'omelette', 'src': '/static/foodstim60/omelette.jpg', 'key': 'u', 'origWidth': 410, 'origHeight': 409, 'width': 410, 'height': 409, 'widthPercent': 0.45, 'rescaleHeight': False, 'trialN': 76, 'loaded': True, 'loadedTime': 7731.700000047684, 'positionName': 'LEFT', 'positionCoords': [245.68, 179.5], 'bid': 7.4}, {'imgObject': {}, 'id': 'salmon', 'src': '/static/foodstim60/salmon.jpg', 'key': 'i', 'origWidth': 410, 'origHeight': 409, 'width': 410, 'height': 409, 'widthPercent': 0.45, 'rescaleHeight': False, 'trialN': 76, 'loaded': True, 'loadedTime': 5775.900000095367, 'positionName': 'RIGHT', 'positionCoords': [710.32, 179.5], 'bid': 6.36}]",148447.30000007153,1669833473009,omelette,salmon,7.4,6.36,-1.04,salmon,915,918,918.6000000238419,True,i,149882.0,1434.6999999284744,1669833474443,1434,HRV,HRV_0210,2022-11-30 18:40:44
77,"[{'imgObject': {}, 'id': 'steak', 'src': '/static/foodstim60/steak.jpg', 'key': 'u', 'origWidth': 410, 'origHeight': 410, 'width': 410, 'height': 410, 'widthPercent': 0.45, 'rescaleHeight': False, 'trialN': 77, 'loaded': True, 'loadedTime': 7512.600000023842, 'positionName': 'LEFT', 'positionCoords': [245.68, 179], 'bid': 4.97}, {'imgObject': {}, 'id': 'rigatoni', 'src': '/static/foodstim60/rigatoni.jpg', 'key': 'i', 'origWidth': 411, 'origHeight': 411, 'width': 411, 'height': 411, 'widthPercent': 0.45, 'rescaleHeight': False, 'trialN': 77, 'loaded': True, 'loadedTime': 7667.900000095367, 'positionName': 'RIGHT', 'positionCoords': [710.32, 178.5], 'bid': 4.89}]",149882.40000009537,1669833474444,steak,rigatoni,4.97,4.89,-0.08000000000000007,rigatoni,853.0999999046326,853,853.6999999284744,True,i,151254.30000007153,1371.8999999761581,1669833475816,1372,HRV,HRV_0210,2022-11-30 18:40:44
78,"[{'imgObject': {}, 'id': 'luckycharms', 'src': '/static/foodstim60/luckycharms.jpg', 'key': 'u', 'origWidth': 410, 'origHeight': 409, 'width': 410, 'height': 409, 'widthPercent': 0.45, 'rescaleHeight': False, 'trialN': 78, 'loaded': True, 'loadedTime': 6032.300000071526, 'positionName': 'LEFT', 'positionCoords': [245.68, 179.5], 'bid': 5.38}, {'imgObject': {}, 'id': 'raisin bran w milk', 'src': '/static/foodstim60/raisin bran w milk.jpg', 'key': 'i', 'origWidth': 411, 'origHeight': 411, 'width': 411, 'height': 411, 'widthPercent': 0.45, 'rescaleHeight': False, 'trialN': 78, 'loaded': True, 'loadedTime': 7356.200000047684, 'positionName': 'RIGHT', 'positionCoords': [710.32, 178.5], 'bid': 5.45}]",151254.80000007153,1669833475816,luckycharms,raisin bran w milk,5.38,5.45,0.07000000000000028,raisin bran w milk,809.3999999761581,810,810.1999999284744,True,i,152587.80000007153,1333.0,1669833477149,1333,HRV,HRV_0210,2022-11-30 18:40:44
79,"[{'imgObject': {}, 'id': 'olives', 'src': '/static/foodstim60/olives.jpg', 'key': 'u', 'origWidth': 410, 'origHeight': 410, 'width': 410, 'height': 410, 'widthPercent': 0.45, 'rescaleHeight': False, 'trialN': 79, 'loaded': True, 'loadedTime': 6464.300000071526, 'positionName': 'LEFT', 'positionCoords': [245.68, 179], 'bid': 6.8100000000000005}, {'imgObject': {}, 'id': 'fruitsalad', 'src': '/static/foodstim60/fruitsalad.jpg', 'key': 'i', 'origWidth': 410, 'origHeight': 410, 'width': 410, 'height': 410, 'widthPercent': 0.45, 'rescaleHeight': False, 'trialN': 79, 'loaded': True, 'loadedTime': 7223.200000047684, 'positionName': 'RIGHT', 'positionCoords': [710.32, 179], 'bid': 9.28}]",152588.20000004768,1669833477149,olives,fruitsalad,6.8100000000000005,9.28,2.469999999999999,fruitsalad,870.7000000476837,872,871.2999999523163,True,i,154043.60000002384,1455.3999999761581,1669833478605,1456,HRV,HRV_0210,2022-11-30 18:40:44
80,"[{'imgObject': {}, 'id': 'seaweed', 'src': '/static/foodstim60/seaweed.jpg', 'key': 'u', 'origWidth': 410, 'origHeight': 410, 'width': 410, 'height': 410, 'widthPercent': 0.45, 'rescaleHeight': False, 'trialN': 80, 'loaded': True, 'loadedTime': 7723.400000095367, 'positionName': 'LEFT', 'positionCoords': [245.68, 179], 'bid': 6.33}, {'imgObject': {}, 'id': 'salmon', 'src': '/static/foodstim60/salmon.jpg', 'key': 'i', 'origWidth': 410, 'origHeight': 409, 'width': 410, 'height': 409, 'widthPercent': 0.45, 'rescaleHeight': False, 'trialN': 80, 'loaded': True, 'loadedTime': 5717.100000023842, 'positionName': 'RIGHT', 'positionCoords': [710.32, 179.5], 'bid': 6.36}]",154043.80000007153,1669833478605,seaweed,salmon,6.33,6.36,0.03000000000000025,salmon,1045,1047,1047.2999999523163,True,i,155605.20000004768,1561.3999999761581,1669833480166,1561,HRV,HRV_0210,2022-11-30 18:40:44
81,"[{'imgObject': {}, 'id': 'hashbrowns', 'src': '/static/foodstim60/hashbrowns.jpg', 'key': 'u', 'origWidth': 411, 'origHeight': 410, 'width': 411, 'height': 410, 'widthPercent': 0.45, 'rescaleHeight': False, 'trialN': 81, 'loaded': True, 'loadedTime': 6246, 'positionName': 'LEFT', 'positionCoords': [244.68, 179], 'bid': 5.79}, {'imgObject': {}, 'id': 'burrito', 'src': '/static/foodstim60/burrito.jpg', 'key': 'i', 'origWidth': 410, 'origHeight': 410, 'width': 410, 'height': 410, 'widthPercent': 0.45, 'rescaleHeight': False, 'trialN': 81, 'loaded': True, 'loadedTime': 7646.800000071526, 'positionName': 'RIGHT', 'positionCoords': [710.32, 179], 'bid': 6.2}]",155605.5,1669833480167,hashbrowns,burrito,5.79,6.2,0.41000000000000014,burrito,734.5,735,735.1000000238419,True,i,156864.40000009537,1258.9000000953674,1669833481426,1259,HRV,HRV_0210,2022-11-30 18:40:44
82,"[{'imgObject': {}, 'id': 'cherry tomato', 'src': '/static/foodstim60/cherry tomato.jpg', 'key': 'u', 'origWidth': 410, 'origHeight': 410, 'width': 410, 'height': 410, 'widthPercent': 0.45, 'rescaleHeight': False, 'trialN': 82, 'loaded': True, 'loadedTime': 7442.700000047684, 'positionName': 'LEFT', 'positionCoords': [245.68, 179], 'bid': 7.97}, {'imgObject': {}, 'id': 'raisin bran w milk', 'src': '/static/foodstim60/raisin bran w milk.jpg', 'key': 'i', 'origWidth': 411, 'origHeight': 411, 'width': 411, 'height': 411, 'widthPercent': 0.45, 'rescaleHeight': False, 'trialN': 82, 'loaded': True, 'loadedTime': 7339.800000071526, 'positionName': 'RIGHT', 'positionCoords': [710.32, 178.5], 'bid': 5.45}]",156864.60000002384,1669833481426,cherry tomato,raisin bran w milk,7.97,5.45,-2.5199999999999996,cherry tomato,1382.3999999761581,1383,1383.2000000476837,True,u,158767.0,1902.3999999761581,1669833483328,1902,HRV,HRV_0210,2022-11-30 18:40:44
83,"[{'imgObject': {}, 'id': 'edamame', 'src': '/static/foodstim60/edamame.jpg', 'key': 'u', 'origWidth': 409, 'origHeight': 410, 'width': 409, 'height': 410, 'widthPercent': 0.45, 'rescaleHeight': False, 'trialN': 83, 'loaded': True, 'loadedTime': 5929.200000047684, 'positionName': 'LEFT', 'positionCoords': [246.68, 179], 'bid': 4.3100000000000005}, {'imgObject': {}, 'id': 'eggs', 'src': '/static/foodstim60/eggs.jpg', 'key': 'i', 'origWidth': 409, 'origHeight': 409, 'width': 409, 'height': 409, 'widthPercent': 0.45, 'rescaleHeight': False, 'trialN': 83, 'loaded': True, 'loadedTime': 6436.5, 'positionName': 'RIGHT', 'positionCoords': [710.32, 179.5], 'bid': 5.36}]",158767.40000009537,1669833483329,edamame,eggs,4.3100000000000005,5.36,1.0499999999999998,edamame,1291.5,1287,1292.0999999046326,True,u,160573.5,1806.0999999046326,1669833485130,1801,HRV,HRV_0210,2022-11-30 18:40:44
84,"[{'imgObject': {}, 'id': 'turkeysandwich', 'src': '/static/foodstim60/turkeysandwich.jpg', 'key': 'u', 'origWidth': 409, 'origHeight': 409, 'width': 409, 'height': 409, 'widthPercent': 0.45, 'rescaleHeight': False, 'trialN': 84, 'loaded': True, 'loadedTime': 7641.400000095367, 'positionName': 'LEFT', 'positionCoords': [246.68, 179.5], 'bid': 7.28}, {'imgObject': {}, 'id': 'omelette', 'src': '/static/foodstim60/omelette.jpg', 'key': 'i', 'origWidth': 410, 'origHeight': 409, 'width': 410, 'height': 409, 'widthPercent': 0.45, 'rescaleHeight': False, 'trialN': 84, 'loaded': True, 'loadedTime': 7731.900000095367, 'positionName': 'RIGHT', 'positionCoords': [710.32, 179.5], 'bid': 7.4}]",160573.80000007153,1669833485130,turkeysandwich,omelette,7.28,7.4,0.1200000000000001,turkeysandwich,1216.6000000238419,1218,1217.7999999523163,True,u,162311.80000007153,1738.0,1669833486868,1738,HRV,HRV_0210,2022-11-30 18:40:44
85,"[{'imgObject': {}, 'id': 'steak', 'src': '/static/foodstim60/steak.jpg', 'key': 'u', 'origWidth': 410, 'origHeight': 410, 'width': 410, 'height': 410, 'widthPercent': 0.45, 'rescaleHeight': False, 'trialN': 85, 'loaded': True, 'loadedTime': 7512.300000071526, 'positionName': 'LEFT', 'positionCoords': [245.68, 179], 'bid': 4.97}, {'imgObject': {}, 'id': 'mashed potato', 'src': '/static/foodstim60/mashed potato.jpg', 'key': 'i', 'origWidth': 409, 'origHeight': 409, 'width': 409, 'height': 409, 'widthPercent': 0.45, 'rescaleHeight': False, 'trialN': 85, 'loaded': True, 'loadedTime': 6522.900000095367, 'positionName': 'RIGHT', 'positionCoords': [710.32, 179.5], 'bid': 7.19}]",162311.90000009537,1669833486868,steak,mashed potato,4.97,7.19,2.2200000000000006,steak,864.6999999284744,866,865.3999999761581,True,u,163732.90000009537,1421.0,1669833488289,1421,HRV,HRV_0210,2022-11-30 18:40:44
86,"[{'imgObject': {}, 'id': 'turkey sandwich', 'src': '/static/foodstim60/turkey sandwich.jpg', 'key': 'u', 'origWidth': 409, 'origHeight': 409, 'width': 409, 'height': 409, 'widthPercent': 0.45, 'rescaleHeight': False, 'trialN': 86, 'loaded': True, 'loadedTime': 7594.600000023842, 'positionName': 'LEFT', 'positionCoords': [246.68, 179.5], 'bid': 8.3}, {'imgObject': {}, 'id': 'seaweed', 'src': '/static/foodstim60/seaweed.jpg', 'key': 'i', 'origWidth': 410, 'origHeight': 410, 'width': 410, 'height': 410, 'widthPercent': 0.45, 'rescaleHeight': False, 'trialN': 86, 'loaded': True, 'loadedTime': 7726.100000023842, 'positionName': 'RIGHT', 'positionCoords': [710.32, 179], 'bid': 6.33}]",163733.30000007153,1669833488290,turkey sandwich,seaweed,8.3,6.33,-1.9700000000000006,turkey sandwich,878.6999999284744,879,879.3999999761581,True,u,165135.30000007153,1402.0,1669833489692,1402,HRV,HRV_0210,2022-11-30 18:40:44
87,"[{'imgObject': {}, 'id': 'seaweed', 'src': '/static/foodstim60/seaweed.jpg', 'key': 'u', 'origWidth': 410, 'origHeight': 410, 'width': 410, 'height': 410, 'widthPercent': 0.45, 'rescaleHeight': False, 'trialN': 87, 'loaded': True, 'loadedTime': 7726.900000095367, 'positionName': 'LEFT', 'positionCoords': [245.68, 179], 'bid': 6.33}, {'imgObject': {}, 'id': 'eggsalad', 'src': '/static/foodstim60/eggsalad.jpg', 'key': 'i', 'origWidth': 410, 'origHeight': 409, 'width': 410, 'height': 409, 'widthPercent': 0.45, 'rescaleHeight': False, 'trialN': 87, 'loaded': True, 'loadedTime': 7713.400000095367, 'positionName': 'RIGHT', 'positionCoords': [710.32, 179.5], 'bid': 6.33}]",165135.80000007153,1669833489692,seaweed,eggsalad,6.33,6.33,0.0,eggsalad,1371.1999999284744,1372,1372.1000000238419,True,i,167017.60000002384,1881.7999999523163,1669833491574,1882,HRV,HRV_0210,2022-11-30 18:40:44
88,"[{'imgObject': {}, 'id': 'mashed potato', 'src': '/static/foodstim60/mashed potato.jpg', 'key': 'u', 'origWidth': 409, 'origHeight': 409, 'width': 409, 'height': 409, 'widthPercent': 0.45, 'rescaleHeight': False, 'trialN': 88, 'loaded': True, 'loadedTime': 6522.700000047684, 'positionName': 'LEFT', 'positionCoords': [246.68, 179.5], 'bid': 7.19}, {'imgObject': {}, 'id': 'pear', 'src': '/static/foodstim60/pear.jpg', 'key': 'i', 'origWidth': 411, 'origHeight': 410, 'width': 411, 'height': 410, 'widthPercent': 0.45, 'rescaleHeight': False, 'trialN': 88, 'loaded': True, 'loadedTime': 7767.700000047684, 'positionName': 'RIGHT', 'positionCoords': [710.32, 179], 'bid': 7}]",167017.80000007153,1669833491574,mashed potato,pear,7.19,7.0,-0.1900000000000004,pear,910.7999999523163,912,911.5,True,i,168443.5,1425.6999999284744,1669833493000,1426,HRV,HRV_0210,2022-11-30 18:40:44
89,"[{'imgObject': {}, 'id': 'froot loops w milk', 'src': '/static/foodstim60/froot loops w milk.jpg', 'key': 'u', 'origWidth': 410, 'origHeight': 410, 'width': 410, 'height': 410, 'widthPercent': 0.45, 'rescaleHeight': False, 'trialN': 89, 'loaded': True, 'loadedTime': 6774.400000095367, 'positionName': 'LEFT', 'positionCoords': [245.68, 179], 'bid': 3.52}, {'imgObject': {}, 'id': 'eggs', 'src': '/static/foodstim60/eggs.jpg', 'key': 'i', 'origWidth': 409, 'origHeight': 409, 'width': 409, 'height': 409, 'widthPercent': 0.45, 'rescaleHeight': False, 'trialN': 89, 'loaded': True, 'loadedTime': 6444.300000071526, 'positionName': 'RIGHT', 'positionCoords': [710.32, 179.5], 'bid': 5.36}]",168443.90000009537,1669833493000,froot loops w milk,eggs,3.52,5.36,1.8400000000000003,eggs,1509.7999999523163,1511,1510.5,True,i,170472.40000009537,2028.5,1669833495029,2029,HRV,HRV_0210,2022-11-30 18:40:44
90,"[{'imgObject': {}, 'id': 'cherries', 'src': '/static/foodstim60/cherries.jpg', 'key': 'u', 'origWidth': 410, 'origHeight': 411, 'width': 410, 'height': 411, 'widthPercent': 0.45, 'rescaleHeight': False, 'trialN': 90, 'loaded': True, 'loadedTime': 6102.900000095367, 'positionName': 'LEFT', 'positionCoords': [245.68, 178.5], 'bid': 8.16}, {'imgObject': {}, 'id': 'burger', 'src': '/static/foodstim60/burger.jpg', 'key': 'i', 'origWidth': 409, 'origHeight': 409, 'width': 409, 'height': 409, 'widthPercent': 0.45, 'rescaleHeight': False, 'trialN': 90, 'loaded': True, 'loadedTime': 7439.900000095367, 'positionName': 'RIGHT', 'positionCoords': [710.32, 179.5], 'bid': 7.94}]",183462.60000002384,1669833508019,cherries,burger,8.16,7.94,-0.21999999999999975,burger,2492.3000000715256,2494,2493.8000000715256,True,i,186473.10000002384,3010.5,1669833511030,3011,HRV,HRV_0210,2022-11-30 18:40:44
91,"[{'imgObject': {}, 'id': 'cherry tomato', 'src': '/static/foodstim60/cherry tomato.jpg', 'key': 'u', 'origWidth': 410, 'origHeight': 410, 'width': 410, 'height': 410, 'widthPercent': 0.45, 'rescaleHeight': False, 'trialN': 91, 'loaded': True, 'loadedTime': 7486.200000047684, 'positionName': 'LEFT', 'positionCoords': [245.68, 179], 'bid': 7.97}, {'imgObject': {}, 'id': 'blueberries', 'src': '/static/foodstim60/blueberries.jpg', 'key': 'i', 'origWidth': 411, 'origHeight': 411, 'width': 411, 'height': 411, 'widthPercent': 0.45, 'rescaleHeight': False, 'trialN': 91, 'loaded': True, 'loadedTime': 6316.100000023842, 'positionName': 'RIGHT', 'positionCoords': [710.32, 178.5], 'bid': 9.05}]",186473.30000007153,1669833511030,cherry tomato,blueberries,7.97,9.05,1.080000000000001,blueberries,732.7999999523163,733,733.5,True,i,187727.90000009537,1254.6000000238419,1669833512284,1254,HRV,HRV_0210,2022-11-30 18:40:44
92,"[{'imgObject': {}, 'id': 'burrito', 'src': '/static/foodstim60/burrito.jpg', 'key': 'u', 'origWidth': 410, 'origHeight': 410, 'width': 410, 'height': 410, 'widthPercent': 0.45, 'rescaleHeight': False, 'trialN': 92, 'loaded': True, 'loadedTime': 7648, 'positionName': 'LEFT', 'positionCoords': [245.68, 179], 'bid': 6.2}, {'imgObject': {}, 'id': 'cantaloupe', 'src': '/static/foodstim60/cantaloupe.jpg', 'key': 'i', 'origWidth': 409, 'origHeight': 409, 'width': 409, 'height': 409, 'widthPercent': 0.45, 'rescaleHeight': False, 'trialN': 92, 'loaded': True, 'loadedTime': 7811.600000023842, 'positionName': 'RIGHT', 'positionCoords': [710.32, 179.5], 'bid': 5.92}]",187728.10000002384,1669833512285,burrito,cantaloupe,6.2,5.92,-0.28000000000000025,cantaloupe,731.8000000715256,732,732.5,True,i,188977.10000002384,1249.0,1669833513534,1249,HRV,HRV_0210,2022-11-30 18:40:44
93,"[{'imgObject': {}, 'id': 'lox', 'src': '/static/foodstim60/lox.jpg', 'key': 'u', 'origWidth': 410, 'origHeight': 411, 'width': 410, 'height': 411, 'widthPercent': 0.45, 'rescaleHeight': False, 'trialN': 93, 'loaded': True, 'loadedTime': 7372.400000095367, 'positionName': 'LEFT', 'positionCoords': [245.68, 178.5], 'bid': 4.73}, {'imgObject': {}, 'id': 'popsicles', 'src': '/static/foodstim60/popsicles.jpg', 'key': 'i', 'origWidth': 410, 'origHeight': 410, 'width': 410, 'height': 410, 'widthPercent': 0.45, 'rescaleHeight': False, 'trialN': 93, 'loaded': True, 'loadedTime': 8083.800000071526, 'positionName': 'RIGHT', 'positionCoords': [710.32, 179], 'bid': 4.23}]",188977.30000007153,1669833513534,lox,popsicles,4.73,4.23,-0.5,lox,1472.2999999523163,1473,1472.8999999761581,True,u,191007.20000004768,2029.8999999761581,1669833515564,2030,HRV,HRV_0210,2022-11-30 18:40:44
94,"[{'imgObject': {}, 'id': 'bagel plain', 'src': '/static/foodstim60/bagel plain.jpg', 'key': 'u', 'origWidth': 410, 'origHeight': 410, 'width': 410, 'height': 410, 'widthPercent': 0.45, 'rescaleHeight': False, 'trialN': 94, 'loaded': True, 'loadedTime': 7828.600000023842, 'positionName': 'LEFT', 'positionCoords': [245.68, 179], 'bid': 4.37}, {'imgObject': {}, 'id': 'froot loops w milk', 'src': '/static/foodstim60/froot loops w milk.jpg', 'key': 'i', 'origWidth': 410, 'origHeight': 410, 'width': 410, 'height': 410, 'widthPercent': 0.45, 'rescaleHeight': False, 'trialN': 94, 'loaded': True, 'loadedTime': 6774.700000047684, 'positionName': 'RIGHT', 'positionCoords': [710.32, 179], 'bid': 3.52}]",191007.60000002384,1669833515564,bagel plain,froot loops w milk,4.37,3.52,-0.8500000000000001,bagel plain,761.3000000715256,762,761.8999999761581,True,u,192289.40000009537,1281.8000000715256,1669833516846,1282,HRV,HRV_0210,2022-11-30 18:40:44
95,"[{'imgObject': {}, 'id': 'roastedpotatoes', 'src': '/static/foodstim60/roastedpotatoes.jpg', 'key': 'u', 'origWidth': 409, 'origHeight': 410, 'width': 409, 'height': 410, 'widthPercent': 0.45, 'rescaleHeight': False, 'trialN': 95, 'loaded': True, 'loadedTime': 7608.400000095367, 'positionName': 'LEFT', 'positionCoords': [246.68, 179], 'bid': 6.08}, {'imgObject': {}, 'id': 'sushi w_condiments', 'src': '/static/foodstim60/sushi w_condiments.jpg', 'key': 'i', 'origWidth': 410, 'origHeight': 410, 'width': 410, 'height': 410, 'widthPercent': 0.45, 'rescaleHeight': False, 'trialN': 95, 'loaded': True, 'loadedTime': 7125.700000047684, 'positionName': 'RIGHT', 'positionCoords': [710.32, 179], 'bid': 5.83}]",192289.80000007153,1669833516846,roastedpotatoes,sushi w_condiments,6.08,5.83,-0.25,roastedpotatoes,764.3999999761581,765,765.0,True,u,193609.90000009537,1320.1000000238419,1669833518166,1320,HRV,HRV_0210,2022-11-30 18:40:44
96,"[{'imgObject': {}, 'id': 'cantaloupe', 'src': '/static/foodstim60/cantaloupe.jpg', 'key': 'u', 'origWidth': 409, 'origHeight': 409, 'width': 409, 'height': 409, 'widthPercent': 0.45, 'rescaleHeight': False, 'trialN': 96, 'loaded': True, 'loadedTime': 7827.5, 'positionName': 'LEFT', 'positionCoords': [246.68, 179.5], 'bid': 5.92}, {'imgObject': {}, 'id': 'grilled chicken strips', 'src': '/static/foodstim60/grilled chicken strips.jpg', 'key': 'i', 'origWidth': 410, 'origHeight': 411, 'width': 410, 'height': 411, 'widthPercent': 0.45, 'rescaleHeight': False, 'trialN': 96, 'loaded': True, 'loadedTime': 7745.200000047684, 'positionName': 'RIGHT', 'positionCoords': [710.32, 178.5], 'bid': 5.05}]",193610.10000002384,1669833518167,cantaloupe,grilled chicken strips,5.92,5.05,-0.8700000000000001,cantaloupe,726.3000000715256,726,726.8999999761581,True,u,194847.0,1236.8999999761581,1669833519403,1236,HRV,HRV_0210,2022-11-30 18:40:44
97,"[{'imgObject': {}, 'id': 'edamame', 'src': '/static/foodstim60/edamame.jpg', 'key': 'u', 'origWidth': 409, 'origHeight': 410, 'width': 409, 'height': 410, 'widthPercent': 0.45, 'rescaleHeight': False, 'trialN': 97, 'loaded': True, 'loadedTime': 5930.100000023842, 'positionName': 'LEFT', 'positionCoords': [246.68, 179], 'bid': 4.3100000000000005}, {'imgObject': {}, 'id': 'veggieswithdip', 'src': '/static/foodstim60/veggieswithdip.jpg', 'key': 'i', 'origWidth': 409, 'origHeight': 409, 'width': 409, 'height': 409, 'widthPercent': 0.45, 'rescaleHeight': False, 'trialN': 97, 'loaded': True, 'loadedTime': 7629.300000071526, 'positionName': 'RIGHT', 'positionCoords': [710.32, 179.5], 'bid': 5.5200000000000005}]",194847.30000007153,1669833519404,edamame,veggieswithdip,4.3100000000000005,5.5200000000000005,1.21,veggieswithdip,1508,1509,1509.0,True,i,196922.10000002384,2074.7999999523163,1669833521478,2074,HRV,HRV_0210,2022-11-30 18:40:44
98,"[{'imgObject': {}, 'id': 'salad w chicken', 'src': '/static/foodstim60/salad w chicken.jpg', 'key': 'u', 'origWidth': 411, 'origHeight': 411, 'width': 411, 'height': 411, 'widthPercent': 0.45, 'rescaleHeight': False, 'trialN': 98, 'loaded': True, 'loadedTime': 7510, 'positionName': 'LEFT', 'positionCoords': [244.68, 178.5], 'bid': 4.53}, {'imgObject': {}, 'id': 'avocado', 'src': '/static/foodstim60/avocado.jpg', 'key': 'i', 'origWidth': 409, 'origHeight': 409, 'width': 409, 'height': 409, 'widthPercent': 0.45, 'rescaleHeight': False, 'trialN': 98, 'loaded': True, 'loadedTime': 6641.300000071526, 'positionName': 'RIGHT', 'positionCoords': [710.32, 179.5], 'bid': 2.64}]",196922.5,1669833521479,salad w chicken,avocado,4.53,2.64,-1.8900000000000001,avocado,1301.9000000953674,1302,1302.5,True,i,198738.0,1815.5,1669833523294,1815,HRV,HRV_0210,2022-11-30 18:40:44
99,"[{'imgObject': {}, 'id': 'mango', 'src': '/static/foodstim60/mango.jpg', 'key': 'u', 'origWidth': 411, 'origHeight': 411, 'width': 411, 'height': 411, 'widthPercent': 0.45, 'rescaleHeight': False, 'trialN': 99, 'loaded': True, 'loadedTime': 5788.100000023842, 'positionName': 'LEFT', 'positionCoords': [244.68, 178.5], 'bid': 6.34}, {'imgObject': {}, 'id': 'fried eggs', 'src': '/static/foodstim60/fried eggs.jpg', 'key': 'i', 'origWidth': 410, 'origHeight': 410, 'width': 410, 'height': 410, 'widthPercent': 0.45, 'rescaleHeight': False, 'trialN': 99, 'loaded': True, 'loadedTime': 7766.400000095367, 'positionName': 'RIGHT', 'positionCoords': [710.32, 179], 'bid': 5.84}]",198738.40000009537,1669833523295,mango,fried eggs,6.34,5.84,-0.5,mango,1710.5,1711,1711.0999999046326,True,u,200961.10000002384,2222.6999999284744,1669833525518,2223,HRV,HRV_0210,2022-11-30 18:40:44
100,"[{'imgObject': {}, 'id': 'bagel plain', 'src': '/static/foodstim60/bagel plain.jpg', 'key': 'u', 'origWidth': 410, 'origHeight': 410, 'width': 410, 'height': 410, 'widthPercent': 0.45, 'rescaleHeight': False, 'trialN': 100, 'loaded': True, 'loadedTime': 7858.800000071526, 'positionName': 'LEFT', 'positionCoords': [245.68, 179], 'bid': 4.37}, {'imgObject': {}, 'id': 'salad w chicken', 'src': '/static/foodstim60/salad w chicken.jpg', 'key': 'i', 'origWidth': 411, 'origHeight': 411, 'width': 411, 'height': 411, 'widthPercent': 0.45, 'rescaleHeight': False, 'trialN': 100, 'loaded': True, 'loadedTime': 7500.900000095367, 'positionName': 'RIGHT', 'positionCoords': [710.32, 178.5], 'bid': 4.53}]",200961.60000002384,1669833525518,bagel plain,salad w chicken,4.37,4.53,0.16000000000000014,bagel plain,730.3999999761581,731,731.1000000238419,True,u,202209.90000009537,1248.3000000715256,1669833526766,1248,HRV,HRV_0210,2022-11-30 18:40:44
101,"[{'imgObject': {}, 'id': 'fried eggs', 'src': '/static/foodstim60/fried eggs.jpg', 'key': 'u', 'origWidth': 410, 'origHeight': 410, 'width': 410, 'height': 410, 'widthPercent': 0.45, 'rescaleHeight': False, 'trialN': 101, 'loaded': True, 'loadedTime': 7756.100000023842, 'positionName': 'LEFT', 'positionCoords': [245.68, 179], 'bid': 5.84}, {'imgObject': {}, 'id': 'steak', 'src': '/static/foodstim60/steak.jpg', 'key': 'i', 'origWidth': 410, 'origHeight': 410, 'width': 410, 'height': 410, 'widthPercent': 0.45, 'rescaleHeight': False, 'trialN': 101, 'loaded': True, 'loadedTime': 7511.900000095367, 'positionName': 'RIGHT', 'positionCoords': [710.32, 179], 'bid': 4.97}]",202210.30000007153,1669833526767,fried eggs,steak,5.84,4.97,-0.8700000000000001,steak,918.6000000238419,919,919.2999999523163,True,i,203650.40000009537,1440.1000000238419,1669833528207,1440,HRV,HRV_0210,2022-11-30 18:40:44
102,"[{'imgObject': {}, 'id': 'mashed potato', 'src': '/static/foodstim60/mashed potato.jpg', 'key': 'u', 'origWidth': 409, 'origHeight': 409, 'width': 409, 'height': 409, 'widthPercent': 0.45, 'rescaleHeight': False, 'trialN': 102, 'loaded': True, 'loadedTime': 6523.100000023842, 'positionName': 'LEFT', 'positionCoords': [246.68, 179.5], 'bid': 7.19}, {'imgObject': {}, 'id': 'kiwi', 'src': '/static/foodstim60/kiwi.jpg', 'key': 'i', 'origWidth': 410, 'origHeight': 410, 'width': 410, 'height': 410, 'widthPercent': 0.45, 'rescaleHeight': False, 'trialN': 102, 'loaded': True, 'loadedTime': 7333.900000095367, 'positionName': 'RIGHT', 'positionCoords': [710.32, 179], 'bid': 8.33}]",203650.90000009537,1669833528207,mashed potato,kiwi,7.19,8.33,1.1399999999999997,kiwi,722.2999999523163,747,747.0,True,i,204980.5,1329.5999999046326,1669833529537,1330,HRV,HRV_0210,2022-11-30 18:40:44
103,"[{'imgObject': {}, 'id': 'raspberries', 'src': '/static/foodstim60/raspberries.jpg', 'key': 'u', 'origWidth': 411, 'origHeight': 411, 'width': 411, 'height': 411, 'widthPercent': 0.45, 'rescaleHeight': False, 'trialN': 103, 'loaded': True, 'loadedTime': 7658.700000047684, 'positionName': 'LEFT', 'positionCoords': [244.68, 178.5], 'bid': 8.22}, {'imgObject': {}, 'id': 'strawberries', 'src': '/static/foodstim60/strawberries.jpg', 'key': 'i', 'origWidth': 410, 'origHeight': 410, 'width': 410, 'height': 410, 'widthPercent': 0.45, 'rescaleHeight': False, 'trialN': 103, 'loaded': True, 'loadedTime': 7324.700000047684, 'positionName': 'RIGHT', 'positionCoords': [710.32, 179], 'bid': 9.61}]",204980.80000007153,1669833529537,raspberries,strawberries,8.22,9.61,1.3899999999999988,strawberries,888.7999999523163,890,889.6999999284744,True,i,206393.60000002384,1412.7999999523163,1669833530950,1413,HRV,HRV_0210,2022-11-30 18:40:44
104,"[{'imgObject': {}, 'id': 'burger', 'src': '/static/foodstim60/burger.jpg', 'key': 'u', 'origWidth': 409, 'origHeight': 409, 'width': 409, 'height': 409, 'widthPercent': 0.45, 'rescaleHeight': False, 'trialN': 104, 'loaded': True, 'loadedTime': 7424.700000047684, 'positionName': 'LEFT', 'positionCoords': [246.68, 179.5], 'bid': 7.94}, {'imgObject': {}, 'id': 'corn cob', 'src': '/static/foodstim60/corn cob.jpg', 'key': 'i', 'origWidth': 411, 'origHeight': 411, 'width': 411, 'height': 411, 'widthPercent': 0.45, 'rescaleHeight': False, 'trialN': 104, 'loaded': True, 'loadedTime': 7598.100000023842, 'positionName': 'RIGHT', 'positionCoords': [710.32, 178.5], 'bid': 9.72}]",206393.80000007153,1669833530950,burger,corn cob,7.94,9.72,1.7800000000000002,corn cob,668.6000000238419,669,669.2999999523163,True,i,207575.80000007153,1182.0,1669833532132,1182,HRV,HRV_0210,2022-11-30 18:40:44
105,"[{'imgObject': {}, 'id': 'sweetpotato', 'src': '/static/foodstim60/sweetpotato.jpg', 'key': 'u', 'origWidth': 410, 'origHeight': 410, 'width': 410, 'height': 410, 'widthPercent': 0.45, 'rescaleHeight': False, 'trialN': 105, 'loaded': True, 'loadedTime': 5846, 'positionName': 'LEFT', 'positionCoords': [245.68, 179], 'bid': 4.25}, {'imgObject': {}, 'id': 'avocado', 'src': '/static/foodstim60/avocado.jpg', 'key': 'i', 'origWidth': 409, 'origHeight': 409, 'width': 409, 'height': 409, 'widthPercent': 0.45, 'rescaleHeight': False, 'trialN': 105, 'loaded': True, 'loadedTime': 6641, 'positionName': 'RIGHT', 'positionCoords': [710.32, 179.5], 'bid': 2.64}]",207576.30000007153,1669833532133,sweetpotato,avocado,4.25,2.64,-1.6099999999999999,sweetpotato,1557.2999999523163,1558,1557.8999999761581,True,u,209649.5,2073.1999999284744,1669833534206,2073,HRV,HRV_0210,2022-11-30 18:40:44
106,"[{'imgObject': {}, 'id': 'blackbeanswithrice', 'src': '/static/foodstim60/blackbeanswithrice.jpg', 'key': 'u', 'origWidth': 410, 'origHeight': 410, 'width': 410, 'height': 410, 'widthPercent': 0.45, 'rescaleHeight': False, 'trialN': 106, 'loaded': True, 'loadedTime': 5584, 'positionName': 'LEFT', 'positionCoords': [245.68, 179], 'bid': 5.68}, {'imgObject': {}, 'id': 'tacos', 'src': '/static/foodstim60/tacos.jpg', 'key': 'i', 'origWidth': 411, 'origHeight': 411, 'width': 411, 'height': 411, 'widthPercent': 0.45, 'rescaleHeight': False, 'trialN': 106, 'loaded': True, 'loadedTime': 6955.5, 'positionName': 'RIGHT', 'positionCoords': [710.32, 178.5], 'bid': 4.41}]",209649.90000009537,1669833534206,blackbeanswithrice,tacos,5.68,4.41,-1.2699999999999996,tacos,1086.1999999284744,1087,1086.6999999284744,True,i,211254.10000002384,1604.1999999284744,1669833535811,1605,HRV,HRV_0210,2022-11-30 18:40:44
107,"[{'imgObject': {}, 'id': 'shreddedwheatwithmilk', 'src': '/static/foodstim60/shreddedwheatwithmilk.jpg', 'key': 'u', 'origWidth': 410, 'origHeight': 410, 'width': 410, 'height': 410, 'widthPercent': 0.45, 'rescaleHeight': False, 'trialN': 107, 'loaded': True, 'loadedTime': 7393.600000023842, 'positionName': 'LEFT', 'positionCoords': [245.68, 179], 'bid': 2.78}, {'imgObject': {}, 'id': 'edamame', 'src': '/static/foodstim60/edamame.jpg', 'key': 'i', 'origWidth': 409, 'origHeight': 410, 'width': 409, 'height': 410, 'widthPercent': 0.45, 'rescaleHeight': False, 'trialN': 107, 'loaded': True, 'loadedTime': 5924.700000047684, 'positionName': 'RIGHT', 'positionCoords': [710.32, 179], 'bid': 4.3100000000000005}]",211254.5,1669833535811,shreddedwheatwithmilk,edamame,2.78,4.3100000000000005,1.5300000000000007,edamame,992.7000000476837,993,993.2000000476837,True,i,212758.30000007153,1503.8000000715256,1669833537315,1504,HRV,HRV_0210,2022-11-30 18:40:44
108,"[{'imgObject': {}, 'id': 'roastedpotatoes', 'src': '/static/foodstim60/roastedpotatoes.jpg', 'key': 'u', 'origWidth': 409, 'origHeight': 410, 'width': 409, 'height': 410, 'widthPercent': 0.45, 'rescaleHeight': False, 'trialN': 108, 'loaded': True, 'loadedTime': 7607.800000071526, 'positionName': 'LEFT', 'positionCoords': [246.68, 179], 'bid': 6.08}, {'imgObject': {}, 'id': 'ice cream sundae 002', 'src': '/static/foodstim60/ice cream sundae 002.jpg', 'key': 'i', 'origWidth': 409, 'origHeight': 409, 'width': 409, 'height': 409, 'widthPercent': 0.45, 'rescaleHeight': False, 'trialN': 108, 'loaded': True, 'loadedTime': 7500.100000023842, 'positionName': 'RIGHT', 'positionCoords': [710.32, 179.5], 'bid': 7.76}]",212758.70000004768,1669833537315,roastedpotatoes,ice cream sundae 002,6.08,7.76,1.6799999999999997,ice cream sundae 002,1099.7000000476837,1101,1100.7999999523163,True,i,214449.5,1690.7999999523163,1669833539006,1691,HRV,HRV_0210,2022-11-30 18:40:44
