success,trial_type,trial_index,time_elapsed,internal_node_id,Block,TrialNumber,TrialTime,trialTimeDiff,FPS_avg,FPS_med,FPS_mode,TrialDur,winResizeTime,rt,block,button_pressed,MotCoh,MotDir,ColCoh,Color,ChoiceKey,Choice,Accuracy,RT,nFrames,FPS,PPD,missTrial,missTrialMsg,onsetDelay,fullScreenExitTime,canvCenter,TrialType,Score,BlockTrial,stimulus,button_labels,exp,subjectId,date
True,fullscreen,0,2265,0.0-0.0,0.0,1.0,,,,,,,,,,,,,,,,,,,,,,,,,,,,,,,,HRV,HRV_0210,2022-11-30 19:05:34
,wl-check-fps,1,7447,0.0-1.0,0.0,2.0,"[5629.5, 5651.4, 5658.6, 5669.5, 5683.7, 5700, 5716.9, 5730.4, 5747.7, 5763.9, 5778.3, 5815, 5827.7, 5829.1, 5844.8, 5861.5, 5878.3, 5894.8, 5911.5, 5928, 5945.3, 5963.8, 5978.8, 5994.9, 6011.8, 6028, 6046.6, 6061.7, 6080.1, 6097.8, 6111.7, 6131.7, 6144.6, 6162.2, 6180.6, 6194.7, 6211.4, 6228, 6244.5, 6261.7, 6278.2, 6294.7, 6311.5, 6328.1, 6344.8, 6361.6, 6378.1, 6395.2, 6411.6, 6427.9, 6452.6, 6462, 6478.2, 6496.1, 6512.8, 6528.3, 6544.7, 6562.4, 6580.1, 6597.2, 6614.5, 6628, 6644.9, 6664.2, 6678.2, 6698.5, 6711.5, 6727.8, 6744.7, 6761.7, 6778, 6794.8, 6812, 6828.2, 6844.9, 6861.6, 6878.3, 6895, 6911.7, 6928.5, 6945.1, 6961.7, 6978.4, 6996.6, 7012.1, 7028.5, 7045.1, 7062.1, 7078.2, 7095, 7111.9, 7128.5, 7145.2, 7162, 7178.3, 7194.7, 7211.4, 7228.3, 7245.3, 7261.9, 7278.5, 7295.2, 7312.1, 7328.6, 7345.2, 7361.7, 7378.3, 7395.1, 7412.7, 7428.6, 7444.9, 7462, 7478.5, 7495.2, 7511.6, 7528.5, 7545.2, 7562, 7578.4, 7595.2, 7611.7, 7628.5, 7645.2, 7662.2, 7678.6, 7695.8, 7712.1, 7728.6, 7745, 7761.7, 7778.5, 7795.2, 7811.9, 7830.2, 7845, 7861.6, 7878.3, 7895, 7911.9, 7928.4, 7945.4, 7962.2, 7977.6, 7996.1, 8011.5, 8037, 8046.8, 8061.5, 8078.2, 8096.9, 8114.8, 8131.6, 8145, 8167, 8184.6, 8201.6, 8215.5, 8233.1, 8249.1, 8268.7, 8280, 8303.4, 8313.7, 8328.4, 8347.6, 8363.6, 8380.1, 8397.2, 8416.6, 8428.4, 8513.2, 8518.6, 8535.4, 8548.5, 8564.4, 8583.8, 8599.1, 8612.4, 8698.9, 8703.5, 8717.3, 8732.1, 8748.3, 8764.3, 8782.6, 8796.6, 8814.5, 8832.1, 8848.3, 8864.4, 8882.4, 8896.6, 8980.1, 8984, 9003.2, 9014.5, 9031.4, 9054.7, 9070.1, 9079.9, 9094.3, 9114.7, 9128.8, 9145.9, 9164, 9193, 9197.2, 9213.5, 9229.4, 9245.4, 9262.9, 9280.1, 9297.5, 9312.5, 9330, 9346.7, 9363.5, 9379.7, 9397.3, 9412, 9429, 9447.8, 9466.5, 9479.9, 9495.2, 9514.4, 9532.2, 9547.5, 9564.4, 9582.4, 9597.2, 9613.7, 9631.3, 9648, 9665.1, 9682.3, 9698.5, 9714.1, 9735, 9753, 9765, 9782.9, 9799.4, 9817.4, 9875.2, 9884.9, 9898.7, 9925.8, 9927.7, 9944.3, 9964.4, 9978.9, 9994, 10012.5, 10027.5, 10044.1, 10060.8, 10077.4, 10095.1, 10110.7, 10131.3, 10156.7, 10163.6, 10179.8, 10194.8, 10213.7, 10227.6, 10246.6, 10260.8, 10277.4, 10294, 10312.7, 10327.5, 10344.2, 10360.9, 10377.9, 10394.8, 10411, 10427.7, 10444.6, 10461.7, 10478, 10495.6, 10513, 10530.1, 10545.9, 10562.4, 10579.8, 10595.9, 10613, 10628.9, 10645.3, 10661.8, 10678.5, 10694.6, 10711.3, 10727.8, 10744.3, 10761.7, 10777.8]","[12.3, 21.9, 7.2, 10.9, 14.2, 16.3, 16.9, 13.5, 17.3, 16.2, 14.4, 36.7, 12.7, 1.4, 15.7, 16.7, 16.8, 16.5, 16.7, 16.5, 17.3, 18.5, 15, 16.1, 16.9, 16.2, 18.6, 15.1, 18.4, 17.7, 13.9, 20, 12.9, 17.6, 18.4, 14.1, 16.7, 16.6, 16.5, 17.2, 16.5, 16.5, 16.8, 16.6, 16.7, 16.8, 16.5, 17.1, 16.4, 16.3, 24.7, 9.4, 16.2, 17.9, 16.7, 15.5, 16.4, 17.7, 17.7, 17.1, 17.3, 13.5, 16.9, 19.3, 14, 20.3, 13, 16.3, 16.9, 17, 16.3, 16.8, 17.2, 16.2, 16.7, 16.7, 16.7, 16.7, 16.7, 16.8, 16.6, 16.6, 16.7, 18.2, 15.5, 16.4, 16.6, 17, 16.1, 16.8, 16.9, 16.6, 16.7, 16.8, 16.3, 16.4, 16.7, 16.9, 17, 16.6, 16.6, 16.7, 16.9, 16.5, 16.6, 16.5, 16.6, 16.8, 17.6, 15.9, 16.3, 17.1, 16.5, 16.7, 16.4, 16.9, 16.7, 16.8, 16.4, 16.8, 16.5, 16.8, 16.7, 17, 16.4, 17.2, 16.3, 16.5, 16.4, 16.7, 16.8, 16.7, 16.7, 18.3, 14.8, 16.6, 16.7, 16.7, 16.9, 16.5, 17, 16.8, 15.4, 18.5, 15.4, 25.5, 9.8, 14.7, 16.7, 18.7, 17.9, 16.8, 13.4, 22, 17.6, 17, 13.9, 17.6, 16, 19.6, 11.3, 23.4, 10.3, 14.7, 19.2, 16, 16.5, 17.1, 19.4, 11.8, 84.8, 5.4, 16.8, 13.1, 15.9, 19.4, 15.3, 13.3, 86.5, 4.6, 13.8, 14.8, 16.2, 16, 18.3, 14, 17.9, 17.6, 16.2, 16.1, 18, 14.2, 83.5, 3.9, 19.2, 11.3, 16.9, 23.3, 15.4, 9.8, 14.4, 20.4, 14.1, 17.1, 18.1, 29, 4.2, 16.3, 15.9, 16, 17.5, 17.2, 17.4, 15, 17.5, 16.7, 16.8, 16.2, 17.6, 14.7, 17, 18.8, 18.7, 13.4, 15.3, 19.2, 17.8, 15.3, 16.9, 18, 14.8, 16.5, 17.6, 16.7, 17.1, 17.2, 16.2, 15.6, 20.9, 18, 12, 17.9, 16.5, 18, 57.8, 9.7, 13.8, 27.1, 1.9, 16.6, 20.1, 14.5, 15.1, 18.5, 15, 16.6, 16.7, 16.6, 17.7, 15.6, 20.6, 25.4, 6.9, 16.2, 15, 18.9, 13.9, 19, 14.2, 16.6, 16.6, 18.7, 14.8, 16.7, 16.7, 17, 16.9, 16.2, 16.7, 16.9, 17.1, 16.3, 17.6, 17.4, 17.1, 15.8, 16.5, 17.4, 16.1, 17.1, 15.9, 16.4, 16.5, 16.7, 16.1, 16.7, 16.5, 16.5, 17.4, 16.1]",58.0,55.0,60.0,5177.1,[],,,,,,,,,,,,,,,,,,,,,,,,,HRV,HRV_0210,2022-11-30 19:05:34
,wl-html-keyboard-response,2,19144,0.0-2.0-0.0,0.0,3.0,,,,,,,,9673.0,0.0,0,,,,,,,,,,,,,,,,,,,,,,HRV,HRV_0210,2022-11-30 19:05:34
,wl-rdm,3,52148,0.0-3.0-0.0,0.0,4.0,,,,,,,[],,,,0.0,0.0,87.9,0.0,u,0.0,True,8162.099999904633,475.0,60.0,40.0,False,too_early too_early too_early too_early ,3000.0,[],"[683, 384]",ColorTask_Demo,,,,,HRV,HRV_0210,2022-11-30 19:05:34
,wl-rdm,4,60098,0.0-3.0-1.0,0.0,5.0,,,,,,,[],,,,0.0,0.0,87.9,1.0,i,1.0,True,3869.899999976158,229.0,60.0,40.0,False,,2000.0,[],"[683, 384]",ColorTask_Demo,,,,,HRV,HRV_0210,2022-11-30 19:05:34
,wl-html-keyboard-response,5,73979,0.0-3.0-2.0,0.0,6.0,,,,,,,,11870.200000047684,0.0,1,,,,,,,,,,,,,,,,,,,,,,HRV,HRV_0210,2022-11-30 19:05:34
,wl-html-keyboard-response,6,82588,0.0-4.0-0.0,0.0,7.0,,,,,,,,6597.799999952316,0.0,0,,,,,,,,,,,,,,,,,,,,,,HRV,HRV_0210,2022-11-30 19:05:34
,wl-html-keyboard-response,7,93427,0.0-5.0-0.0,0.0,8.0,,,,,,,,8827.299999952316,0.0,0,,,,,,,,,,,,,,,,,,,,,,HRV,HRV_0210,2022-11-30 19:05:34
,wl-rdm,8,97782,0.0-6.0-0.0,0.0,8.0,,,,,,,[],,,,,,62.5,0.0,i,,,3088.0,179.0,60.0,40.0,True,RT_timeout ,257.9625633879882,[],"[683, 384]",ColorTask,-1.0,1.0,,,HRV,HRV_0210,2022-11-30 19:05:34
,wl-rdm,9,100218,0.0-6.1-0.1,0.0,9.0,,,,,,,[],,,,,,62.5,1.0,i,1.0,True,1160.5999999046326,66.0,60.0,40.0,False,,212.82600837259483,[],"[683, 384]",ColorTask,0.0,2.0,,,HRV,HRV_0210,2022-11-30 19:05:34
,wl-rdm,10,102695,0.0-6.2-0.2,0.0,10.0,,,,,,,[],,,,,,56.4,0.0,i,1.0,False,1150.3999999761581,69.0,60.0,40.0,False,,239.36426558444947,[],"[683, 384]",ColorTask,-1.0,3.0,,,HRV,HRV_0210,2022-11-30 19:05:34
,wl-rdm,11,105434,0.0-6.3-0.3,0.0,11.0,,,,,,,[],,,,,,50.0,0.0,u,0.0,True,1425.8999999761581,85.0,60.0,40.0,False,,247.70525327682972,[],"[683, 384]",ColorTask,0.0,4.0,,,HRV,HRV_0210,2022-11-30 19:05:34
,wl-rdm,12,107642,0.0-6.4-0.4,0.0,12.0,,,,,,,[],,,,,,50.0,1.0,u,0.0,False,881.3999999761581,50.0,60.0,40.0,False,,234.09656837684213,[],"[683, 384]",ColorTask,-1.0,5.0,,,HRV,HRV_0210,2022-11-30 19:05:34
,wl-rdm,13,110248,0.0-6.5-0.5,0.0,13.0,,,,,,,[],,,,,,73.6,0.0,u,0.0,True,1237.3999999761581,75.0,60.0,40.0,False,,303.50343584252994,[],"[683, 384]",ColorTask,0.0,6.0,,,HRV,HRV_0210,2022-11-30 19:05:34
,wl-rdm,14,112665,0.0-6.6-0.6,0.0,14.0,,,,,,,[],,,,,,87.9,1.0,i,1.0,True,976.9000000953674,59.0,60.0,40.0,False,,368.06402475857857,[],"[683, 384]",ColorTask,1.0,7.0,,,HRV,HRV_0210,2022-11-30 19:05:34
,wl-rdm,15,115016,0.0-6.7-0.7,0.0,15.0,,,,,,,[],,,,,,87.9,0.0,i,1.0,False,980.2000000476837,50.0,60.0,40.0,False,,284.1634428883202,[],"[683, 384]",ColorTask,0.0,8.0,,,HRV,HRV_0210,2022-11-30 19:05:34
,wl-rdm,16,117532,0.0-6.8-0.8,0.0,16.0,,,,,,,[],,,,,,73.6,1.0,i,1.0,True,929.3999999761581,57.0,60.0,40.0,False,,333.7191817034508,[],"[683, 384]",ColorTask,1.0,9.0,,,HRV,HRV_0210,2022-11-30 19:05:34
,wl-rdm,17,119849,0.0-6.9-0.9,0.0,17.0,,,,,,,[],,,,,,87.9,1.0,i,1.0,True,936.8999999761581,57.0,60.0,40.0,False,,311.29494906162057,[],"[683, 384]",ColorTask,2.0,10.0,,,HRV,HRV_0210,2022-11-30 19:05:34
,wl-rdm,18,122166,0.0-6.10-0.10,0.0,18.0,,,,,,,[],,,,,,73.6,1.0,i,1.0,True,911.5,53.0,60.0,40.0,False,,339.36076707852095,[],"[683, 384]",ColorTask,3.0,11.0,,,HRV,HRV_0210,2022-11-30 19:05:34
,wl-rdm,19,124617,0.0-6.11-0.11,0.0,19.0,,,,,,,[],,,,,,50.0,0.0,u,0.0,True,1047.8999999761581,58.0,60.0,40.0,False,,343.929082255518,[],"[683, 384]",ColorTask,4.0,12.0,,,HRV,HRV_0210,2022-11-30 19:05:34
,wl-rdm,20,126685,0.0-6.12-0.12,0.0,20.0,,,,,,,[],,,,,,87.9,0.0,u,0.0,True,634.4000000953674,38.0,60.0,40.0,False,,362.70301006322325,[],"[683, 384]",ColorTask,5.0,13.0,,,HRV,HRV_0210,2022-11-30 19:05:34
,wl-rdm,21,128732,0.0-6.13-0.13,0.0,21.0,,,,,,,[],,,,,,62.5,0.0,u,0.0,True,727.4000000953674,44.0,60.0,40.0,False,,262.53044563566664,[],"[683, 384]",ColorTask,6.0,14.0,,,HRV,HRV_0210,2022-11-30 19:05:34
,wl-rdm,22,131188,0.0-6.14-0.14,0.0,22.0,,,,,,,[],,,,,,56.4,1.0,u,0.0,False,989.8999999761581,53.0,60.0,40.0,False,,359.89981994799666,[],"[683, 384]",ColorTask,5.0,15.0,,,HRV,HRV_0210,2022-11-30 19:05:34
,wl-rdm,23,133400,0.0-6.15-0.15,0.0,23.0,,,,,,,[],,,,,,62.5,1.0,u,0.0,False,923.9000000953674,56.0,60.0,40.0,False,,225.70117930031836,[],"[683, 384]",ColorTask,4.0,16.0,,,HRV,HRV_0210,2022-11-30 19:05:34
,wl-rdm,24,135517,0.0-6.16-0.16,0.0,24.0,,,,,,,[],,,,,,73.6,0.0,u,0.0,True,792.6000000238419,47.0,60.0,40.0,False,,260.3686383548601,[],"[683, 384]",ColorTask,5.0,17.0,,,HRV,HRV_0210,2022-11-30 19:05:34
,wl-rdm,25,137799,0.0-6.17-0.17,0.0,25.0,,,,,,,[],,,,,,56.4,1.0,u,0.0,False,853.3999998569489,48.0,60.0,40.0,False,,362.42703802061897,[],"[683, 384]",ColorTask,4.0,18.0,,,HRV,HRV_0210,2022-11-30 19:05:34
,wl-rdm,26,139899,0.0-6.18-0.18,0.0,26.0,,,,,,,[],,,,,,73.6,0.0,i,1.0,False,681.2999999523163,41.0,60.0,40.0,False,,335.69882044397184,[],"[683, 384]",ColorTask,3.0,19.0,,,HRV,HRV_0210,2022-11-30 19:05:34
,wl-rdm,27,141983,0.0-6.19-0.19,0.0,27.0,,,,,,,[],,,,,,53.2,1.0,i,1.0,True,660.9999998807907,40.0,60.0,40.0,False,,357.89345511984544,[],"[683, 384]",ColorTask,4.0,20.0,,,HRV,HRV_0210,2022-11-30 19:05:34
,wl-rdm,28,144000,0.0-6.20-0.20,0.0,28.0,,,,,,,[],,,,,,73.6,1.0,i,1.0,True,686.5999999046326,42.0,60.0,40.0,False,,262.3024070112288,[],"[683, 384]",ColorTask,5.0,21.0,,,HRV,HRV_0210,2022-11-30 19:05:34
,wl-rdm,29,146168,0.0-6.21-0.21,0.0,29.0,,,,,,,[],,,,,,50.0,1.0,i,1.0,True,836.6000000238419,46.0,60.0,40.0,False,,265.7298912203854,[],"[683, 384]",ColorTask,6.0,22.0,,,HRV,HRV_0210,2022-11-30 19:05:34
,wl-rdm,30,148183,0.0-6.22-0.22,0.0,30.0,,,,,,,[],,,,,,53.2,1.0,i,1.0,True,715.6000000238419,43.0,60.0,40.0,False,,217.1476123950927,[],"[683, 384]",ColorTask,7.0,23.0,,,HRV,HRV_0210,2022-11-30 19:05:34
,wl-rdm,31,150518,0.0-6.23-0.23,0.0,31.0,,,,,,,[],,,,,,87.9,0.0,u,0.0,True,1055.1000000238419,64.0,60.0,40.0,False,,214.73993642977783,[],"[683, 384]",ColorTask,8.0,24.0,,,HRV,HRV_0210,2022-11-30 19:05:34
,wl-rdm,32,152582,0.0-6.24-0.24,0.0,32.0,,,,,,,[],,,,,,62.5,0.0,u,0.0,True,717.8000000715256,43.0,60.0,40.0,False,,267.64431498275894,[],"[683, 384]",ColorTask,9.0,25.0,,,HRV,HRV_0210,2022-11-30 19:05:34
,wl-rdm,33,154633,0.0-6.25-0.25,0.0,33.0,,,,,,,[],,,,,,73.6,0.0,u,0.0,True,640.1999999284744,34.0,60.0,40.0,False,,348.21428466716026,[],"[683, 384]",ColorTask,10.0,26.0,,,HRV,HRV_0210,2022-11-30 19:05:34
,wl-rdm,34,156649,0.0-6.26-0.26,0.0,34.0,,,,,,,[],,,,,,62.5,0.0,u,0.0,True,676.6000000238419,41.0,60.0,40.0,False,,269.24533631570006,[],"[683, 384]",ColorTask,11.0,27.0,,,HRV,HRV_0210,2022-11-30 19:05:34
,wl-rdm,35,158584,0.0-6.27-0.27,0.0,35.0,,,,,,,[],,,,,,73.6,0.0,u,0.0,True,640.3999999761581,39.0,60.0,40.0,False,,208.56376384512453,[],"[683, 384]",ColorTask,12.0,28.0,,,HRV,HRV_0210,2022-11-30 19:05:34
,wl-rdm,36,160950,0.0-6.28-0.28,0.0,36.0,,,,,,,[],,,,,,62.5,1.0,i,1.0,True,1051.2000000476837,61.0,60.0,40.0,False,,235.58259624425418,[],"[683, 384]",ColorTask,13.0,29.0,,,HRV,HRV_0210,2022-11-30 19:05:34
,wl-rdm,37,163151,0.0-6.29-0.29,0.0,37.0,,,,,,,[],,,,,,56.4,0.0,u,0.0,True,764.1999999284744,46.0,60.0,40.0,False,,325.1625499405971,[],"[683, 384]",ColorTask,14.0,30.0,,,HRV,HRV_0210,2022-11-30 19:05:34
,wl-rdm,38,165088,0.0-6.30-0.30,0.0,38.0,,,,,,,[],,,,,,50.0,1.0,u,0.0,False,521.8000000715256,32.0,60.0,40.0,False,,348.65326881646433,[],"[683, 384]",ColorTask,13.0,31.0,,,HRV,HRV_0210,2022-11-30 19:05:34
,wl-rdm,39,167033,0.0-6.31-0.31,0.0,39.0,,,,,,,[],,,,,,53.2,1.0,i,1.0,True,588.3000000715256,36.0,60.0,40.0,False,,301.1561531475089,[],"[683, 384]",ColorTask,14.0,32.0,,,HRV,HRV_0210,2022-11-30 19:05:34
,wl-rdm,40,168968,0.0-6.32-0.32,0.0,40.0,,,,,,,[],,,,,,53.2,0.0,i,1.0,False,463.09999990463257,26.0,60.0,40.0,False,,360.30092906577335,[],"[683, 384]",ColorTask,13.0,33.0,,,HRV,HRV_0210,2022-11-30 19:05:34
,wl-rdm,41,170751,0.0-6.33-0.33,0.0,41.0,,,,,,,[],,,,,,53.2,0.0,u,0.0,True,341.89999997615814,19.0,60.0,40.0,False,,378.6007488434705,[],"[683, 384]",ColorTask,14.0,34.0,,,HRV,HRV_0210,2022-11-30 19:05:34
,wl-rdm,42,172551,0.0-6.34-0.34,0.0,42.0,,,,,,,[],,,,,,56.4,0.0,u,0.0,True,497.9999998807907,30.0,60.0,40.0,False,,227.62088332767905,[],"[683, 384]",ColorTask,15.0,35.0,,,HRV,HRV_0210,2022-11-30 19:05:34
,wl-rdm,43,174485,0.0-6.35-0.35,0.0,43.0,,,,,,,[],,,,,,56.4,1.0,u,0.0,False,607.7000000476837,37.0,60.0,40.0,False,,243.3408615879428,[],"[683, 384]",ColorTask,14.0,36.0,,,HRV,HRV_0210,2022-11-30 19:05:34
,wl-rdm,44,176733,0.0-6.36-0.36,0.0,44.0,,,,,,,[],,,,,,53.2,0.0,u,0.0,True,854.0,46.0,60.0,40.0,False,,306.88341150770754,[],"[683, 384]",ColorTask,15.0,37.0,,,HRV,HRV_0210,2022-11-30 19:05:34
,wl-rdm,45,178817,0.0-6.37-0.37,0.0,45.0,,,,,,,[],,,,,,62.5,1.0,u,0.0,False,722.6000000238419,44.0,60.0,40.0,False,,239.73816898687554,[],"[683, 384]",ColorTask,14.0,38.0,,,HRV,HRV_0210,2022-11-30 19:05:34
,wl-rdm,46,180801,0.0-6.38-0.38,0.0,46.0,,,,,,,[],,,,,,73.6,1.0,i,1.0,True,690.0,42.0,60.0,40.0,False,,208.84109390210867,[],"[683, 384]",ColorTask,15.0,39.0,,,HRV,HRV_0210,2022-11-30 19:05:34
,wl-rdm,47,182752,0.0-6.39-0.39,0.0,47.0,,,,,,,[],,,,,,53.2,1.0,i,1.0,True,610.8000000715256,37.0,60.0,40.0,False,,257.7662196833912,[],"[683, 384]",ColorTask,16.0,40.0,,,HRV,HRV_0210,2022-11-30 19:05:34
,wl-rdm,48,184935,0.0-6.40-0.40,0.0,48.0,,,,,,,[],,,,,,62.5,0.0,i,1.0,False,742.2000000476837,42.0,60.0,40.0,False,,370.4845500583334,[],"[683, 384]",ColorTask,15.0,41.0,,,HRV,HRV_0210,2022-11-30 19:05:34
,wl-rdm,49,187018,0.0-6.41-0.41,0.0,49.0,,,,,,,[],,,,,,56.4,1.0,u,0.0,False,687.8000000715256,42.0,60.0,40.0,False,,308.826444594906,[],"[683, 384]",ColorTask,14.0,42.0,,,HRV,HRV_0210,2022-11-30 19:05:34
,wl-rdm,50,189006,0.0-6.42-0.42,0.0,50.0,,,,,,,[],,,,,,50.0,1.0,u,0.0,False,622.0000001192093,38.0,60.0,40.0,False,,297.36975698091095,[],"[683, 384]",ColorTask,13.0,43.0,,,HRV,HRV_0210,2022-11-30 19:05:34
,wl-rdm,51,190886,0.0-6.43-0.43,0.0,51.0,,,,,,,[],,,,,,73.6,1.0,i,1.0,True,574.3999999761581,35.0,60.0,40.0,False,,212.79599121283903,[],"[683, 384]",ColorTask,14.0,44.0,,,HRV,HRV_0210,2022-11-30 19:05:34
,wl-rdm,52,193435,0.0-6.44-0.44,0.0,52.0,,,,,,,[],,,,,,56.4,0.0,u,0.0,True,1270.7000000476837,65.0,60.0,40.0,False,,211.31300187209172,[],"[683, 384]",ColorTask,15.0,45.0,,,HRV,HRV_0210,2022-11-30 19:05:34
,wl-rdm,53,195350,0.0-6.45-0.45,0.0,53.0,,,,,,,[],,,,,,73.6,0.0,u,0.0,True,506.2999999523163,31.0,60.0,40.0,False,,326.77247631783155,[],"[683, 384]",ColorTask,16.0,46.0,,,HRV,HRV_0210,2022-11-30 19:05:34
,wl-rdm,54,197302,0.0-6.46-0.46,0.0,54.0,,,,,,,[],,,,,,53.2,0.0,u,0.0,True,647.5,39.0,60.0,40.0,False,,225.2115727888545,[],"[683, 384]",ColorTask,17.0,47.0,,,HRV,HRV_0210,2022-11-30 19:05:34
,wl-rdm,55,199317,0.0-6.47-0.47,0.0,55.0,,,,,,,[],,,,,,50.0,1.0,u,0.0,False,628.6999999284744,38.0,60.0,40.0,False,,306.6831197577291,[],"[683, 384]",ColorTask,16.0,48.0,,,HRV,HRV_0210,2022-11-30 19:05:34
,wl-rdm,56,203650,0.0-6.48-0.48,0.0,55.0,,,,,,,[],,,,,,73.6,0.0,i,,,3175.6999999284744,173.0,60.0,40.0,True,RT_timeout ,234.71957820918357,[],"[683, 384]",ColorTask,15.0,49.0,,,HRV,HRV_0210,2022-11-30 19:05:34
,wl-rdm,57,205104,0.0-6.49-0.49,0.0,55.0,,,,,,,[],,,,,,53.2,0.0,i,1.0,False,47.10000002384186,3.0,60.0,40.0,True,too_early ,347.93411617103754,[],"[683, 384]",ColorTask,14.0,50.0,,,HRV,HRV_0210,2022-11-30 19:05:34
,wl-rdm,58,207052,0.0-6.50-0.50,0.0,56.0,,,,,,,[],,,,,,73.6,1.0,i,1.0,True,623.9999998807907,38.0,60.0,40.0,False,,240.06591336847669,[],"[683, 384]",ColorTask,15.0,51.0,,,HRV,HRV_0210,2022-11-30 19:05:34
,wl-rdm,59,208884,0.0-6.51-0.51,0.0,57.0,,,,,,,[],,,,,,87.9,1.0,i,1.0,True,514.3999999761581,31.0,60.0,40.0,False,,252.45117833116612,[],"[683, 384]",ColorTask,16.0,52.0,,,HRV,HRV_0210,2022-11-30 19:05:34
,wl-rdm,60,211484,0.0-6.52-0.52,0.0,58.0,,,,,,,[],,,,,,87.9,0.0,u,0.0,True,1174.0,69.0,60.0,40.0,False,,354.7746181855045,[],"[683, 384]",ColorTask,17.0,53.0,,,HRV,HRV_0210,2022-11-30 19:05:34
,wl-rdm,61,214218,0.0-6.53-0.53,0.0,59.0,,,,,,,[],,,,,,56.4,1.0,i,1.0,True,1417.5,82.0,60.0,40.0,False,,237.3249684191042,[],"[683, 384]",ColorTask,18.0,54.0,,,HRV,HRV_0210,2022-11-30 19:05:34
,wl-rdm,62,216419,0.0-6.54-0.54,0.0,60.0,,,,,,,[],,,,,,56.4,1.0,i,1.0,True,923.7000000476837,56.0,60.0,40.0,False,,203.52800072895658,[],"[683, 384]",ColorTask,19.0,55.0,,,HRV,HRV_0210,2022-11-30 19:05:34
,wl-rdm,63,218601,0.0-6.55-0.55,0.0,61.0,,,,,,,[],,,,,,73.6,1.0,i,1.0,True,861.700000166893,50.0,60.0,40.0,False,,249.4682356874423,[],"[683, 384]",ColorTask,20.0,56.0,,,HRV,HRV_0210,2022-11-30 19:05:34
,wl-rdm,64,220784,0.0-6.56-0.56,0.0,62.0,,,,,,,[],,,,,,56.4,0.0,u,0.0,True,832.0999999046326,49.0,60.0,40.0,False,,277.80562126987763,[],"[683, 384]",ColorTask,21.0,57.0,,,HRV,HRV_0210,2022-11-30 19:05:34
,wl-rdm,65,222926,0.0-6.57-0.57,0.0,63.0,,,,,,,[],,,,,,62.5,0.0,u,0.0,True,716.5,43.0,60.0,40.0,False,,361.9621171731925,[],"[683, 384]",ColorTask,22.0,58.0,,,HRV,HRV_0210,2022-11-30 19:05:34
,wl-rdm,66,224985,0.0-6.58-0.58,0.0,64.0,,,,,,,[],,,,,,73.6,1.0,i,1.0,True,651.7000000476837,39.0,60.0,40.0,False,,343.85477262843216,[],"[683, 384]",ColorTask,23.0,59.0,,,HRV,HRV_0210,2022-11-30 19:05:34
,wl-rdm,67,227171,0.0-6.59-0.59,0.0,65.0,,,,,,,[],,,,,,73.6,0.0,u,0.0,True,799.1000000238419,48.0,60.0,40.0,False,,317.45398549664526,[],"[683, 384]",ColorTask,24.0,60.0,,,HRV,HRV_0210,2022-11-30 19:05:34
,wl-rdm,68,229235,0.0-6.60-0.60,0.0,66.0,,,,,,,[],,,,,,53.2,0.0,u,0.0,True,771.0,45.0,60.0,40.0,False,,216.76161028129854,[],"[683, 384]",ColorTask,25.0,61.0,,,HRV,HRV_0210,2022-11-30 19:05:34
,wl-rdm,69,231734,0.0-6.61-0.61,0.0,67.0,,,,,,,[],,,,,,62.5,1.0,i,1.0,True,1104.6999999284744,61.0,60.0,40.0,False,,323.93984542401677,[],"[683, 384]",ColorTask,26.0,62.0,,,HRV,HRV_0210,2022-11-30 19:05:34
,wl-rdm,70,233968,0.0-6.62-0.62,0.0,68.0,,,,,,,[],,,,,,56.4,0.0,u,0.0,True,934.2999999523163,56.0,60.0,40.0,False,,216.6843495376775,[],"[683, 384]",ColorTask,27.0,63.0,,,HRV,HRV_0210,2022-11-30 19:05:34
,wl-rdm,71,236118,0.0-6.63-0.63,0.0,69.0,,,,,,,[],,,,,,53.2,0.0,u,0.0,True,800.5,49.0,60.0,40.0,False,,244.7006479027867,[],"[683, 384]",ColorTask,28.0,64.0,,,HRV,HRV_0210,2022-11-30 19:05:34
,wl-rdm,72,238201,0.0-6.64-0.64,0.0,70.0,,,,,,,[],,,,,,62.5,0.0,u,0.0,True,783.6000000238419,47.0,60.0,40.0,False,,230.32338583535685,[],"[683, 384]",ColorTask,29.0,65.0,,,HRV,HRV_0210,2022-11-30 19:05:34
,wl-rdm,73,240521,0.0-6.65-0.65,0.0,71.0,,,,,,,[],,,,,,62.5,1.0,i,1.0,True,991.0,56.0,60.0,40.0,False,,271.763326224518,[],"[683, 384]",ColorTask,30.0,66.0,,,HRV,HRV_0210,2022-11-30 19:05:34
,wl-rdm,74,242718,0.0-6.66-0.66,0.0,72.0,,,,,,,[],,,,,,87.9,0.0,u,0.0,True,773.6000000238419,45.0,60.0,40.0,False,,364.0887282423189,[],"[683, 384]",ColorTask,31.0,67.0,,,HRV,HRV_0210,2022-11-30 19:05:34
,wl-rdm,75,244818,0.0-6.67-0.67,0.0,73.0,,,,,,,[],,,,,,50.0,0.0,u,0.0,True,720.2999999523163,44.0,60.0,40.0,False,,304.74681863799634,[],"[683, 384]",ColorTask,32.0,68.0,,,HRV,HRV_0210,2022-11-30 19:05:34
,wl-rdm,76,247001,0.0-6.68-0.68,0.0,74.0,,,,,,,[],,,,,,50.0,1.0,u,0.0,False,854.8000000715256,52.0,60.0,40.0,False,,262.74116163444313,[],"[683, 384]",ColorTask,31.0,69.0,,,HRV,HRV_0210,2022-11-30 19:05:34
,wl-rdm,77,249188,0.0-6.69-0.69,0.0,75.0,,,,,,,[],,,,,,50.0,0.0,i,1.0,False,828.1000000238419,50.0,60.0,40.0,False,,292.6043527778721,[],"[683, 384]",ColorTask,30.0,70.0,,,HRV,HRV_0210,2022-11-30 19:05:34
,wl-rdm,78,251118,0.0-6.70-0.70,0.0,76.0,,,,,,,[],,,,,,53.2,1.0,u,0.0,False,464.6999999284744,28.0,60.0,40.0,False,,391.34748048872626,[],"[683, 384]",ColorTask,29.0,71.0,,,HRV,HRV_0210,2022-11-30 19:05:34
,wl-rdm,79,253069,0.0-6.71-0.71,0.0,77.0,,,,,,,[],,,,,,62.5,1.0,i,1.0,True,591.5,36.0,60.0,40.0,False,,292.7871105865461,[],"[683, 384]",ColorTask,30.0,72.0,,,HRV,HRV_0210,2022-11-30 19:05:34
,wl-rdm,80,255218,0.0-6.72-0.72,0.0,78.0,,,,,,,[],,,,,,73.6,0.0,u,0.0,True,830.5000001192093,50.0,60.0,40.0,False,,249.47427158734286,[],"[683, 384]",ColorTask,31.0,73.0,,,HRV,HRV_0210,2022-11-30 19:05:34
,wl-rdm,81,257535,0.0-6.73-0.73,0.0,79.0,,,,,,,[],,,,,,62.5,0.0,u,0.0,True,833.3999999761581,50.0,60.0,40.0,False,,393.7208373919366,[],"[683, 384]",ColorTask,32.0,74.0,,,HRV,HRV_0210,2022-11-30 19:05:34
,wl-rdm,82,259570,0.0-6.74-0.74,0.0,80.0,,,,,,,[],,,,,,87.9,1.0,i,1.0,True,659.5,40.0,60.0,40.0,False,,296.27304530247113,[],"[683, 384]",ColorTask,33.0,75.0,,,HRV,HRV_0210,2022-11-30 19:05:34
,wl-rdm,83,261870,0.0-6.75-0.75,0.0,81.0,,,,,,,[],,,,,,53.2,0.0,u,0.0,True,857.6000000238419,52.0,60.0,40.0,False,,370.13423997623505,[],"[683, 384]",ColorTask,34.0,76.0,,,HRV,HRV_0210,2022-11-30 19:05:34
,wl-rdm,84,264170,0.0-6.76-0.76,0.0,82.0,,,,,,,[],,,,,,50.0,1.0,i,1.0,True,940.5000001192093,55.0,60.0,40.0,False,,275.34547353560174,[],"[683, 384]",ColorTask,35.0,77.0,,,HRV,HRV_0210,2022-11-30 19:05:34
,wl-rdm,85,266353,0.0-6.77-0.77,0.0,83.0,,,,,,,[],,,,,,50.0,0.0,u,0.0,True,872.7000000476837,53.0,60.0,40.0,False,,232.2297599535775,[],"[683, 384]",ColorTask,36.0,78.0,,,HRV,HRV_0210,2022-11-30 19:05:34
,wl-rdm,86,269002,0.0-6.78-0.78,0.0,84.0,,,,,,,[],,,,,,50.0,0.0,u,0.0,True,1225.1000000238419,71.0,60.0,40.0,False,,281.5025161368773,[],"[683, 384]",ColorTask,37.0,79.0,,,HRV,HRV_0210,2022-11-30 19:05:34
,wl-rdm,87,271586,0.0-6.79-0.79,0.0,85.0,,,,,,,[],,,,,,53.2,1.0,u,0.0,False,1190.1999999284744,72.0,60.0,40.0,False,,326.8102005984573,[],"[683, 384]",ColorTask,36.0,80.0,,,HRV,HRV_0210,2022-11-30 19:05:34
,wl-rdm,88,273586,0.0-6.80-0.80,0.0,86.0,,,,,,,[],,,,,,73.6,1.0,i,1.0,True,664.2999999523163,40.0,60.0,40.0,False,,254.78036984640445,[],"[683, 384]",ColorTask,37.0,81.0,,,HRV,HRV_0210,2022-11-30 19:05:34
,wl-rdm,89,275917,0.0-6.81-0.81,0.0,87.0,,,,,,,[],,,,,,62.5,0.0,u,0.0,True,870.5999999046326,51.0,60.0,40.0,False,,379.8398200189188,[],"[683, 384]",ColorTask,38.0,82.0,,,HRV,HRV_0210,2022-11-30 19:05:34
,wl-rdm,90,278105,0.0-6.82-0.82,0.0,88.0,,,,,,,[],,,,,,56.4,1.0,i,1.0,True,889.2999999523163,53.0,60.0,40.0,False,,222.4900246699463,[],"[683, 384]",ColorTask,39.0,83.0,,,HRV,HRV_0210,2022-11-30 19:05:34
,wl-rdm,91,280566,0.0-6.83-0.83,0.0,89.0,,,,,,,[],,,,,,73.6,0.0,u,0.0,True,1004.8000000715256,61.0,60.0,40.0,False,,340.3869139504774,[],"[683, 384]",ColorTask,40.0,84.0,,,HRV,HRV_0210,2022-11-30 19:05:34
,wl-rdm,92,282688,0.0-6.84-0.84,0.0,90.0,,,,,,,[],,,,,,56.4,1.0,u,0.0,False,823.5,50.0,60.0,40.0,False,,223.73064927027863,[],"[683, 384]",ColorTask,39.0,85.0,,,HRV,HRV_0210,2022-11-30 19:05:34
,wl-rdm,93,284569,0.0-6.85-0.85,0.0,91.0,,,,,,,[],,,,,,56.4,0.0,i,1.0,False,504.10000002384186,31.0,60.0,40.0,False,,311.9586542666487,[],"[683, 384]",ColorTask,38.0,86.0,,,HRV,HRV_0210,2022-11-30 19:05:34
,wl-rdm,94,286138,0.0-6.86-0.86,0.0,92.0,,,,,,,[],,,,,,87.9,1.0,i,1.0,True,145.09999990463257,9.0,60.0,40.0,False,,343.6406884895855,[],"[683, 384]",ColorTask,39.0,87.0,,,HRV,HRV_0210,2022-11-30 19:05:34
,wl-rdm,95,288286,0.0-6.87-0.87,0.0,93.0,,,,,,,[],,,,,,53.2,0.0,i,1.0,False,677.7999999523163,41.0,60.0,40.0,False,,396.9570816590797,[],"[683, 384]",ColorTask,38.0,88.0,,,HRV,HRV_0210,2022-11-30 19:05:34
,wl-rdm,96,290103,0.0-6.88-0.88,0.0,94.0,,,,,,,[],,,,,,62.5,1.0,u,0.0,False,412.5,25.0,60.0,40.0,False,,328.44428447497523,[],"[683, 384]",ColorTask,37.0,89.0,,,HRV,HRV_0210,2022-11-30 19:05:34
,wl-rdm,97,291419,0.0-6.89-0.89,0.0,94.0,,,,,,,[],,,,,,87.9,0.0,i,1.0,False,17.299999952316284,2.0,60.0,40.0,True,too_early ,229.63365226061228,[],"[683, 384]",ColorTask,36.0,90.0,,,HRV,HRV_0210,2022-11-30 19:05:34
,wl-rdm,98,292536,0.0-6.90-0.90,0.0,94.0,,,,,,,[],,,,,,87.9,1.0,u,,,584.6000000238419,0.0,60.0,40.0,True,too_early ,278.2179760588043,[],"[683, 384]",ColorTask,35.0,91.0,,,HRV,HRV_0210,2022-11-30 19:05:34
,wl-rdm,99,295171,0.0-6.91-0.91,0.0,95.0,,,,,,,[],,,,,,53.2,1.0,u,0.0,False,1254.2999999523163,66.0,60.0,40.0,False,,302.2108957462573,[],"[683, 384]",ColorTask,34.0,92.0,,,HRV,HRV_0210,2022-11-30 19:05:34
,wl-rdm,100,297022,0.0-6.92-0.92,0.0,96.0,,,,,,,[],,,,,,87.9,1.0,i,1.0,True,540.7999999523163,32.0,60.0,40.0,False,,234.2521272317432,[],"[683, 384]",ColorTask,35.0,93.0,,,HRV,HRV_0210,2022-11-30 19:05:34
,wl-rdm,101,299805,0.0-6.93-0.93,0.0,97.0,,,,,,,[],,,,,,62.5,0.0,u,0.0,True,1429.6000000238419,87.0,60.0,40.0,False,,264.70507068170116,[],"[683, 384]",ColorTask,36.0,94.0,,,HRV,HRV_0210,2022-11-30 19:05:34
,wl-rdm,102,302420,0.0-6.94-0.94,0.0,98.0,,,,,,,[],,,,,,56.4,1.0,i,1.0,True,1213.7000000476837,73.0,60.0,40.0,False,,348.3765039624708,[],"[683, 384]",ColorTask,37.0,95.0,,,HRV,HRV_0210,2022-11-30 19:05:34
,wl-rdm,103,304571,0.0-6.95-0.95,0.0,99.0,,,,,,,[],,,,,,56.4,0.0,i,1.0,False,702.3999999761581,40.0,60.0,40.0,False,,360.14392679383843,[],"[683, 384]",ColorTask,36.0,96.0,,,HRV,HRV_0210,2022-11-30 19:05:34
,wl-rdm,104,307087,0.0-6.96-0.96,0.0,100.0,,,,,,,[],,,,,,50.0,0.0,u,0.0,True,1087.3999999761581,66.0,60.0,40.0,False,,342.75576330490287,[],"[683, 384]",ColorTask,37.0,97.0,,,HRV,HRV_0210,2022-11-30 19:05:34
,wl-rdm,105,309405,0.0-6.97-0.97,0.0,101.0,,,,,,,[],,,,,,53.2,1.0,i,1.0,True,915.7999999523163,55.0,60.0,40.0,False,,327.0530969388991,[],"[683, 384]",ColorTask,38.0,98.0,,,HRV,HRV_0210,2022-11-30 19:05:34
,wl-rdm,106,311988,0.0-6.98-0.98,0.0,102.0,,,,,,,[],,,,,,87.9,1.0,u,0.0,False,1172.7000000476837,71.0,60.0,40.0,False,,318.34611365664114,[],"[683, 384]",ColorTask,37.0,99.0,,,HRV,HRV_0210,2022-11-30 19:05:34
,wl-rdm,107,313875,0.0-6.99-0.99,0.0,103.0,,,,,,,[],,,,,,50.0,0.0,i,1.0,False,450.2000000476837,23.0,60.0,40.0,False,,351.43069964138925,[],"[683, 384]",ColorTask,36.0,100.0,,,HRV,HRV_0210,2022-11-30 19:05:34
,wl-rdm,108,315638,0.0-6.100-0.100,0.0,104.0,,,,,,,[],,,,,,53.2,0.0,u,0.0,True,494.39999985694885,28.0,60.0,40.0,False,,211.4439299699981,[],"[683, 384]",ColorTask,37.0,101.0,,,HRV,HRV_0210,2022-11-30 19:05:34
,wl-rdm,109,317487,0.0-6.101-0.101,0.0,105.0,,,,,,,[],,,,,,87.9,1.0,u,0.0,False,522.1000000238419,32.0,60.0,40.0,False,,256.5680538450039,[],"[683, 384]",ColorTask,36.0,102.0,,,HRV,HRV_0210,2022-11-30 19:05:34
,wl-rdm,110,319504,0.0-6.102-0.102,0.0,106.0,,,,,,,[],,,,,,87.9,0.0,i,1.0,False,573.4999998807907,32.0,60.0,40.0,False,,376.06632288614236,[],"[683, 384]",ColorTask,35.0,103.0,,,HRV,HRV_0210,2022-11-30 19:05:34
,wl-rdm,111,321821,0.0-6.103-0.103,0.0,107.0,,,,,,,[],,,,,,87.9,0.0,u,0.0,True,941.7999999523163,57.0,60.0,40.0,False,,302.0744371062001,[],"[683, 384]",ColorTask,36.0,104.0,,,HRV,HRV_0210,2022-11-30 19:05:34
,wl-rdm,112,323822,0.0-6.104-0.104,0.0,108.0,,,,,,,[],,,,,,53.2,1.0,u,0.0,False,648.7999999523163,37.0,60.0,40.0,False,,289.44068059942987,[],"[683, 384]",ColorTask,35.0,105.0,,,HRV,HRV_0210,2022-11-30 19:05:34
,wl-rdm,113,325587,0.0-6.105-0.105,0.0,109.0,,,,,,,[],,,,,,87.9,0.0,i,1.0,False,441.5,27.0,60.0,40.0,False,,279.9666154756743,[],"[683, 384]",ColorTask,34.0,106.0,,,HRV,HRV_0210,2022-11-30 19:05:34
,wl-rdm,114,327388,0.0-6.106-0.106,0.0,110.0,,,,,,,[],,,,,,56.4,0.0,u,0.0,True,409.10000002384186,25.0,60.0,40.0,False,,308.87948603626626,[],"[683, 384]",ColorTask,35.0,107.0,,,HRV,HRV_0210,2022-11-30 19:05:34
,wl-rdm,115,329305,0.0-6.107-0.107,0.0,111.0,,,,,,,[],,,,,,87.9,0.0,u,0.0,True,571.6999999284744,34.0,60.0,40.0,False,,266.1355738651237,[],"[683, 384]",ColorTask,36.0,108.0,,,HRV,HRV_0210,2022-11-30 19:05:34
,wl-rdm,116,331389,0.0-6.108-0.108,0.0,112.0,,,,,,,[],,,,,,87.9,1.0,i,1.0,True,806.1000000238419,47.0,60.0,40.0,False,,211.94848843245913,[],"[683, 384]",ColorTask,37.0,109.0,,,HRV,HRV_0210,2022-11-30 19:05:34
,wl-rdm,117,333739,0.0-6.109-0.109,0.0,113.0,,,,,,,[],,,,,,50.0,0.0,i,1.0,False,991.0,58.0,60.0,40.0,False,,289.2621281792501,[],"[683, 384]",ColorTask,36.0,110.0,,,HRV,HRV_0210,2022-11-30 19:05:34
,wl-rdm,118,335555,0.0-6.110-0.110,0.0,114.0,,,,,,,[],,,,,,50.0,1.0,u,0.0,False,379.39999997615814,23.0,60.0,40.0,False,,352.43109663228245,[],"[683, 384]",ColorTask,35.0,111.0,,,HRV,HRV_0210,2022-11-30 19:05:34
,wl-rdm,119,337254,0.0-6.111-0.111,0.0,115.0,,,,,,,[],,,,,,50.0,1.0,i,1.0,True,426.2000000476837,26.0,60.0,40.0,False,,204.3543466128559,[],"[683, 384]",ColorTask,36.0,112.0,,,HRV,HRV_0210,2022-11-30 19:05:34
,wl-rdm,120,339471,0.0-6.112-0.112,0.0,116.0,,,,,,,[],,,,,,62.5,1.0,u,0.0,False,936.5,57.0,60.0,40.0,False,,207.63501327615322,[],"[683, 384]",ColorTask,35.0,113.0,,,HRV,HRV_0210,2022-11-30 19:05:34
,wl-html-keyboard-response,121,347050,0.0-7.0-0.0,1.0,117.0,,,,,,,,5565.100000023842,1.0,0,,,,,,,,,,,,,,,,,,,,,,HRV,HRV_0210,2022-11-30 19:05:34
,wl-rdm,122,349138,0.0-8.0-0.0,1.0,118.0,,,,,,,[],,,,,,56.4,0.0,u,0.0,True,781.799999833107,46.0,60.0,40.0,False,,245.5147350308246,[],"[683, 384]",ColorTask,36.0,1.0,,,HRV,HRV_0210,2022-11-30 19:05:34
,wl-rdm,123,351175,0.0-8.1-0.1,1.0,119.0,,,,,,,[],,,,,,62.5,0.0,u,0.0,True,671.2999999523163,41.0,60.0,40.0,False,,241.28883006809482,[],"[683, 384]",ColorTask,37.0,2.0,,,HRV,HRV_0210,2022-11-30 19:05:34
,wl-rdm,124,352990,0.0-8.2-0.2,1.0,120.0,,,,,,,[],,,,,,87.9,0.0,u,0.0,True,537.6999999284744,30.0,60.0,40.0,False,,229.71677147768906,[],"[683, 384]",ColorTask,38.0,3.0,,,HRV,HRV_0210,2022-11-30 19:05:34
,wl-rdm,125,355072,0.0-8.3-0.3,1.0,121.0,,,,,,,[],,,,,,50.0,0.0,u,0.0,True,635.6000000238419,38.0,60.0,40.0,False,,371.1703393283525,[],"[683, 384]",ColorTask,39.0,4.0,,,HRV,HRV_0210,2022-11-30 19:05:34
,wl-rdm,126,357405,0.0-8.4-0.4,1.0,122.0,,,,,,,[],,,,,,50.0,0.0,u,0.0,True,911.2000000476837,55.0,60.0,40.0,False,,359.1206352971901,[],"[683, 384]",ColorTask,40.0,5.0,,,HRV,HRV_0210,2022-11-30 19:05:34
,wl-rdm,127,359505,0.0-8.5-0.5,1.0,123.0,,,,,,,[],,,,,,50.0,1.0,u,0.0,False,723.9000000953674,44.0,60.0,40.0,False,,285.6270233500933,[],"[683, 384]",ColorTask,39.0,6.0,,,HRV,HRV_0210,2022-11-30 19:05:34
,wl-rdm,128,361857,0.0-8.6-0.6,1.0,124.0,,,,,,,[],,,,,,56.4,0.0,u,0.0,True,944.6999999284744,56.0,60.0,40.0,False,,349.1888708178127,[],"[683, 384]",ColorTask,40.0,7.0,,,HRV,HRV_0210,2022-11-30 19:05:34
,wl-rdm,129,363959,0.0-8.7-0.7,1.0,125.0,,,,,,,[],,,,,,53.2,0.0,u,0.0,True,652.2000000476837,39.0,60.0,40.0,False,,377.9212794654744,[],"[683, 384]",ColorTask,41.0,8.0,,,HRV,HRV_0210,2022-11-30 19:05:34
,wl-rdm,130,366122,0.0-8.8-0.8,1.0,126.0,,,,,,,[],,,,,,87.9,1.0,i,1.0,True,883.1000000238419,54.0,60.0,40.0,False,,232.9345096884008,[],"[683, 384]",ColorTask,42.0,9.0,,,HRV,HRV_0210,2022-11-30 19:05:34
,wl-rdm,131,368256,0.0-8.9-0.9,1.0,127.0,,,,,,,[],,,,,,62.5,0.0,u,0.0,True,828.3000000715256,50.0,60.0,40.0,False,,235.90276686324495,[],"[683, 384]",ColorTask,43.0,10.0,,,HRV,HRV_0210,2022-11-30 19:05:34
,wl-rdm,132,370507,0.0-8.10-0.10,1.0,128.0,,,,,,,[],,,,,,56.4,1.0,u,0.0,False,860.5,52.0,60.0,40.0,False,,309.34451303268094,[],"[683, 384]",ColorTask,42.0,11.0,,,HRV,HRV_0210,2022-11-30 19:05:34
,wl-rdm,133,372582,0.0-8.11-0.11,1.0,129.0,,,,,,,[],,,,,,62.5,0.0,u,0.0,True,692.7999999523163,41.0,60.0,40.0,False,,308.9520924099677,[],"[683, 384]",ColorTask,43.0,12.0,,,HRV,HRV_0210,2022-11-30 19:05:34
,wl-rdm,134,374556,0.0-8.12-0.12,1.0,130.0,,,,,,,[],,,,,,53.2,1.0,u,0.0,False,637.7000000476837,33.0,60.0,40.0,False,,263.7355486547315,[],"[683, 384]",ColorTask,42.0,13.0,,,HRV,HRV_0210,2022-11-30 19:05:34
,wl-rdm,135,376644,0.0-8.13-0.13,1.0,131.0,,,,,,,[],,,,,,53.2,0.0,u,0.0,True,644.4999998807907,39.0,60.0,40.0,False,,364.0427574400141,[],"[683, 384]",ColorTask,43.0,14.0,,,HRV,HRV_0210,2022-11-30 19:05:34
,wl-rdm,136,378690,0.0-8.14-0.14,1.0,132.0,,,,,,,[],,,,,,87.9,1.0,i,1.0,True,705.6999999284744,43.0,60.0,40.0,False,,261.3777559729251,[],"[683, 384]",ColorTask,44.0,15.0,,,HRV,HRV_0210,2022-11-30 19:05:34
,wl-rdm,137,380822,0.0-8.15-0.15,1.0,133.0,,,,,,,[],,,,,,53.2,1.0,i,1.0,True,784.3999999761581,46.0,60.0,40.0,False,,282.9045527035043,[],"[683, 384]",ColorTask,45.0,16.0,,,HRV,HRV_0210,2022-11-30 19:05:34
,wl-rdm,138,382739,0.0-8.16-0.16,1.0,134.0,,,,,,,[],,,,,,53.2,0.0,i,1.0,False,583.5,35.0,60.0,40.0,False,,262.61261251199323,[],"[683, 384]",ColorTask,44.0,17.0,,,HRV,HRV_0210,2022-11-30 19:05:34
,wl-rdm,139,384958,0.0-8.17-0.17,1.0,135.0,,,,,,,[],,,,,,62.5,0.0,u,0.0,True,943.2000000476837,50.0,60.0,40.0,False,,204.92158145622952,[],"[683, 384]",ColorTask,45.0,18.0,,,HRV,HRV_0210,2022-11-30 19:05:34
,wl-rdm,140,387007,0.0-8.18-0.18,1.0,136.0,,,,,,,[],,,,,,62.5,1.0,u,0.0,False,657.3000000715256,40.0,60.0,40.0,False,,311.8058555784803,[],"[683, 384]",ColorTask,44.0,19.0,,,HRV,HRV_0210,2022-11-30 19:05:34
,wl-rdm,141,388807,0.0-8.19-0.19,1.0,137.0,,,,,,,[],,,,,,56.4,1.0,u,0.0,False,465.09999990463257,21.0,60.0,40.0,False,,233.89344511916974,[],"[683, 384]",ColorTask,43.0,20.0,,,HRV,HRV_0210,2022-11-30 19:05:34
,wl-rdm,142,390401,0.0-8.20-0.20,1.0,138.0,,,,,,,[],,,,,,56.4,1.0,i,1.0,True,122.89999997615814,9.0,60.0,40.0,False,,281.67173850329647,[],"[683, 384]",ColorTask,44.0,21.0,,,HRV,HRV_0210,2022-11-30 19:05:34
,wl-rdm,143,392040,0.0-8.21-0.21,1.0,139.0,,,,,,,[],,,,,,62.5,1.0,i,1.0,True,341.7000000476837,21.0,60.0,40.0,False,,221.3832469028021,[],"[683, 384]",ColorTask,45.0,22.0,,,HRV,HRV_0210,2022-11-30 19:05:34
,wl-rdm,144,393725,0.0-8.22-0.22,1.0,140.0,,,,,,,[],,,,,,73.6,1.0,i,1.0,True,375.8000000715256,23.0,60.0,40.0,False,,222.44413675130858,[],"[683, 384]",ColorTask,46.0,23.0,,,HRV,HRV_0210,2022-11-30 19:05:34
,wl-rdm,145,395673,0.0-8.23-0.23,1.0,141.0,,,,,,,[],,,,,,50.0,1.0,i,1.0,True,488.90000009536743,30.0,60.0,40.0,False,,385.00625805136895,[],"[683, 384]",ColorTask,47.0,24.0,,,HRV,HRV_0210,2022-11-30 19:05:34
,wl-rdm,146,397774,0.0-8.24-0.24,1.0,142.0,,,,,,,[],,,,,,87.9,1.0,i,1.0,True,788.0,48.0,60.0,40.0,False,,223.26816638296933,[],"[683, 384]",ColorTask,48.0,25.0,,,HRV,HRV_0210,2022-11-30 19:05:34
,wl-rdm,147,399773,0.0-8.25-0.25,1.0,143.0,,,,,,,[],,,,,,50.0,0.0,u,0.0,True,673.3000000715256,37.0,60.0,40.0,False,,274.1060166092925,[],"[683, 384]",ColorTask,49.0,26.0,,,HRV,HRV_0210,2022-11-30 19:05:34
,wl-rdm,148,401806,0.0-8.26-0.26,1.0,144.0,,,,,,,[],,,,,,62.5,1.0,u,0.0,False,691.5,42.0,60.0,40.0,False,,266.16017237243244,[],"[683, 384]",ColorTask,48.0,27.0,,,HRV,HRV_0210,2022-11-30 19:05:34
,wl-rdm,149,403743,0.0-8.27-0.27,1.0,145.0,,,,,,,[],,,,,,53.2,1.0,i,1.0,True,631.8999999761581,38.0,60.0,40.0,False,,242.31319195428455,[],"[683, 384]",ColorTask,49.0,28.0,,,HRV,HRV_0210,2022-11-30 19:05:34
,wl-rdm,150,405973,0.0-8.28-0.28,1.0,146.0,,,,,,,[],,,,,,56.4,0.0,u,0.0,True,839.3999999761581,51.0,60.0,40.0,False,,302.125561144117,[],"[683, 384]",ColorTask,50.0,29.0,,,HRV,HRV_0210,2022-11-30 19:05:34
,wl-rdm,151,408106,0.0-8.29-0.29,1.0,147.0,,,,,,,[],,,,,,73.6,0.0,u,0.0,True,777.7999999523163,46.0,60.0,40.0,False,,305.51916073018367,[],"[683, 384]",ColorTask,51.0,30.0,,,HRV,HRV_0210,2022-11-30 19:05:34
,wl-rdm,152,410242,0.0-8.30-0.30,1.0,148.0,,,,,,,[],,,,,,87.9,1.0,i,1.0,True,668.6000000238419,41.0,60.0,40.0,False,,368.11056958484926,[],"[683, 384]",ColorTask,52.0,31.0,,,HRV,HRV_0210,2022-11-30 19:05:34
,wl-rdm,153,412312,0.0-8.31-0.31,1.0,149.0,,,,,,,[],,,,,,73.6,1.0,i,1.0,True,798.2999999523163,48.0,60.0,40.0,False,,229.2435331367072,[],"[683, 384]",ColorTask,53.0,32.0,,,HRV,HRV_0210,2022-11-30 19:05:34
,wl-rdm,154,414592,0.0-8.32-0.32,1.0,150.0,,,,,,,[],,,,,,56.4,0.0,u,0.0,True,852.4999998807907,52.0,60.0,40.0,False,,369.2460662971175,[],"[683, 384]",ColorTask,54.0,33.0,,,HRV,HRV_0210,2022-11-30 19:05:34
,wl-rdm,155,416930,0.0-8.33-0.33,1.0,151.0,,,,,,,[],,,,,,56.4,1.0,u,0.0,False,927.7000000476837,50.0,60.0,40.0,False,,316.7901130408663,[],"[683, 384]",ColorTask,53.0,34.0,,,HRV,HRV_0210,2022-11-30 19:05:34
,wl-rdm,156,419057,0.0-8.34-0.34,1.0,152.0,,,,,,,[],,,,,,87.9,1.0,i,1.0,True,681.5,35.0,60.0,40.0,False,,395.44097578733704,[],"[683, 384]",ColorTask,54.0,35.0,,,HRV,HRV_0210,2022-11-30 19:05:34
,wl-rdm,157,421174,0.0-8.35-0.35,1.0,153.0,,,,,,,[],,,,,,73.6,0.0,u,0.0,True,770.3999998569489,46.0,60.0,40.0,False,,267.35643157379724,[],"[683, 384]",ColorTask,55.0,36.0,,,HRV,HRV_0210,2022-11-30 19:05:34
,wl-rdm,158,423543,0.0-8.36-0.36,1.0,154.0,,,,,,,[],,,,,,53.2,1.0,i,1.0,True,992.8000000715256,60.0,60.0,40.0,False,,316.23946269179055,[],"[683, 384]",ColorTask,56.0,37.0,,,HRV,HRV_0210,2022-11-30 19:05:34
,wl-rdm,159,425624,0.0-8.37-0.37,1.0,155.0,,,,,,,[],,,,,,50.0,1.0,u,0.0,False,737.1000000238419,45.0,60.0,40.0,False,,254.39920233731164,[],"[683, 384]",ColorTask,55.0,38.0,,,HRV,HRV_0210,2022-11-30 19:05:34
,wl-rdm,160,427741,0.0-8.38-0.38,1.0,156.0,,,,,,,[],,,,,,53.2,0.0,u,0.0,True,789.5,41.0,60.0,40.0,False,,234.25708720785505,[],"[683, 384]",ColorTask,56.0,39.0,,,HRV,HRV_0210,2022-11-30 19:05:34
,wl-rdm,161,429826,0.0-8.39-0.39,1.0,157.0,,,,,,,[],,,,,,73.6,1.0,i,1.0,True,621.8999999761581,38.0,60.0,40.0,False,,379.01706384793755,[],"[683, 384]",ColorTask,57.0,40.0,,,HRV,HRV_0210,2022-11-30 19:05:34
,wl-rdm,162,432158,0.0-8.40-0.40,1.0,158.0,,,,,,,[],,,,,,62.5,0.0,u,0.0,True,873.7000000476837,53.0,60.0,40.0,False,,391.0819152534466,[],"[683, 384]",ColorTask,58.0,41.0,,,HRV,HRV_0210,2022-11-30 19:05:34
,wl-rdm,163,434241,0.0-8.41-0.41,1.0,159.0,,,,,,,[],,,,,,50.0,0.0,i,1.0,False,730.6999999284744,44.0,60.0,40.0,False,,273.55615291980865,[],"[683, 384]",ColorTask,57.0,42.0,,,HRV,HRV_0210,2022-11-30 19:05:34
,wl-rdm,164,436457,0.0-8.42-0.42,1.0,160.0,,,,,,,[],,,,,,73.6,1.0,i,1.0,True,770.7000000476837,41.0,60.0,40.0,False,,376.81265581647415,[],"[683, 384]",ColorTask,58.0,43.0,,,HRV,HRV_0210,2022-11-30 19:05:34
,wl-rdm,165,438409,0.0-8.43-0.43,1.0,161.0,,,,,,,[],,,,,,62.5,1.0,i,1.0,True,654.7000000476837,40.0,60.0,40.0,False,,233.1907650769686,[],"[683, 384]",ColorTask,59.0,44.0,,,HRV,HRV_0210,2022-11-30 19:05:34
,wl-rdm,166,440426,0.0-8.44-0.44,1.0,162.0,,,,,,,[],,,,,,87.9,0.0,u,0.0,True,640.8000000715256,39.0,60.0,40.0,False,,307.05310983811864,[],"[683, 384]",ColorTask,60.0,45.0,,,HRV,HRV_0210,2022-11-30 19:05:34
,wl-rdm,167,442358,0.0-8.45-0.45,1.0,163.0,,,,,,,[],,,,,,73.6,0.0,u,0.0,True,593.0,36.0,60.0,40.0,False,,251.51307724924288,[],"[683, 384]",ColorTask,61.0,46.0,,,HRV,HRV_0210,2022-11-30 19:05:34
,wl-rdm,168,444341,0.0-8.46-0.46,1.0,164.0,,,,,,,[],,,,,,50.0,0.0,u,0.0,True,678.3999999761581,39.0,60.0,40.0,False,,222.62513737649226,[],"[683, 384]",ColorTask,62.0,47.0,,,HRV,HRV_0210,2022-11-30 19:05:34
,wl-rdm,169,446279,0.0-8.47-0.47,1.0,165.0,,,,,,,[],,,,,,87.9,0.0,u,0.0,True,533.7999999523163,32.0,60.0,40.0,False,,323.7473321867824,[],"[683, 384]",ColorTask,63.0,48.0,,,HRV,HRV_0210,2022-11-30 19:05:34
,wl-rdm,170,448208,0.0-8.48-0.48,1.0,166.0,,,,,,,[],,,,,,56.4,0.0,u,0.0,True,547.3999998569489,33.0,60.0,40.0,False,,307.20911706190157,[],"[683, 384]",ColorTask,64.0,49.0,,,HRV,HRV_0210,2022-11-30 19:05:34
,wl-rdm,171,450076,0.0-8.49-0.49,1.0,167.0,,,,,,,[],,,,,,87.9,0.0,u,0.0,True,494.39999997615814,30.0,60.0,40.0,False,,287.37758521467157,[],"[683, 384]",ColorTask,65.0,50.0,,,HRV,HRV_0210,2022-11-30 19:05:34
,wl-rdm,172,451975,0.0-8.50-0.50,1.0,168.0,,,,,,,[],,,,,,73.6,0.0,u,0.0,True,568.7999999523163,35.0,60.0,40.0,False,,219.87892907574516,[],"[683, 384]",ColorTask,66.0,51.0,,,HRV,HRV_0210,2022-11-30 19:05:34
,wl-rdm,173,454391,0.0-8.51-0.51,1.0,169.0,,,,,,,[],,,,,,62.5,1.0,u,0.0,False,1093.0,58.0,60.0,40.0,False,,257.3101037604582,[],"[683, 384]",ColorTask,65.0,52.0,,,HRV,HRV_0210,2022-11-30 19:05:34
,wl-rdm,174,456758,0.0-8.52-0.52,1.0,170.0,,,,,,,[],,,,,,62.5,1.0,u,0.0,False,890.5,53.0,60.0,40.0,False,,389.5375246950647,[],"[683, 384]",ColorTask,64.0,53.0,,,HRV,HRV_0210,2022-11-30 19:05:34
,wl-rdm,175,459058,0.0-8.53-0.53,1.0,171.0,,,,,,,[],,,,,,56.4,0.0,u,0.0,True,897.8999999761581,54.0,60.0,40.0,False,,320.9843578779757,[],"[683, 384]",ColorTask,65.0,54.0,,,HRV,HRV_0210,2022-11-30 19:05:34
,wl-rdm,176,461181,0.0-8.54-0.54,1.0,172.0,,,,,,,[],,,,,,73.6,1.0,i,1.0,True,592.8000000715256,37.0,60.0,40.0,False,,388.2981042558365,[],"[683, 384]",ColorTask,66.0,55.0,,,HRV,HRV_0210,2022-11-30 19:05:34
,wl-rdm,177,463206,0.0-8.55-0.55,1.0,173.0,,,,,,,[],,,,,,62.5,1.0,i,1.0,True,660.8999998569489,36.0,60.0,40.0,False,,244.60474259164252,[],"[683, 384]",ColorTask,67.0,56.0,,,HRV,HRV_0210,2022-11-30 19:05:34
,wl-rdm,178,465059,0.0-8.56-0.56,1.0,174.0,,,,,,,[],,,,,,53.2,1.0,i,1.0,True,563.7999999523163,34.0,60.0,40.0,False,,221.96103617578117,[],"[683, 384]",ColorTask,68.0,57.0,,,HRV,HRV_0210,2022-11-30 19:05:34
,wl-rdm,179,466909,0.0-8.57-0.57,1.0,175.0,,,,,,,[],,,,,,62.5,0.0,i,1.0,False,467.89999985694885,28.0,60.0,40.0,False,,326.1464380817275,[],"[683, 384]",ColorTask,67.0,58.0,,,HRV,HRV_0210,2022-11-30 19:05:34
,wl-rdm,180,469060,0.0-8.58-0.58,1.0,176.0,,,,,,,[],,,,,,56.4,1.0,u,0.0,False,742.3999999761581,45.0,60.0,40.0,False,,317.9884924039581,[],"[683, 384]",ColorTask,66.0,59.0,,,HRV,HRV_0210,2022-11-30 19:05:34
,wl-rdm,181,471125,0.0-8.59-0.59,1.0,177.0,,,,,,,[],,,,,,62.5,1.0,i,1.0,True,773.4999998807907,47.0,60.0,40.0,False,,213.9566944513198,[],"[683, 384]",ColorTask,67.0,60.0,,,HRV,HRV_0210,2022-11-30 19:05:34
,wl-rdm,182,473241,0.0-8.60-0.60,1.0,178.0,,,,,,,[],,,,,,87.9,1.0,i,1.0,True,651.7999999523163,37.0,60.0,40.0,False,,365.45863568484583,[],"[683, 384]",ColorTask,68.0,61.0,,,HRV,HRV_0210,2022-11-30 19:05:34
,wl-rdm,183,475309,0.0-8.61-0.61,1.0,179.0,,,,,,,[],,,,,,53.2,0.0,u,0.0,True,740.0000001192093,45.0,60.0,40.0,False,,245.39509474052076,[],"[683, 384]",ColorTask,69.0,62.0,,,HRV,HRV_0210,2022-11-30 19:05:34
,wl-rdm,184,477292,0.0-8.62-0.62,1.0,180.0,,,,,,,[],,,,,,50.0,0.0,u,0.0,True,694.6999999284744,42.0,60.0,40.0,False,,201.7166583679014,[],"[683, 384]",ColorTask,70.0,63.0,,,HRV,HRV_0210,2022-11-30 19:05:34
,wl-rdm,185,479209,0.0-8.63-0.63,1.0,181.0,,,,,,,[],,,,,,53.2,1.0,u,0.0,False,645.4999998807907,39.0,60.0,40.0,False,,215.01346502034554,[],"[683, 384]",ColorTask,69.0,64.0,,,HRV,HRV_0210,2022-11-30 19:05:34
,wl-rdm,186,481059,0.0-8.64-0.64,1.0,182.0,,,,,,,[],,,,,,53.2,1.0,u,0.0,False,558.2999999523163,34.0,60.0,40.0,False,,207.7430631505709,[],"[683, 384]",ColorTask,68.0,65.0,,,HRV,HRV_0210,2022-11-30 19:05:34
,wl-rdm,187,482808,0.0-8.65-0.65,1.0,183.0,,,,,,,[],,,,,,73.6,1.0,u,0.0,False,373.39999997615814,22.0,60.0,40.0,False,,289.672973726365,[],"[683, 384]",ColorTask,67.0,66.0,,,HRV,HRV_0210,2022-11-30 19:05:34
,wl-rdm,188,484558,0.0-8.66-0.66,1.0,184.0,,,,,,,[],,,,,,62.5,0.0,i,1.0,False,385.7999999523163,23.0,60.0,40.0,False,,284.2676144642726,[],"[683, 384]",ColorTask,66.0,67.0,,,HRV,HRV_0210,2022-11-30 19:05:34
,wl-rdm,189,486109,0.0-8.67-0.67,1.0,185.0,,,,,,,[],,,,,,62.5,0.0,u,0.0,True,161.5000001192093,10.0,60.0,40.0,False,,323.8184926625627,[],"[683, 384]",ColorTask,67.0,68.0,,,HRV,HRV_0210,2022-11-30 19:05:34
,wl-rdm,190,488196,0.0-8.68-0.68,1.0,186.0,,,,,,,[],,,,,,73.6,0.0,u,0.0,True,752.6000000238419,45.0,60.0,40.0,False,,281.2029402030921,[],"[683, 384]",ColorTask,68.0,69.0,,,HRV,HRV_0210,2022-11-30 19:05:34
,wl-rdm,191,490442,0.0-8.69-0.69,1.0,187.0,,,,,,,[],,,,,,56.4,1.0,i,1.0,True,923.3000000715256,56.0,60.0,40.0,False,,238.098779490528,[],"[683, 384]",ColorTask,69.0,70.0,,,HRV,HRV_0210,2022-11-30 19:05:34
,wl-rdm,192,492259,0.0-8.70-0.70,1.0,188.0,,,,,,,[],,,,,,62.5,0.0,i,1.0,False,497.10000002384186,30.0,60.0,40.0,False,,235.31013909238635,[],"[683, 384]",ColorTask,68.0,71.0,,,HRV,HRV_0210,2022-11-30 19:05:34
,wl-rdm,193,494226,0.0-8.71-0.71,1.0,189.0,,,,,,,[],,,,,,50.0,0.0,u,0.0,True,610.5,36.0,60.0,40.0,False,,285.3773811000677,[],"[683, 384]",ColorTask,69.0,72.0,,,HRV,HRV_0210,2022-11-30 19:05:34
,wl-rdm,194,496359,0.0-8.72-0.72,1.0,190.0,,,,,,,[],,,,,,87.9,0.0,u,0.0,True,837.8999999761581,50.0,60.0,40.0,False,,216.27831656098468,[],"[683, 384]",ColorTask,70.0,73.0,,,HRV,HRV_0210,2022-11-30 19:05:34
,wl-rdm,195,498342,0.0-8.73-0.73,1.0,191.0,,,,,,,[],,,,,,53.2,0.0,i,1.0,False,672.6000000238419,41.0,60.0,40.0,False,,240.69516013424035,[],"[683, 384]",ColorTask,69.0,74.0,,,HRV,HRV_0210,2022-11-30 19:05:34
,wl-rdm,196,500559,0.0-8.74-0.74,1.0,192.0,,,,,,,[],,,,,,87.9,1.0,i,1.0,True,852.1999999284744,51.0,60.0,40.0,False,,298.7827892179216,[],"[683, 384]",ColorTask,70.0,75.0,,,HRV,HRV_0210,2022-11-30 19:05:34
,wl-rdm,197,502659,0.0-8.75-0.75,1.0,193.0,,,,,,,[],,,,,,50.0,0.0,i,1.0,False,678.3000000715256,35.0,60.0,40.0,False,,349.4762267010637,[],"[683, 384]",ColorTask,69.0,76.0,,,HRV,HRV_0210,2022-11-30 19:05:34
,wl-rdm,198,504977,0.0-8.76-0.76,1.0,194.0,,,,,,,[],,,,,,56.4,0.0,u,0.0,True,935.9999998807907,56.0,60.0,40.0,False,,296.8756752419233,[],"[683, 384]",ColorTask,70.0,77.0,,,HRV,HRV_0210,2022-11-30 19:05:34
,wl-rdm,199,507293,0.0-8.77-0.77,1.0,195.0,,,,,,,[],,,,,,62.5,1.0,i,1.0,True,1043.5,63.0,60.0,40.0,False,,210.04547562901317,[],"[683, 384]",ColorTask,71.0,78.0,,,HRV,HRV_0210,2022-11-30 19:05:34
,wl-rdm,200,509328,0.0-8.78-0.78,1.0,196.0,,,,,,,[],,,,,,50.0,1.0,u,0.0,False,635.0000001192093,39.0,60.0,40.0,False,,305.4877428151094,[],"[683, 384]",ColorTask,70.0,79.0,,,HRV,HRV_0210,2022-11-30 19:05:34
,wl-rdm,201,511500,0.0-8.79-0.79,1.0,197.0,,,,,,,[],,,,,,73.6,1.0,i,1.0,True,726.4000000953674,44.0,60.0,40.0,False,,372.08800256782206,[],"[683, 384]",ColorTask,71.0,80.0,,,HRV,HRV_0210,2022-11-30 19:05:34
,wl-rdm,202,513659,0.0-8.80-0.80,1.0,198.0,,,,,,,[],,,,,,53.2,0.0,u,0.0,True,764.7999999523163,46.0,60.0,40.0,False,,282.1855175114482,[],"[683, 384]",ColorTask,72.0,81.0,,,HRV,HRV_0210,2022-11-30 19:05:34
,wl-rdm,203,515826,0.0-8.81-0.81,1.0,199.0,,,,,,,[],,,,,,73.6,0.0,u,0.0,True,823.799999833107,50.0,60.0,40.0,False,,272.75252516952906,[],"[683, 384]",ColorTask,73.0,82.0,,,HRV,HRV_0210,2022-11-30 19:05:34
,wl-rdm,204,517765,0.0-8.82-0.82,1.0,200.0,,,,,,,[],,,,,,56.4,0.0,u,0.0,True,608.7000000476837,37.0,60.0,40.0,False,,247.76718364577266,[],"[683, 384]",ColorTask,74.0,83.0,,,HRV,HRV_0210,2022-11-30 19:05:34
,wl-rdm,205,519511,0.0-8.83-0.83,1.0,201.0,,,,,,,[],,,,,,87.9,0.0,u,0.0,True,480.40000009536743,29.0,60.0,40.0,False,,205.54045525552894,[],"[683, 384]",ColorTask,75.0,84.0,,,HRV,HRV_0210,2022-11-30 19:05:34
,wl-rdm,206,521613,0.0-8.84-0.84,1.0,202.0,,,,,,,[],,,,,,56.4,1.0,i,1.0,True,790.3999999761581,48.0,60.0,40.0,False,,235.35155643689106,[],"[683, 384]",ColorTask,76.0,85.0,,,HRV,HRV_0210,2022-11-30 19:05:34
,wl-rdm,207,523726,0.0-8.85-0.85,1.0,203.0,,,,,,,[],,,,,,50.0,1.0,u,0.0,False,696.0,39.0,60.0,40.0,False,,325.89003512123566,[],"[683, 384]",ColorTask,75.0,86.0,,,HRV,HRV_0210,2022-11-30 19:05:34
,wl-rdm,208,525693,0.0-8.86-0.86,1.0,204.0,,,,,,,[],,,,,,53.2,0.0,i,1.0,False,644.6000000238419,39.0,60.0,40.0,False,,234.86353474762467,[],"[683, 384]",ColorTask,74.0,87.0,,,HRV,HRV_0210,2022-11-30 19:05:34
,wl-rdm,209,527693,0.0-8.87-0.87,1.0,205.0,,,,,,,[],,,,,,50.0,1.0,u,0.0,False,685.7999999523163,41.0,60.0,40.0,False,,237.14569977409167,[],"[683, 384]",ColorTask,73.0,88.0,,,HRV,HRV_0210,2022-11-30 19:05:34
,wl-rdm,210,529577,0.0-8.88-0.88,1.0,206.0,,,,,,,[],,,,,,87.9,0.0,u,0.0,True,433.09999990463257,27.0,60.0,40.0,False,,392.32047680817135,[],"[683, 384]",ColorTask,74.0,89.0,,,HRV,HRV_0210,2022-11-30 19:05:34
,wl-rdm,211,531443,0.0-8.89-0.89,1.0,207.0,,,,,,,[],,,,,,73.6,0.0,u,0.0,True,526.9999998807907,32.0,60.0,40.0,False,,256.4470473220406,[],"[683, 384]",ColorTask,75.0,90.0,,,HRV,HRV_0210,2022-11-30 19:05:34
,wl-rdm,212,533619,0.0-8.90-0.90,1.0,208.0,,,,,,,[],,,,,,50.0,1.0,u,0.0,False,721.7999999523163,42.0,60.0,40.0,False,,347.7761012554714,[],"[683, 384]",ColorTask,74.0,91.0,,,HRV,HRV_0210,2022-11-30 19:05:34
,wl-rdm,213,535678,0.0-8.91-0.91,1.0,209.0,,,,,,,[],,,,,,73.6,1.0,i,1.0,True,595.7000000476837,36.0,60.0,40.0,False,,395.60091054306804,[],"[683, 384]",ColorTask,75.0,92.0,,,HRV,HRV_0210,2022-11-30 19:05:34
,wl-rdm,214,537611,0.0-8.92-0.92,1.0,210.0,,,,,,,[],,,,,,56.4,1.0,i,1.0,True,626.7000000476837,38.0,60.0,40.0,False,,226.71302764354508,[],"[683, 384]",ColorTask,76.0,93.0,,,HRV,HRV_0210,2022-11-30 19:05:34
,wl-rdm,215,539732,0.0-8.93-0.93,1.0,211.0,,,,,,,[],,,,,,73.6,0.0,u,0.0,True,677.3999999761581,41.0,60.0,40.0,False,,370.67490267163316,[],"[683, 384]",ColorTask,77.0,94.0,,,HRV,HRV_0210,2022-11-30 19:05:34
,wl-rdm,216,541678,0.0-8.94-0.94,1.0,212.0,,,,,,,[],,,,,,73.6,1.0,i,1.0,True,567.5999999046326,34.0,60.0,40.0,False,,309.29746542467717,[],"[683, 384]",ColorTask,78.0,95.0,,,HRV,HRV_0210,2022-11-30 19:05:34
,wl-rdm,217,543627,0.0-8.95-0.95,1.0,213.0,,,,,,,[],,,,,,87.9,0.0,u,0.0,True,634.8999999761581,36.0,60.0,40.0,False,,253.61836923460706,[],"[683, 384]",ColorTask,79.0,96.0,,,HRV,HRV_0210,2022-11-30 19:05:34
,wl-rdm,218,545819,0.0-8.96-0.96,1.0,214.0,,,,,,,[],,,,,,50.0,0.0,i,1.0,False,833.7999999523163,47.0,60.0,40.0,False,,280.37073724622843,[],"[683, 384]",ColorTask,78.0,97.0,,,HRV,HRV_0210,2022-11-30 19:05:34
,wl-rdm,219,547977,0.0-8.97-0.97,1.0,215.0,,,,,,,[],,,,,,87.9,1.0,i,1.0,True,722.7999999523163,44.0,60.0,40.0,False,,356.53644275000806,[],"[683, 384]",ColorTask,79.0,98.0,,,HRV,HRV_0210,2022-11-30 19:05:34
,wl-rdm,220,549794,0.0-8.98-0.98,1.0,216.0,,,,,,,[],,,,,,73.6,0.0,u,0.0,True,532.4000000953674,32.0,60.0,40.0,False,,226.55259780743765,[],"[683, 384]",ColorTask,80.0,99.0,,,HRV,HRV_0210,2022-11-30 19:05:34
,wl-rdm,221,552077,0.0-8.99-0.99,1.0,217.0,,,,,,,[],,,,,,56.4,1.0,i,1.0,True,847.2000000476837,51.0,60.0,40.0,False,,366.4468157923503,[],"[683, 384]",ColorTask,81.0,100.0,,,HRV,HRV_0210,2022-11-30 19:05:34
,wl-rdm,222,554077,0.0-8.100-0.100,1.0,218.0,,,,,,,[],,,,,,87.9,0.0,u,0.0,True,703.3000000715256,43.0,60.0,40.0,False,,219.24223444998165,[],"[683, 384]",ColorTask,82.0,101.0,,,HRV,HRV_0210,2022-11-30 19:05:34
,wl-rdm,223,555878,0.0-8.101-0.101,1.0,219.0,,,,,,,[],,,,,,87.9,1.0,i,1.0,True,527.3999998569489,32.0,60.0,40.0,False,,211.66365866549717,[],"[683, 384]",ColorTask,83.0,102.0,,,HRV,HRV_0210,2022-11-30 19:05:34
,wl-rdm,224,557811,0.0-8.102-0.102,1.0,220.0,,,,,,,[],,,,,,53.2,0.0,u,0.0,True,640.3999999761581,39.0,60.0,40.0,False,,225.9590067138406,[],"[683, 384]",ColorTask,84.0,103.0,,,HRV,HRV_0210,2022-11-30 19:05:34
,wl-rdm,225,559811,0.0-8.103-0.103,1.0,221.0,,,,,,,[],,,,,,50.0,1.0,u,0.0,False,623.2999999523163,36.0,60.0,40.0,False,,309.16346085084484,[],"[683, 384]",ColorTask,83.0,104.0,,,HRV,HRV_0210,2022-11-30 19:05:34
,wl-rdm,226,561978,0.0-8.104-0.104,1.0,222.0,,,,,,,[],,,,,,53.2,1.0,u,0.0,False,719.9000000953674,44.0,60.0,40.0,False,,352.0384945137062,[],"[683, 384]",ColorTask,82.0,105.0,,,HRV,HRV_0210,2022-11-30 19:05:34
,wl-rdm,227,564058,0.0-8.105-0.105,1.0,223.0,,,,,,,[],,,,,,50.0,1.0,i,1.0,True,719.0999999046326,44.0,60.0,40.0,False,,293.54304023166696,[],"[683, 384]",ColorTask,83.0,106.0,,,HRV,HRV_0210,2022-11-30 19:05:34
,wl-rdm,228,566032,0.0-8.106-0.106,1.0,224.0,,,,,,,[],,,,,,56.4,0.0,i,1.0,False,670.0,41.0,60.0,40.0,False,,221.05637796808725,[],"[683, 384]",ColorTask,82.0,107.0,,,HRV,HRV_0210,2022-11-30 19:05:34
,wl-rdm,229,567464,0.0-8.107-0.107,1.0,224.0,,,,,,,[],,,,,,53.2,1.0,u,,,873.1999999284744,0.0,60.0,40.0,True,too_early ,368.0813336160969,[],"[683, 384]",ColorTask,81.0,108.0,,,HRV,HRV_0210,2022-11-30 19:05:34
,wl-rdm,230,569279,0.0-8.108-0.108,1.0,225.0,,,,,,,[],,,,,,53.2,1.0,u,0.0,False,397.2000000476837,25.0,60.0,40.0,False,,291.80941418489584,[],"[683, 384]",ColorTask,80.0,109.0,,,HRV,HRV_0210,2022-11-30 19:05:34
,wl-html-button-response,231,572796,0.0-9.0-0.0,,,,,,,,,,3512.2000000476837,,0,,,,,,,,,,,,,,,,,,,,<h3>End of this session. Thank you!</h3><br>,['Close window'],HRV,HRV_0210,2022-11-30 19:05:34
