trialN,stimuli,trialStartTime,trialStartTime_UNIX,stimulus1,stimulus2,stimulus1Bid,stimulus2Bid,delta,selected,rt,rt_UNIX,rt_perfnow,receivedResponse,rsp,trialEndTime,trialDuration,trialEndTime_UNIX,trialDuration_UNIX,exp,subjectId,date
0,"[{'imgObject': {}, 'id': 'chicken nuggets2', 'src': '/static/foodstim60/chicken nuggets2.jpg', 'key': 'u', 'origWidth': 410, 'origHeight': 409, 'width': 410, 'height': 409, 'widthPercent': 0.45, 'rescaleHeight': False, 'trialN': 0, 'loaded': True, 'loadedTime': 2344.9000000059605, 'positionName': 'LEFT', 'positionCoords': [511.6, 335.5], 'bid': 2.28}, {'imgObject': {}, 'id': 'hotdog w must', 'src': '/static/foodstim60/hotdog w must.jpg', 'key': 'i', 'origWidth': 409, 'origHeight': 409, 'width': 409, 'height': 409, 'widthPercent': 0.45, 'rescaleHeight': False, 'trialN': 0, 'loaded': True, 'loadedTime': 2393, 'positionName': 'RIGHT', 'positionCoords': [998.4, 335.5], 'bid': 0.77}]",2794.0,1669829804766,chicken nuggets2,hotdog w must,2.28,0.77,-1.5099999999999998,chicken nuggets2,1378.300000011921,1379,1379.0,True,u,4685.200000017881,1891.2000000178814,1669829806657,1891,HRV,HRV_0100,2022-11-30 17:41:40
1,"[{'imgObject': {}, 'id': 'lox', 'src': '/static/foodstim60/lox.jpg', 'key': 'u', 'origWidth': 410, 'origHeight': 411, 'width': 410, 'height': 411, 'widthPercent': 0.45, 'rescaleHeight': False, 'trialN': 1, 'loaded': True, 'loadedTime': 2394.300000011921, 'positionName': 'LEFT', 'positionCoords': [511.6, 334.5], 'bid': 0.15}, {'imgObject': {}, 'id': 'eggsalad', 'src': '/static/foodstim60/eggsalad.jpg', 'key': 'i', 'origWidth': 410, 'origHeight': 409, 'width': 410, 'height': 409, 'widthPercent': 0.45, 'rescaleHeight': False, 'trialN': 1, 'loaded': True, 'loadedTime': 2395, 'positionName': 'RIGHT', 'positionCoords': [998.4, 335.5], 'bid': 1.28}]",4685.5999999940395,1669829806657,lox,eggsalad,0.15,1.28,1.1300000000000001,eggsalad,1646.6000000238419,1648,1647.2000000178814,True,i,6842.700000017881,2157.100000023842,1669829808815,2158,HRV,HRV_0100,2022-11-30 17:41:40
2,"[{'imgObject': {}, 'id': 'apple slices', 'src': '/static/foodstim60/apple slices.jpg', 'key': 'u', 'origWidth': 409, 'origHeight': 410, 'width': 409, 'height': 410, 'widthPercent': 0.45, 'rescaleHeight': False, 'trialN': 2, 'loaded': True, 'loadedTime': 2395.5, 'positionName': 'LEFT', 'positionCoords': [512.6, 335], 'bid': 5.3100000000000005}, {'imgObject': {}, 'id': 'omelette', 'src': '/static/foodstim60/omelette.jpg', 'key': 'i', 'origWidth': 410, 'origHeight': 409, 'width': 410, 'height': 409, 'widthPercent': 0.45, 'rescaleHeight': False, 'trialN': 2, 'loaded': True, 'loadedTime': 2397.4000000059605, 'positionName': 'RIGHT', 'positionCoords': [998.4, 335.5], 'bid': 3.6}]",6842.9000000059605,1669829808815,apple slices,omelette,5.3100000000000005,3.6,-1.7100000000000004,apple slices,818.0999999940395,818,818.5,True,u,8175.200000017881,1332.300000011921,1669829810147,1332,HRV,HRV_0100,2022-11-30 17:41:40
3,"[{'imgObject': {}, 'id': 'cherry tomato', 'src': '/static/foodstim60/cherry tomato.jpg', 'key': 'u', 'origWidth': 410, 'origHeight': 410, 'width': 410, 'height': 410, 'widthPercent': 0.45, 'rescaleHeight': False, 'trialN': 3, 'loaded': True, 'loadedTime': 2397.800000011921, 'positionName': 'LEFT', 'positionCoords': [511.6, 335], 'bid': 5.82}, {'imgObject': {}, 'id': 'blackbeanswithrice', 'src': '/static/foodstim60/blackbeanswithrice.jpg', 'key': 'i', 'origWidth': 410, 'origHeight': 410, 'width': 410, 'height': 410, 'widthPercent': 0.45, 'rescaleHeight': False, 'trialN': 3, 'loaded': True, 'loadedTime': 2401.2000000178814, 'positionName': 'RIGHT', 'positionCoords': [998.4, 335], 'bid': 6.3}]",8175.5999999940395,1669829810148,cherry tomato,blackbeanswithrice,5.82,6.3,0.47999999999999954,blackbeanswithrice,985.5,985,985.9000000059605,True,i,9669.200000017881,1493.6000000238419,1669829811641,1493,HRV,HRV_0100,2022-11-30 17:41:40
4,"[{'imgObject': {}, 'id': 'lox', 'src': '/static/foodstim60/lox.jpg', 'key': 'u', 'origWidth': 410, 'origHeight': 411, 'width': 410, 'height': 411, 'widthPercent': 0.45, 'rescaleHeight': False, 'trialN': 4, 'loaded': True, 'loadedTime': 2394.300000011921, 'positionName': 'LEFT', 'positionCoords': [511.6, 334.5], 'bid': 0.15}, {'imgObject': {}, 'id': 'kiwi', 'src': '/static/foodstim60/kiwi.jpg', 'key': 'i', 'origWidth': 410, 'origHeight': 410, 'width': 410, 'height': 410, 'widthPercent': 0.45, 'rescaleHeight': False, 'trialN': 4, 'loaded': True, 'loadedTime': 2401.7000000178814, 'positionName': 'RIGHT', 'positionCoords': [998.4, 335], 'bid': 0.5}]",9669.5,1669829811641,lox,kiwi,0.15,0.5,0.35,lox,1001.8000000119209,1003,1002.2000000178814,True,u,11175.09999999404,1505.5999999940395,1669829813147,1506,HRV,HRV_0100,2022-11-30 17:41:40
5,"[{'imgObject': {}, 'id': 'eggsalad', 'src': '/static/foodstim60/eggsalad.jpg', 'key': 'u', 'origWidth': 410, 'origHeight': 409, 'width': 410, 'height': 409, 'widthPercent': 0.45, 'rescaleHeight': False, 'trialN': 5, 'loaded': True, 'loadedTime': 2395.2000000178814, 'positionName': 'LEFT', 'positionCoords': [511.6, 335.5], 'bid': 1.28}, {'imgObject': {}, 'id': 'rigatoni', 'src': '/static/foodstim60/rigatoni.jpg', 'key': 'i', 'origWidth': 411, 'origHeight': 411, 'width': 411, 'height': 411, 'widthPercent': 0.45, 'rescaleHeight': False, 'trialN': 5, 'loaded': True, 'loadedTime': 2403.7000000178814, 'positionName': 'RIGHT', 'positionCoords': [998.4, 334.5], 'bid': 1.52}]",11175.300000011921,1669829813147,eggsalad,rigatoni,1.28,1.52,0.24,rigatoni,1515.5999999940395,1516,1516.0999999940395,True,i,13205.300000011921,2030.0,1669829815177,2030,HRV,HRV_0100,2022-11-30 17:41:40
6,"[{'imgObject': {}, 'id': 'salad w chicken', 'src': '/static/foodstim60/salad w chicken.jpg', 'key': 'u', 'origWidth': 411, 'origHeight': 411, 'width': 411, 'height': 411, 'widthPercent': 0.45, 'rescaleHeight': False, 'trialN': 6, 'loaded': True, 'loadedTime': 2403.800000011921, 'positionName': 'LEFT', 'positionCoords': [510.6, 334.5], 'bid': 5.84}, {'imgObject': {}, 'id': 'raspberries', 'src': '/static/foodstim60/raspberries.jpg', 'key': 'i', 'origWidth': 411, 'origHeight': 411, 'width': 411, 'height': 411, 'widthPercent': 0.45, 'rescaleHeight': False, 'trialN': 6, 'loaded': True, 'loadedTime': 2405.0999999940395, 'positionName': 'RIGHT', 'positionCoords': [998.4, 334.5], 'bid': 5.8100000000000005}]",13205.5,1669829815177,salad w chicken,raspberries,5.84,5.8100000000000005,-0.02999999999999936,salad w chicken,935.5,936,936.0,True,u,14652.0,1446.5,1669829816624,1447,HRV,HRV_0100,2022-11-30 17:41:40
7,"[{'imgObject': {}, 'id': 'cheerios', 'src': '/static/foodstim60/cheerios.jpg', 'key': 'u', 'origWidth': 409, 'origHeight': 410, 'width': 409, 'height': 410, 'widthPercent': 0.45, 'rescaleHeight': False, 'trialN': 7, 'loaded': True, 'loadedTime': 2408.4000000059605, 'positionName': 'LEFT', 'positionCoords': [512.6, 335], 'bid': 2.26}, {'imgObject': {}, 'id': 'avocado', 'src': '/static/foodstim60/avocado.jpg', 'key': 'i', 'origWidth': 409, 'origHeight': 409, 'width': 409, 'height': 409, 'widthPercent': 0.45, 'rescaleHeight': False, 'trialN': 7, 'loaded': True, 'loadedTime': 2411.2000000178814, 'positionName': 'RIGHT', 'positionCoords': [998.4, 335.5], 'bid': 7.57}]",14652.09999999404,1669829816624,cheerios,avocado,2.26,7.57,5.3100000000000005,avocado,769.0,769,769.5,True,i,15934.59999999404,1282.5,1669829817907,1283,HRV,HRV_0100,2022-11-30 17:41:40
8,"[{'imgObject': {}, 'id': 'kiwi', 'src': '/static/foodstim60/kiwi.jpg', 'key': 'u', 'origWidth': 410, 'origHeight': 410, 'width': 410, 'height': 410, 'widthPercent': 0.45, 'rescaleHeight': False, 'trialN': 8, 'loaded': True, 'loadedTime': 2402.300000011921, 'positionName': 'LEFT', 'positionCoords': [511.6, 335], 'bid': 0.5}, {'imgObject': {}, 'id': 'mac & cheese', 'src': '/static/foodstim60/mac & cheese.jpg', 'key': 'i', 'origWidth': 410, 'origHeight': 410, 'width': 410, 'height': 410, 'widthPercent': 0.45, 'rescaleHeight': False, 'trialN': 8, 'loaded': True, 'loadedTime': 2412.7000000178814, 'positionName': 'RIGHT', 'positionCoords': [998.4, 335], 'bid': 0.44}]",15934.800000011921,1669829817907,kiwi,mac & cheese,0.5,0.44,-0.06,mac & cheese,1126.199999988079,1126,1126.5999999940395,True,i,17564.40000000596,1629.5999999940395,1669829819536,1629,HRV,HRV_0100,2022-11-30 17:41:40
9,"[{'imgObject': {}, 'id': 'cherries', 'src': '/static/foodstim60/cherries.jpg', 'key': 'u', 'origWidth': 410, 'origHeight': 411, 'width': 410, 'height': 411, 'widthPercent': 0.45, 'rescaleHeight': False, 'trialN': 9, 'loaded': True, 'loadedTime': 2438.800000011921, 'positionName': 'LEFT', 'positionCoords': [511.6, 334.5], 'bid': 7.61}, {'imgObject': {}, 'id': 'eggs', 'src': '/static/foodstim60/eggs.jpg', 'key': 'i', 'origWidth': 409, 'origHeight': 409, 'width': 409, 'height': 409, 'widthPercent': 0.45, 'rescaleHeight': False, 'trialN': 9, 'loaded': True, 'loadedTime': 2452.7000000178814, 'positionName': 'RIGHT', 'positionCoords': [998.4, 335.5], 'bid': 6.97}]",17564.59999999404,1669829819537,cherries,eggs,7.61,6.97,-0.6400000000000006,eggs,1396.5,1396,1397.0,True,i,19476.0,1911.4000000059605,1669829821448,1911,HRV,HRV_0100,2022-11-30 17:41:40
10,"[{'imgObject': {}, 'id': 'hashbrowns', 'src': '/static/foodstim60/hashbrowns.jpg', 'key': 'u', 'origWidth': 411, 'origHeight': 410, 'width': 411, 'height': 410, 'widthPercent': 0.45, 'rescaleHeight': False, 'trialN': 10, 'loaded': True, 'loadedTime': 2366.9000000059605, 'positionName': 'LEFT', 'positionCoords': [510.6, 335], 'bid': 0.7000000000000001}, {'imgObject': {}, 'id': 'yogurt no spoon', 'src': '/static/foodstim60/yogurt no spoon.jpg', 'key': 'i', 'origWidth': 411, 'origHeight': 410, 'width': 411, 'height': 410, 'widthPercent': 0.45, 'rescaleHeight': False, 'trialN': 10, 'loaded': True, 'loadedTime': 2385.5999999940395, 'positionName': 'RIGHT', 'positionCoords': [998.4, 335], 'bid': 0.72}]",19476.30000001192,1669829821448,hashbrowns,yogurt no spoon,0.7000000000000001,0.72,0.019999999999999907,hashbrowns,1215.0,1216,1215.4000000059605,True,u,21197.30000001192,1721.0,1669829823169,1721,HRV,HRV_0100,2022-11-30 17:41:40
11,"[{'imgObject': {}, 'id': 'mashed potato', 'src': '/static/foodstim60/mashed potato.jpg', 'key': 'u', 'origWidth': 409, 'origHeight': 409, 'width': 409, 'height': 409, 'widthPercent': 0.45, 'rescaleHeight': False, 'trialN': 11, 'loaded': True, 'loadedTime': 2387.5, 'positionName': 'LEFT', 'positionCoords': [512.6, 335.5], 'bid': 1.77}, {'imgObject': {}, 'id': 'grilled chicken strips', 'src': '/static/foodstim60/grilled chicken strips.jpg', 'key': 'i', 'origWidth': 410, 'origHeight': 411, 'width': 410, 'height': 411, 'widthPercent': 0.45, 'rescaleHeight': False, 'trialN': 11, 'loaded': True, 'loadedTime': 2410.5999999940395, 'positionName': 'RIGHT', 'positionCoords': [998.4, 334.5], 'bid': 7.11}]",21197.5,1669829823169,mashed potato,grilled chicken strips,1.77,7.11,5.34,grilled chicken strips,773.5999999940395,774,774.0,True,i,22483.40000000596,1285.9000000059605,1669829824455,1286,HRV,HRV_0100,2022-11-30 17:41:40
12,"[{'imgObject': {}, 'id': 'ice cream sundae 002', 'src': '/static/foodstim60/ice cream sundae 002.jpg', 'key': 'u', 'origWidth': 409, 'origHeight': 409, 'width': 409, 'height': 409, 'widthPercent': 0.45, 'rescaleHeight': False, 'trialN': 12, 'loaded': True, 'loadedTime': 2412.5999999940395, 'positionName': 'LEFT', 'positionCoords': [512.6, 335.5], 'bid': 1.53}, {'imgObject': {}, 'id': 'eggs', 'src': '/static/foodstim60/eggs.jpg', 'key': 'i', 'origWidth': 409, 'origHeight': 409, 'width': 409, 'height': 409, 'widthPercent': 0.45, 'rescaleHeight': False, 'trialN': 12, 'loaded': True, 'loadedTime': 2452.5, 'positionName': 'RIGHT', 'positionCoords': [998.4, 335.5], 'bid': 6.97}]",22483.70000001788,1669829824456,ice cream sundae 002,eggs,1.53,6.97,5.4399999999999995,eggs,687.3999999761581,687,687.7999999821186,True,i,23680.80000001192,1197.0999999940395,1669829825653,1197,HRV,HRV_0100,2022-11-30 17:41:40
13,"[{'imgObject': {}, 'id': 'steak', 'src': '/static/foodstim60/steak.jpg', 'key': 'u', 'origWidth': 410, 'origHeight': 410, 'width': 410, 'height': 410, 'widthPercent': 0.45, 'rescaleHeight': False, 'trialN': 13, 'loaded': True, 'loadedTime': 2466.0999999940395, 'positionName': 'LEFT', 'positionCoords': [511.6, 335], 'bid': 8.42}, {'imgObject': {}, 'id': 'corn cob', 'src': '/static/foodstim60/corn cob.jpg', 'key': 'i', 'origWidth': 411, 'origHeight': 411, 'width': 411, 'height': 411, 'widthPercent': 0.45, 'rescaleHeight': False, 'trialN': 13, 'loaded': True, 'loadedTime': 2468.5999999940395, 'positionName': 'RIGHT', 'positionCoords': [998.4, 334.5], 'bid': 8.370000000000001}]",23680.90000000596,1669829825653,steak,corn cob,8.42,8.370000000000001,-0.049999999999998934,corn cob,1330.0999999940395,1330,1330.5,True,i,25526.40000000596,1845.5,1669829827498,1845,HRV,HRV_0100,2022-11-30 17:41:40
14,"[{'imgObject': {}, 'id': 'eggs', 'src': '/static/foodstim60/eggs.jpg', 'key': 'u', 'origWidth': 409, 'origHeight': 409, 'width': 409, 'height': 409, 'widthPercent': 0.45, 'rescaleHeight': False, 'trialN': 14, 'loaded': True, 'loadedTime': 2452.7000000178814, 'positionName': 'LEFT', 'positionCoords': [512.6, 335.5], 'bid': 6.97}, {'imgObject': {}, 'id': 'pear', 'src': '/static/foodstim60/pear.jpg', 'key': 'i', 'origWidth': 411, 'origHeight': 410, 'width': 411, 'height': 410, 'widthPercent': 0.45, 'rescaleHeight': False, 'trialN': 14, 'loaded': True, 'loadedTime': 2471.5, 'positionName': 'RIGHT', 'positionCoords': [998.4, 335], 'bid': 4.6000000000000005}]",25526.70000001788,1669829827499,eggs,pear,6.97,4.6000000000000005,-2.369999999999999,eggs,1174.2999999821186,1174,1174.5,True,u,27206.30000001192,1679.5999999940395,1669829829178,1679,HRV,HRV_0100,2022-11-30 17:41:40
15,"[{'imgObject': {}, 'id': 'granola w milk', 'src': '/static/foodstim60/granola w milk.jpg', 'key': 'u', 'origWidth': 410, 'origHeight': 410, 'width': 410, 'height': 410, 'widthPercent': 0.45, 'rescaleHeight': False, 'trialN': 15, 'loaded': True, 'loadedTime': 2474.5, 'positionName': 'LEFT', 'positionCoords': [511.6, 335], 'bid': 0.92}, {'imgObject': {}, 'id': 'bagel and cc', 'src': '/static/foodstim60/bagel and cc.jpg', 'key': 'i', 'origWidth': 410, 'origHeight': 410, 'width': 410, 'height': 410, 'widthPercent': 0.45, 'rescaleHeight': False, 'trialN': 15, 'loaded': True, 'loadedTime': 2493.5, 'positionName': 'RIGHT', 'positionCoords': [998.4, 335], 'bid': 1.23}]",27206.40000000596,1669829829178,granola w milk,bagel and cc,0.92,1.23,0.30999999999999994,bagel and cc,1055.9000000059605,1057,1056.300000011921,True,i,28774.40000000596,1568.0,1669829830746,1568,HRV,HRV_0100,2022-11-30 17:41:40
16,"[{'imgObject': {}, 'id': 'cocktailshrimp', 'src': '/static/foodstim60/cocktailshrimp.jpg', 'key': 'u', 'origWidth': 410, 'origHeight': 410, 'width': 410, 'height': 410, 'widthPercent': 0.45, 'rescaleHeight': False, 'trialN': 16, 'loaded': True, 'loadedTime': 2493.800000011921, 'positionName': 'LEFT', 'positionCoords': [511.6, 335], 'bid': 5.69}, {'imgObject': {}, 'id': 'burrito', 'src': '/static/foodstim60/burrito.jpg', 'key': 'i', 'origWidth': 410, 'origHeight': 410, 'width': 410, 'height': 410, 'widthPercent': 0.45, 'rescaleHeight': False, 'trialN': 16, 'loaded': True, 'loadedTime': 2508.9000000059605, 'positionName': 'RIGHT', 'positionCoords': [998.4, 335], 'bid': 5.59}]",28774.80000001192,1669829830747,cocktailshrimp,burrito,5.69,5.59,-0.10000000000000053,burrito,1206.0999999940395,1206,1206.5,True,i,30487.30000001192,1712.5,1669829832459,1712,HRV,HRV_0100,2022-11-30 17:41:40
17,"[{'imgObject': {}, 'id': 'sushi w_condiments', 'src': '/static/foodstim60/sushi w_condiments.jpg', 'key': 'u', 'origWidth': 410, 'origHeight': 410, 'width': 410, 'height': 410, 'widthPercent': 0.45, 'rescaleHeight': False, 'trialN': 17, 'loaded': True, 'loadedTime': 2525.4000000059605, 'positionName': 'LEFT', 'positionCoords': [511.6, 335], 'bid': 0.26}, {'imgObject': {}, 'id': 'olives', 'src': '/static/foodstim60/olives.jpg', 'key': 'i', 'origWidth': 410, 'origHeight': 410, 'width': 410, 'height': 410, 'widthPercent': 0.45, 'rescaleHeight': False, 'trialN': 17, 'loaded': True, 'loadedTime': 2553.5999999940395, 'positionName': 'RIGHT', 'positionCoords': [998.4, 335], 'bid': 4.4}]",30487.59999999404,1669829832459,sushi w_condiments,olives,0.26,4.4,4.140000000000001,olives,833.6000000238419,835,834.1000000238419,True,i,31830.90000000596,1343.300000011921,1669829833803,1344,HRV,HRV_0100,2022-11-30 17:41:40
18,"[{'imgObject': {}, 'id': 'lox', 'src': '/static/foodstim60/lox.jpg', 'key': 'u', 'origWidth': 410, 'origHeight': 411, 'width': 410, 'height': 411, 'widthPercent': 0.45, 'rescaleHeight': False, 'trialN': 18, 'loaded': True, 'loadedTime': 2393.300000011921, 'positionName': 'LEFT', 'positionCoords': [511.6, 334.5], 'bid': 0.15}, {'imgObject': {}, 'id': 'sushi w_condiments', 'src': '/static/foodstim60/sushi w_condiments.jpg', 'key': 'i', 'origWidth': 410, 'origHeight': 410, 'width': 410, 'height': 410, 'widthPercent': 0.45, 'rescaleHeight': False, 'trialN': 18, 'loaded': True, 'loadedTime': 2537.0999999940395, 'positionName': 'RIGHT', 'positionCoords': [998.4, 335], 'bid': 0.26}]",31831.09999999404,1669829833803,lox,sushi w_condiments,0.15,0.26,0.11000000000000001,lox,1970.9000000059605,1971,1971.2000000178814,True,u,34311.80000001192,2480.7000000178814,1669829836284,2481,HRV,HRV_0100,2022-11-30 17:41:40
19,"[{'imgObject': {}, 'id': 'avocado', 'src': '/static/foodstim60/avocado.jpg', 'key': 'u', 'origWidth': 409, 'origHeight': 409, 'width': 409, 'height': 409, 'widthPercent': 0.45, 'rescaleHeight': False, 'trialN': 19, 'loaded': True, 'loadedTime': 2411.5, 'positionName': 'LEFT', 'positionCoords': [512.6, 335.5], 'bid': 7.57}, {'imgObject': {}, 'id': 'cocktailshrimp', 'src': '/static/foodstim60/cocktailshrimp.jpg', 'key': 'i', 'origWidth': 410, 'origHeight': 410, 'width': 410, 'height': 410, 'widthPercent': 0.45, 'rescaleHeight': False, 'trialN': 19, 'loaded': True, 'loadedTime': 2495, 'positionName': 'RIGHT', 'positionCoords': [998.4, 335], 'bid': 5.69}]",34312.0,1669829836284,avocado,cocktailshrimp,7.57,5.69,-1.88,cocktailshrimp,1119.0,1119,1119.5999999940395,True,i,35942.70000001788,1630.7000000178814,1669829837915,1631,HRV,HRV_0100,2022-11-30 17:41:40
20,"[{'imgObject': {}, 'id': 'baked potato', 'src': '/static/foodstim60/baked potato.jpg', 'key': 'u', 'origWidth': 409, 'origHeight': 410, 'width': 409, 'height': 410, 'widthPercent': 0.45, 'rescaleHeight': False, 'trialN': 20, 'loaded': True, 'loadedTime': 2570.4000000059605, 'positionName': 'LEFT', 'positionCoords': [512.6, 335], 'bid': 3.21}, {'imgObject': {}, 'id': 'froot loops w milk', 'src': '/static/foodstim60/froot loops w milk.jpg', 'key': 'i', 'origWidth': 410, 'origHeight': 410, 'width': 410, 'height': 410, 'widthPercent': 0.45, 'rescaleHeight': False, 'trialN': 20, 'loaded': True, 'loadedTime': 2570.9000000059605, 'positionName': 'RIGHT', 'positionCoords': [998.4, 335], 'bid': 0.89}]",35943.09999999404,1669829837915,baked potato,froot loops w milk,3.21,0.89,-2.32,baked potato,798.4000000059605,799,798.5,True,u,37249.40000000596,1306.300000011921,1669829839221,1306,HRV,HRV_0100,2022-11-30 17:41:40
21,"[{'imgObject': {}, 'id': 'yogurt no spoon', 'src': '/static/foodstim60/yogurt no spoon.jpg', 'key': 'u', 'origWidth': 411, 'origHeight': 410, 'width': 411, 'height': 410, 'widthPercent': 0.45, 'rescaleHeight': False, 'trialN': 21, 'loaded': True, 'loadedTime': 2384.800000011921, 'positionName': 'LEFT', 'positionCoords': [510.6, 335], 'bid': 0.72}, {'imgObject': {}, 'id': 'sushi w_condiments', 'src': '/static/foodstim60/sushi w_condiments.jpg', 'key': 'i', 'origWidth': 410, 'origHeight': 410, 'width': 410, 'height': 410, 'widthPercent': 0.45, 'rescaleHeight': False, 'trialN': 21, 'loaded': True, 'loadedTime': 2537.4000000059605, 'positionName': 'RIGHT', 'positionCoords': [998.4, 335], 'bid': 0.26}]",37249.59999999404,1669829839222,yogurt no spoon,sushi w_condiments,0.72,0.26,-0.45999999999999996,yogurt no spoon,961.4000000059605,961,961.8000000119209,True,u,38727.09999999404,1477.5,1669829840699,1477,HRV,HRV_0100,2022-11-30 17:41:40
22,"[{'imgObject': {}, 'id': 'chickenfingers', 'src': '/static/foodstim60/chickenfingers.jpg', 'key': 'u', 'origWidth': 410, 'origHeight': 410, 'width': 410, 'height': 410, 'widthPercent': 0.45, 'rescaleHeight': False, 'trialN': 22, 'loaded': True, 'loadedTime': 2585.2000000178814, 'positionName': 'LEFT', 'positionCoords': [511.6, 335], 'bid': 2.02}, {'imgObject': {}, 'id': 'mango', 'src': '/static/foodstim60/mango.jpg', 'key': 'i', 'origWidth': 411, 'origHeight': 411, 'width': 411, 'height': 411, 'widthPercent': 0.45, 'rescaleHeight': False, 'trialN': 22, 'loaded': True, 'loadedTime': 2603.0999999940395, 'positionName': 'RIGHT', 'positionCoords': [998.4, 334.5], 'bid': 4.23}]",38727.80000001192,1669829840700,chickenfingers,mango,2.02,4.23,2.2100000000000004,mango,1503.2999999821186,1503,1503.5999999940395,True,i,40746.09999999404,2018.2999999821186,1669829842718,2018,HRV,HRV_0100,2022-11-30 17:41:40
23,"[{'imgObject': {}, 'id': 'chicken nuggets2', 'src': '/static/foodstim60/chicken nuggets2.jpg', 'key': 'u', 'origWidth': 410, 'origHeight': 409, 'width': 410, 'height': 409, 'widthPercent': 0.45, 'rescaleHeight': False, 'trialN': 23, 'loaded': True, 'loadedTime': 2346.9000000059605, 'positionName': 'LEFT', 'positionCoords': [511.6, 335.5], 'bid': 2.28}, {'imgObject': {}, 'id': 'baked potato', 'src': '/static/foodstim60/baked potato.jpg', 'key': 'i', 'origWidth': 409, 'origHeight': 410, 'width': 409, 'height': 410, 'widthPercent': 0.45, 'rescaleHeight': False, 'trialN': 23, 'loaded': True, 'loadedTime': 2570.800000011921, 'positionName': 'RIGHT', 'positionCoords': [998.4, 335], 'bid': 3.21}]",40746.70000001788,1669829842719,chicken nuggets2,baked potato,2.28,3.21,0.9300000000000002,chicken nuggets2,1174.5,1175,1174.8999999761581,True,u,42439.09999999404,1692.3999999761581,1669829844411,1692,HRV,HRV_0100,2022-11-30 17:41:40
24,"[{'imgObject': {}, 'id': 'veggieswithdip', 'src': '/static/foodstim60/veggieswithdip.jpg', 'key': 'u', 'origWidth': 409, 'origHeight': 409, 'width': 409, 'height': 409, 'widthPercent': 0.45, 'rescaleHeight': False, 'trialN': 24, 'loaded': True, 'loadedTime': 2617.5999999940395, 'positionName': 'LEFT', 'positionCoords': [512.6, 335.5], 'bid': 5.88}, {'imgObject': {}, 'id': 'corn cob', 'src': '/static/foodstim60/corn cob.jpg', 'key': 'i', 'origWidth': 411, 'origHeight': 411, 'width': 411, 'height': 411, 'widthPercent': 0.45, 'rescaleHeight': False, 'trialN': 24, 'loaded': True, 'loadedTime': 2468, 'positionName': 'RIGHT', 'positionCoords': [998.4, 334.5], 'bid': 8.370000000000001}]",42439.30000001192,1669829844411,veggieswithdip,corn cob,5.88,8.370000000000001,2.490000000000001,corn cob,951.5999999940395,952,952.0,True,i,43900.40000000596,1461.0999999940395,1669829845872,1461,HRV,HRV_0100,2022-11-30 17:41:40
25,"[{'imgObject': {}, 'id': 'avocado', 'src': '/static/foodstim60/avocado.jpg', 'key': 'u', 'origWidth': 409, 'origHeight': 409, 'width': 409, 'height': 409, 'widthPercent': 0.45, 'rescaleHeight': False, 'trialN': 25, 'loaded': True, 'loadedTime': 2411.5, 'positionName': 'LEFT', 'positionCoords': [512.6, 335.5], 'bid': 7.57}, {'imgObject': {}, 'id': 'Grapes', 'src': '/static/foodstim60/Grapes.jpg', 'key': 'i', 'origWidth': 411, 'origHeight': 411, 'width': 411, 'height': 411, 'widthPercent': 0.45, 'rescaleHeight': False, 'trialN': 25, 'loaded': True, 'loadedTime': 2619.0999999940395, 'positionName': 'RIGHT', 'positionCoords': [998.4, 334.5], 'bid': 6.84}]",43900.59999999404,1669829845873,avocado,Grapes,7.57,6.84,-0.7300000000000004,avocado,1110.300000011921,1110,1110.5,True,u,45524.70000001788,1624.1000000238419,1669829847497,1624,HRV,HRV_0100,2022-11-30 17:41:40
26,"[{'imgObject': {}, 'id': 'edamame', 'src': '/static/foodstim60/edamame.jpg', 'key': 'u', 'origWidth': 409, 'origHeight': 410, 'width': 409, 'height': 410, 'widthPercent': 0.45, 'rescaleHeight': False, 'trialN': 26, 'loaded': True, 'loadedTime': 2619.4000000059605, 'positionName': 'LEFT', 'positionCoords': [512.6, 335], 'bid': 7.96}, {'imgObject': {}, 'id': 'cherry tomato', 'src': '/static/foodstim60/cherry tomato.jpg', 'key': 'i', 'origWidth': 410, 'origHeight': 410, 'width': 410, 'height': 410, 'widthPercent': 0.45, 'rescaleHeight': False, 'trialN': 26, 'loaded': True, 'loadedTime': 2399.9000000059605, 'positionName': 'RIGHT', 'positionCoords': [998.4, 335], 'bid': 5.82}]",45524.90000000596,1669829847497,edamame,cherry tomato,7.96,5.82,-2.1399999999999997,edamame,655.8000000119209,656,656.0,True,u,46689.40000000596,1164.5,1669829848661,1164,HRV,HRV_0100,2022-11-30 17:41:40
27,"[{'imgObject': {}, 'id': 'cheerios', 'src': '/static/foodstim60/cheerios.jpg', 'key': 'u', 'origWidth': 409, 'origHeight': 410, 'width': 409, 'height': 410, 'widthPercent': 0.45, 'rescaleHeight': False, 'trialN': 27, 'loaded': True, 'loadedTime': 2407.800000011921, 'positionName': 'LEFT', 'positionCoords': [512.6, 335], 'bid': 2.26}, {'imgObject': {}, 'id': 'pear', 'src': '/static/foodstim60/pear.jpg', 'key': 'i', 'origWidth': 411, 'origHeight': 410, 'width': 411, 'height': 410, 'widthPercent': 0.45, 'rescaleHeight': False, 'trialN': 27, 'loaded': True, 'loadedTime': 2471.5999999940395, 'positionName': 'RIGHT', 'positionCoords': [998.4, 335], 'bid': 4.6000000000000005}]",46689.80000001192,1669829848662,cheerios,pear,2.26,4.6000000000000005,2.3400000000000007,pear,861.0999999940395,862,861.5999999940395,True,i,48060.5,1370.699999988079,1669829850033,1371,HRV,HRV_0100,2022-11-30 17:41:40
28,"[{'imgObject': {}, 'id': 'burger', 'src': '/static/foodstim60/burger.jpg', 'key': 'u', 'origWidth': 409, 'origHeight': 409, 'width': 409, 'height': 409, 'widthPercent': 0.45, 'rescaleHeight': False, 'trialN': 28, 'loaded': True, 'loadedTime': 2649.2000000178814, 'positionName': 'LEFT', 'positionCoords': [512.6, 335.5], 'bid': 4.1}, {'imgObject': {}, 'id': 'omelette', 'src': '/static/foodstim60/omelette.jpg', 'key': 'i', 'origWidth': 410, 'origHeight': 409, 'width': 410, 'height': 409, 'widthPercent': 0.45, 'rescaleHeight': False, 'trialN': 28, 'loaded': True, 'loadedTime': 2397.7000000178814, 'positionName': 'RIGHT', 'positionCoords': [998.4, 335.5], 'bid': 3.6}]",48060.80000001192,1669829850033,burger,omelette,4.1,3.6,-0.49999999999999956,burger,910.0999999940395,910,910.5,True,u,49488.09999999404,1427.2999999821186,1669829851460,1427,HRV,HRV_0100,2022-11-30 17:41:40
29,"[{'imgObject': {}, 'id': 'fried eggs', 'src': '/static/foodstim60/fried eggs.jpg', 'key': 'u', 'origWidth': 410, 'origHeight': 410, 'width': 410, 'height': 410, 'widthPercent': 0.45, 'rescaleHeight': False, 'trialN': 29, 'loaded': True, 'loadedTime': 2665.2000000178814, 'positionName': 'LEFT', 'positionCoords': [511.6, 335], 'bid': 6.07}, {'imgObject': {}, 'id': 'cherries', 'src': '/static/foodstim60/cherries.jpg', 'key': 'i', 'origWidth': 410, 'origHeight': 411, 'width': 410, 'height': 411, 'widthPercent': 0.45, 'rescaleHeight': False, 'trialN': 29, 'loaded': True, 'loadedTime': 2438.2000000178814, 'positionName': 'RIGHT', 'positionCoords': [998.4, 334.5], 'bid': 7.61}]",49488.40000000596,1669829851460,fried eggs,cherries,6.07,7.61,1.54,cherries,1042.5999999940395,1044,1043.0999999940395,True,i,51044.80000001192,1556.4000000059605,1669829853017,1557,HRV,HRV_0100,2022-11-30 17:41:40
30,"[{'imgObject': {}, 'id': 'sweetpotato', 'src': '/static/foodstim60/sweetpotato.jpg', 'key': 'u', 'origWidth': 410, 'origHeight': 410, 'width': 410, 'height': 410, 'widthPercent': 0.45, 'rescaleHeight': False, 'trialN': 30, 'loaded': True, 'loadedTime': 2665.4000000059605, 'positionName': 'LEFT', 'positionCoords': [511.6, 335], 'bid': 2.56}, {'imgObject': {}, 'id': 'shreddedwheatwithmilk', 'src': '/static/foodstim60/shreddedwheatwithmilk.jpg', 'key': 'i', 'origWidth': 410, 'origHeight': 410, 'width': 410, 'height': 410, 'widthPercent': 0.45, 'rescaleHeight': False, 'trialN': 30, 'loaded': True, 'loadedTime': 2679.4000000059605, 'positionName': 'RIGHT', 'positionCoords': [998.4, 335], 'bid': 0.87}]",51045.09999999404,1669829853017,sweetpotato,shreddedwheatwithmilk,2.56,0.87,-1.69,shreddedwheatwithmilk,855.7000000178814,856,856.0,True,i,52408.5,1363.4000000059605,1669829854381,1364,HRV,HRV_0100,2022-11-30 17:41:40
31,"[{'imgObject': {}, 'id': 'blueberries', 'src': '/static/foodstim60/blueberries.jpg', 'key': 'u', 'origWidth': 411, 'origHeight': 411, 'width': 411, 'height': 411, 'widthPercent': 0.45, 'rescaleHeight': False, 'trialN': 31, 'loaded': True, 'loadedTime': 2683.4000000059605, 'positionName': 'LEFT', 'positionCoords': [510.6, 334.5], 'bid': 7.97}, {'imgObject': {}, 'id': 'blackbeanswithrice', 'src': '/static/foodstim60/blackbeanswithrice.jpg', 'key': 'i', 'origWidth': 410, 'origHeight': 410, 'width': 410, 'height': 410, 'widthPercent': 0.45, 'rescaleHeight': False, 'trialN': 31, 'loaded': True, 'loadedTime': 2400.2000000178814, 'positionName': 'RIGHT', 'positionCoords': [998.4, 335], 'bid': 6.3}]",52409.0,1669829854381,blueberries,blackbeanswithrice,7.97,6.3,-1.67,blackbeanswithrice,1002.0,1003,1002.5,True,i,53928.30000001192,1519.300000011921,1669829855900,1519,HRV,HRV_0100,2022-11-30 17:41:40
32,"[{'imgObject': {}, 'id': 'roastedpotatoes', 'src': '/static/foodstim60/roastedpotatoes.jpg', 'key': 'u', 'origWidth': 409, 'origHeight': 410, 'width': 409, 'height': 410, 'widthPercent': 0.45, 'rescaleHeight': False, 'trialN': 32, 'loaded': True, 'loadedTime': 2684.5, 'positionName': 'LEFT', 'positionCoords': [512.6, 335], 'bid': 3.25}, {'imgObject': {}, 'id': 'omelette', 'src': '/static/foodstim60/omelette.jpg', 'key': 'i', 'origWidth': 410, 'origHeight': 409, 'width': 410, 'height': 409, 'widthPercent': 0.45, 'rescaleHeight': False, 'trialN': 32, 'loaded': True, 'loadedTime': 2397.5, 'positionName': 'RIGHT', 'positionCoords': [998.4, 335.5], 'bid': 3.6}]",53928.40000000596,1669829855901,roastedpotatoes,omelette,3.25,3.6,0.3500000000000001,roastedpotatoes,1502.5,1503,1503.0,True,u,55932.5,2004.0999999940395,1669829857905,2004,HRV,HRV_0100,2022-11-30 17:41:40
33,"[{'imgObject': {}, 'id': 'steak', 'src': '/static/foodstim60/steak.jpg', 'key': 'u', 'origWidth': 410, 'origHeight': 410, 'width': 410, 'height': 410, 'widthPercent': 0.45, 'rescaleHeight': False, 'trialN': 33, 'loaded': True, 'loadedTime': 2465.0999999940395, 'positionName': 'LEFT', 'positionCoords': [511.6, 335], 'bid': 8.42}, {'imgObject': {}, 'id': 'turkeysandwich', 'src': '/static/foodstim60/turkeysandwich.jpg', 'key': 'i', 'origWidth': 409, 'origHeight': 409, 'width': 409, 'height': 409, 'widthPercent': 0.45, 'rescaleHeight': False, 'trialN': 33, 'loaded': True, 'loadedTime': 2695.4000000059605, 'positionName': 'RIGHT', 'positionCoords': [998.4, 335.5], 'bid': 5.91}]",55932.80000001192,1669829857905,steak,turkeysandwich,8.42,5.91,-2.51,turkeysandwich,1168.199999988079,1169,1168.5999999940395,True,i,57607.20000001788,1674.4000000059605,1669829859579,1674,HRV,HRV_0100,2022-11-30 17:41:40
34,"[{'imgObject': {}, 'id': 'eggs', 'src': '/static/foodstim60/eggs.jpg', 'key': 'u', 'origWidth': 409, 'origHeight': 409, 'width': 409, 'height': 409, 'widthPercent': 0.45, 'rescaleHeight': False, 'trialN': 34, 'loaded': True, 'loadedTime': 2451.5, 'positionName': 'LEFT', 'positionCoords': [512.6, 335.5], 'bid': 6.97}, {'imgObject': {}, 'id': 'steak', 'src': '/static/foodstim60/steak.jpg', 'key': 'i', 'origWidth': 410, 'origHeight': 410, 'width': 410, 'height': 410, 'widthPercent': 0.45, 'rescaleHeight': False, 'trialN': 34, 'loaded': True, 'loadedTime': 2465, 'positionName': 'RIGHT', 'positionCoords': [998.4, 335], 'bid': 8.42}]",57607.5,1669829859580,eggs,steak,6.97,8.42,1.4500000000000002,eggs,1163.4000000059605,1163,1163.800000011921,True,u,59287.30000001192,1679.800000011921,1669829861259,1679,HRV,HRV_0100,2022-11-30 17:41:40
35,"[{'imgObject': {}, 'id': 'banana', 'src': '/static/foodstim60/banana.jpg', 'key': 'u', 'origWidth': 410, 'origHeight': 410, 'width': 410, 'height': 410, 'widthPercent': 0.45, 'rescaleHeight': False, 'trialN': 35, 'loaded': True, 'loadedTime': 2711.5, 'positionName': 'LEFT', 'positionCoords': [511.6, 335], 'bid': 1.4}, {'imgObject': {}, 'id': 'eggsalad', 'src': '/static/foodstim60/eggsalad.jpg', 'key': 'i', 'origWidth': 410, 'origHeight': 409, 'width': 410, 'height': 409, 'widthPercent': 0.45, 'rescaleHeight': False, 'trialN': 35, 'loaded': True, 'loadedTime': 2395.300000011921, 'positionName': 'RIGHT', 'positionCoords': [998.4, 335.5], 'bid': 1.28}]",59287.59999999404,1669829861260,banana,eggsalad,1.4,1.28,-0.11999999999999988,banana,1203.2000000178814,1203,1203.6000000238419,True,u,60998.80000001192,1711.2000000178814,1669829862971,1711,HRV,HRV_0100,2022-11-30 17:41:40
36,"[{'imgObject': {}, 'id': 'corn cob', 'src': '/static/foodstim60/corn cob.jpg', 'key': 'u', 'origWidth': 411, 'origHeight': 411, 'width': 411, 'height': 411, 'widthPercent': 0.45, 'rescaleHeight': False, 'trialN': 36, 'loaded': True, 'loadedTime': 2469.2000000178814, 'positionName': 'LEFT', 'positionCoords': [510.6, 334.5], 'bid': 8.370000000000001}, {'imgObject': {}, 'id': 'edamame', 'src': '/static/foodstim60/edamame.jpg', 'key': 'i', 'origWidth': 409, 'origHeight': 410, 'width': 409, 'height': 410, 'widthPercent': 0.45, 'rescaleHeight': False, 'trialN': 36, 'loaded': True, 'loadedTime': 2633, 'positionName': 'RIGHT', 'positionCoords': [998.4, 335], 'bid': 7.96}]",60999.0,1669829862971,corn cob,edamame,8.370000000000001,7.96,-0.41000000000000103,edamame,1251.800000011921,1252,1252.2000000178814,True,i,62760.0,1761.0,1669829864732,1761,HRV,HRV_0100,2022-11-30 17:41:40
37,"[{'imgObject': {}, 'id': 'yogurt no spoon', 'src': '/static/foodstim60/yogurt no spoon.jpg', 'key': 'u', 'origWidth': 411, 'origHeight': 410, 'width': 411, 'height': 410, 'widthPercent': 0.45, 'rescaleHeight': False, 'trialN': 37, 'loaded': True, 'loadedTime': 2385.2000000178814, 'positionName': 'LEFT', 'positionCoords': [510.6, 335], 'bid': 0.72}, {'imgObject': {}, 'id': 'cocktailshrimp', 'src': '/static/foodstim60/cocktailshrimp.jpg', 'key': 'i', 'origWidth': 410, 'origHeight': 410, 'width': 410, 'height': 410, 'widthPercent': 0.45, 'rescaleHeight': False, 'trialN': 37, 'loaded': True, 'loadedTime': 2494.9000000059605, 'positionName': 'RIGHT', 'positionCoords': [998.4, 335], 'bid': 5.69}]",62760.09999999404,1669829864732,yogurt no spoon,cocktailshrimp,0.72,5.69,4.970000000000001,cocktailshrimp,901.6000000238419,902,902.0,True,i,64174.90000000596,1414.800000011921,1669829866147,1415,HRV,HRV_0100,2022-11-30 17:41:40
38,"[{'imgObject': {}, 'id': 'bagel and cc', 'src': '/static/foodstim60/bagel and cc.jpg', 'key': 'u', 'origWidth': 410, 'origHeight': 410, 'width': 410, 'height': 410, 'widthPercent': 0.45, 'rescaleHeight': False, 'trialN': 38, 'loaded': True, 'loadedTime': 2493.7000000178814, 'positionName': 'LEFT', 'positionCoords': [511.6, 335], 'bid': 1.23}, {'imgObject': {}, 'id': 'mac & cheese', 'src': '/static/foodstim60/mac & cheese.jpg', 'key': 'i', 'origWidth': 410, 'origHeight': 410, 'width': 410, 'height': 410, 'widthPercent': 0.45, 'rescaleHeight': False, 'trialN': 38, 'loaded': True, 'loadedTime': 2418.5999999940395, 'positionName': 'RIGHT', 'positionCoords': [998.4, 335], 'bid': 0.44}]",64175.0,1669829866147,bagel and cc,mac & cheese,1.23,0.44,-0.79,mac & cheese,1025.9000000059605,1026,1026.300000011921,True,i,65712.59999999404,1537.5999999940395,1669829867685,1538,HRV,HRV_0100,2022-11-30 17:41:40
39,"[{'imgObject': {}, 'id': 'avocado', 'src': '/static/foodstim60/avocado.jpg', 'key': 'u', 'origWidth': 409, 'origHeight': 409, 'width': 409, 'height': 409, 'widthPercent': 0.45, 'rescaleHeight': False, 'trialN': 39, 'loaded': True, 'loadedTime': 2411.4000000059605, 'positionName': 'LEFT', 'positionCoords': [512.6, 335.5], 'bid': 7.57}, {'imgObject': {}, 'id': 'turkeysandwich', 'src': '/static/foodstim60/turkeysandwich.jpg', 'key': 'i', 'origWidth': 409, 'origHeight': 409, 'width': 409, 'height': 409, 'widthPercent': 0.45, 'rescaleHeight': False, 'trialN': 39, 'loaded': True, 'loadedTime': 2695.800000011921, 'positionName': 'RIGHT', 'positionCoords': [998.4, 335.5], 'bid': 5.91}]",65712.90000000596,1669829867685,avocado,turkeysandwich,7.57,5.91,-1.6600000000000001,turkeysandwich,727.9000000059605,728,728.1999999880791,True,i,66963.0,1250.0999999940395,1669829868935,1250,HRV,HRV_0100,2022-11-30 17:41:40
40,"[{'imgObject': {}, 'id': 'tacos', 'src': '/static/foodstim60/tacos.jpg', 'key': 'u', 'origWidth': 411, 'origHeight': 411, 'width': 411, 'height': 411, 'widthPercent': 0.45, 'rescaleHeight': False, 'trialN': 40, 'loaded': True, 'loadedTime': 2712.300000011921, 'positionName': 'LEFT', 'positionCoords': [510.6, 334.5], 'bid': 5.63}, {'imgObject': {}, 'id': 'salmon', 'src': '/static/foodstim60/salmon.jpg', 'key': 'i', 'origWidth': 410, 'origHeight': 409, 'width': 410, 'height': 409, 'widthPercent': 0.45, 'rescaleHeight': False, 'trialN': 40, 'loaded': True, 'loadedTime': 2727.300000011921, 'positionName': 'RIGHT', 'positionCoords': [998.4, 335.5], 'bid': 5.38}]",66963.09999999404,1669829868935,tacos,salmon,5.63,5.38,-0.25,salmon,1027.800000011921,1028,1028.2000000178814,True,i,68505.09999999404,1542.0,1669829870477,1542,HRV,HRV_0100,2022-11-30 17:41:40
41,"[{'imgObject': {}, 'id': 'strawberries', 'src': '/static/foodstim60/strawberries.jpg', 'key': 'u', 'origWidth': 410, 'origHeight': 410, 'width': 410, 'height': 410, 'widthPercent': 0.45, 'rescaleHeight': False, 'trialN': 41, 'loaded': True, 'loadedTime': 2730.4000000059605, 'positionName': 'LEFT', 'positionCoords': [511.6, 335], 'bid': 7}, {'imgObject': {}, 'id': 'raspberries', 'src': '/static/foodstim60/raspberries.jpg', 'key': 'i', 'origWidth': 411, 'origHeight': 411, 'width': 411, 'height': 411, 'widthPercent': 0.45, 'rescaleHeight': False, 'trialN': 41, 'loaded': True, 'loadedTime': 2405.5999999940395, 'positionName': 'RIGHT', 'positionCoords': [998.4, 334.5], 'bid': 5.8100000000000005}]",68505.30000001192,1669829870477,strawberries,raspberries,7.0,5.8100000000000005,-1.1899999999999995,raspberries,1225.5,1226,1226.0,True,i,70246.40000000596,1741.0999999940395,1669829872218,1741,HRV,HRV_0100,2022-11-30 17:41:40
42,"[{'imgObject': {}, 'id': 'salmon', 'src': '/static/foodstim60/salmon.jpg', 'key': 'u', 'origWidth': 410, 'origHeight': 409, 'width': 410, 'height': 409, 'widthPercent': 0.45, 'rescaleHeight': False, 'trialN': 42, 'loaded': True, 'loadedTime': 2727.300000011921, 'positionName': 'LEFT', 'positionCoords': [511.6, 335.5], 'bid': 5.38}, {'imgObject': {}, 'id': 'burrito', 'src': '/static/foodstim60/burrito.jpg', 'key': 'i', 'origWidth': 410, 'origHeight': 410, 'width': 410, 'height': 410, 'widthPercent': 0.45, 'rescaleHeight': False, 'trialN': 42, 'loaded': True, 'loadedTime': 2507.7000000178814, 'positionName': 'RIGHT', 'positionCoords': [998.4, 335], 'bid': 5.59}]",70246.59999999404,1669829872219,salmon,burrito,5.38,5.59,0.20999999999999996,salmon,1494.2000000178814,1494,1494.7000000178814,True,u,72246.09999999404,1999.5,1669829874218,1999,HRV,HRV_0100,2022-11-30 17:41:40
43,"[{'imgObject': {}, 'id': 'omelette', 'src': '/static/foodstim60/omelette.jpg', 'key': 'u', 'origWidth': 410, 'origHeight': 409, 'width': 410, 'height': 409, 'widthPercent': 0.45, 'rescaleHeight': False, 'trialN': 43, 'loaded': True, 'loadedTime': 2397.2000000178814, 'positionName': 'LEFT', 'positionCoords': [511.6, 335.5], 'bid': 3.6}, {'imgObject': {}, 'id': 'steak', 'src': '/static/foodstim60/steak.jpg', 'key': 'i', 'origWidth': 410, 'origHeight': 410, 'width': 410, 'height': 410, 'widthPercent': 0.45, 'rescaleHeight': False, 'trialN': 43, 'loaded': True, 'loadedTime': 2463.4000000059605, 'positionName': 'RIGHT', 'positionCoords': [998.4, 335], 'bid': 8.42}]",72246.30000001192,1669829874218,omelette,steak,3.6,8.42,4.82,steak,1074.5999999940395,1075,1074.9000000059605,True,i,73829.59999999404,1583.2999999821186,1669829875802,1584,HRV,HRV_0100,2022-11-30 17:41:40
44,"[{'imgObject': {}, 'id': 'burrito', 'src': '/static/foodstim60/burrito.jpg', 'key': 'u', 'origWidth': 410, 'origHeight': 410, 'width': 410, 'height': 410, 'widthPercent': 0.45, 'rescaleHeight': False, 'trialN': 44, 'loaded': True, 'loadedTime': 2509, 'positionName': 'LEFT', 'positionCoords': [511.6, 335], 'bid': 5.59}, {'imgObject': {}, 'id': 'veggieswithdip', 'src': '/static/foodstim60/veggieswithdip.jpg', 'key': 'i', 'origWidth': 409, 'origHeight': 409, 'width': 409, 'height': 409, 'widthPercent': 0.45, 'rescaleHeight': False, 'trialN': 44, 'loaded': True, 'loadedTime': 2617.800000011921, 'positionName': 'RIGHT', 'positionCoords': [998.4, 335.5], 'bid': 5.88}]",73829.70000001788,1669829875802,burrito,veggieswithdip,5.59,5.88,0.29000000000000004,burrito,1081.2999999821186,1082,1081.7999999821186,True,u,75427.09999999404,1597.3999999761581,1669829877399,1597,HRV,HRV_0100,2022-11-30 17:41:40
45,"[{'imgObject': {}, 'id': 'chickenfingers', 'src': '/static/foodstim60/chickenfingers.jpg', 'key': 'u', 'origWidth': 410, 'origHeight': 410, 'width': 410, 'height': 410, 'widthPercent': 0.45, 'rescaleHeight': False, 'trialN': 45, 'loaded': True, 'loadedTime': 2601.7000000178814, 'positionName': 'LEFT', 'positionCoords': [511.6, 335], 'bid': 2.02}, {'imgObject': {}, 'id': 'eggsalad', 'src': '/static/foodstim60/eggsalad.jpg', 'key': 'i', 'origWidth': 410, 'origHeight': 409, 'width': 410, 'height': 409, 'widthPercent': 0.45, 'rescaleHeight': False, 'trialN': 45, 'loaded': True, 'loadedTime': 2395.300000011921, 'positionName': 'RIGHT', 'positionCoords': [998.4, 335.5], 'bid': 1.28}]",75427.30000001192,1669829877399,chickenfingers,eggsalad,2.02,1.28,-0.74,chickenfingers,1483.5,1484,1483.9000000059605,True,u,77415.0,1987.699999988079,1669829879387,1988,HRV,HRV_0100,2022-11-30 17:41:40
46,"[{'imgObject': {}, 'id': 'seaweed', 'src': '/static/foodstim60/seaweed.jpg', 'key': 'u', 'origWidth': 410, 'origHeight': 410, 'width': 410, 'height': 410, 'widthPercent': 0.45, 'rescaleHeight': False, 'trialN': 46, 'loaded': True, 'loadedTime': 2742.5, 'positionName': 'LEFT', 'positionCoords': [511.6, 335], 'bid': 0.12}, {'imgObject': {}, 'id': 'turkey sandwich', 'src': '/static/foodstim60/turkey sandwich.jpg', 'key': 'i', 'origWidth': 409, 'origHeight': 409, 'width': 409, 'height': 409, 'widthPercent': 0.45, 'rescaleHeight': False, 'trialN': 46, 'loaded': True, 'loadedTime': 2742.9000000059605, 'positionName': 'RIGHT', 'positionCoords': [998.4, 335.5], 'bid': 3.85}]",77415.20000001788,1669829879387,seaweed,turkey sandwich,0.12,3.85,3.73,turkey sandwich,965.5999999940395,966,966.0,True,i,78886.09999999404,1470.8999999761581,1669829880858,1471,HRV,HRV_0100,2022-11-30 17:41:40
47,"[{'imgObject': {}, 'id': 'Grapes', 'src': '/static/foodstim60/Grapes.jpg', 'key': 'u', 'origWidth': 411, 'origHeight': 411, 'width': 411, 'height': 411, 'widthPercent': 0.45, 'rescaleHeight': False, 'trialN': 47, 'loaded': True, 'loadedTime': 2618.0999999940395, 'positionName': 'LEFT', 'positionCoords': [510.6, 334.5], 'bid': 6.84}, {'imgObject': {}, 'id': 'olives', 'src': '/static/foodstim60/olives.jpg', 'key': 'i', 'origWidth': 410, 'origHeight': 410, 'width': 410, 'height': 410, 'widthPercent': 0.45, 'rescaleHeight': False, 'trialN': 47, 'loaded': True, 'loadedTime': 2553.2000000178814, 'positionName': 'RIGHT', 'positionCoords': [998.4, 335], 'bid': 4.4}]",78886.30000001192,1669829880858,Grapes,olives,6.84,4.4,-2.4399999999999995,Grapes,1905.4000000059605,1906,1905.699999988079,True,u,81306.59999999404,2420.2999999821186,1669829883279,2421,HRV,HRV_0100,2022-11-30 17:41:40
48,"[{'imgObject': {}, 'id': 'froot loops w milk', 'src': '/static/foodstim60/froot loops w milk.jpg', 'key': 'u', 'origWidth': 410, 'origHeight': 410, 'width': 410, 'height': 410, 'widthPercent': 0.45, 'rescaleHeight': False, 'trialN': 48, 'loaded': True, 'loadedTime': 2572, 'positionName': 'LEFT', 'positionCoords': [511.6, 335], 'bid': 0.89}, {'imgObject': {}, 'id': 'rigatoni and sauce', 'src': '/static/foodstim60/rigatoni and sauce.jpg', 'key': 'i', 'origWidth': 410, 'origHeight': 411, 'width': 410, 'height': 411, 'widthPercent': 0.45, 'rescaleHeight': False, 'trialN': 48, 'loaded': True, 'loadedTime': 2754.300000011921, 'positionName': 'RIGHT', 'positionCoords': [998.4, 334.5], 'bid': 0.93}]",81306.70000001788,1669829883279,froot loops w milk,rigatoni and sauce,0.89,0.93,0.040000000000000036,rigatoni and sauce,1424.0,1424,1424.3999999761581,True,i,83237.40000000596,1930.699999988079,1669829885209,1930,HRV,HRV_0100,2022-11-30 17:41:40
49,"[{'imgObject': {}, 'id': 'cheerios', 'src': '/static/foodstim60/cheerios.jpg', 'key': 'u', 'origWidth': 409, 'origHeight': 410, 'width': 409, 'height': 410, 'widthPercent': 0.45, 'rescaleHeight': False, 'trialN': 49, 'loaded': True, 'loadedTime': 2408.800000011921, 'positionName': 'LEFT', 'positionCoords': [512.6, 335], 'bid': 2.26}, {'imgObject': {}, 'id': 'sweetpotato', 'src': '/static/foodstim60/sweetpotato.jpg', 'key': 'i', 'origWidth': 410, 'origHeight': 410, 'width': 410, 'height': 410, 'widthPercent': 0.45, 'rescaleHeight': False, 'trialN': 49, 'loaded': True, 'loadedTime': 2666.4000000059605, 'positionName': 'RIGHT', 'positionCoords': [998.4, 335], 'bid': 2.56}]",83237.59999999404,1669829885210,cheerios,sweetpotato,2.26,2.56,0.30000000000000027,sweetpotato,1144.4000000059605,1145,1144.800000011921,True,i,84886.40000000596,1648.800000011921,1669829886858,1648,HRV,HRV_0100,2022-11-30 17:41:40
50,"[{'imgObject': {}, 'id': 'lox', 'src': '/static/foodstim60/lox.jpg', 'key': 'u', 'origWidth': 410, 'origHeight': 411, 'width': 410, 'height': 411, 'widthPercent': 0.45, 'rescaleHeight': False, 'trialN': 50, 'loaded': True, 'loadedTime': 2394, 'positionName': 'LEFT', 'positionCoords': [511.6, 334.5], 'bid': 0.15}, {'imgObject': {}, 'id': 'seaweed', 'src': '/static/foodstim60/seaweed.jpg', 'key': 'i', 'origWidth': 410, 'origHeight': 410, 'width': 410, 'height': 410, 'widthPercent': 0.45, 'rescaleHeight': False, 'trialN': 50, 'loaded': True, 'loadedTime': 2742.7000000178814, 'positionName': 'RIGHT', 'positionCoords': [998.4, 335], 'bid': 0.12}]",84886.5,1669829886859,lox,seaweed,0.15,0.12,-0.03,lox,874.5,874,874.8000000119209,True,u,86268.30000001192,1381.800000011921,1669829888240,1381,HRV,HRV_0100,2022-11-30 17:41:40
51,"[{'imgObject': {}, 'id': 'salad w chicken', 'src': '/static/foodstim60/salad w chicken.jpg', 'key': 'u', 'origWidth': 411, 'origHeight': 411, 'width': 411, 'height': 411, 'widthPercent': 0.45, 'rescaleHeight': False, 'trialN': 51, 'loaded': True, 'loadedTime': 2404.9000000059605, 'positionName': 'LEFT', 'positionCoords': [510.6, 334.5], 'bid': 5.84}, {'imgObject': {}, 'id': 'froot loops w milk', 'src': '/static/foodstim60/froot loops w milk.jpg', 'key': 'i', 'origWidth': 410, 'origHeight': 410, 'width': 410, 'height': 410, 'widthPercent': 0.45, 'rescaleHeight': False, 'trialN': 51, 'loaded': True, 'loadedTime': 2572.300000011921, 'positionName': 'RIGHT', 'positionCoords': [998.4, 335], 'bid': 0.89}]",86268.59999999404,1669829888241,salad w chicken,froot loops w milk,5.84,0.89,-4.95,salad w chicken,942.2000000178814,942,942.6000000238419,True,u,87731.20000001788,1462.6000000238419,1669829889703,1462,HRV,HRV_0100,2022-11-30 17:41:40
52,"[{'imgObject': {}, 'id': 'raisin bran w milk', 'src': '/static/foodstim60/raisin bran w milk.jpg', 'key': 'u', 'origWidth': 411, 'origHeight': 411, 'width': 411, 'height': 411, 'widthPercent': 0.45, 'rescaleHeight': False, 'trialN': 52, 'loaded': True, 'loadedTime': 2757.800000011921, 'positionName': 'LEFT', 'positionCoords': [510.6, 334.5], 'bid': 0.44}, {'imgObject': {}, 'id': 'salmon', 'src': '/static/foodstim60/salmon.jpg', 'key': 'i', 'origWidth': 410, 'origHeight': 409, 'width': 410, 'height': 409, 'widthPercent': 0.45, 'rescaleHeight': False, 'trialN': 52, 'loaded': True, 'loadedTime': 2727.4000000059605, 'positionName': 'RIGHT', 'positionCoords': [998.4, 335.5], 'bid': 5.38}]",87731.30000001192,1669829889703,raisin bran w milk,salmon,0.44,5.38,4.9399999999999995,salmon,989.5999999940395,990,990.0999999940395,True,i,89233.90000000596,1502.5999999940395,1669829891206,1503,HRV,HRV_0100,2022-11-30 17:41:40
53,"[{'imgObject': {}, 'id': 'edamame', 'src': '/static/foodstim60/edamame.jpg', 'key': 'u', 'origWidth': 409, 'origHeight': 410, 'width': 409, 'height': 410, 'widthPercent': 0.45, 'rescaleHeight': False, 'trialN': 53, 'loaded': True, 'loadedTime': 2620.0999999940395, 'positionName': 'LEFT', 'positionCoords': [512.6, 335], 'bid': 7.96}, {'imgObject': {}, 'id': 'fruitsalad', 'src': '/static/foodstim60/fruitsalad.jpg', 'key': 'i', 'origWidth': 410, 'origHeight': 410, 'width': 410, 'height': 410, 'widthPercent': 0.45, 'rescaleHeight': False, 'trialN': 53, 'loaded': True, 'loadedTime': 2771.4000000059605, 'positionName': 'RIGHT', 'positionCoords': [998.4, 335], 'bid': 6.29}]",89234.20000001788,1669829891206,edamame,fruitsalad,7.96,6.29,-1.67,fruitsalad,916.5,917,917.0999999940395,True,i,90652.20000001788,1418.0,1669829892624,1418,HRV,HRV_0100,2022-11-30 17:41:40
54,"[{'imgObject': {}, 'id': 'grilled chicken strips', 'src': '/static/foodstim60/grilled chicken strips.jpg', 'key': 'u', 'origWidth': 410, 'origHeight': 411, 'width': 410, 'height': 411, 'widthPercent': 0.45, 'rescaleHeight': False, 'trialN': 54, 'loaded': True, 'loadedTime': 2410.5, 'positionName': 'LEFT', 'positionCoords': [511.6, 334.5], 'bid': 7.11}, {'imgObject': {}, 'id': 'blueberries', 'src': '/static/foodstim60/blueberries.jpg', 'key': 'i', 'origWidth': 411, 'origHeight': 411, 'width': 411, 'height': 411, 'widthPercent': 0.45, 'rescaleHeight': False, 'trialN': 54, 'loaded': True, 'loadedTime': 2683.7000000178814, 'positionName': 'RIGHT', 'positionCoords': [998.4, 334.5], 'bid': 7.97}]",90652.40000000596,1669829892624,grilled chicken strips,blueberries,7.11,7.97,0.8599999999999994,grilled chicken strips,1619.5999999940395,1621,1620.0,True,u,92790.30000001192,2137.9000000059605,1669829894762,2138,HRV,HRV_0100,2022-11-30 17:41:40
55,"[{'imgObject': {}, 'id': 'rigatoni and sauce', 'src': '/static/foodstim60/rigatoni and sauce.jpg', 'key': 'u', 'origWidth': 410, 'origHeight': 411, 'width': 410, 'height': 411, 'widthPercent': 0.45, 'rescaleHeight': False, 'trialN': 55, 'loaded': True, 'loadedTime': 2755.5, 'positionName': 'LEFT', 'positionCoords': [511.6, 334.5], 'bid': 0.93}, {'imgObject': {}, 'id': 'bagel and cc', 'src': '/static/foodstim60/bagel and cc.jpg', 'key': 'i', 'origWidth': 410, 'origHeight': 410, 'width': 410, 'height': 410, 'widthPercent': 0.45, 'rescaleHeight': False, 'trialN': 55, 'loaded': True, 'loadedTime': 2477, 'positionName': 'RIGHT', 'positionCoords': [998.4, 335], 'bid': 1.23}]",92790.5,1669829894763,rigatoni and sauce,bagel and cc,0.93,1.23,0.29999999999999993,bagel and cc,1010.0999999940395,1010,1010.4000000059605,True,i,94306.5,1516.0,1669829896279,1516,HRV,HRV_0100,2022-11-30 17:41:40
56,"[{'imgObject': {}, 'id': 'sweetpotato', 'src': '/static/foodstim60/sweetpotato.jpg', 'key': 'u', 'origWidth': 410, 'origHeight': 410, 'width': 410, 'height': 410, 'widthPercent': 0.45, 'rescaleHeight': False, 'trialN': 56, 'loaded': True, 'loadedTime': 2666.5999999940395, 'positionName': 'LEFT', 'positionCoords': [511.6, 335], 'bid': 2.56}, {'imgObject': {}, 'id': 'baked potato', 'src': '/static/foodstim60/baked potato.jpg', 'key': 'i', 'origWidth': 409, 'origHeight': 410, 'width': 409, 'height': 410, 'widthPercent': 0.45, 'rescaleHeight': False, 'trialN': 56, 'loaded': True, 'loadedTime': 2555.5, 'positionName': 'RIGHT', 'positionCoords': [998.4, 335], 'bid': 3.21}]",94306.70000001788,1669829896279,sweetpotato,baked potato,2.56,3.21,0.6499999999999999,sweetpotato,1584.199999988079,1584,1584.3999999761581,True,u,96401.09999999404,2094.399999976158,1669829898373,2094,HRV,HRV_0100,2022-11-30 17:41:40
57,"[{'imgObject': {}, 'id': 'cantaloupe', 'src': '/static/foodstim60/cantaloupe.jpg', 'key': 'u', 'origWidth': 409, 'origHeight': 409, 'width': 409, 'height': 409, 'widthPercent': 0.45, 'rescaleHeight': False, 'trialN': 57, 'loaded': True, 'loadedTime': 2774.4000000059605, 'positionName': 'LEFT', 'positionCoords': [512.6, 335.5], 'bid': 7.26}, {'imgObject': {}, 'id': 'corn cob', 'src': '/static/foodstim60/corn cob.jpg', 'key': 'i', 'origWidth': 411, 'origHeight': 411, 'width': 411, 'height': 411, 'widthPercent': 0.45, 'rescaleHeight': False, 'trialN': 57, 'loaded': True, 'loadedTime': 2469.7000000178814, 'positionName': 'RIGHT', 'positionCoords': [998.4, 334.5], 'bid': 8.370000000000001}]",96401.30000001192,1669829898373,cantaloupe,corn cob,7.26,8.370000000000001,1.1100000000000012,cantaloupe,829.5,830,829.9000000059605,True,u,97738.40000000596,1337.0999999940395,1669829899710,1337,HRV,HRV_0100,2022-11-30 17:41:40
58,"[{'imgObject': {}, 'id': 'luckycharms', 'src': '/static/foodstim60/luckycharms.jpg', 'key': 'u', 'origWidth': 410, 'origHeight': 409, 'width': 410, 'height': 409, 'widthPercent': 0.45, 'rescaleHeight': False, 'trialN': 58, 'loaded': True, 'loadedTime': 2775.5999999940395, 'positionName': 'LEFT', 'positionCoords': [511.6, 335.5], 'bid': 0.2}, {'imgObject': {}, 'id': 'hashbrowns', 'src': '/static/foodstim60/hashbrowns.jpg', 'key': 'i', 'origWidth': 411, 'origHeight': 410, 'width': 411, 'height': 410, 'widthPercent': 0.45, 'rescaleHeight': False, 'trialN': 58, 'loaded': True, 'loadedTime': 2379.0999999940395, 'positionName': 'RIGHT', 'positionCoords': [998.4, 335], 'bid': 0.7000000000000001}]",97738.59999999404,1669829899711,luckycharms,hashbrowns,0.2,0.7000000000000001,0.5,luckycharms,1132.0,1132,1132.300000011921,True,u,99382.5,1643.9000000059605,1669829901355,1644,HRV,HRV_0100,2022-11-30 17:41:40
59,"[{'imgObject': {}, 'id': 'rigatoni and sauce', 'src': '/static/foodstim60/rigatoni and sauce.jpg', 'key': 'u', 'origWidth': 410, 'origHeight': 411, 'width': 410, 'height': 411, 'widthPercent': 0.45, 'rescaleHeight': False, 'trialN': 59, 'loaded': True, 'loadedTime': 2755.7000000178814, 'positionName': 'LEFT', 'positionCoords': [511.6, 334.5], 'bid': 0.93}, {'imgObject': {}, 'id': 'bagel plain', 'src': '/static/foodstim60/bagel plain.jpg', 'key': 'i', 'origWidth': 410, 'origHeight': 410, 'width': 410, 'height': 410, 'widthPercent': 0.45, 'rescaleHeight': False, 'trialN': 59, 'loaded': True, 'loadedTime': 2776.9000000059605, 'positionName': 'RIGHT', 'positionCoords': [998.4, 335], 'bid': 1.69}]",99382.90000000596,1669829901355,rigatoni and sauce,bagel plain,0.93,1.69,0.7599999999999999,rigatoni and sauce,967.8000000119209,968,968.1999999880791,True,u,100856.30000001192,1473.4000000059605,1669829902828,1473,HRV,HRV_0100,2022-11-30 17:41:40
60,"[{'imgObject': {}, 'id': 'rigatoni', 'src': '/static/foodstim60/rigatoni.jpg', 'key': 'u', 'origWidth': 411, 'origHeight': 411, 'width': 411, 'height': 411, 'widthPercent': 0.45, 'rescaleHeight': False, 'trialN': 60, 'loaded': True, 'loadedTime': 2402.800000011921, 'positionName': 'LEFT', 'positionCoords': [510.6, 334.5], 'bid': 1.52}, {'imgObject': {}, 'id': 'ice cream sundae 002', 'src': '/static/foodstim60/ice cream sundae 002.jpg', 'key': 'i', 'origWidth': 409, 'origHeight': 409, 'width': 409, 'height': 409, 'widthPercent': 0.45, 'rescaleHeight': False, 'trialN': 60, 'loaded': True, 'loadedTime': 2411.7000000178814, 'positionName': 'RIGHT', 'positionCoords': [998.4, 335.5], 'bid': 1.53}]",100856.5,1669829902829,rigatoni,ice cream sundae 002,1.52,1.53,0.010000000000000009,rigatoni,764.3000000119209,764,764.8000000119209,True,u,102125.09999999404,1268.5999999940395,1669829904097,1268,HRV,HRV_0100,2022-11-30 17:41:40
61,"[{'imgObject': {}, 'id': 'cherry tomato', 'src': '/static/foodstim60/cherry tomato.jpg', 'key': 'u', 'origWidth': 410, 'origHeight': 410, 'width': 410, 'height': 410, 'widthPercent': 0.45, 'rescaleHeight': False, 'trialN': 61, 'loaded': True, 'loadedTime': 2399.2000000178814, 'positionName': 'LEFT', 'positionCoords': [511.6, 335], 'bid': 5.82}, {'imgObject': {}, 'id': 'grilled chicken strips', 'src': '/static/foodstim60/grilled chicken strips.jpg', 'key': 'i', 'origWidth': 410, 'origHeight': 411, 'width': 410, 'height': 411, 'widthPercent': 0.45, 'rescaleHeight': False, 'trialN': 61, 'loaded': True, 'loadedTime': 2410.5, 'positionName': 'RIGHT', 'positionCoords': [998.4, 334.5], 'bid': 7.11}]",102125.40000000596,1669829904097,cherry tomato,grilled chicken strips,5.82,7.11,1.29,grilled chicken strips,865.5,866,866.0,True,i,103504.70000001788,1379.300000011921,1669829905477,1380,HRV,HRV_0100,2022-11-30 17:41:40
62,"[{'imgObject': {}, 'id': 'cantaloupe', 'src': '/static/foodstim60/cantaloupe.jpg', 'key': 'u', 'origWidth': 409, 'origHeight': 409, 'width': 409, 'height': 409, 'widthPercent': 0.45, 'rescaleHeight': False, 'trialN': 62, 'loaded': True, 'loadedTime': 2773.2000000178814, 'positionName': 'LEFT', 'positionCoords': [512.6, 335.5], 'bid': 7.26}, {'imgObject': {}, 'id': 'salad w chicken', 'src': '/static/foodstim60/salad w chicken.jpg', 'key': 'i', 'origWidth': 411, 'origHeight': 411, 'width': 411, 'height': 411, 'widthPercent': 0.45, 'rescaleHeight': False, 'trialN': 62, 'loaded': True, 'loadedTime': 2404.800000011921, 'positionName': 'RIGHT', 'positionCoords': [998.4, 334.5], 'bid': 5.84}]",103504.90000000596,1669829905477,cantaloupe,salad w chicken,7.26,5.84,-1.42,salad w chicken,895.9000000059605,896,896.4000000059605,True,i,104919.09999999404,1414.199999988079,1669829906891,1414,HRV,HRV_0100,2022-11-30 17:41:40
63,"[{'imgObject': {}, 'id': 'lox', 'src': '/static/foodstim60/lox.jpg', 'key': 'u', 'origWidth': 410, 'origHeight': 411, 'width': 410, 'height': 411, 'widthPercent': 0.45, 'rescaleHeight': False, 'trialN': 63, 'loaded': True, 'loadedTime': 2394.0999999940395, 'positionName': 'LEFT', 'positionCoords': [511.6, 334.5], 'bid': 0.15}, {'imgObject': {}, 'id': 'shreddedwheatwithmilk', 'src': '/static/foodstim60/shreddedwheatwithmilk.jpg', 'key': 'i', 'origWidth': 410, 'origHeight': 410, 'width': 410, 'height': 410, 'widthPercent': 0.45, 'rescaleHeight': False, 'trialN': 63, 'loaded': True, 'loadedTime': 2682.300000011921, 'positionName': 'RIGHT', 'positionCoords': [998.4, 335], 'bid': 0.87}]",104919.20000001788,1669829906891,lox,shreddedwheatwithmilk,0.15,0.87,0.72,shreddedwheatwithmilk,1021.7999999821186,1023,1022.1999999880791,True,i,106456.40000000596,1537.199999988079,1669829908429,1538,HRV,HRV_0100,2022-11-30 17:41:40
64,"[{'imgObject': {}, 'id': 'veggieswithdip', 'src': '/static/foodstim60/veggieswithdip.jpg', 'key': 'u', 'origWidth': 409, 'origHeight': 409, 'width': 409, 'height': 409, 'widthPercent': 0.45, 'rescaleHeight': False, 'trialN': 64, 'loaded': True, 'loadedTime': 2617.800000011921, 'positionName': 'LEFT', 'positionCoords': [512.6, 335.5], 'bid': 5.88}, {'imgObject': {}, 'id': 'orange slices', 'src': '/static/foodstim60/orange slices.jpg', 'key': 'i', 'origWidth': 409, 'origHeight': 410, 'width': 409, 'height': 410, 'widthPercent': 0.45, 'rescaleHeight': False, 'trialN': 64, 'loaded': True, 'loadedTime': 2778.300000011921, 'positionName': 'RIGHT', 'positionCoords': [998.4, 335], 'bid': 7.27}]",106456.70000001788,1669829908429,veggieswithdip,orange slices,5.88,7.27,1.3899999999999997,orange slices,1063.7999999821186,1064,1064.0999999940395,True,i,108035.30000001192,1578.5999999940395,1669829910007,1578,HRV,HRV_0100,2022-11-30 17:41:40
65,"[{'imgObject': {}, 'id': 'shreddedwheatwithmilk', 'src': '/static/foodstim60/shreddedwheatwithmilk.jpg', 'key': 'u', 'origWidth': 410, 'origHeight': 410, 'width': 410, 'height': 410, 'widthPercent': 0.45, 'rescaleHeight': False, 'trialN': 65, 'loaded': True, 'loadedTime': 2681.9000000059605, 'positionName': 'LEFT', 'positionCoords': [511.6, 335], 'bid': 0.87}, {'imgObject': {}, 'id': 'cherry tomato', 'src': '/static/foodstim60/cherry tomato.jpg', 'key': 'i', 'origWidth': 410, 'origHeight': 410, 'width': 410, 'height': 410, 'widthPercent': 0.45, 'rescaleHeight': False, 'trialN': 65, 'loaded': True, 'loadedTime': 2399.7000000178814, 'positionName': 'RIGHT', 'positionCoords': [998.4, 335], 'bid': 5.82}]",108035.40000000596,1669829910007,shreddedwheatwithmilk,cherry tomato,0.87,5.82,4.95,cherry tomato,916.0999999940395,917,916.5,True,i,109465.20000001788,1429.800000011921,1669829911437,1430,HRV,HRV_0100,2022-11-30 17:41:40
66,"[{'imgObject': {}, 'id': 'Tribe humus pita', 'src': '/static/foodstim60/Tribe humus pita.jpg', 'key': 'u', 'origWidth': 411, 'origHeight': 411, 'width': 411, 'height': 411, 'widthPercent': 0.45, 'rescaleHeight': False, 'trialN': 66, 'loaded': True, 'loadedTime': 2780.2000000178814, 'positionName': 'LEFT', 'positionCoords': [510.6, 334.5], 'bid': 2.07}, {'imgObject': {}, 'id': 'hashbrowns', 'src': '/static/foodstim60/hashbrowns.jpg', 'key': 'i', 'origWidth': 411, 'origHeight': 410, 'width': 411, 'height': 410, 'widthPercent': 0.45, 'rescaleHeight': False, 'trialN': 66, 'loaded': True, 'loadedTime': 2382, 'positionName': 'RIGHT', 'positionCoords': [998.4, 335], 'bid': 0.7000000000000001}]",109465.40000000596,1669829911437,Tribe humus pita,hashbrowns,2.07,0.7000000000000001,-1.3699999999999997,Tribe humus pita,1085.199999988079,1086,1085.5,True,u,111052.70000001788,1587.300000011921,1669829913025,1588,HRV,HRV_0100,2022-11-30 17:41:40
67,"[{'imgObject': {}, 'id': 'bagel and cc', 'src': '/static/foodstim60/bagel and cc.jpg', 'key': 'u', 'origWidth': 410, 'origHeight': 410, 'width': 410, 'height': 410, 'widthPercent': 0.45, 'rescaleHeight': False, 'trialN': 67, 'loaded': True, 'loadedTime': 2479.5999999940395, 'positionName': 'LEFT', 'positionCoords': [511.6, 335], 'bid': 1.23}, {'imgObject': {}, 'id': 'fried eggs', 'src': '/static/foodstim60/fried eggs.jpg', 'key': 'i', 'origWidth': 410, 'origHeight': 410, 'width': 410, 'height': 410, 'widthPercent': 0.45, 'rescaleHeight': False, 'trialN': 67, 'loaded': True, 'loadedTime': 2665.4000000059605, 'positionName': 'RIGHT', 'positionCoords': [998.4, 335], 'bid': 6.07}]",111052.80000001192,1669829913025,bagel and cc,fried eggs,1.23,6.07,4.84,fried eggs,1407.5999999940395,1408,1407.9000000059605,True,i,112978.80000001192,1926.0,1669829914951,1926,HRV,HRV_0100,2022-11-30 17:41:40
68,"[{'imgObject': {}, 'id': 'Grapes', 'src': '/static/foodstim60/Grapes.jpg', 'key': 'u', 'origWidth': 411, 'origHeight': 411, 'width': 411, 'height': 411, 'widthPercent': 0.45, 'rescaleHeight': False, 'trialN': 68, 'loaded': True, 'loadedTime': 2619, 'positionName': 'LEFT', 'positionCoords': [510.6, 334.5], 'bid': 6.84}, {'imgObject': {}, 'id': 'eggs', 'src': '/static/foodstim60/eggs.jpg', 'key': 'i', 'origWidth': 409, 'origHeight': 409, 'width': 409, 'height': 409, 'widthPercent': 0.45, 'rescaleHeight': False, 'trialN': 68, 'loaded': True, 'loadedTime': 2453, 'positionName': 'RIGHT', 'positionCoords': [998.4, 335.5], 'bid': 6.97}]",112979.09999999404,1669829914951,Grapes,eggs,6.84,6.97,0.1299999999999999,eggs,901.6000000238419,902,901.9000000059605,True,i,114395.09999999404,1416.0,1669829916367,1416,HRV,HRV_0100,2022-11-30 17:41:40
69,"[{'imgObject': {}, 'id': 'raisin bran w milk', 'src': '/static/foodstim60/raisin bran w milk.jpg', 'key': 'u', 'origWidth': 411, 'origHeight': 411, 'width': 411, 'height': 411, 'widthPercent': 0.45, 'rescaleHeight': False, 'trialN': 69, 'loaded': True, 'loadedTime': 2757.5999999940395, 'positionName': 'LEFT', 'positionCoords': [510.6, 334.5], 'bid': 0.44}, {'imgObject': {}, 'id': 'mashed potato', 'src': '/static/foodstim60/mashed potato.jpg', 'key': 'i', 'origWidth': 409, 'origHeight': 409, 'width': 409, 'height': 409, 'widthPercent': 0.45, 'rescaleHeight': False, 'trialN': 69, 'loaded': True, 'loadedTime': 2388.5, 'positionName': 'RIGHT', 'positionCoords': [998.4, 335.5], 'bid': 1.77}]",114395.20000001788,1669829916367,raisin bran w milk,mashed potato,0.44,1.77,1.33,mashed potato,1175.3999999761581,1176,1175.7999999821186,True,i,116091.5,1696.2999999821186,1669829918063,1696,HRV,HRV_0100,2022-11-30 17:41:40
70,"[{'imgObject': {}, 'id': 'sweetpotato', 'src': '/static/foodstim60/sweetpotato.jpg', 'key': 'u', 'origWidth': 410, 'origHeight': 410, 'width': 410, 'height': 410, 'widthPercent': 0.45, 'rescaleHeight': False, 'trialN': 70, 'loaded': True, 'loadedTime': 2666.4000000059605, 'positionName': 'LEFT', 'positionCoords': [511.6, 335], 'bid': 2.56}, {'imgObject': {}, 'id': 'mango', 'src': '/static/foodstim60/mango.jpg', 'key': 'i', 'origWidth': 411, 'origHeight': 411, 'width': 411, 'height': 411, 'widthPercent': 0.45, 'rescaleHeight': False, 'trialN': 70, 'loaded': True, 'loadedTime': 2603.0999999940395, 'positionName': 'RIGHT', 'positionCoords': [998.4, 334.5], 'bid': 4.23}]",116091.59999999404,1669829918064,sweetpotato,mango,2.56,4.23,1.6700000000000004,sweetpotato,1400.5,1400,1400.9000000059605,True,u,118002.40000000596,1910.800000011921,1669829919974,1910,HRV,HRV_0100,2022-11-30 17:41:40
71,"[{'imgObject': {}, 'id': 'cherries', 'src': '/static/foodstim60/cherries.jpg', 'key': 'u', 'origWidth': 410, 'origHeight': 411, 'width': 410, 'height': 411, 'widthPercent': 0.45, 'rescaleHeight': False, 'trialN': 71, 'loaded': True, 'loadedTime': 2438.5999999940395, 'positionName': 'LEFT', 'positionCoords': [511.6, 334.5], 'bid': 7.61}, {'imgObject': {}, 'id': 'orange slices', 'src': '/static/foodstim60/orange slices.jpg', 'key': 'i', 'origWidth': 409, 'origHeight': 410, 'width': 409, 'height': 410, 'widthPercent': 0.45, 'rescaleHeight': False, 'trialN': 71, 'loaded': True, 'loadedTime': 2777, 'positionName': 'RIGHT', 'positionCoords': [998.4, 335], 'bid': 7.27}]",118002.59999999404,1669829919975,cherries,orange slices,7.61,7.27,-0.34000000000000075,cherries,898.1000000238419,898,898.5,True,u,119411.40000000596,1408.800000011921,1669829921383,1408,HRV,HRV_0100,2022-11-30 17:41:40
72,"[{'imgObject': {}, 'id': 'veggieswithdip', 'src': '/static/foodstim60/veggieswithdip.jpg', 'key': 'u', 'origWidth': 409, 'origHeight': 409, 'width': 409, 'height': 409, 'widthPercent': 0.45, 'rescaleHeight': False, 'trialN': 72, 'loaded': True, 'loadedTime': 2618, 'positionName': 'LEFT', 'positionCoords': [512.6, 335.5], 'bid': 5.88}, {'imgObject': {}, 'id': 'cherry tomato', 'src': '/static/foodstim60/cherry tomato.jpg', 'key': 'i', 'origWidth': 410, 'origHeight': 410, 'width': 410, 'height': 410, 'widthPercent': 0.45, 'rescaleHeight': False, 'trialN': 72, 'loaded': True, 'loadedTime': 2400, 'positionName': 'RIGHT', 'positionCoords': [998.4, 335], 'bid': 5.82}]",119411.59999999404,1669829921384,veggieswithdip,cherry tomato,5.88,5.82,-0.05999999999999961,veggieswithdip,1710.300000011921,1710,1710.800000011921,True,u,121636.0,2224.4000000059605,1669829923608,2224,HRV,HRV_0100,2022-11-30 17:41:40
73,"[{'imgObject': {}, 'id': 'chickenfingers', 'src': '/static/foodstim60/chickenfingers.jpg', 'key': 'u', 'origWidth': 410, 'origHeight': 410, 'width': 410, 'height': 410, 'widthPercent': 0.45, 'rescaleHeight': False, 'trialN': 73, 'loaded': True, 'loadedTime': 2586.5, 'positionName': 'LEFT', 'positionCoords': [511.6, 335], 'bid': 2.02}, {'imgObject': {}, 'id': 'bagel plain', 'src': '/static/foodstim60/bagel plain.jpg', 'key': 'i', 'origWidth': 410, 'origHeight': 410, 'width': 410, 'height': 410, 'widthPercent': 0.45, 'rescaleHeight': False, 'trialN': 73, 'loaded': True, 'loadedTime': 2776.9000000059605, 'positionName': 'RIGHT', 'positionCoords': [998.4, 335], 'bid': 1.69}]",121636.40000000596,1669829923608,chickenfingers,bagel plain,2.02,1.69,-0.33000000000000007,chickenfingers,1044.0999999940395,1045,1044.4000000059605,True,u,123192.30000001192,1555.9000000059605,1669829925164,1556,HRV,HRV_0100,2022-11-30 17:41:40
74,"[{'imgObject': {}, 'id': 'rigatoni and sauce', 'src': '/static/foodstim60/rigatoni and sauce.jpg', 'key': 'u', 'origWidth': 410, 'origHeight': 411, 'width': 410, 'height': 411, 'widthPercent': 0.45, 'rescaleHeight': False, 'trialN': 74, 'loaded': True, 'loadedTime': 2755.9000000059605, 'positionName': 'LEFT', 'positionCoords': [511.6, 334.5], 'bid': 0.93}, {'imgObject': {}, 'id': 'popsicles', 'src': '/static/foodstim60/popsicles.jpg', 'key': 'i', 'origWidth': 410, 'origHeight': 410, 'width': 410, 'height': 410, 'widthPercent': 0.45, 'rescaleHeight': False, 'trialN': 74, 'loaded': True, 'loadedTime': 2780.300000011921, 'positionName': 'RIGHT', 'positionCoords': [998.4, 335], 'bid': 0.39}]",123192.40000000596,1669829925164,rigatoni and sauce,popsicles,0.93,0.39,-0.54,rigatoni and sauce,858.0999999940395,859,858.4000000059605,True,u,124558.40000000596,1366.0,1669829926530,1366,HRV,HRV_0100,2022-11-30 17:41:40
75,"[{'imgObject': {}, 'id': 'sushi w_condiments', 'src': '/static/foodstim60/sushi w_condiments.jpg', 'key': 'u', 'origWidth': 410, 'origHeight': 410, 'width': 410, 'height': 410, 'widthPercent': 0.45, 'rescaleHeight': False, 'trialN': 75, 'loaded': True, 'loadedTime': 2522.5, 'positionName': 'LEFT', 'positionCoords': [511.6, 335], 'bid': 0.26}, {'imgObject': {}, 'id': 'rigatoni', 'src': '/static/foodstim60/rigatoni.jpg', 'key': 'i', 'origWidth': 411, 'origHeight': 411, 'width': 411, 'height': 411, 'widthPercent': 0.45, 'rescaleHeight': False, 'trialN': 75, 'loaded': True, 'loadedTime': 2403.5999999940395, 'positionName': 'RIGHT', 'positionCoords': [998.4, 334.5], 'bid': 1.52}]",124558.59999999404,1669829926531,sushi w_condiments,rigatoni,0.26,1.52,1.26,rigatoni,1022.1000000238419,1022,1022.5,True,i,126099.09999999404,1540.5,1669829928071,1540,HRV,HRV_0100,2022-11-30 17:41:40
76,"[{'imgObject': {}, 'id': 'seaweed', 'src': '/static/foodstim60/seaweed.jpg', 'key': 'u', 'origWidth': 410, 'origHeight': 410, 'width': 410, 'height': 410, 'widthPercent': 0.45, 'rescaleHeight': False, 'trialN': 76, 'loaded': True, 'loadedTime': 2742.800000011921, 'positionName': 'LEFT', 'positionCoords': [511.6, 335], 'bid': 0.12}, {'imgObject': {}, 'id': 'bagel and cc', 'src': '/static/foodstim60/bagel and cc.jpg', 'key': 'i', 'origWidth': 410, 'origHeight': 410, 'width': 410, 'height': 410, 'widthPercent': 0.45, 'rescaleHeight': False, 'trialN': 76, 'loaded': True, 'loadedTime': 2478.5, 'positionName': 'RIGHT', 'positionCoords': [998.4, 335], 'bid': 1.23}]",126099.20000001788,1669829928071,seaweed,bagel and cc,0.12,1.23,1.1099999999999999,bagel and cc,771.2999999821186,772,771.6999999880791,True,i,127374.40000000596,1275.199999988079,1669829929346,1275,HRV,HRV_0100,2022-11-30 17:41:40
77,"[{'imgObject': {}, 'id': 'mango', 'src': '/static/foodstim60/mango.jpg', 'key': 'u', 'origWidth': 411, 'origHeight': 411, 'width': 411, 'height': 411, 'widthPercent': 0.45, 'rescaleHeight': False, 'trialN': 77, 'loaded': True, 'loadedTime': 2615.7000000178814, 'positionName': 'LEFT', 'positionCoords': [510.6, 334.5], 'bid': 4.23}, {'imgObject': {}, 'id': 'olives', 'src': '/static/foodstim60/olives.jpg', 'key': 'i', 'origWidth': 410, 'origHeight': 410, 'width': 410, 'height': 410, 'widthPercent': 0.45, 'rescaleHeight': False, 'trialN': 77, 'loaded': True, 'loadedTime': 2537.5999999940395, 'positionName': 'RIGHT', 'positionCoords': [998.4, 335], 'bid': 4.4}]",127374.70000001788,1669829929347,mango,olives,4.23,4.4,0.16999999999999993,mango,1687.0999999940395,1687,1687.2999999821186,True,u,129567.30000001192,2192.5999999940395,1669829931539,2192,HRV,HRV_0100,2022-11-30 17:41:40
78,"[{'imgObject': {}, 'id': 'cheerios', 'src': '/static/foodstim60/cheerios.jpg', 'key': 'u', 'origWidth': 409, 'origHeight': 410, 'width': 409, 'height': 410, 'widthPercent': 0.45, 'rescaleHeight': False, 'trialN': 78, 'loaded': True, 'loadedTime': 2408.5999999940395, 'positionName': 'LEFT', 'positionCoords': [512.6, 335], 'bid': 2.26}, {'imgObject': {}, 'id': 'turkey sandwich', 'src': '/static/foodstim60/turkey sandwich.jpg', 'key': 'i', 'origWidth': 409, 'origHeight': 409, 'width': 409, 'height': 409, 'widthPercent': 0.45, 'rescaleHeight': False, 'trialN': 78, 'loaded': True, 'loadedTime': 2744, 'positionName': 'RIGHT', 'positionCoords': [998.4, 335.5], 'bid': 3.85}]",129567.59999999404,1669829931540,cheerios,turkey sandwich,2.26,3.85,1.5900000000000003,turkey sandwich,934.1000000238419,934,934.5,True,i,131010.30000001192,1442.7000000178814,1669829932982,1442,HRV,HRV_0100,2022-11-30 17:41:40
79,"[{'imgObject': {}, 'id': 'cherries', 'src': '/static/foodstim60/cherries.jpg', 'key': 'u', 'origWidth': 410, 'origHeight': 411, 'width': 410, 'height': 411, 'widthPercent': 0.45, 'rescaleHeight': False, 'trialN': 79, 'loaded': True, 'loadedTime': 2451.4000000059605, 'positionName': 'LEFT', 'positionCoords': [511.6, 334.5], 'bid': 7.61}, {'imgObject': {}, 'id': 'chicken nuggets2', 'src': '/static/foodstim60/chicken nuggets2.jpg', 'key': 'i', 'origWidth': 410, 'origHeight': 409, 'width': 410, 'height': 409, 'widthPercent': 0.45, 'rescaleHeight': False, 'trialN': 79, 'loaded': True, 'loadedTime': 2329.2000000178814, 'positionName': 'RIGHT', 'positionCoords': [998.4, 335.5], 'bid': 2.28}]",131010.59999999404,1669829932983,cherries,chicken nuggets2,7.61,2.28,-5.33,cherries,820.0,820,820.5,True,u,132334.30000001192,1323.7000000178814,1669829934306,1323,HRV,HRV_0100,2022-11-30 17:41:40
80,"[{'imgObject': {}, 'id': 'granola w milk', 'src': '/static/foodstim60/granola w milk.jpg', 'key': 'u', 'origWidth': 410, 'origHeight': 410, 'width': 410, 'height': 410, 'widthPercent': 0.45, 'rescaleHeight': False, 'trialN': 80, 'loaded': True, 'loadedTime': 2476.9000000059605, 'positionName': 'LEFT', 'positionCoords': [511.6, 335], 'bid': 0.92}, {'imgObject': {}, 'id': 'ice cream sundae 002', 'src': '/static/foodstim60/ice cream sundae 002.jpg', 'key': 'i', 'origWidth': 409, 'origHeight': 409, 'width': 409, 'height': 409, 'widthPercent': 0.45, 'rescaleHeight': False, 'trialN': 80, 'loaded': True, 'loadedTime': 2412.5, 'positionName': 'RIGHT', 'positionCoords': [998.4, 335.5], 'bid': 1.53}]",132334.40000000596,1669829934306,granola w milk,ice cream sundae 002,0.92,1.53,0.61,granola w milk,966.1999999880791,967,966.5999999940395,True,u,133810.20000001788,1475.800000011921,1669829935782,1476,HRV,HRV_0100,2022-11-30 17:41:40
81,"[{'imgObject': {}, 'id': 'blueberries', 'src': '/static/foodstim60/blueberries.jpg', 'key': 'u', 'origWidth': 411, 'origHeight': 411, 'width': 411, 'height': 411, 'widthPercent': 0.45, 'rescaleHeight': False, 'trialN': 81, 'loaded': True, 'loadedTime': 2682.4000000059605, 'positionName': 'LEFT', 'positionCoords': [510.6, 334.5], 'bid': 7.97}, {'imgObject': {}, 'id': 'edamame', 'src': '/static/foodstim60/edamame.jpg', 'key': 'i', 'origWidth': 409, 'origHeight': 410, 'width': 409, 'height': 410, 'widthPercent': 0.45, 'rescaleHeight': False, 'trialN': 81, 'loaded': True, 'loadedTime': 2633.800000011921, 'positionName': 'RIGHT', 'positionCoords': [998.4, 335], 'bid': 7.96}]",133810.40000000596,1669829935782,blueberries,edamame,7.97,7.96,-0.009999999999999787,edamame,1089.9000000059605,1091,1090.300000011921,True,i,135406.09999999404,1595.699999988079,1669829937378,1596,HRV,HRV_0100,2022-11-30 17:41:40
82,"[{'imgObject': {}, 'id': 'cantaloupe', 'src': '/static/foodstim60/cantaloupe.jpg', 'key': 'u', 'origWidth': 409, 'origHeight': 409, 'width': 409, 'height': 409, 'widthPercent': 0.45, 'rescaleHeight': False, 'trialN': 82, 'loaded': True, 'loadedTime': 2774.300000011921, 'positionName': 'LEFT', 'positionCoords': [512.6, 335.5], 'bid': 7.26}, {'imgObject': {}, 'id': 'avocado', 'src': '/static/foodstim60/avocado.jpg', 'key': 'i', 'origWidth': 409, 'origHeight': 409, 'width': 409, 'height': 409, 'widthPercent': 0.45, 'rescaleHeight': False, 'trialN': 82, 'loaded': True, 'loadedTime': 2411.5999999940395, 'positionName': 'RIGHT', 'positionCoords': [998.4, 335.5], 'bid': 7.57}]",135406.40000000596,1669829937378,cantaloupe,avocado,7.26,7.57,0.3100000000000005,avocado,1094.199999988079,1095,1094.800000011921,True,i,137007.09999999404,1600.699999988079,1669829938979,1601,HRV,HRV_0100,2022-11-30 17:41:40
83,"[{'imgObject': {}, 'id': 'corn cob', 'src': '/static/foodstim60/corn cob.jpg', 'key': 'u', 'origWidth': 411, 'origHeight': 411, 'width': 411, 'height': 411, 'widthPercent': 0.45, 'rescaleHeight': False, 'trialN': 83, 'loaded': True, 'loadedTime': 2468.7000000178814, 'positionName': 'LEFT', 'positionCoords': [510.6, 334.5], 'bid': 8.370000000000001}, {'imgObject': {}, 'id': 'Grapes', 'src': '/static/foodstim60/Grapes.jpg', 'key': 'i', 'origWidth': 411, 'origHeight': 411, 'width': 411, 'height': 411, 'widthPercent': 0.45, 'rescaleHeight': False, 'trialN': 83, 'loaded': True, 'loadedTime': 2619.300000011921, 'positionName': 'RIGHT', 'positionCoords': [998.4, 334.5], 'bid': 6.84}]",137007.40000000596,1669829938979,corn cob,Grapes,8.370000000000001,6.84,-1.5300000000000011,corn cob,1233.199999988079,1234,1233.5999999940395,True,u,138762.30000001192,1754.9000000059605,1669829940734,1755,HRV,HRV_0100,2022-11-30 17:41:40
84,"[{'imgObject': {}, 'id': 'kiwi', 'src': '/static/foodstim60/kiwi.jpg', 'key': 'u', 'origWidth': 410, 'origHeight': 410, 'width': 410, 'height': 410, 'widthPercent': 0.45, 'rescaleHeight': False, 'trialN': 84, 'loaded': True, 'loadedTime': 2402.5999999940395, 'positionName': 'LEFT', 'positionCoords': [511.6, 335], 'bid': 0.5}, {'imgObject': {}, 'id': 'burrito', 'src': '/static/foodstim60/burrito.jpg', 'key': 'i', 'origWidth': 410, 'origHeight': 410, 'width': 410, 'height': 410, 'widthPercent': 0.45, 'rescaleHeight': False, 'trialN': 84, 'loaded': True, 'loadedTime': 2522.2000000178814, 'positionName': 'RIGHT', 'positionCoords': [998.4, 335], 'bid': 5.59}]",138762.5,1669829940735,kiwi,burrito,0.5,5.59,5.09,burrito,998.3000000119209,998,998.7000000178814,True,i,140278.80000001192,1516.300000011921,1669829942251,1516,HRV,HRV_0100,2022-11-30 17:41:40
85,"[{'imgObject': {}, 'id': 'turkeysandwich', 'src': '/static/foodstim60/turkeysandwich.jpg', 'key': 'u', 'origWidth': 409, 'origHeight': 409, 'width': 409, 'height': 409, 'widthPercent': 0.45, 'rescaleHeight': False, 'trialN': 85, 'loaded': True, 'loadedTime': 2684.9000000059605, 'positionName': 'LEFT', 'positionCoords': [512.6, 335.5], 'bid': 5.91}, {'imgObject': {}, 'id': 'fruitsalad', 'src': '/static/foodstim60/fruitsalad.jpg', 'key': 'i', 'origWidth': 410, 'origHeight': 410, 'width': 410, 'height': 410, 'widthPercent': 0.45, 'rescaleHeight': False, 'trialN': 85, 'loaded': True, 'loadedTime': 2773.0999999940395, 'positionName': 'RIGHT', 'positionCoords': [998.4, 335], 'bid': 6.29}]",140279.0,1669829942251,turkeysandwich,fruitsalad,5.91,6.29,0.3799999999999999,fruitsalad,1402.0,1402,1402.4000000059605,True,i,142191.59999999404,1912.5999999940395,1669829944164,1913,HRV,HRV_0100,2022-11-30 17:41:40
86,"[{'imgObject': {}, 'id': 'luckycharms', 'src': '/static/foodstim60/luckycharms.jpg', 'key': 'u', 'origWidth': 410, 'origHeight': 409, 'width': 410, 'height': 409, 'widthPercent': 0.45, 'rescaleHeight': False, 'trialN': 86, 'loaded': True, 'loadedTime': 2774.800000011921, 'positionName': 'LEFT', 'positionCoords': [511.6, 335.5], 'bid': 0.2}, {'imgObject': {}, 'id': 'sushi w_condiments', 'src': '/static/foodstim60/sushi w_condiments.jpg', 'key': 'i', 'origWidth': 410, 'origHeight': 410, 'width': 410, 'height': 410, 'widthPercent': 0.45, 'rescaleHeight': False, 'trialN': 86, 'loaded': True, 'loadedTime': 2524.5999999940395, 'positionName': 'RIGHT', 'positionCoords': [998.4, 335], 'bid': 0.26}]",142191.90000000596,1669829944164,luckycharms,sushi w_condiments,0.2,0.26,0.06,luckycharms,938.5999999940395,939,938.9000000059605,True,u,143645.5,1453.5999999940395,1669829945618,1454,HRV,HRV_0100,2022-11-30 17:41:40
87,"[{'imgObject': {}, 'id': 'olives', 'src': '/static/foodstim60/olives.jpg', 'key': 'u', 'origWidth': 410, 'origHeight': 410, 'width': 410, 'height': 410, 'widthPercent': 0.45, 'rescaleHeight': False, 'trialN': 87, 'loaded': True, 'loadedTime': 2538.800000011921, 'positionName': 'LEFT', 'positionCoords': [511.6, 335], 'bid': 4.4}, {'imgObject': {}, 'id': 'Tribe humus pita', 'src': '/static/foodstim60/Tribe humus pita.jpg', 'key': 'i', 'origWidth': 411, 'origHeight': 411, 'width': 411, 'height': 411, 'widthPercent': 0.45, 'rescaleHeight': False, 'trialN': 87, 'loaded': True, 'loadedTime': 2780, 'positionName': 'RIGHT', 'positionCoords': [998.4, 334.5], 'bid': 2.07}]",143645.70000001788,1669829945618,olives,Tribe humus pita,4.4,2.07,-2.3300000000000005,Tribe humus pita,1154.5999999940395,1155,1154.8999999761581,True,i,145310.80000001192,1665.0999999940395,1669829947283,1665,HRV,HRV_0100,2022-11-30 17:41:40
88,"[{'imgObject': {}, 'id': 'mango', 'src': '/static/foodstim60/mango.jpg', 'key': 'u', 'origWidth': 411, 'origHeight': 411, 'width': 411, 'height': 411, 'widthPercent': 0.45, 'rescaleHeight': False, 'trialN': 88, 'loaded': True, 'loadedTime': 2616.0999999940395, 'positionName': 'LEFT', 'positionCoords': [510.6, 334.5], 'bid': 4.23}, {'imgObject': {}, 'id': 'pear', 'src': '/static/foodstim60/pear.jpg', 'key': 'i', 'origWidth': 411, 'origHeight': 410, 'width': 411, 'height': 410, 'widthPercent': 0.45, 'rescaleHeight': False, 'trialN': 88, 'loaded': True, 'loadedTime': 2471.7000000178814, 'positionName': 'RIGHT', 'positionCoords': [998.4, 335], 'bid': 4.6000000000000005}]",145310.90000000596,1669829947283,mango,pear,4.23,4.6000000000000005,0.3700000000000001,mango,1049.5999999940395,1050,1050.0999999940395,True,u,146879.70000001788,1568.800000011921,1669829948852,1569,HRV,HRV_0100,2022-11-30 17:41:40
89,"[{'imgObject': {}, 'id': 'mashed potato', 'src': '/static/foodstim60/mashed potato.jpg', 'key': 'u', 'origWidth': 409, 'origHeight': 409, 'width': 409, 'height': 409, 'widthPercent': 0.45, 'rescaleHeight': False, 'trialN': 89, 'loaded': True, 'loadedTime': 2388.9000000059605, 'positionName': 'LEFT', 'positionCoords': [512.6, 335.5], 'bid': 1.77}, {'imgObject': {}, 'id': 'bagel plain', 'src': '/static/foodstim60/bagel plain.jpg', 'key': 'i', 'origWidth': 410, 'origHeight': 410, 'width': 410, 'height': 410, 'widthPercent': 0.45, 'rescaleHeight': False, 'trialN': 89, 'loaded': True, 'loadedTime': 2776.7000000178814, 'positionName': 'RIGHT', 'positionCoords': [998.4, 335], 'bid': 1.69}]",146879.90000000596,1669829948852,mashed potato,bagel plain,1.77,1.69,-0.08000000000000007,mashed potato,930.5999999940395,931,931.0999999940395,True,u,148328.70000001788,1448.800000011921,1669829950301,1449,HRV,HRV_0100,2022-11-30 17:41:40
90,"[{'imgObject': {}, 'id': 'Tribe humus pita', 'src': '/static/foodstim60/Tribe humus pita.jpg', 'key': 'u', 'origWidth': 411, 'origHeight': 411, 'width': 411, 'height': 411, 'widthPercent': 0.45, 'rescaleHeight': False, 'trialN': 90, 'loaded': True, 'loadedTime': 2780.0999999940395, 'positionName': 'LEFT', 'positionCoords': [510.6, 334.5], 'bid': 2.07}, {'imgObject': {}, 'id': 'mashed potato', 'src': '/static/foodstim60/mashed potato.jpg', 'key': 'i', 'origWidth': 409, 'origHeight': 409, 'width': 409, 'height': 409, 'widthPercent': 0.45, 'rescaleHeight': False, 'trialN': 90, 'loaded': True, 'loadedTime': 2388, 'positionName': 'RIGHT', 'positionCoords': [998.4, 335.5], 'bid': 1.77}]",151804.80000001192,1669829953777,Tribe humus pita,mashed potato,2.07,1.77,-0.2999999999999998,mashed potato,2816.9000000059605,2817,2817.199999988079,True,i,155131.40000000596,3326.5999999940395,1669829957103,3326,HRV,HRV_0100,2022-11-30 17:41:40
91,"[{'imgObject': {}, 'id': 'apple slices', 'src': '/static/foodstim60/apple slices.jpg', 'key': 'u', 'origWidth': 409, 'origHeight': 410, 'width': 409, 'height': 410, 'widthPercent': 0.45, 'rescaleHeight': False, 'trialN': 91, 'loaded': True, 'loadedTime': 2396.0999999940395, 'positionName': 'LEFT', 'positionCoords': [512.6, 335], 'bid': 5.3100000000000005}, {'imgObject': {}, 'id': 'olives', 'src': '/static/foodstim60/olives.jpg', 'key': 'i', 'origWidth': 410, 'origHeight': 410, 'width': 410, 'height': 410, 'widthPercent': 0.45, 'rescaleHeight': False, 'trialN': 91, 'loaded': True, 'loadedTime': 2553.5999999940395, 'positionName': 'RIGHT', 'positionCoords': [998.4, 335], 'bid': 4.4}]",155131.59999999404,1669829957104,apple slices,olives,5.3100000000000005,4.4,-0.9100000000000001,apple slices,958.8000000119209,959,959.3000000119209,True,u,156606.0,1474.4000000059605,1669829958578,1474,HRV,HRV_0100,2022-11-30 17:41:40
92,"[{'imgObject': {}, 'id': 'Grapes', 'src': '/static/foodstim60/Grapes.jpg', 'key': 'u', 'origWidth': 411, 'origHeight': 411, 'width': 411, 'height': 411, 'widthPercent': 0.45, 'rescaleHeight': False, 'trialN': 92, 'loaded': True, 'loadedTime': 2619.300000011921, 'positionName': 'LEFT', 'positionCoords': [510.6, 334.5], 'bid': 6.84}, {'imgObject': {}, 'id': 'strawberries', 'src': '/static/foodstim60/strawberries.jpg', 'key': 'i', 'origWidth': 410, 'origHeight': 410, 'width': 410, 'height': 410, 'widthPercent': 0.45, 'rescaleHeight': False, 'trialN': 92, 'loaded': True, 'loadedTime': 2730.5999999940395, 'positionName': 'RIGHT', 'positionCoords': [998.4, 335], 'bid': 7}]",156606.20000001788,1669829958578,Grapes,strawberries,6.84,7.0,0.16000000000000014,Grapes,844.1999999880791,845,844.5999999940395,True,u,157968.40000000596,1362.199999988079,1669829959940,1362,HRV,HRV_0100,2022-11-30 17:41:40
93,"[{'imgObject': {}, 'id': 'yogurt no spoon', 'src': '/static/foodstim60/yogurt no spoon.jpg', 'key': 'u', 'origWidth': 411, 'origHeight': 410, 'width': 411, 'height': 410, 'widthPercent': 0.45, 'rescaleHeight': False, 'trialN': 93, 'loaded': True, 'loadedTime': 2384.0999999940395, 'positionName': 'LEFT', 'positionCoords': [510.6, 335], 'bid': 0.72}, {'imgObject': {}, 'id': 'shreddedwheatwithmilk', 'src': '/static/foodstim60/shreddedwheatwithmilk.jpg', 'key': 'i', 'origWidth': 410, 'origHeight': 410, 'width': 410, 'height': 410, 'widthPercent': 0.45, 'rescaleHeight': False, 'trialN': 93, 'loaded': True, 'loadedTime': 2682.0999999940395, 'positionName': 'RIGHT', 'positionCoords': [998.4, 335], 'bid': 0.87}]",157968.5,1669829959940,yogurt no spoon,shreddedwheatwithmilk,0.72,0.87,0.15000000000000002,yogurt no spoon,1151.9000000059605,1153,1152.4000000059605,True,u,159639.20000001788,1670.7000000178814,1669829961611,1671,HRV,HRV_0100,2022-11-30 17:41:40
94,"[{'imgObject': {}, 'id': 'turkey sandwich', 'src': '/static/foodstim60/turkey sandwich.jpg', 'key': 'u', 'origWidth': 409, 'origHeight': 409, 'width': 409, 'height': 409, 'widthPercent': 0.45, 'rescaleHeight': False, 'trialN': 94, 'loaded': True, 'loadedTime': 2744.0999999940395, 'positionName': 'LEFT', 'positionCoords': [512.6, 335.5], 'bid': 3.85}, {'imgObject': {}, 'id': 'burger', 'src': '/static/foodstim60/burger.jpg', 'key': 'i', 'origWidth': 409, 'origHeight': 409, 'width': 409, 'height': 409, 'widthPercent': 0.45, 'rescaleHeight': False, 'trialN': 94, 'loaded': True, 'loadedTime': 2647.9000000059605, 'positionName': 'RIGHT', 'positionCoords': [998.4, 335.5], 'bid': 4.1}]",159639.5,1669829961612,turkey sandwich,burger,3.85,4.1,0.24999999999999956,burger,1041.0,1041,1041.5,True,i,161203.59999999404,1564.0999999940395,1669829963176,1564,HRV,HRV_0100,2022-11-30 17:41:40
95,"[{'imgObject': {}, 'id': 'chicken nuggets2', 'src': '/static/foodstim60/chicken nuggets2.jpg', 'key': 'u', 'origWidth': 410, 'origHeight': 409, 'width': 410, 'height': 409, 'widthPercent': 0.45, 'rescaleHeight': False, 'trialN': 95, 'loaded': True, 'loadedTime': 2329.5, 'positionName': 'LEFT', 'positionCoords': [511.6, 335.5], 'bid': 2.28}, {'imgObject': {}, 'id': 'burger', 'src': '/static/foodstim60/burger.jpg', 'key': 'i', 'origWidth': 409, 'origHeight': 409, 'width': 409, 'height': 409, 'widthPercent': 0.45, 'rescaleHeight': False, 'trialN': 95, 'loaded': True, 'loadedTime': 2649.0999999940395, 'positionName': 'RIGHT', 'positionCoords': [998.4, 335.5], 'bid': 4.1}]",161203.80000001192,1669829963176,chicken nuggets2,burger,2.28,4.1,1.8199999999999998,chicken nuggets2,1186.9000000059605,1187,1187.2999999821186,True,u,162892.30000001192,1688.5,1669829964864,1688,HRV,HRV_0100,2022-11-30 17:41:40
96,"[{'imgObject': {}, 'id': 'froot loops w milk', 'src': '/static/foodstim60/froot loops w milk.jpg', 'key': 'u', 'origWidth': 410, 'origHeight': 410, 'width': 410, 'height': 410, 'widthPercent': 0.45, 'rescaleHeight': False, 'trialN': 96, 'loaded': True, 'loadedTime': 2572.0999999940395, 'positionName': 'LEFT', 'positionCoords': [511.6, 335], 'bid': 0.89}, {'imgObject': {}, 'id': 'rigatoni', 'src': '/static/foodstim60/rigatoni.jpg', 'key': 'i', 'origWidth': 411, 'origHeight': 411, 'width': 411, 'height': 411, 'widthPercent': 0.45, 'rescaleHeight': False, 'trialN': 96, 'loaded': True, 'loadedTime': 2403.800000011921, 'positionName': 'RIGHT', 'positionCoords': [998.4, 334.5], 'bid': 1.52}]",162892.5,1669829964864,froot loops w milk,rigatoni,0.89,1.52,0.63,rigatoni,947.9000000059605,949,948.4000000059605,True,i,164363.59999999404,1471.0999999940395,1669829966336,1472,HRV,HRV_0100,2022-11-30 17:41:40
97,"[{'imgObject': {}, 'id': 'yogurt no spoon', 'src': '/static/foodstim60/yogurt no spoon.jpg', 'key': 'u', 'origWidth': 411, 'origHeight': 410, 'width': 411, 'height': 410, 'widthPercent': 0.45, 'rescaleHeight': False, 'trialN': 97, 'loaded': True, 'loadedTime': 2382.5999999940395, 'positionName': 'LEFT', 'positionCoords': [510.6, 335], 'bid': 0.72}, {'imgObject': {}, 'id': 'cheerios', 'src': '/static/foodstim60/cheerios.jpg', 'key': 'i', 'origWidth': 409, 'origHeight': 410, 'width': 409, 'height': 410, 'widthPercent': 0.45, 'rescaleHeight': False, 'trialN': 97, 'loaded': True, 'loadedTime': 2406.2000000178814, 'positionName': 'RIGHT', 'positionCoords': [998.4, 335], 'bid': 2.26}]",164363.80000001192,1669829966336,yogurt no spoon,cheerios,0.72,2.26,1.5399999999999998,yogurt no spoon,776.6999999880791,777,777.0999999940395,True,u,165656.09999999404,1292.2999999821186,1669829967628,1292,HRV,HRV_0100,2022-11-30 17:41:40
98,"[{'imgObject': {}, 'id': 'edamame', 'src': '/static/foodstim60/edamame.jpg', 'key': 'u', 'origWidth': 409, 'origHeight': 410, 'width': 409, 'height': 410, 'widthPercent': 0.45, 'rescaleHeight': False, 'trialN': 98, 'loaded': True, 'loadedTime': 2633.4000000059605, 'positionName': 'LEFT', 'positionCoords': [512.6, 335], 'bid': 7.96}, {'imgObject': {}, 'id': 'sweetpotato', 'src': '/static/foodstim60/sweetpotato.jpg', 'key': 'i', 'origWidth': 410, 'origHeight': 410, 'width': 410, 'height': 410, 'widthPercent': 0.45, 'rescaleHeight': False, 'trialN': 98, 'loaded': True, 'loadedTime': 2666.5, 'positionName': 'RIGHT', 'positionCoords': [998.4, 335], 'bid': 2.56}]",165656.40000000596,1669829967628,edamame,sweetpotato,7.96,2.56,-5.4,edamame,604.0999999940395,605,604.5999999940395,True,u,166767.30000001192,1110.9000000059605,1669829968739,1111,HRV,HRV_0100,2022-11-30 17:41:40
99,"[{'imgObject': {}, 'id': 'raspberries', 'src': '/static/foodstim60/raspberries.jpg', 'key': 'u', 'origWidth': 411, 'origHeight': 411, 'width': 411, 'height': 411, 'widthPercent': 0.45, 'rescaleHeight': False, 'trialN': 99, 'loaded': True, 'loadedTime': 2406.0999999940395, 'positionName': 'LEFT', 'positionCoords': [510.6, 334.5], 'bid': 5.8100000000000005}, {'imgObject': {}, 'id': 'cherry tomato', 'src': '/static/foodstim60/cherry tomato.jpg', 'key': 'i', 'origWidth': 410, 'origHeight': 410, 'width': 410, 'height': 410, 'widthPercent': 0.45, 'rescaleHeight': False, 'trialN': 99, 'loaded': True, 'loadedTime': 2399.5, 'positionName': 'RIGHT', 'positionCoords': [998.4, 335], 'bid': 5.82}]",166767.40000000596,1669829968739,raspberries,cherry tomato,5.8100000000000005,5.82,0.009999999999999787,raspberries,1513.0999999940395,1514,1513.5999999940395,True,u,168803.40000000596,2036.0,1669829970775,2036,HRV,HRV_0100,2022-11-30 17:41:40
100,"[{'imgObject': {}, 'id': 'bagel plain', 'src': '/static/foodstim60/bagel plain.jpg', 'key': 'u', 'origWidth': 410, 'origHeight': 410, 'width': 410, 'height': 410, 'widthPercent': 0.45, 'rescaleHeight': False, 'trialN': 100, 'loaded': True, 'loadedTime': 2776.7000000178814, 'positionName': 'LEFT', 'positionCoords': [511.6, 335], 'bid': 1.69}, {'imgObject': {}, 'id': 'mac & cheese', 'src': '/static/foodstim60/mac & cheese.jpg', 'key': 'i', 'origWidth': 410, 'origHeight': 410, 'width': 410, 'height': 410, 'widthPercent': 0.45, 'rescaleHeight': False, 'trialN': 100, 'loaded': True, 'loadedTime': 2418.4000000059605, 'positionName': 'RIGHT', 'positionCoords': [998.4, 335], 'bid': 0.44}]",168803.59999999404,1669829970776,bagel plain,mac & cheese,1.69,0.44,-1.25,mac & cheese,1156.9000000059605,1157,1157.2000000178814,True,i,170478.0,1674.4000000059605,1669829972450,1674,HRV,HRV_0100,2022-11-30 17:41:40
101,"[{'imgObject': {}, 'id': 'mac & cheese', 'src': '/static/foodstim60/mac & cheese.jpg', 'key': 'u', 'origWidth': 410, 'origHeight': 410, 'width': 410, 'height': 410, 'widthPercent': 0.45, 'rescaleHeight': False, 'trialN': 101, 'loaded': True, 'loadedTime': 2413.5, 'positionName': 'LEFT', 'positionCoords': [511.6, 335], 'bid': 0.44}, {'imgObject': {}, 'id': 'shreddedwheatwithmilk', 'src': '/static/foodstim60/shreddedwheatwithmilk.jpg', 'key': 'i', 'origWidth': 410, 'origHeight': 410, 'width': 410, 'height': 410, 'widthPercent': 0.45, 'rescaleHeight': False, 'trialN': 101, 'loaded': True, 'loadedTime': 2682.300000011921, 'positionName': 'RIGHT', 'positionCoords': [998.4, 335], 'bid': 0.87}]",170478.09999999404,1669829972450,mac & cheese,shreddedwheatwithmilk,0.44,0.87,0.43,mac & cheese,892.3000000119209,893,892.8000000119209,True,u,171889.0,1410.9000000059605,1669829973861,1411,HRV,HRV_0100,2022-11-30 17:41:40
102,"[{'imgObject': {}, 'id': 'popsicles', 'src': '/static/foodstim60/popsicles.jpg', 'key': 'u', 'origWidth': 410, 'origHeight': 410, 'width': 410, 'height': 410, 'widthPercent': 0.45, 'rescaleHeight': False, 'trialN': 102, 'loaded': True, 'loadedTime': 2781, 'positionName': 'LEFT', 'positionCoords': [511.6, 335], 'bid': 0.39}, {'imgObject': {}, 'id': 'ice cream sundae 002', 'src': '/static/foodstim60/ice cream sundae 002.jpg', 'key': 'i', 'origWidth': 409, 'origHeight': 409, 'width': 409, 'height': 409, 'widthPercent': 0.45, 'rescaleHeight': False, 'trialN': 102, 'loaded': True, 'loadedTime': 2412.2000000178814, 'positionName': 'RIGHT', 'positionCoords': [998.4, 335.5], 'bid': 1.53}]",171889.09999999404,1669829973861,popsicles,ice cream sundae 002,0.39,1.53,1.1400000000000001,popsicles,1161.6000000238419,1162,1162.0,True,u,173569.20000001788,1680.1000000238419,1669829975541,1680,HRV,HRV_0100,2022-11-30 17:41:40
103,"[{'imgObject': {}, 'id': 'bagel and cc', 'src': '/static/foodstim60/bagel and cc.jpg', 'key': 'u', 'origWidth': 410, 'origHeight': 410, 'width': 410, 'height': 410, 'widthPercent': 0.45, 'rescaleHeight': False, 'trialN': 103, 'loaded': True, 'loadedTime': 2493.0999999940395, 'positionName': 'LEFT', 'positionCoords': [511.6, 335], 'bid': 1.23}, {'imgObject': {}, 'id': 'mashed potato', 'src': '/static/foodstim60/mashed potato.jpg', 'key': 'i', 'origWidth': 409, 'origHeight': 409, 'width': 409, 'height': 409, 'widthPercent': 0.45, 'rescaleHeight': False, 'trialN': 103, 'loaded': True, 'loadedTime': 2387.7000000178814, 'positionName': 'RIGHT', 'positionCoords': [998.4, 335.5], 'bid': 1.77}]",173569.5,1669829975542,bagel and cc,mashed potato,1.23,1.77,0.54,mashed potato,932.0,932,932.3000000119209,True,i,175013.80000001192,1444.300000011921,1669829976986,1444,HRV,HRV_0100,2022-11-30 17:41:40
104,"[{'imgObject': {}, 'id': 'tacos', 'src': '/static/foodstim60/tacos.jpg', 'key': 'u', 'origWidth': 411, 'origHeight': 411, 'width': 411, 'height': 411, 'widthPercent': 0.45, 'rescaleHeight': False, 'trialN': 104, 'loaded': True, 'loadedTime': 2713.9000000059605, 'positionName': 'LEFT', 'positionCoords': [510.6, 334.5], 'bid': 5.63}, {'imgObject': {}, 'id': 'hashbrowns', 'src': '/static/foodstim60/hashbrowns.jpg', 'key': 'i', 'origWidth': 411, 'origHeight': 410, 'width': 411, 'height': 410, 'widthPercent': 0.45, 'rescaleHeight': False, 'trialN': 104, 'loaded': True, 'loadedTime': 2378.800000011921, 'positionName': 'RIGHT', 'positionCoords': [998.4, 335], 'bid': 0.7000000000000001}]",175014.0,1669829976986,tacos,hashbrowns,5.63,0.7000000000000001,-4.93,tacos,746.3000000119209,747,746.9000000059605,True,u,176271.59999999404,1257.5999999940395,1669829978244,1258,HRV,HRV_0100,2022-11-30 17:41:40
105,"[{'imgObject': {}, 'id': 'burger', 'src': '/static/foodstim60/burger.jpg', 'key': 'u', 'origWidth': 409, 'origHeight': 409, 'width': 409, 'height': 409, 'widthPercent': 0.45, 'rescaleHeight': False, 'trialN': 105, 'loaded': True, 'loadedTime': 2649.0999999940395, 'positionName': 'LEFT', 'positionCoords': [512.6, 335.5], 'bid': 4.1}, {'imgObject': {}, 'id': 'lox', 'src': '/static/foodstim60/lox.jpg', 'key': 'i', 'origWidth': 410, 'origHeight': 411, 'width': 410, 'height': 411, 'widthPercent': 0.45, 'rescaleHeight': False, 'trialN': 105, 'loaded': True, 'loadedTime': 2394.4000000059605, 'positionName': 'RIGHT', 'positionCoords': [998.4, 334.5], 'bid': 0.15}]",176271.80000001192,1669829978244,burger,lox,4.1,0.15,-3.9499999999999997,burger,888.5999999940395,889,888.9000000059605,True,u,177673.90000000596,1402.0999999940395,1669829979646,1402,HRV,HRV_0100,2022-11-30 17:41:40
106,"[{'imgObject': {}, 'id': 'mango', 'src': '/static/foodstim60/mango.jpg', 'key': 'u', 'origWidth': 411, 'origHeight': 411, 'width': 411, 'height': 411, 'widthPercent': 0.45, 'rescaleHeight': False, 'trialN': 106, 'loaded': True, 'loadedTime': 2602.9000000059605, 'positionName': 'LEFT', 'positionCoords': [510.6, 334.5], 'bid': 4.23}, {'imgObject': {}, 'id': 'luckycharms', 'src': '/static/foodstim60/luckycharms.jpg', 'key': 'i', 'origWidth': 410, 'origHeight': 409, 'width': 410, 'height': 409, 'widthPercent': 0.45, 'rescaleHeight': False, 'trialN': 106, 'loaded': True, 'loadedTime': 2775.800000011921, 'positionName': 'RIGHT', 'positionCoords': [998.4, 335.5], 'bid': 0.2}]",177674.09999999404,1669829979646,mango,luckycharms,4.23,0.2,-4.03,mango,866.3000000119209,867,867.1000000238419,True,u,179052.20000001788,1378.1000000238419,1669829981024,1378,HRV,HRV_0100,2022-11-30 17:41:40
107,"[{'imgObject': {}, 'id': 'chickenfingers', 'src': '/static/foodstim60/chickenfingers.jpg', 'key': 'u', 'origWidth': 410, 'origHeight': 410, 'width': 410, 'height': 410, 'widthPercent': 0.45, 'rescaleHeight': False, 'trialN': 107, 'loaded': True, 'loadedTime': 2600.2000000178814, 'positionName': 'LEFT', 'positionCoords': [511.6, 335], 'bid': 2.02}, {'imgObject': {}, 'id': 'cantaloupe', 'src': '/static/foodstim60/cantaloupe.jpg', 'key': 'i', 'origWidth': 409, 'origHeight': 409, 'width': 409, 'height': 409, 'widthPercent': 0.45, 'rescaleHeight': False, 'trialN': 107, 'loaded': True, 'loadedTime': 2774.2000000178814, 'positionName': 'RIGHT', 'positionCoords': [998.4, 335.5], 'bid': 7.26}]",179052.30000001192,1669829981024,chickenfingers,cantaloupe,2.02,7.26,5.24,chickenfingers,808.0,809,808.4000000059605,True,u,180369.80000001192,1317.5,1669829982342,1318,HRV,HRV_0100,2022-11-30 17:41:40
108,"[{'imgObject': {}, 'id': 'orange slices', 'src': '/static/foodstim60/orange slices.jpg', 'key': 'u', 'origWidth': 409, 'origHeight': 410, 'width': 409, 'height': 410, 'widthPercent': 0.45, 'rescaleHeight': False, 'trialN': 108, 'loaded': True, 'loadedTime': 2778.7000000178814, 'positionName': 'LEFT', 'positionCoords': [512.6, 335], 'bid': 7.27}, {'imgObject': {}, 'id': 'tacos', 'src': '/static/foodstim60/tacos.jpg', 'key': 'i', 'origWidth': 411, 'origHeight': 411, 'width': 411, 'height': 411, 'widthPercent': 0.45, 'rescaleHeight': False, 'trialN': 108, 'loaded': True, 'loadedTime': 2714, 'positionName': 'RIGHT', 'positionCoords': [998.4, 334.5], 'bid': 5.63}]",180369.90000000596,1669829982342,orange slices,tacos,7.27,5.63,-1.6399999999999997,tacos,1150.5,1151,1150.9000000059605,True,i,182036.5,1666.5999999940395,1669829984009,1667,HRV,HRV_0100,2022-11-30 17:41:40
