success,trial_type,trial_index,time_elapsed,internal_node_id,Block,TrialNumber,TrialTime,trialTimeDiff,FPS_avg,FPS_med,FPS_mode,TrialDur,winResizeTime,rt,block,button_pressed,MotCoh,MotDir,ColCoh,Color,ChoiceKey,Choice,Accuracy,RT,nFrames,FPS,PPD,missTrial,missTrialMsg,onsetDelay,fullScreenExitTime,canvCenter,TrialType,Score,BlockTrial,stimulus,button_labels,exp,subjectId,date
True,fullscreen,0,2004,0.0-0.0,0.0,1.0,,,,,,,,,,,,,,,,,,,,,,,,,,,,,,,,HRV,HRV_0100,2022-11-30 18:04:33
,wl-check-fps,1,6999,0.0-1.0,0.0,2.0,"[2310.7, 2323.5, 2337.8, 2354.5, 2371.1, 2387.6, 2404.7, 2420.9, 2438.2, 2454.2, 2471.5, 2487.6, 2504.5, 2521.2, 2537.7, 2554.8, 2571, 2587.6, 2604.2, 2621.6, 2637.6, 2654.4, 2670.9, 2687.8, 2704.4, 2721, 2738, 2754.1, 2771, 2787.8, 2804.4, 2821.1, 2838.1, 2854.4, 2871, 2887.6, 2904, 2920.8, 2937.7, 2954.4, 2970.8, 2987.7, 3004, 3020.7, 3037.6, 3054.1, 3070.7, 3087.4, 3104.6, 3120.7, 3137.6, 3153.9, 3170.9, 3187.6, 3204.2, 3220.9, 3237.5, 3254, 3270.8, 3287.5, 3304.1, 3320.7, 3337.5, 3354.5, 3370.8, 3387.6, 3403.9, 3420.5, 3437.2, 3454.1, 3470.9, 3487.3, 3504.1, 3521, 3538, 3553.9, 3571.1, 3587.8, 3603.9, 3621.1, 3637.6, 3653.9, 3670.5, 3687.6, 3703.7, 3720.9, 3737.6, 3753.8, 3770.5, 3787.1, 3803.9, 3820.6, 3837.1, 3854, 3870.4, 3887.1, 3904.2, 3921, 3937, 3954.1, 3970.8, 3987.7, 4004, 4021.2, 4037.5, 4054.1, 4070.4, 4087.3, 4104, 4120.3, 4137.2, 4154.1, 4170.4, 4186.9, 4203.4, 4220.6, 4236.9, 4253.7, 4270.1, 4287.6, 4303.4, 4320.6, 4337.1, 4353.6, 4370.3, 4387.1, 4403.9, 4420.4, 4437, 4453.3, 4470, 4486.9, 4503.6, 4520.3, 4536.8, 4553.4, 4570, 4586.9, 4603.8, 4620.1, 4636.8, 4653.7, 4670.1, 4687, 4703.6, 4720.1, 4736.8, 4753.3, 4770.4, 4786.6, 4803.4, 4820, 4836.7, 4853.4, 4870.3, 4886.6, 4903.4, 4920.1, 4937, 4953.1, 4970.2, 4986.9, 5003.3, 5020.7, 5036.7, 5053.1, 5070.2, 5086.7, 5103.1, 5120.1, 5136.9, 5153.6, 5170.1, 5186.6, 5203.4, 5219.8, 5236.6, 5253.1, 5269.9, 5286.5, 5303.3, 5319.9, 5336.8, 5353.1, 5369.8, 5386.5, 5402.9, 5420, 5436.4, 5453.4, 5469.7, 5486.3, 5503, 5519.9, 5536.6, 5552.8, 5569.7, 5586.1, 5602.9, 5619.5, 5636.7, 5653.2, 5669.7, 5686.5, 5702.8, 5719.6, 5736.4, 5752.9, 5769.6, 5786.2, 5802.8, 5819.4, 5836, 5853, 5869.6, 5886.2, 5902.7, 5919.4, 5936.2, 5952.9, 5969.6, 5986.2, 6002.7, 6019.5, 6036.2, 6052.6, 6069.4, 6086.3, 6103.1, 6119.6, 6136.3, 6152.9, 6169.4, 6186.1, 6202.9, 6219.6, 6236.1, 6252.9, 6269.5, 6286.3, 6303, 6319.5, 6335.9, 6352.5, 6369.2, 6386.2, 6402.9, 6419.4, 6435.9, 6452.6, 6469.3, 6486.1, 6502.4, 6519.6, 6535.8, 6552.5, 6569.4, 6586.1, 6602.5, 6619.1, 6635.7, 6652.8, 6669.5, 6685.9, 6702.8, 6719.1, 6736.2, 6752.6, 6769.3, 6786, 6802.6, 6819.2, 6835.5, 6852.6, 6869.1, 6886.3, 6902.7, 6919.4, 6935.7, 6952.6, 6968.9, 6985.5, 7002.4, 7019.1, 7035.9, 7052.6, 7069, 7086.1, 7102.8, 7119.2, 7136.5, 7152.5, 7169.1, 7185.9, 7202.4, 7219.3, 7235.7, 7252.6, 7269.5, 7285.7]","[0.9, 12.8, 14.3, 16.7, 16.6, 16.5, 17.1, 16.2, 17.3, 16, 17.3, 16.1, 16.9, 16.7, 16.5, 17.1, 16.2, 16.6, 16.6, 17.4, 16, 16.8, 16.5, 16.9, 16.6, 16.6, 17, 16.1, 16.9, 16.8, 16.6, 16.7, 17, 16.3, 16.6, 16.6, 16.4, 16.8, 16.9, 16.7, 16.4, 16.9, 16.3, 16.7, 16.9, 16.5, 16.6, 16.7, 17.2, 16.1, 16.9, 16.3, 17, 16.7, 16.6, 16.7, 16.6, 16.5, 16.8, 16.7, 16.6, 16.6, 16.8, 17, 16.3, 16.8, 16.3, 16.6, 16.7, 16.9, 16.8, 16.4, 16.8, 16.9, 17, 15.9, 17.2, 16.7, 16.1, 17.2, 16.5, 16.3, 16.6, 17.1, 16.1, 17.2, 16.7, 16.2, 16.7, 16.6, 16.8, 16.7, 16.5, 16.9, 16.4, 16.7, 17.1, 16.8, 16, 17.1, 16.7, 16.9, 16.3, 17.2, 16.3, 16.6, 16.3, 16.9, 16.7, 16.3, 16.9, 16.9, 16.3, 16.5, 16.5, 17.2, 16.3, 16.8, 16.4, 17.5, 15.8, 17.2, 16.5, 16.5, 16.7, 16.8, 16.8, 16.5, 16.6, 16.3, 16.7, 16.9, 16.7, 16.7, 16.5, 16.6, 16.6, 16.9, 16.9, 16.3, 16.7, 16.9, 16.4, 16.9, 16.6, 16.5, 16.7, 16.5, 17.1, 16.2, 16.8, 16.6, 16.7, 16.7, 16.9, 16.3, 16.8, 16.7, 16.9, 16.1, 17.1, 16.7, 16.4, 17.4, 16, 16.4, 17.1, 16.5, 16.4, 17, 16.8, 16.7, 16.5, 16.5, 16.8, 16.4, 16.8, 16.5, 16.8, 16.6, 16.8, 16.6, 16.9, 16.3, 16.7, 16.7, 16.4, 17.1, 16.4, 17, 16.3, 16.6, 16.7, 16.9, 16.7, 16.2, 16.9, 16.4, 16.8, 16.6, 17.2, 16.5, 16.5, 16.8, 16.3, 16.8, 16.8, 16.5, 16.7, 16.6, 16.6, 16.6, 16.6, 17, 16.6, 16.6, 16.5, 16.7, 16.8, 16.7, 16.7, 16.6, 16.5, 16.8, 16.7, 16.4, 16.8, 16.9, 16.8, 16.5, 16.7, 16.6, 16.5, 16.7, 16.8, 16.7, 16.5, 16.8, 16.6, 16.8, 16.7, 16.5, 16.4, 16.6, 16.7, 17, 16.7, 16.5, 16.5, 16.7, 16.7, 16.8, 16.3, 17.2, 16.2, 16.7, 16.9, 16.7, 16.4, 16.6, 16.6, 17.1, 16.7, 16.4, 16.9, 16.3, 17.1, 16.4, 16.7, 16.7, 16.6, 16.6, 16.3, 17.1, 16.5, 17.2, 16.4, 16.7, 16.3, 16.9, 16.3, 16.6, 16.9, 16.7, 16.8, 16.7, 16.4, 17.1, 16.7, 16.4, 17.3, 16, 16.6, 16.8, 16.5, 16.9, 16.4, 16.9, 16.9, 16.2]",60.0,61.0,60.0,4992.6,[],,,,,,,,,,,,,,,,,,,,,,,,,HRV,HRV_0100,2022-11-30 18:04:33
,wl-html-keyboard-response,2,24531,0.0-2.0-0.0,0.0,3.0,,,,,,,,15518.700000017881,0.0,0,,,,,,,,,,,,,,,,,,,,,,HRV,HRV_0100,2022-11-30 18:04:33
,wl-rdm,3,31337,0.0-3.0-0.0,0.0,4.0,,,,,,,[],,,,0.0,0.0,87.9,0.0,u,0.0,True,1793.4000000059605,73.0,60.0,40.0,False,,3000.0,[],"[960, 540]",ColorTask_Demo,,,,,HRV,HRV_0100,2022-11-30 18:04:33
,wl-rdm,4,36501,0.0-3.0-1.0,0.0,5.0,,,,,,,[],,,,0.0,0.0,87.9,1.0,i,1.0,True,1067.0,65.0,60.0,40.0,False,,2000.0,[],"[960, 540]",ColorTask_Demo,,,,,HRV,HRV_0100,2022-11-30 18:04:33
,wl-html-keyboard-response,5,44070,0.0-3.0-2.0,0.0,6.0,,,,,,,,5557.700000017881,0.0,1,,,,,,,,,,,,,,,,,,,,,,HRV,HRV_0100,2022-11-30 18:04:33
,wl-html-keyboard-response,6,53037,0.0-4.0-0.0,0.0,7.0,,,,,,,,6960.0999999940395,0.0,0,,,,,,,,,,,,,,,,,,,,,,HRV,HRV_0100,2022-11-30 18:04:33
,wl-html-keyboard-response,7,64758,0.0-5.0-0.0,0.0,8.0,,,,,,,,9712.800000011921,0.0,0,,,,,,,,,,,,,,,,,,,,,,HRV,HRV_0100,2022-11-30 18:04:33
,wl-rdm,8,67453,0.0-6.0-0.0,0.0,9.0,,,,,,,[],,,,,,53.2,1.0,i,1.0,True,1406.9000000059605,85.0,60.0,40.0,False,,214.02757039125322,[],"[960, 540]",ColorTask,1.0,1.0,,,HRV,HRV_0100,2022-11-30 18:04:33
,wl-rdm,9,69485,0.0-6.1-0.1,0.0,10.0,,,,,,,[],,,,,,87.9,1.0,i,1.0,True,720.8000000119209,44.0,60.0,40.0,False,,221.25060768975231,[],"[960, 540]",ColorTask,2.0,2.0,,,HRV,HRV_0100,2022-11-30 18:04:33
,wl-rdm,10,71518,0.0-6.2-0.2,0.0,11.0,,,,,,,[],,,,,,50.0,1.0,u,0.0,False,717.9000000059605,44.0,60.0,40.0,False,,227.96067225255035,[],"[960, 540]",ColorTask,1.0,3.0,,,HRV,HRV_0100,2022-11-30 18:04:33
,wl-rdm,11,73750,0.0-6.3-0.3,0.0,12.0,,,,,,,[],,,,,,62.5,0.0,u,0.0,True,860.4000000059605,52.0,60.0,40.0,False,,285.3037384645431,[],"[960, 540]",ColorTask,2.0,4.0,,,HRV,HRV_0100,2022-11-30 18:04:33
,wl-rdm,12,75733,0.0-6.4-0.4,0.0,13.0,,,,,,,[],,,,,,62.5,1.0,i,1.0,True,589.3000000119209,36.0,60.0,40.0,False,,310.90689274198166,[],"[960, 540]",ColorTask,3.0,5.0,,,HRV,HRV_0100,2022-11-30 18:04:33
,wl-rdm,13,78115,0.0-6.5-0.5,0.0,14.0,,,,,,,[],,,,,,50.0,1.0,u,0.0,False,948.5,57.0,60.0,40.0,False,,356.1532249883243,[],"[960, 540]",ColorTask,2.0,6.0,,,HRV,HRV_0100,2022-11-30 18:04:33
,wl-rdm,14,80547,0.0-6.6-0.6,0.0,15.0,,,,,,,[],,,,,,56.4,1.0,i,1.0,True,1112.2000000178814,67.0,60.0,40.0,False,,242.65918770165388,[],"[960, 540]",ColorTask,3.0,7.0,,,HRV,HRV_0100,2022-11-30 18:04:33
,wl-rdm,15,82463,0.0-6.7-0.7,0.0,16.0,,,,,,,[],,,,,,87.9,0.0,u,0.0,True,632.5999999940395,38.0,60.0,40.0,False,,204.77608088183203,[],"[960, 540]",ColorTask,4.0,8.0,,,HRV,HRV_0100,2022-11-30 18:04:33
,wl-rdm,16,84345,0.0-6.8-0.8,0.0,17.0,,,,,,,[],,,,,,87.9,0.0,u,0.0,True,497.0,30.0,60.0,40.0,False,,313.6873826702908,[],"[960, 540]",ColorTask,5.0,9.0,,,HRV,HRV_0100,2022-11-30 18:04:33
,wl-rdm,17,86678,0.0-6.9-0.9,0.0,18.0,,,,,,,[],,,,,,56.4,1.0,u,0.0,False,929.0,56.0,60.0,40.0,False,,331.3979519973644,[],"[960, 540]",ColorTask,4.0,10.0,,,HRV,HRV_0100,2022-11-30 18:04:33
,wl-rdm,18,89093,0.0-6.10-0.10,0.0,19.0,,,,,,,[],,,,,,50.0,0.0,u,0.0,True,1049.8999999761581,63.0,60.0,40.0,False,,294.6283712136771,[],"[960, 540]",ColorTask,5.0,11.0,,,HRV,HRV_0100,2022-11-30 18:04:33
,wl-rdm,19,91425,0.0-6.11-0.11,0.0,20.0,,,,,,,[],,,,,,62.5,1.0,i,1.0,True,948.1999999880791,57.0,60.0,40.0,False,,306.1860552224787,[],"[960, 540]",ColorTask,6.0,12.0,,,HRV,HRV_0100,2022-11-30 18:04:33
,wl-rdm,20,93675,0.0-6.12-0.12,0.0,21.0,,,,,,,[],,,,,,50.0,0.0,u,0.0,True,831.6999999880791,50.0,60.0,40.0,False,,341.65416544791435,[],"[960, 540]",ColorTask,7.0,13.0,,,HRV,HRV_0100,2022-11-30 18:04:33
,wl-rdm,21,95940,0.0-6.13-0.13,0.0,22.0,,,,,,,[],,,,,,53.2,0.0,u,0.0,True,933.5999999940395,57.0,60.0,40.0,False,,246.2750840762676,[],"[960, 540]",ColorTask,8.0,14.0,,,HRV,HRV_0100,2022-11-30 18:04:33
,wl-rdm,22,98156,0.0-6.14-0.14,0.0,23.0,,,,,,,[],,,,,,62.5,0.0,u,0.0,True,838.0,51.0,60.0,40.0,False,,296.16354149516314,[],"[960, 540]",ColorTask,9.0,15.0,,,HRV,HRV_0100,2022-11-30 18:04:33
,wl-rdm,23,100105,0.0-6.15-0.15,0.0,24.0,,,,,,,[],,,,,,62.5,1.0,i,1.0,True,604.2000000178814,37.0,60.0,40.0,False,,260.4475255394376,[],"[960, 540]",ColorTask,10.0,16.0,,,HRV,HRV_0100,2022-11-30 18:04:33
,wl-rdm,24,102137,0.0-6.16-0.16,0.0,25.0,,,,,,,[],,,,,,73.6,0.0,u,0.0,True,637.3000000119209,39.0,60.0,40.0,False,,315.88940202712155,[],"[960, 540]",ColorTask,11.0,17.0,,,HRV,HRV_0100,2022-11-30 18:04:33
,wl-rdm,25,104486,0.0-6.17-0.17,0.0,26.0,,,,,,,[],,,,,,53.2,0.0,u,0.0,True,971.3000000119209,59.0,60.0,40.0,False,,297.572096997862,[],"[960, 540]",ColorTask,12.0,18.0,,,HRV,HRV_0100,2022-11-30 18:04:33
,wl-rdm,26,106635,0.0-6.18-0.18,0.0,27.0,,,,,,,[],,,,,,53.2,0.0,i,1.0,False,706.1999999880791,43.0,60.0,40.0,False,,357.3775028463516,[],"[960, 540]",ColorTask,11.0,19.0,,,HRV,HRV_0100,2022-11-30 18:04:33
,wl-rdm,27,109051,0.0-6.19-0.19,0.0,28.0,,,,,,,[],,,,,,56.4,0.0,i,1.0,False,1042.5,63.0,60.0,40.0,False,,297.78462356691625,[],"[960, 540]",ColorTask,10.0,20.0,,,HRV,HRV_0100,2022-11-30 18:04:33
,wl-rdm,28,111250,0.0-6.20-0.20,0.0,29.0,,,,,,,[],,,,,,87.9,0.0,u,0.0,True,867.3000000119209,53.0,60.0,40.0,False,,242.98873630776362,[],"[960, 540]",ColorTask,11.0,21.0,,,HRV,HRV_0100,2022-11-30 18:04:33
,wl-rdm,29,113266,0.0-6.21-0.21,0.0,30.0,,,,,,,[],,,,,,56.4,0.0,u,0.0,True,720.4000000357628,44.0,60.0,40.0,False,,204.7652392159436,[],"[960, 540]",ColorTask,12.0,22.0,,,HRV,HRV_0100,2022-11-30 18:04:33
,wl-rdm,30,115148,0.0-6.22-0.22,0.0,31.0,,,,,,,[],,,,,,62.5,1.0,i,1.0,True,594.0999999940395,36.0,60.0,40.0,False,,212.166858423169,[],"[960, 540]",ColorTask,13.0,23.0,,,HRV,HRV_0100,2022-11-30 18:04:33
,wl-rdm,31,117597,0.0-6.23-0.23,0.0,32.0,,,,,,,[],,,,,,50.0,1.0,i,1.0,True,979.2999999821186,59.0,60.0,40.0,False,,391.1399098985119,[],"[960, 540]",ColorTask,14.0,24.0,,,HRV,HRV_0100,2022-11-30 18:04:33
,wl-rdm,32,120013,0.0-6.24-0.24,0.0,33.0,,,,,,,[],,,,,,56.4,0.0,i,1.0,False,1040.2999999821186,63.0,60.0,40.0,False,,292.27919241190034,[],"[960, 540]",ColorTask,13.0,25.0,,,HRV,HRV_0100,2022-11-30 18:04:33
,wl-rdm,33,122261,0.0-6.25-0.25,0.0,34.0,,,,,,,[],,,,,,56.4,1.0,i,1.0,True,952.4000000059605,58.0,60.0,40.0,False,,225.85607299918104,[],"[960, 540]",ColorTask,14.0,26.0,,,HRV,HRV_0100,2022-11-30 18:04:33
,wl-rdm,34,124644,0.0-6.26-0.26,0.0,35.0,,,,,,,[],,,,,,53.2,0.0,u,0.0,True,906.1999999880791,55.0,60.0,40.0,False,,398.2670970654835,[],"[960, 540]",ColorTask,15.0,27.0,,,HRV,HRV_0100,2022-11-30 18:04:33
,wl-rdm,35,126926,0.0-6.27-0.27,0.0,36.0,,,,,,,[],,,,,,50.0,1.0,i,1.0,True,986.8000000119209,60.0,60.0,40.0,False,,208.37537277804614,[],"[960, 540]",ColorTask,16.0,28.0,,,HRV,HRV_0100,2022-11-30 18:04:33
,wl-rdm,36,128975,0.0-6.28-0.28,0.0,37.0,,,,,,,[],,,,,,53.2,1.0,i,1.0,True,621.3000000119209,38.0,60.0,40.0,False,,336.2496190546914,[],"[960, 540]",ColorTask,17.0,29.0,,,HRV,HRV_0100,2022-11-30 18:04:33
,wl-rdm,37,130908,0.0-6.29-0.29,0.0,38.0,,,,,,,[],,,,,,87.9,0.0,u,0.0,True,561.0,34.0,60.0,40.0,False,,298.0095015029103,[],"[960, 540]",ColorTask,18.0,30.0,,,HRV,HRV_0100,2022-11-30 18:04:33
,wl-rdm,38,132823,0.0-6.30-0.30,0.0,39.0,,,,,,,[],,,,,,73.6,1.0,i,1.0,True,498.60000002384186,30.0,60.0,40.0,False,,344.86342595604657,[],"[960, 540]",ColorTask,19.0,31.0,,,HRV,HRV_0100,2022-11-30 18:04:33
,wl-rdm,39,135389,0.0-6.31-0.31,0.0,40.0,,,,,,,[],,,,,,87.9,0.0,i,1.0,False,1214.0999999940395,73.0,60.0,40.0,False,,283.2810060924554,[],"[960, 540]",ColorTask,18.0,32.0,,,HRV,HRV_0100,2022-11-30 18:04:33
,wl-rdm,40,137421,0.0-6.32-0.32,0.0,41.0,,,,,,,[],,,,,,50.0,0.0,i,1.0,False,723.8000000119209,44.0,60.0,40.0,False,,223.23392982571633,[],"[960, 540]",ColorTask,17.0,33.0,,,HRV,HRV_0100,2022-11-30 18:04:33
,wl-rdm,41,139387,0.0-6.33-0.33,0.0,42.0,,,,,,,[],,,,,,56.4,1.0,u,0.0,False,628.2999999821186,38.0,60.0,40.0,False,,255.39226830281396,[],"[960, 540]",ColorTask,16.0,34.0,,,HRV,HRV_0100,2022-11-30 18:04:33
,wl-rdm,42,142752,0.0-6.34-0.34,0.0,43.0,,,,,,,[],,,,,,62.5,0.0,u,0.0,True,1900.0,115.0,60.0,40.0,False,,369.89449763364485,[],"[960, 540]",ColorTask,17.0,35.0,,,HRV,HRV_0100,2022-11-30 18:04:33
,wl-rdm,43,144934,0.0-6.35-0.35,0.0,44.0,,,,,,,[],,,,,,53.2,1.0,i,1.0,True,704.9000000059605,43.0,60.0,40.0,False,,390.465885731836,[],"[960, 540]",ColorTask,18.0,36.0,,,HRV,HRV_0100,2022-11-30 18:04:33
,wl-rdm,44,146834,0.0-6.36-0.36,0.0,45.0,,,,,,,[],,,,,,56.4,0.0,i,1.0,False,588.4000000059605,36.0,60.0,40.0,False,,227.0453794714062,[],"[960, 540]",ColorTask,17.0,37.0,,,HRV,HRV_0100,2022-11-30 18:04:33
,wl-rdm,45,148816,0.0-6.37-0.37,0.0,46.0,,,,,,,[],,,,,,87.9,0.0,u,0.0,True,603.5999999940395,37.0,60.0,40.0,False,,284.7791927422201,[],"[960, 540]",ColorTask,18.0,38.0,,,HRV,HRV_0100,2022-11-30 18:04:33
,wl-rdm,46,150865,0.0-6.38-0.38,0.0,47.0,,,,,,,[],,,,,,53.2,0.0,i,1.0,False,763.5,46.0,60.0,40.0,False,,209.90733291582023,[],"[960, 540]",ColorTask,17.0,39.0,,,HRV,HRV_0100,2022-11-30 18:04:33
,wl-rdm,47,153347,0.0-6.39-0.39,0.0,48.0,,,,,,,[],,,,,,62.5,0.0,u,0.0,True,1002.9999999701977,61.0,60.0,40.0,False,,390.2039876735912,[],"[960, 540]",ColorTask,18.0,40.0,,,HRV,HRV_0100,2022-11-30 18:04:33
,wl-rdm,48,155846,0.0-6.40-0.40,0.0,49.0,,,,,,,[],,,,,,56.4,1.0,i,1.0,True,1045.9000000059605,63.0,60.0,40.0,False,,381.50885660557003,[],"[960, 540]",ColorTask,19.0,41.0,,,HRV,HRV_0100,2022-11-30 18:04:33
,wl-rdm,49,157645,0.0-6.41-0.41,0.0,50.0,,,,,,,[],,,,,,87.9,1.0,u,0.0,False,429.59999999403954,26.0,60.0,40.0,False,,294.9837877636107,[],"[960, 540]",ColorTask,18.0,42.0,,,HRV,HRV_0100,2022-11-30 18:04:33
,wl-rdm,50,160244,0.0-6.42-0.42,0.0,51.0,,,,,,,[],,,,,,62.5,0.0,u,0.0,True,1288.5,78.0,60.0,40.0,False,,228.22579778329296,[],"[960, 540]",ColorTask,19.0,43.0,,,HRV,HRV_0100,2022-11-30 18:04:33
,wl-rdm,51,162876,0.0-6.43-0.43,0.0,52.0,,,,,,,[],,,,,,73.6,0.0,u,0.0,True,1330.2999999821186,80.0,60.0,40.0,False,,231.47110493876175,[],"[960, 540]",ColorTask,20.0,44.0,,,HRV,HRV_0100,2022-11-30 18:04:33
,wl-rdm,52,165459,0.0-6.44-0.44,0.0,53.0,,,,,,,[],,,,,,56.4,1.0,i,1.0,True,1217.8999999761581,74.0,60.0,40.0,False,,267.1243031506003,[],"[960, 540]",ColorTask,21.0,45.0,,,HRV,HRV_0100,2022-11-30 18:04:33
,wl-rdm,53,167857,0.0-6.45-0.45,0.0,54.0,,,,,,,[],,,,,,62.5,1.0,i,1.0,True,1086.300000011921,66.0,60.0,40.0,False,,219.06405010671398,[],"[960, 540]",ColorTask,22.0,46.0,,,HRV,HRV_0100,2022-11-30 18:04:33
,wl-rdm,54,170340,0.0-6.46-0.46,0.0,55.0,,,,,,,[],,,,,,50.0,0.0,i,1.0,False,1076.0,65.0,60.0,40.0,False,,325.67261514957033,[],"[960, 540]",ColorTask,21.0,47.0,,,HRV,HRV_0100,2022-11-30 18:04:33
,wl-rdm,55,172505,0.0-6.47-0.47,0.0,56.0,,,,,,,[],,,,,,73.6,1.0,i,1.0,True,804.3999999761581,49.0,60.0,40.0,False,,266.77076246226295,[],"[960, 540]",ColorTask,22.0,48.0,,,HRV,HRV_0100,2022-11-30 18:04:33
,wl-rdm,56,174904,0.0-6.48-0.48,0.0,57.0,,,,,,,[],,,,,,62.5,0.0,u,0.0,True,970.6999999880791,59.0,60.0,40.0,False,,343.82790229368055,[],"[960, 540]",ColorTask,23.0,49.0,,,HRV,HRV_0100,2022-11-30 18:04:33
,wl-rdm,57,176986,0.0-6.49-0.49,0.0,58.0,,,,,,,[],,,,,,73.6,0.0,u,0.0,True,678.1999999880791,41.0,60.0,40.0,False,,323.7460289945641,[],"[960, 540]",ColorTask,24.0,50.0,,,HRV,HRV_0100,2022-11-30 18:04:33
,wl-rdm,58,179335,0.0-6.50-0.50,0.0,59.0,,,,,,,[],,,,,,50.0,1.0,i,1.0,True,979.4000000059605,59.0,60.0,40.0,False,,297.77417939187393,[],"[960, 540]",ColorTask,25.0,51.0,,,HRV,HRV_0100,2022-11-30 18:04:33
,wl-rdm,59,181868,0.0-6.51-0.51,0.0,60.0,,,,,,,[],,,,,,56.4,0.0,i,1.0,False,1217.699999988079,74.0,60.0,40.0,False,,220.32383380793254,[],"[960, 540]",ColorTask,24.0,52.0,,,HRV,HRV_0100,2022-11-30 18:04:33
,wl-rdm,60,183983,0.0-6.52-0.52,0.0,61.0,,,,,,,[],,,,,,73.6,1.0,i,1.0,True,689.5999999940395,42.0,60.0,40.0,False,,338.92935391604277,[],"[960, 540]",ColorTask,25.0,53.0,,,HRV,HRV_0100,2022-11-30 18:04:33
,wl-rdm,61,186599,0.0-6.53-0.53,0.0,62.0,,,,,,,[],,,,,,50.0,0.0,i,1.0,False,1192.5,72.0,60.0,40.0,False,,345.8552510233814,[],"[960, 540]",ColorTask,24.0,54.0,,,HRV,HRV_0100,2022-11-30 18:04:33
,wl-rdm,62,189248,0.0-6.54-0.54,0.0,63.0,,,,,,,[],,,,,,56.4,1.0,i,1.0,True,1178.5999999940395,71.0,60.0,40.0,False,,393.76122229275484,[],"[960, 540]",ColorTask,25.0,55.0,,,HRV,HRV_0100,2022-11-30 18:04:33
,wl-rdm,63,191547,0.0-6.55-0.55,0.0,64.0,,,,,,,[],,,,,,73.6,0.0,u,0.0,True,962.9000000059605,58.0,60.0,40.0,False,,258.47642394909064,[],"[960, 540]",ColorTask,26.0,56.0,,,HRV,HRV_0100,2022-11-30 18:04:33
,wl-rdm,64,193863,0.0-6.56-0.56,0.0,65.0,,,,,,,[],,,,,,53.2,0.0,i,1.0,False,1008.0,61.0,60.0,40.0,False,,216.637316233959,[],"[960, 540]",ColorTask,25.0,57.0,,,HRV,HRV_0100,2022-11-30 18:04:33
,wl-rdm,65,195828,0.0-6.57-0.57,0.0,66.0,,,,,,,[],,,,,,56.4,1.0,i,1.0,True,617.1000000238419,38.0,60.0,40.0,False,,258.078789412963,[],"[960, 540]",ColorTask,26.0,58.0,,,HRV,HRV_0100,2022-11-30 18:04:33
,wl-rdm,66,198044,0.0-6.58-0.58,0.0,67.0,,,,,,,[],,,,,,53.2,1.0,u,0.0,False,865.7000000178814,52.0,60.0,40.0,False,,271.4536320049227,[],"[960, 540]",ColorTask,25.0,59.0,,,HRV,HRV_0100,2022-11-30 18:04:33
,wl-rdm,67,200393,0.0-6.59-0.59,0.0,68.0,,,,,,,[],,,,,,56.4,0.0,i,1.0,False,1023.2999999821186,62.0,60.0,40.0,False,,240.03423190043938,[],"[960, 540]",ColorTask,24.0,60.0,,,HRV,HRV_0100,2022-11-30 18:04:33
,wl-rdm,68,202709,0.0-6.60-0.60,0.0,69.0,,,,,,,[],,,,,,53.2,1.0,i,1.0,True,1028.2999999821186,62.0,60.0,40.0,False,,202.18491063639752,[],"[960, 540]",ColorTask,25.0,61.0,,,HRV,HRV_0100,2022-11-30 18:04:33
,wl-rdm,69,204724,0.0-6.61-0.61,0.0,70.0,,,,,,,[],,,,,,50.0,0.0,i,1.0,False,570.9000000059605,35.0,60.0,40.0,False,,356.53508178568416,[],"[960, 540]",ColorTask,24.0,62.0,,,HRV,HRV_0100,2022-11-30 18:04:33
,wl-rdm,70,207340,0.0-6.62-0.62,0.0,71.0,,,,,,,[],,,,,,50.0,0.0,i,1.0,False,1225.699999988079,74.0,60.0,40.0,False,,316.0844018955789,[],"[960, 540]",ColorTask,23.0,63.0,,,HRV,HRV_0100,2022-11-30 18:04:33
,wl-rdm,71,210255,0.0-6.63-0.63,0.0,72.0,,,,,,,[],,,,,,73.6,0.0,u,0.0,True,1437.2999999821186,87.0,60.0,40.0,False,,392.4851956031137,[],"[960, 540]",ColorTask,24.0,64.0,,,HRV,HRV_0100,2022-11-30 18:04:33
,wl-rdm,72,212338,0.0-6.64-0.64,0.0,73.0,,,,,,,[],,,,,,73.6,1.0,i,1.0,True,717.7999999821186,44.0,60.0,40.0,False,,283.0627049935484,[],"[960, 540]",ColorTask,25.0,65.0,,,HRV,HRV_0100,2022-11-30 18:04:33
,wl-rdm,73,214287,0.0-6.65-0.65,0.0,74.0,,,,,,,[],,,,,,87.9,1.0,i,1.0,True,628.5,38.0,60.0,40.0,False,,235.90946453617562,[],"[960, 540]",ColorTask,26.0,66.0,,,HRV,HRV_0100,2022-11-30 18:04:33
,wl-rdm,74,216686,0.0-6.66-0.66,0.0,75.0,,,,,,,[],,,,,,50.0,0.0,i,1.0,False,1004.3000000417233,61.0,60.0,40.0,False,,310.0271482149396,[],"[960, 540]",ColorTask,25.0,67.0,,,HRV,HRV_0100,2022-11-30 18:04:33
,wl-rdm,75,218918,0.0-6.67-0.67,0.0,76.0,,,,,,,[],,,,,,87.9,1.0,i,1.0,True,751.2999999821186,46.0,60.0,40.0,False,,399.82168573971813,[],"[960, 540]",ColorTask,26.0,68.0,,,HRV,HRV_0100,2022-11-30 18:04:33
,wl-rdm,76,221633,0.0-6.68-0.68,0.0,77.0,,,,,,,[],,,,,,53.2,1.0,i,1.0,True,1390.5000000298023,84.0,60.0,40.0,False,,235.1961706196666,[],"[960, 540]",ColorTask,27.0,69.0,,,HRV,HRV_0100,2022-11-30 18:04:33
,wl-rdm,77,223616,0.0-6.69-0.69,0.0,78.0,,,,,,,[],,,,,,62.5,1.0,i,1.0,True,554.0999999940395,34.0,60.0,40.0,False,,348.39638262007156,[],"[960, 540]",ColorTask,28.0,70.0,,,HRV,HRV_0100,2022-11-30 18:04:33
,wl-rdm,78,225581,0.0-6.70-0.70,0.0,79.0,,,,,,,[],,,,,,73.6,0.0,u,0.0,True,590.4000000059605,36.0,60.0,40.0,False,,300.0376446940524,[],"[960, 540]",ColorTask,29.0,71.0,,,HRV,HRV_0100,2022-11-30 18:04:33
,wl-rdm,79,228214,0.0-6.71-0.71,0.0,80.0,,,,,,,[],,,,,,73.6,0.0,u,0.0,True,1305.5,79.0,60.0,40.0,False,,239.47922623442867,[],"[960, 540]",ColorTask,30.0,72.0,,,HRV,HRV_0100,2022-11-30 18:04:33
,wl-rdm,80,230246,0.0-6.72-0.72,0.0,81.0,,,,,,,[],,,,,,87.9,0.0,u,0.0,True,579.1999999880791,35.0,60.0,40.0,False,,371.7629723210803,[],"[960, 540]",ColorTask,31.0,73.0,,,HRV,HRV_0100,2022-11-30 18:04:33
,wl-rdm,81,232345,0.0-6.73-0.73,0.0,82.0,,,,,,,[],,,,,,87.9,0.0,u,0.0,True,780.5,47.0,60.0,40.0,False,,237.05501564063684,[],"[960, 540]",ColorTask,32.0,74.0,,,HRV,HRV_0100,2022-11-30 18:04:33
,wl-rdm,82,234228,0.0-6.74-0.74,0.0,83.0,,,,,,,[],,,,,,73.6,0.0,u,0.0,True,517.4000000059605,32.0,60.0,40.0,False,,282.70502141411083,[],"[960, 540]",ColorTask,33.0,75.0,,,HRV,HRV_0100,2022-11-30 18:04:33
,wl-rdm,83,237276,0.0-6.75-0.75,0.0,84.0,,,,,,,[],,,,,,53.2,0.0,i,1.0,False,1713.9000000059605,103.0,60.0,40.0,False,,259.3386035612259,[],"[960, 540]",ColorTask,32.0,76.0,,,HRV,HRV_0100,2022-11-30 18:04:33
,wl-rdm,84,239492,0.0-6.76-0.76,0.0,85.0,,,,,,,[],,,,,,62.5,1.0,i,1.0,True,824.1999999880791,50.0,60.0,40.0,False,,301.5922938167008,[],"[960, 540]",ColorTask,33.0,77.0,,,HRV,HRV_0100,2022-11-30 18:04:33
,wl-rdm,85,241474,0.0-6.77-0.77,0.0,86.0,,,,,,,[],,,,,,56.4,0.0,i,1.0,False,604.1999999880791,37.0,60.0,40.0,False,,287.15224691625104,[],"[960, 540]",ColorTask,32.0,78.0,,,HRV,HRV_0100,2022-11-30 18:04:33
,wl-rdm,86,243690,0.0-6.78-0.78,0.0,87.0,,,,,,,[],,,,,,56.4,0.0,u,0.0,True,876.5999999940395,53.0,60.0,40.0,False,,265.51112627228486,[],"[960, 540]",ColorTask,33.0,79.0,,,HRV,HRV_0100,2022-11-30 18:04:33
,wl-rdm,87,246955,0.0-6.79-0.79,0.0,88.0,,,,,,,[],,,,,,53.2,1.0,i,1.0,True,1970.800000011921,119.0,60.0,40.0,False,,215.13969901435016,[],"[960, 540]",ColorTask,34.0,80.0,,,HRV,HRV_0100,2022-11-30 18:04:33
,wl-rdm,88,249137,0.0-6.80-0.80,0.0,89.0,,,,,,,[],,,,,,87.9,1.0,i,1.0,True,886.7000000178814,54.0,60.0,40.0,False,,203.06849875494348,[],"[960, 540]",ColorTask,35.0,81.0,,,HRV,HRV_0100,2022-11-30 18:04:33
,wl-rdm,89,251453,0.0-6.81-0.81,0.0,90.0,,,,,,,[],,,,,,62.5,0.0,u,0.0,True,839.8999999761581,51.0,60.0,40.0,False,,393.9666744010468,[],"[960, 540]",ColorTask,36.0,82.0,,,HRV,HRV_0100,2022-11-30 18:04:33
,wl-rdm,90,253902,0.0-6.82-0.82,0.0,91.0,,,,,,,[],,,,,,73.6,1.0,i,1.0,True,974.3000000119209,59.0,60.0,40.0,False,,384.7758190462821,[],"[960, 540]",ColorTask,37.0,83.0,,,HRV,HRV_0100,2022-11-30 18:04:33
,wl-rdm,91,256151,0.0-6.83-0.83,0.0,92.0,,,,,,,[],,,,,,73.6,0.0,u,0.0,True,858.0999999940395,52.0,60.0,40.0,False,,310.3034890249267,[],"[960, 540]",ColorTask,38.0,84.0,,,HRV,HRV_0100,2022-11-30 18:04:33
,wl-rdm,92,258716,0.0-6.84-0.84,0.0,93.0,,,,,,,[],,,,,,50.0,1.0,u,0.0,False,1220.0999999940395,74.0,60.0,40.0,False,,249.94498610509942,[],"[960, 540]",ColorTask,37.0,85.0,,,HRV,HRV_0100,2022-11-30 18:04:33
,wl-rdm,93,262281,0.0-6.85-0.85,0.0,94.0,,,,,,,[],,,,,,53.2,1.0,u,0.0,False,2123.9000000059605,128.0,60.0,40.0,False,,350.57857899326143,[],"[960, 540]",ColorTask,36.0,86.0,,,HRV,HRV_0100,2022-11-30 18:04:33
,wl-rdm,94,264614,0.0-6.86-0.86,0.0,95.0,,,,,,,[],,,,,,62.5,1.0,i,1.0,True,865.5,52.0,60.0,40.0,False,,385.73119409054874,[],"[960, 540]",ColorTask,37.0,87.0,,,HRV,HRV_0100,2022-11-30 18:04:33
,wl-rdm,95,267646,0.0-6.87-0.87,0.0,96.0,,,,,,,[],,,,,,56.4,0.0,u,0.0,True,1704.5,103.0,60.0,40.0,False,,235.36435576538256,[],"[960, 540]",ColorTask,38.0,88.0,,,HRV,HRV_0100,2022-11-30 18:04:33
,wl-rdm,96,270195,0.0-6.88-0.88,0.0,97.0,,,,,,,[],,,,,,62.5,1.0,i,1.0,True,1215.5,73.0,60.0,40.0,False,,263.53955166805844,[],"[960, 540]",ColorTask,39.0,89.0,,,HRV,HRV_0100,2022-11-30 18:04:33
,wl-rdm,97,272494,0.0-6.89-0.89,0.0,98.0,,,,,,,[],,,,,,56.4,1.0,i,1.0,True,906.3000000119209,55.0,60.0,40.0,False,,300.108693778571,[],"[960, 540]",ColorTask,40.0,90.0,,,HRV,HRV_0100,2022-11-30 18:04:33
,wl-rdm,98,274626,0.0-6.90-0.90,0.0,99.0,,,,,,,[],,,,,,62.5,0.0,u,0.0,True,763.6999999880791,46.0,60.0,40.0,False,,296.15578011990397,[],"[960, 540]",ColorTask,41.0,91.0,,,HRV,HRV_0100,2022-11-30 18:04:33
,wl-rdm,99,277558,0.0-6.91-0.91,0.0,100.0,,,,,,,[],,,,,,62.5,0.0,u,0.0,True,1534.199999988079,93.0,60.0,40.0,False,,300.7923676225865,[],"[960, 540]",ColorTask,42.0,92.0,,,HRV,HRV_0100,2022-11-30 18:04:33
,wl-rdm,100,279790,0.0-6.92-0.92,0.0,101.0,,,,,,,[],,,,,,87.9,0.0,i,1.0,False,750.0999999940395,46.0,60.0,40.0,False,,399.1131792259172,[],"[960, 540]",ColorTask,41.0,93.0,,,HRV,HRV_0100,2022-11-30 18:04:33
,wl-rdm,101,281873,0.0-6.93-0.93,0.0,102.0,,,,,,,[],,,,,,87.9,1.0,i,1.0,True,765.4000000059605,46.0,60.0,40.0,False,,235.85225106247404,[],"[960, 540]",ColorTask,42.0,94.0,,,HRV,HRV_0100,2022-11-30 18:04:33
,wl-rdm,102,284055,0.0-6.94-0.94,0.0,103.0,,,,,,,[],,,,,,73.6,1.0,i,1.0,True,738.3000000119209,45.0,60.0,40.0,False,,362.8747225270881,[],"[960, 540]",ColorTask,43.0,95.0,,,HRV,HRV_0100,2022-11-30 18:04:33
,wl-rdm,103,286187,0.0-6.95-0.95,0.0,104.0,,,,,,,[],,,,,,73.6,1.0,i,1.0,True,715.5999999940395,43.0,60.0,40.0,False,,360.557902322619,[],"[960, 540]",ColorTask,44.0,96.0,,,HRV,HRV_0100,2022-11-30 18:04:33
,wl-rdm,104,288636,0.0-6.96-0.96,0.0,105.0,,,,,,,[],,,,,,53.2,0.0,u,0.0,True,987.4000000059605,60.0,60.0,40.0,False,,381.89114345187085,[],"[960, 540]",ColorTask,45.0,97.0,,,HRV,HRV_0100,2022-11-30 18:04:33
,wl-rdm,105,291169,0.0-6.97-0.97,0.0,106.0,,,,,,,[],,,,,,50.0,1.0,i,1.0,True,1147.3999999761581,69.0,60.0,40.0,False,,326.67871771567,[],"[960, 540]",ColorTask,46.0,98.0,,,HRV,HRV_0100,2022-11-30 18:04:33
,wl-rdm,106,293567,0.0-6.98-0.98,0.0,107.0,,,,,,,[],,,,,,53.2,0.0,i,1.0,False,979.3000000119209,59.0,60.0,40.0,False,,340.0185865028784,[],"[960, 540]",ColorTask,45.0,99.0,,,HRV,HRV_0100,2022-11-30 18:04:33
,wl-rdm,107,296216,0.0-6.99-0.99,0.0,108.0,,,,,,,[],,,,,,53.2,1.0,i,1.0,True,1169.5999999940395,71.0,60.0,40.0,False,,387.187342187842,[],"[960, 540]",ColorTask,46.0,100.0,,,HRV,HRV_0100,2022-11-30 18:04:33
,wl-rdm,108,299631,0.0-6.100-0.100,0.0,109.0,,,,,,,[],,,,,,50.0,1.0,i,1.0,True,2106.2999999821186,127.0,60.0,40.0,False,,222.31759864312414,[],"[960, 540]",ColorTask,47.0,101.0,,,HRV,HRV_0100,2022-11-30 18:04:33
,wl-rdm,109,301597,0.0-6.101-0.101,0.0,110.0,,,,,,,[],,,,,,87.9,1.0,i,1.0,True,601.1999999880791,37.0,60.0,40.0,False,,266.73318332656777,[],"[960, 540]",ColorTask,48.0,102.0,,,HRV,HRV_0100,2022-11-30 18:04:33
,wl-rdm,110,304246,0.0-6.102-0.102,0.0,111.0,,,,,,,[],,,,,,50.0,0.0,u,0.0,True,1263.5999999940395,76.0,60.0,40.0,False,,315.3207156198268,[],"[960, 540]",ColorTask,49.0,103.0,,,HRV,HRV_0100,2022-11-30 18:04:33
,wl-rdm,111,306811,0.0-6.103-0.103,0.0,112.0,,,,,,,[],,,,,,73.6,1.0,i,1.0,True,1173.0999999940395,71.0,60.0,40.0,False,,301.26306022956845,[],"[960, 540]",ColorTask,50.0,104.0,,,HRV,HRV_0100,2022-11-30 18:04:33
,wl-rdm,112,308778,0.0-6.104-0.104,0.0,113.0,,,,,,,[],,,,,,73.6,1.0,i,1.0,True,634.4000000059605,39.0,60.0,40.0,False,,244.57255003797673,[],"[960, 540]",ColorTask,51.0,105.0,,,HRV,HRV_0100,2022-11-30 18:04:33
,wl-rdm,113,310643,0.0-6.105-0.105,0.0,114.0,,,,,,,[],,,,,,87.9,1.0,i,1.0,True,582.4000000059605,35.0,60.0,40.0,False,,207.94760081088427,[],"[960, 540]",ColorTask,52.0,106.0,,,HRV,HRV_0100,2022-11-30 18:04:33
,wl-rdm,114,313076,0.0-6.106-0.106,0.0,115.0,,,,,,,[],,,,,,87.9,1.0,i,1.0,True,1097.300000011921,66.0,60.0,40.0,False,,260.6307148524644,[],"[960, 540]",ColorTask,53.0,107.0,,,HRV,HRV_0100,2022-11-30 18:04:33
,wl-rdm,115,314992,0.0-6.107-0.107,0.0,116.0,,,,,,,[],,,,,,50.0,1.0,i,1.0,True,623.5999999940395,38.0,60.0,40.0,False,,203.53568174868607,[],"[960, 540]",ColorTask,54.0,108.0,,,HRV,HRV_0100,2022-11-30 18:04:33
,wl-html-keyboard-response,116,322442,0.0-7.0-0.0,1.0,117.0,,,,,,,,5426.799999982119,1.0,0,,,,,,,,,,,,,,,,,,,,,,HRV,HRV_0100,2022-11-30 18:04:33
,wl-rdm,117,324954,0.0-8.0-0.0,1.0,118.0,,,,,,,[],,,,,,53.2,0.0,i,1.0,False,1116.0,67.0,60.0,40.0,False,,319.35711874413806,[],"[960, 540]",ColorTask,53.0,1.0,,,HRV,HRV_0100,2022-11-30 18:04:33
,wl-rdm,118,327369,0.0-8.1-0.1,1.0,119.0,,,,,,,[],,,,,,50.0,1.0,i,1.0,True,1097.9000000059605,66.0,60.0,40.0,False,,262.38340831216806,[],"[960, 540]",ColorTask,54.0,2.0,,,HRV,HRV_0100,2022-11-30 18:04:33
,wl-rdm,119,329385,0.0-8.2-0.2,1.0,120.0,,,,,,,[],,,,,,62.5,1.0,i,1.0,True,563.7999999821186,34.0,60.0,40.0,False,,379.00150895150875,[],"[960, 540]",ColorTask,55.0,3.0,,,HRV,HRV_0100,2022-11-30 18:04:33
,wl-rdm,120,331817,0.0-8.3-0.3,1.0,121.0,,,,,,,[],,,,,,53.2,1.0,i,1.0,True,1003.9000000059605,61.0,60.0,40.0,False,,333.26340100310017,[],"[960, 540]",ColorTask,56.0,4.0,,,HRV,HRV_0100,2022-11-30 18:04:33
,wl-rdm,121,333800,0.0-8.4-0.4,1.0,122.0,,,,,,,[],,,,,,87.9,0.0,u,0.0,True,593.1000000238419,36.0,60.0,40.0,False,,301.3157634512912,[],"[960, 540]",ColorTask,57.0,5.0,,,HRV,HRV_0100,2022-11-30 18:04:33
,wl-rdm,122,336299,0.0-8.5-0.5,1.0,123.0,,,,,,,[],,,,,,62.5,0.0,u,0.0,True,1168.5,71.0,60.0,40.0,False,,243.15262735260814,[],"[960, 540]",ColorTask,58.0,6.0,,,HRV,HRV_0100,2022-11-30 18:04:33
,wl-rdm,123,338064,0.0-8.6-0.6,1.0,124.0,,,,,,,[],,,,,,53.2,1.0,u,0.0,False,397.39999997615814,24.0,60.0,40.0,False,,287.48254966916073,[],"[960, 540]",ColorTask,57.0,7.0,,,HRV,HRV_0100,2022-11-30 18:04:33
,wl-rdm,124,339947,0.0-8.7-0.7,1.0,125.0,,,,,,,[],,,,,,73.6,0.0,u,0.0,True,578.5999999940395,35.0,60.0,40.0,False,,228.82798479431122,[],"[960, 540]",ColorTask,58.0,8.0,,,HRV,HRV_0100,2022-11-30 18:04:33
,wl-rdm,125,341813,0.0-8.8-0.8,1.0,126.0,,,,,,,[],,,,,,87.9,0.0,u,0.0,True,582.8999999761581,35.0,60.0,40.0,False,,202.03378217652664,[],"[960, 540]",ColorTask,59.0,9.0,,,HRV,HRV_0100,2022-11-30 18:04:33
,wl-rdm,126,343895,0.0-8.9-0.9,1.0,127.0,,,,,,,[],,,,,,56.4,0.0,i,1.0,False,620.0,38.0,60.0,40.0,False,,381.889075385996,[],"[960, 540]",ColorTask,58.0,10.0,,,HRV,HRV_0100,2022-11-30 18:04:33
,wl-rdm,127,346844,0.0-8.10-0.10,1.0,128.0,,,,,,,[],,,,,,50.0,0.0,i,1.0,False,1505.4000000059605,91.0,60.0,40.0,False,,366.4664749198966,[],"[960, 540]",ColorTask,57.0,11.0,,,HRV,HRV_0100,2022-11-30 18:04:33
,wl-rdm,128,349126,0.0-8.11-0.11,1.0,129.0,,,,,,,[],,,,,,62.5,1.0,u,0.0,False,870.7999999821186,53.0,60.0,40.0,False,,331.18941260551514,[],"[960, 540]",ColorTask,56.0,12.0,,,HRV,HRV_0100,2022-11-30 18:04:33
,wl-rdm,129,351775,0.0-8.12-0.12,1.0,130.0,,,,,,,[],,,,,,53.2,1.0,i,1.0,True,1281.9000000059605,77.0,60.0,40.0,False,,290.9937868532952,[],"[960, 540]",ColorTask,57.0,13.0,,,HRV,HRV_0100,2022-11-30 18:04:33
,wl-rdm,130,354074,0.0-8.13-0.13,1.0,131.0,,,,,,,[],,,,,,73.6,0.0,u,0.0,True,1006.0999999940395,61.0,60.0,40.0,False,,208.36292599812333,[],"[960, 540]",ColorTask,58.0,14.0,,,HRV,HRV_0100,2022-11-30 18:04:33
,wl-rdm,131,356739,0.0-8.14-0.14,1.0,132.0,,,,,,,[],,,,,,53.2,0.0,u,0.0,True,1270.699999988079,77.0,60.0,40.0,False,,328.8023844981792,[],"[960, 540]",ColorTask,59.0,15.0,,,HRV,HRV_0100,2022-11-30 18:04:33
,wl-rdm,132,359205,0.0-8.15-0.15,1.0,133.0,,,,,,,[],,,,,,62.5,1.0,i,1.0,True,1181.0,71.0,60.0,40.0,False,,201.93538175563626,[],"[960, 540]",ColorTask,60.0,16.0,,,HRV,HRV_0100,2022-11-30 18:04:33
,wl-rdm,133,361070,0.0-8.16-0.16,1.0,134.0,,,,,,,[],,,,,,73.6,1.0,i,1.0,True,574.5999999940395,35.0,60.0,40.0,False,,216.41728752153685,[],"[960, 540]",ColorTask,61.0,17.0,,,HRV,HRV_0100,2022-11-30 18:04:33
,wl-rdm,134,364302,0.0-8.17-0.17,1.0,135.0,,,,,,,[],,,,,,62.5,0.0,u,0.0,True,1890.300000011921,114.0,60.0,40.0,False,,265.6167739115465,[],"[960, 540]",ColorTask,62.0,18.0,,,HRV,HRV_0100,2022-11-30 18:04:33
,wl-rdm,135,366268,0.0-8.18-0.18,1.0,136.0,,,,,,,[],,,,,,73.6,0.0,u,0.0,True,660.5,40.0,60.0,40.0,False,,219.5255181170906,[],"[960, 540]",ColorTask,63.0,19.0,,,HRV,HRV_0100,2022-11-30 18:04:33
,wl-rdm,136,368833,0.0-8.19-0.19,1.0,137.0,,,,,,,[],,,,,,56.4,1.0,i,1.0,True,1273.2999999821186,77.0,60.0,40.0,False,,202.68033648186884,[],"[960, 540]",ColorTask,64.0,20.0,,,HRV,HRV_0100,2022-11-30 18:04:33
,wl-rdm,137,370732,0.0-8.20-0.20,1.0,138.0,,,,,,,[],,,,,,56.4,1.0,i,1.0,True,582.4000000059605,35.0,60.0,40.0,False,,246.3683969939218,[],"[960, 540]",ColorTask,65.0,21.0,,,HRV,HRV_0100,2022-11-30 18:04:33
,wl-rdm,138,373447,0.0-8.21-0.21,1.0,139.0,,,,,,,[],,,,,,50.0,1.0,i,1.0,True,1352.800000011921,82.0,60.0,40.0,False,,276.082390057733,[],"[960, 540]",ColorTask,66.0,22.0,,,HRV,HRV_0100,2022-11-30 18:04:33
,wl-rdm,139,375830,0.0-8.22-0.22,1.0,140.0,,,,,,,[],,,,,,53.2,0.0,u,0.0,True,1075.800000011921,65.0,60.0,40.0,False,,217.0412446725974,[],"[960, 540]",ColorTask,67.0,23.0,,,HRV,HRV_0100,2022-11-30 18:04:33
,wl-rdm,140,378012,0.0-8.23-0.23,1.0,141.0,,,,,,,[],,,,,,73.6,1.0,i,1.0,True,757.2999999821186,46.0,60.0,40.0,False,,340.73016202524036,[],"[960, 540]",ColorTask,68.0,24.0,,,HRV,HRV_0100,2022-11-30 18:04:33
,wl-rdm,141,380511,0.0-8.24-0.24,1.0,142.0,,,,,,,[],,,,,,50.0,1.0,i,1.0,True,1091.5999999940395,66.0,60.0,40.0,False,,322.32082643113074,[],"[960, 540]",ColorTask,69.0,25.0,,,HRV,HRV_0100,2022-11-30 18:04:33
,wl-rdm,142,382393,0.0-8.25-0.25,1.0,143.0,,,,,,,[],,,,,,62.5,1.0,i,1.0,True,547.7000000178814,33.0,60.0,40.0,False,,265.0679854817999,[],"[960, 540]",ColorTask,70.0,26.0,,,HRV,HRV_0100,2022-11-30 18:04:33
,wl-rdm,143,384309,0.0-8.26-0.26,1.0,144.0,,,,,,,[],,,,,,53.2,0.0,i,1.0,False,441.90000000596046,27.0,60.0,40.0,False,,388.57781357502313,[],"[960, 540]",ColorTask,69.0,27.0,,,HRV,HRV_0100,2022-11-30 18:04:33
,wl-rdm,144,386675,0.0-8.27-0.27,1.0,145.0,,,,,,,[],,,,,,56.4,0.0,u,0.0,True,937.5999999940395,57.0,60.0,40.0,False,,345.8400317369159,[],"[960, 540]",ColorTask,70.0,28.0,,,HRV,HRV_0100,2022-11-30 18:04:33
,wl-rdm,145,388857,0.0-8.28-0.28,1.0,146.0,,,,,,,[],,,,,,87.9,1.0,i,1.0,True,778.4000000059605,47.0,60.0,40.0,False,,328.031731142343,[],"[960, 540]",ColorTask,71.0,29.0,,,HRV,HRV_0100,2022-11-30 18:04:33
,wl-rdm,146,391223,0.0-8.29-0.29,1.0,147.0,,,,,,,[],,,,,,50.0,1.0,u,0.0,False,965.9000000059605,58.0,60.0,40.0,False,,331.5244112915951,[],"[960, 540]",ColorTask,70.0,30.0,,,HRV,HRV_0100,2022-11-30 18:04:33
,wl-rdm,147,393521,0.0-8.30-0.30,1.0,148.0,,,,,,,[],,,,,,56.4,0.0,i,1.0,False,1006.5999999940395,61.0,60.0,40.0,False,,202.8314461864692,[],"[960, 540]",ColorTask,69.0,31.0,,,HRV,HRV_0100,2022-11-30 18:04:33
,wl-rdm,148,396187,0.0-8.31-0.31,1.0,149.0,,,,,,,[],,,,,,53.2,0.0,u,0.0,True,1295.2999999821186,78.0,60.0,40.0,False,,289.2556799650071,[],"[960, 540]",ColorTask,70.0,32.0,,,HRV,HRV_0100,2022-11-30 18:04:33
,wl-rdm,149,398169,0.0-8.32-0.32,1.0,150.0,,,,,,,[],,,,,,73.6,1.0,i,1.0,True,641.5999999940395,39.0,60.0,40.0,False,,265.8637420651089,[],"[960, 540]",ColorTask,71.0,33.0,,,HRV,HRV_0100,2022-11-30 18:04:33
,wl-rdm,150,400735,0.0-8.33-0.33,1.0,151.0,,,,,,,[],,,,,,56.4,0.0,u,0.0,True,1263.5999999940395,76.0,60.0,40.0,False,,217.2079202495669,[],"[960, 540]",ColorTask,72.0,34.0,,,HRV,HRV_0100,2022-11-30 18:04:33
,wl-rdm,151,402951,0.0-8.34-0.34,1.0,152.0,,,,,,,[],,,,,,50.0,0.0,i,1.0,False,840.9000000059605,51.0,60.0,40.0,False,,298.34354953125745,[],"[960, 540]",ColorTask,71.0,35.0,,,HRV,HRV_0100,2022-11-30 18:04:33
,wl-rdm,152,405666,0.0-8.35-0.35,1.0,153.0,,,,,,,[],,,,,,87.9,1.0,i,1.0,True,1295.9000000059605,78.0,60.0,40.0,False,,349.8497241027639,[],"[960, 540]",ColorTask,72.0,36.0,,,HRV,HRV_0100,2022-11-30 18:04:33
,wl-rdm,153,407965,0.0-8.36-0.36,1.0,154.0,,,,,,,[],,,,,,53.2,1.0,u,0.0,False,937.4000000059605,57.0,60.0,40.0,False,,275.63953720686783,[],"[960, 540]",ColorTask,71.0,37.0,,,HRV,HRV_0100,2022-11-30 18:04:33
,wl-rdm,154,410131,0.0-8.37-0.37,1.0,155.0,,,,,,,[],,,,,,87.9,0.0,u,0.0,True,792.9000000059605,48.0,60.0,40.0,False,,291.8365884000668,[],"[960, 540]",ColorTask,72.0,38.0,,,HRV,HRV_0100,2022-11-30 18:04:33
,wl-rdm,155,413063,0.0-8.38-0.38,1.0,156.0,,,,,,,[],,,,,,56.4,0.0,i,1.0,False,1499.4000000059605,90.0,60.0,40.0,False,,351.36033661104534,[],"[960, 540]",ColorTask,71.0,39.0,,,HRV,HRV_0100,2022-11-30 18:04:33
,wl-rdm,156,415262,0.0-8.39-0.39,1.0,157.0,,,,,,,[],,,,,,87.9,1.0,u,0.0,False,772.1999999880791,47.0,60.0,40.0,False,,333.31082229674587,[],"[960, 540]",ColorTask,70.0,40.0,,,HRV,HRV_0100,2022-11-30 18:04:33
,wl-rdm,157,417994,0.0-8.40-0.40,1.0,158.0,,,,,,,[],,,,,,50.0,1.0,i,1.0,True,1348.300000011921,81.0,60.0,40.0,False,,300.34354896310316,[],"[960, 540]",ColorTask,71.0,41.0,,,HRV,HRV_0100,2022-11-30 18:04:33
,wl-rdm,158,420393,0.0-8.41-0.41,1.0,159.0,,,,,,,[],,,,,,50.0,0.0,i,1.0,False,1037.9000000059605,63.0,60.0,40.0,False,,275.34661441571996,[],"[960, 540]",ColorTask,70.0,42.0,,,HRV,HRV_0100,2022-11-30 18:04:33
,wl-rdm,159,423042,0.0-8.42-0.42,1.0,160.0,,,,,,,[],,,,,,53.2,1.0,i,1.0,True,1240.5,75.0,60.0,40.0,False,,329.3027778964282,[],"[960, 540]",ColorTask,71.0,43.0,,,HRV,HRV_0100,2022-11-30 18:04:33
,wl-rdm,160,425041,0.0-8.43-0.43,1.0,161.0,,,,,,,[],,,,,,87.9,0.0,u,0.0,True,623.2999999821186,38.0,60.0,40.0,False,,286.0707418745864,[],"[960, 540]",ColorTask,72.0,44.0,,,HRV,HRV_0100,2022-11-30 18:04:33
,wl-rdm,161,428273,0.0-8.44-0.44,1.0,162.0,,,,,,,[],,,,,,62.5,0.0,u,0.0,True,1915.699999988079,115.0,60.0,40.0,False,,241.57903562504885,[],"[960, 540]",ColorTask,73.0,45.0,,,HRV,HRV_0100,2022-11-30 18:04:33
,wl-rdm,162,430922,0.0-8.45-0.45,1.0,163.0,,,,,,,[],,,,,,56.4,1.0,i,1.0,True,1174.4000000059605,71.0,60.0,40.0,False,,394.76372858927505,[],"[960, 540]",ColorTask,74.0,46.0,,,HRV,HRV_0100,2022-11-30 18:04:33
,wl-rdm,163,433121,0.0-8.46-0.46,1.0,164.0,,,,,,,[],,,,,,73.6,0.0,i,1.0,False,724.1999999880791,44.0,60.0,40.0,False,,392.52973501252313,[],"[960, 540]",ColorTask,73.0,47.0,,,HRV,HRV_0100,2022-11-30 18:04:33
,wl-rdm,164,435486,0.0-8.47-0.47,1.0,165.0,,,,,,,[],,,,,,62.5,1.0,i,1.0,True,986.8000000119209,60.0,60.0,40.0,False,,296.25755229795215,[],"[960, 540]",ColorTask,74.0,48.0,,,HRV,HRV_0100,2022-11-30 18:04:33
,wl-rdm,165,437436,0.0-8.48-0.48,1.0,166.0,,,,,,,[],,,,,,87.9,0.0,u,0.0,True,595.6999999880791,36.0,60.0,40.0,False,,282.59893998968005,[],"[960, 540]",ColorTask,75.0,49.0,,,HRV,HRV_0100,2022-11-30 18:04:33
,wl-rdm,166,439651,0.0-8.49-0.49,1.0,167.0,,,,,,,[],,,,,,73.6,0.0,u,0.0,True,924.0999999940395,56.0,60.0,40.0,False,,206.09534923232366,[],"[960, 540]",ColorTask,76.0,50.0,,,HRV,HRV_0100,2022-11-30 18:04:33
,wl-rdm,167,441684,0.0-8.50-0.50,1.0,168.0,,,,,,,[],,,,,,56.4,1.0,i,1.0,True,687.7999999821186,42.0,60.0,40.0,False,,254.1585675461859,[],"[960, 540]",ColorTask,77.0,51.0,,,HRV,HRV_0100,2022-11-30 18:04:33
,wl-rdm,168,443666,0.0-8.51-0.51,1.0,169.0,,,,,,,[],,,,,,73.6,1.0,i,1.0,True,561.8000000119209,34.0,60.0,40.0,False,,346.0264307251489,[],"[960, 540]",ColorTask,78.0,52.0,,,HRV,HRV_0100,2022-11-30 18:04:33
,wl-rdm,169,446065,0.0-8.52-0.52,1.0,170.0,,,,,,,[],,,,,,56.4,1.0,i,1.0,True,997.5999999940395,60.0,60.0,40.0,False,,318.59169083931295,[],"[960, 540]",ColorTask,79.0,53.0,,,HRV,HRV_0100,2022-11-30 18:04:33
,wl-rdm,170,449647,0.0-8.53-0.53,1.0,171.0,,,,,,,[],,,,,,50.0,1.0,u,0.0,False,2151.5,130.0,60.0,40.0,False,,349.25655834393086,[],"[960, 540]",ColorTask,78.0,54.0,,,HRV,HRV_0100,2022-11-30 18:04:33
,wl-rdm,171,451912,0.0-8.54-0.54,1.0,172.0,,,,,,,[],,,,,,73.6,0.0,u,0.0,True,882.9000000059605,53.0,60.0,40.0,False,,314.63904718835556,[],"[960, 540]",ColorTask,79.0,55.0,,,HRV,HRV_0100,2022-11-30 18:04:33
,wl-rdm,172,453845,0.0-8.55-0.55,1.0,173.0,,,,,,,[],,,,,,73.6,1.0,i,1.0,True,570.4000000059605,35.0,60.0,40.0,False,,280.55476584755587,[],"[960, 540]",ColorTask,80.0,56.0,,,HRV,HRV_0100,2022-11-30 18:04:33
,wl-rdm,173,455944,0.0-8.56-0.56,1.0,174.0,,,,,,,[],,,,,,73.6,0.0,u,0.0,True,754.5999999940395,46.0,60.0,40.0,False,,252.87540776514797,[],"[960, 540]",ColorTask,81.0,57.0,,,HRV,HRV_0100,2022-11-30 18:04:33
,wl-rdm,174,458276,0.0-8.57-0.57,1.0,175.0,,,,,,,[],,,,,,62.5,0.0,u,0.0,True,1020.9000000059605,62.0,60.0,40.0,False,,231.33738740414714,[],"[960, 540]",ColorTask,82.0,58.0,,,HRV,HRV_0100,2022-11-30 18:04:33
,wl-rdm,175,460658,0.0-8.58-0.58,1.0,176.0,,,,,,,[],,,,,,50.0,0.0,i,1.0,False,1010.1999999880791,61.0,60.0,40.0,False,,293.4495958655078,[],"[960, 540]",ColorTask,81.0,59.0,,,HRV,HRV_0100,2022-11-30 18:04:33
,wl-rdm,176,463374,0.0-8.59-0.59,1.0,177.0,,,,,,,[],,,,,,56.4,1.0,i,1.0,True,1390.7999999821186,84.0,60.0,40.0,False,,234.23612952772916,[],"[960, 540]",ColorTask,82.0,60.0,,,HRV,HRV_0100,2022-11-30 18:04:33
,wl-rdm,177,465323,0.0-8.60-0.60,1.0,178.0,,,,,,,[],,,,,,73.6,1.0,i,1.0,True,588.0,36.0,60.0,40.0,False,,268.4822494778327,[],"[960, 540]",ColorTask,83.0,61.0,,,HRV,HRV_0100,2022-11-30 18:04:33
,wl-rdm,178,467755,0.0-8.61-0.61,1.0,179.0,,,,,,,[],,,,,,56.4,0.0,u,0.0,True,1087.4000000059605,66.0,60.0,40.0,False,,261.60465142540033,[],"[960, 540]",ColorTask,84.0,62.0,,,HRV,HRV_0100,2022-11-30 18:04:33
,wl-rdm,179,470321,0.0-8.62-0.62,1.0,180.0,,,,,,,[],,,,,,50.0,1.0,i,1.0,True,1124.0999999940395,68.0,60.0,40.0,False,,355.76378725998626,[],"[960, 540]",ColorTask,85.0,63.0,,,HRV,HRV_0100,2022-11-30 18:04:33
,wl-rdm,180,472353,0.0-8.63-0.63,1.0,181.0,,,,,,,[],,,,,,73.6,1.0,i,1.0,True,697.7000000178814,42.0,60.0,40.0,False,,250.61406182287706,[],"[960, 540]",ColorTask,86.0,64.0,,,HRV,HRV_0100,2022-11-30 18:04:33
,wl-rdm,181,474452,0.0-8.64-0.64,1.0,182.0,,,,,,,[],,,,,,73.6,1.0,i,1.0,True,755.6999999880791,46.0,60.0,40.0,False,,255.63652066353515,[],"[960, 540]",ColorTask,87.0,65.0,,,HRV,HRV_0100,2022-11-30 18:04:33
,wl-rdm,182,476535,0.0-8.65-0.65,1.0,183.0,,,,,,,[],,,,,,87.9,1.0,i,1.0,True,713.1000000238419,43.0,60.0,40.0,False,,297.4011205708324,[],"[960, 540]",ColorTask,88.0,66.0,,,HRV,HRV_0100,2022-11-30 18:04:33
,wl-rdm,183,480033,0.0-8.66-0.66,1.0,184.0,,,,,,,[],,,,,,62.5,1.0,i,1.0,True,2206.0,133.0,60.0,40.0,False,,200.6346558670794,[],"[960, 540]",ColorTask,89.0,67.0,,,HRV,HRV_0100,2022-11-30 18:04:33
,wl-rdm,184,483382,0.0-8.67-0.67,1.0,185.0,,,,,,,[],,,,,,53.2,1.0,u,0.0,False,2007.1000000238419,121.0,60.0,40.0,False,,251.03875733261862,[],"[960, 540]",ColorTask,88.0,68.0,,,HRV,HRV_0100,2022-11-30 18:04:33
,wl-rdm,185,486114,0.0-8.68-0.68,1.0,186.0,,,,,,,[],,,,,,53.2,0.0,i,1.0,False,1349.4000000059605,81.0,60.0,40.0,False,,309.49545444792795,[],"[960, 540]",ColorTask,87.0,69.0,,,HRV,HRV_0100,2022-11-30 18:04:33
,wl-rdm,186,488129,0.0-8.69-0.69,1.0,187.0,,,,,,,[],,,,,,87.9,1.0,i,1.0,True,708.3999999761581,43.0,60.0,40.0,False,,220.24548079338118,[],"[960, 540]",ColorTask,88.0,70.0,,,HRV,HRV_0100,2022-11-30 18:04:33
,wl-rdm,187,490728,0.0-8.70-0.70,1.0,188.0,,,,,,,[],,,,,,73.6,0.0,u,0.0,True,1126.5,68.0,60.0,40.0,False,,383.4965911513111,[],"[960, 540]",ColorTask,89.0,71.0,,,HRV,HRV_0100,2022-11-30 18:04:33
,wl-rdm,188,492744,0.0-8.71-0.71,1.0,189.0,,,,,,,[],,,,,,73.6,0.0,u,0.0,True,637.6000000238419,39.0,60.0,40.0,False,,297.4688940366065,[],"[960, 540]",ColorTask,90.0,72.0,,,HRV,HRV_0100,2022-11-30 18:04:33
,wl-rdm,189,495059,0.0-8.72-0.72,1.0,190.0,,,,,,,[],,,,,,62.5,0.0,u,0.0,True,958.7000000178814,58.0,60.0,40.0,False,,281.12633970170566,[],"[960, 540]",ColorTask,91.0,73.0,,,HRV,HRV_0100,2022-11-30 18:04:33
,wl-rdm,190,497475,0.0-8.73-0.73,1.0,191.0,,,,,,,[],,,,,,62.5,0.0,u,0.0,True,1004.3999999761581,61.0,60.0,40.0,False,,320.1621398590818,[],"[960, 540]",ColorTask,92.0,74.0,,,HRV,HRV_0100,2022-11-30 18:04:33
,wl-rdm,191,499524,0.0-8.74-0.74,1.0,192.0,,,,,,,[],,,,,,87.9,0.0,u,0.0,True,730.0,44.0,60.0,40.0,False,,233.60735477494035,[],"[960, 540]",ColorTask,93.0,75.0,,,HRV,HRV_0100,2022-11-30 18:04:33
,wl-rdm,192,501473,0.0-8.75-0.75,1.0,193.0,,,,,,,[],,,,,,87.9,0.0,u,0.0,True,571.7000000178814,35.0,60.0,40.0,False,,298.1795675990974,[],"[960, 540]",ColorTask,94.0,76.0,,,HRV,HRV_0100,2022-11-30 18:04:33
,wl-rdm,193,503922,0.0-8.76-0.76,1.0,194.0,,,,,,,[],,,,,,62.5,0.0,u,0.0,True,1122.5999999940395,68.0,60.0,40.0,False,,244.7825009818894,[],"[960, 540]",ColorTask,95.0,77.0,,,HRV,HRV_0100,2022-11-30 18:04:33
,wl-rdm,194,506088,0.0-8.77-0.77,1.0,195.0,,,,,,,[],,,,,,53.2,1.0,i,1.0,True,845.1999999880791,51.0,60.0,40.0,False,,248.21676271411084,[],"[960, 540]",ColorTask,96.0,78.0,,,HRV,HRV_0100,2022-11-30 18:04:33
,wl-rdm,195,508886,0.0-8.78-0.78,1.0,196.0,,,,,,,[],,,,,,50.0,0.0,i,1.0,False,1413.0,85.0,60.0,40.0,False,,301.78167046352985,[],"[960, 540]",ColorTask,95.0,79.0,,,HRV,HRV_0100,2022-11-30 18:04:33
,wl-rdm,196,511718,0.0-8.79-0.79,1.0,197.0,,,,,,,[],,,,,,53.2,1.0,i,1.0,True,1383.7000000178814,84.0,60.0,40.0,False,,355.4506545159355,[],"[960, 540]",ColorTask,96.0,80.0,,,HRV,HRV_0100,2022-11-30 18:04:33
,wl-rdm,197,514617,0.0-8.80-0.80,1.0,198.0,,,,,,,[],,,,,,62.5,1.0,i,1.0,True,1418.9000000059605,86.0,60.0,40.0,False,,387.07978306762277,[],"[960, 540]",ColorTask,97.0,81.0,,,HRV,HRV_0100,2022-11-30 18:04:33
,wl-rdm,198,516799,0.0-8.81-0.81,1.0,199.0,,,,,,,[],,,,,,87.9,0.0,u,0.0,True,726.5999999940395,44.0,60.0,40.0,False,,376.5972473214479,[],"[960, 540]",ColorTask,98.0,82.0,,,HRV,HRV_0100,2022-11-30 18:04:33
,wl-rdm,199,518682,0.0-8.82-0.82,1.0,200.0,,,,,,,[],,,,,,87.9,0.0,u,0.0,True,539.0,33.0,60.0,40.0,False,,263.29620671108506,[],"[960, 540]",ColorTask,99.0,83.0,,,HRV,HRV_0100,2022-11-30 18:04:33
,wl-rdm,200,521697,0.0-8.83-0.83,1.0,201.0,,,,,,,[],,,,,,56.4,1.0,i,1.0,True,1661.4000000059605,100.0,60.0,40.0,False,,272.5971361715149,[],"[960, 540]",ColorTask,100.0,84.0,,,HRV,HRV_0100,2022-11-30 18:04:33
,wl-rdm,201,524246,0.0-8.84-0.84,1.0,202.0,,,,,,,[],,,,,,56.4,1.0,i,1.0,True,1154.5,70.0,60.0,40.0,False,,304.9873678562755,[],"[960, 540]",ColorTask,101.0,85.0,,,HRV,HRV_0100,2022-11-30 18:04:33
,wl-rdm,202,527495,0.0-8.85-0.85,1.0,203.0,,,,,,,[],,,,,,62.5,0.0,u,0.0,True,1879.8999999761581,113.0,60.0,40.0,False,,283.3518706520389,[],"[960, 540]",ColorTask,102.0,86.0,,,HRV,HRV_0100,2022-11-30 18:04:33
,wl-rdm,203,530393,0.0-8.86-0.86,1.0,204.0,,,,,,,[],,,,,,50.0,0.0,i,1.0,False,1505.9000000059605,91.0,60.0,40.0,False,,300.1008365723424,[],"[960, 540]",ColorTask,101.0,87.0,,,HRV,HRV_0100,2022-11-30 18:04:33
,wl-rdm,204,532376,0.0-8.87-0.87,1.0,205.0,,,,,,,[],,,,,,73.6,1.0,u,0.0,False,595.1000000238419,36.0,60.0,40.0,False,,315.5625420105348,[],"[960, 540]",ColorTask,100.0,88.0,,,HRV,HRV_0100,2022-11-30 18:04:33
,wl-rdm,205,536557,0.0-8.88-0.88,1.0,206.0,,,,,,,[],,,,,,56.4,0.0,i,1.0,False,2825.5,170.0,60.0,40.0,False,,280.10847050301226,[],"[960, 540]",ColorTask,99.0,89.0,,,HRV,HRV_0100,2022-11-30 18:04:33
,wl-rdm,206,539206,0.0-8.89-0.89,1.0,207.0,,,,,,,[],,,,,,53.2,0.0,i,1.0,False,1358.2000000178814,82.0,60.0,40.0,False,,221.94669284711102,[],"[960, 540]",ColorTask,98.0,90.0,,,HRV,HRV_0100,2022-11-30 18:04:33
,wl-rdm,207,541655,0.0-8.90-0.90,1.0,208.0,,,,,,,[],,,,,,62.5,0.0,u,0.0,True,1081.0,65.0,60.0,40.0,False,,298.8378206351945,[],"[960, 540]",ColorTask,99.0,91.0,,,HRV,HRV_0100,2022-11-30 18:04:33
,wl-rdm,208,544403,0.0-8.91-0.91,1.0,209.0,,,,,,,[],,,,,,62.5,1.0,i,1.0,True,1421.7999999821186,86.0,60.0,40.0,False,,245.3328978745892,[],"[960, 540]",ColorTask,100.0,92.0,,,HRV,HRV_0100,2022-11-30 18:04:33
,wl-rdm,209,546853,0.0-8.92-0.92,1.0,210.0,,,,,,,[],,,,,,56.4,0.0,u,0.0,True,1166.0999999940395,70.0,60.0,40.0,False,,214.436479190635,[],"[960, 540]",ColorTask,101.0,93.0,,,HRV,HRV_0100,2022-11-30 18:04:33
,wl-rdm,210,549285,0.0-8.93-0.93,1.0,211.0,,,,,,,[],,,,,,50.0,1.0,i,1.0,True,1064.5999999940395,64.0,60.0,40.0,False,,293.9878584003523,[],"[960, 540]",ColorTask,102.0,94.0,,,HRV,HRV_0100,2022-11-30 18:04:33
,wl-rdm,211,552183,0.0-8.94-0.94,1.0,212.0,,,,,,,[],,,,,,53.2,0.0,i,1.0,False,1421.199999988079,86.0,60.0,40.0,False,,393.93645151251656,[],"[960, 540]",ColorTask,101.0,95.0,,,HRV,HRV_0100,2022-11-30 18:04:33
,wl-rdm,212,554865,0.0-8.95-0.95,1.0,213.0,,,,,,,[],,,,,,53.2,1.0,i,1.0,True,1312.4000000059605,79.0,60.0,40.0,False,,288.58128915150246,[],"[960, 540]",ColorTask,102.0,96.0,,,HRV,HRV_0100,2022-11-30 18:04:33
,wl-rdm,213,557364,0.0-8.96-0.96,1.0,214.0,,,,,,,[],,,,,,56.4,0.0,u,0.0,True,1214.5999999940395,73.0,60.0,40.0,False,,200.91627351748735,[],"[960, 540]",ColorTask,103.0,97.0,,,HRV,HRV_0100,2022-11-30 18:04:33
,wl-rdm,214,559713,0.0-8.97-0.97,1.0,215.0,,,,,,,[],,,,,,62.5,1.0,i,1.0,True,997.9000000059605,60.0,60.0,40.0,False,,268.54361807565306,[],"[960, 540]",ColorTask,104.0,98.0,,,HRV,HRV_0100,2022-11-30 18:04:33
,wl-rdm,215,562228,0.0-8.98-0.98,1.0,216.0,,,,,,,[],,,,,,50.0,1.0,i,1.0,True,1092.7000000178814,66.0,60.0,40.0,False,,339.6039939064617,[],"[960, 540]",ColorTask,105.0,99.0,,,HRV,HRV_0100,2022-11-30 18:04:33
,wl-rdm,216,564228,0.0-8.99-0.99,1.0,217.0,,,,,,,[],,,,,,87.9,1.0,i,1.0,True,692.5,42.0,60.0,40.0,False,,223.50028637561033,[],"[960, 540]",ColorTask,106.0,100.0,,,HRV,HRV_0100,2022-11-30 18:04:33
,wl-rdm,217,568009,0.0-8.100-0.100,1.0,218.0,,,,,,,[],,,,,,50.0,0.0,i,1.0,False,2474.5,149.0,60.0,40.0,False,,232.89617955313665,[],"[960, 540]",ColorTask,105.0,101.0,,,HRV,HRV_0100,2022-11-30 18:04:33
,wl-rdm,218,571225,0.0-8.101-0.101,1.0,219.0,,,,,,,[],,,,,,53.2,0.0,u,0.0,True,1863.199999988079,112.0,60.0,40.0,False,,267.8252594040009,[],"[960, 540]",ColorTask,106.0,102.0,,,HRV,HRV_0100,2022-11-30 18:04:33
,wl-rdm,219,573474,0.0-8.102-0.102,1.0,220.0,,,,,,,[],,,,,,50.0,0.0,i,1.0,False,888.4000000059605,54.0,60.0,40.0,False,,274.7794776042165,[],"[960, 540]",ColorTask,105.0,103.0,,,HRV,HRV_0100,2022-11-30 18:04:33
,wl-rdm,220,575339,0.0-8.103-0.103,1.0,221.0,,,,,,,[],,,,,,87.9,1.0,i,1.0,True,575.8000000119209,35.0,60.0,40.0,False,,210.27058678130396,[],"[960, 540]",ColorTask,106.0,104.0,,,HRV,HRV_0100,2022-11-30 18:04:33
,wl-rdm,221,577388,0.0-8.104-0.104,1.0,222.0,,,,,,,[],,,,,,87.9,1.0,i,1.0,True,608.3000000119209,37.0,60.0,40.0,False,,362.3091150967932,[],"[960, 540]",ColorTask,107.0,105.0,,,HRV,HRV_0100,2022-11-30 18:04:33
,wl-rdm,222,579621,0.0-8.105-0.105,1.0,223.0,,,,,,,[],,,,,,56.4,1.0,i,1.0,True,940.1999999880791,57.0,60.0,40.0,False,,201.91627233742955,[],"[960, 540]",ColorTask,108.0,106.0,,,HRV,HRV_0100,2022-11-30 18:04:33
,wl-rdm,223,582319,0.0-8.106-0.106,1.0,224.0,,,,,,,[],,,,,,50.0,0.0,i,1.0,False,1369.0999999940395,83.0,60.0,40.0,False,,251.75004514384852,[],"[960, 540]",ColorTask,107.0,107.0,,,HRV,HRV_0100,2022-11-30 18:04:33
,wl-rdm,224,584435,0.0-8.107-0.107,1.0,225.0,,,,,,,[],,,,,,87.9,1.0,i,1.0,True,796.0,48.0,60.0,40.0,False,,242.54621716219722,[],"[960, 540]",ColorTask,108.0,108.0,,,HRV,HRV_0100,2022-11-30 18:04:33
,wl-html-button-response,225,587023,0.0-9.0-0.0,,,,,,,,,,2586.2999999821186,,0,,,,,,,,,,,,,,,,,,,,<h3>End of this session. Thank you!</h3><br>,['Close window'],HRV,HRV_0100,2022-11-30 18:04:33
