success,trial_type,trial_index,time_elapsed,internal_node_id,Block,TrialNumber,TrialTime,trialTimeDiff,FPS_avg,FPS_med,FPS_mode,TrialDur,winResizeTime,rt,block,button_pressed,MotCoh,MotDir,ColCoh,Color,ChoiceKey,Choice,Accuracy,RT,nFrames,FPS,PPD,missTrial,missTrialMsg,onsetDelay,fullScreenExitTime,canvCenter,TrialType,Score,BlockTrial,stimulus,button_labels,exp,subjectId,date
True,fullscreen,0,2611,0.0-0.0,0.0,1.0,,,,,,,,,,,,,,,,,,,,,,,,,,,,,,,,HRV,HRV_0269,2022-11-30 20:20:59
,wl-check-fps,1,7645,0.0-1.0,0.0,2.0,"[3251.8, 3260.7, 3277, 3295.8, 3310.4, 3327.2, 3343.9, 3363.3, 3396.4, 3431.1, 3446.6, 3463.8, 3478.8, 3495.2, 3512, 3528.4, 3545.1, 3562.1, 3578.7, 3595.1, 3612, 3628.4, 3645.3, 3662.1, 3678.3, 3695.4, 3713, 3728.5, 3745.4, 3762.4, 3778.6, 3795.3, 3812.1, 3828.5, 3845.5, 3861.7, 3878.6, 3895.4, 3912, 3929, 3945.7, 3961.9, 3978.7, 3995.6, 4012.1, 4028.7, 4045.1, 4062, 4078.7, 4095.2, 4112.1, 4128.6, 4145.1, 4162.1, 4178.3, 4195.3, 4212, 4228.4, 4245.3, 4262.1, 4278.6, 4295.4, 4312.1, 4328.6, 4345.5, 4361.9, 4378.6, 4395.5, 4411.7, 4428.6, 4445.4, 4461.7, 4478.8, 4496.1, 4512, 4528.7, 4545, 4562, 4578.8, 4595.1, 4612.1, 4628.8, 4645.2, 4662, 4678.5, 4695.3, 4712.1, 4728.6, 4745.3, 4762.1, 4778.6, 4795.4, 4811.9, 4828.6, 4845.3, 4862.1, 4878.6, 4895.4, 4912.6, 4928.7, 4947.5, 4981.7, 4982.4, 4995.1, 5023.1, 5028.5, 5044.1, 5060.4, 5077.1, 5094.1, 5110.4, 5127.1, 5144.1, 5160.5, 5177.2, 5194.1, 5210.5, 5227.1, 5244.1, 5260.4, 5277.2, 5294, 5310.6, 5327.4, 5343.8, 5360.7, 5377.2, 5393.8, 5410.4, 5427.4, 5443.8, 5460.5, 5477.4, 5494, 5510.8, 5527.6, 5543.9, 5560.6, 5577.2, 5593.8, 5611.3, 5627.2, 5643.8, 5661, 5677.2, 5693.8, 5710.5, 5727.1, 5743.9, 5760.6, 5777.2, 5793.8, 5810.6, 5827.3, 5843.8, 5860.7, 5877.2, 5894, 5910.5, 5927.2, 5944.1, 5960.4, 5977.1, 5994, 6010.7, 6027.4, 6043.9, 6060.7, 6077.3, 6093.9, 6110.7, 6127.2, 6143.8, 6160.8, 6177.2, 6194, 6210.8, 6227.3, 6243.9, 6260.6, 6277.4, 6293.9, 6310.8, 6327.3, 6344, 6360.7, 6377.3, 6394, 6410.5, 6427.5, 6444.1, 6460.6, 6477.2, 6494.1, 6510.7, 6527.5, 6543.8, 6560.6, 6577.2, 6593.9, 6610.6, 6627.5, 6643.8, 6661, 6677.7, 6694, 6710.7, 6727.2, 6745, 6760.5, 6777.3, 6793.9, 6811, 6827.2, 6844.1, 6861, 6877.8, 6896.2, 6910.5, 6928, 6946.4, 6961.6, 6977.3, 6994.2, 7010.5, 7027.5, 7044.3, 7060.5, 7077.8, 7094.1, 7110.5, 7127.8, 7144.6, 7160.7, 7177.5, 7195.7, 7210.6, 7227.3, 7245.2, 7261, 7277.4, 7294.3, 7310.9, 7327.3, 7344.2, 7361, 7377.3, 7394.2, 7411.2, 7427.5, 7444.2, 7461, 7477.4, 7494.2, 7511.1, 7527.5, 7544.3, 7560.7, 7577.4, 7594.6, 7610.8, 7628.9, 7645.7, 7662, 7678.9, 7695.8, 7712, 7728.9, 7745.8, 7762.1, 7778.9, 7795.4, 7812.2, 7829.4, 7845.6, 7862.2, 7879, 7895.3, 7912.8, 7928.8, 7947, 7962.6, 7979.3, 7996, 8012.2, 8028.9, 8046, 8062.7, 8079, 8095.9, 8112.3, 8128.9, 8145.8, 8162.4, 8178.9, 8195.9, 8212.3, 8253.3, 8255.7, 8262.5]","[2.1, 8.9, 16.3, 18.8, 14.6, 16.8, 16.7, 19.4, 33.1, 34.7, 15.5, 17.2, 15, 16.4, 16.8, 16.4, 16.7, 17, 16.6, 16.4, 16.9, 16.4, 16.9, 16.8, 16.2, 17.1, 17.6, 15.5, 16.9, 17, 16.2, 16.7, 16.8, 16.4, 17, 16.2, 16.9, 16.8, 16.6, 17, 16.7, 16.2, 16.8, 16.9, 16.5, 16.6, 16.4, 16.9, 16.7, 16.5, 16.9, 16.5, 16.5, 17, 16.2, 17, 16.7, 16.4, 16.9, 16.8, 16.5, 16.8, 16.7, 16.5, 16.9, 16.4, 16.7, 16.9, 16.2, 16.9, 16.8, 16.3, 17.1, 17.3, 15.9, 16.7, 16.3, 17, 16.8, 16.3, 17, 16.7, 16.4, 16.8, 16.5, 16.8, 16.8, 16.5, 16.7, 16.8, 16.5, 16.8, 16.5, 16.7, 16.7, 16.8, 16.5, 16.8, 17.2, 16.1, 18.8, 34.2, 0.7, 12.7, 28, 5.4, 15.6, 16.3, 16.7, 17, 16.3, 16.7, 17, 16.4, 16.7, 16.9, 16.4, 16.6, 17, 16.3, 16.8, 16.8, 16.6, 16.8, 16.4, 16.9, 16.5, 16.6, 16.6, 17, 16.4, 16.7, 16.9, 16.6, 16.8, 16.8, 16.3, 16.7, 16.6, 16.6, 17.5, 15.9, 16.6, 17.2, 16.2, 16.6, 16.7, 16.6, 16.8, 16.7, 16.6, 16.6, 16.8, 16.7, 16.5, 16.9, 16.5, 16.8, 16.5, 16.7, 16.9, 16.3, 16.7, 16.9, 16.7, 16.7, 16.5, 16.8, 16.6, 16.6, 16.8, 16.5, 16.6, 17, 16.4, 16.8, 16.8, 16.5, 16.6, 16.7, 16.8, 16.5, 16.9, 16.5, 16.7, 16.7, 16.6, 16.7, 16.5, 17, 16.6, 16.5, 16.6, 16.9, 16.6, 16.8, 16.3, 16.8, 16.6, 16.7, 16.7, 16.9, 16.3, 17.2, 16.7, 16.3, 16.7, 16.5, 17.8, 15.5, 16.8, 16.6, 17.1, 16.2, 16.9, 16.9, 16.8, 18.4, 14.3, 17.5, 18.4, 15.2, 15.7, 16.9, 16.3, 17, 16.8, 16.2, 17.3, 16.3, 16.4, 17.3, 16.8, 16.1, 16.8, 18.2, 14.9, 16.7, 17.9, 15.8, 16.4, 16.9, 16.6, 16.4, 16.9, 16.8, 16.3, 16.9, 17, 16.3, 16.7, 16.8, 16.4, 16.8, 16.9, 16.4, 16.8, 16.4, 16.7, 17.2, 16.2, 18.1, 16.8, 16.3, 16.9, 16.9, 16.2, 16.9, 16.9, 16.3, 16.8, 16.5, 16.8, 17.2, 16.2, 16.6, 16.8, 16.3, 17.5, 16, 18.2, 15.6, 16.7, 16.7, 16.2, 16.7, 17.1, 16.7, 16.3, 16.9, 16.4, 16.6, 16.9, 16.6, 16.5, 17, 16.4, 41, 2.4, 6.8]",60.0,60.0,60.0,5029.8,[],,,,,,,,,,,,,,,,,,,,,,,,,HRV,HRV_0269,2022-11-30 20:20:59
,wl-html-keyboard-response,2,28219,0.0-2.0-0.0,0.0,3.0,,,,,,,,18558.5,0.0,0,,,,,,,,,,,,,,,,,,,,,,HRV,HRV_0269,2022-11-30 20:20:59
,wl-rdm,3,35042,0.0-3.0-0.0,0.0,4.0,,,,,,,[],,,,0.0,0.0,87.9,0.0,u,0.0,True,1248.7999999523163,75.0,60.0,40.0,False,,3000.0,[],"[960, 540]",ColorTask_Demo,,,,,HRV,HRV_0269,2022-11-30 20:20:59
,wl-rdm,4,39925,0.0-3.0-1.0,0.0,5.0,,,,,,,[],,,,0.0,0.0,87.9,1.0,i,1.0,True,791.5,48.0,60.0,40.0,False,,2000.0,[],"[960, 540]",ColorTask_Demo,,,,,HRV,HRV_0269,2022-11-30 20:20:59
,wl-html-keyboard-response,5,51615,0.0-3.0-2.0,0.0,6.0,,,,,,,,9671.399999976158,0.0,1,,,,,,,,,,,,,,,,,,,,,,HRV,HRV_0269,2022-11-30 20:20:59
,wl-html-keyboard-response,6,68348,0.0-4.0-0.0,0.0,7.0,,,,,,,,14725.899999976158,0.0,0,,,,,,,,,,,,,,,,,,,,,,HRV,HRV_0269,2022-11-30 20:20:59
,wl-html-keyboard-response,7,92899,0.0-5.0-0.0,0.0,8.0,,,,,,,,22542.900000095367,0.0,0,,,,,,,,,,,,,,,,,,,,,,HRV,HRV_0269,2022-11-30 20:20:59
,wl-rdm,8,95344,0.0-6.0-0.0,0.0,9.0,,,,,,,[],,,,,,56.4,0.0,u,0.0,True,1154.1000000238419,70.0,60.0,40.0,False,,222.89331982591153,[],"[960, 540]",ColorTask,1.0,1.0,,,HRV,HRV_0269,2022-11-30 20:20:59
,wl-rdm,9,97495,0.0-6.1-0.1,0.0,10.0,,,,,,,[],,,,,,87.9,1.0,i,1.0,True,732.0,44.0,60.0,40.0,False,,346.89533098905974,[],"[960, 540]",ColorTask,2.0,2.0,,,HRV,HRV_0269,2022-11-30 20:20:59
,wl-rdm,10,99995,0.0-6.2-0.2,0.0,11.0,,,,,,,[],,,,,,56.4,0.0,i,1.0,False,1168.4999998807907,71.0,60.0,40.0,False,,254.3629869088624,[],"[960, 540]",ColorTask,1.0,3.0,,,HRV,HRV_0269,2022-11-30 20:20:59
,wl-rdm,11,102078,0.0-6.3-0.3,0.0,12.0,,,,,,,[],,,,,,62.5,0.0,u,0.0,True,765.5000001192093,46.0,60.0,40.0,False,,233.73087113130424,[],"[960, 540]",ColorTask,2.0,4.0,,,HRV,HRV_0269,2022-11-30 20:20:59
,wl-rdm,12,104162,0.0-6.4-0.4,0.0,13.0,,,,,,,[],,,,,,87.9,0.0,u,0.0,True,678.6000000238419,40.0,60.0,40.0,False,,320.01756999214655,[],"[960, 540]",ColorTask,3.0,5.0,,,HRV,HRV_0269,2022-11-30 20:20:59
,wl-rdm,13,106078,0.0-6.5-0.5,0.0,14.0,,,,,,,[],,,,,,87.9,1.0,i,1.0,True,615.0,37.0,60.0,40.0,False,,224.60941509780284,[],"[960, 540]",ColorTask,4.0,6.0,,,HRV,HRV_0269,2022-11-30 20:20:59
,wl-rdm,14,108095,0.0-6.6-0.6,0.0,15.0,,,,,,,[],,,,,,73.6,0.0,u,0.0,True,614.2999999523163,37.0,60.0,40.0,False,,320.81953641443306,[],"[960, 540]",ColorTask,5.0,7.0,,,HRV,HRV_0269,2022-11-30 20:20:59
,wl-rdm,15,110262,0.0-6.7-0.7,0.0,16.0,,,,,,,[],,,,,,62.5,0.0,u,0.0,True,781.7999999523163,47.0,60.0,40.0,False,,331.5896692590221,[],"[960, 540]",ColorTask,6.0,8.0,,,HRV,HRV_0269,2022-11-30 20:20:59
,wl-rdm,16,112245,0.0-6.8-0.8,0.0,17.0,,,,,,,[],,,,,,56.4,0.0,u,0.0,True,635.3000000715256,39.0,60.0,40.0,False,,259.27454847050745,[],"[960, 540]",ColorTask,7.0,9.0,,,HRV,HRV_0269,2022-11-30 20:20:59
,wl-rdm,17,114795,0.0-6.9-0.9,0.0,18.0,,,,,,,[],,,,,,53.2,1.0,i,1.0,True,1218.7000000476837,73.0,60.0,40.0,False,,240.86605114466363,[],"[960, 540]",ColorTask,8.0,10.0,,,HRV,HRV_0269,2022-11-30 20:20:59
,wl-rdm,18,116712,0.0-6.10-0.10,0.0,19.0,,,,,,,[],,,,,,73.6,1.0,i,1.0,True,621.8999999761581,38.0,60.0,40.0,False,,209.11121253705443,[],"[960, 540]",ColorTask,9.0,11.0,,,HRV,HRV_0269,2022-11-30 20:20:59
,wl-rdm,19,118612,0.0-6.11-0.11,0.0,20.0,,,,,,,[],,,,,,87.9,1.0,i,1.0,True,617.7999999523163,38.0,60.0,40.0,False,,200.17812227877283,[],"[960, 540]",ColorTask,10.0,12.0,,,HRV,HRV_0269,2022-11-30 20:20:59
,wl-rdm,20,120562,0.0-6.12-0.12,0.0,21.0,,,,,,,[],,,,,,53.2,0.0,i,1.0,False,611.0,37.0,60.0,40.0,False,,257.5356093510531,[],"[960, 540]",ColorTask,9.0,13.0,,,HRV,HRV_0269,2022-11-30 20:20:59
,wl-rdm,21,122562,0.0-6.13-0.13,0.0,22.0,,,,,,,[],,,,,,87.9,0.0,i,1.0,False,678.1000000238419,41.0,60.0,40.0,False,,233.96759147539595,[],"[960, 540]",ColorTask,8.0,14.0,,,HRV,HRV_0269,2022-11-30 20:20:59
,wl-rdm,22,125146,0.0-6.14-0.14,0.0,23.0,,,,,,,[],,,,,,73.6,0.0,u,0.0,True,1136.5,69.0,60.0,40.0,False,,381.2405868773238,[],"[960, 540]",ColorTask,9.0,15.0,,,HRV,HRV_0269,2022-11-30 20:20:59
,wl-rdm,23,127512,0.0-6.15-0.15,0.0,24.0,,,,,,,[],,,,,,50.0,1.0,u,0.0,False,996.2000000476837,60.0,60.0,40.0,False,,289.8844204842632,[],"[960, 540]",ColorTask,8.0,16.0,,,HRV,HRV_0269,2022-11-30 20:20:59
,wl-rdm,24,129746,0.0-6.16-0.16,0.0,25.0,,,,,,,[],,,,,,53.2,1.0,i,1.0,True,762.0,46.0,60.0,40.0,False,,396.7690974611125,[],"[960, 540]",ColorTask,9.0,17.0,,,HRV,HRV_0269,2022-11-30 20:20:59
,wl-rdm,25,132313,0.0-6.17-0.17,0.0,26.0,,,,,,,[],,,,,,53.2,1.0,i,1.0,True,1262.3999999761581,76.0,60.0,40.0,False,,219.40862199156837,[],"[960, 540]",ColorTask,10.0,18.0,,,HRV,HRV_0269,2022-11-30 20:20:59
,wl-rdm,26,134596,0.0-6.18-0.18,0.0,27.0,,,,,,,[],,,,,,50.0,1.0,i,1.0,True,819.1000000238419,50.0,60.0,40.0,False,,375.1145456469674,[],"[960, 540]",ColorTask,11.0,19.0,,,HRV,HRV_0269,2022-11-30 20:20:59
,wl-rdm,27,136729,0.0-6.19-0.19,0.0,28.0,,,,,,,[],,,,,,62.5,1.0,i,1.0,True,786.2999999523163,48.0,60.0,40.0,False,,279.2825791574988,[],"[960, 540]",ColorTask,12.0,20.0,,,HRV,HRV_0269,2022-11-30 20:20:59
,wl-rdm,28,139179,0.0-6.20-0.20,0.0,29.0,,,,,,,[],,,,,,56.4,1.0,i,1.0,True,1025.4000000953674,61.0,60.0,40.0,False,,362.97066666017463,[],"[960, 540]",ColorTask,13.0,21.0,,,HRV,HRV_0269,2022-11-30 20:20:59
,wl-rdm,29,141546,0.0-6.21-0.21,0.0,30.0,,,,,,,[],,,,,,62.5,1.0,i,1.0,True,977.7000000476837,59.0,60.0,40.0,False,,303.3658093476421,[],"[960, 540]",ColorTask,14.0,22.0,,,HRV,HRV_0269,2022-11-30 20:20:59
,wl-rdm,30,143597,0.0-6.22-0.22,0.0,31.0,,,,,,,[],,,,,,56.4,1.0,i,1.0,True,670.5,42.0,60.0,40.0,False,,283.60381400295114,[],"[960, 540]",ColorTask,15.0,23.0,,,HRV,HRV_0269,2022-11-30 20:20:59
,wl-rdm,31,145830,0.0-6.23-0.23,0.0,32.0,,,,,,,[],,,,,,50.0,0.0,i,1.0,False,840.2000000476837,51.0,60.0,40.0,False,,317.20153432146736,[],"[960, 540]",ColorTask,14.0,24.0,,,HRV,HRV_0269,2022-11-30 20:20:59
,wl-rdm,32,147963,0.0-6.24-0.24,0.0,33.0,,,,,,,[],,,,,,62.5,0.0,u,0.0,True,793.3999999761581,48.0,60.0,40.0,False,,261.27395614110253,[],"[960, 540]",ColorTask,15.0,25.0,,,HRV,HRV_0269,2022-11-30 20:20:59
,wl-rdm,33,150097,0.0-6.25-0.25,0.0,34.0,,,,,,,[],,,,,,62.5,0.0,u,0.0,True,778.7000000476837,47.0,60.0,40.0,False,,289.71026357799775,[],"[960, 540]",ColorTask,16.0,26.0,,,HRV,HRV_0269,2022-11-30 20:20:59
,wl-rdm,34,152281,0.0-6.26-0.26,0.0,35.0,,,,,,,[],,,,,,53.2,1.0,i,1.0,True,888.1000000238419,54.0,60.0,40.0,False,,219.97889909278857,[],"[960, 540]",ColorTask,17.0,27.0,,,HRV,HRV_0269,2022-11-30 20:20:59
,wl-rdm,35,154365,0.0-6.27-0.27,0.0,36.0,,,,,,,[],,,,,,56.4,0.0,i,1.0,False,658.6000000238419,40.0,60.0,40.0,False,,362.48630261046094,[],"[960, 540]",ColorTask,16.0,28.0,,,HRV,HRV_0269,2022-11-30 20:20:59
,wl-rdm,36,156451,0.0-6.28-0.28,0.0,37.0,,,,,,,[],,,,,,73.6,0.0,u,0.0,True,655.7000000476837,40.0,60.0,40.0,False,,337.49239307866884,[],"[960, 540]",ColorTask,17.0,29.0,,,HRV,HRV_0269,2022-11-30 20:20:59
,wl-rdm,37,158598,0.0-6.29-0.29,0.0,38.0,,,,,,,[],,,,,,62.5,0.0,u,0.0,True,682.7999999523163,41.0,60.0,40.0,False,,389.5997969979851,[],"[960, 540]",ColorTask,18.0,30.0,,,HRV,HRV_0269,2022-11-30 20:20:59
,wl-rdm,38,160764,0.0-6.30-0.30,0.0,39.0,,,,,,,[],,,,,,62.5,1.0,i,1.0,True,752.1000000238419,46.0,60.0,40.0,False,,329.3065737438967,[],"[960, 540]",ColorTask,19.0,31.0,,,HRV,HRV_0269,2022-11-30 20:20:59
,wl-rdm,39,162765,0.0-6.31-0.31,0.0,40.0,,,,,,,[],,,,,,87.9,1.0,i,1.0,True,635.2999999523163,39.0,60.0,40.0,False,,293.85909092529147,[],"[960, 540]",ColorTask,20.0,32.0,,,HRV,HRV_0269,2022-11-30 20:20:59
,wl-rdm,40,164798,0.0-6.32-0.32,0.0,41.0,,,,,,,[],,,,,,73.6,1.0,i,1.0,True,748.1999999284744,45.0,60.0,40.0,False,,222.54099178203387,[],"[960, 540]",ColorTask,21.0,33.0,,,HRV,HRV_0269,2022-11-30 20:20:59
,wl-rdm,41,166881,0.0-6.33-0.33,0.0,42.0,,,,,,,[],,,,,,62.5,1.0,i,1.0,True,729.6000000238419,44.0,60.0,40.0,False,,270.86640221769574,[],"[960, 540]",ColorTask,22.0,34.0,,,HRV,HRV_0269,2022-11-30 20:20:59
,wl-rdm,42,168898,0.0-6.34-0.34,0.0,43.0,,,,,,,[],,,,,,62.5,0.0,u,0.0,True,727.6999998092651,44.0,60.0,40.0,False,,227.54314619600058,[],"[960, 540]",ColorTask,23.0,35.0,,,HRV,HRV_0269,2022-11-30 20:20:59
,wl-rdm,43,171165,0.0-6.35-0.35,0.0,44.0,,,,,,,[],,,,,,50.0,0.0,i,1.0,False,951.9000000953674,58.0,60.0,40.0,False,,220.46025314376283,[],"[960, 540]",ColorTask,22.0,36.0,,,HRV,HRV_0269,2022-11-30 20:20:59
,wl-rdm,44,173698,0.0-6.36-0.36,0.0,45.0,,,,,,,[],,,,,,50.0,0.0,i,1.0,False,1220.0,74.0,60.0,40.0,False,,209.57805602134005,[],"[960, 540]",ColorTask,21.0,37.0,,,HRV,HRV_0269,2022-11-30 20:20:59
,wl-rdm,45,175815,0.0-6.37-0.37,0.0,46.0,,,,,,,[],,,,,,87.9,1.0,i,1.0,True,798.3000000715256,48.0,60.0,40.0,False,,245.113513392442,[],"[960, 540]",ColorTask,22.0,38.0,,,HRV,HRV_0269,2022-11-30 20:20:59
,wl-rdm,46,177815,0.0-6.38-0.38,0.0,47.0,,,,,,,[],,,,,,87.9,0.0,u,0.0,True,673.7000000476837,41.0,60.0,40.0,False,,248.22585073681597,[],"[960, 540]",ColorTask,23.0,39.0,,,HRV,HRV_0269,2022-11-30 20:20:59
,wl-rdm,47,180698,0.0-6.39-0.39,0.0,48.0,,,,,,,[],,,,,,53.2,0.0,i,1.0,False,1586.1000000238419,96.0,60.0,40.0,False,,221.11784693734623,[],"[960, 540]",ColorTask,22.0,40.0,,,HRV,HRV_0269,2022-11-30 20:20:59
,wl-rdm,48,182915,0.0-6.40-0.40,0.0,49.0,,,,,,,[],,,,,,73.6,1.0,i,1.0,True,935.2000000476837,55.0,60.0,40.0,False,,201.87156299357358,[],"[960, 540]",ColorTask,23.0,41.0,,,HRV,HRV_0269,2022-11-30 20:20:59
,wl-rdm,49,184882,0.0-6.41-0.41,0.0,50.0,,,,,,,[],,,,,,87.9,1.0,i,1.0,True,654.8000000715256,39.0,60.0,40.0,False,,229.74391695281471,[],"[960, 540]",ColorTask,24.0,42.0,,,HRV,HRV_0269,2022-11-30 20:20:59
,wl-rdm,50,187949,0.0-6.42-0.42,0.0,51.0,,,,,,,[],,,,,,56.4,1.0,i,1.0,True,1717.8999999761581,104.0,60.0,40.0,False,,282.0002632020953,[],"[960, 540]",ColorTask,25.0,43.0,,,HRV,HRV_0269,2022-11-30 20:20:59
,wl-rdm,51,191615,0.0-6.43-0.43,0.0,52.0,,,,,,,[],,,,,,50.0,1.0,u,0.0,False,2306.2999999523163,139.0,60.0,40.0,False,,279.40656012643905,[],"[960, 540]",ColorTask,24.0,44.0,,,HRV,HRV_0269,2022-11-30 20:20:59
,wl-rdm,52,194649,0.0-6.44-0.44,0.0,53.0,,,,,,,[],,,,,,56.4,1.0,i,1.0,True,1587.0,96.0,60.0,40.0,False,,371.7367191654248,[],"[960, 540]",ColorTask,25.0,45.0,,,HRV,HRV_0269,2022-11-30 20:20:59
,wl-rdm,53,197166,0.0-6.45-0.45,0.0,54.0,,,,,,,[],,,,,,50.0,0.0,i,1.0,False,1132.1000000238419,68.0,60.0,40.0,False,,320.8861241608189,[],"[960, 540]",ColorTask,24.0,46.0,,,HRV,HRV_0269,2022-11-30 20:20:59
,wl-rdm,54,200016,0.0-6.46-0.46,0.0,55.0,,,,,,,[],,,,,,50.0,1.0,u,0.0,False,1456.2000000476837,88.0,60.0,40.0,False,,308.9849145777922,[],"[960, 540]",ColorTask,23.0,47.0,,,HRV,HRV_0269,2022-11-30 20:20:59
,wl-rdm,55,204450,0.0-6.47-0.47,0.0,55.0,,,,,,,[],,,,,,50.0,0.0,u,,,3276.2000000476837,179.0,60.0,40.0,True,RT_timeout ,348.0132736315124,[],"[960, 540]",ColorTask,22.0,48.0,,,HRV,HRV_0269,2022-11-30 20:20:59
,wl-rdm,56,206666,0.0-6.48-0.48,0.0,56.0,,,,,,,[],,,,,,73.6,1.0,i,1.0,True,794.3999999761581,48.0,60.0,40.0,False,,353.2837198602152,[],"[960, 540]",ColorTask,23.0,49.0,,,HRV,HRV_0269,2022-11-30 20:20:59
,wl-rdm,57,208850,0.0-6.49-0.49,0.0,57.0,,,,,,,[],,,,,,73.6,0.0,u,0.0,True,719.7000000476837,45.0,60.0,40.0,False,,353.4240430020528,[],"[960, 540]",ColorTask,24.0,50.0,,,HRV,HRV_0269,2022-11-30 20:20:59
,wl-rdm,58,210899,0.0-6.50-0.50,0.0,58.0,,,,,,,[],,,,,,73.6,1.0,i,1.0,True,752.7000000476837,46.0,60.0,40.0,False,,214.24690776244154,[],"[960, 540]",ColorTask,25.0,51.0,,,HRV,HRV_0269,2022-11-30 20:20:59
,wl-rdm,59,213282,0.0-6.51-0.51,0.0,59.0,,,,,,,[],,,,,,53.2,0.0,i,1.0,False,1052.4999998807907,64.0,60.0,40.0,False,,253.84474593468894,[],"[960, 540]",ColorTask,24.0,52.0,,,HRV,HRV_0269,2022-11-30 20:20:59
,wl-rdm,60,215369,0.0-6.52-0.52,0.0,60.0,,,,,,,[],,,,,,73.6,0.0,u,0.0,True,672.7999999523163,41.0,60.0,40.0,False,,349.3538175617057,[],"[960, 540]",ColorTask,25.0,53.0,,,HRV,HRV_0269,2022-11-30 20:20:59
,wl-rdm,61,218049,0.0-6.53-0.53,0.0,61.0,,,,,,,[],,,,,,56.4,0.0,u,0.0,True,1275.4000000953674,75.0,60.0,40.0,False,,348.38998834799133,[],"[960, 540]",ColorTask,26.0,54.0,,,HRV,HRV_0269,2022-11-30 20:20:59
,wl-rdm,62,220099,0.0-6.54-0.54,0.0,62.0,,,,,,,[],,,,,,53.2,1.0,i,1.0,True,685.3000000715256,42.0,60.0,40.0,False,,282.4106034465839,[],"[960, 540]",ColorTask,27.0,55.0,,,HRV,HRV_0269,2022-11-30 20:20:59
,wl-rdm,63,222033,0.0-6.55-0.55,0.0,63.0,,,,,,,[],,,,,,62.5,1.0,i,1.0,True,612.7999999523163,37.0,60.0,40.0,False,,235.1793451423585,[],"[960, 540]",ColorTask,28.0,56.0,,,HRV,HRV_0269,2022-11-30 20:20:59
,wl-rdm,64,224300,0.0-6.56-0.56,0.0,64.0,,,,,,,[],,,,,,50.0,1.0,i,1.0,True,868.5000001192093,53.0,60.0,40.0,False,,307.8974597718043,[],"[960, 540]",ColorTask,29.0,57.0,,,HRV,HRV_0269,2022-11-30 20:20:59
,wl-rdm,65,226950,0.0-6.57-0.57,0.0,65.0,,,,,,,[],,,,,,53.2,1.0,u,0.0,False,1324.1999998092651,80.0,60.0,40.0,False,,239.1411559861168,[],"[960, 540]",ColorTask,28.0,58.0,,,HRV,HRV_0269,2022-11-30 20:20:59
,wl-rdm,66,229700,0.0-6.58-0.58,0.0,66.0,,,,,,,[],,,,,,50.0,0.0,i,1.0,False,1350.8999999761581,81.0,60.0,40.0,False,,328.1157907457192,[],"[960, 540]",ColorTask,27.0,59.0,,,HRV,HRV_0269,2022-11-30 20:20:59
,wl-rdm,67,231983,0.0-6.59-0.59,0.0,67.0,,,,,,,[],,,,,,87.9,0.0,u,0.0,True,960.9000000953674,58.0,60.0,40.0,False,,251.6151256876406,[],"[960, 540]",ColorTask,28.0,60.0,,,HRV,HRV_0269,2022-11-30 20:20:59
,wl-rdm,68,234767,0.0-6.60-0.60,0.0,68.0,,,,,,,[],,,,,,56.4,0.0,u,0.0,True,1483.3000000715256,89.0,60.0,40.0,False,,234.24334750844056,[],"[960, 540]",ColorTask,29.0,61.0,,,HRV,HRV_0269,2022-11-30 20:20:59
,wl-rdm,69,236850,0.0-6.61-0.61,0.0,69.0,,,,,,,[],,,,,,87.9,0.0,u,0.0,True,661.0,40.0,60.0,40.0,False,,336.2507110869209,[],"[960, 540]",ColorTask,30.0,62.0,,,HRV,HRV_0269,2022-11-30 20:20:59
,wl-rdm,70,239067,0.0-6.62-0.62,0.0,70.0,,,,,,,[],,,,,,56.4,1.0,i,1.0,True,876.8999999761581,53.0,60.0,40.0,False,,254.2702643356153,[],"[960, 540]",ColorTask,31.0,63.0,,,HRV,HRV_0269,2022-11-30 20:20:59
,wl-rdm,71,241784,0.0-6.63-0.63,0.0,71.0,,,,,,,[],,,,,,56.4,0.0,u,0.0,True,1271.7999999523163,77.0,60.0,40.0,False,,321.9145102859211,[],"[960, 540]",ColorTask,32.0,64.0,,,HRV,HRV_0269,2022-11-30 20:20:59
,wl-rdm,72,244350,0.0-6.64-0.64,0.0,72.0,,,,,,,[],,,,,,62.5,1.0,i,1.0,True,1172.3999998569489,71.0,60.0,40.0,False,,316.3431623487219,[],"[960, 540]",ColorTask,33.0,65.0,,,HRV,HRV_0269,2022-11-30 20:20:59
,wl-rdm,73,246534,0.0-6.65-0.65,0.0,73.0,,,,,,,[],,,,,,56.4,1.0,i,1.0,True,857.1999999284744,52.0,60.0,40.0,False,,241.69085836120212,[],"[960, 540]",ColorTask,34.0,66.0,,,HRV,HRV_0269,2022-11-30 20:20:59
,wl-rdm,74,248601,0.0-6.66-0.66,0.0,74.0,,,,,,,[],,,,,,62.5,1.0,i,1.0,True,695.5,42.0,60.0,40.0,False,,283.675414368587,[],"[960, 540]",ColorTask,35.0,67.0,,,HRV,HRV_0269,2022-11-30 20:20:59
,wl-rdm,75,252734,0.0-6.67-0.67,0.0,75.0,,,,,,,[],,,,,,50.0,0.0,u,0.0,True,2657.100000023842,160.0,60.0,40.0,False,,398.1754634241053,[],"[960, 540]",ColorTask,36.0,68.0,,,HRV,HRV_0269,2022-11-30 20:20:59
,wl-rdm,76,254784,0.0-6.68-0.68,0.0,76.0,,,,,,,[],,,,,,73.6,1.0,i,1.0,True,679.1000000238419,41.0,60.0,40.0,False,,304.93829657033575,[],"[960, 540]",ColorTask,37.0,69.0,,,HRV,HRV_0269,2022-11-30 20:20:59
,wl-rdm,77,257201,0.0-6.69-0.69,0.0,77.0,,,,,,,[],,,,,,53.2,0.0,u,0.0,True,1136.8000000715256,69.0,60.0,40.0,False,,203.96138634463475,[],"[960, 540]",ColorTask,38.0,70.0,,,HRV,HRV_0269,2022-11-30 20:20:59
,wl-rdm,78,260918,0.0-6.70-0.70,0.0,78.0,,,,,,,[],,,,,,53.2,1.0,i,1.0,True,2274.100000023842,137.0,60.0,40.0,False,,355.90771339852915,[],"[960, 540]",ColorTask,39.0,71.0,,,HRV,HRV_0269,2022-11-30 20:20:59
,wl-rdm,79,264901,0.0-6.71-0.71,0.0,79.0,,,,,,,[],,,,,,53.2,1.0,i,1.0,True,2508.100000023842,151.0,60.0,40.0,False,,392.903844979522,[],"[960, 540]",ColorTask,40.0,72.0,,,HRV,HRV_0269,2022-11-30 20:20:59
,wl-rdm,80,266785,0.0-6.72-0.72,0.0,80.0,,,,,,,[],,,,,,73.6,1.0,i,1.0,True,588.5,36.0,60.0,40.0,False,,214.24757724812378,[],"[960, 540]",ColorTask,41.0,73.0,,,HRV,HRV_0269,2022-11-30 20:20:59
,wl-rdm,81,269118,0.0-6.73-0.73,0.0,81.0,,,,,,,[],,,,,,53.2,0.0,u,0.0,True,1047.8000000715256,63.0,60.0,40.0,False,,220.87252036996136,[],"[960, 540]",ColorTask,42.0,74.0,,,HRV,HRV_0269,2022-11-30 20:20:59
,wl-rdm,82,271869,0.0-6.74-0.74,0.0,82.0,,,,,,,[],,,,,,62.5,0.0,u,0.0,True,1365.8999999761581,82.0,60.0,40.0,False,,320.1003934236037,[],"[960, 540]",ColorTask,43.0,75.0,,,HRV,HRV_0269,2022-11-30 20:20:59
,wl-rdm,83,274803,0.0-6.75-0.75,0.0,83.0,,,,,,,[],,,,,,53.2,0.0,u,0.0,True,1635.8999998569489,99.0,60.0,40.0,False,,232.00226034715126,[],"[960, 540]",ColorTask,44.0,76.0,,,HRV,HRV_0269,2022-11-30 20:20:59
,wl-rdm,84,277536,0.0-6.76-0.76,0.0,84.0,,,,,,,[],,,,,,50.0,1.0,i,1.0,True,1380.0000001192093,83.0,60.0,40.0,False,,286.3061688225921,[],"[960, 540]",ColorTask,45.0,77.0,,,HRV,HRV_0269,2022-11-30 20:20:59
,wl-rdm,85,280303,0.0-6.77-0.77,0.0,85.0,,,,,,,[],,,,,,56.4,1.0,u,0.0,False,1452.2000000476837,85.0,60.0,40.0,False,,243.6680130748504,[],"[960, 540]",ColorTask,44.0,78.0,,,HRV,HRV_0269,2022-11-30 20:20:59
,wl-rdm,86,282469,0.0-6.78-0.78,0.0,86.0,,,,,,,[],,,,,,73.6,1.0,i,1.0,True,757.2999999523163,46.0,60.0,40.0,False,,347.12863526250544,[],"[960, 540]",ColorTask,45.0,79.0,,,HRV,HRV_0269,2022-11-30 20:20:59
,wl-rdm,87,284819,0.0-6.79-0.79,0.0,87.0,,,,,,,[],,,,,,62.5,0.0,u,0.0,True,1053.2999999523163,64.0,60.0,40.0,False,,221.53830990430652,[],"[960, 540]",ColorTask,46.0,80.0,,,HRV,HRV_0269,2022-11-30 20:20:59
,wl-rdm,88,287670,0.0-6.80-0.80,0.0,88.0,,,,,,,[],,,,,,50.0,0.0,i,1.0,False,1549.5,93.0,60.0,40.0,False,,220.82102312866027,[],"[960, 540]",ColorTask,45.0,81.0,,,HRV,HRV_0269,2022-11-30 20:20:59
,wl-rdm,89,289914,0.0-6.81-0.81,0.0,89.0,,,,,,,[],,,,,,73.6,0.0,u,0.0,True,805.8999999761581,49.0,60.0,40.0,False,,366.45864291598355,[],"[960, 540]",ColorTask,46.0,82.0,,,HRV,HRV_0269,2022-11-30 20:20:59
,wl-rdm,90,291886,0.0-6.82-0.82,0.0,90.0,,,,,,,[],,,,,,87.9,0.0,u,0.0,True,681.3999999761581,41.0,60.0,40.0,False,,239.23906713381365,[],"[960, 540]",ColorTask,47.0,83.0,,,HRV,HRV_0269,2022-11-30 20:20:59
,wl-rdm,91,293936,0.0-6.83-0.83,0.0,91.0,,,,,,,[],,,,,,73.6,0.0,u,0.0,True,696.4000000953674,42.0,60.0,40.0,False,,275.09874527817215,[],"[960, 540]",ColorTask,48.0,84.0,,,HRV,HRV_0269,2022-11-30 20:20:59
,wl-rdm,92,296404,0.0-6.84-0.84,0.0,92.0,,,,,,,[],,,,,,53.2,0.0,u,0.0,True,1168.5,71.0,60.0,40.0,False,,224.69217184894362,[],"[960, 540]",ColorTask,49.0,85.0,,,HRV,HRV_0269,2022-11-30 20:20:59
,wl-rdm,93,298437,0.0-6.85-0.85,0.0,93.0,,,,,,,[],,,,,,73.6,0.0,u,0.0,True,734.8999999761581,45.0,60.0,40.0,False,,200.30146159171744,[],"[960, 540]",ColorTask,50.0,86.0,,,HRV,HRV_0269,2022-11-30 20:20:59
,wl-rdm,94,301937,0.0-6.86-0.86,0.0,94.0,,,,,,,[],,,,,,53.2,0.0,u,0.0,True,2130.0,128.0,60.0,40.0,False,,289.0245741537562,[],"[960, 540]",ColorTask,51.0,87.0,,,HRV,HRV_0269,2022-11-30 20:20:59
,wl-rdm,95,304037,0.0-6.87-0.87,0.0,95.0,,,,,,,[],,,,,,87.9,1.0,i,1.0,True,665.7999999523163,40.0,60.0,40.0,False,,380.1880097267092,[],"[960, 540]",ColorTask,52.0,88.0,,,HRV,HRV_0269,2022-11-30 20:20:59
,wl-rdm,96,306154,0.0-6.88-0.88,0.0,96.0,,,,,,,[],,,,,,87.9,0.0,u,0.0,True,721.0999999046326,44.0,60.0,40.0,False,,301.34985012437954,[],"[960, 540]",ColorTask,53.0,89.0,,,HRV,HRV_0269,2022-11-30 20:20:59
,wl-rdm,97,308370,0.0-6.89-0.89,0.0,97.0,,,,,,,[],,,,,,50.0,1.0,u,0.0,False,919.1000000238419,56.0,60.0,40.0,False,,221.1356971501643,[],"[960, 540]",ColorTask,52.0,90.0,,,HRV,HRV_0269,2022-11-30 20:20:59
,wl-rdm,98,311237,0.0-6.90-0.90,0.0,98.0,,,,,,,[],,,,,,50.0,0.0,i,1.0,False,1541.6000000238419,93.0,60.0,40.0,False,,235.21319891641681,[],"[960, 540]",ColorTask,51.0,91.0,,,HRV,HRV_0269,2022-11-30 20:20:59
,wl-rdm,99,313488,0.0-6.91-0.91,0.0,99.0,,,,,,,[],,,,,,53.2,0.0,i,1.0,False,923.5999999046326,56.0,60.0,40.0,False,,244.15852113071816,[],"[960, 540]",ColorTask,50.0,92.0,,,HRV,HRV_0269,2022-11-30 20:20:59
,wl-rdm,100,316738,0.0-6.92-0.92,0.0,100.0,,,,,,,[],,,,,,62.5,1.0,i,1.0,True,1789.0999999046326,106.0,60.0,40.0,False,,399.56066362740927,[],"[960, 540]",ColorTask,51.0,93.0,,,HRV,HRV_0269,2022-11-30 20:20:59
,wl-rdm,101,320005,0.0-6.93-0.93,0.0,101.0,,,,,,,[],,,,,,50.0,1.0,u,0.0,False,1887.7000000476837,114.0,60.0,40.0,False,,302.5246945569506,[],"[960, 540]",ColorTask,50.0,94.0,,,HRV,HRV_0269,2022-11-30 20:20:59
,wl-rdm,102,322188,0.0-6.94-0.94,0.0,102.0,,,,,,,[],,,,,,50.0,1.0,i,1.0,True,893.4000000953674,54.0,60.0,40.0,False,,208.2180691220515,[],"[960, 540]",ColorTask,51.0,95.0,,,HRV,HRV_0269,2022-11-30 20:20:59
,wl-rdm,103,324271,0.0-6.95-0.95,0.0,103.0,,,,,,,[],,,,,,73.6,0.0,u,0.0,True,664.7999999523163,40.0,60.0,40.0,False,,334.07567354560524,[],"[960, 540]",ColorTask,52.0,96.0,,,HRV,HRV_0269,2022-11-30 20:20:59
,wl-rdm,104,326205,0.0-6.96-0.96,0.0,104.0,,,,,,,[],,,,,,73.6,1.0,i,1.0,True,635.0999999046326,39.0,60.0,40.0,False,,210.74138406517483,[],"[960, 540]",ColorTask,53.0,97.0,,,HRV,HRV_0269,2022-11-30 20:20:59
,wl-rdm,105,328242,0.0-6.97-0.97,0.0,105.0,,,,,,,[],,,,,,87.9,0.0,u,0.0,True,714.9999998807907,42.0,60.0,40.0,False,,260.3293881575343,[],"[960, 540]",ColorTask,54.0,98.0,,,HRV,HRV_0269,2022-11-30 20:20:59
,wl-rdm,106,330521,0.0-6.98-0.98,0.0,106.0,,,,,,,[],,,,,,62.5,1.0,i,1.0,True,1003.8999999761581,61.0,60.0,40.0,False,,213.47204105690153,[],"[960, 540]",ColorTask,55.0,99.0,,,HRV,HRV_0269,2022-11-30 20:20:59
,wl-rdm,107,332755,0.0-6.99-0.99,0.0,107.0,,,,,,,[],,,,,,62.5,0.0,u,0.0,True,787.3000000715256,48.0,60.0,40.0,False,,364.90079878539547,[],"[960, 540]",ColorTask,56.0,100.0,,,HRV,HRV_0269,2022-11-30 20:20:59
,wl-rdm,108,335088,0.0-6.100-0.100,0.0,108.0,,,,,,,[],,,,,,50.0,0.0,i,1.0,False,896.9999998807907,54.0,60.0,40.0,False,,352.1073904342657,[],"[960, 540]",ColorTask,55.0,101.0,,,HRV,HRV_0269,2022-11-30 20:20:59
,wl-rdm,109,337821,0.0-6.101-0.101,0.0,109.0,,,,,,,[],,,,,,56.4,0.0,u,0.0,True,1381.9999998807907,83.0,60.0,40.0,False,,295.5108771462556,[],"[960, 540]",ColorTask,56.0,102.0,,,HRV,HRV_0269,2022-11-30 20:20:59
,wl-rdm,110,341088,0.0-6.102-0.102,0.0,110.0,,,,,,,[],,,,,,53.2,1.0,i,1.0,True,1942.5,115.0,60.0,40.0,False,,264.01895435460233,[],"[960, 540]",ColorTask,57.0,103.0,,,HRV,HRV_0269,2022-11-30 20:20:59
,wl-rdm,111,343072,0.0-6.103-0.103,0.0,111.0,,,,,,,[],,,,,,87.9,0.0,u,0.0,True,656.2000000476837,40.0,60.0,40.0,False,,243.3229815951139,[],"[960, 540]",ColorTask,58.0,104.0,,,HRV,HRV_0269,2022-11-30 20:20:59
,wl-rdm,112,346022,0.0-6.104-0.104,0.0,112.0,,,,,,,[],,,,,,56.4,0.0,u,0.0,True,1599.6000000238419,96.0,60.0,40.0,False,,274.5131400207013,[],"[960, 540]",ColorTask,59.0,105.0,,,HRV,HRV_0269,2022-11-30 20:20:59
,wl-rdm,113,348489,0.0-6.105-0.105,0.0,113.0,,,,,,,[],,,,,,56.4,1.0,i,1.0,True,1155.0,70.0,60.0,40.0,False,,226.38161201073027,[],"[960, 540]",ColorTask,60.0,106.0,,,HRV,HRV_0269,2022-11-30 20:20:59
,wl-rdm,114,350922,0.0-6.106-0.106,0.0,114.0,,,,,,,[],,,,,,56.4,1.0,i,1.0,True,1011.3999998569489,61.0,60.0,40.0,False,,348.1968260975656,[],"[960, 540]",ColorTask,61.0,107.0,,,HRV,HRV_0269,2022-11-30 20:20:59
,wl-rdm,115,352922,0.0-6.107-0.107,0.0,115.0,,,,,,,[],,,,,,87.9,1.0,i,1.0,True,644.7000000476837,39.0,60.0,40.0,False,,277.51778284534635,[],"[960, 540]",ColorTask,62.0,108.0,,,HRV,HRV_0269,2022-11-30 20:20:59
,wl-rdm,116,354922,0.0-6.108-0.108,0.0,116.0,,,,,,,[],,,,,,87.9,1.0,i,1.0,True,719.0999999046326,44.0,60.0,40.0,False,,201.64643435514952,[],"[960, 540]",ColorTask,63.0,109.0,,,HRV,HRV_0269,2022-11-30 20:20:59
,wl-html-keyboard-response,117,365740,0.0-7.0-0.0,1.0,117.0,,,,,,,,8809.200000047684,1.0,0,,,,,,,,,,,,,,,,,,,,,,HRV,HRV_0269,2022-11-30 20:20:59
,wl-rdm,118,368156,0.0-8.0-0.0,1.0,118.0,,,,,,,[],,,,,,56.4,0.0,u,0.0,True,1042.8000000715256,63.0,60.0,40.0,False,,290.9542617710789,[],"[960, 540]",ColorTask,64.0,1.0,,,HRV,HRV_0269,2022-11-30 20:20:59
,wl-rdm,119,370173,0.0-8.1-0.1,1.0,119.0,,,,,,,[],,,,,,87.9,1.0,i,1.0,True,683.4000000953674,41.0,60.0,40.0,False,,252.81877303514207,[],"[960, 540]",ColorTask,65.0,2.0,,,HRV,HRV_0269,2022-11-30 20:20:59
,wl-rdm,120,372973,0.0-8.2-0.2,1.0,120.0,,,,,,,[],,,,,,56.4,0.0,u,0.0,True,1424.5,86.0,60.0,40.0,False,,309.058933990926,[],"[960, 540]",ColorTask,66.0,3.0,,,HRV,HRV_0269,2022-11-30 20:20:59
,wl-rdm,121,374890,0.0-8.3-0.3,1.0,121.0,,,,,,,[],,,,,,87.9,1.0,i,1.0,True,578.2000000476837,35.0,60.0,40.0,False,,274.8867125654938,[],"[960, 540]",ColorTask,67.0,4.0,,,HRV,HRV_0269,2022-11-30 20:20:59
,wl-rdm,122,377840,0.0-8.4-0.4,1.0,122.0,,,,,,,[],,,,,,53.2,0.0,i,1.0,False,1663.3000000715256,100.0,60.0,40.0,False,,216.50916368369198,[],"[960, 540]",ColorTask,66.0,5.0,,,HRV,HRV_0269,2022-11-30 20:20:59
,wl-rdm,123,380407,0.0-8.5-0.5,1.0,123.0,,,,,,,[],,,,,,53.2,0.0,u,0.0,True,1181.5,71.0,60.0,40.0,False,,304.45526985525925,[],"[960, 540]",ColorTask,67.0,6.0,,,HRV,HRV_0269,2022-11-30 20:20:59
,wl-rdm,124,383657,0.0-8.6-0.6,1.0,124.0,,,,,,,[],,,,,,50.0,0.0,u,0.0,True,1970.9999998807907,119.0,60.0,40.0,False,,200.9458523760195,[],"[960, 540]",ColorTask,68.0,7.0,,,HRV,HRV_0269,2022-11-30 20:20:59
,wl-rdm,125,385740,0.0-8.7-0.7,1.0,125.0,,,,,,,[],,,,,,87.9,0.0,u,0.0,True,789.6000000238419,46.0,60.0,40.0,False,,231.22004213644834,[],"[960, 540]",ColorTask,69.0,8.0,,,HRV,HRV_0269,2022-11-30 20:20:59
,wl-rdm,126,388241,0.0-8.8-0.8,1.0,126.0,,,,,,,[],,,,,,62.5,0.0,u,0.0,True,1162.0,70.0,60.0,40.0,False,,276.3352406109508,[],"[960, 540]",ColorTask,70.0,9.0,,,HRV,HRV_0269,2022-11-30 20:20:59
,wl-rdm,127,390157,0.0-8.9-0.9,1.0,127.0,,,,,,,[],,,,,,73.6,1.0,i,1.0,True,581.7999999523163,35.0,60.0,40.0,False,,269.48470702206663,[],"[960, 540]",ColorTask,71.0,10.0,,,HRV,HRV_0269,2022-11-30 20:20:59
,wl-rdm,128,391974,0.0-8.10-0.10,1.0,128.0,,,,,,,[],,,,,,87.9,1.0,i,1.0,True,523.6000000238419,32.0,60.0,40.0,False,,217.88349058859816,[],"[960, 540]",ColorTask,72.0,11.0,,,HRV,HRV_0269,2022-11-30 20:20:59
,wl-rdm,129,394273,0.0-8.11-0.11,1.0,129.0,,,,,,,[],,,,,,56.4,1.0,u,0.0,False,877.3999999761581,53.0,60.0,40.0,False,,353.7350604234332,[],"[960, 540]",ColorTask,71.0,12.0,,,HRV,HRV_0269,2022-11-30 20:20:59
,wl-rdm,130,396774,0.0-8.12-0.12,1.0,130.0,,,,,,,[],,,,,,62.5,0.0,u,0.0,True,1075.9000000953674,65.0,60.0,40.0,False,,324.87217339435114,[],"[960, 540]",ColorTask,72.0,13.0,,,HRV,HRV_0269,2022-11-30 20:20:59
,wl-rdm,131,398858,0.0-8.13-0.13,1.0,131.0,,,,,,,[],,,,,,87.9,1.0,i,1.0,True,811.3000000715256,49.0,60.0,40.0,False,,214.63754012673638,[],"[960, 540]",ColorTask,73.0,14.0,,,HRV,HRV_0269,2022-11-30 20:20:59
,wl-rdm,132,401440,0.0-8.14-0.14,1.0,132.0,,,,,,,[],,,,,,53.2,1.0,i,1.0,True,1171.700000166893,71.0,60.0,40.0,False,,321.20302598157195,[],"[960, 540]",ColorTask,74.0,15.0,,,HRV,HRV_0269,2022-11-30 20:20:59
,wl-rdm,133,404125,0.0-8.15-0.15,1.0,133.0,,,,,,,[],,,,,,56.4,0.0,u,0.0,True,1408.3000000715256,85.0,60.0,40.0,False,,216.1981509359665,[],"[960, 540]",ColorTask,75.0,16.0,,,HRV,HRV_0269,2022-11-30 20:20:59
,wl-rdm,134,406274,0.0-8.16-0.16,1.0,134.0,,,,,,,[],,,,,,87.9,0.0,u,0.0,True,693.8999999761581,42.0,60.0,40.0,False,,383.31823374316605,[],"[960, 540]",ColorTask,76.0,17.0,,,HRV,HRV_0269,2022-11-30 20:20:59
,wl-rdm,135,409157,0.0-8.17-0.17,1.0,135.0,,,,,,,[],,,,,,50.0,1.0,i,1.0,True,1449.5,87.0,60.0,40.0,False,,360.4025877606206,[],"[960, 540]",ColorTask,77.0,18.0,,,HRV,HRV_0269,2022-11-30 20:20:59
,wl-rdm,136,412091,0.0-8.18-0.18,1.0,136.0,,,,,,,[],,,,,,56.4,1.0,i,1.0,True,1502.6999999284744,91.0,60.0,40.0,False,,346.11906903733563,[],"[960, 540]",ColorTask,78.0,19.0,,,HRV,HRV_0269,2022-11-30 20:20:59
,wl-rdm,137,414308,0.0-8.19-0.19,1.0,137.0,,,,,,,[],,,,,,62.5,0.0,u,0.0,True,842.9000000953674,51.0,60.0,40.0,False,,289.29591290435076,[],"[960, 540]",ColorTask,79.0,20.0,,,HRV,HRV_0269,2022-11-30 20:20:59
,wl-rdm,138,417808,0.0-8.20-0.20,1.0,138.0,,,,,,,[],,,,,,53.2,1.0,i,1.0,True,2134.100000023842,127.0,60.0,40.0,False,,295.8744860348504,[],"[960, 540]",ColorTask,80.0,21.0,,,HRV,HRV_0269,2022-11-30 20:20:59
,wl-rdm,139,421458,0.0-8.21-0.21,1.0,139.0,,,,,,,[],,,,,,50.0,0.0,i,1.0,False,2303.5,139.0,60.0,40.0,False,,252.36235045225237,[],"[960, 540]",ColorTask,79.0,22.0,,,HRV,HRV_0269,2022-11-30 20:20:59
,wl-rdm,140,424108,0.0-8.22-0.22,1.0,140.0,,,,,,,[],,,,,,53.2,1.0,i,1.0,True,1333.1999999284744,80.0,60.0,40.0,False,,255.23718162759866,[],"[960, 540]",ColorTask,80.0,23.0,,,HRV,HRV_0269,2022-11-30 20:20:59
,wl-rdm,141,426125,0.0-8.23-0.23,1.0,141.0,,,,,,,[],,,,,,73.6,1.0,i,1.0,True,725.0,44.0,60.0,40.0,False,,211.3860401332659,[],"[960, 540]",ColorTask,81.0,24.0,,,HRV,HRV_0269,2022-11-30 20:20:59
,wl-rdm,142,428108,0.0-8.24-0.24,1.0,142.0,,,,,,,[],,,,,,73.6,0.0,u,0.0,True,682.6000000238419,41.0,60.0,40.0,False,,233.97127638811054,[],"[960, 540]",ColorTask,82.0,25.0,,,HRV,HRV_0269,2022-11-30 20:20:59
,wl-rdm,143,431159,0.0-8.25-0.25,1.0,143.0,,,,,,,[],,,,,,50.0,1.0,i,1.0,True,1706.6000000238419,103.0,60.0,40.0,False,,261.42798235501164,[],"[960, 540]",ColorTask,83.0,26.0,,,HRV,HRV_0269,2022-11-30 20:20:59
,wl-rdm,144,433425,0.0-8.26-0.26,1.0,144.0,,,,,,,[],,,,,,56.4,1.0,i,1.0,True,912.6000000238419,55.0,60.0,40.0,False,,275.56229672426696,[],"[960, 540]",ColorTask,84.0,27.0,,,HRV,HRV_0269,2022-11-30 20:20:59
,wl-rdm,145,435709,0.0-8.27-0.27,1.0,145.0,,,,,,,[],,,,,,53.2,0.0,u,0.0,True,966.6000000238419,58.0,60.0,40.0,False,,241.10738916288545,[],"[960, 540]",ColorTask,85.0,28.0,,,HRV,HRV_0269,2022-11-30 20:20:59
,wl-rdm,146,437876,0.0-8.28-0.28,1.0,146.0,,,,,,,[],,,,,,56.4,0.0,u,0.0,True,868.2000000476837,53.0,60.0,40.0,False,,216.29818604094882,[],"[960, 540]",ColorTask,86.0,29.0,,,HRV,HRV_0269,2022-11-30 20:20:59
,wl-rdm,147,440925,0.0-8.29-0.29,1.0,147.0,,,,,,,[],,,,,,56.4,0.0,u,0.0,True,1674.1999999284744,101.0,60.0,40.0,False,,298.5778968819973,[],"[960, 540]",ColorTask,87.0,30.0,,,HRV,HRV_0269,2022-11-30 20:20:59
,wl-rdm,148,443576,0.0-8.30-0.30,1.0,148.0,,,,,,,[],,,,,,53.2,1.0,u,0.0,False,1305.8999999761581,79.0,60.0,40.0,False,,258.41521351859876,[],"[960, 540]",ColorTask,86.0,31.0,,,HRV,HRV_0269,2022-11-30 20:20:59
,wl-rdm,149,445876,0.0-8.31-0.31,1.0,149.0,,,,,,,[],,,,,,53.2,1.0,i,1.0,True,942.3000000715256,57.0,60.0,40.0,False,,298.06839791197683,[],"[960, 540]",ColorTask,87.0,32.0,,,HRV,HRV_0269,2022-11-30 20:20:59
,wl-rdm,150,449126,0.0-8.32-0.32,1.0,150.0,,,,,,,[],,,,,,53.2,0.0,i,1.0,False,1964.5,118.0,60.0,40.0,False,,220.8651271213302,[],"[960, 540]",ColorTask,86.0,33.0,,,HRV,HRV_0269,2022-11-30 20:20:59
,wl-rdm,151,451377,0.0-8.33-0.33,1.0,151.0,,,,,,,[],,,,,,53.2,0.0,u,0.0,True,896.2000000476837,54.0,60.0,40.0,False,,270.8912425802963,[],"[960, 540]",ColorTask,87.0,34.0,,,HRV,HRV_0269,2022-11-30 20:20:59
,wl-rdm,152,453560,0.0-8.34-0.34,1.0,152.0,,,,,,,[],,,,,,87.9,1.0,i,1.0,True,761.9000000953674,46.0,60.0,40.0,False,,350.5302781028281,[],"[960, 540]",ColorTask,88.0,35.0,,,HRV,HRV_0269,2022-11-30 20:20:59
,wl-rdm,153,455527,0.0-8.35-0.35,1.0,153.0,,,,,,,[],,,,,,87.9,1.0,i,1.0,True,631.2000000476837,38.0,60.0,40.0,False,,257.91150420633784,[],"[960, 540]",ColorTask,89.0,36.0,,,HRV,HRV_0269,2022-11-30 20:20:59
,wl-rdm,154,457644,0.0-8.36-0.36,1.0,154.0,,,,,,,[],,,,,,87.9,1.0,i,1.0,True,635.4000000953674,39.0,60.0,40.0,False,,385.8923308205771,[],"[960, 540]",ColorTask,90.0,37.0,,,HRV,HRV_0269,2022-11-30 20:20:59
,wl-rdm,155,460094,0.0-8.37-0.37,1.0,155.0,,,,,,,[],,,,,,53.2,1.0,i,1.0,True,983.2000000476837,59.0,60.0,40.0,False,,388.53715332746447,[],"[960, 540]",ColorTask,91.0,38.0,,,HRV,HRV_0269,2022-11-30 20:20:59
,wl-rdm,156,462244,0.0-8.38-0.38,1.0,156.0,,,,,,,[],,,,,,73.6,0.0,u,0.0,True,802.5,49.0,60.0,40.0,False,,262.9785698019385,[],"[960, 540]",ColorTask,92.0,39.0,,,HRV,HRV_0269,2022-11-30 20:20:59
,wl-rdm,157,464228,0.0-8.39-0.39,1.0,157.0,,,,,,,[],,,,,,87.9,0.0,u,0.0,True,693.6000000238419,42.0,60.0,40.0,False,,219.60209029099215,[],"[960, 540]",ColorTask,93.0,40.0,,,HRV,HRV_0269,2022-11-30 20:20:59
,wl-rdm,158,466344,0.0-8.40-0.40,1.0,158.0,,,,,,,[],,,,,,73.6,0.0,u,0.0,True,788.1000000238419,48.0,60.0,40.0,False,,260.4987565550134,[],"[960, 540]",ColorTask,94.0,41.0,,,HRV,HRV_0269,2022-11-30 20:20:59
,wl-rdm,159,469111,0.0-8.41-0.41,1.0,159.0,,,,,,,[],,,,,,50.0,0.0,u,0.0,True,1356.3000000715256,82.0,60.0,40.0,False,,333.36166294144743,[],"[960, 540]",ColorTask,95.0,42.0,,,HRV,HRV_0269,2022-11-30 20:20:59
,wl-rdm,160,471344,0.0-8.42-0.42,1.0,160.0,,,,,,,[],,,,,,50.0,1.0,u,0.0,False,939.0,57.0,60.0,40.0,False,,202.26593545454963,[],"[960, 540]",ColorTask,94.0,43.0,,,HRV,HRV_0269,2022-11-30 20:20:59
,wl-rdm,161,473811,0.0-8.43-0.43,1.0,161.0,,,,,,,[],,,,,,56.4,0.0,u,0.0,True,1019.0,62.0,60.0,40.0,False,,370.63303493114904,[],"[960, 540]",ColorTask,95.0,44.0,,,HRV,HRV_0269,2022-11-30 20:20:59
,wl-rdm,162,476529,0.0-8.44-0.44,1.0,162.0,,,,,,,[],,,,,,62.5,1.0,i,1.0,True,1308.6000000238419,62.0,60.0,40.0,False,,344.9372047521565,[],"[960, 540]",ColorTask,96.0,45.0,,,HRV,HRV_0269,2022-11-30 20:20:59
,wl-rdm,163,478830,0.0-8.45-0.45,1.0,163.0,,,,,,,[],,,,,,62.5,0.0,u,0.0,True,951.8000000715256,58.0,60.0,40.0,False,,252.117922044811,[],"[960, 540]",ColorTask,97.0,46.0,,,HRV,HRV_0269,2022-11-30 20:20:59
,wl-rdm,164,481163,0.0-8.46-0.46,1.0,164.0,,,,,,,[],,,,,,50.0,1.0,u,0.0,False,1036.3999999761581,63.0,60.0,40.0,False,,208.3714296186676,[],"[960, 540]",ColorTask,96.0,47.0,,,HRV,HRV_0269,2022-11-30 20:20:59
,wl-rdm,165,484231,0.0-8.47-0.47,1.0,165.0,,,,,,,[],,,,,,53.2,1.0,u,0.0,False,1642.0,99.0,60.0,40.0,False,,338.01653777293546,[],"[960, 540]",ColorTask,95.0,48.0,,,HRV,HRV_0269,2022-11-30 20:20:59
,wl-rdm,166,486378,0.0-8.48-0.48,1.0,166.0,,,,,,,[],,,,,,73.6,1.0,i,1.0,True,753.0,46.0,60.0,40.0,False,,321.9068172723543,[],"[960, 540]",ColorTask,96.0,49.0,,,HRV,HRV_0269,2022-11-30 20:20:59
,wl-rdm,167,489779,0.0-8.49-0.49,1.0,167.0,,,,,,,[],,,,,,50.0,0.0,i,1.0,False,2094.600000023842,126.0,60.0,40.0,False,,239.32145080373084,[],"[960, 540]",ColorTask,95.0,50.0,,,HRV,HRV_0269,2022-11-30 20:20:59
,wl-rdm,168,491995,0.0-8.50-0.50,1.0,168.0,,,,,,,[],,,,,,73.6,1.0,i,1.0,True,852.2999999523163,52.0,60.0,40.0,False,,286.79164672392295,[],"[960, 540]",ColorTask,96.0,51.0,,,HRV,HRV_0269,2022-11-30 20:20:59
,wl-rdm,169,494212,0.0-8.51-0.51,1.0,169.0,,,,,,,[],,,,,,73.6,0.0,u,0.0,True,843.2000000476837,51.0,60.0,40.0,False,,289.30066463471616,[],"[960, 540]",ColorTask,97.0,52.0,,,HRV,HRV_0269,2022-11-30 20:20:59
,wl-rdm,170,496429,0.0-8.52-0.52,1.0,170.0,,,,,,,[],,,,,,62.5,0.0,u,0.0,True,859.5999999046326,52.0,60.0,40.0,False,,277.42327100964434,[],"[960, 540]",ColorTask,98.0,53.0,,,HRV,HRV_0269,2022-11-30 20:20:59
,wl-rdm,171,498645,0.0-8.53-0.53,1.0,171.0,,,,,,,[],,,,,,56.4,1.0,i,1.0,True,933.0999999046326,56.0,60.0,40.0,False,,201.9225102466784,[],"[960, 540]",ColorTask,99.0,54.0,,,HRV,HRV_0269,2022-11-30 20:20:59
,wl-rdm,172,500779,0.0-8.54-0.54,1.0,172.0,,,,,,,[],,,,,,73.6,1.0,i,1.0,True,737.3999999761581,45.0,60.0,40.0,False,,330.99197702019126,[],"[960, 540]",ColorTask,100.0,55.0,,,HRV,HRV_0269,2022-11-30 20:20:59
,wl-rdm,173,502862,0.0-8.55-0.55,1.0,173.0,,,,,,,[],,,,,,73.6,1.0,i,1.0,True,724.8000000715256,44.0,60.0,40.0,False,,270.55953791345434,[],"[960, 540]",ColorTask,101.0,56.0,,,HRV,HRV_0269,2022-11-30 20:20:59
,wl-rdm,174,505196,0.0-8.56-0.56,1.0,174.0,,,,,,,[],,,,,,53.2,0.0,u,0.0,True,1052.3999999761581,64.0,60.0,40.0,False,,203.84382281876867,[],"[960, 540]",ColorTask,102.0,57.0,,,HRV,HRV_0269,2022-11-30 20:20:59
,wl-rdm,175,507247,0.0-8.57-0.57,1.0,175.0,,,,,,,[],,,,,,87.9,0.0,u,0.0,True,675.1000000238419,41.0,60.0,40.0,False,,296.21333503748383,[],"[960, 540]",ColorTask,103.0,58.0,,,HRV,HRV_0269,2022-11-30 20:20:59
,wl-rdm,176,509713,0.0-8.58-0.58,1.0,176.0,,,,,,,[],,,,,,53.2,0.0,u,0.0,True,1129.6000000238419,68.0,60.0,40.0,False,,268.3158850355037,[],"[960, 540]",ColorTask,104.0,59.0,,,HRV,HRV_0269,2022-11-30 20:20:59
,wl-rdm,177,511781,0.0-8.59-0.59,1.0,177.0,,,,,,,[],,,,,,87.9,1.0,i,1.0,True,710.5,43.0,60.0,40.0,False,,283.49410882555776,[],"[960, 540]",ColorTask,105.0,60.0,,,HRV,HRV_0269,2022-11-30 20:20:59
,wl-rdm,178,514029,0.0-8.60-0.60,1.0,178.0,,,,,,,[],,,,,,73.6,0.0,u,0.0,True,774.5999999046326,47.0,60.0,40.0,False,,370.09004744554613,[],"[960, 540]",ColorTask,106.0,61.0,,,HRV,HRV_0269,2022-11-30 20:20:59
,wl-rdm,179,516262,0.0-8.61-0.61,1.0,179.0,,,,,,,[],,,,,,62.5,0.0,u,0.0,True,831.1000000238419,50.0,60.0,40.0,False,,344.84438523180654,[],"[960, 540]",ColorTask,107.0,62.0,,,HRV,HRV_0269,2022-11-30 20:20:59
,wl-rdm,180,518479,0.0-8.62-0.62,1.0,180.0,,,,,,,[],,,,,,73.6,0.0,u,0.0,True,855.6000001430511,52.0,60.0,40.0,False,,296.9917103665796,[],"[960, 540]",ColorTask,108.0,63.0,,,HRV,HRV_0269,2022-11-30 20:20:59
,wl-rdm,181,520679,0.0-8.63-0.63,1.0,181.0,,,,,,,[],,,,,,87.9,0.0,u,0.0,True,856.3000000715256,52.0,60.0,40.0,False,,250.12597328828275,[],"[960, 540]",ColorTask,109.0,64.0,,,HRV,HRV_0269,2022-11-30 20:20:59
,wl-rdm,182,522629,0.0-8.64-0.64,1.0,182.0,,,,,,,[],,,,,,62.5,1.0,i,1.0,True,642.2999999523163,39.0,60.0,40.0,False,,230.13587678222163,[],"[960, 540]",ColorTask,110.0,65.0,,,HRV,HRV_0269,2022-11-30 20:20:59
,wl-rdm,183,525212,0.0-8.65-0.65,1.0,183.0,,,,,,,[],,,,,,50.0,1.0,u,0.0,False,1151.5,70.0,60.0,40.0,False,,349.85800513139475,[],"[960, 540]",ColorTask,109.0,66.0,,,HRV,HRV_0269,2022-11-30 20:20:59
,wl-rdm,184,527796,0.0-8.66-0.66,1.0,184.0,,,,,,,[],,,,,,50.0,1.0,i,1.0,True,1201.8999999761581,73.0,60.0,40.0,False,,289.52391644665653,[],"[960, 540]",ColorTask,110.0,67.0,,,HRV,HRV_0269,2022-11-30 20:20:59
,wl-rdm,185,531196,0.0-8.67-0.67,1.0,185.0,,,,,,,[],,,,,,50.0,0.0,i,1.0,False,1918.5,116.0,60.0,40.0,False,,387.38867921278177,[],"[960, 540]",ColorTask,109.0,68.0,,,HRV,HRV_0269,2022-11-30 20:20:59
,wl-rdm,186,533413,0.0-8.68-0.68,1.0,186.0,,,,,,,[],,,,,,62.5,1.0,i,1.0,True,925.0,56.0,60.0,40.0,False,,205.8062677255834,[],"[960, 540]",ColorTask,110.0,69.0,,,HRV,HRV_0269,2022-11-30 20:20:59
,wl-rdm,187,536146,0.0-8.69-0.69,1.0,187.0,,,,,,,[],,,,,,53.2,0.0,u,0.0,True,1371.4000000953674,83.0,60.0,40.0,False,,268.00017180198074,[],"[960, 540]",ColorTask,111.0,70.0,,,HRV,HRV_0269,2022-11-30 20:20:59
,wl-rdm,188,538535,0.0-8.70-0.70,1.0,188.0,,,,,,,[],,,,,,62.5,1.0,i,1.0,True,1094.3999999761581,66.0,60.0,40.0,False,,224.4595527473669,[],"[960, 540]",ColorTask,112.0,71.0,,,HRV,HRV_0269,2022-11-30 20:20:59
,wl-rdm,189,540613,0.0-8.71-0.71,1.0,189.0,,,,,,,[],,,,,,53.2,1.0,i,1.0,True,741.8999999761581,45.0,60.0,40.0,False,,241.28229056044376,[],"[960, 540]",ColorTask,113.0,72.0,,,HRV,HRV_0269,2022-11-30 20:20:59
,wl-rdm,190,542730,0.0-8.72-0.72,1.0,190.0,,,,,,,[],,,,,,56.4,0.0,u,0.0,True,810.8000000715256,48.0,60.0,40.0,False,,234.26792524097132,[],"[960, 540]",ColorTask,114.0,73.0,,,HRV,HRV_0269,2022-11-30 20:20:59
,wl-rdm,191,545097,0.0-8.73-0.73,1.0,191.0,,,,,,,[],,,,,,56.4,1.0,i,1.0,True,1038.5,63.0,60.0,40.0,False,,236.38952096472224,[],"[960, 540]",ColorTask,115.0,74.0,,,HRV,HRV_0269,2022-11-30 20:20:59
,wl-rdm,192,547213,0.0-8.74-0.74,1.0,192.0,,,,,,,[],,,,,,62.5,1.0,i,1.0,True,799.2000000476837,48.0,60.0,40.0,False,,244.9072226860539,[],"[960, 540]",ColorTask,116.0,75.0,,,HRV,HRV_0269,2022-11-30 20:20:59
,wl-rdm,193,549830,0.0-8.75-0.75,1.0,193.0,,,,,,,[],,,,,,56.4,1.0,i,1.0,True,1265.2000000476837,76.0,60.0,40.0,False,,268.4024972104978,[],"[960, 540]",ColorTask,117.0,76.0,,,HRV,HRV_0269,2022-11-30 20:20:59
,wl-rdm,194,552063,0.0-8.76-0.76,1.0,194.0,,,,,,,[],,,,,,62.5,0.0,u,0.0,True,797.2000000476837,48.0,60.0,40.0,False,,351.892677433564,[],"[960, 540]",ColorTask,118.0,77.0,,,HRV,HRV_0269,2022-11-30 20:20:59
,wl-rdm,195,554180,0.0-8.77-0.77,1.0,195.0,,,,,,,[],,,,,,62.5,1.0,i,1.0,True,825.7000000476837,50.0,60.0,40.0,False,,215.53893650394247,[],"[960, 540]",ColorTask,119.0,78.0,,,HRV,HRV_0269,2022-11-30 20:20:59
,wl-rdm,196,556330,0.0-8.78-0.78,1.0,196.0,,,,,,,[],,,,,,87.9,0.0,u,0.0,True,852.9999998807907,52.0,60.0,40.0,False,,220.08647097529382,[],"[960, 540]",ColorTask,120.0,79.0,,,HRV,HRV_0269,2022-11-30 20:20:59
,wl-rdm,197,558414,0.0-8.79-0.79,1.0,197.0,,,,,,,[],,,,,,50.0,0.0,i,1.0,False,715.6000000238419,43.0,60.0,40.0,False,,289.2637743666395,[],"[960, 540]",ColorTask,119.0,80.0,,,HRV,HRV_0269,2022-11-30 20:20:59
,wl-rdm,198,561014,0.0-8.80-0.80,1.0,198.0,,,,,,,[],,,,,,62.5,1.0,i,1.0,True,1297.7000000476837,78.0,60.0,40.0,False,,246.00617103774078,[],"[960, 540]",ColorTask,120.0,81.0,,,HRV,HRV_0269,2022-11-30 20:20:59
,wl-rdm,199,563614,0.0-8.81-0.81,1.0,199.0,,,,,,,[],,,,,,62.5,1.0,i,1.0,True,1257.2999999523163,76.0,60.0,40.0,False,,253.26759401303315,[],"[960, 540]",ColorTask,121.0,82.0,,,HRV,HRV_0269,2022-11-30 20:20:59
,wl-rdm,200,565714,0.0-8.82-0.82,1.0,200.0,,,,,,,[],,,,,,73.6,1.0,i,1.0,True,769.7999999523163,47.0,60.0,40.0,False,,247.03298197900017,[],"[960, 540]",ColorTask,122.0,83.0,,,HRV,HRV_0269,2022-11-30 20:20:59
,wl-rdm,201,568281,0.0-8.83-0.83,1.0,201.0,,,,,,,[],,,,,,50.0,1.0,u,0.0,False,1178.8000000715256,71.0,60.0,40.0,False,,332.06935564708397,[],"[960, 540]",ColorTask,121.0,84.0,,,HRV,HRV_0269,2022-11-30 20:20:59
,wl-rdm,202,570631,0.0-8.84-0.84,1.0,202.0,,,,,,,[],,,,,,56.4,0.0,u,0.0,True,1014.3000000715256,61.0,60.0,40.0,False,,265.16481700820833,[],"[960, 540]",ColorTask,122.0,85.0,,,HRV,HRV_0269,2022-11-30 20:20:59
,wl-rdm,203,572815,0.0-8.85-0.85,1.0,203.0,,,,,,,[],,,,,,73.6,0.0,u,0.0,True,856.4000000953674,52.0,60.0,40.0,False,,250.3604161449308,[],"[960, 540]",ColorTask,123.0,86.0,,,HRV,HRV_0269,2022-11-30 20:20:59
,wl-rdm,204,575032,0.0-8.86-0.86,1.0,204.0,,,,,,,[],,,,,,73.6,0.0,u,0.0,True,897.3999999761581,54.0,60.0,40.0,False,,249.4778871321811,[],"[960, 540]",ColorTask,124.0,87.0,,,HRV,HRV_0269,2022-11-30 20:20:59
,wl-rdm,205,578082,0.0-8.87-0.87,1.0,205.0,,,,,,,[],,,,,,53.2,1.0,i,1.0,True,1637.1000000238419,99.0,60.0,40.0,False,,322.61651925343233,[],"[960, 540]",ColorTask,125.0,88.0,,,HRV,HRV_0269,2022-11-30 20:20:59
,wl-rdm,206,580482,0.0-8.88-0.88,1.0,206.0,,,,,,,[],,,,,,50.0,0.0,u,0.0,True,1119.7999999523163,68.0,60.0,40.0,False,,205.92878849511382,[],"[960, 540]",ColorTask,126.0,89.0,,,HRV,HRV_0269,2022-11-30 20:20:59
,wl-rdm,207,582482,0.0-8.89-0.89,1.0,207.0,,,,,,,[],,,,,,62.5,1.0,i,1.0,True,695.0999999046326,42.0,60.0,40.0,False,,221.34512362199652,[],"[960, 540]",ColorTask,127.0,90.0,,,HRV,HRV_0269,2022-11-30 20:20:59
,wl-rdm,208,585916,0.0-8.90-0.90,1.0,208.0,,,,,,,[],,,,,,50.0,1.0,u,0.0,False,2043.6000000238419,123.0,60.0,40.0,False,,302.41445935177245,[],"[960, 540]",ColorTask,126.0,91.0,,,HRV,HRV_0269,2022-11-30 20:20:59
,wl-rdm,209,588366,0.0-8.91-0.91,1.0,209.0,,,,,,,[],,,,,,73.6,0.0,u,0.0,True,1141.5999999046326,69.0,60.0,40.0,False,,220.73506725659513,[],"[960, 540]",ColorTask,127.0,92.0,,,HRV,HRV_0269,2022-11-30 20:20:59
,wl-rdm,210,590871,0.0-8.92-0.92,1.0,210.0,,,,,,,[],,,,,,53.2,0.0,i,1.0,False,1103.6999999284744,67.0,60.0,40.0,False,,329.60546365489563,[],"[960, 540]",ColorTask,126.0,93.0,,,HRV,HRV_0269,2022-11-30 20:20:59
,wl-rdm,211,593349,0.0-8.93-0.93,1.0,211.0,,,,,,,[],,,,,,56.4,1.0,i,1.0,True,1091.1000000238419,66.0,60.0,40.0,False,,319.58288845833937,[],"[960, 540]",ColorTask,127.0,94.0,,,HRV,HRV_0269,2022-11-30 20:20:59
,wl-rdm,212,595599,0.0-8.94-0.94,1.0,212.0,,,,,,,[],,,,,,62.5,0.0,u,0.0,True,963.0,59.0,60.0,40.0,False,,205.0709878621917,[],"[960, 540]",ColorTask,128.0,95.0,,,HRV,HRV_0269,2022-11-30 20:20:59
,wl-rdm,213,597866,0.0-8.95-0.95,1.0,213.0,,,,,,,[],,,,,,87.9,0.0,u,0.0,True,852.8999999761581,52.0,60.0,40.0,False,,345.1689164993155,[],"[960, 540]",ColorTask,129.0,96.0,,,HRV,HRV_0269,2022-11-30 20:20:59
,wl-rdm,214,599949,0.0-8.96-0.96,1.0,214.0,,,,,,,[],,,,,,73.6,1.0,i,1.0,True,799.1000000238419,48.0,60.0,40.0,False,,228.7724569808792,[],"[960, 540]",ColorTask,130.0,97.0,,,HRV,HRV_0269,2022-11-30 20:20:59
,wl-rdm,215,601916,0.0-8.97-0.97,1.0,215.0,,,,,,,[],,,,,,87.9,0.0,u,0.0,True,636.0000001192093,39.0,60.0,40.0,False,,233.5087692254574,[],"[960, 540]",ColorTask,131.0,98.0,,,HRV,HRV_0269,2022-11-30 20:20:59
,wl-rdm,216,604317,0.0-8.98-0.98,1.0,216.0,,,,,,,[],,,,,,56.4,1.0,i,1.0,True,985.0,60.0,60.0,40.0,False,,336.42061380534864,[],"[960, 540]",ColorTask,132.0,99.0,,,HRV,HRV_0269,2022-11-30 20:20:59
,wl-rdm,217,606366,0.0-8.99-0.99,1.0,217.0,,,,,,,[],,,,,,56.4,1.0,i,1.0,True,765.2999999523163,46.0,60.0,40.0,False,,215.94944706088722,[],"[960, 540]",ColorTask,133.0,100.0,,,HRV,HRV_0269,2022-11-30 20:20:59
,wl-rdm,218,608817,0.0-8.100-0.100,1.0,218.0,,,,,,,[],,,,,,62.5,0.0,u,0.0,True,1013.0000001192093,61.0,60.0,40.0,False,,363.794310473211,[],"[960, 540]",ColorTask,134.0,101.0,,,HRV,HRV_0269,2022-11-30 20:20:59
,wl-rdm,219,611117,0.0-8.101-0.101,1.0,219.0,,,,,,,[],,,,,,56.4,0.0,u,0.0,True,918.5999999046326,56.0,60.0,40.0,False,,296.97705207830575,[],"[960, 540]",ColorTask,135.0,102.0,,,HRV,HRV_0269,2022-11-30 20:20:59
,wl-rdm,220,613263,0.0-8.102-0.102,1.0,220.0,,,,,,,[],,,,,,87.9,0.0,u,0.0,True,795.6000000238419,48.0,60.0,40.0,False,,264.8095662833287,[],"[960, 540]",ColorTask,136.0,103.0,,,HRV,HRV_0269,2022-11-30 20:20:59
,wl-rdm,221,615817,0.0-8.103-0.103,1.0,221.0,,,,,,,[],,,,,,50.0,0.0,i,1.0,False,1209.2999999523163,73.0,60.0,40.0,False,,280.6731496852548,[],"[960, 540]",ColorTask,135.0,104.0,,,HRV,HRV_0269,2022-11-30 20:20:59
,wl-rdm,222,618334,0.0-8.104-0.104,1.0,222.0,,,,,,,[],,,,,,73.6,1.0,i,1.0,True,1101.6000000238419,67.0,60.0,40.0,False,,322.59043169692677,[],"[960, 540]",ColorTask,136.0,105.0,,,HRV,HRV_0269,2022-11-30 20:20:59
,wl-rdm,223,621551,0.0-8.105-0.105,1.0,223.0,,,,,,,[],,,,,,50.0,0.0,u,0.0,True,1865.5000001192093,112.0,60.0,40.0,False,,270.065199454674,[],"[960, 540]",ColorTask,137.0,106.0,,,HRV,HRV_0269,2022-11-30 20:20:59
,wl-rdm,224,624217,0.0-8.106-0.106,1.0,224.0,,,,,,,[],,,,,,50.0,1.0,u,0.0,False,1245.8000000715256,75.0,60.0,40.0,False,,360.61145044018383,[],"[960, 540]",ColorTask,136.0,107.0,,,HRV,HRV_0269,2022-11-30 20:20:59
,wl-rdm,225,626468,0.0-8.107-0.107,1.0,225.0,,,,,,,[],,,,,,87.9,1.0,i,1.0,True,869.4000000953674,53.0,60.0,40.0,False,,300.16132892219855,[],"[960, 540]",ColorTask,137.0,108.0,,,HRV,HRV_0269,2022-11-30 20:20:59
,wl-html-button-response,226,629514,0.0-9.0-0.0,,,,,,,,,,3041.1999999284744,,0,,,,,,,,,,,,,,,,,,,,<h3>End of this session. Thank you!</h3><br>,['Close window'],HRV,HRV_0269,2022-11-30 20:20:59
