trialN,stimuli,trialStartTime,trialStartTime_UNIX,stimulus1,stimulus2,stimulus1Bid,stimulus2Bid,delta,selected,rt,rt_UNIX,rt_perfnow,receivedResponse,rsp,trialEndTime,trialDuration,trialEndTime_UNIX,trialDuration_UNIX,exp,subjectId,date
0,"[{'imgObject': {}, 'id': 'cheerios', 'src': '/static/foodstim60/cheerios.jpg', 'key': 'u', 'origWidth': 409, 'origHeight': 410, 'width': 409, 'height': 410, 'widthPercent': 0.45, 'rescaleHeight': False, 'trialN': 0, 'loaded': True, 'loadedTime': 3564.7999999523163, 'positionName': 'LEFT', 'positionCoords': [512.6, 335], 'bid': 0.88}, {'imgObject': {}, 'id': 'sweetpotato', 'src': '/static/foodstim60/sweetpotato.jpg', 'key': 'i', 'origWidth': 410, 'origHeight': 410, 'width': 410, 'height': 410, 'widthPercent': 0.45, 'rescaleHeight': False, 'trialN': 0, 'loaded': True, 'loadedTime': 3679.100000023842, 'positionName': 'RIGHT', 'positionCoords': [998.4, 335], 'bid': 0.13}]",4248.600000023842,1669838715336,cheerios,sweetpotato,0.88,0.13,-0.75,sweetpotato,1481.0,1482,1481.5,True,i,6239.799999952316,1991.1999999284744,1669838717327,1991,HRV,HRV_0269,2022-11-30 20:10:24
1,"[{'imgObject': {}, 'id': 'salad w chicken', 'src': '/static/foodstim60/salad w chicken.jpg', 'key': 'u', 'origWidth': 411, 'origHeight': 411, 'width': 411, 'height': 411, 'widthPercent': 0.45, 'rescaleHeight': False, 'trialN': 1, 'loaded': True, 'loadedTime': 3725.399999976158, 'positionName': 'LEFT', 'positionCoords': [510.6, 334.5], 'bid': 6.71}, {'imgObject': {}, 'id': 'mac & cheese', 'src': '/static/foodstim60/mac & cheese.jpg', 'key': 'i', 'origWidth': 410, 'origHeight': 410, 'width': 410, 'height': 410, 'widthPercent': 0.45, 'rescaleHeight': False, 'trialN': 1, 'loaded': True, 'loadedTime': 3748.5, 'positionName': 'RIGHT', 'positionCoords': [998.4, 335], 'bid': 9.98}]",6240.100000023842,1669838717328,salad w chicken,mac & cheese,6.71,9.98,3.2700000000000005,salad w chicken,841.7999999523163,842,842.0999999046326,True,u,7593.899999976158,1353.7999999523163,1669838718682,1354,HRV,HRV_0269,2022-11-30 20:10:24
2,"[{'imgObject': {}, 'id': 'eggsalad', 'src': '/static/foodstim60/eggsalad.jpg', 'key': 'u', 'origWidth': 410, 'origHeight': 409, 'width': 410, 'height': 409, 'widthPercent': 0.45, 'rescaleHeight': False, 'trialN': 2, 'loaded': True, 'loadedTime': 3759.6999999284744, 'positionName': 'LEFT', 'positionCoords': [511.6, 335.5], 'bid': 4.97}, {'imgObject': {}, 'id': 'cherries', 'src': '/static/foodstim60/cherries.jpg', 'key': 'i', 'origWidth': 410, 'origHeight': 411, 'width': 410, 'height': 411, 'widthPercent': 0.45, 'rescaleHeight': False, 'trialN': 2, 'loaded': True, 'loadedTime': 3780.6999999284744, 'positionName': 'RIGHT', 'positionCoords': [998.4, 334.5], 'bid': 6.01}]",7594.199999928474,1669838718682,eggsalad,cherries,4.97,6.01,1.04,eggsalad,1039.6000000238419,1040,1040.0,True,u,9139.600000023842,1545.4000000953674,1669838720227,1545,HRV,HRV_0269,2022-11-30 20:10:24
3,"[{'imgObject': {}, 'id': 'granola w milk', 'src': '/static/foodstim60/granola w milk.jpg', 'key': 'u', 'origWidth': 410, 'origHeight': 410, 'width': 410, 'height': 410, 'widthPercent': 0.45, 'rescaleHeight': False, 'trialN': 3, 'loaded': True, 'loadedTime': 3826, 'positionName': 'LEFT', 'positionCoords': [511.6, 335], 'bid': 0.4}, {'imgObject': {}, 'id': 'mashed potato', 'src': '/static/foodstim60/mashed potato.jpg', 'key': 'i', 'origWidth': 409, 'origHeight': 409, 'width': 409, 'height': 409, 'widthPercent': 0.45, 'rescaleHeight': False, 'trialN': 3, 'loaded': True, 'loadedTime': 3847.899999976158, 'positionName': 'RIGHT', 'positionCoords': [998.4, 335.5], 'bid': 7.4}]",9139.899999976158,1669838720228,granola w milk,mashed potato,0.4,7.4,7.0,mashed potato,845.7000000476837,846,846.2000000476837,True,i,10495.399999976158,1355.5,1669838721583,1355,HRV,HRV_0269,2022-11-30 20:10:24
4,"[{'imgObject': {}, 'id': 'veggieswithdip', 'src': '/static/foodstim60/veggieswithdip.jpg', 'key': 'u', 'origWidth': 409, 'origHeight': 409, 'width': 409, 'height': 409, 'widthPercent': 0.45, 'rescaleHeight': False, 'trialN': 4, 'loaded': True, 'loadedTime': 3851.100000023842, 'positionName': 'LEFT', 'positionCoords': [512.6, 335.5], 'bid': 0.06}, {'imgObject': {}, 'id': 'pear', 'src': '/static/foodstim60/pear.jpg', 'key': 'i', 'origWidth': 411, 'origHeight': 410, 'width': 411, 'height': 410, 'widthPercent': 0.45, 'rescaleHeight': False, 'trialN': 4, 'loaded': True, 'loadedTime': 3882.600000023842, 'positionName': 'RIGHT', 'positionCoords': [998.4, 335], 'bid': 0.62}]",10495.899999976158,1669838721584,veggieswithdip,pear,0.06,0.62,0.56,pear,850.0,850,850.2999999523163,True,i,11861.399999976158,1365.5,1669838722949,1365,HRV,HRV_0269,2022-11-30 20:10:24
5,"[{'imgObject': {}, 'id': 'cherries', 'src': '/static/foodstim60/cherries.jpg', 'key': 'u', 'origWidth': 410, 'origHeight': 411, 'width': 410, 'height': 411, 'widthPercent': 0.45, 'rescaleHeight': False, 'trialN': 5, 'loaded': True, 'loadedTime': 3781.100000023842, 'positionName': 'LEFT', 'positionCoords': [511.6, 334.5], 'bid': 6.01}, {'imgObject': {}, 'id': 'blueberries', 'src': '/static/foodstim60/blueberries.jpg', 'key': 'i', 'origWidth': 411, 'origHeight': 411, 'width': 411, 'height': 411, 'widthPercent': 0.45, 'rescaleHeight': False, 'trialN': 5, 'loaded': True, 'loadedTime': 3901.5, 'positionName': 'RIGHT', 'positionCoords': [998.4, 334.5], 'bid': 0}]",11861.699999928474,1669838722949,cherries,blueberries,6.01,0.0,-6.01,cherries,867.9000000953674,869,868.4000000953674,True,u,13246.899999976158,1385.2000000476837,1669838724334,1385,HRV,HRV_0269,2022-11-30 20:10:24
6,"[{'imgObject': {}, 'id': 'Tribe humus pita', 'src': '/static/foodstim60/Tribe humus pita.jpg', 'key': 'u', 'origWidth': 411, 'origHeight': 411, 'width': 411, 'height': 411, 'widthPercent': 0.45, 'rescaleHeight': False, 'trialN': 6, 'loaded': True, 'loadedTime': 3909.6999999284744, 'positionName': 'LEFT', 'positionCoords': [510.6, 334.5], 'bid': 6.66}, {'imgObject': {}, 'id': 'ice cream sundae 002', 'src': '/static/foodstim60/ice cream sundae 002.jpg', 'key': 'i', 'origWidth': 409, 'origHeight': 409, 'width': 409, 'height': 409, 'widthPercent': 0.45, 'rescaleHeight': False, 'trialN': 6, 'loaded': True, 'loadedTime': 3930, 'positionName': 'RIGHT', 'positionCoords': [998.4, 335.5], 'bid': 6.08}]",13247.100000023842,1669838724335,Tribe humus pita,ice cream sundae 002,6.66,6.08,-0.5800000000000001,Tribe humus pita,1066.5,1100,1100.0,True,u,14859.5,1612.3999999761581,1669838725947,1612,HRV,HRV_0269,2022-11-30 20:10:24
7,"[{'imgObject': {}, 'id': 'tacos', 'src': '/static/foodstim60/tacos.jpg', 'key': 'u', 'origWidth': 411, 'origHeight': 411, 'width': 411, 'height': 411, 'widthPercent': 0.45, 'rescaleHeight': False, 'trialN': 7, 'loaded': True, 'loadedTime': 3948.399999976158, 'positionName': 'LEFT', 'positionCoords': [510.6, 334.5], 'bid': 9.97}, {'imgObject': {}, 'id': 'mashed potato', 'src': '/static/foodstim60/mashed potato.jpg', 'key': 'i', 'origWidth': 409, 'origHeight': 409, 'width': 409, 'height': 409, 'widthPercent': 0.45, 'rescaleHeight': False, 'trialN': 7, 'loaded': True, 'loadedTime': 3826.2999999523163, 'positionName': 'RIGHT', 'positionCoords': [998.4, 335.5], 'bid': 7.4}]",14859.799999952316,1669838725947,tacos,mashed potato,9.97,7.4,-2.5700000000000003,tacos,1029.8000000715256,1031,1030.2000000476837,True,u,16395.799999952316,1536.0,1669838727483,1536,HRV,HRV_0269,2022-11-30 20:10:24
8,"[{'imgObject': {}, 'id': 'froot loops w milk', 'src': '/static/foodstim60/froot loops w milk.jpg', 'key': 'u', 'origWidth': 410, 'origHeight': 410, 'width': 410, 'height': 410, 'widthPercent': 0.45, 'rescaleHeight': False, 'trialN': 8, 'loaded': True, 'loadedTime': 3975.7999999523163, 'positionName': 'LEFT', 'positionCoords': [511.6, 335], 'bid': 0.02}, {'imgObject': {}, 'id': 'cantaloupe', 'src': '/static/foodstim60/cantaloupe.jpg', 'key': 'i', 'origWidth': 409, 'origHeight': 409, 'width': 409, 'height': 409, 'widthPercent': 0.45, 'rescaleHeight': False, 'trialN': 8, 'loaded': True, 'loadedTime': 3996.2999999523163, 'positionName': 'RIGHT', 'positionCoords': [998.4, 335.5], 'bid': 0}]",16396.199999928474,1669838727484,froot loops w milk,cantaloupe,0.02,0.0,-0.02,froot loops w milk,1005.8000000715256,1006,1006.2000000476837,True,u,17917.699999928474,1521.5,1669838729005,1521,HRV,HRV_0269,2022-11-30 20:10:24
9,"[{'imgObject': {}, 'id': 'popsicles', 'src': '/static/foodstim60/popsicles.jpg', 'key': 'u', 'origWidth': 410, 'origHeight': 410, 'width': 410, 'height': 410, 'widthPercent': 0.45, 'rescaleHeight': False, 'trialN': 9, 'loaded': True, 'loadedTime': 4246.100000023842, 'positionName': 'LEFT', 'positionCoords': [511.6, 335], 'bid': 0}, {'imgObject': {}, 'id': 'avocado', 'src': '/static/foodstim60/avocado.jpg', 'key': 'i', 'origWidth': 409, 'origHeight': 409, 'width': 409, 'height': 409, 'widthPercent': 0.45, 'rescaleHeight': False, 'trialN': 9, 'loaded': True, 'loadedTime': 4006.2999999523163, 'positionName': 'RIGHT', 'positionCoords': [998.4, 335.5], 'bid': 5.89}]",17917.899999976158,1669838729006,popsicles,avocado,0.0,5.89,5.89,avocado,907.8999999761581,908,908.2999999523163,True,i,19332.199999928474,1414.2999999523163,1669838730420,1414,HRV,HRV_0269,2022-11-30 20:10:24
10,"[{'imgObject': {}, 'id': 'salad w chicken', 'src': '/static/foodstim60/salad w chicken.jpg', 'key': 'u', 'origWidth': 411, 'origHeight': 411, 'width': 411, 'height': 411, 'widthPercent': 0.45, 'rescaleHeight': False, 'trialN': 10, 'loaded': True, 'loadedTime': 3724.899999976158, 'positionName': 'LEFT', 'positionCoords': [510.6, 334.5], 'bid': 6.71}, {'imgObject': {}, 'id': 'eggs', 'src': '/static/foodstim60/eggs.jpg', 'key': 'i', 'origWidth': 409, 'origHeight': 409, 'width': 409, 'height': 409, 'widthPercent': 0.45, 'rescaleHeight': False, 'trialN': 10, 'loaded': True, 'loadedTime': 4015.600000023842, 'positionName': 'RIGHT', 'positionCoords': [998.4, 335.5], 'bid': 6.53}]",19332.399999976158,1669838730420,salad w chicken,eggs,6.71,6.53,-0.17999999999999972,salad w chicken,917.2999999523163,918,917.7999999523163,True,u,20753.0,1420.6000000238419,1669838731841,1421,HRV,HRV_0269,2022-11-30 20:10:24
11,"[{'imgObject': {}, 'id': 'mashed potato', 'src': '/static/foodstim60/mashed potato.jpg', 'key': 'u', 'origWidth': 409, 'origHeight': 409, 'width': 409, 'height': 409, 'widthPercent': 0.45, 'rescaleHeight': False, 'trialN': 11, 'loaded': True, 'loadedTime': 3837.100000023842, 'positionName': 'LEFT', 'positionCoords': [512.6, 335.5], 'bid': 7.4}, {'imgObject': {}, 'id': 'corn cob', 'src': '/static/foodstim60/corn cob.jpg', 'key': 'i', 'origWidth': 411, 'origHeight': 411, 'width': 411, 'height': 411, 'widthPercent': 0.45, 'rescaleHeight': False, 'trialN': 11, 'loaded': True, 'loadedTime': 4026.100000023842, 'positionName': 'RIGHT', 'positionCoords': [998.4, 334.5], 'bid': 7.28}]",20753.100000023842,1669838731841,mashed potato,corn cob,7.4,7.28,-0.1200000000000001,mashed potato,817.5999999046326,818,818.0,True,u,22088.799999952316,1335.6999999284744,1669838733176,1335,HRV,HRV_0269,2022-11-30 20:10:24
12,"[{'imgObject': {}, 'id': 'luckycharms', 'src': '/static/foodstim60/luckycharms.jpg', 'key': 'u', 'origWidth': 410, 'origHeight': 409, 'width': 410, 'height': 409, 'widthPercent': 0.45, 'rescaleHeight': False, 'trialN': 12, 'loaded': True, 'loadedTime': 4044.5, 'positionName': 'LEFT', 'positionCoords': [511.6, 335.5], 'bid': 0.02}, {'imgObject': {}, 'id': 'burger', 'src': '/static/foodstim60/burger.jpg', 'key': 'i', 'origWidth': 409, 'origHeight': 409, 'width': 409, 'height': 409, 'widthPercent': 0.45, 'rescaleHeight': False, 'trialN': 12, 'loaded': True, 'loadedTime': 4045.5, 'positionName': 'RIGHT', 'positionCoords': [998.4, 335.5], 'bid': 0}]",22089.199999928474,1669838733177,luckycharms,burger,0.02,0.0,-0.02,burger,736.8000000715256,737,737.3000000715256,True,i,23341.299999952316,1252.1000000238419,1669838734429,1252,HRV,HRV_0269,2022-11-30 20:10:24
13,"[{'imgObject': {}, 'id': 'rigatoni and sauce', 'src': '/static/foodstim60/rigatoni and sauce.jpg', 'key': 'u', 'origWidth': 410, 'origHeight': 411, 'width': 410, 'height': 411, 'widthPercent': 0.45, 'rescaleHeight': False, 'trialN': 13, 'loaded': True, 'loadedTime': 4057.7999999523163, 'positionName': 'LEFT', 'positionCoords': [511.6, 334.5], 'bid': 4.98}, {'imgObject': {}, 'id': 'lox', 'src': '/static/foodstim60/lox.jpg', 'key': 'i', 'origWidth': 410, 'origHeight': 411, 'width': 410, 'height': 411, 'widthPercent': 0.45, 'rescaleHeight': False, 'trialN': 13, 'loaded': True, 'loadedTime': 4067.2999999523163, 'positionName': 'RIGHT', 'positionCoords': [998.4, 334.5], 'bid': 4.95}]",23341.600000023842,1669838734429,rigatoni and sauce,lox,4.98,4.95,-0.03000000000000025,rigatoni and sauce,1005.0999999046326,1006,1005.5999999046326,True,u,24868.100000023842,1526.5,1669838735956,1527,HRV,HRV_0269,2022-11-30 20:10:24
14,"[{'imgObject': {}, 'id': 'rigatoni', 'src': '/static/foodstim60/rigatoni.jpg', 'key': 'u', 'origWidth': 411, 'origHeight': 411, 'width': 411, 'height': 411, 'widthPercent': 0.45, 'rescaleHeight': False, 'trialN': 14, 'loaded': True, 'loadedTime': 4067.2999999523163, 'positionName': 'LEFT', 'positionCoords': [510.6, 334.5], 'bid': 5.01}, {'imgObject': {}, 'id': 'omelette', 'src': '/static/foodstim60/omelette.jpg', 'key': 'i', 'origWidth': 410, 'origHeight': 409, 'width': 410, 'height': 409, 'widthPercent': 0.45, 'rescaleHeight': False, 'trialN': 14, 'loaded': True, 'loadedTime': 4085.6999999284744, 'positionName': 'RIGHT', 'positionCoords': [998.4, 335.5], 'bid': 5.01}]",24868.799999952316,1669838735956,rigatoni,omelette,5.01,5.01,0.0,rigatoni,1276.8000000715256,1278,1277.5,True,u,26653.100000023842,1784.3000000715256,1669838737741,1785,HRV,HRV_0269,2022-11-30 20:10:24
15,"[{'imgObject': {}, 'id': 'cheerios', 'src': '/static/foodstim60/cheerios.jpg', 'key': 'u', 'origWidth': 409, 'origHeight': 410, 'width': 409, 'height': 410, 'widthPercent': 0.45, 'rescaleHeight': False, 'trialN': 15, 'loaded': True, 'loadedTime': 3450.899999976158, 'positionName': 'LEFT', 'positionCoords': [512.6, 335], 'bid': 0.88}, {'imgObject': {}, 'id': 'roastedpotatoes', 'src': '/static/foodstim60/roastedpotatoes.jpg', 'key': 'i', 'origWidth': 409, 'origHeight': 410, 'width': 409, 'height': 410, 'widthPercent': 0.45, 'rescaleHeight': False, 'trialN': 15, 'loaded': True, 'loadedTime': 4106.399999976158, 'positionName': 'RIGHT', 'positionCoords': [998.4, 335], 'bid': 8.89}]",26653.399999976158,1669838737741,cheerios,roastedpotatoes,0.88,8.89,8.01,roastedpotatoes,812.2000000476837,813,812.7000000476837,True,i,27970.799999952316,1317.3999999761581,1669838739058,1317,HRV,HRV_0269,2022-11-30 20:10:24
16,"[{'imgObject': {}, 'id': 'cantaloupe', 'src': '/static/foodstim60/cantaloupe.jpg', 'key': 'u', 'origWidth': 409, 'origHeight': 409, 'width': 409, 'height': 409, 'widthPercent': 0.45, 'rescaleHeight': False, 'trialN': 16, 'loaded': True, 'loadedTime': 3996.2999999523163, 'positionName': 'LEFT', 'positionCoords': [512.6, 335.5], 'bid': 0}, {'imgObject': {}, 'id': 'cocktailshrimp', 'src': '/static/foodstim60/cocktailshrimp.jpg', 'key': 'i', 'origWidth': 410, 'origHeight': 410, 'width': 410, 'height': 410, 'widthPercent': 0.45, 'rescaleHeight': False, 'trialN': 16, 'loaded': True, 'loadedTime': 3604.1999999284744, 'positionName': 'RIGHT', 'positionCoords': [998.4, 335], 'bid': 0}]",27971.0,1669838739059,cantaloupe,cocktailshrimp,0.0,0.0,0.0,cantaloupe,1006.7999999523163,1007,1007.5,True,u,29490.5,1519.5,1669838740578,1519,HRV,HRV_0269,2022-11-30 20:10:24
17,"[{'imgObject': {}, 'id': 'baked potato', 'src': '/static/foodstim60/baked potato.jpg', 'key': 'u', 'origWidth': 409, 'origHeight': 410, 'width': 409, 'height': 410, 'widthPercent': 0.45, 'rescaleHeight': False, 'trialN': 17, 'loaded': True, 'loadedTime': 3631.399999976158, 'positionName': 'LEFT', 'positionCoords': [512.6, 335], 'bid': 5.57}, {'imgObject': {}, 'id': 'cherry tomato', 'src': '/static/foodstim60/cherry tomato.jpg', 'key': 'i', 'origWidth': 410, 'origHeight': 410, 'width': 410, 'height': 410, 'widthPercent': 0.45, 'rescaleHeight': False, 'trialN': 17, 'loaded': True, 'loadedTime': 3664.1999999284744, 'positionName': 'RIGHT', 'positionCoords': [998.4, 335], 'bid': 5.04}]",29490.899999976158,1669838740578,baked potato,cherry tomato,5.57,5.04,-0.5300000000000002,cherry tomato,1159.0,1174,1173.0,True,i,31175.799999952316,1684.8999999761581,1669838742264,1686,HRV,HRV_0269,2022-11-30 20:10:24
18,"[{'imgObject': {}, 'id': 'burrito', 'src': '/static/foodstim60/burrito.jpg', 'key': 'u', 'origWidth': 410, 'origHeight': 410, 'width': 410, 'height': 410, 'widthPercent': 0.45, 'rescaleHeight': False, 'trialN': 18, 'loaded': True, 'loadedTime': 3688.399999976158, 'positionName': 'LEFT', 'positionCoords': [511.6, 335], 'bid': 0.01}, {'imgObject': {}, 'id': 'ice cream sundae 002', 'src': '/static/foodstim60/ice cream sundae 002.jpg', 'key': 'i', 'origWidth': 409, 'origHeight': 409, 'width': 409, 'height': 409, 'widthPercent': 0.45, 'rescaleHeight': False, 'trialN': 18, 'loaded': True, 'loadedTime': 3930, 'positionName': 'RIGHT', 'positionCoords': [998.4, 335.5], 'bid': 6.08}]",31176.100000023842,1669838742264,burrito,ice cream sundae 002,0.01,6.08,6.07,ice cream sundae 002,922.0999999046326,923,923.2999999523163,True,i,32613.399999976158,1437.2999999523163,1669838743701,1437,HRV,HRV_0269,2022-11-30 20:10:24
19,"[{'imgObject': {}, 'id': 'chickenfingers', 'src': '/static/foodstim60/chickenfingers.jpg', 'key': 'u', 'origWidth': 410, 'origHeight': 410, 'width': 410, 'height': 410, 'widthPercent': 0.45, 'rescaleHeight': False, 'trialN': 19, 'loaded': True, 'loadedTime': 3804.6999999284744, 'positionName': 'LEFT', 'positionCoords': [511.6, 335], 'bid': 0.76}, {'imgObject': {}, 'id': 'granola w milk', 'src': '/static/foodstim60/granola w milk.jpg', 'key': 'i', 'origWidth': 410, 'origHeight': 410, 'width': 410, 'height': 410, 'widthPercent': 0.45, 'rescaleHeight': False, 'trialN': 19, 'loaded': True, 'loadedTime': 3816.7999999523163, 'positionName': 'RIGHT', 'positionCoords': [998.4, 335], 'bid': 0.4}]",32613.699999928474,1669838743701,chickenfingers,granola w milk,0.76,0.4,-0.36,chickenfingers,1004.7000000476837,1040,1039.6000000238419,True,u,34165.699999928474,1552.0,1669838745253,1552,HRV,HRV_0269,2022-11-30 20:10:24
20,"[{'imgObject': {}, 'id': 'luckycharms', 'src': '/static/foodstim60/luckycharms.jpg', 'key': 'u', 'origWidth': 410, 'origHeight': 409, 'width': 410, 'height': 409, 'widthPercent': 0.45, 'rescaleHeight': False, 'trialN': 20, 'loaded': True, 'loadedTime': 4045.1999999284744, 'positionName': 'LEFT', 'positionCoords': [511.6, 335.5], 'bid': 0.02}, {'imgObject': {}, 'id': 'chickenfingers', 'src': '/static/foodstim60/chickenfingers.jpg', 'key': 'i', 'origWidth': 410, 'origHeight': 410, 'width': 410, 'height': 410, 'widthPercent': 0.45, 'rescaleHeight': False, 'trialN': 20, 'loaded': True, 'loadedTime': 3793.899999976158, 'positionName': 'RIGHT', 'positionCoords': [998.4, 335], 'bid': 0.76}]",34165.89999997616,1669838745254,luckycharms,chickenfingers,0.02,0.76,0.74,chickenfingers,852.3999999761581,853,853.0,True,i,35529.89999997616,1364.0,1669838746618,1364,HRV,HRV_0269,2022-11-30 20:10:24
21,"[{'imgObject': {}, 'id': 'avocado', 'src': '/static/foodstim60/avocado.jpg', 'key': 'u', 'origWidth': 409, 'origHeight': 409, 'width': 409, 'height': 409, 'widthPercent': 0.45, 'rescaleHeight': False, 'trialN': 21, 'loaded': True, 'loadedTime': 3996.6999999284744, 'positionName': 'LEFT', 'positionCoords': [512.6, 335.5], 'bid': 5.89}, {'imgObject': {}, 'id': 'Grapes', 'src': '/static/foodstim60/Grapes.jpg', 'key': 'i', 'origWidth': 411, 'origHeight': 411, 'width': 411, 'height': 411, 'widthPercent': 0.45, 'rescaleHeight': False, 'trialN': 21, 'loaded': True, 'loadedTime': 3870.6999999284744, 'positionName': 'RIGHT', 'positionCoords': [998.4, 334.5], 'bid': 8.790000000000001}]",35530.39999997616,1669838746618,avocado,Grapes,5.89,8.790000000000001,2.9000000000000012,Grapes,975.2000000476837,976,975.7000000476837,True,i,37022.39999997616,1492.0,1669838748110,1492,HRV,HRV_0269,2022-11-30 20:10:24
22,"[{'imgObject': {}, 'id': 'shreddedwheatwithmilk', 'src': '/static/foodstim60/shreddedwheatwithmilk.jpg', 'key': 'u', 'origWidth': 410, 'origHeight': 410, 'width': 410, 'height': 410, 'widthPercent': 0.45, 'rescaleHeight': False, 'trialN': 22, 'loaded': True, 'loadedTime': 3940, 'positionName': 'LEFT', 'positionCoords': [511.6, 335], 'bid': 0.33}, {'imgObject': {}, 'id': 'granola w milk', 'src': '/static/foodstim60/granola w milk.jpg', 'key': 'i', 'origWidth': 410, 'origHeight': 410, 'width': 410, 'height': 410, 'widthPercent': 0.45, 'rescaleHeight': False, 'trialN': 22, 'loaded': True, 'loadedTime': 3817.1999999284744, 'positionName': 'RIGHT', 'positionCoords': [998.4, 335], 'bid': 0.4}]",37022.5,1669838748110,shreddedwheatwithmilk,granola w milk,0.33,0.4,0.07,shreddedwheatwithmilk,1091.1000000238419,1092,1091.7999999523163,True,u,38622.39999997616,1599.8999999761581,1669838749710,1600,HRV,HRV_0269,2022-11-30 20:10:24
23,"[{'imgObject': {}, 'id': 'kiwi', 'src': '/static/foodstim60/kiwi.jpg', 'key': 'u', 'origWidth': 410, 'origHeight': 410, 'width': 410, 'height': 410, 'widthPercent': 0.45, 'rescaleHeight': False, 'trialN': 23, 'loaded': True, 'loadedTime': 3958.600000023842, 'positionName': 'LEFT', 'positionCoords': [511.6, 335], 'bid': 5.0200000000000005}, {'imgObject': {}, 'id': 'fried eggs', 'src': '/static/foodstim60/fried eggs.jpg', 'key': 'i', 'origWidth': 410, 'origHeight': 410, 'width': 410, 'height': 410, 'widthPercent': 0.45, 'rescaleHeight': False, 'trialN': 23, 'loaded': True, 'loadedTime': 3994.5, 'positionName': 'RIGHT', 'positionCoords': [998.4, 335], 'bid': 5.01}]",38622.799999952316,1669838749710,kiwi,fried eggs,5.0200000000000005,5.01,-0.010000000000000675,fried eggs,922.7000000476837,923,923.0,True,i,40054.699999928474,1431.8999999761581,1669838751142,1432,HRV,HRV_0269,2022-11-30 20:10:24
24,"[{'imgObject': {}, 'id': 'mango', 'src': '/static/foodstim60/mango.jpg', 'key': 'u', 'origWidth': 411, 'origHeight': 411, 'width': 411, 'height': 411, 'widthPercent': 0.45, 'rescaleHeight': False, 'trialN': 24, 'loaded': True, 'loadedTime': 4095.7999999523163, 'positionName': 'LEFT', 'positionCoords': [510.6, 334.5], 'bid': 1.96}, {'imgObject': {}, 'id': 'froot loops w milk', 'src': '/static/foodstim60/froot loops w milk.jpg', 'key': 'i', 'origWidth': 410, 'origHeight': 410, 'width': 410, 'height': 410, 'widthPercent': 0.45, 'rescaleHeight': False, 'trialN': 24, 'loaded': True, 'loadedTime': 3983, 'positionName': 'RIGHT', 'positionCoords': [998.4, 335], 'bid': 0.02}]",40054.89999997616,1669838751143,mango,froot loops w milk,1.96,0.02,-1.94,mango,898.7999999523163,899,899.2999999523163,True,u,41466.10000002384,1411.2000000476837,1669838752554,1411,HRV,HRV_0269,2022-11-30 20:10:24
25,"[{'imgObject': {}, 'id': 'froot loops w milk', 'src': '/static/foodstim60/froot loops w milk.jpg', 'key': 'u', 'origWidth': 410, 'origHeight': 410, 'width': 410, 'height': 410, 'widthPercent': 0.45, 'rescaleHeight': False, 'trialN': 25, 'loaded': True, 'loadedTime': 3974.7999999523163, 'positionName': 'LEFT', 'positionCoords': [511.6, 335], 'bid': 0.02}, {'imgObject': {}, 'id': 'pear', 'src': '/static/foodstim60/pear.jpg', 'key': 'i', 'origWidth': 411, 'origHeight': 410, 'width': 411, 'height': 410, 'widthPercent': 0.45, 'rescaleHeight': False, 'trialN': 25, 'loaded': True, 'loadedTime': 3892.1999999284744, 'positionName': 'RIGHT', 'positionCoords': [998.4, 335], 'bid': 0.62}]",41466.5,1669838752554,froot loops w milk,pear,0.02,0.62,0.6,pear,863.3999999761581,876,875.6000000238419,True,i,42854.699999928474,1388.1999999284744,1669838753942,1388,HRV,HRV_0269,2022-11-30 20:10:24
26,"[{'imgObject': {}, 'id': 'orange slices', 'src': '/static/foodstim60/orange slices.jpg', 'key': 'u', 'origWidth': 409, 'origHeight': 410, 'width': 409, 'height': 410, 'widthPercent': 0.45, 'rescaleHeight': False, 'trialN': 26, 'loaded': True, 'loadedTime': 4117.199999928474, 'positionName': 'LEFT', 'positionCoords': [512.6, 335], 'bid': 6.82}, {'imgObject': {}, 'id': 'sweetpotato', 'src': '/static/foodstim60/sweetpotato.jpg', 'key': 'i', 'origWidth': 410, 'origHeight': 410, 'width': 410, 'height': 410, 'widthPercent': 0.45, 'rescaleHeight': False, 'trialN': 26, 'loaded': True, 'loadedTime': 3665.5, 'positionName': 'RIGHT', 'positionCoords': [998.4, 335], 'bid': 0.13}]",42854.799999952316,1669838753942,orange slices,sweetpotato,6.82,0.13,-6.69,orange slices,923.5,924,924.0,True,u,44293.39999997616,1438.6000000238419,1669838755381,1439,HRV,HRV_0269,2022-11-30 20:10:24
27,"[{'imgObject': {}, 'id': 'burrito', 'src': '/static/foodstim60/burrito.jpg', 'key': 'u', 'origWidth': 410, 'origHeight': 410, 'width': 410, 'height': 410, 'widthPercent': 0.45, 'rescaleHeight': False, 'trialN': 27, 'loaded': True, 'loadedTime': 3698.899999976158, 'positionName': 'LEFT', 'positionCoords': [511.6, 335], 'bid': 0.01}, {'imgObject': {}, 'id': 'popsicles', 'src': '/static/foodstim60/popsicles.jpg', 'key': 'i', 'origWidth': 410, 'origHeight': 410, 'width': 410, 'height': 410, 'widthPercent': 0.45, 'rescaleHeight': False, 'trialN': 27, 'loaded': True, 'loadedTime': 4247.699999928474, 'positionName': 'RIGHT', 'positionCoords': [998.4, 335], 'bid': 0}]",44293.699999928474,1669838755381,burrito,popsicles,0.01,0.0,-0.01,popsicles,1084.8000000715256,1096,1095.6000000238419,True,i,45898.5,1604.8000000715256,1669838756986,1605,HRV,HRV_0269,2022-11-30 20:10:24
28,"[{'imgObject': {}, 'id': 'blueberries', 'src': '/static/foodstim60/blueberries.jpg', 'key': 'u', 'origWidth': 411, 'origHeight': 411, 'width': 411, 'height': 411, 'widthPercent': 0.45, 'rescaleHeight': False, 'trialN': 28, 'loaded': True, 'loadedTime': 3902, 'positionName': 'LEFT', 'positionCoords': [510.6, 334.5], 'bid': 0}, {'imgObject': {}, 'id': 'edamame', 'src': '/static/foodstim60/edamame.jpg', 'key': 'i', 'origWidth': 409, 'origHeight': 410, 'width': 409, 'height': 410, 'widthPercent': 0.45, 'rescaleHeight': False, 'trialN': 28, 'loaded': True, 'loadedTime': 4127.5, 'positionName': 'RIGHT', 'positionCoords': [998.4, 335], 'bid': 0.22}]",45898.699999928474,1669838756986,blueberries,edamame,0.0,0.22,0.22,edamame,943.1000000238419,944,943.6000000238419,True,i,47360.89999997616,1462.2000000476837,1669838758448,1462,HRV,HRV_0269,2022-11-30 20:10:24
29,"[{'imgObject': {}, 'id': 'mango', 'src': '/static/foodstim60/mango.jpg', 'key': 'u', 'origWidth': 411, 'origHeight': 411, 'width': 411, 'height': 411, 'widthPercent': 0.45, 'rescaleHeight': False, 'trialN': 29, 'loaded': True, 'loadedTime': 4096.299999952316, 'positionName': 'LEFT', 'positionCoords': [510.6, 334.5], 'bid': 1.96}, {'imgObject': {}, 'id': 'granola w milk', 'src': '/static/foodstim60/granola w milk.jpg', 'key': 'i', 'origWidth': 410, 'origHeight': 410, 'width': 410, 'height': 410, 'widthPercent': 0.45, 'rescaleHeight': False, 'trialN': 29, 'loaded': True, 'loadedTime': 3825.399999976158, 'positionName': 'RIGHT', 'positionCoords': [998.4, 335], 'bid': 0.4}]",47361.199999928474,1669838758449,mango,granola w milk,1.96,0.4,-1.56,mango,1112.4000000953674,1112,1112.8000000715256,True,u,48980.10000002384,1618.9000000953674,1669838760067,1618,HRV,HRV_0269,2022-11-30 20:10:24
30,"[{'imgObject': {}, 'id': 'raisin bran w milk', 'src': '/static/foodstim60/raisin bran w milk.jpg', 'key': 'u', 'origWidth': 411, 'origHeight': 411, 'width': 411, 'height': 411, 'widthPercent': 0.45, 'rescaleHeight': False, 'trialN': 30, 'loaded': True, 'loadedTime': 4138.699999928474, 'positionName': 'LEFT', 'positionCoords': [510.6, 334.5], 'bid': 0.1}, {'imgObject': {}, 'id': 'veggieswithdip', 'src': '/static/foodstim60/veggieswithdip.jpg', 'key': 'i', 'origWidth': 409, 'origHeight': 409, 'width': 409, 'height': 409, 'widthPercent': 0.45, 'rescaleHeight': False, 'trialN': 30, 'loaded': True, 'loadedTime': 3850.7999999523163, 'positionName': 'RIGHT', 'positionCoords': [998.4, 335.5], 'bid': 0.06}]",48980.5,1669838760068,raisin bran w milk,veggieswithdip,0.1,0.06,-0.04000000000000001,raisin bran w milk,1149.1999999284744,1150,1149.7999999523163,True,u,50636.60000002384,1656.1000000238419,1669838761724,1656,HRV,HRV_0269,2022-11-30 20:10:24
31,"[{'imgObject': {}, 'id': 'rigatoni and sauce', 'src': '/static/foodstim60/rigatoni and sauce.jpg', 'key': 'u', 'origWidth': 410, 'origHeight': 411, 'width': 410, 'height': 411, 'widthPercent': 0.45, 'rescaleHeight': False, 'trialN': 31, 'loaded': True, 'loadedTime': 4055.899999976158, 'positionName': 'LEFT', 'positionCoords': [511.6, 334.5], 'bid': 4.98}, {'imgObject': {}, 'id': 'cherry tomato', 'src': '/static/foodstim60/cherry tomato.jpg', 'key': 'i', 'origWidth': 410, 'origHeight': 410, 'width': 410, 'height': 410, 'widthPercent': 0.45, 'rescaleHeight': False, 'trialN': 31, 'loaded': True, 'loadedTime': 3655.399999976158, 'positionName': 'RIGHT', 'positionCoords': [998.4, 335], 'bid': 5.04}]",50636.799999952316,1669838761724,rigatoni and sauce,cherry tomato,4.98,5.04,0.05999999999999961,rigatoni and sauce,1028.7000000476837,1031,1030.3999999761581,True,u,52189.799999952316,1553.0,1669838763277,1553,HRV,HRV_0269,2022-11-30 20:10:24
32,"[{'imgObject': {}, 'id': 'avocado', 'src': '/static/foodstim60/avocado.jpg', 'key': 'u', 'origWidth': 409, 'origHeight': 409, 'width': 409, 'height': 409, 'widthPercent': 0.45, 'rescaleHeight': False, 'trialN': 32, 'loaded': True, 'loadedTime': 4006.7999999523163, 'positionName': 'LEFT', 'positionCoords': [512.6, 335.5], 'bid': 5.89}, {'imgObject': {}, 'id': 'cherry tomato', 'src': '/static/foodstim60/cherry tomato.jpg', 'key': 'i', 'origWidth': 410, 'origHeight': 410, 'width': 410, 'height': 410, 'widthPercent': 0.45, 'rescaleHeight': False, 'trialN': 32, 'loaded': True, 'loadedTime': 3652.899999976158, 'positionName': 'RIGHT', 'positionCoords': [998.4, 335], 'bid': 5.04}]",52190.10000002384,1669838763277,avocado,cherry tomato,5.89,5.04,-0.8499999999999996,avocado,1068.1999999284744,1069,1068.5999999046326,True,u,53769.5,1579.3999999761581,1669838764857,1580,HRV,HRV_0269,2022-11-30 20:10:24
33,"[{'imgObject': {}, 'id': 'omelette', 'src': '/static/foodstim60/omelette.jpg', 'key': 'u', 'origWidth': 410, 'origHeight': 409, 'width': 410, 'height': 409, 'widthPercent': 0.45, 'rescaleHeight': False, 'trialN': 33, 'loaded': True, 'loadedTime': 4085.899999976158, 'positionName': 'LEFT', 'positionCoords': [511.6, 335.5], 'bid': 5.01}, {'imgObject': {}, 'id': 'kiwi', 'src': '/static/foodstim60/kiwi.jpg', 'key': 'i', 'origWidth': 410, 'origHeight': 410, 'width': 410, 'height': 410, 'widthPercent': 0.45, 'rescaleHeight': False, 'trialN': 33, 'loaded': True, 'loadedTime': 3958.2999999523163, 'positionName': 'RIGHT', 'positionCoords': [998.4, 335], 'bid': 5.0200000000000005}]",53769.799999952316,1669838764857,omelette,kiwi,5.01,5.0200000000000005,0.010000000000000675,omelette,920.0,921,920.3999999761581,True,u,55206.5,1436.7000000476837,1669838766294,1437,HRV,HRV_0269,2022-11-30 20:10:24
34,"[{'imgObject': {}, 'id': 'olives', 'src': '/static/foodstim60/olives.jpg', 'key': 'u', 'origWidth': 410, 'origHeight': 410, 'width': 410, 'height': 410, 'widthPercent': 0.45, 'rescaleHeight': False, 'trialN': 34, 'loaded': True, 'loadedTime': 4140.5, 'positionName': 'LEFT', 'positionCoords': [511.6, 335], 'bid': 1.37}, {'imgObject': {}, 'id': 'mango', 'src': '/static/foodstim60/mango.jpg', 'key': 'i', 'origWidth': 411, 'origHeight': 411, 'width': 411, 'height': 411, 'widthPercent': 0.45, 'rescaleHeight': False, 'trialN': 34, 'loaded': True, 'loadedTime': 4087.2999999523163, 'positionName': 'RIGHT', 'positionCoords': [998.4, 334.5], 'bid': 1.96}]",55206.799999952316,1669838766294,olives,mango,1.37,1.96,0.5899999999999999,olives,1482.8000000715256,1484,1483.6000000238419,True,u,57201.60000002384,1994.8000000715256,1669838768289,1995,HRV,HRV_0269,2022-11-30 20:10:24
35,"[{'imgObject': {}, 'id': 'grilled chicken strips', 'src': '/static/foodstim60/grilled chicken strips.jpg', 'key': 'u', 'origWidth': 410, 'origHeight': 411, 'width': 410, 'height': 411, 'widthPercent': 0.45, 'rescaleHeight': False, 'trialN': 35, 'loaded': True, 'loadedTime': 4150.799999952316, 'positionName': 'LEFT', 'positionCoords': [511.6, 334.5], 'bid': 1.21}, {'imgObject': {}, 'id': 'kiwi', 'src': '/static/foodstim60/kiwi.jpg', 'key': 'i', 'origWidth': 410, 'origHeight': 410, 'width': 410, 'height': 410, 'widthPercent': 0.45, 'rescaleHeight': False, 'trialN': 35, 'loaded': True, 'loadedTime': 3966.6999999284744, 'positionName': 'RIGHT', 'positionCoords': [998.4, 335], 'bid': 5.0200000000000005}]",57202.10000002384,1669838768289,grilled chicken strips,kiwi,1.21,5.0200000000000005,3.8100000000000005,grilled chicken strips,1327.5,1329,1328.1999999284744,True,u,59041.299999952316,1839.1999999284744,1669838770129,1840,HRV,HRV_0269,2022-11-30 20:10:24
36,"[{'imgObject': {}, 'id': 'salad w chicken', 'src': '/static/foodstim60/salad w chicken.jpg', 'key': 'u', 'origWidth': 411, 'origHeight': 411, 'width': 411, 'height': 411, 'widthPercent': 0.45, 'rescaleHeight': False, 'trialN': 36, 'loaded': True, 'loadedTime': 3712, 'positionName': 'LEFT', 'positionCoords': [510.6, 334.5], 'bid': 6.71}, {'imgObject': {}, 'id': 'Tribe humus pita', 'src': '/static/foodstim60/Tribe humus pita.jpg', 'key': 'i', 'origWidth': 411, 'origHeight': 411, 'width': 411, 'height': 411, 'widthPercent': 0.45, 'rescaleHeight': False, 'trialN': 36, 'loaded': True, 'loadedTime': 3911.7999999523163, 'positionName': 'RIGHT', 'positionCoords': [998.4, 334.5], 'bid': 6.66}]",59041.799999952316,1669838770129,salad w chicken,Tribe humus pita,6.71,6.66,-0.04999999999999982,salad w chicken,1320.1000000238419,1325,1324.5,True,u,60874.39999997616,1832.6000000238419,1669838771962,1833,HRV,HRV_0269,2022-11-30 20:10:24
37,"[{'imgObject': {}, 'id': 'burrito', 'src': '/static/foodstim60/burrito.jpg', 'key': 'u', 'origWidth': 410, 'origHeight': 410, 'width': 410, 'height': 410, 'widthPercent': 0.45, 'rescaleHeight': False, 'trialN': 37, 'loaded': True, 'loadedTime': 3711.600000023842, 'positionName': 'LEFT', 'positionCoords': [511.6, 335], 'bid': 0.01}, {'imgObject': {}, 'id': 'cocktailshrimp', 'src': '/static/foodstim60/cocktailshrimp.jpg', 'key': 'i', 'origWidth': 410, 'origHeight': 410, 'width': 410, 'height': 410, 'widthPercent': 0.45, 'rescaleHeight': False, 'trialN': 37, 'loaded': True, 'loadedTime': 3591.1999999284744, 'positionName': 'RIGHT', 'positionCoords': [998.4, 335], 'bid': 0}]",60874.89999997616,1669838771962,burrito,cocktailshrimp,0.01,0.0,-0.01,cocktailshrimp,1382.8999999761581,1385,1384.8999999761581,True,i,62776.699999928474,1901.7999999523163,1669838773864,1902,HRV,HRV_0269,2022-11-30 20:10:24
38,"[{'imgObject': {}, 'id': 'eggsalad', 'src': '/static/foodstim60/eggsalad.jpg', 'key': 'u', 'origWidth': 410, 'origHeight': 409, 'width': 410, 'height': 409, 'widthPercent': 0.45, 'rescaleHeight': False, 'trialN': 38, 'loaded': True, 'loadedTime': 3770.7999999523163, 'positionName': 'LEFT', 'positionCoords': [511.6, 335.5], 'bid': 4.97}, {'imgObject': {}, 'id': 'salmon', 'src': '/static/foodstim60/salmon.jpg', 'key': 'i', 'origWidth': 410, 'origHeight': 409, 'width': 410, 'height': 409, 'widthPercent': 0.45, 'rescaleHeight': False, 'trialN': 38, 'loaded': True, 'loadedTime': 4153.299999952316, 'positionName': 'RIGHT', 'positionCoords': [998.4, 335.5], 'bid': 5.01}]",62776.799999952316,1669838773864,eggsalad,salmon,4.97,5.01,0.040000000000000036,eggsalad,993.6000000238419,994,993.8999999761581,True,u,64282.39999997616,1505.6000000238419,1669838775370,1506,HRV,HRV_0269,2022-11-30 20:10:24
39,"[{'imgObject': {}, 'id': 'cherries', 'src': '/static/foodstim60/cherries.jpg', 'key': 'u', 'origWidth': 410, 'origHeight': 411, 'width': 410, 'height': 411, 'widthPercent': 0.45, 'rescaleHeight': False, 'trialN': 39, 'loaded': True, 'loadedTime': 3781.7999999523163, 'positionName': 'LEFT', 'positionCoords': [511.6, 334.5], 'bid': 6.01}, {'imgObject': {}, 'id': 'baked potato', 'src': '/static/foodstim60/baked potato.jpg', 'key': 'i', 'origWidth': 409, 'origHeight': 410, 'width': 409, 'height': 410, 'widthPercent': 0.45, 'rescaleHeight': False, 'trialN': 39, 'loaded': True, 'loadedTime': 3632.899999976158, 'positionName': 'RIGHT', 'positionCoords': [998.4, 335], 'bid': 5.57}]",64282.699999928474,1669838775370,cherries,baked potato,6.01,5.57,-0.4399999999999995,cherries,1103.0,1104,1103.5,True,u,65892.5,1609.8000000715256,1669838776980,1610,HRV,HRV_0269,2022-11-30 20:10:24
40,"[{'imgObject': {}, 'id': 'sushi w_condiments', 'src': '/static/foodstim60/sushi w_condiments.jpg', 'key': 'u', 'origWidth': 410, 'origHeight': 410, 'width': 410, 'height': 410, 'widthPercent': 0.45, 'rescaleHeight': False, 'trialN': 40, 'loaded': True, 'loadedTime': 4162.699999928474, 'positionName': 'LEFT', 'positionCoords': [511.6, 335], 'bid': 9.92}, {'imgObject': {}, 'id': 'mango', 'src': '/static/foodstim60/mango.jpg', 'key': 'i', 'origWidth': 411, 'origHeight': 411, 'width': 411, 'height': 411, 'widthPercent': 0.45, 'rescaleHeight': False, 'trialN': 40, 'loaded': True, 'loadedTime': 4096, 'positionName': 'RIGHT', 'positionCoords': [998.4, 334.5], 'bid': 1.96}]",65892.89999997616,1669838776980,sushi w_condiments,mango,9.92,1.96,-7.96,sushi w_condiments,965.0,966,965.5,True,u,67371.19999992847,1478.2999999523163,1669838778459,1479,HRV,HRV_0269,2022-11-30 20:10:24
41,"[{'imgObject': {}, 'id': 'veggieswithdip', 'src': '/static/foodstim60/veggieswithdip.jpg', 'key': 'u', 'origWidth': 409, 'origHeight': 409, 'width': 409, 'height': 409, 'widthPercent': 0.45, 'rescaleHeight': False, 'trialN': 41, 'loaded': True, 'loadedTime': 3848.399999976158, 'positionName': 'LEFT', 'positionCoords': [512.6, 335.5], 'bid': 0.06}, {'imgObject': {}, 'id': 'sweetpotato', 'src': '/static/foodstim60/sweetpotato.jpg', 'key': 'i', 'origWidth': 410, 'origHeight': 410, 'width': 410, 'height': 410, 'widthPercent': 0.45, 'rescaleHeight': False, 'trialN': 41, 'loaded': True, 'loadedTime': 3678.6999999284744, 'positionName': 'RIGHT', 'positionCoords': [998.4, 335], 'bid': 0.13}]",67371.69999992847,1669838778459,veggieswithdip,sweetpotato,0.06,0.13,0.07,sweetpotato,1095.1000000238419,1096,1096.1000000238419,True,i,68982.60000002384,1610.9000000953674,1669838780070,1611,HRV,HRV_0269,2022-11-30 20:10:24
42,"[{'imgObject': {}, 'id': 'kiwi', 'src': '/static/foodstim60/kiwi.jpg', 'key': 'u', 'origWidth': 410, 'origHeight': 410, 'width': 410, 'height': 410, 'widthPercent': 0.45, 'rescaleHeight': False, 'trialN': 42, 'loaded': True, 'loadedTime': 3956.100000023842, 'positionName': 'LEFT', 'positionCoords': [511.6, 335], 'bid': 5.0200000000000005}, {'imgObject': {}, 'id': 'eggsalad', 'src': '/static/foodstim60/eggsalad.jpg', 'key': 'i', 'origWidth': 410, 'origHeight': 409, 'width': 410, 'height': 409, 'widthPercent': 0.45, 'rescaleHeight': False, 'trialN': 42, 'loaded': True, 'loadedTime': 3749.399999976158, 'positionName': 'RIGHT', 'positionCoords': [998.4, 335.5], 'bid': 4.97}]",68982.79999995232,1669838780070,kiwi,eggsalad,5.0200000000000005,4.97,-0.05000000000000071,eggsalad,931.3000000715256,932,931.7000000476837,True,i,70426.29999995232,1443.5,1669838781514,1444,HRV,HRV_0269,2022-11-30 20:10:24
43,"[{'imgObject': {}, 'id': 'mac & cheese', 'src': '/static/foodstim60/mac & cheese.jpg', 'key': 'u', 'origWidth': 410, 'origHeight': 410, 'width': 410, 'height': 410, 'widthPercent': 0.45, 'rescaleHeight': False, 'trialN': 43, 'loaded': True, 'loadedTime': 3749, 'positionName': 'LEFT', 'positionCoords': [511.6, 335], 'bid': 9.98}, {'imgObject': {}, 'id': 'steak', 'src': '/static/foodstim60/steak.jpg', 'key': 'i', 'origWidth': 410, 'origHeight': 410, 'width': 410, 'height': 410, 'widthPercent': 0.45, 'rescaleHeight': False, 'trialN': 43, 'loaded': True, 'loadedTime': 4163.399999976158, 'positionName': 'RIGHT', 'positionCoords': [998.4, 335], 'bid': 9.97}]",70426.69999992847,1669838781514,mac & cheese,steak,9.98,9.97,-0.009999999999999787,steak,1167.1000000238419,1168,1167.6000000238419,True,i,72103.29999995232,1676.6000000238419,1669838783191,1677,HRV,HRV_0269,2022-11-30 20:10:24
44,"[{'imgObject': {}, 'id': 'popsicles', 'src': '/static/foodstim60/popsicles.jpg', 'key': 'u', 'origWidth': 410, 'origHeight': 410, 'width': 410, 'height': 410, 'widthPercent': 0.45, 'rescaleHeight': False, 'trialN': 44, 'loaded': True, 'loadedTime': 4247.5, 'positionName': 'LEFT', 'positionCoords': [511.6, 335], 'bid': 0}, {'imgObject': {}, 'id': 'apple slices', 'src': '/static/foodstim60/apple slices.jpg', 'key': 'i', 'origWidth': 409, 'origHeight': 410, 'width': 409, 'height': 410, 'widthPercent': 0.45, 'rescaleHeight': False, 'trialN': 44, 'loaded': True, 'loadedTime': 4174.799999952316, 'positionName': 'RIGHT', 'positionCoords': [998.4, 335], 'bid': 0.05}]",72103.5,1669838783191,popsicles,apple slices,0.0,0.05,0.05,apple slices,1082.5,1083,1082.8999999761581,True,i,73691.60000002384,1588.1000000238419,1669838784779,1588,HRV,HRV_0269,2022-11-30 20:10:24
45,"[{'imgObject': {}, 'id': 'raisin bran w milk', 'src': '/static/foodstim60/raisin bran w milk.jpg', 'key': 'u', 'origWidth': 411, 'origHeight': 411, 'width': 411, 'height': 411, 'widthPercent': 0.45, 'rescaleHeight': False, 'trialN': 45, 'loaded': True, 'loadedTime': 4136.699999928474, 'positionName': 'LEFT', 'positionCoords': [510.6, 334.5], 'bid': 0.1}, {'imgObject': {}, 'id': 'chickenfingers', 'src': '/static/foodstim60/chickenfingers.jpg', 'key': 'i', 'origWidth': 410, 'origHeight': 410, 'width': 410, 'height': 410, 'widthPercent': 0.45, 'rescaleHeight': False, 'trialN': 45, 'loaded': True, 'loadedTime': 3792, 'positionName': 'RIGHT', 'positionCoords': [998.4, 335], 'bid': 0.76}]",73691.79999995232,1669838784779,raisin bran w milk,chickenfingers,0.1,0.76,0.66,chickenfingers,1110.3000000715256,1111,1110.7000000476837,True,i,75320.29999995232,1628.5,1669838786408,1629,HRV,HRV_0269,2022-11-30 20:10:24
46,"[{'imgObject': {}, 'id': 'blueberries', 'src': '/static/foodstim60/blueberries.jpg', 'key': 'u', 'origWidth': 411, 'origHeight': 411, 'width': 411, 'height': 411, 'widthPercent': 0.45, 'rescaleHeight': False, 'trialN': 46, 'loaded': True, 'loadedTime': 3901.600000023842, 'positionName': 'LEFT', 'positionCoords': [510.6, 334.5], 'bid': 0}, {'imgObject': {}, 'id': 'hashbrowns', 'src': '/static/foodstim60/hashbrowns.jpg', 'key': 'i', 'origWidth': 411, 'origHeight': 410, 'width': 411, 'height': 410, 'widthPercent': 0.45, 'rescaleHeight': False, 'trialN': 46, 'loaded': True, 'loadedTime': 4176.299999952316, 'positionName': 'RIGHT', 'positionCoords': [998.4, 335], 'bid': 0.01}]",75320.5,1669838786408,blueberries,hashbrowns,0.0,0.01,0.01,blueberries,1001.6999999284744,1002,1002.3999999761581,True,u,76843.29999995232,1522.7999999523163,1669838787931,1523,HRV,HRV_0269,2022-11-30 20:10:24
47,"[{'imgObject': {}, 'id': 'strawberries', 'src': '/static/foodstim60/strawberries.jpg', 'key': 'u', 'origWidth': 410, 'origHeight': 410, 'width': 410, 'height': 410, 'widthPercent': 0.45, 'rescaleHeight': False, 'trialN': 47, 'loaded': True, 'loadedTime': 4186.299999952316, 'positionName': 'LEFT', 'positionCoords': [511.6, 335], 'bid': 8.07}, {'imgObject': {}, 'id': 'roastedpotatoes', 'src': '/static/foodstim60/roastedpotatoes.jpg', 'key': 'i', 'origWidth': 409, 'origHeight': 410, 'width': 409, 'height': 410, 'widthPercent': 0.45, 'rescaleHeight': False, 'trialN': 47, 'loaded': True, 'loadedTime': 4096.600000023842, 'positionName': 'RIGHT', 'positionCoords': [998.4, 335], 'bid': 8.89}]",76843.60000002384,1669838787931,strawberries,roastedpotatoes,8.07,8.89,0.8200000000000003,roastedpotatoes,1054.0999999046326,1055,1055.2999999523163,True,i,78419.79999995232,1576.1999999284744,1669838789507,1576,HRV,HRV_0269,2022-11-30 20:10:24
48,"[{'imgObject': {}, 'id': 'strawberries', 'src': '/static/foodstim60/strawberries.jpg', 'key': 'u', 'origWidth': 410, 'origHeight': 410, 'width': 410, 'height': 410, 'widthPercent': 0.45, 'rescaleHeight': False, 'trialN': 48, 'loaded': True, 'loadedTime': 4187.699999928474, 'positionName': 'LEFT', 'positionCoords': [511.6, 335], 'bid': 8.07}, {'imgObject': {}, 'id': 'baked potato', 'src': '/static/foodstim60/baked potato.jpg', 'key': 'i', 'origWidth': 409, 'origHeight': 410, 'width': 409, 'height': 410, 'widthPercent': 0.45, 'rescaleHeight': False, 'trialN': 48, 'loaded': True, 'loadedTime': 3633.1999999284744, 'positionName': 'RIGHT', 'positionCoords': [998.4, 335], 'bid': 5.57}]",78420.0,1669838789507,strawberries,baked potato,8.07,5.57,-2.5,strawberries,1221.7999999523163,1223,1222.2999999523163,True,u,80158.60000002384,1738.6000000238419,1669838791246,1739,HRV,HRV_0269,2022-11-30 20:10:24
49,"[{'imgObject': {}, 'id': 'corn cob', 'src': '/static/foodstim60/corn cob.jpg', 'key': 'u', 'origWidth': 411, 'origHeight': 411, 'width': 411, 'height': 411, 'widthPercent': 0.45, 'rescaleHeight': False, 'trialN': 49, 'loaded': True, 'loadedTime': 4024.2999999523163, 'positionName': 'LEFT', 'positionCoords': [510.6, 334.5], 'bid': 7.28}, {'imgObject': {}, 'id': 'yogurt no spoon', 'src': '/static/foodstim60/yogurt no spoon.jpg', 'key': 'i', 'origWidth': 411, 'origHeight': 410, 'width': 411, 'height': 410, 'widthPercent': 0.45, 'rescaleHeight': False, 'trialN': 49, 'loaded': True, 'loadedTime': 4188.399999976158, 'positionName': 'RIGHT', 'positionCoords': [998.4, 335], 'bid': 6.3100000000000005}]",80158.89999997616,1669838791246,corn cob,yogurt no spoon,7.28,6.3100000000000005,-0.9699999999999998,yogurt no spoon,1363.0,1364,1363.5,True,i,82036.5,1877.6000000238419,1669838793124,1878,HRV,HRV_0269,2022-11-30 20:10:24
50,"[{'imgObject': {}, 'id': 'turkeysandwich', 'src': '/static/foodstim60/turkeysandwich.jpg', 'key': 'u', 'origWidth': 409, 'origHeight': 409, 'width': 409, 'height': 409, 'widthPercent': 0.45, 'rescaleHeight': False, 'trialN': 50, 'loaded': True, 'loadedTime': 4200.699999928474, 'positionName': 'LEFT', 'positionCoords': [512.6, 335.5], 'bid': 6.28}, {'imgObject': {}, 'id': 'banana', 'src': '/static/foodstim60/banana.jpg', 'key': 'i', 'origWidth': 410, 'origHeight': 410, 'width': 410, 'height': 410, 'widthPercent': 0.45, 'rescaleHeight': False, 'trialN': 50, 'loaded': True, 'loadedTime': 4211.899999976158, 'positionName': 'RIGHT', 'positionCoords': [998.4, 335], 'bid': 6.19}]",82036.79999995232,1669838793124,turkeysandwich,banana,6.28,6.19,-0.08999999999999986,turkeysandwich,1205.0,1206,1205.3000000715256,True,u,83748.39999997616,1711.6000000238419,1669838794836,1712,HRV,HRV_0269,2022-11-30 20:10:24
51,"[{'imgObject': {}, 'id': 'fried eggs', 'src': '/static/foodstim60/fried eggs.jpg', 'key': 'u', 'origWidth': 410, 'origHeight': 410, 'width': 410, 'height': 410, 'widthPercent': 0.45, 'rescaleHeight': False, 'trialN': 51, 'loaded': True, 'loadedTime': 3984.899999976158, 'positionName': 'LEFT', 'positionCoords': [511.6, 335], 'bid': 5.01}, {'imgObject': {}, 'id': 'cocktailshrimp', 'src': '/static/foodstim60/cocktailshrimp.jpg', 'key': 'i', 'origWidth': 410, 'origHeight': 410, 'width': 410, 'height': 410, 'widthPercent': 0.45, 'rescaleHeight': False, 'trialN': 51, 'loaded': True, 'loadedTime': 3604.899999976158, 'positionName': 'RIGHT', 'positionCoords': [998.4, 335], 'bid': 0}]",83748.69999992847,1669838794836,fried eggs,cocktailshrimp,5.01,0.0,-5.01,fried eggs,941.0,942,941.7000000476837,True,u,85206.29999995232,1457.6000000238419,1669838796294,1458,HRV,HRV_0269,2022-11-30 20:10:24
52,"[{'imgObject': {}, 'id': 'salmon', 'src': '/static/foodstim60/salmon.jpg', 'key': 'u', 'origWidth': 410, 'origHeight': 409, 'width': 410, 'height': 409, 'widthPercent': 0.45, 'rescaleHeight': False, 'trialN': 52, 'loaded': True, 'loadedTime': 4153.199999928474, 'positionName': 'LEFT', 'positionCoords': [511.6, 335.5], 'bid': 5.01}, {'imgObject': {}, 'id': 'rigatoni and sauce', 'src': '/static/foodstim60/rigatoni and sauce.jpg', 'key': 'i', 'origWidth': 410, 'origHeight': 411, 'width': 410, 'height': 411, 'widthPercent': 0.45, 'rescaleHeight': False, 'trialN': 52, 'loaded': True, 'loadedTime': 4065.399999976158, 'positionName': 'RIGHT', 'positionCoords': [998.4, 334.5], 'bid': 4.98}]",85206.60000002384,1669838796294,salmon,rigatoni and sauce,5.01,4.98,-0.02999999999999936,rigatoni and sauce,907.6999999284744,908,908.0999999046326,True,i,86630.5,1423.8999999761581,1669838797718,1424,HRV,HRV_0269,2022-11-30 20:10:24
53,"[{'imgObject': {}, 'id': 'raisin bran w milk', 'src': '/static/foodstim60/raisin bran w milk.jpg', 'key': 'u', 'origWidth': 411, 'origHeight': 411, 'width': 411, 'height': 411, 'widthPercent': 0.45, 'rescaleHeight': False, 'trialN': 53, 'loaded': True, 'loadedTime': 4138.799999952316, 'positionName': 'LEFT', 'positionCoords': [510.6, 334.5], 'bid': 0.1}, {'imgObject': {}, 'id': 'edamame', 'src': '/static/foodstim60/edamame.jpg', 'key': 'i', 'origWidth': 409, 'origHeight': 410, 'width': 409, 'height': 410, 'widthPercent': 0.45, 'rescaleHeight': False, 'trialN': 53, 'loaded': True, 'loadedTime': 4125.199999928474, 'positionName': 'RIGHT', 'positionCoords': [998.4, 335], 'bid': 0.22}]",86631.0,1669838797718,raisin bran w milk,edamame,0.1,0.22,0.12,edamame,826.7999999523163,828,827.6999999284744,True,i,87973.79999995232,1342.7999999523163,1669838799061,1343,HRV,HRV_0269,2022-11-30 20:10:24
54,"[{'imgObject': {}, 'id': 'banana', 'src': '/static/foodstim60/banana.jpg', 'key': 'u', 'origWidth': 410, 'origHeight': 410, 'width': 410, 'height': 410, 'widthPercent': 0.45, 'rescaleHeight': False, 'trialN': 54, 'loaded': True, 'loadedTime': 4212, 'positionName': 'LEFT', 'positionCoords': [511.6, 335], 'bid': 6.19}, {'imgObject': {}, 'id': 'froot loops w milk', 'src': '/static/foodstim60/froot loops w milk.jpg', 'key': 'i', 'origWidth': 410, 'origHeight': 410, 'width': 410, 'height': 410, 'widthPercent': 0.45, 'rescaleHeight': False, 'trialN': 54, 'loaded': True, 'loadedTime': 3975.600000023842, 'positionName': 'RIGHT', 'positionCoords': [998.4, 335], 'bid': 0.02}]",87974.10000002384,1669838799062,banana,froot loops w milk,6.19,0.02,-6.170000000000001,banana,923.5999999046326,925,925.2999999523163,True,u,89444.79999995232,1470.6999999284744,1669838800532,1470,HRV,HRV_0269,2022-11-30 20:10:24
55,"[{'imgObject': {}, 'id': 'olives', 'src': '/static/foodstim60/olives.jpg', 'key': 'u', 'origWidth': 410, 'origHeight': 410, 'width': 410, 'height': 410, 'widthPercent': 0.45, 'rescaleHeight': False, 'trialN': 55, 'loaded': True, 'loadedTime': 4140.199999928474, 'positionName': 'LEFT', 'positionCoords': [511.6, 335], 'bid': 1.37}, {'imgObject': {}, 'id': 'hashbrowns', 'src': '/static/foodstim60/hashbrowns.jpg', 'key': 'i', 'origWidth': 411, 'origHeight': 410, 'width': 411, 'height': 410, 'widthPercent': 0.45, 'rescaleHeight': False, 'trialN': 55, 'loaded': True, 'loadedTime': 4186, 'positionName': 'RIGHT', 'positionCoords': [998.4, 335], 'bid': 0.01}]",89445.0,1669838800532,olives,hashbrowns,1.37,0.01,-1.36,olives,820.8999999761581,822,821.6000000238419,True,u,90773.79999995232,1328.7999999523163,1669838801861,1329,HRV,HRV_0269,2022-11-30 20:10:24
56,"[{'imgObject': {}, 'id': 'cheerios', 'src': '/static/foodstim60/cheerios.jpg', 'key': 'u', 'origWidth': 409, 'origHeight': 410, 'width': 409, 'height': 410, 'widthPercent': 0.45, 'rescaleHeight': False, 'trialN': 56, 'loaded': True, 'loadedTime': 3564.1999999284744, 'positionName': 'LEFT', 'positionCoords': [512.6, 335], 'bid': 0.88}, {'imgObject': {}, 'id': 'grilled chicken strips', 'src': '/static/foodstim60/grilled chicken strips.jpg', 'key': 'i', 'origWidth': 410, 'origHeight': 411, 'width': 410, 'height': 411, 'widthPercent': 0.45, 'rescaleHeight': False, 'trialN': 56, 'loaded': True, 'loadedTime': 4151.399999976158, 'positionName': 'RIGHT', 'positionCoords': [998.4, 334.5], 'bid': 1.21}]",90774.19999992847,1669838801862,cheerios,grilled chicken strips,0.88,1.21,0.32999999999999996,grilled chicken strips,963.7000000476837,964,964.5,True,i,92241.10000002384,1466.9000000953674,1669838803328,1466,HRV,HRV_0269,2022-11-30 20:10:24
57,"[{'imgObject': {}, 'id': 'olives', 'src': '/static/foodstim60/olives.jpg', 'key': 'u', 'origWidth': 410, 'origHeight': 410, 'width': 410, 'height': 410, 'widthPercent': 0.45, 'rescaleHeight': False, 'trialN': 57, 'loaded': True, 'loadedTime': 4140.5, 'positionName': 'LEFT', 'positionCoords': [511.6, 335], 'bid': 1.37}, {'imgObject': {}, 'id': 'cherry tomato', 'src': '/static/foodstim60/cherry tomato.jpg', 'key': 'i', 'origWidth': 410, 'origHeight': 410, 'width': 410, 'height': 410, 'widthPercent': 0.45, 'rescaleHeight': False, 'trialN': 57, 'loaded': True, 'loadedTime': 3664.5, 'positionName': 'RIGHT', 'positionCoords': [998.4, 335], 'bid': 5.04}]",92241.19999992847,1669838803329,olives,cherry tomato,1.37,5.04,3.67,olives,832.9000000953674,833,833.2000000476837,True,u,93590.10000002384,1348.9000000953674,1669838804678,1349,HRV,HRV_0269,2022-11-30 20:10:24
58,"[{'imgObject': {}, 'id': 'tacos', 'src': '/static/foodstim60/tacos.jpg', 'key': 'u', 'origWidth': 411, 'origHeight': 411, 'width': 411, 'height': 411, 'widthPercent': 0.45, 'rescaleHeight': False, 'trialN': 58, 'loaded': True, 'loadedTime': 3948.600000023842, 'positionName': 'LEFT', 'positionCoords': [510.6, 334.5], 'bid': 9.97}, {'imgObject': {}, 'id': 'steak', 'src': '/static/foodstim60/steak.jpg', 'key': 'i', 'origWidth': 410, 'origHeight': 410, 'width': 410, 'height': 410, 'widthPercent': 0.45, 'rescaleHeight': False, 'trialN': 58, 'loaded': True, 'loadedTime': 4165.199999928474, 'positionName': 'RIGHT', 'positionCoords': [998.4, 335], 'bid': 9.97}]",93590.39999997616,1669838804678,tacos,steak,9.97,9.97,0.0,steak,963.5,964,963.8999999761581,True,i,95064.0,1473.6000000238419,1669838806151,1473,HRV,HRV_0269,2022-11-30 20:10:24
59,"[{'imgObject': {}, 'id': 'burrito', 'src': '/static/foodstim60/burrito.jpg', 'key': 'u', 'origWidth': 410, 'origHeight': 410, 'width': 410, 'height': 410, 'widthPercent': 0.45, 'rescaleHeight': False, 'trialN': 59, 'loaded': True, 'loadedTime': 3699.7999999523163, 'positionName': 'LEFT', 'positionCoords': [511.6, 335], 'bid': 0.01}, {'imgObject': {}, 'id': 'hashbrowns', 'src': '/static/foodstim60/hashbrowns.jpg', 'key': 'i', 'origWidth': 411, 'origHeight': 410, 'width': 411, 'height': 410, 'widthPercent': 0.45, 'rescaleHeight': False, 'trialN': 59, 'loaded': True, 'loadedTime': 4175, 'positionName': 'RIGHT', 'positionCoords': [998.4, 335], 'bid': 0.01}]",95064.39999997616,1669838806152,burrito,hashbrowns,0.01,0.01,0.0,burrito,1434.0,1434,1434.3999999761581,True,u,97011.60000002384,1947.2000000476837,1669838808099,1947,HRV,HRV_0269,2022-11-30 20:10:24
60,"[{'imgObject': {}, 'id': 'sweetpotato', 'src': '/static/foodstim60/sweetpotato.jpg', 'key': 'u', 'origWidth': 410, 'origHeight': 410, 'width': 410, 'height': 410, 'widthPercent': 0.45, 'rescaleHeight': False, 'trialN': 60, 'loaded': True, 'loadedTime': 3687.6999999284744, 'positionName': 'LEFT', 'positionCoords': [511.6, 335], 'bid': 0.13}, {'imgObject': {}, 'id': 'popsicles', 'src': '/static/foodstim60/popsicles.jpg', 'key': 'i', 'origWidth': 410, 'origHeight': 410, 'width': 410, 'height': 410, 'widthPercent': 0.45, 'rescaleHeight': False, 'trialN': 60, 'loaded': True, 'loadedTime': 4247.399999976158, 'positionName': 'RIGHT', 'positionCoords': [998.4, 335], 'bid': 0}]",97011.89999997616,1669838808099,sweetpotato,popsicles,0.13,0.0,-0.13,sweetpotato,1037.8999999761581,1039,1038.2999999523163,True,u,98563.79999995232,1551.8999999761581,1669838809651,1552,HRV,HRV_0269,2022-11-30 20:10:24
61,"[{'imgObject': {}, 'id': 'cheerios', 'src': '/static/foodstim60/cheerios.jpg', 'key': 'u', 'origWidth': 409, 'origHeight': 410, 'width': 409, 'height': 410, 'widthPercent': 0.45, 'rescaleHeight': False, 'trialN': 61, 'loaded': True, 'loadedTime': 3554.6999999284744, 'positionName': 'LEFT', 'positionCoords': [512.6, 335], 'bid': 0.88}, {'imgObject': {}, 'id': 'fried eggs', 'src': '/static/foodstim60/fried eggs.jpg', 'key': 'i', 'origWidth': 410, 'origHeight': 410, 'width': 410, 'height': 410, 'widthPercent': 0.45, 'rescaleHeight': False, 'trialN': 61, 'loaded': True, 'loadedTime': 3994.1999999284744, 'positionName': 'RIGHT', 'positionCoords': [998.4, 335], 'bid': 5.01}]",98564.0,1669838809651,cheerios,fried eggs,0.88,5.01,4.13,fried eggs,734.1999999284744,736,735.1000000238419,True,i,99817.89999997616,1253.8999999761581,1669838810905,1254,HRV,HRV_0269,2022-11-30 20:10:24
62,"[{'imgObject': {}, 'id': 'chicken nuggets2', 'src': '/static/foodstim60/chicken nuggets2.jpg', 'key': 'u', 'origWidth': 410, 'origHeight': 409, 'width': 410, 'height': 409, 'widthPercent': 0.45, 'rescaleHeight': False, 'trialN': 62, 'loaded': True, 'loadedTime': 4213.899999976158, 'positionName': 'LEFT', 'positionCoords': [511.6, 335.5], 'bid': 0.06}, {'imgObject': {}, 'id': 'eggs', 'src': '/static/foodstim60/eggs.jpg', 'key': 'i', 'origWidth': 409, 'origHeight': 409, 'width': 409, 'height': 409, 'widthPercent': 0.45, 'rescaleHeight': False, 'trialN': 62, 'loaded': True, 'loadedTime': 4014.6999999284744, 'positionName': 'RIGHT', 'positionCoords': [998.4, 335.5], 'bid': 6.53}]",99818.29999995232,1669838810906,chicken nuggets2,eggs,0.06,6.53,6.470000000000001,eggs,895.3999999761581,896,895.8999999761581,True,i,101221.19999992847,1402.8999999761581,1669838812309,1403,HRV,HRV_0269,2022-11-30 20:10:24
63,"[{'imgObject': {}, 'id': 'shreddedwheatwithmilk', 'src': '/static/foodstim60/shreddedwheatwithmilk.jpg', 'key': 'u', 'origWidth': 410, 'origHeight': 410, 'width': 410, 'height': 410, 'widthPercent': 0.45, 'rescaleHeight': False, 'trialN': 63, 'loaded': True, 'loadedTime': 3939.899999976158, 'positionName': 'LEFT', 'positionCoords': [511.6, 335], 'bid': 0.33}, {'imgObject': {}, 'id': 'pear', 'src': '/static/foodstim60/pear.jpg', 'key': 'i', 'origWidth': 411, 'origHeight': 410, 'width': 411, 'height': 410, 'widthPercent': 0.45, 'rescaleHeight': False, 'trialN': 63, 'loaded': True, 'loadedTime': 3883.5, 'positionName': 'RIGHT', 'positionCoords': [998.4, 335], 'bid': 0.62}]",101221.39999997616,1669838812309,shreddedwheatwithmilk,pear,0.33,0.62,0.29,pear,1388.2999999523163,1389,1388.7000000476837,True,i,103124.39999997616,1903.0,1669838814212,1903,HRV,HRV_0269,2022-11-30 20:10:24
64,"[{'imgObject': {}, 'id': 'roastedpotatoes', 'src': '/static/foodstim60/roastedpotatoes.jpg', 'key': 'u', 'origWidth': 409, 'origHeight': 410, 'width': 409, 'height': 410, 'widthPercent': 0.45, 'rescaleHeight': False, 'trialN': 64, 'loaded': True, 'loadedTime': 4106.5, 'positionName': 'LEFT', 'positionCoords': [512.6, 335], 'bid': 8.89}, {'imgObject': {}, 'id': 'cherries', 'src': '/static/foodstim60/cherries.jpg', 'key': 'i', 'origWidth': 410, 'origHeight': 411, 'width': 410, 'height': 411, 'widthPercent': 0.45, 'rescaleHeight': False, 'trialN': 64, 'loaded': True, 'loadedTime': 3782.2999999523163, 'positionName': 'RIGHT', 'positionCoords': [998.4, 334.5], 'bid': 6.01}]",103124.69999992847,1669838814212,roastedpotatoes,cherries,8.89,6.01,-2.880000000000001,roastedpotatoes,949.5,950,950.1000000238419,True,u,104595.0,1470.3000000715256,1669838815682,1470,HRV,HRV_0269,2022-11-30 20:10:24
65,"[{'imgObject': {}, 'id': 'shreddedwheatwithmilk', 'src': '/static/foodstim60/shreddedwheatwithmilk.jpg', 'key': 'u', 'origWidth': 410, 'origHeight': 410, 'width': 410, 'height': 410, 'widthPercent': 0.45, 'rescaleHeight': False, 'trialN': 65, 'loaded': True, 'loadedTime': 3940.100000023842, 'positionName': 'LEFT', 'positionCoords': [511.6, 335], 'bid': 0.33}, {'imgObject': {}, 'id': 'olives', 'src': '/static/foodstim60/olives.jpg', 'key': 'i', 'origWidth': 410, 'origHeight': 410, 'width': 410, 'height': 410, 'widthPercent': 0.45, 'rescaleHeight': False, 'trialN': 65, 'loaded': True, 'loadedTime': 4140.699999928474, 'positionName': 'RIGHT', 'positionCoords': [998.4, 335], 'bid': 1.37}]",104595.29999995232,1669838815683,shreddedwheatwithmilk,olives,0.33,1.37,1.04,olives,1046.7000000476837,1047,1047.2000000476837,True,i,106144.69999992847,1549.3999999761581,1669838817232,1549,HRV,HRV_0269,2022-11-30 20:10:24
66,"[{'imgObject': {}, 'id': 'sushi w_condiments', 'src': '/static/foodstim60/sushi w_condiments.jpg', 'key': 'u', 'origWidth': 410, 'origHeight': 410, 'width': 410, 'height': 410, 'widthPercent': 0.45, 'rescaleHeight': False, 'trialN': 66, 'loaded': True, 'loadedTime': 4155.399999976158, 'positionName': 'LEFT', 'positionCoords': [511.6, 335], 'bid': 9.92}, {'imgObject': {}, 'id': 'turkey sandwich', 'src': '/static/foodstim60/turkey sandwich.jpg', 'key': 'i', 'origWidth': 409, 'origHeight': 409, 'width': 409, 'height': 409, 'widthPercent': 0.45, 'rescaleHeight': False, 'trialN': 66, 'loaded': True, 'loadedTime': 4223.299999952316, 'positionName': 'RIGHT', 'positionCoords': [998.4, 335.5], 'bid': 9.2}]",106144.89999997616,1669838817232,sushi w_condiments,turkey sandwich,9.92,9.2,-0.7200000000000006,turkey sandwich,1209.2000000476837,1211,1209.6000000238419,True,i,107860.0,1715.1000000238419,1669838818948,1716,HRV,HRV_0269,2022-11-30 20:10:24
67,"[{'imgObject': {}, 'id': 'sushi w_condiments', 'src': '/static/foodstim60/sushi w_condiments.jpg', 'key': 'u', 'origWidth': 410, 'origHeight': 410, 'width': 410, 'height': 410, 'widthPercent': 0.45, 'rescaleHeight': False, 'trialN': 67, 'loaded': True, 'loadedTime': 4163.299999952316, 'positionName': 'LEFT', 'positionCoords': [511.6, 335], 'bid': 9.92}, {'imgObject': {}, 'id': 'banana', 'src': '/static/foodstim60/banana.jpg', 'key': 'i', 'origWidth': 410, 'origHeight': 410, 'width': 410, 'height': 410, 'widthPercent': 0.45, 'rescaleHeight': False, 'trialN': 67, 'loaded': True, 'loadedTime': 4211.699999928474, 'positionName': 'RIGHT', 'positionCoords': [998.4, 335], 'bid': 6.19}]",107860.19999992847,1669838818948,sushi w_condiments,banana,9.92,6.19,-3.7299999999999995,sushi w_condiments,997.6000000238419,999,998.4000000953674,True,u,109365.39999997616,1505.2000000476837,1669838820453,1505,HRV,HRV_0269,2022-11-30 20:10:24
68,"[{'imgObject': {}, 'id': 'burrito', 'src': '/static/foodstim60/burrito.jpg', 'key': 'u', 'origWidth': 410, 'origHeight': 410, 'width': 410, 'height': 410, 'widthPercent': 0.45, 'rescaleHeight': False, 'trialN': 68, 'loaded': True, 'loadedTime': 3690.1999999284744, 'positionName': 'LEFT', 'positionCoords': [511.6, 335], 'bid': 0.01}, {'imgObject': {}, 'id': 'grilled chicken strips', 'src': '/static/foodstim60/grilled chicken strips.jpg', 'key': 'i', 'origWidth': 410, 'origHeight': 411, 'width': 410, 'height': 411, 'widthPercent': 0.45, 'rescaleHeight': False, 'trialN': 68, 'loaded': True, 'loadedTime': 4151.199999928474, 'positionName': 'RIGHT', 'positionCoords': [998.4, 334.5], 'bid': 1.21}]",109365.60000002384,1669838820454,burrito,grilled chicken strips,0.01,1.21,1.2,grilled chicken strips,924.0,930,930.2999999523163,True,i,110799.60000002384,1434.0,1669838821888,1434,HRV,HRV_0269,2022-11-30 20:10:24
69,"[{'imgObject': {}, 'id': 'turkeysandwich', 'src': '/static/foodstim60/turkeysandwich.jpg', 'key': 'u', 'origWidth': 409, 'origHeight': 409, 'width': 409, 'height': 409, 'widthPercent': 0.45, 'rescaleHeight': False, 'trialN': 69, 'loaded': True, 'loadedTime': 4199, 'positionName': 'LEFT', 'positionCoords': [512.6, 335.5], 'bid': 6.28}, {'imgObject': {}, 'id': 'fruitsalad', 'src': '/static/foodstim60/fruitsalad.jpg', 'key': 'i', 'origWidth': 410, 'origHeight': 410, 'width': 410, 'height': 410, 'widthPercent': 0.45, 'rescaleHeight': False, 'trialN': 69, 'loaded': True, 'loadedTime': 4225, 'positionName': 'RIGHT', 'positionCoords': [998.4, 335], 'bid': 7.12}]",110799.89999997616,1669838821888,turkeysandwich,fruitsalad,6.28,7.12,0.8399999999999999,fruitsalad,1553.7999999523163,1555,1555.0,True,i,112862.5,2062.600000023842,1669838823950,2062,HRV,HRV_0269,2022-11-30 20:10:24
70,"[{'imgObject': {}, 'id': 'omelette', 'src': '/static/foodstim60/omelette.jpg', 'key': 'u', 'origWidth': 410, 'origHeight': 409, 'width': 410, 'height': 409, 'widthPercent': 0.45, 'rescaleHeight': False, 'trialN': 70, 'loaded': True, 'loadedTime': 4077.1999999284744, 'positionName': 'LEFT', 'positionCoords': [511.6, 335.5], 'bid': 5.01}, {'imgObject': {}, 'id': 'turkeysandwich', 'src': '/static/foodstim60/turkeysandwich.jpg', 'key': 'i', 'origWidth': 409, 'origHeight': 409, 'width': 409, 'height': 409, 'widthPercent': 0.45, 'rescaleHeight': False, 'trialN': 70, 'loaded': True, 'loadedTime': 4210.399999976158, 'positionName': 'RIGHT', 'positionCoords': [998.4, 335.5], 'bid': 6.28}]",112862.79999995232,1669838823951,omelette,turkeysandwich,5.01,6.28,1.2700000000000005,turkeysandwich,1571.1000000238419,1571,1571.3999999761581,True,i,114935.60000002384,2072.8000000715256,1669838826024,2073,HRV,HRV_0269,2022-11-30 20:10:24
71,"[{'imgObject': {}, 'id': 'grilled chicken strips', 'src': '/static/foodstim60/grilled chicken strips.jpg', 'key': 'u', 'origWidth': 410, 'origHeight': 411, 'width': 410, 'height': 411, 'widthPercent': 0.45, 'rescaleHeight': False, 'trialN': 71, 'loaded': True, 'loadedTime': 4142.5, 'positionName': 'LEFT', 'positionCoords': [511.6, 334.5], 'bid': 1.21}, {'imgObject': {}, 'id': 'seaweed', 'src': '/static/foodstim60/seaweed.jpg', 'key': 'i', 'origWidth': 410, 'origHeight': 410, 'width': 410, 'height': 410, 'widthPercent': 0.45, 'rescaleHeight': False, 'trialN': 71, 'loaded': True, 'loadedTime': 4227, 'positionName': 'RIGHT', 'positionCoords': [998.4, 335], 'bid': 9.02}]",114935.89999997616,1669838826024,grilled chicken strips,seaweed,1.21,9.02,7.81,seaweed,1345.7000000476837,1346,1346.2000000476837,True,i,116795.79999995232,1859.8999999761581,1669838827884,1860,HRV,HRV_0269,2022-11-30 20:10:24
72,"[{'imgObject': {}, 'id': 'cantaloupe', 'src': '/static/foodstim60/cantaloupe.jpg', 'key': 'u', 'origWidth': 409, 'origHeight': 409, 'width': 409, 'height': 409, 'widthPercent': 0.45, 'rescaleHeight': False, 'trialN': 72, 'loaded': True, 'loadedTime': 3996.399999976158, 'positionName': 'LEFT', 'positionCoords': [512.6, 335.5], 'bid': 0}, {'imgObject': {}, 'id': 'cherry tomato', 'src': '/static/foodstim60/cherry tomato.jpg', 'key': 'i', 'origWidth': 410, 'origHeight': 410, 'width': 410, 'height': 410, 'widthPercent': 0.45, 'rescaleHeight': False, 'trialN': 72, 'loaded': True, 'loadedTime': 3654.899999976158, 'positionName': 'RIGHT', 'positionCoords': [998.4, 335], 'bid': 5.04}]",116796.29999995232,1669838827884,cantaloupe,cherry tomato,0.0,5.04,5.04,cherry tomato,1246.0,1247,1246.3000000715256,True,i,118558.29999995232,1762.0,1669838829646,1762,HRV,HRV_0269,2022-11-30 20:10:24
73,"[{'imgObject': {}, 'id': 'eggs', 'src': '/static/foodstim60/eggs.jpg', 'key': 'u', 'origWidth': 409, 'origHeight': 409, 'width': 409, 'height': 409, 'widthPercent': 0.45, 'rescaleHeight': False, 'trialN': 73, 'loaded': True, 'loadedTime': 4015.600000023842, 'positionName': 'LEFT', 'positionCoords': [512.6, 335.5], 'bid': 6.53}, {'imgObject': {}, 'id': 'steak', 'src': '/static/foodstim60/steak.jpg', 'key': 'i', 'origWidth': 410, 'origHeight': 410, 'width': 410, 'height': 410, 'widthPercent': 0.45, 'rescaleHeight': False, 'trialN': 73, 'loaded': True, 'loadedTime': 4165.100000023842, 'positionName': 'RIGHT', 'positionCoords': [998.4, 335], 'bid': 9.97}]",118558.5,1669838829647,eggs,steak,6.53,9.97,3.4400000000000004,steak,883.0,884,884.1999999284744,True,i,119953.29999995232,1394.7999999523163,1669838831041,1394,HRV,HRV_0269,2022-11-30 20:10:24
74,"[{'imgObject': {}, 'id': 'banana', 'src': '/static/foodstim60/banana.jpg', 'key': 'u', 'origWidth': 410, 'origHeight': 410, 'width': 410, 'height': 410, 'widthPercent': 0.45, 'rescaleHeight': False, 'trialN': 74, 'loaded': True, 'loadedTime': 4211.799999952316, 'positionName': 'LEFT', 'positionCoords': [511.6, 335], 'bid': 6.19}, {'imgObject': {}, 'id': 'rigatoni', 'src': '/static/foodstim60/rigatoni.jpg', 'key': 'i', 'origWidth': 411, 'origHeight': 411, 'width': 411, 'height': 411, 'widthPercent': 0.45, 'rescaleHeight': False, 'trialN': 74, 'loaded': True, 'loadedTime': 4076.1999999284744, 'positionName': 'RIGHT', 'positionCoords': [998.4, 334.5], 'bid': 5.01}]",119953.5,1669838831042,banana,rigatoni,6.19,5.01,-1.1800000000000006,rigatoni,1056.1999999284744,1056,1056.7999999523163,True,i,121525.29999995232,1571.7999999523163,1669838832613,1571,HRV,HRV_0269,2022-11-30 20:10:24
75,"[{'imgObject': {}, 'id': 'blackbeanswithrice', 'src': '/static/foodstim60/blackbeanswithrice.jpg', 'key': 'u', 'origWidth': 410, 'origHeight': 410, 'width': 410, 'height': 410, 'widthPercent': 0.45, 'rescaleHeight': False, 'trialN': 75, 'loaded': True, 'loadedTime': 4228.5, 'positionName': 'LEFT', 'positionCoords': [511.6, 335], 'bid': 0}, {'imgObject': {}, 'id': 'cocktailshrimp', 'src': '/static/foodstim60/cocktailshrimp.jpg', 'key': 'i', 'origWidth': 410, 'origHeight': 410, 'width': 410, 'height': 410, 'widthPercent': 0.45, 'rescaleHeight': False, 'trialN': 75, 'loaded': True, 'loadedTime': 3591.5, 'positionName': 'RIGHT', 'positionCoords': [998.4, 335], 'bid': 0}]",121525.5,1669838832614,blackbeanswithrice,cocktailshrimp,0.0,0.0,0.0,blackbeanswithrice,1172.3999999761581,1173,1173.1000000238419,True,u,123209.60000002384,1684.1000000238419,1669838834298,1684,HRV,HRV_0269,2022-11-30 20:10:24
76,"[{'imgObject': {}, 'id': 'yogurt no spoon', 'src': '/static/foodstim60/yogurt no spoon.jpg', 'key': 'u', 'origWidth': 411, 'origHeight': 410, 'width': 411, 'height': 410, 'widthPercent': 0.45, 'rescaleHeight': False, 'trialN': 76, 'loaded': True, 'loadedTime': 4189.600000023842, 'positionName': 'LEFT', 'positionCoords': [510.6, 335], 'bid': 6.3100000000000005}, {'imgObject': {}, 'id': 'roastedpotatoes', 'src': '/static/foodstim60/roastedpotatoes.jpg', 'key': 'i', 'origWidth': 409, 'origHeight': 410, 'width': 409, 'height': 410, 'widthPercent': 0.45, 'rescaleHeight': False, 'trialN': 76, 'loaded': True, 'loadedTime': 4106.600000023842, 'positionName': 'RIGHT', 'positionCoords': [998.4, 335], 'bid': 8.89}]",123210.0,1669838834298,yogurt no spoon,roastedpotatoes,6.3100000000000005,8.89,2.58,roastedpotatoes,1119.6000000238419,1120,1120.1000000238419,True,i,124834.5,1624.5,1669838835923,1625,HRV,HRV_0269,2022-11-30 20:10:24
77,"[{'imgObject': {}, 'id': 'turkey sandwich', 'src': '/static/foodstim60/turkey sandwich.jpg', 'key': 'u', 'origWidth': 409, 'origHeight': 409, 'width': 409, 'height': 409, 'widthPercent': 0.45, 'rescaleHeight': False, 'trialN': 77, 'loaded': True, 'loadedTime': 4222.799999952316, 'positionName': 'LEFT', 'positionCoords': [512.6, 335.5], 'bid': 9.2}, {'imgObject': {}, 'id': 'Tribe humus pita', 'src': '/static/foodstim60/Tribe humus pita.jpg', 'key': 'i', 'origWidth': 411, 'origHeight': 411, 'width': 411, 'height': 411, 'widthPercent': 0.45, 'rescaleHeight': False, 'trialN': 77, 'loaded': True, 'loadedTime': 3919.100000023842, 'positionName': 'RIGHT', 'positionCoords': [998.4, 334.5], 'bid': 6.66}]",124834.69999992847,1669838835923,turkey sandwich,Tribe humus pita,9.2,6.66,-2.539999999999999,turkey sandwich,1070.8000000715256,1071,1071.3000000715256,True,u,126421.19999992847,1586.5,1669838837509,1586,HRV,HRV_0269,2022-11-30 20:10:24
78,"[{'imgObject': {}, 'id': 'fried eggs', 'src': '/static/foodstim60/fried eggs.jpg', 'key': 'u', 'origWidth': 410, 'origHeight': 410, 'width': 410, 'height': 410, 'widthPercent': 0.45, 'rescaleHeight': False, 'trialN': 78, 'loaded': True, 'loadedTime': 3985, 'positionName': 'LEFT', 'positionCoords': [511.6, 335], 'bid': 5.01}, {'imgObject': {}, 'id': 'fruitsalad', 'src': '/static/foodstim60/fruitsalad.jpg', 'key': 'i', 'origWidth': 410, 'origHeight': 410, 'width': 410, 'height': 410, 'widthPercent': 0.45, 'rescaleHeight': False, 'trialN': 78, 'loaded': True, 'loadedTime': 4225, 'positionName': 'RIGHT', 'positionCoords': [998.4, 335], 'bid': 7.12}]",126421.39999997616,1669838837509,fried eggs,fruitsalad,5.01,7.12,2.1100000000000003,fruitsalad,1340.3999999761581,1341,1340.8999999761581,True,i,128265.69999992847,1844.2999999523163,1669838839354,1845,HRV,HRV_0269,2022-11-30 20:10:24
79,"[{'imgObject': {}, 'id': 'mashed potato', 'src': '/static/foodstim60/mashed potato.jpg', 'key': 'u', 'origWidth': 409, 'origHeight': 409, 'width': 409, 'height': 409, 'widthPercent': 0.45, 'rescaleHeight': False, 'trialN': 79, 'loaded': True, 'loadedTime': 3838.399999976158, 'positionName': 'LEFT', 'positionCoords': [512.6, 335.5], 'bid': 7.4}, {'imgObject': {}, 'id': 'fruitsalad', 'src': '/static/foodstim60/fruitsalad.jpg', 'key': 'i', 'origWidth': 410, 'origHeight': 410, 'width': 410, 'height': 410, 'widthPercent': 0.45, 'rescaleHeight': False, 'trialN': 79, 'loaded': True, 'loadedTime': 4225.100000023842, 'positionName': 'RIGHT', 'positionCoords': [998.4, 335], 'bid': 7.12}]",128265.89999997616,1669838839354,mashed potato,fruitsalad,7.4,7.12,-0.28000000000000025,mashed potato,1336.2999999523163,1337,1336.7000000476837,True,u,130113.79999995232,1847.8999999761581,1669838841202,1848,HRV,HRV_0269,2022-11-30 20:10:24
80,"[{'imgObject': {}, 'id': 'turkey sandwich', 'src': '/static/foodstim60/turkey sandwich.jpg', 'key': 'u', 'origWidth': 409, 'origHeight': 409, 'width': 409, 'height': 409, 'widthPercent': 0.45, 'rescaleHeight': False, 'trialN': 80, 'loaded': True, 'loadedTime': 4214, 'positionName': 'LEFT', 'positionCoords': [512.6, 335.5], 'bid': 9.2}, {'imgObject': {}, 'id': 'raspberries', 'src': '/static/foodstim60/raspberries.jpg', 'key': 'i', 'origWidth': 411, 'origHeight': 411, 'width': 411, 'height': 411, 'widthPercent': 0.45, 'rescaleHeight': False, 'trialN': 80, 'loaded': True, 'loadedTime': 4230.299999952316, 'positionName': 'RIGHT', 'positionCoords': [998.4, 334.5], 'bid': 6.15}]",130114.0,1669838841202,turkey sandwich,raspberries,9.2,6.15,-3.049999999999999,turkey sandwich,871.6000000238419,872,872.2999999523163,True,u,131498.29999995232,1384.2999999523163,1669838842586,1384,HRV,HRV_0269,2022-11-30 20:10:24
81,"[{'imgObject': {}, 'id': 'olives', 'src': '/static/foodstim60/olives.jpg', 'key': 'u', 'origWidth': 410, 'origHeight': 410, 'width': 410, 'height': 410, 'widthPercent': 0.45, 'rescaleHeight': False, 'trialN': 81, 'loaded': True, 'loadedTime': 4140.699999928474, 'positionName': 'LEFT', 'positionCoords': [511.6, 335], 'bid': 1.37}, {'imgObject': {}, 'id': 'cheerios', 'src': '/static/foodstim60/cheerios.jpg', 'key': 'i', 'origWidth': 409, 'origHeight': 410, 'width': 409, 'height': 410, 'widthPercent': 0.45, 'rescaleHeight': False, 'trialN': 81, 'loaded': True, 'loadedTime': 3554.2999999523163, 'positionName': 'RIGHT', 'positionCoords': [998.4, 335], 'bid': 0.88}]",131498.5,1669838842587,olives,cheerios,1.37,0.88,-0.4900000000000001,olives,903.1000000238419,903,903.6999999284744,True,u,132903.5,1405.0,1669838843992,1405,HRV,HRV_0269,2022-11-30 20:10:24
82,"[{'imgObject': {}, 'id': 'rigatoni', 'src': '/static/foodstim60/rigatoni.jpg', 'key': 'u', 'origWidth': 411, 'origHeight': 411, 'width': 411, 'height': 411, 'widthPercent': 0.45, 'rescaleHeight': False, 'trialN': 82, 'loaded': True, 'loadedTime': 4076.7999999523163, 'positionName': 'LEFT', 'positionCoords': [510.6, 334.5], 'bid': 5.01}, {'imgObject': {}, 'id': 'fried eggs', 'src': '/static/foodstim60/fried eggs.jpg', 'key': 'i', 'origWidth': 410, 'origHeight': 410, 'width': 410, 'height': 410, 'widthPercent': 0.45, 'rescaleHeight': False, 'trialN': 82, 'loaded': True, 'loadedTime': 3994.6999999284744, 'positionName': 'RIGHT', 'positionCoords': [998.4, 335], 'bid': 5.01}]",132903.89999997616,1669838843992,rigatoni,fried eggs,5.01,5.01,0.0,fried eggs,905.8999999761581,906,906.2000000476837,True,i,134320.39999997616,1416.5,1669838845408,1416,HRV,HRV_0269,2022-11-30 20:10:24
83,"[{'imgObject': {}, 'id': 'strawberries', 'src': '/static/foodstim60/strawberries.jpg', 'key': 'u', 'origWidth': 410, 'origHeight': 410, 'width': 410, 'height': 410, 'widthPercent': 0.45, 'rescaleHeight': False, 'trialN': 83, 'loaded': True, 'loadedTime': 4188, 'positionName': 'LEFT', 'positionCoords': [511.6, 335], 'bid': 8.07}, {'imgObject': {}, 'id': 'mac & cheese', 'src': '/static/foodstim60/mac & cheese.jpg', 'key': 'i', 'origWidth': 410, 'origHeight': 410, 'width': 410, 'height': 410, 'widthPercent': 0.45, 'rescaleHeight': False, 'trialN': 83, 'loaded': True, 'loadedTime': 3749.1999999284744, 'positionName': 'RIGHT', 'positionCoords': [998.4, 335], 'bid': 9.98}]",134320.69999992847,1669838845409,strawberries,mac & cheese,8.07,9.98,1.9100000000000001,mac & cheese,1049.1000000238419,1049,1049.6000000238419,True,i,135872.19999992847,1551.5,1669838846960,1551,HRV,HRV_0269,2022-11-30 20:10:24
84,"[{'imgObject': {}, 'id': 'avocado', 'src': '/static/foodstim60/avocado.jpg', 'key': 'u', 'origWidth': 409, 'origHeight': 409, 'width': 409, 'height': 409, 'widthPercent': 0.45, 'rescaleHeight': False, 'trialN': 84, 'loaded': True, 'loadedTime': 3997.899999976158, 'positionName': 'LEFT', 'positionCoords': [512.6, 335.5], 'bid': 5.89}, {'imgObject': {}, 'id': 'rigatoni', 'src': '/static/foodstim60/rigatoni.jpg', 'key': 'i', 'origWidth': 411, 'origHeight': 411, 'width': 411, 'height': 411, 'widthPercent': 0.45, 'rescaleHeight': False, 'trialN': 84, 'loaded': True, 'loadedTime': 4076.6999999284744, 'positionName': 'RIGHT', 'positionCoords': [998.4, 334.5], 'bid': 5.01}]",135872.60000002384,1669838846961,avocado,rigatoni,5.89,5.01,-0.8799999999999999,avocado,1097.5,1097,1097.7999999523163,True,u,137474.79999995232,1602.1999999284744,1669838848563,1602,HRV,HRV_0269,2022-11-30 20:10:24
85,"[{'imgObject': {}, 'id': 'tacos', 'src': '/static/foodstim60/tacos.jpg', 'key': 'u', 'origWidth': 411, 'origHeight': 411, 'width': 411, 'height': 411, 'widthPercent': 0.45, 'rescaleHeight': False, 'trialN': 85, 'loaded': True, 'loadedTime': 3940.1999999284744, 'positionName': 'LEFT', 'positionCoords': [510.6, 334.5], 'bid': 9.97}, {'imgObject': {}, 'id': 'salmon', 'src': '/static/foodstim60/salmon.jpg', 'key': 'i', 'origWidth': 410, 'origHeight': 409, 'width': 410, 'height': 409, 'widthPercent': 0.45, 'rescaleHeight': False, 'trialN': 85, 'loaded': True, 'loadedTime': 4151.699999928474, 'positionName': 'RIGHT', 'positionCoords': [998.4, 335.5], 'bid': 5.01}]",137475.0,1669838848563,tacos,salmon,9.97,5.01,-4.960000000000001,tacos,1111.1000000238419,1112,1111.5,True,u,139094.39999997616,1619.3999999761581,1669838850183,1620,HRV,HRV_0269,2022-11-30 20:10:24
86,"[{'imgObject': {}, 'id': 'grilled chicken strips', 'src': '/static/foodstim60/grilled chicken strips.jpg', 'key': 'u', 'origWidth': 410, 'origHeight': 411, 'width': 410, 'height': 411, 'widthPercent': 0.45, 'rescaleHeight': False, 'trialN': 86, 'loaded': True, 'loadedTime': 4140.799999952316, 'positionName': 'LEFT', 'positionCoords': [511.6, 334.5], 'bid': 1.21}, {'imgObject': {}, 'id': 'edamame', 'src': '/static/foodstim60/edamame.jpg', 'key': 'i', 'origWidth': 409, 'origHeight': 410, 'width': 409, 'height': 410, 'widthPercent': 0.45, 'rescaleHeight': False, 'trialN': 86, 'loaded': True, 'loadedTime': 4127.600000023842, 'positionName': 'RIGHT', 'positionCoords': [998.4, 335], 'bid': 0.22}]",139094.60000002384,1669838850183,grilled chicken strips,edamame,1.21,0.22,-0.99,grilled chicken strips,1051.6999999284744,1052,1052.0999999046326,True,u,140664.10000002384,1569.5,1669838851752,1569,HRV,HRV_0269,2022-11-30 20:10:24
87,"[{'imgObject': {}, 'id': 'bagel plain', 'src': '/static/foodstim60/bagel plain.jpg', 'key': 'u', 'origWidth': 410, 'origHeight': 410, 'width': 410, 'height': 410, 'widthPercent': 0.45, 'rescaleHeight': False, 'trialN': 87, 'loaded': True, 'loadedTime': 4231.899999976158, 'positionName': 'LEFT', 'positionCoords': [511.6, 335], 'bid': 10}, {'imgObject': {}, 'id': 'omelette', 'src': '/static/foodstim60/omelette.jpg', 'key': 'i', 'origWidth': 410, 'origHeight': 409, 'width': 410, 'height': 409, 'widthPercent': 0.45, 'rescaleHeight': False, 'trialN': 87, 'loaded': True, 'loadedTime': 4085.899999976158, 'positionName': 'RIGHT', 'positionCoords': [998.4, 335.5], 'bid': 5.01}]",140664.39999997616,1669838851752,bagel plain,omelette,10.0,5.01,-4.99,bagel plain,905.2000000476837,906,905.7000000476837,True,u,142070.89999997616,1406.5,1669838853159,1407,HRV,HRV_0269,2022-11-30 20:10:24
88,"[{'imgObject': {}, 'id': 'raisin bran w milk', 'src': '/static/foodstim60/raisin bran w milk.jpg', 'key': 'u', 'origWidth': 411, 'origHeight': 411, 'width': 411, 'height': 411, 'widthPercent': 0.45, 'rescaleHeight': False, 'trialN': 88, 'loaded': True, 'loadedTime': 4138.399999976158, 'positionName': 'LEFT', 'positionCoords': [510.6, 334.5], 'bid': 0.1}, {'imgObject': {}, 'id': 'salad w chicken', 'src': '/static/foodstim60/salad w chicken.jpg', 'key': 'i', 'origWidth': 411, 'origHeight': 411, 'width': 411, 'height': 411, 'widthPercent': 0.45, 'rescaleHeight': False, 'trialN': 88, 'loaded': True, 'loadedTime': 3714.399999976158, 'positionName': 'RIGHT', 'positionCoords': [998.4, 334.5], 'bid': 6.71}]",142071.10000002384,1669838853159,raisin bran w milk,salad w chicken,0.1,6.71,6.61,salad w chicken,883.0999999046326,884,883.3999999761581,True,i,143461.10000002384,1390.0,1669838854549,1390,HRV,HRV_0269,2022-11-30 20:10:24
89,"[{'imgObject': {}, 'id': 'chickenfingers', 'src': '/static/foodstim60/chickenfingers.jpg', 'key': 'u', 'origWidth': 410, 'origHeight': 410, 'width': 410, 'height': 410, 'widthPercent': 0.45, 'rescaleHeight': False, 'trialN': 89, 'loaded': True, 'loadedTime': 3804.5, 'positionName': 'LEFT', 'positionCoords': [511.6, 335], 'bid': 0.76}, {'imgObject': {}, 'id': 'Grapes', 'src': '/static/foodstim60/Grapes.jpg', 'key': 'i', 'origWidth': 411, 'origHeight': 411, 'width': 411, 'height': 411, 'widthPercent': 0.45, 'rescaleHeight': False, 'trialN': 89, 'loaded': True, 'loadedTime': 3870, 'positionName': 'RIGHT', 'positionCoords': [998.4, 334.5], 'bid': 8.790000000000001}]",143461.5,1669838854550,chickenfingers,Grapes,0.76,8.790000000000001,8.030000000000001,Grapes,1460.1999999284744,1460,1460.6000000238419,True,i,145512.79999995232,2051.2999999523163,1669838856601,2051,HRV,HRV_0269,2022-11-30 20:10:24
90,"[{'imgObject': {}, 'id': 'tacos', 'src': '/static/foodstim60/tacos.jpg', 'key': 'u', 'origWidth': 411, 'origHeight': 411, 'width': 411, 'height': 411, 'widthPercent': 0.45, 'rescaleHeight': False, 'trialN': 90, 'loaded': True, 'loadedTime': 3948.5, 'positionName': 'LEFT', 'positionCoords': [510.6, 334.5], 'bid': 9.97}, {'imgObject': {}, 'id': 'Tribe humus pita', 'src': '/static/foodstim60/Tribe humus pita.jpg', 'key': 'i', 'origWidth': 411, 'origHeight': 411, 'width': 411, 'height': 411, 'widthPercent': 0.45, 'rescaleHeight': False, 'trialN': 90, 'loaded': True, 'loadedTime': 3912, 'positionName': 'RIGHT', 'positionCoords': [998.4, 334.5], 'bid': 6.66}]",153561.29999995232,1669838864649,tacos,Tribe humus pita,9.97,6.66,-3.3100000000000005,tacos,1840.8000000715256,1842,1841.3999999761581,True,u,155905.19999992847,2343.899999976158,1669838866993,2344,HRV,HRV_0269,2022-11-30 20:10:24
91,"[{'imgObject': {}, 'id': 'cantaloupe', 'src': '/static/foodstim60/cantaloupe.jpg', 'key': 'u', 'origWidth': 409, 'origHeight': 409, 'width': 409, 'height': 409, 'widthPercent': 0.45, 'rescaleHeight': False, 'trialN': 91, 'loaded': True, 'loadedTime': 3996.399999976158, 'positionName': 'LEFT', 'positionCoords': [512.6, 335.5], 'bid': 0}, {'imgObject': {}, 'id': 'burger', 'src': '/static/foodstim60/burger.jpg', 'key': 'i', 'origWidth': 409, 'origHeight': 409, 'width': 409, 'height': 409, 'widthPercent': 0.45, 'rescaleHeight': False, 'trialN': 91, 'loaded': True, 'loadedTime': 4046.899999976158, 'positionName': 'RIGHT', 'positionCoords': [998.4, 335.5], 'bid': 0}]",155905.79999995232,1669838866994,cantaloupe,burger,0.0,0.0,0.0,cantaloupe,1480.6000000238419,1481,1481.0,True,u,157907.69999992847,2001.8999999761581,1669838868996,2002,HRV,HRV_0269,2022-11-30 20:10:24
92,"[{'imgObject': {}, 'id': 'fruitsalad', 'src': '/static/foodstim60/fruitsalad.jpg', 'key': 'u', 'origWidth': 410, 'origHeight': 410, 'width': 410, 'height': 410, 'widthPercent': 0.45, 'rescaleHeight': False, 'trialN': 92, 'loaded': True, 'loadedTime': 4223.399999976158, 'positionName': 'LEFT', 'positionCoords': [511.6, 335], 'bid': 7.12}, {'imgObject': {}, 'id': 'hotdog w must', 'src': '/static/foodstim60/hotdog w must.jpg', 'key': 'i', 'origWidth': 409, 'origHeight': 409, 'width': 409, 'height': 409, 'widthPercent': 0.45, 'rescaleHeight': False, 'trialN': 92, 'loaded': True, 'loadedTime': 4242.5, 'positionName': 'RIGHT', 'positionCoords': [998.4, 335.5], 'bid': 9.95}]",157908.10000002384,1669838868996,fruitsalad,hotdog w must,7.12,9.95,2.829999999999999,hotdog w must,1221.6999999284744,1222,1222.0999999046326,True,i,159638.5,1730.3999999761581,1669838870727,1731,HRV,HRV_0269,2022-11-30 20:10:24
93,"[{'imgObject': {}, 'id': 'strawberries', 'src': '/static/foodstim60/strawberries.jpg', 'key': 'u', 'origWidth': 410, 'origHeight': 410, 'width': 410, 'height': 410, 'widthPercent': 0.45, 'rescaleHeight': False, 'trialN': 93, 'loaded': True, 'loadedTime': 4188.100000023842, 'positionName': 'LEFT', 'positionCoords': [511.6, 335], 'bid': 8.07}, {'imgObject': {}, 'id': 'bagel and cc', 'src': '/static/foodstim60/bagel and cc.jpg', 'key': 'i', 'origWidth': 410, 'origHeight': 410, 'width': 410, 'height': 410, 'widthPercent': 0.45, 'rescaleHeight': False, 'trialN': 93, 'loaded': True, 'loadedTime': 4244.5, 'positionName': 'RIGHT', 'positionCoords': [998.4, 335], 'bid': 9.93}]",159638.89999997616,1669838870727,strawberries,bagel and cc,8.07,9.93,1.8599999999999994,bagel and cc,1010.7999999523163,1011,1011.2000000476837,True,i,161156.19999992847,1517.2999999523163,1669838872244,1517,HRV,HRV_0269,2022-11-30 20:10:24
94,"[{'imgObject': {}, 'id': 'rigatoni and sauce', 'src': '/static/foodstim60/rigatoni and sauce.jpg', 'key': 'u', 'origWidth': 410, 'origHeight': 411, 'width': 410, 'height': 411, 'widthPercent': 0.45, 'rescaleHeight': False, 'trialN': 94, 'loaded': True, 'loadedTime': 4057.600000023842, 'positionName': 'LEFT', 'positionCoords': [511.6, 334.5], 'bid': 4.98}, {'imgObject': {}, 'id': 'steak', 'src': '/static/foodstim60/steak.jpg', 'key': 'i', 'origWidth': 410, 'origHeight': 410, 'width': 410, 'height': 410, 'widthPercent': 0.45, 'rescaleHeight': False, 'trialN': 94, 'loaded': True, 'loadedTime': 4165, 'positionName': 'RIGHT', 'positionCoords': [998.4, 335], 'bid': 9.97}]",161156.5,1669838872245,rigatoni and sauce,steak,4.98,9.97,4.99,steak,909.1000000238419,909,909.6999999284744,True,i,162581.69999992847,1425.1999999284744,1669838873670,1425,HRV,HRV_0269,2022-11-30 20:10:24
95,"[{'imgObject': {}, 'id': 'bagel and cc', 'src': '/static/foodstim60/bagel and cc.jpg', 'key': 'u', 'origWidth': 410, 'origHeight': 410, 'width': 410, 'height': 410, 'widthPercent': 0.45, 'rescaleHeight': False, 'trialN': 95, 'loaded': True, 'loadedTime': 4244.299999952316, 'positionName': 'LEFT', 'positionCoords': [511.6, 335], 'bid': 9.93}, {'imgObject': {}, 'id': 'orange slices', 'src': '/static/foodstim60/orange slices.jpg', 'key': 'i', 'origWidth': 409, 'origHeight': 410, 'width': 409, 'height': 410, 'widthPercent': 0.45, 'rescaleHeight': False, 'trialN': 95, 'loaded': True, 'loadedTime': 4106.799999952316, 'positionName': 'RIGHT', 'positionCoords': [998.4, 335], 'bid': 6.82}]",162582.10000002384,1669838873670,bagel and cc,orange slices,9.93,6.82,-3.1099999999999994,bagel and cc,1524.0,1525,1524.5,True,u,164610.10000002384,2028.0,1669838875698,2028,HRV,HRV_0269,2022-11-30 20:10:24
96,"[{'imgObject': {}, 'id': 'fried eggs', 'src': '/static/foodstim60/fried eggs.jpg', 'key': 'u', 'origWidth': 410, 'origHeight': 410, 'width': 410, 'height': 410, 'widthPercent': 0.45, 'rescaleHeight': False, 'trialN': 96, 'loaded': True, 'loadedTime': 3983.600000023842, 'positionName': 'LEFT', 'positionCoords': [511.6, 335], 'bid': 5.01}, {'imgObject': {}, 'id': 'lox', 'src': '/static/foodstim60/lox.jpg', 'key': 'i', 'origWidth': 410, 'origHeight': 411, 'width': 410, 'height': 411, 'widthPercent': 0.45, 'rescaleHeight': False, 'trialN': 96, 'loaded': True, 'loadedTime': 4066.7999999523163, 'positionName': 'RIGHT', 'positionCoords': [998.4, 334.5], 'bid': 4.95}]",164610.79999995232,1669838875699,fried eggs,lox,5.01,4.95,-0.05999999999999961,fried eggs,1047.1000000238419,1062,1062.1000000238419,True,u,166176.89999997616,1566.1000000238419,1669838877265,1566,HRV,HRV_0269,2022-11-30 20:10:24
97,"[{'imgObject': {}, 'id': 'lox', 'src': '/static/foodstim60/lox.jpg', 'key': 'u', 'origWidth': 410, 'origHeight': 411, 'width': 410, 'height': 411, 'widthPercent': 0.45, 'rescaleHeight': False, 'trialN': 97, 'loaded': True, 'loadedTime': 4067.1999999284744, 'positionName': 'LEFT', 'positionCoords': [511.6, 334.5], 'bid': 4.95}, {'imgObject': {}, 'id': 'luckycharms', 'src': '/static/foodstim60/luckycharms.jpg', 'key': 'i', 'origWidth': 410, 'origHeight': 409, 'width': 410, 'height': 409, 'widthPercent': 0.45, 'rescaleHeight': False, 'trialN': 97, 'loaded': True, 'loadedTime': 4034.600000023842, 'positionName': 'RIGHT', 'positionCoords': [998.4, 335.5], 'bid': 0.02}]",166177.10000002384,1669838877265,lox,luckycharms,4.95,0.02,-4.930000000000001,lox,881.3999999761581,884,883.3999999761581,True,u,167574.60000002384,1397.5,1669838878663,1398,HRV,HRV_0269,2022-11-30 20:10:24
98,"[{'imgObject': {}, 'id': 'baked potato', 'src': '/static/foodstim60/baked potato.jpg', 'key': 'u', 'origWidth': 409, 'origHeight': 410, 'width': 409, 'height': 410, 'widthPercent': 0.45, 'rescaleHeight': False, 'trialN': 98, 'loaded': True, 'loadedTime': 3642.5, 'positionName': 'LEFT', 'positionCoords': [512.6, 335], 'bid': 5.57}, {'imgObject': {}, 'id': 'burger', 'src': '/static/foodstim60/burger.jpg', 'key': 'i', 'origWidth': 409, 'origHeight': 409, 'width': 409, 'height': 409, 'widthPercent': 0.45, 'rescaleHeight': False, 'trialN': 98, 'loaded': True, 'loadedTime': 4055.7999999523163, 'positionName': 'RIGHT', 'positionCoords': [998.4, 335.5], 'bid': 0}]",167575.10000002384,1669838878663,baked potato,burger,5.57,0.0,-5.57,baked potato,1138.3999999761581,1139,1139.0999999046326,True,u,169215.19999992847,1640.0999999046326,1669838880303,1640,HRV,HRV_0269,2022-11-30 20:10:24
99,"[{'imgObject': {}, 'id': 'strawberries', 'src': '/static/foodstim60/strawberries.jpg', 'key': 'u', 'origWidth': 410, 'origHeight': 410, 'width': 410, 'height': 410, 'widthPercent': 0.45, 'rescaleHeight': False, 'trialN': 99, 'loaded': True, 'loadedTime': 4188, 'positionName': 'LEFT', 'positionCoords': [511.6, 335], 'bid': 8.07}, {'imgObject': {}, 'id': 'Grapes', 'src': '/static/foodstim60/Grapes.jpg', 'key': 'i', 'origWidth': 411, 'origHeight': 411, 'width': 411, 'height': 411, 'widthPercent': 0.45, 'rescaleHeight': False, 'trialN': 99, 'loaded': True, 'loadedTime': 3870.899999976158, 'positionName': 'RIGHT', 'positionCoords': [998.4, 334.5], 'bid': 8.790000000000001}]",169215.60000002384,1669838880303,strawberries,Grapes,8.07,8.790000000000001,0.7200000000000006,Grapes,1082.7999999523163,1084,1083.3999999761581,True,i,170814.10000002384,1598.5,1669838881902,1599,HRV,HRV_0269,2022-11-30 20:10:24
100,"[{'imgObject': {}, 'id': 'hashbrowns', 'src': '/static/foodstim60/hashbrowns.jpg', 'key': 'u', 'origWidth': 411, 'origHeight': 410, 'width': 411, 'height': 410, 'widthPercent': 0.45, 'rescaleHeight': False, 'trialN': 100, 'loaded': True, 'loadedTime': 4185.399999976158, 'positionName': 'LEFT', 'positionCoords': [510.6, 335], 'bid': 0.01}, {'imgObject': {}, 'id': 'raspberries', 'src': '/static/foodstim60/raspberries.jpg', 'key': 'i', 'origWidth': 411, 'origHeight': 411, 'width': 411, 'height': 411, 'widthPercent': 0.45, 'rescaleHeight': False, 'trialN': 100, 'loaded': True, 'loadedTime': 4229, 'positionName': 'RIGHT', 'positionCoords': [998.4, 334.5], 'bid': 6.15}]",170814.39999997616,1669838881902,hashbrowns,raspberries,0.01,6.15,6.140000000000001,raspberries,1395.5,1396,1395.8999999761581,True,i,172711.69999992847,1897.2999999523163,1669838883800,1898,HRV,HRV_0269,2022-11-30 20:10:24
101,"[{'imgObject': {}, 'id': 'ice cream sundae 002', 'src': '/static/foodstim60/ice cream sundae 002.jpg', 'key': 'u', 'origWidth': 409, 'origHeight': 409, 'width': 409, 'height': 409, 'widthPercent': 0.45, 'rescaleHeight': False, 'trialN': 101, 'loaded': True, 'loadedTime': 3929.7999999523163, 'positionName': 'LEFT', 'positionCoords': [512.6, 335.5], 'bid': 6.08}, {'imgObject': {}, 'id': 'banana', 'src': '/static/foodstim60/banana.jpg', 'key': 'i', 'origWidth': 410, 'origHeight': 410, 'width': 410, 'height': 410, 'widthPercent': 0.45, 'rescaleHeight': False, 'trialN': 101, 'loaded': True, 'loadedTime': 4210.5, 'positionName': 'RIGHT', 'positionCoords': [998.4, 335], 'bid': 6.19}]",172712.10000002384,1669838883800,ice cream sundae 002,banana,6.08,6.19,0.11000000000000032,ice cream sundae 002,1177.5999999046326,1178,1178.0,True,u,174399.39999997616,1687.2999999523163,1669838885487,1687,HRV,HRV_0269,2022-11-30 20:10:24
102,"[{'imgObject': {}, 'id': 'bagel plain', 'src': '/static/foodstim60/bagel plain.jpg', 'key': 'u', 'origWidth': 410, 'origHeight': 410, 'width': 410, 'height': 410, 'widthPercent': 0.45, 'rescaleHeight': False, 'trialN': 102, 'loaded': True, 'loadedTime': 4231.899999976158, 'positionName': 'LEFT', 'positionCoords': [511.6, 335], 'bid': 10}, {'imgObject': {}, 'id': 'Grapes', 'src': '/static/foodstim60/Grapes.jpg', 'key': 'i', 'origWidth': 411, 'origHeight': 411, 'width': 411, 'height': 411, 'widthPercent': 0.45, 'rescaleHeight': False, 'trialN': 102, 'loaded': True, 'loadedTime': 3870.5, 'positionName': 'RIGHT', 'positionCoords': [998.4, 334.5], 'bid': 8.790000000000001}]",174399.69999992847,1669838885488,bagel plain,Grapes,10.0,8.790000000000001,-1.209999999999999,bagel plain,1090.6000000238419,1091,1091.0,True,u,176000.69999992847,1601.0,1669838887088,1600,HRV,HRV_0269,2022-11-30 20:10:24
103,"[{'imgObject': {}, 'id': 'chickenfingers', 'src': '/static/foodstim60/chickenfingers.jpg', 'key': 'u', 'origWidth': 410, 'origHeight': 410, 'width': 410, 'height': 410, 'widthPercent': 0.45, 'rescaleHeight': False, 'trialN': 103, 'loaded': True, 'loadedTime': 3794.399999976158, 'positionName': 'LEFT', 'positionCoords': [511.6, 335], 'bid': 0.76}, {'imgObject': {}, 'id': 'pear', 'src': '/static/foodstim60/pear.jpg', 'key': 'i', 'origWidth': 411, 'origHeight': 410, 'width': 411, 'height': 410, 'widthPercent': 0.45, 'rescaleHeight': False, 'trialN': 103, 'loaded': True, 'loadedTime': 3880.7999999523163, 'positionName': 'RIGHT', 'positionCoords': [998.4, 335], 'bid': 0.62}]",176001.10000002384,1669838887089,chickenfingers,pear,0.76,0.62,-0.14,pear,968.6999999284744,969,969.1999999284744,True,i,177471.5,1470.3999999761581,1669838888559,1470,HRV,HRV_0269,2022-11-30 20:10:24
104,"[{'imgObject': {}, 'id': 'blackbeanswithrice', 'src': '/static/foodstim60/blackbeanswithrice.jpg', 'key': 'u', 'origWidth': 410, 'origHeight': 410, 'width': 410, 'height': 410, 'widthPercent': 0.45, 'rescaleHeight': False, 'trialN': 104, 'loaded': True, 'loadedTime': 4228.899999976158, 'positionName': 'LEFT', 'positionCoords': [511.6, 335], 'bid': 0}, {'imgObject': {}, 'id': 'shreddedwheatwithmilk', 'src': '/static/foodstim60/shreddedwheatwithmilk.jpg', 'key': 'i', 'origWidth': 410, 'origHeight': 410, 'width': 410, 'height': 410, 'widthPercent': 0.45, 'rescaleHeight': False, 'trialN': 104, 'loaded': True, 'loadedTime': 3939.600000023842, 'positionName': 'RIGHT', 'positionCoords': [998.4, 335], 'bid': 0.33}]",177471.89999997616,1669838888560,blackbeanswithrice,shreddedwheatwithmilk,0.0,0.33,0.33,blackbeanswithrice,961.8999999761581,963,962.7999999523163,True,u,178946.5,1474.6000000238419,1669838890034,1474,HRV,HRV_0269,2022-11-30 20:10:24
105,"[{'imgObject': {}, 'id': 'apple slices', 'src': '/static/foodstim60/apple slices.jpg', 'key': 'u', 'origWidth': 409, 'origHeight': 410, 'width': 409, 'height': 410, 'widthPercent': 0.45, 'rescaleHeight': False, 'trialN': 105, 'loaded': True, 'loadedTime': 4174.199999928474, 'positionName': 'LEFT', 'positionCoords': [512.6, 335], 'bid': 0.05}, {'imgObject': {}, 'id': 'eggsalad', 'src': '/static/foodstim60/eggsalad.jpg', 'key': 'i', 'origWidth': 410, 'origHeight': 409, 'width': 410, 'height': 409, 'widthPercent': 0.45, 'rescaleHeight': False, 'trialN': 105, 'loaded': True, 'loadedTime': 3769.7999999523163, 'positionName': 'RIGHT', 'positionCoords': [998.4, 335.5], 'bid': 4.97}]",178946.79999995232,1669838890035,apple slices,eggsalad,0.05,4.97,4.92,eggsalad,934.8000000715256,935,935.2000000476837,True,i,180383.5,1436.7000000476837,1669838891471,1436,HRV,HRV_0269,2022-11-30 20:10:24
106,"[{'imgObject': {}, 'id': 'bagel and cc', 'src': '/static/foodstim60/bagel and cc.jpg', 'key': 'u', 'origWidth': 410, 'origHeight': 410, 'width': 410, 'height': 410, 'widthPercent': 0.45, 'rescaleHeight': False, 'trialN': 106, 'loaded': True, 'loadedTime': 4244.199999928474, 'positionName': 'LEFT', 'positionCoords': [511.6, 335], 'bid': 9.93}, {'imgObject': {}, 'id': 'lox', 'src': '/static/foodstim60/lox.jpg', 'key': 'i', 'origWidth': 410, 'origHeight': 411, 'width': 410, 'height': 411, 'widthPercent': 0.45, 'rescaleHeight': False, 'trialN': 106, 'loaded': True, 'loadedTime': 4067, 'positionName': 'RIGHT', 'positionCoords': [998.4, 334.5], 'bid': 4.95}]",180384.0,1669838891472,bagel and cc,lox,9.93,4.95,-4.9799999999999995,bagel and cc,897.6000000238419,898,898.0,True,u,181786.29999995232,1402.2999999523163,1669838892874,1402,HRV,HRV_0269,2022-11-30 20:10:24
107,"[{'imgObject': {}, 'id': 'sushi w_condiments', 'src': '/static/foodstim60/sushi w_condiments.jpg', 'key': 'u', 'origWidth': 410, 'origHeight': 410, 'width': 410, 'height': 410, 'widthPercent': 0.45, 'rescaleHeight': False, 'trialN': 107, 'loaded': True, 'loadedTime': 4163, 'positionName': 'LEFT', 'positionCoords': [511.6, 335], 'bid': 9.92}, {'imgObject': {}, 'id': 'hotdog w must', 'src': '/static/foodstim60/hotdog w must.jpg', 'key': 'i', 'origWidth': 409, 'origHeight': 409, 'width': 409, 'height': 409, 'widthPercent': 0.45, 'rescaleHeight': False, 'trialN': 107, 'loaded': True, 'loadedTime': 4232.100000023842, 'positionName': 'RIGHT', 'positionCoords': [998.4, 335.5], 'bid': 9.95}]",181786.60000002384,1669838892874,sushi w_condiments,hotdog w must,9.92,9.95,0.02999999999999936,hotdog w must,1103.3999999761581,1104,1103.6999999284744,True,i,183401.69999992847,1615.0999999046326,1669838894490,1616,HRV,HRV_0269,2022-11-30 20:10:24
108,"[{'imgObject': {}, 'id': 'seaweed', 'src': '/static/foodstim60/seaweed.jpg', 'key': 'u', 'origWidth': 410, 'origHeight': 410, 'width': 410, 'height': 410, 'widthPercent': 0.45, 'rescaleHeight': False, 'trialN': 108, 'loaded': True, 'loadedTime': 4225.100000023842, 'positionName': 'LEFT', 'positionCoords': [511.6, 335], 'bid': 9.02}, {'imgObject': {}, 'id': 'Grapes', 'src': '/static/foodstim60/Grapes.jpg', 'key': 'i', 'origWidth': 411, 'origHeight': 411, 'width': 411, 'height': 411, 'widthPercent': 0.45, 'rescaleHeight': False, 'trialN': 108, 'loaded': True, 'loadedTime': 3880.2999999523163, 'positionName': 'RIGHT', 'positionCoords': [998.4, 334.5], 'bid': 8.790000000000001}]",183401.89999997616,1669838894490,seaweed,Grapes,9.02,8.790000000000001,-0.22999999999999865,seaweed,1128.2000000476837,1128,1128.6000000238419,True,u,185032.89999997616,1631.0,1669838896121,1631,HRV,HRV_0269,2022-11-30 20:10:24
109,"[{'imgObject': {}, 'id': 'avocado', 'src': '/static/foodstim60/avocado.jpg', 'key': 'u', 'origWidth': 409, 'origHeight': 409, 'width': 409, 'height': 409, 'widthPercent': 0.45, 'rescaleHeight': False, 'trialN': 109, 'loaded': True, 'loadedTime': 3997.7999999523163, 'positionName': 'LEFT', 'positionCoords': [512.6, 335.5], 'bid': 5.89}, {'imgObject': {}, 'id': 'cherries', 'src': '/static/foodstim60/cherries.jpg', 'key': 'i', 'origWidth': 410, 'origHeight': 411, 'width': 410, 'height': 411, 'widthPercent': 0.45, 'rescaleHeight': False, 'trialN': 109, 'loaded': True, 'loadedTime': 3771.100000023842, 'positionName': 'RIGHT', 'positionCoords': [998.4, 334.5], 'bid': 6.01}]",185033.19999992847,1669838896121,avocado,cherries,5.89,6.01,0.1200000000000001,avocado,1361.0,1362,1361.5,True,u,186902.39999997616,1869.2000000476837,1669838897990,1869,HRV,HRV_0269,2022-11-30 20:10:24
