trialN,stimuli,question,trialStartTime,trialStartTime_UNIX,stimulus1,rt,receivedResponse,rating,trialEndTime,trialDuration,stimulus1Loaded,exp,subjectId,date
0,"[{'imgObject': {}, 'id': 'Grapes', 'src': '/static/foodstim60/Grapes.jpg', 'key': 'NaN', 'origWidth': 411, 'origHeight': 411, 'width': 411, 'height': 411, 'widthPercent': 0.8, 'rescaleHeight': True, 'trialN': 0, 'loaded': True, 'loadedTime': 2395.4000000059605, 'positionName': 'CENTER', 'positionCoords': [370.5, 154.5]}]",Rate how much you want to eat this food from 0 (least) to 10 (most).,3246.2000000029802,1669829849779,Grapes,7960.4000000059605,True,8.55,11206.60000000894,7960.4000000059605,True,HRV,HRV_0128,2022-11-30 17:39:14
1,"[{'imgObject': {}, 'id': 'sweetpotato', 'src': '/static/foodstim60/sweetpotato.jpg', 'key': 'NaN', 'origWidth': 410, 'origHeight': 410, 'width': 410, 'height': 410, 'widthPercent': 0.8, 'rescaleHeight': True, 'trialN': 1, 'loaded': True, 'loadedTime': 2392.6000000089407, 'positionName': 'CENTER', 'positionCoords': [371, 155]}]",Rate how much you want to eat this food from 0 (least) to 10 (most).,11208.20000000298,1669829857741,sweetpotato,1830.2000000029802,True,7.51,13038.40000000596,1830.2000000029802,True,HRV,HRV_0128,2022-11-30 17:39:14
2,"[{'imgObject': {}, 'id': 'ice cream sundae 002', 'src': '/static/foodstim60/ice cream sundae 002.jpg', 'key': 'NaN', 'origWidth': 409, 'origHeight': 409, 'width': 409, 'height': 409, 'widthPercent': 0.8, 'rescaleHeight': True, 'trialN': 2, 'loaded': True, 'loadedTime': 2389.300000011921, 'positionName': 'CENTER', 'positionCoords': [371.5, 155.5]}]",Rate how much you want to eat this food from 0 (least) to 10 (most).,13039.20000000298,1669829859572,ice cream sundae 002,1303.6000000089407,True,8.76,14342.800000011921,1303.6000000089407,True,HRV,HRV_0128,2022-11-30 17:39:14
3,"[{'imgObject': {}, 'id': 'edamame', 'src': '/static/foodstim60/edamame.jpg', 'key': 'NaN', 'origWidth': 409, 'origHeight': 410, 'width': 409, 'height': 410, 'widthPercent': 0.8, 'rescaleHeight': True, 'trialN': 3, 'loaded': True, 'loadedTime': 2401, 'positionName': 'CENTER', 'positionCoords': [371.5, 155]}]",Rate how much you want to eat this food from 0 (least) to 10 (most).,14343.60000000894,1669829860876,edamame,3167.0,True,5.48,17510.60000000894,3167.0,True,HRV,HRV_0128,2022-11-30 17:39:14
4,"[{'imgObject': {}, 'id': 'froot loops w milk', 'src': '/static/foodstim60/froot loops w milk.jpg', 'key': 'NaN', 'origWidth': 410, 'origHeight': 410, 'width': 410, 'height': 410, 'widthPercent': 0.8, 'rescaleHeight': True, 'trialN': 4, 'loaded': True, 'loadedTime': 2402.1000000089407, 'positionName': 'CENTER', 'positionCoords': [371, 155]}]",Rate how much you want to eat this food from 0 (least) to 10 (most).,17511.40000000596,1669829864044,froot loops w milk,1823.4000000059605,True,2.6,19334.80000001192,1823.4000000059605,True,HRV,HRV_0128,2022-11-30 17:39:14
5,"[{'imgObject': {}, 'id': 'luckycharms', 'src': '/static/foodstim60/luckycharms.jpg', 'key': 'NaN', 'origWidth': 410, 'origHeight': 409, 'width': 410, 'height': 409, 'widthPercent': 0.8, 'rescaleHeight': True, 'trialN': 5, 'loaded': True, 'loadedTime': 2403, 'positionName': 'CENTER', 'positionCoords': [371, 155.5]}]",Rate how much you want to eat this food from 0 (least) to 10 (most).,19335.5,1669829865868,luckycharms,1590.9000000059605,True,2.44,20926.40000000596,1590.9000000059605,True,HRV,HRV_0128,2022-11-30 17:39:14
6,"[{'imgObject': {}, 'id': 'hotdog w must', 'src': '/static/foodstim60/hotdog w must.jpg', 'key': 'NaN', 'origWidth': 409, 'origHeight': 409, 'width': 409, 'height': 409, 'widthPercent': 0.8, 'rescaleHeight': True, 'trialN': 6, 'loaded': True, 'loadedTime': 2445.1000000089407, 'positionName': 'CENTER', 'positionCoords': [371.5, 155.5]}]",Rate how much you want to eat this food from 0 (least) to 10 (most).,20927.30000001192,1669829867460,hotdog w must,1799.5,True,5.01,22726.80000001192,1799.5,True,HRV,HRV_0128,2022-11-30 17:39:14
7,"[{'imgObject': {}, 'id': 'chickenfingers', 'src': '/static/foodstim60/chickenfingers.jpg', 'key': 'NaN', 'origWidth': 410, 'origHeight': 410, 'width': 410, 'height': 410, 'widthPercent': 0.8, 'rescaleHeight': True, 'trialN': 7, 'loaded': True, 'loadedTime': 2489.7000000029802, 'positionName': 'CENTER', 'positionCoords': [371, 155]}]",Rate how much you want to eat this food from 0 (least) to 10 (most).,22727.70000000298,1669829869260,chickenfingers,1686.9000000059605,True,5.5200000000000005,24414.60000000894,1686.9000000059605,True,HRV,HRV_0128,2022-11-30 17:39:14
8,"[{'imgObject': {}, 'id': 'burger', 'src': '/static/foodstim60/burger.jpg', 'key': 'NaN', 'origWidth': 409, 'origHeight': 409, 'width': 409, 'height': 409, 'widthPercent': 0.8, 'rescaleHeight': True, 'trialN': 8, 'loaded': True, 'loadedTime': 2462.5, 'positionName': 'CENTER', 'positionCoords': [371.5, 155.5]}]",Rate how much you want to eat this food from 0 (least) to 10 (most).,24415.60000000894,1669829870948,burger,1606.7000000029802,True,6.38,26022.30000001192,1606.7000000029802,True,HRV,HRV_0128,2022-11-30 17:39:14
9,"[{'imgObject': {}, 'id': 'cantaloupe', 'src': '/static/foodstim60/cantaloupe.jpg', 'key': 'NaN', 'origWidth': 409, 'origHeight': 409, 'width': 409, 'height': 409, 'widthPercent': 0.8, 'rescaleHeight': True, 'trialN': 9, 'loaded': True, 'loadedTime': 2461.9000000059605, 'positionName': 'CENTER', 'positionCoords': [371.5, 155.5]}]",Rate how much you want to eat this food from 0 (least) to 10 (most).,26023.20000000298,1669829872556,cantaloupe,1327.2000000029802,True,4.93,27350.40000000596,1327.2000000029802,True,HRV,HRV_0128,2022-11-30 17:39:14
10,"[{'imgObject': {}, 'id': 'strawberries', 'src': '/static/foodstim60/strawberries.jpg', 'key': 'NaN', 'origWidth': 410, 'origHeight': 410, 'width': 410, 'height': 410, 'widthPercent': 0.8, 'rescaleHeight': True, 'trialN': 10, 'loaded': True, 'loadedTime': 2463.2000000029802, 'positionName': 'CENTER', 'positionCoords': [371, 155]}]",Rate how much you want to eat this food from 0 (least) to 10 (most).,27351.30000001192,1669829873884,strawberries,1719.0,True,8.78,29070.30000001192,1719.0,True,HRV,HRV_0128,2022-11-30 17:39:14
11,"[{'imgObject': {}, 'id': 'mango', 'src': '/static/foodstim60/mango.jpg', 'key': 'NaN', 'origWidth': 411, 'origHeight': 411, 'width': 411, 'height': 411, 'widthPercent': 0.8, 'rescaleHeight': True, 'trialN': 11, 'loaded': True, 'loadedTime': 2461, 'positionName': 'CENTER', 'positionCoords': [370.5, 154.5]}]",Rate how much you want to eat this food from 0 (least) to 10 (most).,29071.20000000298,1669829875604,mango,1063.5,True,8.290000000000001,30134.70000000298,1063.5,True,HRV,HRV_0128,2022-11-30 17:39:14
12,"[{'imgObject': {}, 'id': 'apple slices', 'src': '/static/foodstim60/apple slices.jpg', 'key': 'NaN', 'origWidth': 409, 'origHeight': 410, 'width': 409, 'height': 410, 'widthPercent': 0.8, 'rescaleHeight': True, 'trialN': 12, 'loaded': True, 'loadedTime': 2500.6000000089407, 'positionName': 'CENTER', 'positionCoords': [371.5, 155]}]",Rate how much you want to eat this food from 0 (least) to 10 (most).,30135.60000000894,1669829876668,apple slices,1334.7999999970198,True,8.69,31470.40000000596,1334.7999999970198,True,HRV,HRV_0128,2022-11-30 17:39:14
13,"[{'imgObject': {}, 'id': 'turkey sandwich', 'src': '/static/foodstim60/turkey sandwich.jpg', 'key': 'NaN', 'origWidth': 409, 'origHeight': 409, 'width': 409, 'height': 409, 'widthPercent': 0.8, 'rescaleHeight': True, 'trialN': 13, 'loaded': True, 'loadedTime': 2520.7000000029802, 'positionName': 'CENTER', 'positionCoords': [371.5, 155.5]}]",Rate how much you want to eat this food from 0 (least) to 10 (most).,31471.5,1669829878004,turkey sandwich,1494.800000011921,True,8.28,32966.30000001192,1494.800000011921,True,HRV,HRV_0128,2022-11-30 17:39:14
14,"[{'imgObject': {}, 'id': 'lox', 'src': '/static/foodstim60/lox.jpg', 'key': 'NaN', 'origWidth': 410, 'origHeight': 411, 'width': 410, 'height': 411, 'widthPercent': 0.8, 'rescaleHeight': True, 'trialN': 14, 'loaded': True, 'loadedTime': 2512.1000000089407, 'positionName': 'CENTER', 'positionCoords': [371, 154.5]}]",Rate how much you want to eat this food from 0 (least) to 10 (most).,32967.20000000298,1669829879500,lox,1887.4000000059605,True,1.77,34854.60000000894,1887.4000000059605,True,HRV,HRV_0128,2022-11-30 17:39:14
15,"[{'imgObject': {}, 'id': 'roastedpotatoes', 'src': '/static/foodstim60/roastedpotatoes.jpg', 'key': 'NaN', 'origWidth': 409, 'origHeight': 410, 'width': 409, 'height': 410, 'widthPercent': 0.8, 'rescaleHeight': True, 'trialN': 15, 'loaded': True, 'loadedTime': 2519.1000000089407, 'positionName': 'CENTER', 'positionCoords': [371.5, 155]}]",Rate how much you want to eat this food from 0 (least) to 10 (most).,34855.60000000894,1669829881388,roastedpotatoes,1478.8999999910593,True,6.3,36334.5,1478.8999999910593,True,HRV,HRV_0128,2022-11-30 17:39:14
16,"[{'imgObject': {}, 'id': 'granola w milk', 'src': '/static/foodstim60/granola w milk.jpg', 'key': 'NaN', 'origWidth': 410, 'origHeight': 410, 'width': 410, 'height': 410, 'widthPercent': 0.8, 'rescaleHeight': True, 'trialN': 16, 'loaded': True, 'loadedTime': 2516.7000000029802, 'positionName': 'CENTER', 'positionCoords': [371, 155]}]",Rate how much you want to eat this food from 0 (least) to 10 (most).,36335.5,1669829882868,granola w milk,1239.0,True,4.0200000000000005,37574.5,1239.0,True,HRV,HRV_0128,2022-11-30 17:39:14
17,"[{'imgObject': {}, 'id': 'rigatoni', 'src': '/static/foodstim60/rigatoni.jpg', 'key': 'NaN', 'origWidth': 411, 'origHeight': 411, 'width': 411, 'height': 411, 'widthPercent': 0.8, 'rescaleHeight': True, 'trialN': 17, 'loaded': True, 'loadedTime': 2537.2000000029802, 'positionName': 'CENTER', 'positionCoords': [370.5, 154.5]}]",Rate how much you want to eat this food from 0 (least) to 10 (most).,37575.5,1669829884108,rigatoni,1302.800000011921,True,7.7,38878.30000001192,1302.800000011921,True,HRV,HRV_0128,2022-11-30 17:39:14
18,"[{'imgObject': {}, 'id': 'raspberries', 'src': '/static/foodstim60/raspberries.jpg', 'key': 'NaN', 'origWidth': 411, 'origHeight': 411, 'width': 411, 'height': 411, 'widthPercent': 0.8, 'rescaleHeight': True, 'trialN': 18, 'loaded': True, 'loadedTime': 2550.1000000089407, 'positionName': 'CENTER', 'positionCoords': [370.5, 154.5]}]",Rate how much you want to eat this food from 0 (least) to 10 (most).,38879.40000000596,1669829885412,raspberries,1471.2000000029802,True,8.83,40350.60000000894,1471.2000000029802,True,HRV,HRV_0128,2022-11-30 17:39:14
19,"[{'imgObject': {}, 'id': 'salad w chicken', 'src': '/static/foodstim60/salad w chicken.jpg', 'key': 'NaN', 'origWidth': 411, 'origHeight': 411, 'width': 411, 'height': 411, 'widthPercent': 0.8, 'rescaleHeight': True, 'trialN': 19, 'loaded': True, 'loadedTime': 2566.4000000059605, 'positionName': 'CENTER', 'positionCoords': [370.5, 154.5]}]",Rate how much you want to eat this food from 0 (least) to 10 (most).,40351.70000000298,1669829886884,salad w chicken,3542.6000000089407,True,9.700000000000001,43894.30000001192,3542.6000000089407,True,HRV,HRV_0128,2022-11-30 17:39:14
20,"[{'imgObject': {}, 'id': 'banana', 'src': '/static/foodstim60/banana.jpg', 'key': 'NaN', 'origWidth': 410, 'origHeight': 410, 'width': 410, 'height': 410, 'widthPercent': 0.8, 'rescaleHeight': True, 'trialN': 20, 'loaded': True, 'loadedTime': 2573.7000000029802, 'positionName': 'CENTER', 'positionCoords': [371, 155]}]",Rate how much you want to eat this food from 0 (least) to 10 (most).,43895.30000001192,1669829890428,banana,1799.0999999940395,True,8.45,45694.40000000596,1799.0999999940395,True,HRV,HRV_0128,2022-11-30 17:39:14
21,"[{'imgObject': {}, 'id': 'rigatoni and sauce', 'src': '/static/foodstim60/rigatoni and sauce.jpg', 'key': 'NaN', 'origWidth': 410, 'origHeight': 411, 'width': 410, 'height': 411, 'widthPercent': 0.8, 'rescaleHeight': True, 'trialN': 21, 'loaded': True, 'loadedTime': 2582, 'positionName': 'CENTER', 'positionCoords': [371, 154.5]}]",Rate how much you want to eat this food from 0 (least) to 10 (most).,45695.5,1669829892228,rigatoni and sauce,1278.9000000059605,True,7.7700000000000005,46974.40000000596,1278.9000000059605,True,HRV,HRV_0128,2022-11-30 17:39:14
22,"[{'imgObject': {}, 'id': 'tacos', 'src': '/static/foodstim60/tacos.jpg', 'key': 'NaN', 'origWidth': 411, 'origHeight': 411, 'width': 411, 'height': 411, 'widthPercent': 0.8, 'rescaleHeight': True, 'trialN': 22, 'loaded': True, 'loadedTime': 2581.1000000089407, 'positionName': 'CENTER', 'positionCoords': [370.5, 154.5]}]",Rate how much you want to eat this food from 0 (least) to 10 (most).,46975.60000000894,1669829893508,tacos,1158.7999999970198,True,8.28,48134.40000000596,1158.7999999970198,True,HRV,HRV_0128,2022-11-30 17:39:14
23,"[{'imgObject': {}, 'id': 'cocktailshrimp', 'src': '/static/foodstim60/cocktailshrimp.jpg', 'key': 'NaN', 'origWidth': 410, 'origHeight': 410, 'width': 410, 'height': 410, 'widthPercent': 0.8, 'rescaleHeight': True, 'trialN': 23, 'loaded': True, 'loadedTime': 2601.9000000059605, 'positionName': 'CENTER', 'positionCoords': [371, 155]}]",Rate how much you want to eat this food from 0 (least) to 10 (most).,48135.5,1669829894668,cocktailshrimp,1654.800000011921,True,0.0,49790.30000001192,1654.800000011921,True,HRV,HRV_0128,2022-11-30 17:39:14
24,"[{'imgObject': {}, 'id': 'steak', 'src': '/static/foodstim60/steak.jpg', 'key': 'NaN', 'origWidth': 410, 'origHeight': 410, 'width': 410, 'height': 410, 'widthPercent': 0.8, 'rescaleHeight': True, 'trialN': 24, 'loaded': True, 'loadedTime': 2602.5, 'positionName': 'CENTER', 'positionCoords': [371, 155]}]",Rate how much you want to eat this food from 0 (least) to 10 (most).,49791.5,1669829896324,steak,2062.9000000059605,True,7.2700000000000005,51854.40000000596,2062.9000000059605,True,HRV,HRV_0128,2022-11-30 17:39:14
25,"[{'imgObject': {}, 'id': 'hashbrowns', 'src': '/static/foodstim60/hashbrowns.jpg', 'key': 'NaN', 'origWidth': 411, 'origHeight': 410, 'width': 411, 'height': 410, 'widthPercent': 0.8, 'rescaleHeight': True, 'trialN': 25, 'loaded': True, 'loadedTime': 2623.6000000089407, 'positionName': 'CENTER', 'positionCoords': [370.5, 155]}]",Rate how much you want to eat this food from 0 (least) to 10 (most).,51855.20000000298,1669829898388,hashbrowns,1263.1000000089407,True,6.21,53118.30000001192,1263.1000000089407,True,HRV,HRV_0128,2022-11-30 17:39:14
26,"[{'imgObject': {}, 'id': 'popsicles', 'src': '/static/foodstim60/popsicles.jpg', 'key': 'NaN', 'origWidth': 410, 'origHeight': 410, 'width': 410, 'height': 410, 'widthPercent': 0.8, 'rescaleHeight': True, 'trialN': 26, 'loaded': True, 'loadedTime': 2732.1000000089407, 'positionName': 'CENTER', 'positionCoords': [371, 155]}]",Rate how much you want to eat this food from 0 (least) to 10 (most).,53119.10000000894,1669829899652,popsicles,1279.2000000029802,True,8.61,54398.30000001192,1279.2000000029802,True,HRV,HRV_0128,2022-11-30 17:39:14
27,"[{'imgObject': {}, 'id': 'blackbeanswithrice', 'src': '/static/foodstim60/blackbeanswithrice.jpg', 'key': 'NaN', 'origWidth': 410, 'origHeight': 410, 'width': 410, 'height': 410, 'widthPercent': 0.8, 'rescaleHeight': True, 'trialN': 27, 'loaded': True, 'loadedTime': 2767.4000000059605, 'positionName': 'CENTER', 'positionCoords': [371, 155]}]",Rate how much you want to eat this food from 0 (least) to 10 (most).,54399.10000000894,1669829900932,blackbeanswithrice,1895.2999999970198,True,9.67,56294.40000000596,1895.2999999970198,True,HRV,HRV_0128,2022-11-30 17:39:14
28,"[{'imgObject': {}, 'id': 'pear', 'src': '/static/foodstim60/pear.jpg', 'key': 'NaN', 'origWidth': 411, 'origHeight': 410, 'width': 411, 'height': 410, 'widthPercent': 0.8, 'rescaleHeight': True, 'trialN': 28, 'loaded': True, 'loadedTime': 2756.800000011921, 'positionName': 'CENTER', 'positionCoords': [370.5, 155]}]",Rate how much you want to eat this food from 0 (least) to 10 (most).,56295.20000000298,1669829902828,pear,1103.4000000059605,True,8.73,57398.60000000894,1103.4000000059605,True,HRV,HRV_0128,2022-11-30 17:39:14
29,"[{'imgObject': {}, 'id': 'yogurt no spoon', 'src': '/static/foodstim60/yogurt no spoon.jpg', 'key': 'NaN', 'origWidth': 411, 'origHeight': 410, 'width': 411, 'height': 410, 'widthPercent': 0.8, 'rescaleHeight': True, 'trialN': 29, 'loaded': True, 'loadedTime': 2769.9000000059605, 'positionName': 'CENTER', 'positionCoords': [370.5, 155]}]",Rate how much you want to eat this food from 0 (least) to 10 (most).,57399.5,1669829903932,yogurt no spoon,1599.0,True,9.93,58998.5,1599.0,True,HRV,HRV_0128,2022-11-30 17:39:14
30,"[{'imgObject': {}, 'id': 'baked potato', 'src': '/static/foodstim60/baked potato.jpg', 'key': 'NaN', 'origWidth': 409, 'origHeight': 410, 'width': 409, 'height': 410, 'widthPercent': 0.8, 'rescaleHeight': True, 'trialN': 30, 'loaded': True, 'loadedTime': 2770.800000011921, 'positionName': 'CENTER', 'positionCoords': [371.5, 155]}]",Rate how much you want to eat this food from 0 (least) to 10 (most).,58999.30000001192,1669829905532,baked potato,1911.2999999970198,True,9.67,60910.60000000894,1911.2999999970198,True,HRV,HRV_0128,2022-11-30 17:39:14
31,"[{'imgObject': {}, 'id': 'avocado', 'src': '/static/foodstim60/avocado.jpg', 'key': 'NaN', 'origWidth': 409, 'origHeight': 409, 'width': 409, 'height': 409, 'widthPercent': 0.8, 'rescaleHeight': True, 'trialN': 31, 'loaded': True, 'loadedTime': 2771.4000000059605, 'positionName': 'CENTER', 'positionCoords': [371.5, 155.5]}]",Rate how much you want to eat this food from 0 (least) to 10 (most).,60911.30000001192,1669829907444,avocado,1863.2999999970198,True,8.540000000000001,62774.60000000894,1863.2999999970198,True,HRV,HRV_0128,2022-11-30 17:39:14
32,"[{'imgObject': {}, 'id': 'shreddedwheatwithmilk', 'src': '/static/foodstim60/shreddedwheatwithmilk.jpg', 'key': 'NaN', 'origWidth': 410, 'origHeight': 410, 'width': 410, 'height': 410, 'widthPercent': 0.8, 'rescaleHeight': True, 'trialN': 32, 'loaded': True, 'loadedTime': 2811.300000011921, 'positionName': 'CENTER', 'positionCoords': [371, 155]}]",Rate how much you want to eat this food from 0 (least) to 10 (most).,62775.5,1669829909308,shreddedwheatwithmilk,1303.1000000089407,True,6.8,64078.60000000894,1303.1000000089407,True,HRV,HRV_0128,2022-11-30 17:39:14
33,"[{'imgObject': {}, 'id': 'kiwi', 'src': '/static/foodstim60/kiwi.jpg', 'key': 'NaN', 'origWidth': 410, 'origHeight': 410, 'width': 410, 'height': 410, 'widthPercent': 0.8, 'rescaleHeight': True, 'trialN': 33, 'loaded': True, 'loadedTime': 2826.4000000059605, 'positionName': 'CENTER', 'positionCoords': [371, 155]}]",Rate how much you want to eat this food from 0 (least) to 10 (most).,64079.40000000596,1669829910612,kiwi,1303.0,True,6.99,65382.40000000596,1303.0,True,HRV,HRV_0128,2022-11-30 17:39:14
34,"[{'imgObject': {}, 'id': 'mac & cheese', 'src': '/static/foodstim60/mac & cheese.jpg', 'key': 'NaN', 'origWidth': 410, 'origHeight': 410, 'width': 410, 'height': 410, 'widthPercent': 0.8, 'rescaleHeight': True, 'trialN': 34, 'loaded': True, 'loadedTime': 2863.300000011921, 'positionName': 'CENTER', 'positionCoords': [371, 155]}]",Rate how much you want to eat this food from 0 (least) to 10 (most).,65383.20000000298,1669829911916,mac & cheese,2135.5,True,4.47,67518.70000000298,2135.5,True,HRV,HRV_0128,2022-11-30 17:39:14
35,"[{'imgObject': {}, 'id': 'burrito', 'src': '/static/foodstim60/burrito.jpg', 'key': 'NaN', 'origWidth': 410, 'origHeight': 410, 'width': 410, 'height': 410, 'widthPercent': 0.8, 'rescaleHeight': True, 'trialN': 35, 'loaded': True, 'loadedTime': 2862.2000000029802, 'positionName': 'CENTER', 'positionCoords': [371, 155]}]",Rate how much you want to eat this food from 0 (least) to 10 (most).,67519.80000001192,1669829914052,burrito,1222.5,True,6.12,68742.30000001192,1222.5,True,HRV,HRV_0128,2022-11-30 17:39:14
36,"[{'imgObject': {}, 'id': 'cherries', 'src': '/static/foodstim60/cherries.jpg', 'key': 'NaN', 'origWidth': 410, 'origHeight': 411, 'width': 410, 'height': 411, 'widthPercent': 0.8, 'rescaleHeight': True, 'trialN': 36, 'loaded': True, 'loadedTime': 2860.300000011921, 'positionName': 'CENTER', 'positionCoords': [371, 154.5]}]",Rate how much you want to eat this food from 0 (least) to 10 (most).,68743.20000000298,1669829915276,cherries,1719.1000000089407,True,8.38,70462.30000001192,1719.1000000089407,True,HRV,HRV_0128,2022-11-30 17:39:14
37,"[{'imgObject': {}, 'id': 'fruitsalad', 'src': '/static/foodstim60/fruitsalad.jpg', 'key': 'NaN', 'origWidth': 410, 'origHeight': 410, 'width': 410, 'height': 410, 'widthPercent': 0.8, 'rescaleHeight': True, 'trialN': 37, 'loaded': True, 'loadedTime': 2865.4000000059605, 'positionName': 'CENTER', 'positionCoords': [371, 155]}]",Rate how much you want to eat this food from 0 (least) to 10 (most).,70463.20000000298,1669829916996,fruitsalad,1447.4000000059605,True,8.75,71910.60000000894,1447.4000000059605,True,HRV,HRV_0128,2022-11-30 17:39:14
38,"[{'imgObject': {}, 'id': 'grilled chicken strips', 'src': '/static/foodstim60/grilled chicken strips.jpg', 'key': 'NaN', 'origWidth': 410, 'origHeight': 411, 'width': 410, 'height': 411, 'widthPercent': 0.8, 'rescaleHeight': True, 'trialN': 38, 'loaded': True, 'loadedTime': 2875.2000000029802, 'positionName': 'CENTER', 'positionCoords': [371, 154.5]}]",Rate how much you want to eat this food from 0 (least) to 10 (most).,71911.60000000894,1669829918444,grilled chicken strips,1166.8999999910593,True,7.34,73078.5,1166.8999999910593,True,HRV,HRV_0128,2022-11-30 17:39:14
39,"[{'imgObject': {}, 'id': 'cherry tomato', 'src': '/static/foodstim60/cherry tomato.jpg', 'key': 'NaN', 'origWidth': 410, 'origHeight': 410, 'width': 410, 'height': 410, 'widthPercent': 0.8, 'rescaleHeight': True, 'trialN': 39, 'loaded': True, 'loadedTime': 2884.2000000029802, 'positionName': 'CENTER', 'positionCoords': [371, 155]}]",Rate how much you want to eat this food from 0 (least) to 10 (most).,73079.70000000298,1669829919612,cherry tomato,3510.9000000059605,True,3.7600000000000002,76590.60000000894,3510.9000000059605,True,HRV,HRV_0128,2022-11-30 17:39:14
40,"[{'imgObject': {}, 'id': 'fried eggs', 'src': '/static/foodstim60/fried eggs.jpg', 'key': 'NaN', 'origWidth': 410, 'origHeight': 410, 'width': 410, 'height': 410, 'widthPercent': 0.8, 'rescaleHeight': True, 'trialN': 40, 'loaded': True, 'loadedTime': 2916.1000000089407, 'positionName': 'CENTER', 'positionCoords': [371, 155]}]",Rate how much you want to eat this food from 0 (least) to 10 (most).,76591.60000000894,1669829923124,fried eggs,1870.7999999970198,True,1.19,78462.40000000596,1870.7999999970198,True,HRV,HRV_0128,2022-11-30 17:39:14
41,"[{'imgObject': {}, 'id': 'sushi w_condiments', 'src': '/static/foodstim60/sushi w_condiments.jpg', 'key': 'NaN', 'origWidth': 410, 'origHeight': 410, 'width': 410, 'height': 410, 'widthPercent': 0.8, 'rescaleHeight': True, 'trialN': 41, 'loaded': True, 'loadedTime': 2917.9000000059605, 'positionName': 'CENTER', 'positionCoords': [371, 155]}]",Rate how much you want to eat this food from 0 (least) to 10 (most).,78463.30000001192,1669829924996,sushi w_condiments,2327.0999999940395,True,0.32,80790.40000000596,2327.0999999940395,True,HRV,HRV_0128,2022-11-30 17:39:14
42,"[{'imgObject': {}, 'id': 'veggieswithdip', 'src': '/static/foodstim60/veggieswithdip.jpg', 'key': 'NaN', 'origWidth': 409, 'origHeight': 409, 'width': 409, 'height': 409, 'widthPercent': 0.8, 'rescaleHeight': True, 'trialN': 42, 'loaded': True, 'loadedTime': 2922.9000000059605, 'positionName': 'CENTER', 'positionCoords': [371.5, 155.5]}]",Rate how much you want to eat this food from 0 (least) to 10 (most).,80791.5,1669829927324,veggieswithdip,1686.9000000059605,True,4.91,82478.40000000596,1686.9000000059605,True,HRV,HRV_0128,2022-11-30 17:39:14
43,"[{'imgObject': {}, 'id': 'bagel and cc', 'src': '/static/foodstim60/bagel and cc.jpg', 'key': 'NaN', 'origWidth': 410, 'origHeight': 410, 'width': 410, 'height': 410, 'widthPercent': 0.8, 'rescaleHeight': True, 'trialN': 43, 'loaded': True, 'loadedTime': 2919.2000000029802, 'positionName': 'CENTER', 'positionCoords': [371, 155]}]",Rate how much you want to eat this food from 0 (least) to 10 (most).,82479.0,1669829929012,bagel and cc,1479.5,True,8.94,83958.5,1479.5,True,HRV,HRV_0128,2022-11-30 17:39:14
44,"[{'imgObject': {}, 'id': 'bagel plain', 'src': '/static/foodstim60/bagel plain.jpg', 'key': 'NaN', 'origWidth': 410, 'origHeight': 410, 'width': 410, 'height': 410, 'widthPercent': 0.8, 'rescaleHeight': True, 'trialN': 44, 'loaded': True, 'loadedTime': 2928.6000000089407, 'positionName': 'CENTER', 'positionCoords': [371, 155]}]",Rate how much you want to eat this food from 0 (least) to 10 (most).,83959.20000000298,1669829930492,bagel plain,911.2999999970198,True,8.81,84870.5,911.2999999970198,True,HRV,HRV_0128,2022-11-30 17:39:14
45,"[{'imgObject': {}, 'id': 'turkeysandwich', 'src': '/static/foodstim60/turkeysandwich.jpg', 'key': 'NaN', 'origWidth': 409, 'origHeight': 409, 'width': 409, 'height': 409, 'widthPercent': 0.8, 'rescaleHeight': True, 'trialN': 45, 'loaded': True, 'loadedTime': 2935.1000000089407, 'positionName': 'CENTER', 'positionCoords': [371.5, 155.5]}]",Rate how much you want to eat this food from 0 (least) to 10 (most).,84871.30000001192,1669829931404,turkeysandwich,1831.2999999970198,True,9.28,86702.60000000894,1831.2999999970198,True,HRV,HRV_0128,2022-11-30 17:39:14
46,"[{'imgObject': {}, 'id': 'corn cob', 'src': '/static/foodstim60/corn cob.jpg', 'key': 'NaN', 'origWidth': 411, 'origHeight': 411, 'width': 411, 'height': 411, 'widthPercent': 0.8, 'rescaleHeight': True, 'trialN': 46, 'loaded': True, 'loadedTime': 2974.5, 'positionName': 'CENTER', 'positionCoords': [370.5, 154.5]}]",Rate how much you want to eat this food from 0 (least) to 10 (most).,86703.40000000596,1669829933236,corn cob,1318.9000000059605,True,8.68,88022.30000001192,1318.9000000059605,True,HRV,HRV_0128,2022-11-30 17:39:14
47,"[{'imgObject': {}, 'id': 'chicken nuggets2', 'src': '/static/foodstim60/chicken nuggets2.jpg', 'key': 'NaN', 'origWidth': 410, 'origHeight': 409, 'width': 410, 'height': 409, 'widthPercent': 0.8, 'rescaleHeight': True, 'trialN': 47, 'loaded': True, 'loadedTime': 2975.2000000029802, 'positionName': 'CENTER', 'positionCoords': [371, 155.5]}]",Rate how much you want to eat this food from 0 (least) to 10 (most).,88023.20000000298,1669829934556,chicken nuggets2,2135.0,True,4.16,90158.20000000298,2135.0,True,HRV,HRV_0128,2022-11-30 17:39:14
48,"[{'imgObject': {}, 'id': 'cheerios', 'src': '/static/foodstim60/cheerios.jpg', 'key': 'NaN', 'origWidth': 409, 'origHeight': 410, 'width': 409, 'height': 410, 'widthPercent': 0.8, 'rescaleHeight': True, 'trialN': 48, 'loaded': True, 'loadedTime': 2979.5, 'positionName': 'CENTER', 'positionCoords': [371.5, 155]}]",Rate how much you want to eat this food from 0 (least) to 10 (most).,90159.0,1669829936692,cheerios,1519.300000011921,True,5.69,91678.30000001192,1519.300000011921,True,HRV,HRV_0128,2022-11-30 17:39:14
49,"[{'imgObject': {}, 'id': 'seaweed', 'src': '/static/foodstim60/seaweed.jpg', 'key': 'NaN', 'origWidth': 410, 'origHeight': 410, 'width': 410, 'height': 410, 'widthPercent': 0.8, 'rescaleHeight': True, 'trialN': 49, 'loaded': True, 'loadedTime': 2984.800000011921, 'positionName': 'CENTER', 'positionCoords': [371, 155]}]",Rate how much you want to eat this food from 0 (least) to 10 (most).,91679.10000000894,1669829938212,seaweed,1783.2999999970198,True,0.43,93462.40000000596,1783.2999999970198,True,HRV,HRV_0128,2022-11-30 17:39:14
50,"[{'imgObject': {}, 'id': 'blueberries', 'src': '/static/foodstim60/blueberries.jpg', 'key': 'NaN', 'origWidth': 411, 'origHeight': 411, 'width': 411, 'height': 411, 'widthPercent': 0.8, 'rescaleHeight': True, 'trialN': 50, 'loaded': True, 'loadedTime': 2986.1000000089407, 'positionName': 'CENTER', 'positionCoords': [370.5, 154.5]}]",Rate how much you want to eat this food from 0 (least) to 10 (most).,93463.30000001192,1669829939996,blueberries,2647.2999999970198,True,8.66,96110.60000000894,2647.2999999970198,True,HRV,HRV_0128,2022-11-30 17:39:14
51,"[{'imgObject': {}, 'id': 'orange slices', 'src': '/static/foodstim60/orange slices.jpg', 'key': 'NaN', 'origWidth': 409, 'origHeight': 410, 'width': 409, 'height': 410, 'widthPercent': 0.8, 'rescaleHeight': True, 'trialN': 51, 'loaded': True, 'loadedTime': 2987.9000000059605, 'positionName': 'CENTER', 'positionCoords': [371.5, 155]}]",Rate how much you want to eat this food from 0 (least) to 10 (most).,96111.40000000596,1669829942644,orange slices,983.2000000029802,True,6.5600000000000005,97094.60000000894,983.2000000029802,True,HRV,HRV_0128,2022-11-30 17:39:14
52,"[{'imgObject': {}, 'id': 'eggsalad', 'src': '/static/foodstim60/eggsalad.jpg', 'key': 'NaN', 'origWidth': 410, 'origHeight': 409, 'width': 410, 'height': 409, 'widthPercent': 0.8, 'rescaleHeight': True, 'trialN': 52, 'loaded': True, 'loadedTime': 3026.2000000029802, 'positionName': 'CENTER', 'positionCoords': [371, 155.5]}]",Rate how much you want to eat this food from 0 (least) to 10 (most).,97095.5,1669829943628,eggsalad,1271.0,True,4.54,98366.5,1271.0,True,HRV,HRV_0128,2022-11-30 17:39:14
53,"[{'imgObject': {}, 'id': 'Tribe humus pita', 'src': '/static/foodstim60/Tribe humus pita.jpg', 'key': 'NaN', 'origWidth': 411, 'origHeight': 411, 'width': 411, 'height': 411, 'widthPercent': 0.8, 'rescaleHeight': True, 'trialN': 53, 'loaded': True, 'loadedTime': 3052.1000000089407, 'positionName': 'CENTER', 'positionCoords': [370.5, 154.5]}]",Rate how much you want to eat this food from 0 (least) to 10 (most).,98367.40000000596,1669829944900,Tribe humus pita,1406.9000000059605,True,8.42,99774.30000001192,1406.9000000059605,True,HRV,HRV_0128,2022-11-30 17:39:14
54,"[{'imgObject': {}, 'id': 'omelette', 'src': '/static/foodstim60/omelette.jpg', 'key': 'NaN', 'origWidth': 410, 'origHeight': 409, 'width': 410, 'height': 409, 'widthPercent': 0.8, 'rescaleHeight': True, 'trialN': 54, 'loaded': True, 'loadedTime': 3054.800000011921, 'positionName': 'CENTER', 'positionCoords': [371, 155.5]}]",Rate how much you want to eat this food from 0 (least) to 10 (most).,99775.30000001192,1669829946308,omelette,1319.0,True,7.7700000000000005,101094.30000001192,1319.0,True,HRV,HRV_0128,2022-11-30 17:39:14
55,"[{'imgObject': {}, 'id': 'raisin bran w milk', 'src': '/static/foodstim60/raisin bran w milk.jpg', 'key': 'NaN', 'origWidth': 411, 'origHeight': 411, 'width': 411, 'height': 411, 'widthPercent': 0.8, 'rescaleHeight': True, 'trialN': 55, 'loaded': True, 'loadedTime': 3056.1000000089407, 'positionName': 'CENTER', 'positionCoords': [370.5, 154.5]}]",Rate how much you want to eat this food from 0 (least) to 10 (most).,101095.20000000298,1669829947628,raisin bran w milk,1535.1000000089407,True,6.7,102630.30000001192,1535.1000000089407,True,HRV,HRV_0128,2022-11-30 17:39:14
56,"[{'imgObject': {}, 'id': 'salmon', 'src': '/static/foodstim60/salmon.jpg', 'key': 'NaN', 'origWidth': 410, 'origHeight': 409, 'width': 410, 'height': 409, 'widthPercent': 0.8, 'rescaleHeight': True, 'trialN': 56, 'loaded': True, 'loadedTime': 3091.300000011921, 'positionName': 'CENTER', 'positionCoords': [371, 155.5]}]",Rate how much you want to eat this food from 0 (least) to 10 (most).,102631.20000000298,1669829949164,salmon,1367.4000000059605,True,0.06,103998.60000000894,1367.4000000059605,True,HRV,HRV_0128,2022-11-30 17:39:14
57,"[{'imgObject': {}, 'id': 'mashed potato', 'src': '/static/foodstim60/mashed potato.jpg', 'key': 'NaN', 'origWidth': 409, 'origHeight': 409, 'width': 409, 'height': 409, 'widthPercent': 0.8, 'rescaleHeight': True, 'trialN': 57, 'loaded': True, 'loadedTime': 3057.1000000089407, 'positionName': 'CENTER', 'positionCoords': [371.5, 155.5]}]",Rate how much you want to eat this food from 0 (least) to 10 (most).,103999.60000000894,1669829950532,mashed potato,1598.8999999910593,True,8.85,105598.5,1598.8999999910593,True,HRV,HRV_0128,2022-11-30 17:39:14
58,"[{'imgObject': {}, 'id': 'olives', 'src': '/static/foodstim60/olives.jpg', 'key': 'NaN', 'origWidth': 410, 'origHeight': 410, 'width': 410, 'height': 410, 'widthPercent': 0.8, 'rescaleHeight': True, 'trialN': 58, 'loaded': True, 'loadedTime': 3218.6000000089407, 'positionName': 'CENTER', 'positionCoords': [371, 155]}]",Rate how much you want to eat this food from 0 (least) to 10 (most).,105599.60000000894,1669829952132,olives,1006.7000000029802,True,8.71,106606.30000001192,1006.7000000029802,True,HRV,HRV_0128,2022-11-30 17:39:14
59,"[{'imgObject': {}, 'id': 'eggs', 'src': '/static/foodstim60/eggs.jpg', 'key': 'NaN', 'origWidth': 409, 'origHeight': 409, 'width': 409, 'height': 409, 'widthPercent': 0.8, 'rescaleHeight': True, 'trialN': 59, 'loaded': True, 'loadedTime': 3221.300000011921, 'positionName': 'CENTER', 'positionCoords': [371.5, 155.5]}]",Rate how much you want to eat this food from 0 (least) to 10 (most).,106607.40000000596,1669829953140,eggs,1951.0,True,5.0,108558.40000000596,1951.0,True,HRV,HRV_0128,2022-11-30 17:39:14
