success,trial_type,trial_index,time_elapsed,internal_node_id,Block,TrialNumber,TrialTime,trialTimeDiff,FPS_avg,FPS_med,FPS_mode,TrialDur,winResizeTime,rt,block,button_pressed,MotCoh,MotDir,ColCoh,Color,ChoiceKey,Choice,Accuracy,RT,nFrames,FPS,PPD,missTrial,missTrialMsg,onsetDelay,fullScreenExitTime,canvCenter,TrialType,Score,BlockTrial,stimulus,button_labels,exp,subjectId,date
True,fullscreen,0,2003,0.0-0.0,0.0,1.0,,,,,,,,,,,,,,,,,,,,,,,,,,,,,,,,HRV,HRV_0128,2022-11-30 18:08:52
,wl-check-fps,1,6996,0.0-1.0,0.0,2.0,"[2396.3, 2397.1, 2411.2, 2428, 2444.6, 2461.3, 2478.2, 2494.5, 2510.8, 2527.7, 2544.2, 2561.1, 2577.8, 2594.8, 2611.2, 2628.2, 2644.8, 2661.6, 2678.2, 2694.9, 2711.5, 2728.1, 2744.7, 2761.4, 2778.3, 2794.9, 2811.6, 2828.3, 2845.2, 2861.6, 2878.6, 2895.2, 2911.8, 2928.4, 2945.4, 2961.5, 2978.6, 2994.9, 3011.4, 3028.4, 3044.9, 3061.6, 3078.2, 3094.8, 3111.5, 3128.1, 3145.2, 3161.7, 3178.4, 3195.2, 3211.9, 3228.8, 3244.9, 3261.9, 3278.8, 3295.8, 3312, 3328.4, 3345.3, 3362.1, 3379, 3395.5, 3413.6, 3428.7, 3445.8, 3462.5, 3479, 3495.9, 3512.1, 3528.5, 3545.5, 3562.2, 3578.8, 3595.5, 3612.1, 3629.2, 3645.7, 3662.6, 3679.5, 3695.9, 3712.6, 3729.1, 3745.7, 3762.6, 3779.2, 3796.2, 3812.5, 3829.4, 3845.8, 3862.5, 3879.4, 3895.9, 3912.5, 3928.9, 3945.8, 3962.2, 3979.4, 3996.1, 4012.7, 4029.3, 4046, 4062.4, 4079.3, 4095.8, 4112.4, 4129.7, 4146.5, 4162.8, 4179.7, 4196.4, 4212.9, 4229.4, 4246.3, 4262.9, 4279.9, 4296.4, 4313.2, 4329.7, 4346.5, 4363.2, 4379.9, 4396.7, 4413.3, 4430, 4446.4, 4462.9, 4479.5, 4496.2, 4513.2, 4529.9, 4546.6, 4563.1, 4580, 4596.7, 4613.5, 4629.9, 4646.7, 4663.5, 4680.1, 4697, 4713.5, 4730.6, 4746.9, 4763.8, 4780.3, 4796.9, 4813.2, 4830.2, 4847, 4863.5, 4879.9, 4896.6, 4913.5, 4930.2, 4946.9, 4963.5, 4980.1, 4997.1, 5013.6, 5030.3, 5047.3, 5064, 5080.4, 5097.3, 5114, 5130.4, 5146.8, 5163.6, 5180.6, 5197.3, 5214.5, 5230.7, 5247.4, 5264.1, 5280.6, 5297.5, 5314.2, 5330.6, 5347.3, 5364, 5380.8, 5397.8, 5414.4, 5431, 5447.7, 5464.2, 5480.9, 5497.5, 5514, 5530.7, 5547.5, 5564.3, 5581.2, 5597.7, 5614.4, 5631.1, 5647.8, 5664.3, 5681.2, 5697.6, 5714.5, 5731.1, 5747.8, 5764.7, 5781.4, 5798.3, 5814.9, 5831.4, 5848, 5864.7, 5881.8, 5897.4, 5914.9, 5931, 5947.7, 5965.1, 5981.7, 5998.5, 6015.2, 6031.5, 6048, 6064.8, 6081.5, 6098.1, 6115, 6131.7, 6148.3, 6165, 6181.5, 6198.3, 6215.1, 6231.6, 6248.3, 6265.1, 6281.9, 6298.4, 6315.1, 6331.7, 6348.5, 6365.3, 6382.1, 6398.8, 6415.3, 6432.1, 6448.5, 6465.2, 6482.3, 6498.4, 6515.4, 6532.2, 6548.8, 6565.6, 6582.1, 6598.6, 6615.5, 6632.1, 6648.7, 6665.5, 6682.2, 6698.9, 6715.4, 6732.2, 6748.9, 6765.5, 6782.2, 6798.8, 6815.6, 6832.4, 6848.9, 6865.5, 6881.8, 6898.7, 6915.4, 6932.1, 6949, 6965.9, 6982.3, 6999.3, 7015.6, 7032.4, 7049.1, 7065.7, 7082.5, 7099.2, 7116, 7132.5, 7149.2, 7165.8, 7182.5, 7199.3, 7215.9, 7232.6, 7249.5, 7266.2, 7282.6, 7299.6, 7316.2, 7332.7, 7349.6, 7366]","[1.9, 0.8, 14.1, 16.8, 16.6, 16.7, 16.9, 16.3, 16.3, 16.9, 16.5, 16.9, 16.7, 17, 16.4, 17, 16.6, 16.8, 16.6, 16.7, 16.6, 16.6, 16.6, 16.7, 16.9, 16.6, 16.7, 16.7, 16.9, 16.4, 17, 16.6, 16.6, 16.6, 17, 16.1, 17.1, 16.3, 16.5, 17, 16.5, 16.7, 16.6, 16.6, 16.7, 16.6, 17.1, 16.5, 16.7, 16.8, 16.7, 16.9, 16.1, 17, 16.9, 17, 16.2, 16.4, 16.9, 16.8, 16.9, 16.5, 18.1, 15.1, 17.1, 16.7, 16.5, 16.9, 16.2, 16.4, 17, 16.7, 16.6, 16.7, 16.6, 17.1, 16.5, 16.9, 16.9, 16.4, 16.7, 16.5, 16.6, 16.9, 16.6, 17, 16.3, 16.9, 16.4, 16.7, 16.9, 16.5, 16.6, 16.4, 16.9, 16.4, 17.2, 16.7, 16.6, 16.6, 16.7, 16.4, 16.9, 16.5, 16.6, 17.3, 16.8, 16.3, 16.9, 16.7, 16.5, 16.5, 16.9, 16.6, 17, 16.5, 16.8, 16.5, 16.8, 16.7, 16.7, 16.8, 16.6, 16.7, 16.4, 16.5, 16.6, 16.7, 17, 16.7, 16.7, 16.5, 16.9, 16.7, 16.8, 16.4, 16.8, 16.8, 16.6, 16.9, 16.5, 17.1, 16.3, 16.9, 16.5, 16.6, 16.3, 17, 16.8, 16.5, 16.4, 16.7, 16.9, 16.7, 16.7, 16.6, 16.6, 17, 16.5, 16.7, 17, 16.7, 16.4, 16.9, 16.7, 16.4, 16.4, 16.8, 17, 16.7, 17.2, 16.2, 16.7, 16.7, 16.5, 16.9, 16.7, 16.4, 16.7, 16.7, 16.8, 17, 16.6, 16.6, 16.7, 16.5, 16.7, 16.6, 16.5, 16.7, 16.8, 16.8, 16.9, 16.5, 16.7, 16.7, 16.7, 16.5, 16.9, 16.4, 16.9, 16.6, 16.7, 16.9, 16.7, 16.9, 16.6, 16.5, 16.6, 16.7, 17.1, 15.6, 17.5, 16.1, 16.7, 17.4, 16.6, 16.8, 16.7, 16.3, 16.5, 16.8, 16.7, 16.6, 16.9, 16.7, 16.6, 16.7, 16.5, 16.8, 16.8, 16.5, 16.7, 16.8, 16.8, 16.5, 16.7, 16.6, 16.8, 16.8, 16.8, 16.7, 16.5, 16.8, 16.4, 16.7, 17.1, 16.1, 17, 16.8, 16.6, 16.8, 16.5, 16.5, 16.9, 16.6, 16.6, 16.8, 16.7, 16.7, 16.5, 16.8, 16.7, 16.6, 16.7, 16.6, 16.8, 16.8, 16.5, 16.6, 16.3, 16.9, 16.7, 16.7, 16.9, 16.9, 16.4, 17, 16.3, 16.8, 16.7, 16.6, 16.8, 16.7, 16.8, 16.5, 16.7, 16.6, 16.7, 16.8, 16.6, 16.7, 16.9, 16.7, 16.4, 17, 16.6, 16.5, 16.9, 16.4]",60.0,61.0,60.0,4988.4,[],,,,,,,,,,,,,,,,,,,,,,,,,HRV,HRV_0128,2022-11-30 18:08:52
,wl-html-keyboard-response,2,23931,0.0-2.0-0.0,0.0,3.0,,,,,,,,14922.09999999404,0.0,0,,,,,,,,,,,,,,,,,,,,,,HRV,HRV_0128,2022-11-30 18:08:52
,wl-rdm,3,29784,0.0-3.0-0.0,0.0,4.0,,,,,,,[],,,,0.0,0.0,87.9,0.0,u,0.0,True,286.29999999701977,18.0,60.0,40.0,False,,3000.0,[],"[576, 360]",ColorTask_Demo,,,,,HRV,HRV_0128,2022-11-30 18:08:52
,wl-rdm,4,34788,0.0-3.0-1.0,0.0,5.0,,,,,,,[],,,,0.0,0.0,87.9,1.0,i,1.0,True,945.7000000029802,57.0,60.0,40.0,False,,2000.0,[],"[576, 360]",ColorTask_Demo,,,,,HRV,HRV_0128,2022-11-30 18:08:52
,wl-html-keyboard-response,5,42954,0.0-3.0-2.0,0.0,6.0,,,,,,,,6161.300000011921,0.0,1,,,,,,,,,,,,,,,,,,,,,,HRV,HRV_0128,2022-11-30 18:08:52
,wl-html-keyboard-response,6,51474,0.0-4.0-0.0,0.0,7.0,,,,,,,,6514.20000000298,0.0,0,,,,,,,,,,,,,,,,,,,,,,HRV,HRV_0128,2022-11-30 18:08:52
,wl-html-keyboard-response,7,58643,0.0-5.0-0.0,0.0,8.0,,,,,,,,5159.5,0.0,0,,,,,,,,,,,,,,,,,,,,,,HRV,HRV_0128,2022-11-30 18:08:52
,wl-rdm,8,61282,0.0-6.0-0.0,0.0,9.0,,,,,,,[],,,,,,50.0,1.0,i,1.0,True,1342.4000000059605,81.0,60.0,40.0,False,,229.7157878051205,[],"[576, 360]",ColorTask,1.0,1.0,,,HRV,HRV_0128,2022-11-30 18:08:52
,wl-rdm,9,64619,0.0-6.1-0.1,0.0,10.0,,,,,,,[],,,,,,53.2,1.0,i,1.0,True,2036.7999999970198,123.0,60.0,40.0,False,,228.71058112781697,[],"[576, 360]",ColorTask,2.0,2.0,,,HRV,HRV_0128,2022-11-30 18:08:52
,wl-rdm,10,66871,0.0-6.2-0.2,0.0,11.0,,,,,,,[],,,,,,62.5,0.0,u,0.0,True,828.2000000029802,50.0,60.0,40.0,False,,352.35424460845684,[],"[576, 360]",ColorTask,3.0,3.0,,,HRV,HRV_0128,2022-11-30 18:08:52
,wl-rdm,11,69190,0.0-6.3-0.3,0.0,12.0,,,,,,,[],,,,,,50.0,0.0,i,1.0,False,1012.5999999940395,61.0,60.0,40.0,False,,234.55222758188722,[],"[576, 360]",ColorTask,2.0,4.0,,,HRV,HRV_0128,2022-11-30 18:08:52
,wl-rdm,12,71308,0.0-6.4-0.4,0.0,13.0,,,,,,,[],,,,,,87.9,0.0,u,0.0,True,848.4999999850988,51.0,60.0,40.0,False,,212.12334388371193,[],"[576, 360]",ColorTask,3.0,5.0,,,HRV,HRV_0128,2022-11-30 18:08:52
,wl-rdm,13,73260,0.0-6.5-0.5,0.0,14.0,,,,,,,[],,,,,,87.9,1.0,i,1.0,True,641.6999999880791,39.0,60.0,40.0,False,,243.75057540002206,[],"[576, 360]",ColorTask,4.0,6.0,,,HRV,HRV_0128,2022-11-30 18:08:52
,wl-rdm,14,75528,0.0-6.6-0.6,0.0,15.0,,,,,,,[],,,,,,53.2,0.0,u,0.0,True,874.9000000059605,53.0,60.0,40.0,False,,320.5457376456265,[],"[576, 360]",ColorTask,5.0,7.0,,,HRV,HRV_0128,2022-11-30 18:08:52
,wl-rdm,15,77565,0.0-6.7-0.7,0.0,16.0,,,,,,,[],,,,,,62.5,1.0,i,1.0,True,709.0,43.0,60.0,40.0,False,,254.35921831981358,[],"[576, 360]",ColorTask,6.0,8.0,,,HRV,HRV_0128,2022-11-30 18:08:52
,wl-rdm,16,79667,0.0-6.8-0.8,0.0,17.0,,,,,,,[],,,,,,62.5,1.0,u,0.0,False,720.0999999940395,44.0,60.0,40.0,False,,307.69226293401584,[],"[576, 360]",ColorTask,5.0,9.0,,,HRV,HRV_0128,2022-11-30 18:08:52
,wl-rdm,17,81869,0.0-6.9-0.9,0.0,18.0,,,,,,,[],,,,,,53.2,1.0,i,1.0,True,774.0000000149012,47.0,60.0,40.0,False,,360.4070304408614,[],"[576, 360]",ColorTask,6.0,10.0,,,HRV,HRV_0128,2022-11-30 18:08:52
,wl-rdm,18,84338,0.0-6.10-0.10,0.0,19.0,,,,,,,[],,,,,,62.5,0.0,i,1.0,False,1061.5,64.0,60.0,40.0,False,,332.5085037292645,[],"[576, 360]",ColorTask,5.0,11.0,,,HRV,HRV_0128,2022-11-30 18:08:52
,wl-rdm,19,86691,0.0-6.11-0.11,0.0,20.0,,,,,,,[],,,,,,56.4,0.0,u,0.0,True,1017.5999999940395,61.0,60.0,40.0,False,,278.5265084919988,[],"[576, 360]",ColorTask,6.0,12.0,,,HRV,HRV_0128,2022-11-30 18:08:52
,wl-rdm,20,88742,0.0-6.12-0.12,0.0,21.0,,,,,,,[],,,,,,53.2,0.0,i,1.0,False,629.4000000059605,38.0,60.0,40.0,False,,338.9061696599417,[],"[576, 360]",ColorTask,5.0,13.0,,,HRV,HRV_0128,2022-11-30 18:08:52
,wl-rdm,21,90995,0.0-6.13-0.13,0.0,22.0,,,,,,,[],,,,,,50.0,1.0,u,0.0,False,808.4000000059605,49.0,60.0,40.0,False,,375.91671954839615,[],"[576, 360]",ColorTask,4.0,14.0,,,HRV,HRV_0128,2022-11-30 18:08:52
,wl-rdm,22,93013,0.0-6.14-0.14,0.0,23.0,,,,,,,[],,,,,,87.9,1.0,i,1.0,True,614.7000000029802,37.0,60.0,40.0,False,,343.67696236712607,[],"[576, 360]",ColorTask,5.0,15.0,,,HRV,HRV_0128,2022-11-30 18:08:52
,wl-rdm,23,95215,0.0-6.15-0.15,0.0,24.0,,,,,,,[],,,,,,50.0,0.0,i,1.0,False,897.4000000059605,54.0,60.0,40.0,False,,242.53552884948965,[],"[576, 360]",ColorTask,4.0,16.0,,,HRV,HRV_0128,2022-11-30 18:08:52
,wl-rdm,24,97718,0.0-6.16-0.16,0.0,25.0,,,,,,,[],,,,,,53.2,1.0,i,1.0,True,1078.2999999970198,65.0,60.0,40.0,False,,358.344797182097,[],"[576, 360]",ColorTask,5.0,17.0,,,HRV,HRV_0128,2022-11-30 18:08:52
,wl-rdm,25,99737,0.0-6.17-0.17,0.0,26.0,,,,,,,[],,,,,,62.5,0.0,u,0.0,True,740.0,45.0,60.0,40.0,False,,212.59455212848303,[],"[576, 360]",ColorTask,6.0,18.0,,,HRV,HRV_0128,2022-11-30 18:08:52
,wl-rdm,26,101772,0.0-6.18-0.18,0.0,27.0,,,,,,,[],,,,,,87.9,0.0,u,0.0,True,704.7999999970198,43.0,60.0,40.0,False,,256.58319852219273,[],"[576, 360]",ColorTask,7.0,19.0,,,HRV,HRV_0128,2022-11-30 18:08:52
,wl-rdm,27,103690,0.0-6.19-0.19,0.0,28.0,,,,,,,[],,,,,,73.6,0.0,u,0.0,True,625.5999999940395,38.0,60.0,40.0,False,,219.2022011781338,[],"[576, 360]",ColorTask,8.0,20.0,,,HRV,HRV_0128,2022-11-30 18:08:52
,wl-rdm,28,105742,0.0-6.20-0.20,0.0,29.0,,,,,,,[],,,,,,73.6,0.0,u,0.0,True,624.9000000059605,38.0,60.0,40.0,False,,361.863371481223,[],"[576, 360]",ColorTask,9.0,21.0,,,HRV,HRV_0128,2022-11-30 18:08:52
,wl-rdm,29,107794,0.0-6.21-0.21,0.0,30.0,,,,,,,[],,,,,,53.2,1.0,i,1.0,True,699.0999999940395,42.0,60.0,40.0,False,,298.1455500141345,[],"[576, 360]",ColorTask,10.0,22.0,,,HRV,HRV_0128,2022-11-30 18:08:52
,wl-rdm,30,109646,0.0-6.22-0.22,0.0,31.0,,,,,,,[],,,,,,87.9,0.0,u,0.0,True,561.7000000029802,34.0,60.0,40.0,False,,232.8842029299662,[],"[576, 360]",ColorTask,11.0,23.0,,,HRV,HRV_0128,2022-11-30 18:08:52
,wl-rdm,31,111681,0.0-6.23-0.23,0.0,32.0,,,,,,,[],,,,,,56.4,1.0,i,1.0,True,742.0999999940395,45.0,60.0,40.0,False,,224.81841303375796,[],"[576, 360]",ColorTask,12.0,24.0,,,HRV,HRV_0128,2022-11-30 18:08:52
,wl-rdm,32,113700,0.0-6.24-0.24,0.0,33.0,,,,,,,[],,,,,,62.5,0.0,u,0.0,True,564.0999999940395,34.0,60.0,40.0,False,,398.04674323685543,[],"[576, 360]",ColorTask,13.0,25.0,,,HRV,HRV_0128,2022-11-30 18:08:52
,wl-rdm,33,115801,0.0-6.25-0.25,0.0,34.0,,,,,,,[],,,,,,87.9,0.0,u,0.0,True,705.8000000119209,43.0,60.0,40.0,False,,313.99646201106856,[],"[576, 360]",ColorTask,14.0,26.0,,,HRV,HRV_0128,2022-11-30 18:08:52
,wl-rdm,34,117971,0.0-6.26-0.26,0.0,35.0,,,,,,,[],,,,,,50.0,1.0,u,0.0,False,873.0,53.0,60.0,40.0,False,,225.7171534121336,[],"[576, 360]",ColorTask,13.0,27.0,,,HRV,HRV_0128,2022-11-30 18:08:52
,wl-rdm,35,120039,0.0-6.27-0.27,0.0,36.0,,,,,,,[],,,,,,62.5,1.0,i,1.0,True,746.5999999940395,45.0,60.0,40.0,False,,250.52546369978592,[],"[576, 360]",ColorTask,14.0,28.0,,,HRV,HRV_0128,2022-11-30 18:08:52
,wl-rdm,36,122025,0.0-6.28-0.28,0.0,37.0,,,,,,,[],,,,,,50.0,0.0,u,0.0,True,676.7999999970198,41.0,60.0,40.0,False,,242.17967042202918,[],"[576, 360]",ColorTask,15.0,29.0,,,HRV,HRV_0128,2022-11-30 18:08:52
,wl-rdm,37,124059,0.0-6.29-0.29,0.0,38.0,,,,,,,[],,,,,,87.9,1.0,i,1.0,True,702.4000000059605,43.0,60.0,40.0,False,,255.47352836902482,[],"[576, 360]",ColorTask,16.0,30.0,,,HRV,HRV_0128,2022-11-30 18:08:52
,wl-rdm,38,126229,0.0-6.30-0.30,0.0,39.0,,,,,,,[],,,,,,56.4,0.0,i,1.0,False,850.0,51.0,60.0,40.0,False,,262.0384910221548,[],"[576, 360]",ColorTask,15.0,31.0,,,HRV,HRV_0128,2022-11-30 18:08:52
,wl-rdm,39,128431,0.0-6.31-0.31,0.0,40.0,,,,,,,[],,,,,,62.5,1.0,u,0.0,False,761.2000000029802,46.0,60.0,40.0,False,,380.2381163201868,[],"[576, 360]",ColorTask,14.0,32.0,,,HRV,HRV_0128,2022-11-30 18:08:52
,wl-rdm,40,130500,0.0-6.32-0.32,0.0,41.0,,,,,,,[],,,,,,73.6,0.0,u,0.0,True,771.5999999940395,47.0,60.0,40.0,False,,218.35369610950286,[],"[576, 360]",ColorTask,15.0,33.0,,,HRV,HRV_0128,2022-11-30 18:08:52
,wl-rdm,41,132518,0.0-6.33-0.33,0.0,42.0,,,,,,,[],,,,,,53.2,0.0,i,1.0,False,652.5999999940395,40.0,60.0,40.0,False,,294.96200366913183,[],"[576, 360]",ColorTask,14.0,34.0,,,HRV,HRV_0128,2022-11-30 18:08:52
,wl-rdm,42,134787,0.0-6.34-0.34,0.0,43.0,,,,,,,[],,,,,,50.0,1.0,i,1.0,True,876.8000000119209,53.0,60.0,40.0,False,,329.3875808622853,[],"[576, 360]",ColorTask,15.0,35.0,,,HRV,HRV_0128,2022-11-30 18:08:52
,wl-rdm,43,136790,0.0-6.35-0.35,0.0,44.0,,,,,,,[],,,,,,50.0,0.0,u,0.0,True,564.6000000089407,34.0,60.0,40.0,False,,370.81313314146064,[],"[576, 360]",ColorTask,16.0,36.0,,,HRV,HRV_0128,2022-11-30 18:08:52
,wl-rdm,44,138808,0.0-6.36-0.36,0.0,45.0,,,,,,,[],,,,,,62.5,1.0,i,1.0,True,711.5999999940395,43.0,60.0,40.0,False,,236.03028332982177,[],"[576, 360]",ColorTask,17.0,37.0,,,HRV,HRV_0128,2022-11-30 18:08:52
,wl-rdm,45,141194,0.0-6.37-0.37,0.0,46.0,,,,,,,[],,,,,,73.6,1.0,u,0.0,False,974.0999999940395,59.0,60.0,40.0,False,,345.6505237383671,[],"[576, 360]",ColorTask,16.0,38.0,,,HRV,HRV_0128,2022-11-30 18:08:52
,wl-rdm,46,142962,0.0-6.38-0.38,0.0,47.0,,,,,,,[],,,,,,53.2,0.0,i,1.0,False,463.20000000298023,28.0,60.0,40.0,False,,243.29012121097242,[],"[576, 360]",ColorTask,15.0,39.0,,,HRV,HRV_0128,2022-11-30 18:08:52
,wl-rdm,47,144864,0.0-6.39-0.39,0.0,48.0,,,,,,,[],,,,,,50.0,0.0,u,0.0,True,631.7999999970198,38.0,60.0,40.0,False,,201.03515936504385,[],"[576, 360]",ColorTask,16.0,40.0,,,HRV,HRV_0128,2022-11-30 18:08:52
,wl-rdm,48,147050,0.0-6.40-0.40,0.0,49.0,,,,,,,[],,,,,,50.0,0.0,i,1.0,False,771.7999999970198,47.0,60.0,40.0,False,,336.8518289695461,[],"[576, 360]",ColorTask,15.0,41.0,,,HRV,HRV_0128,2022-11-30 18:08:52
,wl-rdm,49,149402,0.0-6.41-0.41,0.0,50.0,,,,,,,[],,,,,,56.4,0.0,u,0.0,True,948.5,57.0,60.0,40.0,False,,339.0647678256937,[],"[576, 360]",ColorTask,16.0,42.0,,,HRV,HRV_0128,2022-11-30 18:08:52
,wl-rdm,50,151370,0.0-6.42-0.42,0.0,51.0,,,,,,,[],,,,,,73.6,1.0,i,1.0,True,696.9000000059605,42.0,60.0,40.0,False,,214.639907270048,[],"[576, 360]",ColorTask,17.0,43.0,,,HRV,HRV_0128,2022-11-30 18:08:52
,wl-rdm,51,153606,0.0-6.43-0.43,0.0,52.0,,,,,,,[],,,,,,53.2,1.0,i,1.0,True,918.2000000029802,56.0,60.0,40.0,False,,239.05873078896653,[],"[576, 360]",ColorTask,18.0,44.0,,,HRV,HRV_0128,2022-11-30 18:08:52
,wl-rdm,52,155858,0.0-6.44-0.44,0.0,53.0,,,,,,,[],,,,,,56.4,1.0,i,1.0,True,873.4000000059605,53.0,60.0,40.0,False,,317.1879984621297,[],"[576, 360]",ColorTask,19.0,45.0,,,HRV,HRV_0128,2022-11-30 18:08:52
,wl-rdm,53,157827,0.0-6.45-0.45,0.0,54.0,,,,,,,[],,,,,,50.0,0.0,i,1.0,False,682.0,41.0,60.0,40.0,False,,225.7181789470851,[],"[576, 360]",ColorTask,18.0,46.0,,,HRV,HRV_0128,2022-11-30 18:08:52
,wl-rdm,54,159996,0.0-6.46-0.46,0.0,55.0,,,,,,,[],,,,,,87.9,0.0,u,0.0,True,802.3999999910593,49.0,60.0,40.0,False,,292.69805683607865,[],"[576, 360]",ColorTask,19.0,47.0,,,HRV,HRV_0128,2022-11-30 18:08:52
,wl-rdm,55,162315,0.0-6.47-0.47,0.0,56.0,,,,,,,[],,,,,,56.4,0.0,i,1.0,False,857.0,52.0,60.0,40.0,False,,386.108884588355,[],"[576, 360]",ColorTask,18.0,48.0,,,HRV,HRV_0128,2022-11-30 18:08:52
,wl-rdm,56,164500,0.0-6.48-0.48,0.0,57.0,,,,,,,[],,,,,,56.4,1.0,i,1.0,True,815.8999999910593,49.0,60.0,40.0,False,,311.4295429285168,[],"[576, 360]",ColorTask,19.0,49.0,,,HRV,HRV_0128,2022-11-30 18:08:52
,wl-rdm,57,166603,0.0-6.49-0.49,0.0,58.0,,,,,,,[],,,,,,73.6,1.0,i,1.0,True,694.7000000029802,42.0,60.0,40.0,False,,338.6189964761036,[],"[576, 360]",ColorTask,20.0,50.0,,,HRV,HRV_0128,2022-11-30 18:08:52
,wl-rdm,58,168554,0.0-6.50-0.50,0.0,59.0,,,,,,,[],,,,,,87.9,1.0,i,1.0,True,619.5999999940395,38.0,60.0,40.0,False,,261.6411718781311,[],"[576, 360]",ColorTask,21.0,51.0,,,HRV,HRV_0128,2022-11-30 18:08:52
,wl-rdm,59,170640,0.0-6.51-0.51,0.0,60.0,,,,,,,[],,,,,,50.0,1.0,u,0.0,False,760.5,46.0,60.0,40.0,False,,259.61214344488906,[],"[576, 360]",ColorTask,20.0,52.0,,,HRV,HRV_0128,2022-11-30 18:08:52
,wl-rdm,60,172608,0.0-6.52-0.52,0.0,61.0,,,,,,,[],,,,,,87.9,0.0,u,0.0,True,682.2999999970198,41.0,60.0,40.0,False,,232.37112745210527,[],"[576, 360]",ColorTask,21.0,53.0,,,HRV,HRV_0128,2022-11-30 18:08:52
,wl-rdm,61,174827,0.0-6.53-0.53,0.0,62.0,,,,,,,[],,,,,,56.4,0.0,i,1.0,False,786.2999999970198,48.0,60.0,40.0,False,,357.1652604131548,[],"[576, 360]",ColorTask,20.0,54.0,,,HRV,HRV_0128,2022-11-30 18:08:52
,wl-rdm,62,177063,0.0-6.54-0.54,0.0,63.0,,,,,,,[],,,,,,53.2,0.0,u,0.0,True,907.6000000089407,55.0,60.0,40.0,False,,256.12326255851445,[],"[576, 360]",ColorTask,21.0,55.0,,,HRV,HRV_0128,2022-11-30 18:08:52
,wl-rdm,63,179381,0.0-6.55-0.55,0.0,64.0,,,,,,,[],,,,,,73.6,0.0,u,0.0,True,974.5,59.0,60.0,40.0,False,,253.17396153378326,[],"[576, 360]",ColorTask,22.0,56.0,,,HRV,HRV_0128,2022-11-30 18:08:52
,wl-rdm,64,181601,0.0-6.56-0.56,0.0,65.0,,,,,,,[],,,,,,56.4,0.0,i,1.0,False,741.7000000029802,45.0,60.0,40.0,False,,396.49259479569247,[],"[576, 360]",ColorTask,21.0,57.0,,,HRV,HRV_0128,2022-11-30 18:08:52
,wl-rdm,65,183736,0.0-6.57-0.57,0.0,66.0,,,,,,,[],,,,,,56.4,1.0,i,1.0,True,747.6999999880791,45.0,60.0,40.0,False,,318.8219708349577,[],"[576, 360]",ColorTask,22.0,58.0,,,HRV,HRV_0128,2022-11-30 18:08:52
,wl-rdm,66,186155,0.0-6.58-0.58,0.0,67.0,,,,,,,[],,,,,,62.5,0.0,u,0.0,True,1004.0999999940395,61.0,60.0,40.0,False,,340.6134586282318,[],"[576, 360]",ColorTask,23.0,59.0,,,HRV,HRV_0128,2022-11-30 18:08:52
,wl-rdm,67,188241,0.0-6.59-0.59,0.0,68.0,,,,,,,[],,,,,,87.9,0.0,u,0.0,True,737.7999999970198,45.0,60.0,40.0,False,,269.40462766569794,[],"[576, 360]",ColorTask,24.0,60.0,,,HRV,HRV_0128,2022-11-30 18:08:52
,wl-rdm,68,190410,0.0-6.60-0.60,0.0,69.0,,,,,,,[],,,,,,62.5,1.0,i,1.0,True,881.2000000029802,53.0,60.0,40.0,False,,217.1878339957698,[],"[576, 360]",ColorTask,25.0,61.0,,,HRV,HRV_0128,2022-11-30 18:08:52
,wl-rdm,69,192528,0.0-6.61-0.61,0.0,70.0,,,,,,,[],,,,,,50.0,0.0,i,1.0,False,832.0,50.0,60.0,40.0,False,,233.23957097888012,[],"[576, 360]",ColorTask,24.0,62.0,,,HRV,HRV_0128,2022-11-30 18:08:52
,wl-rdm,70,194580,0.0-6.62-0.62,0.0,71.0,,,,,,,[],,,,,,53.2,1.0,u,0.0,False,752.9999999850988,46.0,60.0,40.0,False,,225.82566695866578,[],"[576, 360]",ColorTask,23.0,63.0,,,HRV,HRV_0128,2022-11-30 18:08:52
,wl-rdm,71,196983,0.0-6.63-0.63,0.0,72.0,,,,,,,[],,,,,,53.2,0.0,u,0.0,True,1026.6000000089407,62.0,60.0,40.0,False,,301.2425203440064,[],"[576, 360]",ColorTask,24.0,64.0,,,HRV,HRV_0128,2022-11-30 18:08:52
,wl-rdm,72,199118,0.0-6.64-0.64,0.0,73.0,,,,,,,[],,,,,,53.2,0.0,i,1.0,False,823.3999999910593,50.0,60.0,40.0,False,,242.60847370523967,[],"[576, 360]",ColorTask,23.0,65.0,,,HRV,HRV_0128,2022-11-30 18:08:52
,wl-rdm,73,201337,0.0-6.65-0.65,0.0,74.0,,,,,,,[],,,,,,62.5,1.0,i,1.0,True,761.7999999970198,46.0,60.0,40.0,False,,386.55507819802153,[],"[576, 360]",ColorTask,24.0,66.0,,,HRV,HRV_0128,2022-11-30 18:08:52
,wl-rdm,74,203539,0.0-6.66-0.66,0.0,75.0,,,,,,,[],,,,,,53.2,0.0,u,0.0,True,786.7000000029802,48.0,60.0,40.0,False,,340.59460762882435,[],"[576, 360]",ColorTask,25.0,67.0,,,HRV,HRV_0128,2022-11-30 18:08:52
,wl-rdm,75,205742,0.0-6.67-0.67,0.0,76.0,,,,,,,[],,,,,,56.4,1.0,i,1.0,True,891.0999999940395,54.0,60.0,40.0,False,,233.53138796748294,[],"[576, 360]",ColorTask,26.0,68.0,,,HRV,HRV_0128,2022-11-30 18:08:52
,wl-rdm,76,207994,0.0-6.68-0.68,0.0,77.0,,,,,,,[],,,,,,50.0,1.0,u,0.0,False,962.6000000089407,58.0,60.0,40.0,False,,218.37801105454764,[],"[576, 360]",ColorTask,25.0,69.0,,,HRV,HRV_0128,2022-11-30 18:08:52
,wl-rdm,77,210145,0.0-6.69-0.69,0.0,78.0,,,,,,,[],,,,,,87.9,1.0,i,1.0,True,691.0,42.0,60.0,40.0,False,,383.74881608374585,[],"[576, 360]",ColorTask,26.0,70.0,,,HRV,HRV_0128,2022-11-30 18:08:52
,wl-rdm,78,212081,0.0-6.70-0.70,0.0,79.0,,,,,,,[],,,,,,73.6,0.0,u,0.0,True,600.3999999910593,36.0,60.0,40.0,False,,273.7815564664777,[],"[576, 360]",ColorTask,27.0,71.0,,,HRV,HRV_0128,2022-11-30 18:08:52
,wl-rdm,79,214149,0.0-6.71-0.71,0.0,80.0,,,,,,,[],,,,,,87.9,1.0,i,1.0,True,787.0000000149012,48.0,60.0,40.0,False,,214.98258063794464,[],"[576, 360]",ColorTask,28.0,72.0,,,HRV,HRV_0128,2022-11-30 18:08:52
,wl-rdm,80,216118,0.0-6.72-0.72,0.0,81.0,,,,,,,[],,,,,,56.4,1.0,i,1.0,True,672.6999999880791,41.0,60.0,40.0,False,,218.01792667185686,[],"[576, 360]",ColorTask,29.0,73.0,,,HRV,HRV_0128,2022-11-30 18:08:52
,wl-rdm,81,218170,0.0-6.73-0.73,0.0,82.0,,,,,,,[],,,,,,73.6,1.0,i,1.0,True,642.4000000059605,39.0,60.0,40.0,False,,346.94741717181563,[],"[576, 360]",ColorTask,30.0,74.0,,,HRV,HRV_0128,2022-11-30 18:08:52
,wl-rdm,82,220256,0.0-6.74-0.74,0.0,83.0,,,,,,,[],,,,,,73.6,1.0,i,1.0,True,707.2000000029802,43.0,60.0,40.0,False,,289.75807609557023,[],"[576, 360]",ColorTask,31.0,75.0,,,HRV,HRV_0128,2022-11-30 18:08:52
,wl-rdm,83,222358,0.0-6.75-0.75,0.0,84.0,,,,,,,[],,,,,,56.4,0.0,u,0.0,True,736.5,45.0,60.0,40.0,False,,283.42215341753763,[],"[576, 360]",ColorTask,32.0,76.0,,,HRV,HRV_0128,2022-11-30 18:08:52
,wl-rdm,84,224543,0.0-6.76-0.76,0.0,85.0,,,,,,,[],,,,,,53.2,0.0,u,0.0,True,821.6999999880791,50.0,60.0,40.0,False,,295.80804438560403,[],"[576, 360]",ColorTask,33.0,77.0,,,HRV,HRV_0128,2022-11-30 18:08:52
,wl-rdm,85,226679,0.0-6.77-0.77,0.0,86.0,,,,,,,[],,,,,,62.5,0.0,u,0.0,True,792.7999999970198,48.0,60.0,40.0,False,,267.2797754145764,[],"[576, 360]",ColorTask,34.0,78.0,,,HRV,HRV_0128,2022-11-30 18:08:52
,wl-rdm,86,228732,0.0-6.78-0.78,0.0,87.0,,,,,,,[],,,,,,73.6,0.0,u,0.0,True,697.9000000059605,42.0,60.0,40.0,False,,294.3978261132791,[],"[576, 360]",ColorTask,35.0,79.0,,,HRV,HRV_0128,2022-11-30 18:08:52
,wl-rdm,87,230617,0.0-6.79-0.79,0.0,88.0,,,,,,,[],,,,,,73.6,1.0,i,1.0,True,499.80000001192093,30.0,60.0,40.0,False,,323.2137681453594,[],"[576, 360]",ColorTask,36.0,80.0,,,HRV,HRV_0128,2022-11-30 18:08:52
,wl-rdm,88,232485,0.0-6.80-0.80,0.0,89.0,,,,,,,[],,,,,,87.9,1.0,i,1.0,True,568.7999999970198,35.0,60.0,40.0,False,,232.245535991971,[],"[576, 360]",ColorTask,37.0,81.0,,,HRV,HRV_0128,2022-11-30 18:08:52
,wl-rdm,89,234303,0.0-6.81-0.81,0.0,90.0,,,,,,,[],,,,,,53.2,1.0,i,1.0,True,544.4999999850988,33.0,60.0,40.0,False,,208.59002467492803,[],"[576, 360]",ColorTask,38.0,82.0,,,HRV,HRV_0128,2022-11-30 18:08:52
,wl-rdm,90,236472,0.0-6.82-0.82,0.0,91.0,,,,,,,[],,,,,,56.4,1.0,u,0.0,False,845.1000000089407,51.0,60.0,40.0,False,,265.9039140442095,[],"[576, 360]",ColorTask,37.0,83.0,,,HRV,HRV_0128,2022-11-30 18:08:52
,wl-rdm,91,238641,0.0-6.83-0.83,0.0,92.0,,,,,,,[],,,,,,73.6,0.0,i,1.0,False,760.2000000178814,46.0,60.0,40.0,False,,335.0509891717605,[],"[576, 360]",ColorTask,36.0,84.0,,,HRV,HRV_0128,2022-11-30 18:08:52
,wl-rdm,92,240710,0.0-6.84-0.84,0.0,93.0,,,,,,,[],,,,,,87.9,0.0,u,0.0,True,707.6999999880791,43.0,60.0,40.0,False,,292.5131172188841,[],"[576, 360]",ColorTask,37.0,85.0,,,HRV,HRV_0128,2022-11-30 18:08:52
,wl-rdm,93,242829,0.0-6.85-0.85,0.0,94.0,,,,,,,[],,,,,,62.5,1.0,i,1.0,True,780.8999999910593,47.0,60.0,40.0,False,,268.0147582441091,[],"[576, 360]",ColorTask,38.0,86.0,,,HRV,HRV_0128,2022-11-30 18:08:52
,wl-rdm,94,244964,0.0-6.86-0.86,0.0,95.0,,,,,,,[],,,,,,62.5,0.0,u,0.0,True,778.7000000178814,47.0,60.0,40.0,False,,292.7751176873996,[],"[576, 360]",ColorTask,39.0,87.0,,,HRV,HRV_0128,2022-11-30 18:08:52
,wl-rdm,95,247066,0.0-6.87-0.87,0.0,96.0,,,,,,,[],,,,,,56.4,0.0,i,1.0,False,791.3999999910593,48.0,60.0,40.0,False,,243.14864107847828,[],"[576, 360]",ColorTask,38.0,88.0,,,HRV,HRV_0128,2022-11-30 18:08:52
,wl-rdm,96,249135,0.0-6.88-0.88,0.0,97.0,,,,,,,[],,,,,,53.2,1.0,i,1.0,True,698.0999999940395,42.0,60.0,40.0,False,,303.8949006423453,[],"[576, 360]",ColorTask,39.0,89.0,,,HRV,HRV_0128,2022-11-30 18:08:52
,wl-rdm,97,251170,0.0-6.89-0.89,0.0,98.0,,,,,,,[],,,,,,87.9,1.0,i,1.0,True,659.4000000059605,40.0,60.0,40.0,False,,304.48304782974566,[],"[576, 360]",ColorTask,40.0,90.0,,,HRV,HRV_0128,2022-11-30 18:08:52
,wl-rdm,98,253339,0.0-6.90-0.90,0.0,99.0,,,,,,,[],,,,,,56.4,0.0,u,0.0,True,845.2000000029802,51.0,60.0,40.0,False,,255.95279514508357,[],"[576, 360]",ColorTask,41.0,91.0,,,HRV,HRV_0128,2022-11-30 18:08:52
,wl-rdm,99,255441,0.0-6.91-0.91,0.0,100.0,,,,,,,[],,,,,,50.0,1.0,i,1.0,True,704.6000000089407,43.0,60.0,40.0,False,,319.9984151119164,[],"[576, 360]",ColorTask,42.0,92.0,,,HRV,HRV_0128,2022-11-30 18:08:52
,wl-rdm,100,257543,0.0-6.92-0.92,0.0,101.0,,,,,,,[],,,,,,73.6,1.0,i,1.0,True,751.9000000059605,46.0,60.0,40.0,False,,280.5512333910616,[],"[576, 360]",ColorTask,43.0,93.0,,,HRV,HRV_0128,2022-11-30 18:08:52
,wl-rdm,101,259745,0.0-6.93-0.93,0.0,102.0,,,,,,,[],,,,,,73.6,0.0,u,0.0,True,845.6999999880791,51.0,60.0,40.0,False,,290.51193200095526,[],"[576, 360]",ColorTask,44.0,94.0,,,HRV,HRV_0128,2022-11-30 18:08:52
,wl-rdm,102,261748,0.0-6.94-0.94,0.0,103.0,,,,,,,[],,,,,,73.6,0.0,u,0.0,True,675.2999999970198,41.0,60.0,40.0,False,,255.52940339011286,[],"[576, 360]",ColorTask,45.0,95.0,,,HRV,HRV_0128,2022-11-30 18:08:52
,wl-rdm,103,263750,0.0-6.95-0.95,0.0,104.0,,,,,,,[],,,,,,73.6,1.0,i,1.0,True,656.9000000059605,40.0,60.0,40.0,False,,279.23339903756346,[],"[576, 360]",ColorTask,46.0,96.0,,,HRV,HRV_0128,2022-11-30 18:08:52
,wl-rdm,104,265885,0.0-6.96-0.96,0.0,105.0,,,,,,,[],,,,,,62.5,0.0,u,0.0,True,808.2999999970198,49.0,60.0,40.0,False,,262.0189276383674,[],"[576, 360]",ColorTask,47.0,97.0,,,HRV,HRV_0128,2022-11-30 18:08:52
,wl-rdm,105,267787,0.0-6.97-0.97,0.0,106.0,,,,,,,[],,,,,,87.9,1.0,i,1.0,True,590.0,36.0,60.0,40.0,False,,234.96161889492438,[],"[576, 360]",ColorTask,48.0,98.0,,,HRV,HRV_0128,2022-11-30 18:08:52
,wl-rdm,106,269939,0.0-6.98-0.98,0.0,107.0,,,,,,,[],,,,,,62.5,1.0,u,0.0,False,842.2999999970198,51.0,60.0,40.0,False,,239.40673721754644,[],"[576, 360]",ColorTask,47.0,99.0,,,HRV,HRV_0128,2022-11-30 18:08:52
,wl-rdm,107,272008,0.0-6.99-0.99,0.0,108.0,,,,,,,[],,,,,,56.4,1.0,i,1.0,True,606.0000000149012,37.0,60.0,40.0,False,,395.9323444743744,[],"[576, 360]",ColorTask,48.0,100.0,,,HRV,HRV_0128,2022-11-30 18:08:52
,wl-rdm,108,274093,0.0-6.100-0.100,0.0,109.0,,,,,,,[],,,,,,62.5,0.0,u,0.0,True,646.5999999940395,39.0,60.0,40.0,False,,379.8955844919077,[],"[576, 360]",ColorTask,49.0,101.0,,,HRV,HRV_0128,2022-11-30 18:08:52
,wl-rdm,109,276212,0.0-6.101-0.101,0.0,110.0,,,,,,,[],,,,,,56.4,1.0,i,1.0,True,759.9000000059605,46.0,60.0,40.0,False,,290.52475292557926,[],"[576, 360]",ColorTask,50.0,102.0,,,HRV,HRV_0128,2022-11-30 18:08:52
,wl-rdm,110,278397,0.0-6.102-0.102,0.0,111.0,,,,,,,[],,,,,,50.0,1.0,i,1.0,True,807.7999999970198,49.0,60.0,40.0,False,,315.8913760483032,[],"[576, 360]",ColorTask,51.0,103.0,,,HRV,HRV_0128,2022-11-30 18:08:52
,wl-rdm,111,280533,0.0-6.103-0.103,0.0,112.0,,,,,,,[],,,,,,50.0,0.0,i,1.0,False,797.0,48.0,60.0,40.0,False,,258.2762973694046,[],"[576, 360]",ColorTask,50.0,104.0,,,HRV,HRV_0128,2022-11-30 18:08:52
,wl-rdm,112,282551,0.0-6.104-0.104,0.0,113.0,,,,,,,[],,,,,,53.2,1.0,i,1.0,True,571.7000000029802,35.0,60.0,40.0,False,,381.06577726082475,[],"[576, 360]",ColorTask,51.0,105.0,,,HRV,HRV_0128,2022-11-30 18:08:52
,wl-rdm,113,284720,0.0-6.105-0.105,0.0,114.0,,,,,,,[],,,,,,73.6,1.0,i,1.0,True,772.7999999970198,47.0,60.0,40.0,False,,320.99302004961606,[],"[576, 360]",ColorTask,52.0,106.0,,,HRV,HRV_0128,2022-11-30 18:08:52
,wl-rdm,114,286973,0.0-6.106-0.106,0.0,115.0,,,,,,,[],,,,,,50.0,1.0,u,0.0,False,892.7999999970198,54.0,60.0,40.0,False,,296.51274493102295,[],"[576, 360]",ColorTask,51.0,107.0,,,HRV,HRV_0128,2022-11-30 18:08:52
,wl-rdm,115,288908,0.0-6.107-0.107,0.0,116.0,,,,,,,[],,,,,,87.9,0.0,i,1.0,False,485.29999999701977,30.0,60.0,40.0,False,,370.9198997550549,[],"[576, 360]",ColorTask,50.0,108.0,,,HRV,HRV_0128,2022-11-30 18:08:52
,wl-html-keyboard-response,116,306114,0.0-7.0-0.0,1.0,117.0,,,,,,,,15197.699999988079,1.0,0,,,,,,,,,,,,,,,,,,,,,,HRV,HRV_0128,2022-11-30 18:08:52
,wl-rdm,117,308511,0.0-8.0-0.0,1.0,118.0,,,,,,,[],,,,,,50.0,1.0,i,1.0,True,1100.7000000029802,66.0,60.0,40.0,False,,247.51502821335305,[],"[576, 360]",ColorTask,51.0,1.0,,,HRV,HRV_0128,2022-11-30 18:08:52
,wl-rdm,118,310563,0.0-8.1-0.1,1.0,119.0,,,,,,,[],,,,,,56.4,1.0,i,1.0,True,644.1999999880791,39.0,60.0,40.0,False,,347.64422766491515,[],"[576, 360]",ColorTask,52.0,2.0,,,HRV,HRV_0128,2022-11-30 18:08:52
,wl-rdm,119,312531,0.0-8.2-0.2,1.0,120.0,,,,,,,[],,,,,,73.6,1.0,i,1.0,True,649.6999999880791,39.0,60.0,40.0,False,,264.4670172984842,[],"[576, 360]",ColorTask,53.0,3.0,,,HRV,HRV_0128,2022-11-30 18:08:52
,wl-rdm,120,314450,0.0-8.3-0.3,1.0,121.0,,,,,,,[],,,,,,73.6,1.0,i,1.0,True,585.2999999970198,36.0,60.0,40.0,False,,252.0798958076724,[],"[576, 360]",ColorTask,54.0,4.0,,,HRV,HRV_0128,2022-11-30 18:08:52
,wl-rdm,121,316669,0.0-8.4-0.4,1.0,122.0,,,,,,,[],,,,,,62.5,0.0,u,0.0,True,759.5000000149012,46.0,60.0,40.0,False,,388.1774957366736,[],"[576, 360]",ColorTask,55.0,5.0,,,HRV,HRV_0128,2022-11-30 18:08:52
,wl-rdm,122,318771,0.0-8.5-0.5,1.0,123.0,,,,,,,[],,,,,,73.6,0.0,i,1.0,False,818.7999999970198,50.0,60.0,40.0,False,,208.31147711739482,[],"[576, 360]",ColorTask,54.0,6.0,,,HRV,HRV_0128,2022-11-30 18:08:52
,wl-rdm,123,320790,0.0-8.6-0.6,1.0,124.0,,,,,,,[],,,,,,87.9,0.0,u,0.0,True,636.7999999970198,39.0,60.0,40.0,False,,301.96417294877057,[],"[576, 360]",ColorTask,55.0,7.0,,,HRV,HRV_0128,2022-11-30 18:08:52
,wl-rdm,124,322909,0.0-8.7-0.7,1.0,125.0,,,,,,,[],,,,,,53.2,0.0,i,1.0,False,720.5,44.0,60.0,40.0,False,,324.81661626190817,[],"[576, 360]",ColorTask,54.0,8.0,,,HRV,HRV_0128,2022-11-30 18:08:52
,wl-rdm,125,324878,0.0-8.8-0.8,1.0,126.0,,,,,,,[],,,,,,53.2,1.0,u,0.0,False,572.5999999940395,35.0,60.0,40.0,False,,331.9052394380708,[],"[576, 360]",ColorTask,53.0,9.0,,,HRV,HRV_0128,2022-11-30 18:08:52
,wl-rdm,126,326929,0.0-8.9-0.9,1.0,127.0,,,,,,,[],,,,,,73.6,1.0,i,1.0,True,670.8999999910593,41.0,60.0,40.0,False,,307.74224353873467,[],"[576, 360]",ColorTask,54.0,10.0,,,HRV,HRV_0128,2022-11-30 18:08:52
,wl-rdm,127,329032,0.0-8.10-0.10,1.0,128.0,,,,,,,[],,,,,,62.5,0.0,u,0.0,True,831.4000000059605,50.0,60.0,40.0,False,,209.87408656996655,[],"[576, 360]",ColorTask,55.0,11.0,,,HRV,HRV_0128,2022-11-30 18:08:52
,wl-rdm,128,331200,0.0-8.11-0.11,1.0,129.0,,,,,,,[],,,,,,56.4,0.0,i,1.0,False,853.1999999880791,52.0,60.0,40.0,False,,246.5218582705095,[],"[576, 360]",ColorTask,54.0,12.0,,,HRV,HRV_0128,2022-11-30 18:08:52
,wl-rdm,129,333286,0.0-8.12-0.12,1.0,130.0,,,,,,,[],,,,,,53.2,0.0,i,1.0,False,653.7000000029802,40.0,60.0,40.0,False,,364.64365149413106,[],"[576, 360]",ColorTask,53.0,13.0,,,HRV,HRV_0128,2022-11-30 18:08:52
,wl-rdm,130,335522,0.0-8.13-0.13,1.0,131.0,,,,,,,[],,,,,,56.4,0.0,i,1.0,False,904.2999999970198,55.0,60.0,40.0,False,,266.62660314991774,[],"[576, 360]",ColorTask,52.0,14.0,,,HRV,HRV_0128,2022-11-30 18:08:52
,wl-rdm,131,337590,0.0-8.14-0.14,1.0,132.0,,,,,,,[],,,,,,53.2,0.0,u,0.0,True,797.8999999910593,48.0,60.0,40.0,False,,206.73360808161613,[],"[576, 360]",ColorTask,53.0,15.0,,,HRV,HRV_0128,2022-11-30 18:08:52
,wl-rdm,132,339859,0.0-8.15-0.15,1.0,133.0,,,,,,,[],,,,,,50.0,0.0,i,1.0,False,820.2999999970198,50.0,60.0,40.0,False,,377.529750668551,[],"[576, 360]",ColorTask,52.0,16.0,,,HRV,HRV_0128,2022-11-30 18:08:52
,wl-rdm,133,341878,0.0-8.16-0.16,1.0,134.0,,,,,,,[],,,,,,73.6,0.0,u,0.0,True,727.5,44.0,60.0,40.0,False,,221.47148034794185,[],"[576, 360]",ColorTask,53.0,17.0,,,HRV,HRV_0128,2022-11-30 18:08:52
,wl-rdm,134,343780,0.0-8.17-0.17,1.0,135.0,,,,,,,[],,,,,,87.9,1.0,i,1.0,True,629.2000000029802,38.0,60.0,40.0,False,,212.2325178716134,[],"[576, 360]",ColorTask,54.0,18.0,,,HRV,HRV_0128,2022-11-30 18:08:52
,wl-rdm,135,346299,0.0-8.18-0.18,1.0,136.0,,,,,,,[],,,,,,56.4,0.0,i,1.0,False,1206.5,73.0,60.0,40.0,False,,246.57174869651595,[],"[576, 360]",ColorTask,53.0,19.0,,,HRV,HRV_0128,2022-11-30 18:08:52
,wl-rdm,136,348033,0.0-8.19-0.19,1.0,137.0,,,,,,,[],,,,,,56.4,1.0,u,0.0,False,455.29999999701977,28.0,60.0,40.0,False,,209.302708151983,[],"[576, 360]",ColorTask,52.0,20.0,,,HRV,HRV_0128,2022-11-30 18:08:52
,wl-rdm,137,349936,0.0-8.20-0.20,1.0,138.0,,,,,,,[],,,,,,56.4,0.0,i,1.0,False,549.2999999970198,33.0,60.0,40.0,False,,299.95854751526474,[],"[576, 360]",ColorTask,51.0,21.0,,,HRV,HRV_0128,2022-11-30 18:08:52
,wl-rdm,138,352154,0.0-8.21-0.21,1.0,139.0,,,,,,,[],,,,,,56.4,1.0,i,1.0,True,885.8000000119209,54.0,60.0,40.0,False,,242.70632003938573,[],"[576, 360]",ColorTask,52.0,22.0,,,HRV,HRV_0128,2022-11-30 18:08:52
,wl-rdm,139,354273,0.0-8.22-0.22,1.0,140.0,,,,,,,[],,,,,,62.5,0.0,u,0.0,True,793.7999999970198,48.0,60.0,40.0,False,,251.12644874381505,[],"[576, 360]",ColorTask,53.0,23.0,,,HRV,HRV_0128,2022-11-30 18:08:52
,wl-rdm,140,356175,0.0-8.23-0.23,1.0,141.0,,,,,,,[],,,,,,87.9,1.0,i,1.0,True,618.9000000059605,38.0,60.0,40.0,False,,203.34308405902945,[],"[576, 360]",ColorTask,54.0,24.0,,,HRV,HRV_0128,2022-11-30 18:08:52
,wl-rdm,141,358644,0.0-8.24-0.24,1.0,142.0,,,,,,,[],,,,,,53.2,1.0,u,0.0,False,1032.6000000089407,62.0,60.0,40.0,False,,367.56016406893593,[],"[576, 360]",ColorTask,53.0,25.0,,,HRV,HRV_0128,2022-11-30 18:08:52
,wl-rdm,142,360980,0.0-8.25-0.25,1.0,143.0,,,,,,,[],,,,,,53.2,0.0,i,1.0,False,1001.3000000119209,61.0,60.0,40.0,False,,262.88890094790685,[],"[576, 360]",ColorTask,52.0,26.0,,,HRV,HRV_0128,2022-11-30 18:08:52
,wl-rdm,143,363299,0.0-8.26-0.26,1.0,144.0,,,,,,,[],,,,,,56.4,0.0,u,0.0,True,982.6999999880791,59.0,60.0,40.0,False,,280.5312881348669,[],"[576, 360]",ColorTask,53.0,27.0,,,HRV,HRV_0128,2022-11-30 18:08:52
,wl-rdm,144,365435,0.0-8.27-0.27,1.0,145.0,,,,,,,[],,,,,,56.4,1.0,i,1.0,True,766.7999999970198,46.0,60.0,40.0,False,,312.55736592587436,[],"[576, 360]",ColorTask,54.0,28.0,,,HRV,HRV_0128,2022-11-30 18:08:52
,wl-rdm,145,367770,0.0-8.28-0.28,1.0,146.0,,,,,,,[],,,,,,50.0,1.0,u,0.0,False,1041.9000000059605,63.0,60.0,40.0,False,,223.91799702695351,[],"[576, 360]",ColorTask,53.0,29.0,,,HRV,HRV_0128,2022-11-30 18:08:52
,wl-rdm,146,370055,0.0-8.29-0.29,1.0,147.0,,,,,,,[],,,,,,50.0,1.0,i,1.0,True,825.6999999880791,50.0,60.0,40.0,False,,398.1324140927092,[],"[576, 360]",ColorTask,54.0,30.0,,,HRV,HRV_0128,2022-11-30 18:08:52
,wl-rdm,147,372141,0.0-8.30-0.30,1.0,148.0,,,,,,,[],,,,,,87.9,0.0,u,0.0,True,725.5999999940395,44.0,60.0,40.0,False,,297.77960674417375,[],"[576, 360]",ColorTask,55.0,31.0,,,HRV,HRV_0128,2022-11-30 18:08:52
,wl-rdm,148,374360,0.0-8.31-0.31,1.0,149.0,,,,,,,[],,,,,,50.0,1.0,u,0.0,False,793.2000000029802,48.0,60.0,40.0,False,,356.8458625528535,[],"[576, 360]",ColorTask,54.0,32.0,,,HRV,HRV_0128,2022-11-30 18:08:52
,wl-rdm,149,376262,0.0-8.32-0.32,1.0,150.0,,,,,,,[],,,,,,87.9,1.0,i,1.0,True,533.7000000178814,32.0,60.0,40.0,False,,316.4949914033524,[],"[576, 360]",ColorTask,55.0,33.0,,,HRV,HRV_0128,2022-11-30 18:08:52
,wl-rdm,150,378547,0.0-8.33-0.33,1.0,151.0,,,,,,,[],,,,,,73.6,0.0,u,0.0,True,866.0999999940395,52.0,60.0,40.0,False,,365.94254343792164,[],"[576, 360]",ColorTask,56.0,34.0,,,HRV,HRV_0128,2022-11-30 18:08:52
,wl-rdm,151,380583,0.0-8.34-0.34,1.0,152.0,,,,,,,[],,,,,,87.9,1.0,i,1.0,True,636.8999999910593,39.0,60.0,40.0,False,,321.0903406347806,[],"[576, 360]",ColorTask,57.0,35.0,,,HRV,HRV_0128,2022-11-30 18:08:52
,wl-rdm,152,382902,0.0-8.35-0.35,1.0,153.0,,,,,,,[],,,,,,62.5,0.0,i,1.0,False,897.4999999850988,54.0,60.0,40.0,False,,355.7256566763979,[],"[576, 360]",ColorTask,56.0,36.0,,,HRV,HRV_0128,2022-11-30 18:08:52
,wl-rdm,153,384937,0.0-8.36-0.36,1.0,154.0,,,,,,,[],,,,,,73.6,1.0,i,1.0,True,655.2000000029802,40.0,60.0,40.0,False,,311.36461553512447,[],"[576, 360]",ColorTask,57.0,37.0,,,HRV,HRV_0128,2022-11-30 18:08:52
,wl-rdm,154,387240,0.0-8.37-0.37,1.0,155.0,,,,,,,[],,,,,,53.2,0.0,u,0.0,True,857.0,52.0,60.0,40.0,False,,369.2360491614811,[],"[576, 360]",ColorTask,58.0,38.0,,,HRV,HRV_0128,2022-11-30 18:08:52
,wl-rdm,155,389492,0.0-8.38-0.38,1.0,156.0,,,,,,,[],,,,,,62.5,1.0,i,1.0,True,834.0,50.0,60.0,40.0,False,,363.1144368910844,[],"[576, 360]",ColorTask,59.0,39.0,,,HRV,HRV_0128,2022-11-30 18:08:52
,wl-rdm,156,391644,0.0-8.39-0.39,1.0,157.0,,,,,,,[],,,,,,62.5,1.0,i,1.0,True,803.7999999970198,49.0,60.0,40.0,False,,274.56189736965393,[],"[576, 360]",ColorTask,60.0,40.0,,,HRV,HRV_0128,2022-11-30 18:08:52
,wl-rdm,157,393779,0.0-8.40-0.40,1.0,158.0,,,,,,,[],,,,,,56.4,0.0,i,1.0,False,669.8000000119209,41.0,60.0,40.0,False,,396.23664184477684,[],"[576, 360]",ColorTask,59.0,41.0,,,HRV,HRV_0128,2022-11-30 18:08:52
,wl-rdm,158,395831,0.0-8.41-0.41,1.0,159.0,,,,,,,[],,,,,,50.0,1.0,u,0.0,False,735.5999999940395,45.0,60.0,40.0,False,,235.50580971871653,[],"[576, 360]",ColorTask,58.0,42.0,,,HRV,HRV_0128,2022-11-30 18:08:52
,wl-rdm,159,397817,0.0-8.42-0.42,1.0,160.0,,,,,,,[],,,,,,56.4,0.0,i,1.0,False,586.6000000089407,36.0,60.0,40.0,False,,327.5929709355971,[],"[576, 360]",ColorTask,57.0,43.0,,,HRV,HRV_0128,2022-11-30 18:08:52
,wl-rdm,160,399969,0.0-8.43-0.43,1.0,161.0,,,,,,,[],,,,,,50.0,0.0,i,1.0,False,779.1000000089407,47.0,60.0,40.0,False,,309.5484604883356,[],"[576, 360]",ColorTask,56.0,44.0,,,HRV,HRV_0128,2022-11-30 18:08:52
,wl-rdm,161,402171,0.0-8.44-0.44,1.0,162.0,,,,,,,[],,,,,,87.9,1.0,i,1.0,True,738.9000000059605,45.0,60.0,40.0,False,,398.95852992714276,[],"[576, 360]",ColorTask,57.0,45.0,,,HRV,HRV_0128,2022-11-30 18:08:52
,wl-rdm,162,404173,0.0-8.45-0.45,1.0,163.0,,,,,,,[],,,,,,87.9,0.0,u,0.0,True,715.9000000059605,43.0,60.0,40.0,False,,221.92299783833926,[],"[576, 360]",ColorTask,58.0,46.0,,,HRV,HRV_0128,2022-11-30 18:08:52
,wl-rdm,163,405975,0.0-8.46-0.46,1.0,164.0,,,,,,,[],,,,,,87.9,0.0,u,0.0,True,528.1000000089407,32.0,60.0,40.0,False,,212.24763405612512,[],"[576, 360]",ColorTask,59.0,47.0,,,HRV,HRV_0128,2022-11-30 18:08:52
,wl-rdm,164,408076,0.0-8.47-0.47,1.0,165.0,,,,,,,[],,,,,,50.0,1.0,i,1.0,True,829.3000000119209,50.0,60.0,40.0,False,,200.74730152580455,[],"[576, 360]",ColorTask,60.0,48.0,,,HRV,HRV_0128,2022-11-30 18:08:52
,wl-rdm,165,410395,0.0-8.48-0.48,1.0,166.0,,,,,,,[],,,,,,87.9,0.0,u,0.0,True,874.0999999940395,53.0,60.0,40.0,False,,368.25187853351053,[],"[576, 360]",ColorTask,61.0,49.0,,,HRV,HRV_0128,2022-11-30 18:08:52
,wl-rdm,166,412748,0.0-8.49-0.49,1.0,167.0,,,,,,,[],,,,,,50.0,0.0,i,1.0,False,914.7999999970198,55.0,60.0,40.0,False,,361.81506303549133,[],"[576, 360]",ColorTask,60.0,50.0,,,HRV,HRV_0128,2022-11-30 18:08:52
,wl-rdm,167,415217,0.0-8.50-0.50,1.0,168.0,,,,,,,[],,,,,,53.2,0.0,u,0.0,True,1087.2999999970198,66.0,60.0,40.0,False,,301.6512543785724,[],"[576, 360]",ColorTask,61.0,51.0,,,HRV,HRV_0128,2022-11-30 18:08:52
,wl-rdm,168,417319,0.0-8.51-0.51,1.0,169.0,,,,,,,[],,,,,,50.0,1.0,i,1.0,True,785.7000000029802,48.0,60.0,40.0,False,,243.93053727726277,[],"[576, 360]",ColorTask,62.0,52.0,,,HRV,HRV_0128,2022-11-30 18:08:52
,wl-rdm,169,419488,0.0-8.52-0.52,1.0,170.0,,,,,,,[],,,,,,53.2,1.0,i,1.0,True,844.0999999940395,51.0,60.0,40.0,False,,263.66933515992355,[],"[576, 360]",ColorTask,63.0,53.0,,,HRV,HRV_0128,2022-11-30 18:08:52
,wl-rdm,170,421674,0.0-8.53-0.53,1.0,171.0,,,,,,,[],,,,,,73.6,0.0,u,0.0,True,767.6000000089407,47.0,60.0,40.0,False,,349.86606100548704,[],"[576, 360]",ColorTask,64.0,54.0,,,HRV,HRV_0128,2022-11-30 18:08:52
,wl-rdm,171,423793,0.0-8.54-0.54,1.0,172.0,,,,,,,[],,,,,,56.4,1.0,i,1.0,True,821.4000000059605,50.0,60.0,40.0,False,,232.38366017568376,[],"[576, 360]",ColorTask,65.0,55.0,,,HRV,HRV_0128,2022-11-30 18:08:52
,wl-rdm,172,426278,0.0-8.55-0.55,1.0,173.0,,,,,,,[],,,,,,50.0,0.0,u,0.0,True,1217.5999999940395,73.0,60.0,40.0,False,,200.89685416139844,[],"[576, 360]",ColorTask,66.0,56.0,,,HRV,HRV_0128,2022-11-30 18:08:52
,wl-rdm,173,428430,0.0-8.56-0.56,1.0,174.0,,,,,,,[],,,,,,62.5,1.0,i,1.0,True,758.7000000029802,46.0,60.0,40.0,False,,329.1176283199192,[],"[576, 360]",ColorTask,67.0,57.0,,,HRV,HRV_0128,2022-11-30 18:08:52
,wl-rdm,174,430516,0.0-8.57-0.57,1.0,175.0,,,,,,,[],,,,,,62.5,1.0,i,1.0,True,798.0,48.0,60.0,40.0,False,,232.51720235658846,[],"[576, 360]",ColorTask,68.0,58.0,,,HRV,HRV_0128,2022-11-30 18:08:52
,wl-rdm,175,432801,0.0-8.58-0.58,1.0,176.0,,,,,,,[],,,,,,73.6,1.0,i,1.0,True,843.1999999880791,51.0,60.0,40.0,False,,376.3057118704721,[],"[576, 360]",ColorTask,69.0,59.0,,,HRV,HRV_0128,2022-11-30 18:08:52
,wl-rdm,176,435003,0.0-8.59-0.59,1.0,177.0,,,,,,,[],,,,,,53.2,1.0,u,0.0,False,818.9000000059605,50.0,60.0,40.0,False,,303.72697799615156,[],"[576, 360]",ColorTask,68.0,60.0,,,HRV,HRV_0128,2022-11-30 18:08:52
,wl-rdm,177,437055,0.0-8.60-0.60,1.0,178.0,,,,,,,[],,,,,,87.9,0.0,u,0.0,True,669.1000000089407,41.0,60.0,40.0,False,,311.90195099753987,[],"[576, 360]",ColorTask,69.0,61.0,,,HRV,HRV_0128,2022-11-30 18:08:52
,wl-rdm,178,439341,0.0-8.61-0.61,1.0,179.0,,,,,,,[],,,,,,53.2,0.0,i,1.0,False,946.0,57.0,60.0,40.0,False,,281.52147571982556,[],"[576, 360]",ColorTask,68.0,62.0,,,HRV,HRV_0128,2022-11-30 18:08:52
,wl-rdm,179,441510,0.0-8.62-0.62,1.0,180.0,,,,,,,[],,,,,,53.2,0.0,i,1.0,False,757.2999999970198,46.0,60.0,40.0,False,,342.3396009210966,[],"[576, 360]",ColorTask,67.0,63.0,,,HRV,HRV_0128,2022-11-30 18:08:52
,wl-rdm,180,443562,0.0-8.63-0.63,1.0,181.0,,,,,,,[],,,,,,73.6,1.0,i,1.0,True,587.0999999940395,36.0,60.0,40.0,False,,393.09996846426617,[],"[576, 360]",ColorTask,68.0,64.0,,,HRV,HRV_0128,2022-11-30 18:08:52
,wl-rdm,181,445564,0.0-8.64-0.64,1.0,182.0,,,,,,,[],,,,,,62.5,0.0,u,0.0,True,708.1000000089407,43.0,60.0,40.0,False,,231.2141541895064,[],"[576, 360]",ColorTask,69.0,65.0,,,HRV,HRV_0128,2022-11-30 18:08:52
,wl-rdm,182,447549,0.0-8.65-0.65,1.0,183.0,,,,,,,[],,,,,,62.5,0.0,u,0.0,True,540.2999999970198,33.0,60.0,40.0,False,,367.92717854557947,[],"[576, 360]",ColorTask,70.0,66.0,,,HRV,HRV_0128,2022-11-30 18:08:52
,wl-rdm,183,450052,0.0-8.66-0.66,1.0,184.0,,,,,,,[],,,,,,50.0,0.0,i,1.0,False,1194.3999999910593,72.0,60.0,40.0,False,,243.30018301667872,[],"[576, 360]",ColorTask,69.0,67.0,,,HRV,HRV_0128,2022-11-30 18:08:52
,wl-rdm,184,452071,0.0-8.67-0.67,1.0,185.0,,,,,,,[],,,,,,73.6,0.0,u,0.0,True,634.5999999940395,39.0,60.0,40.0,False,,303.9651563258991,[],"[576, 360]",ColorTask,70.0,68.0,,,HRV,HRV_0128,2022-11-30 18:08:52
,wl-rdm,185,454489,0.0-8.68-0.68,1.0,186.0,,,,,,,[],,,,,,62.5,1.0,i,1.0,True,973.3999999910593,59.0,60.0,40.0,False,,382.7916348169049,[],"[576, 360]",ColorTask,71.0,69.0,,,HRV,HRV_0128,2022-11-30 18:08:52
,wl-rdm,186,456508,0.0-8.69-0.69,1.0,187.0,,,,,,,[],,,,,,50.0,0.0,i,1.0,False,668.6999999880791,41.0,60.0,40.0,False,,270.34593252911975,[],"[576, 360]",ColorTask,70.0,70.0,,,HRV,HRV_0128,2022-11-30 18:08:52
,wl-rdm,187,458644,0.0-8.70-0.70,1.0,188.0,,,,,,,[],,,,,,73.6,0.0,u,0.0,True,842.8000000119209,51.0,60.0,40.0,False,,217.53848423685008,[],"[576, 360]",ColorTask,71.0,71.0,,,HRV,HRV_0128,2022-11-30 18:08:52
,wl-rdm,188,460929,0.0-8.71-0.71,1.0,189.0,,,,,,,[],,,,,,56.4,1.0,i,1.0,True,992.7999999970198,60.0,60.0,40.0,False,,230.03060006386812,[],"[576, 360]",ColorTask,72.0,72.0,,,HRV,HRV_0128,2022-11-30 18:08:52
,wl-rdm,189,463031,0.0-8.72-0.72,1.0,190.0,,,,,,,[],,,,,,53.2,1.0,i,1.0,True,672.2999999970198,41.0,60.0,40.0,False,,366.1202750480898,[],"[576, 360]",ColorTask,73.0,73.0,,,HRV,HRV_0128,2022-11-30 18:08:52
,wl-rdm,190,465317,0.0-8.73-0.73,1.0,191.0,,,,,,,[],,,,,,56.4,0.0,i,1.0,False,851.4000000059605,52.0,60.0,40.0,False,,354.3404073195257,[],"[576, 360]",ColorTask,72.0,74.0,,,HRV,HRV_0128,2022-11-30 18:08:52
,wl-rdm,191,467636,0.0-8.74-0.74,1.0,192.0,,,,,,,[],,,,,,87.9,1.0,i,1.0,True,969.7000000029802,59.0,60.0,40.0,False,,281.39647053765395,[],"[576, 360]",ColorTask,73.0,75.0,,,HRV,HRV_0128,2022-11-30 18:08:52
,wl-rdm,192,469571,0.0-8.75-0.75,1.0,193.0,,,,,,,[],,,,,,87.9,1.0,i,1.0,True,578.5,35.0,60.0,40.0,False,,296.72482173924254,[],"[576, 360]",ColorTask,74.0,76.0,,,HRV,HRV_0128,2022-11-30 18:08:52
,wl-rdm,193,472175,0.0-8.76-0.76,1.0,194.0,,,,,,,[],,,,,,62.5,0.0,i,1.0,False,1272.4000000059605,77.0,60.0,40.0,False,,266.748136611202,[],"[576, 360]",ColorTask,73.0,77.0,,,HRV,HRV_0128,2022-11-30 18:08:52
,wl-rdm,194,474277,0.0-8.77-0.77,1.0,195.0,,,,,,,[],,,,,,56.4,1.0,i,1.0,True,793.0000000149012,48.0,60.0,40.0,False,,244.5754700727466,[],"[576, 360]",ColorTask,74.0,78.0,,,HRV,HRV_0128,2022-11-30 18:08:52
,wl-rdm,195,476662,0.0-8.78-0.78,1.0,196.0,,,,,,,[],,,,,,53.2,1.0,u,0.0,False,965.7999999970198,58.0,60.0,40.0,False,,357.0033860607368,[],"[576, 360]",ColorTask,73.0,79.0,,,HRV,HRV_0128,2022-11-30 18:08:52
,wl-rdm,196,478681,0.0-8.79-0.79,1.0,197.0,,,,,,,[],,,,,,87.9,1.0,i,1.0,True,733.4999999850988,44.0,60.0,40.0,False,,227.15358247680084,[],"[576, 360]",ColorTask,74.0,80.0,,,HRV,HRV_0128,2022-11-30 18:08:52
,wl-rdm,197,480917,0.0-8.80-0.80,1.0,198.0,,,,,,,[],,,,,,56.4,1.0,i,1.0,True,916.4999999850988,55.0,60.0,40.0,False,,262.4164907722656,[],"[576, 360]",ColorTask,75.0,81.0,,,HRV,HRV_0128,2022-11-30 18:08:52
,wl-rdm,198,482985,0.0-8.81-0.81,1.0,199.0,,,,,,,[],,,,,,62.5,1.0,i,1.0,True,726.2999999970198,44.0,60.0,40.0,False,,274.3677435020894,[],"[576, 360]",ColorTask,76.0,82.0,,,HRV,HRV_0128,2022-11-30 18:08:52
,wl-rdm,199,484987,0.0-8.82-0.82,1.0,200.0,,,,,,,[],,,,,,50.0,0.0,i,1.0,False,627.8999999910593,38.0,60.0,40.0,False,,305.5610586898225,[],"[576, 360]",ColorTask,75.0,83.0,,,HRV,HRV_0128,2022-11-30 18:08:52
,wl-rdm,200,487089,0.0-8.83-0.83,1.0,201.0,,,,,,,[],,,,,,62.5,0.0,i,1.0,False,751.5999999940395,46.0,60.0,40.0,False,,273.01718965705527,[],"[576, 360]",ColorTask,74.0,84.0,,,HRV,HRV_0128,2022-11-30 18:08:52
,wl-rdm,201,489442,0.0-8.84-0.84,1.0,202.0,,,,,,,[],,,,,,73.6,1.0,i,1.0,True,1014.5,61.0,60.0,40.0,False,,272.39340643001674,[],"[576, 360]",ColorTask,75.0,85.0,,,HRV,HRV_0128,2022-11-30 18:08:52
,wl-rdm,202,491711,0.0-8.85-0.85,1.0,203.0,,,,,,,[],,,,,,56.4,1.0,u,0.0,False,996.9000000059605,60.0,60.0,40.0,False,,210.05282251111137,[],"[576, 360]",ColorTask,74.0,86.0,,,HRV,HRV_0128,2022-11-30 18:08:52
,wl-rdm,203,493846,0.0-8.86-0.86,1.0,204.0,,,,,,,[],,,,,,73.6,0.0,u,0.0,True,678.5999999940395,41.0,60.0,40.0,False,,397.44844210925385,[],"[576, 360]",ColorTask,75.0,87.0,,,HRV,HRV_0128,2022-11-30 18:08:52
,wl-rdm,204,496265,0.0-8.87-0.87,1.0,205.0,,,,,,,[],,,,,,50.0,0.0,u,0.0,True,978.5999999940395,59.0,60.0,40.0,False,,379.633718716654,[],"[576, 360]",ColorTask,76.0,88.0,,,HRV,HRV_0128,2022-11-30 18:08:52
,wl-rdm,205,498551,0.0-8.88-0.88,1.0,206.0,,,,,,,[],,,,,,87.9,0.0,u,0.0,True,852.6000000089407,52.0,60.0,40.0,False,,341.8348193929128,[],"[576, 360]",ColorTask,77.0,89.0,,,HRV,HRV_0128,2022-11-30 18:08:52
,wl-rdm,206,500820,0.0-8.89-0.89,1.0,207.0,,,,,,,[],,,,,,56.4,0.0,i,1.0,False,900.0999999940395,54.0,60.0,40.0,False,,313.690989178627,[],"[576, 360]",ColorTask,76.0,90.0,,,HRV,HRV_0128,2022-11-30 18:08:52
,wl-rdm,207,503389,0.0-8.90-0.90,1.0,208.0,,,,,,,[],,,,,,62.5,0.0,u,0.0,True,1137.9999999850988,69.0,60.0,40.0,False,,336.23348211022267,[],"[576, 360]",ColorTask,77.0,91.0,,,HRV,HRV_0128,2022-11-30 18:08:52
,wl-rdm,208,505474,0.0-8.91-0.91,1.0,209.0,,,,,,,[],,,,,,53.2,0.0,i,1.0,False,786.4000000059605,48.0,60.0,40.0,False,,218.05877191015864,[],"[576, 360]",ColorTask,76.0,92.0,,,HRV,HRV_0128,2022-11-30 18:08:52
,wl-rdm,209,506959,0.0-8.92-0.92,1.0,210.0,,,,,,,[],,,,,,73.6,0.0,u,0.0,True,111.79999999701977,7.0,60.0,40.0,False,,309.09938611766154,[],"[576, 360]",ColorTask,77.0,93.0,,,HRV,HRV_0128,2022-11-30 18:08:52
,wl-rdm,210,509528,0.0-8.93-0.93,1.0,211.0,,,,,,,[],,,,,,62.5,1.0,u,0.0,False,1240.2000000178814,75.0,60.0,40.0,False,,258.597460738163,[],"[576, 360]",ColorTask,76.0,94.0,,,HRV,HRV_0128,2022-11-30 18:08:52
,wl-rdm,211,511546,0.0-8.94-0.94,1.0,212.0,,,,,,,[],,,,,,50.0,1.0,u,0.0,False,653.0,40.0,60.0,40.0,False,,273.27345889971616,[],"[576, 360]",ColorTask,75.0,95.0,,,HRV,HRV_0128,2022-11-30 18:08:52
,wl-rdm,212,514000,0.0-8.95-0.95,1.0,213.0,,,,,,,[],,,,,,73.6,0.0,u,0.0,True,1007.3999999910593,61.0,60.0,40.0,False,,382.2559190651508,[],"[576, 360]",ColorTask,76.0,96.0,,,HRV,HRV_0128,2022-11-30 18:08:52
,wl-rdm,213,516085,0.0-8.96-0.96,1.0,214.0,,,,,,,[],,,,,,53.2,1.0,i,1.0,True,769.2999999970198,47.0,60.0,40.0,False,,238.11700380233157,[],"[576, 360]",ColorTask,77.0,97.0,,,HRV,HRV_0128,2022-11-30 18:08:52
,wl-rdm,214,518354,0.0-8.97-0.97,1.0,215.0,,,,,,,[],,,,,,62.5,1.0,i,1.0,True,910.2999999970198,55.0,60.0,40.0,False,,292.37049263239965,[],"[576, 360]",ColorTask,78.0,98.0,,,HRV,HRV_0128,2022-11-30 18:08:52
,wl-rdm,215,520541,0.0-8.98-0.98,1.0,216.0,,,,,,,[],,,,,,87.9,0.0,u,0.0,True,913.8000000119209,55.0,60.0,40.0,False,,209.69367792583787,[],"[576, 360]",ColorTask,79.0,99.0,,,HRV,HRV_0128,2022-11-30 18:08:52
,wl-rdm,216,522725,0.0-8.99-0.99,1.0,217.0,,,,,,,[],,,,,,73.6,1.0,i,1.0,True,819.3999999910593,50.0,60.0,40.0,False,,298.52666480893305,[],"[576, 360]",ColorTask,80.0,100.0,,,HRV,HRV_0128,2022-11-30 18:08:52
,wl-rdm,217,524760,0.0-8.100-0.100,1.0,218.0,,,,,,,[],,,,,,73.6,1.0,i,1.0,True,699.9000000059605,42.0,60.0,40.0,False,,275.97347903616503,[],"[576, 360]",ColorTask,81.0,101.0,,,HRV,HRV_0128,2022-11-30 18:08:52
,wl-rdm,218,527179,0.0-8.101-0.101,1.0,219.0,,,,,,,[],,,,,,50.0,1.0,u,0.0,False,1036.0,63.0,60.0,40.0,False,,314.0709771940602,[],"[576, 360]",ColorTask,80.0,102.0,,,HRV,HRV_0128,2022-11-30 18:08:52
,wl-rdm,219,529048,0.0-8.102-0.102,1.0,220.0,,,,,,,[],,,,,,53.2,1.0,i,1.0,True,483.29999999701977,29.0,60.0,40.0,False,,321.5181776439832,[],"[576, 360]",ColorTask,81.0,103.0,,,HRV,HRV_0128,2022-11-30 18:08:52
,wl-rdm,220,531349,0.0-8.103-0.103,1.0,221.0,,,,,,,[],,,,,,53.2,1.0,u,0.0,False,979.2999999970198,59.0,60.0,40.0,False,,236.00973017334948,[],"[576, 360]",ColorTask,80.0,104.0,,,HRV,HRV_0128,2022-11-30 18:08:52
,wl-rdm,221,533402,0.0-8.104-0.104,1.0,222.0,,,,,,,[],,,,,,62.5,1.0,u,0.0,False,600.3000000119209,36.0,60.0,40.0,False,,392.29658491707164,[],"[576, 360]",ColorTask,79.0,105.0,,,HRV,HRV_0128,2022-11-30 18:08:52
,wl-rdm,222,535520,0.0-8.105-0.105,1.0,223.0,,,,,,,[],,,,,,87.9,0.0,i,1.0,False,776.5,47.0,60.0,40.0,False,,277.7923392245208,[],"[576, 360]",ColorTask,78.0,106.0,,,HRV,HRV_0128,2022-11-30 18:08:52
,wl-rdm,223,537439,0.0-8.106-0.106,1.0,224.0,,,,,,,[],,,,,,87.9,1.0,i,1.0,True,646.3999999910593,39.0,60.0,40.0,False,,206.87806227232048,[],"[576, 360]",ColorTask,79.0,107.0,,,HRV,HRV_0128,2022-11-30 18:08:52
,wl-rdm,224,539808,0.0-8.107-0.107,1.0,225.0,,,,,,,[],,,,,,50.0,0.0,u,0.0,True,1090.8999999910593,66.0,60.0,40.0,False,,208.46944501674298,[],"[576, 360]",ColorTask,80.0,108.0,,,HRV,HRV_0128,2022-11-30 18:08:52
,wl-html-button-response,225,543161,0.0-9.0-0.0,,,,,,,,,,3346.3999999910593,,0,,,,,,,,,,,,,,,,,,,,<h3>End of this session. Thank you!</h3><br>,['Close window'],HRV,HRV_0128,2022-11-30 18:08:52
