trialN,stimuli,trialStartTime,trialStartTime_UNIX,stimulus1,stimulus2,stimulus1Bid,stimulus2Bid,delta,selected,rt,rt_UNIX,rt_perfnow,receivedResponse,rsp,trialEndTime,trialDuration,trialEndTime_UNIX,trialDuration_UNIX,exp,subjectId,date
0,"[{'imgObject': {}, 'id': 'grilled chicken strips', 'src': '/static/foodstim60/grilled chicken strips.jpg', 'key': 'u', 'origWidth': 410, 'origHeight': 411, 'width': 410, 'height': 411, 'widthPercent': 0.45, 'rescaleHeight': False, 'trialN': 0, 'loaded': True, 'loadedTime': 2368.5, 'positionName': 'LEFT', 'positionCoords': [142.96, 154.5], 'bid': 9.06}, {'imgObject': {}, 'id': 'yogurt no spoon', 'src': '/static/foodstim60/yogurt no spoon.jpg', 'key': 'i', 'origWidth': 411, 'origHeight': 410, 'width': 411, 'height': 410, 'widthPercent': 0.45, 'rescaleHeight': False, 'trialN': 0, 'loaded': True, 'loadedTime': 2397.5999999940395, 'positionName': 'RIGHT', 'positionCoords': [599.04, 155], 'bid': 8.290000000000001}]",2940.5,1669830103337,grilled chicken strips,yogurt no spoon,9.06,8.290000000000001,-0.7699999999999996,grilled chicken strips,1050.2999999970198,1051,1051.0999999940395,True,u,4494.899999991059,1554.3999999910593,1669830104892,1555,HRV,HRV_0128,2022-11-30 17:46:23
1,"[{'imgObject': {}, 'id': 'salmon', 'src': '/static/foodstim60/salmon.jpg', 'key': 'u', 'origWidth': 410, 'origHeight': 409, 'width': 410, 'height': 409, 'widthPercent': 0.45, 'rescaleHeight': False, 'trialN': 1, 'loaded': True, 'loadedTime': 2409.3999999910593, 'positionName': 'LEFT', 'positionCoords': [142.96, 155.5], 'bid': 0}, {'imgObject': {}, 'id': 'fried eggs', 'src': '/static/foodstim60/fried eggs.jpg', 'key': 'i', 'origWidth': 410, 'origHeight': 410, 'width': 410, 'height': 410, 'widthPercent': 0.45, 'rescaleHeight': False, 'trialN': 1, 'loaded': True, 'loadedTime': 2402.5, 'positionName': 'RIGHT', 'positionCoords': [599.04, 155], 'bid': 3.88}]",4495.20000000298,1669830104892,salmon,fried eggs,0.0,3.88,3.88,fried eggs,915.8999999910593,916,916.5,True,i,5919.29999999702,1424.0999999940395,1669830106316,1424,HRV,HRV_0128,2022-11-30 17:46:23
2,"[{'imgObject': {}, 'id': 'banana', 'src': '/static/foodstim60/banana.jpg', 'key': 'u', 'origWidth': 410, 'origHeight': 410, 'width': 410, 'height': 410, 'widthPercent': 0.45, 'rescaleHeight': False, 'trialN': 2, 'loaded': True, 'loadedTime': 2394.8999999910593, 'positionName': 'LEFT', 'positionCoords': [142.96, 155], 'bid': 7.84}, {'imgObject': {}, 'id': 'turkeysandwich', 'src': '/static/foodstim60/turkeysandwich.jpg', 'key': 'i', 'origWidth': 409, 'origHeight': 409, 'width': 409, 'height': 409, 'widthPercent': 0.45, 'rescaleHeight': False, 'trialN': 2, 'loaded': True, 'loadedTime': 2385.8999999910593, 'positionName': 'RIGHT', 'positionCoords': [599.04, 155.5], 'bid': 9.37}]",5919.70000000298,1669830106316,banana,turkeysandwich,7.84,9.37,1.5299999999999994,turkeysandwich,883.5,884,884.0999999940395,True,i,7310.5999999940395,1390.8999999910593,1669830107707,1391,HRV,HRV_0128,2022-11-30 17:46:23
3,"[{'imgObject': {}, 'id': 'bagel and cc', 'src': '/static/foodstim60/bagel and cc.jpg', 'key': 'u', 'origWidth': 410, 'origHeight': 410, 'width': 410, 'height': 410, 'widthPercent': 0.45, 'rescaleHeight': False, 'trialN': 3, 'loaded': True, 'loadedTime': 2403.5, 'positionName': 'LEFT', 'positionCoords': [142.96, 155], 'bid': 9.65}, {'imgObject': {}, 'id': 'corn cob', 'src': '/static/foodstim60/corn cob.jpg', 'key': 'i', 'origWidth': 411, 'origHeight': 411, 'width': 411, 'height': 411, 'widthPercent': 0.45, 'rescaleHeight': False, 'trialN': 3, 'loaded': True, 'loadedTime': 2476.2000000029802, 'positionName': 'RIGHT', 'positionCoords': [599.04, 154.5], 'bid': 9.21}]",7310.899999991059,1669830107707,bagel and cc,corn cob,9.65,9.21,-0.4399999999999995,bagel and cc,756.7000000029802,757,756.8000000119209,True,u,8574.59999999404,1263.7000000029802,1669830108971,1264,HRV,HRV_0128,2022-11-30 17:46:23
4,"[{'imgObject': {}, 'id': 'ice cream sundae 002', 'src': '/static/foodstim60/ice cream sundae 002.jpg', 'key': 'u', 'origWidth': 409, 'origHeight': 409, 'width': 409, 'height': 409, 'widthPercent': 0.45, 'rescaleHeight': False, 'trialN': 4, 'loaded': True, 'loadedTime': 2401.2000000029802, 'positionName': 'LEFT', 'positionCoords': [143.96, 155.5], 'bid': 8.75}, {'imgObject': {}, 'id': 'baked potato', 'src': '/static/foodstim60/baked potato.jpg', 'key': 'i', 'origWidth': 409, 'origHeight': 410, 'width': 409, 'height': 410, 'widthPercent': 0.45, 'rescaleHeight': False, 'trialN': 4, 'loaded': True, 'loadedTime': 2438.7999999970198, 'positionName': 'RIGHT', 'positionCoords': [599.04, 155], 'bid': 8.99}]",8575.0,1669830108971,ice cream sundae 002,baked potato,8.75,8.99,0.2400000000000002,baked potato,1483.8999999910593,1485,1484.7000000029802,True,i,10566.59999999404,1991.5999999940395,1669830110963,1992,HRV,HRV_0128,2022-11-30 17:46:23
5,"[{'imgObject': {}, 'id': 'raspberries', 'src': '/static/foodstim60/raspberries.jpg', 'key': 'u', 'origWidth': 411, 'origHeight': 411, 'width': 411, 'height': 411, 'widthPercent': 0.45, 'rescaleHeight': False, 'trialN': 5, 'loaded': True, 'loadedTime': 2424.3999999910593, 'positionName': 'LEFT', 'positionCoords': [141.96, 154.5], 'bid': 9.04}, {'imgObject': {}, 'id': 'burger', 'src': '/static/foodstim60/burger.jpg', 'key': 'i', 'origWidth': 409, 'origHeight': 409, 'width': 409, 'height': 409, 'widthPercent': 0.45, 'rescaleHeight': False, 'trialN': 5, 'loaded': True, 'loadedTime': 2436.8999999910593, 'positionName': 'RIGHT', 'positionCoords': [599.04, 155.5], 'bid': 8.81}]",10567.0,1669830110964,raspberries,burger,9.04,8.81,-0.22999999999999865,raspberries,920.7999999970198,921,921.2999999970198,True,u,11991.0,1424.0,1669830112388,1424,HRV,HRV_0128,2022-11-30 17:46:23
6,"[{'imgObject': {}, 'id': 'omelette', 'src': '/static/foodstim60/omelette.jpg', 'key': 'u', 'origWidth': 410, 'origHeight': 409, 'width': 410, 'height': 409, 'widthPercent': 0.45, 'rescaleHeight': False, 'trialN': 6, 'loaded': True, 'loadedTime': 2451.3999999910593, 'positionName': 'LEFT', 'positionCoords': [142.96, 155.5], 'bid': 7.390000000000001}, {'imgObject': {}, 'id': 'corn cob', 'src': '/static/foodstim60/corn cob.jpg', 'key': 'i', 'origWidth': 411, 'origHeight': 411, 'width': 411, 'height': 411, 'widthPercent': 0.45, 'rescaleHeight': False, 'trialN': 6, 'loaded': True, 'loadedTime': 2476.8999999910593, 'positionName': 'RIGHT', 'positionCoords': [599.04, 154.5], 'bid': 9.21}]",11991.39999999106,1669830112388,omelette,corn cob,7.390000000000001,9.21,1.8200000000000003,omelette,827.4000000059605,828,828.0,True,u,13326.59999999404,1335.2000000029802,1669830113723,1335,HRV,HRV_0128,2022-11-30 17:46:23
7,"[{'imgObject': {}, 'id': 'cantaloupe', 'src': '/static/foodstim60/cantaloupe.jpg', 'key': 'u', 'origWidth': 409, 'origHeight': 409, 'width': 409, 'height': 409, 'widthPercent': 0.45, 'rescaleHeight': False, 'trialN': 7, 'loaded': True, 'loadedTime': 2449.3999999910593, 'positionName': 'LEFT', 'positionCoords': [143.96, 155.5], 'bid': 8.69}, {'imgObject': {}, 'id': 'strawberries', 'src': '/static/foodstim60/strawberries.jpg', 'key': 'i', 'origWidth': 410, 'origHeight': 410, 'width': 410, 'height': 410, 'widthPercent': 0.45, 'rescaleHeight': False, 'trialN': 7, 'loaded': True, 'loadedTime': 2450.2000000029802, 'positionName': 'RIGHT', 'positionCoords': [599.04, 155], 'bid': 8.73}]",13327.20000000298,1669830113724,cantaloupe,strawberries,8.69,8.73,0.040000000000000924,strawberries,832.5,833,833.1999999880791,True,i,14663.59999999404,1336.3999999910593,1669830115060,1336,HRV,HRV_0128,2022-11-30 17:46:23
8,"[{'imgObject': {}, 'id': 'apple slices', 'src': '/static/foodstim60/apple slices.jpg', 'key': 'u', 'origWidth': 409, 'origHeight': 410, 'width': 409, 'height': 410, 'widthPercent': 0.45, 'rescaleHeight': False, 'trialN': 8, 'loaded': True, 'loadedTime': 2451.7999999970198, 'positionName': 'LEFT', 'positionCoords': [143.96, 155], 'bid': 9.16}, {'imgObject': {}, 'id': 'eggsalad', 'src': '/static/foodstim60/eggsalad.jpg', 'key': 'i', 'origWidth': 410, 'origHeight': 409, 'width': 410, 'height': 409, 'widthPercent': 0.45, 'rescaleHeight': False, 'trialN': 8, 'loaded': True, 'loadedTime': 2441.8999999910593, 'positionName': 'RIGHT', 'positionCoords': [599.04, 155.5], 'bid': 6.66}]",14663.70000000298,1669830115060,apple slices,eggsalad,9.16,6.66,-2.5,apple slices,1011.8999999910593,1012,1012.1999999880791,True,u,16182.70000000298,1519.0,1669830116579,1519,HRV,HRV_0128,2022-11-30 17:46:23
9,"[{'imgObject': {}, 'id': 'rigatoni', 'src': '/static/foodstim60/rigatoni.jpg', 'key': 'u', 'origWidth': 411, 'origHeight': 411, 'width': 411, 'height': 411, 'widthPercent': 0.45, 'rescaleHeight': False, 'trialN': 9, 'loaded': True, 'loadedTime': 2704.2000000029802, 'positionName': 'LEFT', 'positionCoords': [141.96, 154.5], 'bid': 6.63}, {'imgObject': {}, 'id': 'orange slices', 'src': '/static/foodstim60/orange slices.jpg', 'key': 'i', 'origWidth': 409, 'origHeight': 410, 'width': 409, 'height': 410, 'widthPercent': 0.45, 'rescaleHeight': False, 'trialN': 9, 'loaded': True, 'loadedTime': 2459.0999999940395, 'positionName': 'RIGHT', 'positionCoords': [599.04, 155], 'bid': 6.18}]",16183.0,1669830116580,rigatoni,orange slices,6.63,6.18,-0.4500000000000002,rigatoni,957.5,958,958.0,True,u,17646.59999999404,1463.5999999940395,1669830118043,1463,HRV,HRV_0128,2022-11-30 17:46:23
10,"[{'imgObject': {}, 'id': 'strawberries', 'src': '/static/foodstim60/strawberries.jpg', 'key': 'u', 'origWidth': 410, 'origHeight': 410, 'width': 410, 'height': 410, 'widthPercent': 0.45, 'rescaleHeight': False, 'trialN': 10, 'loaded': True, 'loadedTime': 2450.3999999910593, 'positionName': 'LEFT', 'positionCoords': [142.96, 155], 'bid': 8.73}, {'imgObject': {}, 'id': 'chicken nuggets2', 'src': '/static/foodstim60/chicken nuggets2.jpg', 'key': 'i', 'origWidth': 410, 'origHeight': 409, 'width': 410, 'height': 409, 'widthPercent': 0.45, 'rescaleHeight': False, 'trialN': 10, 'loaded': True, 'loadedTime': 2456, 'positionName': 'RIGHT', 'positionCoords': [599.04, 155.5], 'bid': 4.46}]",17646.79999999702,1669830118043,strawberries,chicken nuggets2,8.73,4.46,-4.2700000000000005,strawberries,648.2000000029802,649,648.5,True,u,18798.59999999404,1151.7999999970198,1669830119195,1152,HRV,HRV_0128,2022-11-30 17:46:23
11,"[{'imgObject': {}, 'id': 'olives', 'src': '/static/foodstim60/olives.jpg', 'key': 'u', 'origWidth': 410, 'origHeight': 410, 'width': 410, 'height': 410, 'widthPercent': 0.45, 'rescaleHeight': False, 'trialN': 11, 'loaded': True, 'loadedTime': 2474.2999999970198, 'positionName': 'LEFT', 'positionCoords': [142.96, 155], 'bid': 9.32}, {'imgObject': {}, 'id': 'blackbeanswithrice', 'src': '/static/foodstim60/blackbeanswithrice.jpg', 'key': 'i', 'origWidth': 410, 'origHeight': 410, 'width': 410, 'height': 410, 'widthPercent': 0.45, 'rescaleHeight': False, 'trialN': 11, 'loaded': True, 'loadedTime': 2511.3999999910593, 'positionName': 'RIGHT', 'positionCoords': [599.04, 155], 'bid': 9.49}]",18798.89999999106,1669830119195,olives,blackbeanswithrice,9.32,9.49,0.16999999999999993,olives,748,749,748.4000000059605,True,u,20055.5,1256.6000000089407,1669830120453,1258,HRV,HRV_0128,2022-11-30 17:46:23
12,"[{'imgObject': {}, 'id': 'Tribe humus pita', 'src': '/static/foodstim60/Tribe humus pita.jpg', 'key': 'u', 'origWidth': 411, 'origHeight': 411, 'width': 411, 'height': 411, 'widthPercent': 0.45, 'rescaleHeight': False, 'trialN': 12, 'loaded': True, 'loadedTime': 2499.5999999940395, 'positionName': 'LEFT', 'positionCoords': [141.96, 154.5], 'bid': 9.18}, {'imgObject': {}, 'id': 'turkey sandwich', 'src': '/static/foodstim60/turkey sandwich.jpg', 'key': 'i', 'origWidth': 409, 'origHeight': 409, 'width': 409, 'height': 409, 'widthPercent': 0.45, 'rescaleHeight': False, 'trialN': 12, 'loaded': True, 'loadedTime': 2484.5999999940395, 'positionName': 'RIGHT', 'positionCoords': [599.04, 155.5], 'bid': 9.58}]",20055.79999999702,1669830120453,Tribe humus pita,turkey sandwich,9.18,9.58,0.40000000000000036,turkey sandwich,966.7999999970198,967,967.2000000029802,True,i,21526.39999999106,1470.5999999940395,1669830121923,1470,HRV,HRV_0128,2022-11-30 17:46:23
13,"[{'imgObject': {}, 'id': 'cocktailshrimp', 'src': '/static/foodstim60/cocktailshrimp.jpg', 'key': 'u', 'origWidth': 410, 'origHeight': 410, 'width': 410, 'height': 410, 'widthPercent': 0.45, 'rescaleHeight': False, 'trialN': 13, 'loaded': True, 'loadedTime': 2483.5999999940395, 'positionName': 'LEFT', 'positionCoords': [142.96, 155], 'bid': 0.1}, {'imgObject': {}, 'id': 'hashbrowns', 'src': '/static/foodstim60/hashbrowns.jpg', 'key': 'i', 'origWidth': 411, 'origHeight': 410, 'width': 411, 'height': 410, 'widthPercent': 0.45, 'rescaleHeight': False, 'trialN': 13, 'loaded': True, 'loadedTime': 2517.5999999940395, 'positionName': 'RIGHT', 'positionCoords': [599.04, 155], 'bid': 5.46}]",21526.70000000298,1669830121924,cocktailshrimp,hashbrowns,0.1,5.46,5.36,hashbrowns,1063,1063,1063.5999999940395,True,i,23094.09999999404,1567.3999999910593,1669830123491,1567,HRV,HRV_0128,2022-11-30 17:46:23
14,"[{'imgObject': {}, 'id': 'mac & cheese', 'src': '/static/foodstim60/mac & cheese.jpg', 'key': 'u', 'origWidth': 410, 'origHeight': 410, 'width': 410, 'height': 410, 'widthPercent': 0.45, 'rescaleHeight': False, 'trialN': 14, 'loaded': True, 'loadedTime': 2623.5999999940395, 'positionName': 'LEFT', 'positionCoords': [142.96, 155], 'bid': 4.86}, {'imgObject': {}, 'id': 'cherry tomato', 'src': '/static/foodstim60/cherry tomato.jpg', 'key': 'i', 'origWidth': 410, 'origHeight': 410, 'width': 410, 'height': 410, 'widthPercent': 0.45, 'rescaleHeight': False, 'trialN': 14, 'loaded': True, 'loadedTime': 2505.5999999940395, 'positionName': 'RIGHT', 'positionCoords': [599.04, 155], 'bid': 3.62}]",23094.5,1669830123491,mac & cheese,cherry tomato,4.86,3.62,-1.2400000000000002,mac & cheese,693.3999999910593,694,693.7999999970198,True,u,24295.79999999702,1201.2999999970198,1669830124693,1202,HRV,HRV_0128,2022-11-30 17:46:23
15,"[{'imgObject': {}, 'id': 'mashed potato', 'src': '/static/foodstim60/mashed potato.jpg', 'key': 'u', 'origWidth': 409, 'origHeight': 409, 'width': 409, 'height': 409, 'widthPercent': 0.45, 'rescaleHeight': False, 'trialN': 15, 'loaded': True, 'loadedTime': 2501.2000000029802, 'positionName': 'LEFT', 'positionCoords': [143.96, 155.5], 'bid': 8.26}, {'imgObject': {}, 'id': 'chickenfingers', 'src': '/static/foodstim60/chickenfingers.jpg', 'key': 'i', 'origWidth': 410, 'origHeight': 410, 'width': 410, 'height': 410, 'widthPercent': 0.45, 'rescaleHeight': False, 'trialN': 15, 'loaded': True, 'loadedTime': 2536.2999999970198, 'positionName': 'RIGHT', 'positionCoords': [599.04, 155], 'bid': 7.01}]",24296.0,1669830124693,mashed potato,chickenfingers,8.26,7.01,-1.25,mashed potato,836.7000000029802,837,837.2999999970198,True,u,25638.39999999106,1342.3999999910593,1669830126035,1342,HRV,HRV_0128,2022-11-30 17:46:23
16,"[{'imgObject': {}, 'id': 'baked potato', 'src': '/static/foodstim60/baked potato.jpg', 'key': 'u', 'origWidth': 409, 'origHeight': 410, 'width': 409, 'height': 410, 'widthPercent': 0.45, 'rescaleHeight': False, 'trialN': 16, 'loaded': True, 'loadedTime': 2438.5999999940395, 'positionName': 'LEFT', 'positionCoords': [143.96, 155], 'bid': 8.99}, {'imgObject': {}, 'id': 'popsicles', 'src': '/static/foodstim60/popsicles.jpg', 'key': 'i', 'origWidth': 410, 'origHeight': 410, 'width': 410, 'height': 410, 'widthPercent': 0.45, 'rescaleHeight': False, 'trialN': 16, 'loaded': True, 'loadedTime': 2545.5999999940395, 'positionName': 'RIGHT', 'positionCoords': [599.04, 155], 'bid': 9.58}]",25638.59999999404,1669830126036,baked potato,popsicles,8.99,9.58,0.5899999999999999,baked potato,1024,1024,1024.4000000059605,True,u,27166.70000000298,1528.1000000089407,1669830127564,1528,HRV,HRV_0128,2022-11-30 17:46:23
17,"[{'imgObject': {}, 'id': 'granola w milk', 'src': '/static/foodstim60/granola w milk.jpg', 'key': 'u', 'origWidth': 410, 'origHeight': 410, 'width': 410, 'height': 410, 'widthPercent': 0.45, 'rescaleHeight': False, 'trialN': 17, 'loaded': True, 'loadedTime': 2533.2000000029802, 'positionName': 'LEFT', 'positionCoords': [142.96, 155], 'bid': 8.14}, {'imgObject': {}, 'id': 'yogurt no spoon', 'src': '/static/foodstim60/yogurt no spoon.jpg', 'key': 'i', 'origWidth': 411, 'origHeight': 410, 'width': 411, 'height': 410, 'widthPercent': 0.45, 'rescaleHeight': False, 'trialN': 17, 'loaded': True, 'loadedTime': 2396.7000000029802, 'positionName': 'RIGHT', 'positionCoords': [599.04, 155], 'bid': 8.290000000000001}]",27166.89999999106,1669830127564,granola w milk,yogurt no spoon,8.14,8.290000000000001,0.15000000000000036,yogurt no spoon,861.9000000059605,862,862.4000000059605,True,i,28534.09999999404,1367.2000000029802,1669830128931,1367,HRV,HRV_0128,2022-11-30 17:46:23
18,"[{'imgObject': {}, 'id': 'kiwi', 'src': '/static/foodstim60/kiwi.jpg', 'key': 'u', 'origWidth': 410, 'origHeight': 410, 'width': 410, 'height': 410, 'widthPercent': 0.45, 'rescaleHeight': False, 'trialN': 18, 'loaded': True, 'loadedTime': 2580.2000000029802, 'positionName': 'LEFT', 'positionCoords': [142.96, 155], 'bid': 8.03}, {'imgObject': {}, 'id': 'popsicles', 'src': '/static/foodstim60/popsicles.jpg', 'key': 'i', 'origWidth': 410, 'origHeight': 410, 'width': 410, 'height': 410, 'widthPercent': 0.45, 'rescaleHeight': False, 'trialN': 18, 'loaded': True, 'loadedTime': 2545.5, 'positionName': 'RIGHT', 'positionCoords': [599.04, 155], 'bid': 9.58}]",28534.5,1669830128931,kiwi,popsicles,8.03,9.58,1.5500000000000007,popsicles,847.3999999910593,848,847.7000000029802,True,i,29887.5,1353.0,1669830130285,1354,HRV,HRV_0128,2022-11-30 17:46:23
19,"[{'imgObject': {}, 'id': 'banana', 'src': '/static/foodstim60/banana.jpg', 'key': 'u', 'origWidth': 410, 'origHeight': 410, 'width': 410, 'height': 410, 'widthPercent': 0.45, 'rescaleHeight': False, 'trialN': 19, 'loaded': True, 'loadedTime': 2393.7000000029802, 'positionName': 'LEFT', 'positionCoords': [142.96, 155], 'bid': 7.84}, {'imgObject': {}, 'id': 'kiwi', 'src': '/static/foodstim60/kiwi.jpg', 'key': 'i', 'origWidth': 410, 'origHeight': 410, 'width': 410, 'height': 410, 'widthPercent': 0.45, 'rescaleHeight': False, 'trialN': 19, 'loaded': True, 'loadedTime': 2580.5, 'positionName': 'RIGHT', 'positionCoords': [599.04, 155], 'bid': 8.03}]",29887.89999999106,1669830130285,banana,kiwi,7.84,8.03,0.1899999999999995,kiwi,1033.9000000059605,1034,1034.300000011921,True,i,31430.59999999404,1542.7000000029802,1669830131828,1543,HRV,HRV_0128,2022-11-30 17:46:23
20,"[{'imgObject': {}, 'id': 'turkey sandwich', 'src': '/static/foodstim60/turkey sandwich.jpg', 'key': 'u', 'origWidth': 409, 'origHeight': 409, 'width': 409, 'height': 409, 'widthPercent': 0.45, 'rescaleHeight': False, 'trialN': 20, 'loaded': True, 'loadedTime': 2494.5999999940395, 'positionName': 'LEFT', 'positionCoords': [143.96, 155.5], 'bid': 9.58}, {'imgObject': {}, 'id': 'granola w milk', 'src': '/static/foodstim60/granola w milk.jpg', 'key': 'i', 'origWidth': 410, 'origHeight': 410, 'width': 410, 'height': 410, 'widthPercent': 0.45, 'rescaleHeight': False, 'trialN': 20, 'loaded': True, 'loadedTime': 2533.5, 'positionName': 'RIGHT', 'positionCoords': [599.04, 155], 'bid': 8.14}]",31430.89999999106,1669830131828,turkey sandwich,granola w milk,9.58,8.14,-1.4399999999999995,turkey sandwich,669.9000000059605,670,670.4000000059605,True,u,32607.70000000298,1176.800000011921,1669830133005,1177,HRV,HRV_0128,2022-11-30 17:46:23
21,"[{'imgObject': {}, 'id': 'luckycharms', 'src': '/static/foodstim60/luckycharms.jpg', 'key': 'u', 'origWidth': 410, 'origHeight': 409, 'width': 410, 'height': 409, 'widthPercent': 0.45, 'rescaleHeight': False, 'trialN': 21, 'loaded': True, 'loadedTime': 2551.8999999910593, 'positionName': 'LEFT', 'positionCoords': [142.96, 155.5], 'bid': 4.2700000000000005}, {'imgObject': {}, 'id': 'cantaloupe', 'src': '/static/foodstim60/cantaloupe.jpg', 'key': 'i', 'origWidth': 409, 'origHeight': 409, 'width': 409, 'height': 409, 'widthPercent': 0.45, 'rescaleHeight': False, 'trialN': 21, 'loaded': True, 'loadedTime': 2449, 'positionName': 'RIGHT', 'positionCoords': [599.04, 155.5], 'bid': 8.69}]",32607.79999999702,1669830133005,luckycharms,cantaloupe,4.2700000000000005,8.69,4.419999999999999,cantaloupe,808.5999999940395,809,809.2000000029802,True,i,33919.39999999106,1311.5999999940395,1669830134316,1311,HRV,HRV_0128,2022-11-30 17:46:23
22,"[{'imgObject': {}, 'id': 'ice cream sundae 002', 'src': '/static/foodstim60/ice cream sundae 002.jpg', 'key': 'u', 'origWidth': 409, 'origHeight': 409, 'width': 409, 'height': 409, 'widthPercent': 0.45, 'rescaleHeight': False, 'trialN': 22, 'loaded': True, 'loadedTime': 2400.3999999910593, 'positionName': 'LEFT', 'positionCoords': [143.96, 155.5], 'bid': 8.75}, {'imgObject': {}, 'id': 'fruitsalad', 'src': '/static/foodstim60/fruitsalad.jpg', 'key': 'i', 'origWidth': 410, 'origHeight': 410, 'width': 410, 'height': 410, 'widthPercent': 0.45, 'rescaleHeight': False, 'trialN': 22, 'loaded': True, 'loadedTime': 2652.2999999970198, 'positionName': 'RIGHT', 'positionCoords': [599.04, 155], 'bid': 8.83}]",33919.59999999404,1669830134317,ice cream sundae 002,fruitsalad,8.75,8.83,0.08000000000000007,ice cream sundae 002,811.2999999970198,811,811.7999999970198,True,u,35240.0,1320.4000000059605,1669830135637,1320,HRV,HRV_0128,2022-11-30 17:46:23
23,"[{'imgObject': {}, 'id': 'cherries', 'src': '/static/foodstim60/cherries.jpg', 'key': 'u', 'origWidth': 410, 'origHeight': 411, 'width': 410, 'height': 411, 'widthPercent': 0.45, 'rescaleHeight': False, 'trialN': 23, 'loaded': True, 'loadedTime': 2580.5999999940395, 'positionName': 'LEFT', 'positionCoords': [142.96, 154.5], 'bid': 8.68}, {'imgObject': {}, 'id': 'froot loops w milk', 'src': '/static/foodstim60/froot loops w milk.jpg', 'key': 'i', 'origWidth': 410, 'origHeight': 410, 'width': 410, 'height': 410, 'widthPercent': 0.45, 'rescaleHeight': False, 'trialN': 23, 'loaded': True, 'loadedTime': 2568.5999999940395, 'positionName': 'RIGHT', 'positionCoords': [599.04, 155], 'bid': 3.88}]",35240.29999999702,1669830135637,cherries,froot loops w milk,8.68,3.88,-4.8,cherries,776,777,776.5999999940395,True,u,36519.09999999404,1278.7999999970198,1669830136916,1279,HRV,HRV_0128,2022-11-30 17:46:23
24,"[{'imgObject': {}, 'id': 'veggieswithdip', 'src': '/static/foodstim60/veggieswithdip.jpg', 'key': 'u', 'origWidth': 409, 'origHeight': 409, 'width': 409, 'height': 409, 'widthPercent': 0.45, 'rescaleHeight': False, 'trialN': 24, 'loaded': True, 'loadedTime': 2596.2999999970198, 'positionName': 'LEFT', 'positionCoords': [143.96, 155.5], 'bid': 8.24}, {'imgObject': {}, 'id': 'mashed potato', 'src': '/static/foodstim60/mashed potato.jpg', 'key': 'i', 'origWidth': 409, 'origHeight': 409, 'width': 409, 'height': 409, 'widthPercent': 0.45, 'rescaleHeight': False, 'trialN': 24, 'loaded': True, 'loadedTime': 2500.7999999970198, 'positionName': 'RIGHT', 'positionCoords': [599.04, 155.5], 'bid': 8.26}]",36519.39999999106,1669830136916,veggieswithdip,mashed potato,8.24,8.26,0.019999999999999574,mashed potato,1088.4000000059605,1089,1088.800000011921,True,i,38111.29999999702,1591.9000000059605,1669830138508,1592,HRV,HRV_0128,2022-11-30 17:46:23
25,"[{'imgObject': {}, 'id': 'bagel plain', 'src': '/static/foodstim60/bagel plain.jpg', 'key': 'u', 'origWidth': 410, 'origHeight': 410, 'width': 410, 'height': 410, 'widthPercent': 0.45, 'rescaleHeight': False, 'trialN': 25, 'loaded': True, 'loadedTime': 2611.5999999940395, 'positionName': 'LEFT', 'positionCoords': [142.96, 155], 'bid': 9.07}, {'imgObject': {}, 'id': 'raisin bran w milk', 'src': '/static/foodstim60/raisin bran w milk.jpg', 'key': 'i', 'origWidth': 411, 'origHeight': 411, 'width': 411, 'height': 411, 'widthPercent': 0.45, 'rescaleHeight': False, 'trialN': 25, 'loaded': True, 'loadedTime': 2598.5, 'positionName': 'RIGHT', 'positionCoords': [599.04, 154.5], 'bid': 8.4}]",38111.5,1669830138509,bagel plain,raisin bran w milk,9.07,8.4,-0.6699999999999999,bagel plain,799.2999999970198,799,799.7999999970198,True,u,39415.29999999702,1303.7999999970198,1669830139812,1303,HRV,HRV_0128,2022-11-30 17:46:23
26,"[{'imgObject': {}, 'id': 'sweetpotato', 'src': '/static/foodstim60/sweetpotato.jpg', 'key': 'u', 'origWidth': 410, 'origHeight': 410, 'width': 410, 'height': 410, 'widthPercent': 0.45, 'rescaleHeight': False, 'trialN': 26, 'loaded': True, 'loadedTime': 2625.2999999970198, 'positionName': 'LEFT', 'positionCoords': [142.96, 155], 'bid': 7.84}, {'imgObject': {}, 'id': 'orange slices', 'src': '/static/foodstim60/orange slices.jpg', 'key': 'i', 'origWidth': 409, 'origHeight': 410, 'width': 409, 'height': 410, 'widthPercent': 0.45, 'rescaleHeight': False, 'trialN': 26, 'loaded': True, 'loadedTime': 2469.8999999910593, 'positionName': 'RIGHT', 'positionCoords': [599.04, 155], 'bid': 6.18}]",39415.5,1669830139813,sweetpotato,orange slices,7.84,6.18,-1.6600000000000001,orange slices,1083.0999999940395,1083,1083.5999999940395,True,i,41007.5,1592.0,1669830141404,1591,HRV,HRV_0128,2022-11-30 17:46:23
27,"[{'imgObject': {}, 'id': 'popsicles', 'src': '/static/foodstim60/popsicles.jpg', 'key': 'u', 'origWidth': 410, 'origHeight': 410, 'width': 410, 'height': 410, 'widthPercent': 0.45, 'rescaleHeight': False, 'trialN': 27, 'loaded': True, 'loadedTime': 2544.7000000029802, 'positionName': 'LEFT', 'positionCoords': [142.96, 155], 'bid': 9.58}, {'imgObject': {}, 'id': 'turkey sandwich', 'src': '/static/foodstim60/turkey sandwich.jpg', 'key': 'i', 'origWidth': 409, 'origHeight': 409, 'width': 409, 'height': 409, 'widthPercent': 0.45, 'rescaleHeight': False, 'trialN': 27, 'loaded': True, 'loadedTime': 2494.7999999970198, 'positionName': 'RIGHT', 'positionCoords': [599.04, 155.5], 'bid': 9.58}]",41007.70000000298,1669830141405,popsicles,turkey sandwich,9.58,9.58,0.0,popsicles,1664.0999999940395,1664,1664.3999999910593,True,u,43174.29999999702,2166.5999999940395,1669830143571,2166,HRV,HRV_0128,2022-11-30 17:46:23
28,"[{'imgObject': {}, 'id': 'cherry tomato', 'src': '/static/foodstim60/cherry tomato.jpg', 'key': 'u', 'origWidth': 410, 'origHeight': 410, 'width': 410, 'height': 410, 'widthPercent': 0.45, 'rescaleHeight': False, 'trialN': 28, 'loaded': True, 'loadedTime': 2503.5999999940395, 'positionName': 'LEFT', 'positionCoords': [142.96, 155], 'bid': 3.62}, {'imgObject': {}, 'id': 'froot loops w milk', 'src': '/static/foodstim60/froot loops w milk.jpg', 'key': 'i', 'origWidth': 410, 'origHeight': 410, 'width': 410, 'height': 410, 'widthPercent': 0.45, 'rescaleHeight': False, 'trialN': 28, 'loaded': True, 'loadedTime': 2568.5999999940395, 'positionName': 'RIGHT', 'positionCoords': [599.04, 155], 'bid': 3.88}]",43174.59999999404,1669830143572,cherry tomato,froot loops w milk,3.62,3.88,0.2599999999999998,froot loops w milk,745.6000000089407,746,746.2000000029802,True,i,44422.59999999404,1248.0,1669830144820,1248,HRV,HRV_0128,2022-11-30 17:46:23
29,"[{'imgObject': {}, 'id': 'veggieswithdip', 'src': '/static/foodstim60/veggieswithdip.jpg', 'key': 'u', 'origWidth': 409, 'origHeight': 409, 'width': 409, 'height': 409, 'widthPercent': 0.45, 'rescaleHeight': False, 'trialN': 29, 'loaded': True, 'loadedTime': 2585.5999999940395, 'positionName': 'LEFT', 'positionCoords': [143.96, 155.5], 'bid': 8.24}, {'imgObject': {}, 'id': 'eggsalad', 'src': '/static/foodstim60/eggsalad.jpg', 'key': 'i', 'origWidth': 410, 'origHeight': 409, 'width': 410, 'height': 409, 'widthPercent': 0.45, 'rescaleHeight': False, 'trialN': 29, 'loaded': True, 'loadedTime': 2444.7000000029802, 'positionName': 'RIGHT', 'positionCoords': [599.04, 155.5], 'bid': 6.66}]",44422.79999999702,1669830144820,veggieswithdip,eggsalad,8.24,6.66,-1.58,veggieswithdip,999.9000000059605,1000,1000.4000000059605,True,u,45926.29999999702,1503.5,1669830146323,1503,HRV,HRV_0128,2022-11-30 17:46:23
30,"[{'imgObject': {}, 'id': 'orange slices', 'src': '/static/foodstim60/orange slices.jpg', 'key': 'u', 'origWidth': 409, 'origHeight': 410, 'width': 409, 'height': 410, 'widthPercent': 0.45, 'rescaleHeight': False, 'trialN': 30, 'loaded': True, 'loadedTime': 2459.2999999970198, 'positionName': 'LEFT', 'positionCoords': [143.96, 155], 'bid': 6.18}, {'imgObject': {}, 'id': 'froot loops w milk', 'src': '/static/foodstim60/froot loops w milk.jpg', 'key': 'i', 'origWidth': 410, 'origHeight': 410, 'width': 410, 'height': 410, 'widthPercent': 0.45, 'rescaleHeight': False, 'trialN': 30, 'loaded': True, 'loadedTime': 2568.5, 'positionName': 'RIGHT', 'positionCoords': [599.04, 155], 'bid': 3.88}]",45926.5,1669830146324,orange slices,froot loops w milk,6.18,3.88,-2.3,orange slices,835,835,835.5999999940395,True,u,47270.59999999404,1344.0999999940395,1669830147668,1344,HRV,HRV_0128,2022-11-30 17:46:23
31,"[{'imgObject': {}, 'id': 'mac & cheese', 'src': '/static/foodstim60/mac & cheese.jpg', 'key': 'u', 'origWidth': 410, 'origHeight': 410, 'width': 410, 'height': 410, 'widthPercent': 0.45, 'rescaleHeight': False, 'trialN': 31, 'loaded': True, 'loadedTime': 2624.5999999940395, 'positionName': 'LEFT', 'positionCoords': [142.96, 155], 'bid': 4.86}, {'imgObject': {}, 'id': 'kiwi', 'src': '/static/foodstim60/kiwi.jpg', 'key': 'i', 'origWidth': 410, 'origHeight': 410, 'width': 410, 'height': 410, 'widthPercent': 0.45, 'rescaleHeight': False, 'trialN': 31, 'loaded': True, 'loadedTime': 2579.0999999940395, 'positionName': 'RIGHT', 'positionCoords': [599.04, 155], 'bid': 8.03}]",47270.79999999702,1669830147668,mac & cheese,kiwi,4.86,8.03,3.169999999999999,kiwi,943.7000000029802,944,944.2999999970198,True,i,48718.89999999106,1448.0999999940395,1669830149116,1448,HRV,HRV_0128,2022-11-30 17:46:23
32,"[{'imgObject': {}, 'id': 'roastedpotatoes', 'src': '/static/foodstim60/roastedpotatoes.jpg', 'key': 'u', 'origWidth': 409, 'origHeight': 410, 'width': 409, 'height': 410, 'widthPercent': 0.45, 'rescaleHeight': False, 'trialN': 32, 'loaded': True, 'loadedTime': 2683.0999999940395, 'positionName': 'LEFT', 'positionCoords': [143.96, 155], 'bid': 7.98}, {'imgObject': {}, 'id': 'eggs', 'src': '/static/foodstim60/eggs.jpg', 'key': 'i', 'origWidth': 409, 'origHeight': 409, 'width': 409, 'height': 409, 'widthPercent': 0.45, 'rescaleHeight': False, 'trialN': 32, 'loaded': True, 'loadedTime': 2630.5, 'positionName': 'RIGHT', 'positionCoords': [599.04, 155.5], 'bid': 4.58}]",48718.89999999106,1669830149116,roastedpotatoes,eggs,7.98,4.58,-3.4000000000000004,roastedpotatoes,1059.5,1060,1059.9000000059605,True,u,50287.29999999702,1568.4000000059605,1669830150684,1568,HRV,HRV_0128,2022-11-30 17:46:23
33,"[{'imgObject': {}, 'id': 'hotdog w must', 'src': '/static/foodstim60/hotdog w must.jpg', 'key': 'u', 'origWidth': 409, 'origHeight': 409, 'width': 409, 'height': 409, 'widthPercent': 0.45, 'rescaleHeight': False, 'trialN': 33, 'loaded': True, 'loadedTime': 2655, 'positionName': 'LEFT', 'positionCoords': [143.96, 155.5], 'bid': 5.64}, {'imgObject': {}, 'id': 'cheerios', 'src': '/static/foodstim60/cheerios.jpg', 'key': 'i', 'origWidth': 409, 'origHeight': 410, 'width': 409, 'height': 410, 'widthPercent': 0.45, 'rescaleHeight': False, 'trialN': 33, 'loaded': True, 'loadedTime': 2634.7000000029802, 'positionName': 'RIGHT', 'positionCoords': [599.04, 155], 'bid': 5.45}]",50287.5,1669830150685,hotdog w must,cheerios,5.64,5.45,-0.1899999999999995,hotdog w must,950.2999999970198,950,950.7999999970198,True,u,51742.59999999404,1455.0999999940395,1669830152140,1455,HRV,HRV_0128,2022-11-30 17:46:23
34,"[{'imgObject': {}, 'id': 'blueberries', 'src': '/static/foodstim60/blueberries.jpg', 'key': 'u', 'origWidth': 411, 'origHeight': 411, 'width': 411, 'height': 411, 'widthPercent': 0.45, 'rescaleHeight': False, 'trialN': 34, 'loaded': True, 'loadedTime': 2650.2999999970198, 'positionName': 'LEFT', 'positionCoords': [141.96, 154.5], 'bid': 8.61}, {'imgObject': {}, 'id': 'kiwi', 'src': '/static/foodstim60/kiwi.jpg', 'key': 'i', 'origWidth': 410, 'origHeight': 410, 'width': 410, 'height': 410, 'widthPercent': 0.45, 'rescaleHeight': False, 'trialN': 34, 'loaded': True, 'loadedTime': 2580.2999999970198, 'positionName': 'RIGHT', 'positionCoords': [599.04, 155], 'bid': 8.03}]",51742.79999999702,1669830152140,blueberries,kiwi,8.61,8.03,-0.5800000000000001,blueberries,803.9000000059605,804,804.4000000059605,True,u,53054.20000000298,1311.4000000059605,1669830153451,1311,HRV,HRV_0128,2022-11-30 17:46:23
35,"[{'imgObject': {}, 'id': 'turkeysandwich', 'src': '/static/foodstim60/turkeysandwich.jpg', 'key': 'u', 'origWidth': 409, 'origHeight': 409, 'width': 409, 'height': 409, 'widthPercent': 0.45, 'rescaleHeight': False, 'trialN': 35, 'loaded': True, 'loadedTime': 2385.7999999970198, 'positionName': 'LEFT', 'positionCoords': [143.96, 155.5], 'bid': 9.37}, {'imgObject': {}, 'id': 'strawberries', 'src': '/static/foodstim60/strawberries.jpg', 'key': 'i', 'origWidth': 410, 'origHeight': 410, 'width': 410, 'height': 410, 'widthPercent': 0.45, 'rescaleHeight': False, 'trialN': 35, 'loaded': True, 'loadedTime': 2450.5999999940395, 'positionName': 'RIGHT', 'positionCoords': [599.04, 155], 'bid': 8.73}]",53054.5,1669830153451,turkeysandwich,strawberries,9.37,8.73,-0.6399999999999988,turkeysandwich,707.0999999940395,708,707.2999999970198,True,u,54262.20000000298,1207.7000000029802,1669830154659,1208,HRV,HRV_0128,2022-11-30 17:46:23
36,"[{'imgObject': {}, 'id': 'rigatoni and sauce', 'src': '/static/foodstim60/rigatoni and sauce.jpg', 'key': 'u', 'origWidth': 410, 'origHeight': 411, 'width': 410, 'height': 411, 'widthPercent': 0.45, 'rescaleHeight': False, 'trialN': 36, 'loaded': True, 'loadedTime': 2658.5999999940395, 'positionName': 'LEFT', 'positionCoords': [142.96, 154.5], 'bid': 8.15}, {'imgObject': {}, 'id': 'steak', 'src': '/static/foodstim60/steak.jpg', 'key': 'i', 'origWidth': 410, 'origHeight': 410, 'width': 410, 'height': 410, 'widthPercent': 0.45, 'rescaleHeight': False, 'trialN': 36, 'loaded': True, 'loadedTime': 2664.7000000029802, 'positionName': 'RIGHT', 'positionCoords': [599.04, 155], 'bid': 8.24}]",54262.5,1669830154659,rigatoni and sauce,steak,8.15,8.24,0.08999999999999986,steak,735.8999999910593,737,736.2000000029802,True,i,55502.09999999404,1239.5999999940395,1669830155899,1240,HRV,HRV_0128,2022-11-30 17:46:23
37,"[{'imgObject': {}, 'id': 'banana', 'src': '/static/foodstim60/banana.jpg', 'key': 'u', 'origWidth': 410, 'origHeight': 410, 'width': 410, 'height': 410, 'widthPercent': 0.45, 'rescaleHeight': False, 'trialN': 37, 'loaded': True, 'loadedTime': 2393, 'positionName': 'LEFT', 'positionCoords': [142.96, 155], 'bid': 7.84}, {'imgObject': {}, 'id': 'roastedpotatoes', 'src': '/static/foodstim60/roastedpotatoes.jpg', 'key': 'i', 'origWidth': 409, 'origHeight': 410, 'width': 409, 'height': 410, 'widthPercent': 0.45, 'rescaleHeight': False, 'trialN': 37, 'loaded': True, 'loadedTime': 2683.7999999970198, 'positionName': 'RIGHT', 'positionCoords': [599.04, 155], 'bid': 7.98}]",55502.39999999106,1669830155899,banana,roastedpotatoes,7.84,7.98,0.14000000000000057,roastedpotatoes,853.4000000059605,854,853.8000000119209,True,i,56863.20000000298,1360.800000011921,1669830157260,1361,HRV,HRV_0128,2022-11-30 17:46:23
38,"[{'imgObject': {}, 'id': 'popsicles', 'src': '/static/foodstim60/popsicles.jpg', 'key': 'u', 'origWidth': 410, 'origHeight': 410, 'width': 410, 'height': 410, 'widthPercent': 0.45, 'rescaleHeight': False, 'trialN': 38, 'loaded': True, 'loadedTime': 2545.5, 'positionName': 'LEFT', 'positionCoords': [142.96, 155], 'bid': 9.58}, {'imgObject': {}, 'id': 'apple slices', 'src': '/static/foodstim60/apple slices.jpg', 'key': 'i', 'origWidth': 409, 'origHeight': 410, 'width': 409, 'height': 410, 'widthPercent': 0.45, 'rescaleHeight': False, 'trialN': 38, 'loaded': True, 'loadedTime': 2452.7000000029802, 'positionName': 'RIGHT', 'positionCoords': [599.04, 155], 'bid': 9.16}]",56863.39999999106,1669830157260,popsicles,apple slices,9.58,9.16,-0.41999999999999993,popsicles,680.2000000029802,681,680.7000000029802,True,u,58046.20000000298,1182.800000011921,1669830158443,1183,HRV,HRV_0128,2022-11-30 17:46:23
39,"[{'imgObject': {}, 'id': 'bagel plain', 'src': '/static/foodstim60/bagel plain.jpg', 'key': 'u', 'origWidth': 410, 'origHeight': 410, 'width': 410, 'height': 410, 'widthPercent': 0.45, 'rescaleHeight': False, 'trialN': 39, 'loaded': True, 'loadedTime': 2612.2000000029802, 'positionName': 'LEFT', 'positionCoords': [142.96, 155], 'bid': 9.07}, {'imgObject': {}, 'id': 'blackbeanswithrice', 'src': '/static/foodstim60/blackbeanswithrice.jpg', 'key': 'i', 'origWidth': 410, 'origHeight': 410, 'width': 410, 'height': 410, 'widthPercent': 0.45, 'rescaleHeight': False, 'trialN': 39, 'loaded': True, 'loadedTime': 2510.0999999940395, 'positionName': 'RIGHT', 'positionCoords': [599.04, 155], 'bid': 9.49}]",58046.39999999106,1669830158443,bagel plain,blackbeanswithrice,9.07,9.49,0.41999999999999993,bagel plain,666.8000000119209,668,667.2000000029802,True,u,59215.29999999702,1168.9000000059605,1669830159612,1169,HRV,HRV_0128,2022-11-30 17:46:23
40,"[{'imgObject': {}, 'id': 'orange slices', 'src': '/static/foodstim60/orange slices.jpg', 'key': 'u', 'origWidth': 409, 'origHeight': 410, 'width': 409, 'height': 410, 'widthPercent': 0.45, 'rescaleHeight': False, 'trialN': 40, 'loaded': True, 'loadedTime': 2458.3999999910593, 'positionName': 'LEFT', 'positionCoords': [143.96, 155], 'bid': 6.18}, {'imgObject': {}, 'id': 'raspberries', 'src': '/static/foodstim60/raspberries.jpg', 'key': 'i', 'origWidth': 411, 'origHeight': 411, 'width': 411, 'height': 411, 'widthPercent': 0.45, 'rescaleHeight': False, 'trialN': 40, 'loaded': True, 'loadedTime': 2424.2000000029802, 'positionName': 'RIGHT', 'positionCoords': [599.04, 154.5], 'bid': 9.04}]",59215.59999999404,1669830159613,orange slices,raspberries,6.18,9.04,2.8599999999999994,raspberries,968.2000000029802,968,968.6000000089407,True,i,60686.5,1470.9000000059605,1669830161083,1470,HRV,HRV_0128,2022-11-30 17:46:23
41,"[{'imgObject': {}, 'id': 'rigatoni and sauce', 'src': '/static/foodstim60/rigatoni and sauce.jpg', 'key': 'u', 'origWidth': 410, 'origHeight': 411, 'width': 410, 'height': 411, 'widthPercent': 0.45, 'rescaleHeight': False, 'trialN': 41, 'loaded': True, 'loadedTime': 2658.7999999970198, 'positionName': 'LEFT', 'positionCoords': [142.96, 154.5], 'bid': 8.15}, {'imgObject': {}, 'id': 'veggieswithdip', 'src': '/static/foodstim60/veggieswithdip.jpg', 'key': 'i', 'origWidth': 409, 'origHeight': 409, 'width': 409, 'height': 409, 'widthPercent': 0.45, 'rescaleHeight': False, 'trialN': 41, 'loaded': True, 'loadedTime': 2586.2999999970198, 'positionName': 'RIGHT', 'positionCoords': [599.04, 155.5], 'bid': 8.24}]",60686.59999999404,1669830161083,rigatoni and sauce,veggieswithdip,8.15,8.24,0.08999999999999986,rigatoni and sauce,837.2000000029802,838,837.7000000029802,True,u,62030.39999999106,1343.7999999970198,1669830162427,1344,HRV,HRV_0128,2022-11-30 17:46:23
42,"[{'imgObject': {}, 'id': 'mango', 'src': '/static/foodstim60/mango.jpg', 'key': 'u', 'origWidth': 411, 'origHeight': 411, 'width': 411, 'height': 411, 'widthPercent': 0.45, 'rescaleHeight': False, 'trialN': 42, 'loaded': True, 'loadedTime': 2656.5, 'positionName': 'LEFT', 'positionCoords': [141.96, 154.5], 'bid': 8.26}, {'imgObject': {}, 'id': 'lox', 'src': '/static/foodstim60/lox.jpg', 'key': 'i', 'origWidth': 410, 'origHeight': 411, 'width': 410, 'height': 411, 'widthPercent': 0.45, 'rescaleHeight': False, 'trialN': 42, 'loaded': True, 'loadedTime': 2667.0999999940395, 'positionName': 'RIGHT', 'positionCoords': [599.04, 154.5], 'bid': 0.08}]",62030.70000000298,1669830162428,mango,lox,8.26,0.08,-8.18,mango,916.0999999940395,916,916.5999999940395,True,u,63455.09999999404,1424.3999999910593,1669830163852,1424,HRV,HRV_0128,2022-11-30 17:46:23
43,"[{'imgObject': {}, 'id': 'omelette', 'src': '/static/foodstim60/omelette.jpg', 'key': 'u', 'origWidth': 410, 'origHeight': 409, 'width': 410, 'height': 409, 'widthPercent': 0.45, 'rescaleHeight': False, 'trialN': 43, 'loaded': True, 'loadedTime': 2451.7000000029802, 'positionName': 'LEFT', 'positionCoords': [142.96, 155.5], 'bid': 7.390000000000001}, {'imgObject': {}, 'id': 'sweetpotato', 'src': '/static/foodstim60/sweetpotato.jpg', 'key': 'i', 'origWidth': 410, 'origHeight': 410, 'width': 410, 'height': 410, 'widthPercent': 0.45, 'rescaleHeight': False, 'trialN': 43, 'loaded': True, 'loadedTime': 2624.7999999970198, 'positionName': 'RIGHT', 'positionCoords': [599.04, 155], 'bid': 7.84}]",63455.20000000298,1669830163852,omelette,sweetpotato,7.390000000000001,7.84,0.4499999999999993,omelette,818.5999999940395,819,819.1999999880791,True,u,64783.09999999404,1327.8999999910593,1669830165180,1328,HRV,HRV_0128,2022-11-30 17:46:23
44,"[{'imgObject': {}, 'id': 'luckycharms', 'src': '/static/foodstim60/luckycharms.jpg', 'key': 'u', 'origWidth': 410, 'origHeight': 409, 'width': 410, 'height': 409, 'widthPercent': 0.45, 'rescaleHeight': False, 'trialN': 44, 'loaded': True, 'loadedTime': 2552.7999999970198, 'positionName': 'LEFT', 'positionCoords': [142.96, 155.5], 'bid': 4.2700000000000005}, {'imgObject': {}, 'id': 'lox', 'src': '/static/foodstim60/lox.jpg', 'key': 'i', 'origWidth': 410, 'origHeight': 411, 'width': 410, 'height': 411, 'widthPercent': 0.45, 'rescaleHeight': False, 'trialN': 44, 'loaded': True, 'loadedTime': 2666.8999999910593, 'positionName': 'RIGHT', 'positionCoords': [599.04, 154.5], 'bid': 0.08}]",64783.39999999106,1669830165180,luckycharms,lox,4.2700000000000005,0.08,-4.19,luckycharms,988.2000000029802,989,988.7000000029802,True,u,66278.09999999404,1494.7000000029802,1669830166675,1495,HRV,HRV_0128,2022-11-30 17:46:23
45,"[{'imgObject': {}, 'id': 'salad w chicken', 'src': '/static/foodstim60/salad w chicken.jpg', 'key': 'u', 'origWidth': 411, 'origHeight': 411, 'width': 411, 'height': 411, 'widthPercent': 0.45, 'rescaleHeight': False, 'trialN': 45, 'loaded': True, 'loadedTime': 2674.3999999910593, 'positionName': 'LEFT', 'positionCoords': [141.96, 154.5], 'bid': 10}, {'imgObject': {}, 'id': 'olives', 'src': '/static/foodstim60/olives.jpg', 'key': 'i', 'origWidth': 410, 'origHeight': 410, 'width': 410, 'height': 410, 'widthPercent': 0.45, 'rescaleHeight': False, 'trialN': 45, 'loaded': True, 'loadedTime': 2473.7000000029802, 'positionName': 'RIGHT', 'positionCoords': [599.04, 155], 'bid': 9.32}]",66278.39999999106,1669830166675,salad w chicken,olives,10.0,9.32,-0.6799999999999997,salad w chicken,724.6000000089407,725,725.0,True,u,67510.70000000298,1232.300000011921,1669830167908,1233,HRV,HRV_0128,2022-11-30 17:46:23
46,"[{'imgObject': {}, 'id': 'eggsalad', 'src': '/static/foodstim60/eggsalad.jpg', 'key': 'u', 'origWidth': 410, 'origHeight': 409, 'width': 410, 'height': 409, 'widthPercent': 0.45, 'rescaleHeight': False, 'trialN': 46, 'loaded': True, 'loadedTime': 2442.7999999970198, 'positionName': 'LEFT', 'positionCoords': [142.96, 155.5], 'bid': 6.66}, {'imgObject': {}, 'id': 'hotdog w must', 'src': '/static/foodstim60/hotdog w must.jpg', 'key': 'i', 'origWidth': 409, 'origHeight': 409, 'width': 409, 'height': 409, 'widthPercent': 0.45, 'rescaleHeight': False, 'trialN': 46, 'loaded': True, 'loadedTime': 2654.0999999940395, 'positionName': 'RIGHT', 'positionCoords': [599.04, 155.5], 'bid': 5.64}]",67510.89999999106,1669830167908,eggsalad,hotdog w must,6.66,5.64,-1.0200000000000005,hotdog w must,844.6000000089407,845,845.1000000089407,True,i,68862.89999999106,1352.0,1669830169260,1352,HRV,HRV_0128,2022-11-30 17:46:23
47,"[{'imgObject': {}, 'id': 'burger', 'src': '/static/foodstim60/burger.jpg', 'key': 'u', 'origWidth': 409, 'origHeight': 409, 'width': 409, 'height': 409, 'widthPercent': 0.45, 'rescaleHeight': False, 'trialN': 47, 'loaded': True, 'loadedTime': 2424.5, 'positionName': 'LEFT', 'positionCoords': [143.96, 155.5], 'bid': 8.81}, {'imgObject': {}, 'id': 'pear', 'src': '/static/foodstim60/pear.jpg', 'key': 'i', 'origWidth': 411, 'origHeight': 410, 'width': 411, 'height': 410, 'widthPercent': 0.45, 'rescaleHeight': False, 'trialN': 47, 'loaded': True, 'loadedTime': 2693.0999999940395, 'positionName': 'RIGHT', 'positionCoords': [599.04, 155], 'bid': 8.85}]",68863.20000000298,1669830169260,burger,pear,8.81,8.85,0.03999999999999915,pear,1283.3999999910593,1284,1283.5999999940395,True,i,70654.70000000298,1791.5,1669830171052,1792,HRV,HRV_0128,2022-11-30 17:46:23
48,"[{'imgObject': {}, 'id': 'sushi w_condiments', 'src': '/static/foodstim60/sushi w_condiments.jpg', 'key': 'u', 'origWidth': 410, 'origHeight': 410, 'width': 410, 'height': 410, 'widthPercent': 0.45, 'rescaleHeight': False, 'trialN': 48, 'loaded': True, 'loadedTime': 2736.2000000029802, 'positionName': 'LEFT', 'positionCoords': [142.96, 155], 'bid': 0.48}, {'imgObject': {}, 'id': 'hotdog w must', 'src': '/static/foodstim60/hotdog w must.jpg', 'key': 'i', 'origWidth': 409, 'origHeight': 409, 'width': 409, 'height': 409, 'widthPercent': 0.45, 'rescaleHeight': False, 'trialN': 48, 'loaded': True, 'loadedTime': 2654.2999999970198, 'positionName': 'RIGHT', 'positionCoords': [599.04, 155.5], 'bid': 5.64}]",70655.20000000298,1669830171052,sushi w_condiments,hotdog w must,0.48,5.64,5.16,hotdog w must,858.3999999910593,859,858.7999999970198,True,i,72022.39999999106,1367.199999988079,1669830172419,1367,HRV,HRV_0128,2022-11-30 17:46:23
49,"[{'imgObject': {}, 'id': 'eggs', 'src': '/static/foodstim60/eggs.jpg', 'key': 'u', 'origWidth': 409, 'origHeight': 409, 'width': 409, 'height': 409, 'widthPercent': 0.45, 'rescaleHeight': False, 'trialN': 49, 'loaded': True, 'loadedTime': 2630.2999999970198, 'positionName': 'LEFT', 'positionCoords': [143.96, 155.5], 'bid': 4.58}, {'imgObject': {}, 'id': 'luckycharms', 'src': '/static/foodstim60/luckycharms.jpg', 'key': 'i', 'origWidth': 410, 'origHeight': 409, 'width': 410, 'height': 409, 'widthPercent': 0.45, 'rescaleHeight': False, 'trialN': 49, 'loaded': True, 'loadedTime': 2552.7000000029802, 'positionName': 'RIGHT', 'positionCoords': [599.04, 155.5], 'bid': 4.2700000000000005}]",72022.70000000298,1669830172420,eggs,luckycharms,4.58,4.2700000000000005,-0.3099999999999996,luckycharms,883,883,883.3999999910593,True,i,73414.39999999106,1391.699999988079,1669830173811,1391,HRV,HRV_0128,2022-11-30 17:46:23
50,"[{'imgObject': {}, 'id': 'kiwi', 'src': '/static/foodstim60/kiwi.jpg', 'key': 'u', 'origWidth': 410, 'origHeight': 410, 'width': 410, 'height': 410, 'widthPercent': 0.45, 'rescaleHeight': False, 'trialN': 50, 'loaded': True, 'loadedTime': 2580.5, 'positionName': 'LEFT', 'positionCoords': [142.96, 155], 'bid': 8.03}, {'imgObject': {}, 'id': 'mango', 'src': '/static/foodstim60/mango.jpg', 'key': 'i', 'origWidth': 411, 'origHeight': 411, 'width': 411, 'height': 411, 'widthPercent': 0.45, 'rescaleHeight': False, 'trialN': 50, 'loaded': True, 'loadedTime': 2656.2999999970198, 'positionName': 'RIGHT', 'positionCoords': [599.04, 154.5], 'bid': 8.26}]",73414.59999999404,1669830173812,kiwi,mango,8.03,8.26,0.23000000000000043,kiwi,1209.7000000029802,1210,1210.2999999970198,True,u,75126.70000000298,1712.1000000089407,1669830175524,1712,HRV,HRV_0128,2022-11-30 17:46:23
51,"[{'imgObject': {}, 'id': 'salmon', 'src': '/static/foodstim60/salmon.jpg', 'key': 'u', 'origWidth': 410, 'origHeight': 409, 'width': 410, 'height': 409, 'widthPercent': 0.45, 'rescaleHeight': False, 'trialN': 51, 'loaded': True, 'loadedTime': 2411, 'positionName': 'LEFT', 'positionCoords': [142.96, 155.5], 'bid': 0}, {'imgObject': {}, 'id': 'eggs', 'src': '/static/foodstim60/eggs.jpg', 'key': 'i', 'origWidth': 409, 'origHeight': 409, 'width': 409, 'height': 409, 'widthPercent': 0.45, 'rescaleHeight': False, 'trialN': 51, 'loaded': True, 'loadedTime': 2630.3999999910593, 'positionName': 'RIGHT', 'positionCoords': [599.04, 155.5], 'bid': 4.58}]",75126.89999999106,1669830175524,salmon,eggs,0.0,4.58,4.58,eggs,969.6000000089407,970,970.1000000089407,True,i,76598.39999999106,1471.5,1669830176995,1471,HRV,HRV_0128,2022-11-30 17:46:23
52,"[{'imgObject': {}, 'id': 'raisin bran w milk', 'src': '/static/foodstim60/raisin bran w milk.jpg', 'key': 'u', 'origWidth': 411, 'origHeight': 411, 'width': 411, 'height': 411, 'widthPercent': 0.45, 'rescaleHeight': False, 'trialN': 52, 'loaded': True, 'loadedTime': 2598.7000000029802, 'positionName': 'LEFT', 'positionCoords': [141.96, 154.5], 'bid': 8.4}, {'imgObject': {}, 'id': 'banana', 'src': '/static/foodstim60/banana.jpg', 'key': 'i', 'origWidth': 410, 'origHeight': 410, 'width': 410, 'height': 410, 'widthPercent': 0.45, 'rescaleHeight': False, 'trialN': 52, 'loaded': True, 'loadedTime': 2393.5999999940395, 'positionName': 'RIGHT', 'positionCoords': [599.04, 155], 'bid': 7.84}]",76598.59999999404,1669830176996,raisin bran w milk,banana,8.4,7.84,-0.5600000000000005,banana,1200,1200,1200.5,True,i,78302.59999999404,1704.0,1669830178700,1704,HRV,HRV_0128,2022-11-30 17:46:23
53,"[{'imgObject': {}, 'id': 'Tribe humus pita', 'src': '/static/foodstim60/Tribe humus pita.jpg', 'key': 'u', 'origWidth': 411, 'origHeight': 411, 'width': 411, 'height': 411, 'widthPercent': 0.45, 'rescaleHeight': False, 'trialN': 53, 'loaded': True, 'loadedTime': 2500, 'positionName': 'LEFT', 'positionCoords': [141.96, 154.5], 'bid': 9.18}, {'imgObject': {}, 'id': 'bagel plain', 'src': '/static/foodstim60/bagel plain.jpg', 'key': 'i', 'origWidth': 410, 'origHeight': 410, 'width': 410, 'height': 410, 'widthPercent': 0.45, 'rescaleHeight': False, 'trialN': 53, 'loaded': True, 'loadedTime': 2612.2000000029802, 'positionName': 'RIGHT', 'positionCoords': [599.04, 155], 'bid': 9.07}]",78302.70000000298,1669830178700,Tribe humus pita,bagel plain,9.18,9.07,-0.10999999999999943,Tribe humus pita,833.1999999880791,833,833.5999999940395,True,u,79639.5,1336.7999999970198,1669830180036,1336,HRV,HRV_0128,2022-11-30 17:46:23
54,"[{'imgObject': {}, 'id': 'bagel plain', 'src': '/static/foodstim60/bagel plain.jpg', 'key': 'u', 'origWidth': 410, 'origHeight': 410, 'width': 410, 'height': 410, 'widthPercent': 0.45, 'rescaleHeight': False, 'trialN': 54, 'loaded': True, 'loadedTime': 2612.2999999970198, 'positionName': 'LEFT', 'positionCoords': [142.96, 155], 'bid': 9.07}, {'imgObject': {}, 'id': 'rigatoni', 'src': '/static/foodstim60/rigatoni.jpg', 'key': 'i', 'origWidth': 411, 'origHeight': 411, 'width': 411, 'height': 411, 'widthPercent': 0.45, 'rescaleHeight': False, 'trialN': 54, 'loaded': True, 'loadedTime': 2704.2000000029802, 'positionName': 'RIGHT', 'positionCoords': [599.04, 154.5], 'bid': 6.63}]",79639.59999999404,1669830180037,bagel plain,rigatoni,9.07,6.63,-2.4400000000000004,bagel plain,819.7000000029802,819,819.9000000059605,True,u,80967.39999999106,1327.7999999970198,1669830181364,1327,HRV,HRV_0128,2022-11-30 17:46:23
55,"[{'imgObject': {}, 'id': 'salad w chicken', 'src': '/static/foodstim60/salad w chicken.jpg', 'key': 'u', 'origWidth': 411, 'origHeight': 411, 'width': 411, 'height': 411, 'widthPercent': 0.45, 'rescaleHeight': False, 'trialN': 55, 'loaded': True, 'loadedTime': 2673.3999999910593, 'positionName': 'LEFT', 'positionCoords': [141.96, 154.5], 'bid': 10}, {'imgObject': {}, 'id': 'bagel and cc', 'src': '/static/foodstim60/bagel and cc.jpg', 'key': 'i', 'origWidth': 410, 'origHeight': 410, 'width': 410, 'height': 410, 'widthPercent': 0.45, 'rescaleHeight': False, 'trialN': 55, 'loaded': True, 'loadedTime': 2403.5999999940395, 'positionName': 'RIGHT', 'positionCoords': [599.04, 155], 'bid': 9.65}]",80967.59999999404,1669830181364,salad w chicken,bagel and cc,10.0,9.65,-0.34999999999999964,salad w chicken,788.2999999970198,789,788.6000000089407,True,u,82262.29999999702,1294.7000000029802,1669830182659,1295,HRV,HRV_0128,2022-11-30 17:46:23
56,"[{'imgObject': {}, 'id': 'cocktailshrimp', 'src': '/static/foodstim60/cocktailshrimp.jpg', 'key': 'u', 'origWidth': 410, 'origHeight': 410, 'width': 410, 'height': 410, 'widthPercent': 0.45, 'rescaleHeight': False, 'trialN': 56, 'loaded': True, 'loadedTime': 2483.0999999940395, 'positionName': 'LEFT', 'positionCoords': [142.96, 155], 'bid': 0.1}, {'imgObject': {}, 'id': 'seaweed', 'src': '/static/foodstim60/seaweed.jpg', 'key': 'i', 'origWidth': 410, 'origHeight': 410, 'width': 410, 'height': 410, 'widthPercent': 0.45, 'rescaleHeight': False, 'trialN': 56, 'loaded': True, 'loadedTime': 2804.2999999970198, 'positionName': 'RIGHT', 'positionCoords': [599.04, 155], 'bid': 0.08}]",82262.59999999404,1669830182659,cocktailshrimp,seaweed,0.1,0.08,-0.020000000000000004,seaweed,1681.5,1682,1682.1000000089407,True,i,84447.59999999404,2185.0,1669830184844,2185,HRV,HRV_0128,2022-11-30 17:46:23
57,"[{'imgObject': {}, 'id': 'pear', 'src': '/static/foodstim60/pear.jpg', 'key': 'u', 'origWidth': 411, 'origHeight': 410, 'width': 411, 'height': 410, 'widthPercent': 0.45, 'rescaleHeight': False, 'trialN': 57, 'loaded': True, 'loadedTime': 2693.2999999970198, 'positionName': 'LEFT', 'positionCoords': [141.96, 155], 'bid': 8.85}, {'imgObject': {}, 'id': 'hashbrowns', 'src': '/static/foodstim60/hashbrowns.jpg', 'key': 'i', 'origWidth': 411, 'origHeight': 410, 'width': 411, 'height': 410, 'widthPercent': 0.45, 'rescaleHeight': False, 'trialN': 57, 'loaded': True, 'loadedTime': 2518.2000000029802, 'positionName': 'RIGHT', 'positionCoords': [599.04, 155], 'bid': 5.46}]",84447.79999999702,1669830184844,pear,hashbrowns,8.85,5.46,-3.3899999999999997,hashbrowns,1089.5999999940395,1090,1090.0,True,i,86038.39999999106,1590.5999999940395,1669830186435,1591,HRV,HRV_0128,2022-11-30 17:46:23
58,"[{'imgObject': {}, 'id': 'edamame', 'src': '/static/foodstim60/edamame.jpg', 'key': 'u', 'origWidth': 409, 'origHeight': 410, 'width': 409, 'height': 410, 'widthPercent': 0.45, 'rescaleHeight': False, 'trialN': 58, 'loaded': True, 'loadedTime': 2840.0999999940395, 'positionName': 'LEFT', 'positionCoords': [143.96, 155], 'bid': 6.140000000000001}, {'imgObject': {}, 'id': 'shreddedwheatwithmilk', 'src': '/static/foodstim60/shreddedwheatwithmilk.jpg', 'key': 'i', 'origWidth': 410, 'origHeight': 410, 'width': 410, 'height': 410, 'widthPercent': 0.45, 'rescaleHeight': False, 'trialN': 58, 'loaded': True, 'loadedTime': 2820.0999999940395, 'positionName': 'RIGHT', 'positionCoords': [599.04, 155], 'bid': 6.45}]",86038.70000000298,1669830186435,edamame,shreddedwheatwithmilk,6.140000000000001,6.45,0.3099999999999996,edamame,893.8999999910593,895,894.2999999970198,True,u,87438.89999999106,1400.199999988079,1669830187835,1400,HRV,HRV_0128,2022-11-30 17:46:23
59,"[{'imgObject': {}, 'id': 'lox', 'src': '/static/foodstim60/lox.jpg', 'key': 'u', 'origWidth': 410, 'origHeight': 411, 'width': 410, 'height': 411, 'widthPercent': 0.45, 'rescaleHeight': False, 'trialN': 59, 'loaded': True, 'loadedTime': 2667, 'positionName': 'LEFT', 'positionCoords': [142.96, 154.5], 'bid': 0.08}, {'imgObject': {}, 'id': 'salmon', 'src': '/static/foodstim60/salmon.jpg', 'key': 'i', 'origWidth': 410, 'origHeight': 409, 'width': 410, 'height': 409, 'widthPercent': 0.45, 'rescaleHeight': False, 'trialN': 59, 'loaded': True, 'loadedTime': 2411.2000000029802, 'positionName': 'RIGHT', 'positionCoords': [599.04, 155.5], 'bid': 0}]",87439.09999999404,1669830187836,lox,salmon,0.08,0.0,-0.08,salmon,845.7999999970198,846,846.2999999970198,True,i,88790.09999999404,1351.0,1669830189187,1351,HRV,HRV_0128,2022-11-30 17:46:23
60,"[{'imgObject': {}, 'id': 'tacos', 'src': '/static/foodstim60/tacos.jpg', 'key': 'u', 'origWidth': 411, 'origHeight': 411, 'width': 411, 'height': 411, 'widthPercent': 0.45, 'rescaleHeight': False, 'trialN': 60, 'loaded': True, 'loadedTime': 2793.5999999940395, 'positionName': 'LEFT', 'positionCoords': [141.96, 154.5], 'bid': 8.950000000000001}, {'imgObject': {}, 'id': 'Grapes', 'src': '/static/foodstim60/Grapes.jpg', 'key': 'i', 'origWidth': 411, 'origHeight': 411, 'width': 411, 'height': 411, 'widthPercent': 0.45, 'rescaleHeight': False, 'trialN': 60, 'loaded': True, 'loadedTime': 2830.7999999970198, 'positionName': 'RIGHT', 'positionCoords': [599.04, 154.5], 'bid': 8.950000000000001}]",88790.39999999106,1669830189187,tacos,Grapes,8.950000000000001,8.950000000000001,0.0,tacos,735.3000000119209,736,735.7000000029802,True,u,90031.79999999702,1241.4000000059605,1669830190428,1241,HRV,HRV_0128,2022-11-30 17:46:23
61,"[{'imgObject': {}, 'id': 'Tribe humus pita', 'src': '/static/foodstim60/Tribe humus pita.jpg', 'key': 'u', 'origWidth': 411, 'origHeight': 411, 'width': 411, 'height': 411, 'widthPercent': 0.45, 'rescaleHeight': False, 'trialN': 61, 'loaded': True, 'loadedTime': 2499.5999999940395, 'positionName': 'LEFT', 'positionCoords': [141.96, 154.5], 'bid': 9.18}, {'imgObject': {}, 'id': 'burger', 'src': '/static/foodstim60/burger.jpg', 'key': 'i', 'origWidth': 409, 'origHeight': 409, 'width': 409, 'height': 409, 'widthPercent': 0.45, 'rescaleHeight': False, 'trialN': 61, 'loaded': True, 'loadedTime': 2437.2999999970198, 'positionName': 'RIGHT', 'positionCoords': [599.04, 155.5], 'bid': 8.81}]",90032.09999999404,1669830190429,Tribe humus pita,burger,9.18,8.81,-0.3699999999999992,Tribe humus pita,726.7999999970198,727,727.5,True,u,91262.79999999702,1230.7000000029802,1669830191659,1230,HRV,HRV_0128,2022-11-30 17:46:23
62,"[{'imgObject': {}, 'id': 'olives', 'src': '/static/foodstim60/olives.jpg', 'key': 'u', 'origWidth': 410, 'origHeight': 410, 'width': 410, 'height': 410, 'widthPercent': 0.45, 'rescaleHeight': False, 'trialN': 62, 'loaded': True, 'loadedTime': 2474.3999999910593, 'positionName': 'LEFT', 'positionCoords': [142.96, 155], 'bid': 9.32}, {'imgObject': {}, 'id': 'sweetpotato', 'src': '/static/foodstim60/sweetpotato.jpg', 'key': 'i', 'origWidth': 410, 'origHeight': 410, 'width': 410, 'height': 410, 'widthPercent': 0.45, 'rescaleHeight': False, 'trialN': 62, 'loaded': True, 'loadedTime': 2625.3999999910593, 'positionName': 'RIGHT', 'positionCoords': [599.04, 155], 'bid': 7.84}]",91262.89999999106,1669830191659,olives,sweetpotato,9.32,7.84,-1.4800000000000004,olives,1266.800000011921,1268,1267.300000011921,True,u,93038.20000000298,1775.300000011921,1669830193435,1776,HRV,HRV_0128,2022-11-30 17:46:23
63,"[{'imgObject': {}, 'id': 'corn cob', 'src': '/static/foodstim60/corn cob.jpg', 'key': 'u', 'origWidth': 411, 'origHeight': 411, 'width': 411, 'height': 411, 'widthPercent': 0.45, 'rescaleHeight': False, 'trialN': 63, 'loaded': True, 'loadedTime': 2477.5, 'positionName': 'LEFT', 'positionCoords': [141.96, 154.5], 'bid': 9.21}, {'imgObject': {}, 'id': 'cherries', 'src': '/static/foodstim60/cherries.jpg', 'key': 'i', 'origWidth': 410, 'origHeight': 411, 'width': 410, 'height': 411, 'widthPercent': 0.45, 'rescaleHeight': False, 'trialN': 63, 'loaded': True, 'loadedTime': 2581.3999999910593, 'positionName': 'RIGHT', 'positionCoords': [599.04, 154.5], 'bid': 8.68}]",93038.39999999106,1669830193435,corn cob,cherries,9.21,8.68,-0.5300000000000011,cherries,976.6000000089407,977,977.0,True,i,94518.89999999106,1480.5,1669830194915,1480,HRV,HRV_0128,2022-11-30 17:46:23
64,"[{'imgObject': {}, 'id': 'chicken nuggets2', 'src': '/static/foodstim60/chicken nuggets2.jpg', 'key': 'u', 'origWidth': 410, 'origHeight': 409, 'width': 410, 'height': 409, 'widthPercent': 0.45, 'rescaleHeight': False, 'trialN': 64, 'loaded': True, 'loadedTime': 2454.7999999970198, 'positionName': 'LEFT', 'positionCoords': [142.96, 155.5], 'bid': 4.46}, {'imgObject': {}, 'id': 'cocktailshrimp', 'src': '/static/foodstim60/cocktailshrimp.jpg', 'key': 'i', 'origWidth': 410, 'origHeight': 410, 'width': 410, 'height': 410, 'widthPercent': 0.45, 'rescaleHeight': False, 'trialN': 64, 'loaded': True, 'loadedTime': 2483.3999999910593, 'positionName': 'RIGHT', 'positionCoords': [599.04, 155], 'bid': 0.1}]",94519.09999999404,1669830194916,chicken nuggets2,cocktailshrimp,4.46,0.1,-4.36,chicken nuggets2,2025.5,2026,2026.0,True,u,97046.39999999106,2527.2999999970198,1669830197443,2527,HRV,HRV_0128,2022-11-30 17:46:23
65,"[{'imgObject': {}, 'id': 'olives', 'src': '/static/foodstim60/olives.jpg', 'key': 'u', 'origWidth': 410, 'origHeight': 410, 'width': 410, 'height': 410, 'widthPercent': 0.45, 'rescaleHeight': False, 'trialN': 65, 'loaded': True, 'loadedTime': 2474.7000000029802, 'positionName': 'LEFT', 'positionCoords': [142.96, 155], 'bid': 9.32}, {'imgObject': {}, 'id': 'pear', 'src': '/static/foodstim60/pear.jpg', 'key': 'i', 'origWidth': 411, 'origHeight': 410, 'width': 411, 'height': 410, 'widthPercent': 0.45, 'rescaleHeight': False, 'trialN': 65, 'loaded': True, 'loadedTime': 2693, 'positionName': 'RIGHT', 'positionCoords': [599.04, 155], 'bid': 8.85}]",97046.70000000298,1669830197443,olives,pear,9.32,8.85,-0.47000000000000064,olives,912.8999999910593,914,913.3999999910593,True,u,98462.70000000298,1416.0,1669830198859,1416,HRV,HRV_0128,2022-11-30 17:46:23
66,"[{'imgObject': {}, 'id': 'avocado', 'src': '/static/foodstim60/avocado.jpg', 'key': 'u', 'origWidth': 409, 'origHeight': 409, 'width': 409, 'height': 409, 'widthPercent': 0.45, 'rescaleHeight': False, 'trialN': 66, 'loaded': True, 'loadedTime': 2893.5999999940395, 'positionName': 'LEFT', 'positionCoords': [143.96, 155.5], 'bid': 5.95}, {'imgObject': {}, 'id': 'salmon', 'src': '/static/foodstim60/salmon.jpg', 'key': 'i', 'origWidth': 410, 'origHeight': 409, 'width': 410, 'height': 409, 'widthPercent': 0.45, 'rescaleHeight': False, 'trialN': 66, 'loaded': True, 'loadedTime': 2410.7999999970198, 'positionName': 'RIGHT', 'positionCoords': [599.04, 155.5], 'bid': 0}]",98463.0,1669830198859,avocado,salmon,5.95,0.0,-5.95,avocado,1847.8999999910593,1849,1848.5999999940395,True,u,100814.79999999702,2351.7999999970198,1669830201211,2352,HRV,HRV_0128,2022-11-30 17:46:23
67,"[{'imgObject': {}, 'id': 'seaweed', 'src': '/static/foodstim60/seaweed.jpg', 'key': 'u', 'origWidth': 410, 'origHeight': 410, 'width': 410, 'height': 410, 'widthPercent': 0.45, 'rescaleHeight': False, 'trialN': 67, 'loaded': True, 'loadedTime': 2805.5, 'positionName': 'LEFT', 'positionCoords': [142.96, 155], 'bid': 0.08}, {'imgObject': {}, 'id': 'salmon', 'src': '/static/foodstim60/salmon.jpg', 'key': 'i', 'origWidth': 410, 'origHeight': 409, 'width': 410, 'height': 409, 'widthPercent': 0.45, 'rescaleHeight': False, 'trialN': 67, 'loaded': True, 'loadedTime': 2411.0999999940395, 'positionName': 'RIGHT', 'positionCoords': [599.04, 155.5], 'bid': 0}]",100815.09999999404,1669830201212,seaweed,salmon,0.08,0.0,-0.08,seaweed,1555.6000000089407,1556,1556.0,True,u,102879.09999999404,2064.0,1669830203276,2064,HRV,HRV_0128,2022-11-30 17:46:23
68,"[{'imgObject': {}, 'id': 'steak', 'src': '/static/foodstim60/steak.jpg', 'key': 'u', 'origWidth': 410, 'origHeight': 410, 'width': 410, 'height': 410, 'widthPercent': 0.45, 'rescaleHeight': False, 'trialN': 68, 'loaded': True, 'loadedTime': 2664.7000000029802, 'positionName': 'LEFT', 'positionCoords': [142.96, 155], 'bid': 8.24}, {'imgObject': {}, 'id': 'strawberries', 'src': '/static/foodstim60/strawberries.jpg', 'key': 'i', 'origWidth': 410, 'origHeight': 410, 'width': 410, 'height': 410, 'widthPercent': 0.45, 'rescaleHeight': False, 'trialN': 68, 'loaded': True, 'loadedTime': 2450.3999999910593, 'positionName': 'RIGHT', 'positionCoords': [599.04, 155], 'bid': 8.73}]",102879.39999999106,1669830203276,steak,strawberries,8.24,8.73,0.4900000000000002,NaN,NaN,NaN,,False,NaN,106886.29999999702,4006.9000000059605,1669830207283,4007,HRV,HRV_0128,2022-11-30 17:46:23
69,"[{'imgObject': {}, 'id': 'grilled chicken strips', 'src': '/static/foodstim60/grilled chicken strips.jpg', 'key': 'u', 'origWidth': 410, 'origHeight': 411, 'width': 410, 'height': 411, 'widthPercent': 0.45, 'rescaleHeight': False, 'trialN': 69, 'loaded': True, 'loadedTime': 2368.5999999940395, 'positionName': 'LEFT', 'positionCoords': [142.96, 154.5], 'bid': 9.06}, {'imgObject': {}, 'id': 'bagel and cc', 'src': '/static/foodstim60/bagel and cc.jpg', 'key': 'i', 'origWidth': 410, 'origHeight': 410, 'width': 410, 'height': 410, 'widthPercent': 0.45, 'rescaleHeight': False, 'trialN': 69, 'loaded': True, 'loadedTime': 2403.2999999970198, 'positionName': 'RIGHT', 'positionCoords': [599.04, 155], 'bid': 9.65}]",106886.5,1669830207283,grilled chicken strips,bagel and cc,9.06,9.65,0.5899999999999999,NaN,NaN,NaN,,False,NaN,110894.09999999404,4007.5999999940395,1669830211291,4008,HRV,HRV_0128,2022-11-30 17:46:23
70,"[{'imgObject': {}, 'id': 'Tribe humus pita', 'src': '/static/foodstim60/Tribe humus pita.jpg', 'key': 'u', 'origWidth': 411, 'origHeight': 411, 'width': 411, 'height': 411, 'widthPercent': 0.45, 'rescaleHeight': False, 'trialN': 70, 'loaded': True, 'loadedTime': 2498.5999999940395, 'positionName': 'LEFT', 'positionCoords': [141.96, 154.5], 'bid': 9.18}, {'imgObject': {}, 'id': 'blueberries', 'src': '/static/foodstim60/blueberries.jpg', 'key': 'i', 'origWidth': 411, 'origHeight': 411, 'width': 411, 'height': 411, 'widthPercent': 0.45, 'rescaleHeight': False, 'trialN': 70, 'loaded': True, 'loadedTime': 2650.2000000029802, 'positionName': 'RIGHT', 'positionCoords': [599.04, 154.5], 'bid': 8.61}]",110894.39999999106,1669830211291,Tribe humus pita,blueberries,9.18,8.61,-0.5700000000000003,Tribe humus pita,3046.1000000089407,3046,3046.5,True,u,114446.39999999106,3552.0,1669830214843,3552,HRV,HRV_0128,2022-11-30 17:46:23
71,"[{'imgObject': {}, 'id': 'ice cream sundae 002', 'src': '/static/foodstim60/ice cream sundae 002.jpg', 'key': 'u', 'origWidth': 409, 'origHeight': 409, 'width': 409, 'height': 409, 'widthPercent': 0.45, 'rescaleHeight': False, 'trialN': 71, 'loaded': True, 'loadedTime': 2399.0999999940395, 'positionName': 'LEFT', 'positionCoords': [143.96, 155.5], 'bid': 8.75}, {'imgObject': {}, 'id': 'blackbeanswithrice', 'src': '/static/foodstim60/blackbeanswithrice.jpg', 'key': 'i', 'origWidth': 410, 'origHeight': 410, 'width': 410, 'height': 410, 'widthPercent': 0.45, 'rescaleHeight': False, 'trialN': 71, 'loaded': True, 'loadedTime': 2511.3999999910593, 'positionName': 'RIGHT', 'positionCoords': [599.04, 155], 'bid': 9.49}]",114446.70000000298,1669830214843,ice cream sundae 002,blackbeanswithrice,8.75,9.49,0.7400000000000002,blackbeanswithrice,1284.7999999970198,1286,1285.3999999910593,True,i,116238.89999999106,1792.199999988079,1669830216635,1792,HRV,HRV_0128,2022-11-30 17:46:23
72,"[{'imgObject': {}, 'id': 'olives', 'src': '/static/foodstim60/olives.jpg', 'key': 'u', 'origWidth': 410, 'origHeight': 410, 'width': 410, 'height': 410, 'widthPercent': 0.45, 'rescaleHeight': False, 'trialN': 72, 'loaded': True, 'loadedTime': 2474.5, 'positionName': 'LEFT', 'positionCoords': [142.96, 155], 'bid': 9.32}, {'imgObject': {}, 'id': 'corn cob', 'src': '/static/foodstim60/corn cob.jpg', 'key': 'i', 'origWidth': 411, 'origHeight': 411, 'width': 411, 'height': 411, 'widthPercent': 0.45, 'rescaleHeight': False, 'trialN': 72, 'loaded': True, 'loadedTime': 2477.0999999940395, 'positionName': 'RIGHT', 'positionCoords': [599.04, 154.5], 'bid': 9.21}]",116239.09999999404,1669830216636,olives,corn cob,9.32,9.21,-0.10999999999999943,olives,2120.2999999970198,2120,2120.7999999970198,True,u,118863.39999999106,2624.2999999970198,1669830219260,2624,HRV,HRV_0128,2022-11-30 17:46:23
73,"[{'imgObject': {}, 'id': 'omelette', 'src': '/static/foodstim60/omelette.jpg', 'key': 'u', 'origWidth': 410, 'origHeight': 409, 'width': 410, 'height': 409, 'widthPercent': 0.45, 'rescaleHeight': False, 'trialN': 73, 'loaded': True, 'loadedTime': 2450.7000000029802, 'positionName': 'LEFT', 'positionCoords': [142.96, 155.5], 'bid': 7.390000000000001}, {'imgObject': {}, 'id': 'froot loops w milk', 'src': '/static/foodstim60/froot loops w milk.jpg', 'key': 'i', 'origWidth': 410, 'origHeight': 410, 'width': 410, 'height': 410, 'widthPercent': 0.45, 'rescaleHeight': False, 'trialN': 73, 'loaded': True, 'loadedTime': 2567.7999999970198, 'positionName': 'RIGHT', 'positionCoords': [599.04, 155], 'bid': 3.88}]",118863.59999999404,1669830219260,omelette,froot loops w milk,7.390000000000001,3.88,-3.5100000000000007,omelette,888.7999999970198,890,889.5,True,u,120254.0,1390.4000000059605,1669830220650,1390,HRV,HRV_0128,2022-11-30 17:46:23
74,"[{'imgObject': {}, 'id': 'lox', 'src': '/static/foodstim60/lox.jpg', 'key': 'u', 'origWidth': 410, 'origHeight': 411, 'width': 410, 'height': 411, 'widthPercent': 0.45, 'rescaleHeight': False, 'trialN': 74, 'loaded': True, 'loadedTime': 2666.2000000029802, 'positionName': 'LEFT', 'positionCoords': [142.96, 154.5], 'bid': 0.08}, {'imgObject': {}, 'id': 'orange slices', 'src': '/static/foodstim60/orange slices.jpg', 'key': 'i', 'origWidth': 409, 'origHeight': 410, 'width': 409, 'height': 410, 'widthPercent': 0.45, 'rescaleHeight': False, 'trialN': 74, 'loaded': True, 'loadedTime': 2459.2000000029802, 'positionName': 'RIGHT', 'positionCoords': [599.04, 155], 'bid': 6.18}]",120254.09999999404,1669830220651,lox,orange slices,0.08,6.18,6.1,orange slices,1046.4000000059605,1046,1046.7000000029802,True,i,121807.0,1552.9000000059605,1669830222204,1553,HRV,HRV_0128,2022-11-30 17:46:23
75,"[{'imgObject': {}, 'id': 'baked potato', 'src': '/static/foodstim60/baked potato.jpg', 'key': 'u', 'origWidth': 409, 'origHeight': 410, 'width': 409, 'height': 410, 'widthPercent': 0.45, 'rescaleHeight': False, 'trialN': 75, 'loaded': True, 'loadedTime': 2437.8999999910593, 'positionName': 'LEFT', 'positionCoords': [143.96, 155], 'bid': 8.99}, {'imgObject': {}, 'id': 'raspberries', 'src': '/static/foodstim60/raspberries.jpg', 'key': 'i', 'origWidth': 411, 'origHeight': 411, 'width': 411, 'height': 411, 'widthPercent': 0.45, 'rescaleHeight': False, 'trialN': 75, 'loaded': True, 'loadedTime': 2412.0999999940395, 'positionName': 'RIGHT', 'positionCoords': [599.04, 154.5], 'bid': 9.04}]",121807.29999999702,1669830222204,baked potato,raspberries,8.99,9.04,0.049999999999998934,raspberries,721.0999999940395,721,721.5999999940395,True,i,123031.5,1224.2000000029802,1669830223428,1224,HRV,HRV_0128,2022-11-30 17:46:23
76,"[{'imgObject': {}, 'id': 'edamame', 'src': '/static/foodstim60/edamame.jpg', 'key': 'u', 'origWidth': 409, 'origHeight': 410, 'width': 409, 'height': 410, 'widthPercent': 0.45, 'rescaleHeight': False, 'trialN': 76, 'loaded': True, 'loadedTime': 2839.3999999910593, 'positionName': 'LEFT', 'positionCoords': [143.96, 155], 'bid': 6.140000000000001}, {'imgObject': {}, 'id': 'orange slices', 'src': '/static/foodstim60/orange slices.jpg', 'key': 'i', 'origWidth': 409, 'origHeight': 410, 'width': 409, 'height': 410, 'widthPercent': 0.45, 'rescaleHeight': False, 'trialN': 76, 'loaded': True, 'loadedTime': 2469.5999999940395, 'positionName': 'RIGHT', 'positionCoords': [599.04, 155], 'bid': 6.18}]",123031.70000000298,1669830223428,edamame,orange slices,6.140000000000001,6.18,0.03999999999999915,orange slices,777.7999999970198,778,778.2999999970198,True,i,124319.79999999702,1288.0999999940395,1669830224716,1288,HRV,HRV_0128,2022-11-30 17:46:23
77,"[{'imgObject': {}, 'id': 'eggsalad', 'src': '/static/foodstim60/eggsalad.jpg', 'key': 'u', 'origWidth': 410, 'origHeight': 409, 'width': 410, 'height': 409, 'widthPercent': 0.45, 'rescaleHeight': False, 'trialN': 77, 'loaded': True, 'loadedTime': 2444.0999999940395, 'positionName': 'LEFT', 'positionCoords': [142.96, 155.5], 'bid': 6.66}, {'imgObject': {}, 'id': 'chickenfingers', 'src': '/static/foodstim60/chickenfingers.jpg', 'key': 'i', 'origWidth': 410, 'origHeight': 410, 'width': 410, 'height': 410, 'widthPercent': 0.45, 'rescaleHeight': False, 'trialN': 77, 'loaded': True, 'loadedTime': 2535.2999999970198, 'positionName': 'RIGHT', 'positionCoords': [599.04, 155], 'bid': 7.01}]",124320.0,1669830224717,eggsalad,chickenfingers,6.66,7.01,0.34999999999999964,chickenfingers,1600.3999999910593,1601,1601.0,True,i,126423.59999999404,2103.5999999940395,1669830226820,2103,HRV,HRV_0128,2022-11-30 17:46:23
78,"[{'imgObject': {}, 'id': 'grilled chicken strips', 'src': '/static/foodstim60/grilled chicken strips.jpg', 'key': 'u', 'origWidth': 410, 'origHeight': 411, 'width': 410, 'height': 411, 'widthPercent': 0.45, 'rescaleHeight': False, 'trialN': 78, 'loaded': True, 'loadedTime': 2367.2999999970198, 'positionName': 'LEFT', 'positionCoords': [142.96, 154.5], 'bid': 9.06}, {'imgObject': {}, 'id': 'shreddedwheatwithmilk', 'src': '/static/foodstim60/shreddedwheatwithmilk.jpg', 'key': 'i', 'origWidth': 410, 'origHeight': 410, 'width': 410, 'height': 410, 'widthPercent': 0.45, 'rescaleHeight': False, 'trialN': 78, 'loaded': True, 'loadedTime': 2820.0999999940395, 'positionName': 'RIGHT', 'positionCoords': [599.04, 155], 'bid': 6.45}]",126423.89999999106,1669830226820,grilled chicken strips,shreddedwheatwithmilk,9.06,6.45,-2.6100000000000003,grilled chicken strips,2961.6000000089407,2962,2962.0,True,u,129887.59999999404,3463.7000000029802,1669830230284,3464,HRV,HRV_0128,2022-11-30 17:46:23
79,"[{'imgObject': {}, 'id': 'fruitsalad', 'src': '/static/foodstim60/fruitsalad.jpg', 'key': 'u', 'origWidth': 410, 'origHeight': 410, 'width': 410, 'height': 410, 'widthPercent': 0.45, 'rescaleHeight': False, 'trialN': 79, 'loaded': True, 'loadedTime': 2651.0999999940395, 'positionName': 'LEFT', 'positionCoords': [142.96, 155], 'bid': 8.83}, {'imgObject': {}, 'id': 'cheerios', 'src': '/static/foodstim60/cheerios.jpg', 'key': 'i', 'origWidth': 409, 'origHeight': 410, 'width': 409, 'height': 410, 'widthPercent': 0.45, 'rescaleHeight': False, 'trialN': 79, 'loaded': True, 'loadedTime': 2635.2999999970198, 'positionName': 'RIGHT', 'positionCoords': [599.04, 155], 'bid': 5.45}]",129887.89999999106,1669830230284,fruitsalad,cheerios,8.83,5.45,-3.38,fruitsalad,1323.6000000089407,1325,1324.2000000029802,True,u,131718.59999999404,1830.7000000029802,1669830232115,1831,HRV,HRV_0128,2022-11-30 17:46:23
80,"[{'imgObject': {}, 'id': 'apple slices', 'src': '/static/foodstim60/apple slices.jpg', 'key': 'u', 'origWidth': 409, 'origHeight': 410, 'width': 409, 'height': 410, 'widthPercent': 0.45, 'rescaleHeight': False, 'trialN': 80, 'loaded': True, 'loadedTime': 2452.5, 'positionName': 'LEFT', 'positionCoords': [143.96, 155], 'bid': 9.16}, {'imgObject': {}, 'id': 'burrito', 'src': '/static/foodstim60/burrito.jpg', 'key': 'i', 'origWidth': 410, 'origHeight': 410, 'width': 410, 'height': 410, 'widthPercent': 0.45, 'rescaleHeight': False, 'trialN': 80, 'loaded': True, 'loadedTime': 2939.7000000029802, 'positionName': 'RIGHT', 'positionCoords': [599.04, 155], 'bid': 8.45}]",131718.89999999106,1669830232115,apple slices,burrito,9.16,8.45,-0.7100000000000009,apple slices,1030.800000011921,1032,1031.300000011921,True,u,133255.09999999404,1536.2000000029802,1669830233652,1537,HRV,HRV_0128,2022-11-30 17:46:23
81,"[{'imgObject': {}, 'id': 'raspberries', 'src': '/static/foodstim60/raspberries.jpg', 'key': 'u', 'origWidth': 411, 'origHeight': 411, 'width': 411, 'height': 411, 'widthPercent': 0.45, 'rescaleHeight': False, 'trialN': 81, 'loaded': True, 'loadedTime': 2424.3999999910593, 'positionName': 'LEFT', 'positionCoords': [141.96, 154.5], 'bid': 9.04}, {'imgObject': {}, 'id': 'turkey sandwich', 'src': '/static/foodstim60/turkey sandwich.jpg', 'key': 'i', 'origWidth': 409, 'origHeight': 409, 'width': 409, 'height': 409, 'widthPercent': 0.45, 'rescaleHeight': False, 'trialN': 81, 'loaded': True, 'loadedTime': 2494.5, 'positionName': 'RIGHT', 'positionCoords': [599.04, 155.5], 'bid': 9.58}]",133255.29999999702,1669830233652,raspberries,turkey sandwich,9.04,9.58,0.5400000000000009,raspberries,705.2000000029802,705,705.5999999940395,True,u,134463.59999999404,1208.2999999970198,1669830234860,1208,HRV,HRV_0128,2022-11-30 17:46:23
82,"[{'imgObject': {}, 'id': 'yogurt no spoon', 'src': '/static/foodstim60/yogurt no spoon.jpg', 'key': 'u', 'origWidth': 411, 'origHeight': 410, 'width': 411, 'height': 410, 'widthPercent': 0.45, 'rescaleHeight': False, 'trialN': 82, 'loaded': True, 'loadedTime': 2397.2000000029802, 'positionName': 'LEFT', 'positionCoords': [141.96, 155], 'bid': 8.290000000000001}, {'imgObject': {}, 'id': 'cocktailshrimp', 'src': '/static/foodstim60/cocktailshrimp.jpg', 'key': 'i', 'origWidth': 410, 'origHeight': 410, 'width': 410, 'height': 410, 'widthPercent': 0.45, 'rescaleHeight': False, 'trialN': 82, 'loaded': True, 'loadedTime': 2482.2000000029802, 'positionName': 'RIGHT', 'positionCoords': [599.04, 155], 'bid': 0.1}]",134463.89999999106,1669830234860,yogurt no spoon,cocktailshrimp,8.290000000000001,0.1,-8.190000000000001,yogurt no spoon,774,775,774.3000000119209,True,u,135742.20000000298,1278.300000011921,1669830236139,1279,HRV,HRV_0128,2022-11-30 17:46:23
83,"[{'imgObject': {}, 'id': 'Grapes', 'src': '/static/foodstim60/Grapes.jpg', 'key': 'u', 'origWidth': 411, 'origHeight': 411, 'width': 411, 'height': 411, 'widthPercent': 0.45, 'rescaleHeight': False, 'trialN': 83, 'loaded': True, 'loadedTime': 2830.7999999970198, 'positionName': 'LEFT', 'positionCoords': [141.96, 154.5], 'bid': 8.950000000000001}, {'imgObject': {}, 'id': 'blackbeanswithrice', 'src': '/static/foodstim60/blackbeanswithrice.jpg', 'key': 'i', 'origWidth': 410, 'origHeight': 410, 'width': 410, 'height': 410, 'widthPercent': 0.45, 'rescaleHeight': False, 'trialN': 83, 'loaded': True, 'loadedTime': 2511.0999999940395, 'positionName': 'RIGHT', 'positionCoords': [599.04, 155], 'bid': 9.49}]",135742.59999999404,1669830236139,Grapes,blackbeanswithrice,8.950000000000001,9.49,0.5399999999999991,blackbeanswithrice,899.7000000029802,900,900.1000000089407,True,i,137150.89999999106,1408.2999999970198,1669830237547,1408,HRV,HRV_0128,2022-11-30 17:46:23
84,"[{'imgObject': {}, 'id': 'cocktailshrimp', 'src': '/static/foodstim60/cocktailshrimp.jpg', 'key': 'u', 'origWidth': 410, 'origHeight': 410, 'width': 410, 'height': 410, 'widthPercent': 0.45, 'rescaleHeight': False, 'trialN': 84, 'loaded': True, 'loadedTime': 2483.3999999910593, 'positionName': 'LEFT', 'positionCoords': [142.96, 155], 'bid': 0.1}, {'imgObject': {}, 'id': 'shreddedwheatwithmilk', 'src': '/static/foodstim60/shreddedwheatwithmilk.jpg', 'key': 'i', 'origWidth': 410, 'origHeight': 410, 'width': 410, 'height': 410, 'widthPercent': 0.45, 'rescaleHeight': False, 'trialN': 84, 'loaded': True, 'loadedTime': 2820.2000000029802, 'positionName': 'RIGHT', 'positionCoords': [599.04, 155], 'bid': 6.45}]",137151.09999999404,1669830237548,cocktailshrimp,shreddedwheatwithmilk,0.1,6.45,6.3500000000000005,shreddedwheatwithmilk,791.6000000089407,792,792.0,True,i,138446.70000000298,1295.6000000089407,1669830238843,1295,HRV,HRV_0128,2022-11-30 17:46:23
85,"[{'imgObject': {}, 'id': 'cherries', 'src': '/static/foodstim60/cherries.jpg', 'key': 'u', 'origWidth': 410, 'origHeight': 411, 'width': 410, 'height': 411, 'widthPercent': 0.45, 'rescaleHeight': False, 'trialN': 85, 'loaded': True, 'loadedTime': 2581.5, 'positionName': 'LEFT', 'positionCoords': [142.96, 154.5], 'bid': 8.68}, {'imgObject': {}, 'id': 'granola w milk', 'src': '/static/foodstim60/granola w milk.jpg', 'key': 'i', 'origWidth': 410, 'origHeight': 410, 'width': 410, 'height': 410, 'widthPercent': 0.45, 'rescaleHeight': False, 'trialN': 85, 'loaded': True, 'loadedTime': 2533.2999999970198, 'positionName': 'RIGHT', 'positionCoords': [599.04, 155], 'bid': 8.14}]",138446.89999999106,1669830238843,cherries,granola w milk,8.68,8.14,-0.5399999999999991,cherries,784.8000000119209,786,785.5,True,u,139734.89999999106,1288.0,1669830240131,1288,HRV,HRV_0128,2022-11-30 17:46:23
86,"[{'imgObject': {}, 'id': 'mac & cheese', 'src': '/static/foodstim60/mac & cheese.jpg', 'key': 'u', 'origWidth': 410, 'origHeight': 410, 'width': 410, 'height': 410, 'widthPercent': 0.45, 'rescaleHeight': False, 'trialN': 86, 'loaded': True, 'loadedTime': 2624.3999999910593, 'positionName': 'LEFT', 'positionCoords': [142.96, 155], 'bid': 4.86}, {'imgObject': {}, 'id': 'chicken nuggets2', 'src': '/static/foodstim60/chicken nuggets2.jpg', 'key': 'i', 'origWidth': 410, 'origHeight': 409, 'width': 410, 'height': 409, 'widthPercent': 0.45, 'rescaleHeight': False, 'trialN': 86, 'loaded': True, 'loadedTime': 2455.7000000029802, 'positionName': 'RIGHT', 'positionCoords': [599.04, 155.5], 'bid': 4.46}]",139735.09999999404,1669830240132,mac & cheese,chicken nuggets2,4.86,4.46,-0.40000000000000036,chicken nuggets2,950.5,950,950.7000000029802,True,i,141191.0,1455.9000000059605,1669830241588,1456,HRV,HRV_0128,2022-11-30 17:46:23
87,"[{'imgObject': {}, 'id': 'raisin bran w milk', 'src': '/static/foodstim60/raisin bran w milk.jpg', 'key': 'u', 'origWidth': 411, 'origHeight': 411, 'width': 411, 'height': 411, 'widthPercent': 0.45, 'rescaleHeight': False, 'trialN': 87, 'loaded': True, 'loadedTime': 2598.5999999940395, 'positionName': 'LEFT', 'positionCoords': [141.96, 154.5], 'bid': 8.4}, {'imgObject': {}, 'id': 'rigatoni and sauce', 'src': '/static/foodstim60/rigatoni and sauce.jpg', 'key': 'i', 'origWidth': 410, 'origHeight': 411, 'width': 410, 'height': 411, 'widthPercent': 0.45, 'rescaleHeight': False, 'trialN': 87, 'loaded': True, 'loadedTime': 2658.5, 'positionName': 'RIGHT', 'positionCoords': [599.04, 154.5], 'bid': 8.15}]",141191.29999999702,1669830241588,raisin bran w milk,rigatoni and sauce,8.4,8.15,-0.25,raisin bran w milk,1271.5,1272,1272.0,True,u,142966.39999999106,1775.0999999940395,1669830243363,1775,HRV,HRV_0128,2022-11-30 17:46:23
88,"[{'imgObject': {}, 'id': 'corn cob', 'src': '/static/foodstim60/corn cob.jpg', 'key': 'u', 'origWidth': 411, 'origHeight': 411, 'width': 411, 'height': 411, 'widthPercent': 0.45, 'rescaleHeight': False, 'trialN': 88, 'loaded': True, 'loadedTime': 2477.0999999940395, 'positionName': 'LEFT', 'positionCoords': [141.96, 154.5], 'bid': 9.21}, {'imgObject': {}, 'id': 'turkeysandwich', 'src': '/static/foodstim60/turkeysandwich.jpg', 'key': 'i', 'origWidth': 409, 'origHeight': 409, 'width': 409, 'height': 409, 'widthPercent': 0.45, 'rescaleHeight': False, 'trialN': 88, 'loaded': True, 'loadedTime': 2385.3999999910593, 'positionName': 'RIGHT', 'positionCoords': [599.04, 155.5], 'bid': 9.37}]",142966.59999999404,1669830243363,corn cob,turkeysandwich,9.21,9.37,0.15999999999999837,corn cob,986.1000000089407,987,986.7000000029802,True,u,144454.59999999404,1488.0,1669830244851,1488,HRV,HRV_0128,2022-11-30 17:46:23
89,"[{'imgObject': {}, 'id': 'eggs', 'src': '/static/foodstim60/eggs.jpg', 'key': 'u', 'origWidth': 409, 'origHeight': 409, 'width': 409, 'height': 409, 'widthPercent': 0.45, 'rescaleHeight': False, 'trialN': 89, 'loaded': True, 'loadedTime': 2630.3999999910593, 'positionName': 'LEFT', 'positionCoords': [143.96, 155.5], 'bid': 4.58}, {'imgObject': {}, 'id': 'mac & cheese', 'src': '/static/foodstim60/mac & cheese.jpg', 'key': 'i', 'origWidth': 410, 'origHeight': 410, 'width': 410, 'height': 410, 'widthPercent': 0.45, 'rescaleHeight': False, 'trialN': 89, 'loaded': True, 'loadedTime': 2624.5, 'positionName': 'RIGHT', 'positionCoords': [599.04, 155], 'bid': 4.86}]",144454.89999999106,1669830244851,eggs,mac & cheese,4.58,4.86,0.28000000000000025,mac & cheese,778.4000000059605,779,778.8000000119209,True,i,145735.70000000298,1280.800000011921,1669830246132,1281,HRV,HRV_0128,2022-11-30 17:46:23
90,"[{'imgObject': {}, 'id': 'blueberries', 'src': '/static/foodstim60/blueberries.jpg', 'key': 'u', 'origWidth': 411, 'origHeight': 411, 'width': 411, 'height': 411, 'widthPercent': 0.45, 'rescaleHeight': False, 'trialN': 90, 'loaded': True, 'loadedTime': 2650.0999999940395, 'positionName': 'LEFT', 'positionCoords': [141.96, 154.5], 'bid': 8.61}, {'imgObject': {}, 'id': 'cantaloupe', 'src': '/static/foodstim60/cantaloupe.jpg', 'key': 'i', 'origWidth': 409, 'origHeight': 409, 'width': 409, 'height': 409, 'widthPercent': 0.45, 'rescaleHeight': False, 'trialN': 90, 'loaded': True, 'loadedTime': 2447.7999999970198, 'positionName': 'RIGHT', 'positionCoords': [599.04, 155.5], 'bid': 8.69}]",148502.89999999106,1669830248899,blueberries,cantaloupe,8.61,8.69,0.08000000000000007,blueberries,2580.800000011921,2582,2581.2000000029802,True,u,151590.39999999106,3087.5,1669830251987,3088,HRV,HRV_0128,2022-11-30 17:46:23
91,"[{'imgObject': {}, 'id': 'chicken nuggets2', 'src': '/static/foodstim60/chicken nuggets2.jpg', 'key': 'u', 'origWidth': 410, 'origHeight': 409, 'width': 410, 'height': 409, 'widthPercent': 0.45, 'rescaleHeight': False, 'trialN': 91, 'loaded': True, 'loadedTime': 2455.7999999970198, 'positionName': 'LEFT', 'positionCoords': [142.96, 155.5], 'bid': 4.46}, {'imgObject': {}, 'id': 'rigatoni', 'src': '/static/foodstim60/rigatoni.jpg', 'key': 'i', 'origWidth': 411, 'origHeight': 411, 'width': 411, 'height': 411, 'widthPercent': 0.45, 'rescaleHeight': False, 'trialN': 91, 'loaded': True, 'loadedTime': 2704.2999999970198, 'positionName': 'RIGHT', 'positionCoords': [599.04, 154.5], 'bid': 6.63}]",151590.59999999404,1669830251987,chicken nuggets2,rigatoni,4.46,6.63,2.17,rigatoni,716,717,716.6000000089407,True,i,152815.29999999702,1224.7000000029802,1669830253212,1225,HRV,HRV_0128,2022-11-30 17:46:23
92,"[{'imgObject': {}, 'id': 'seaweed', 'src': '/static/foodstim60/seaweed.jpg', 'key': 'u', 'origWidth': 410, 'origHeight': 410, 'width': 410, 'height': 410, 'widthPercent': 0.45, 'rescaleHeight': False, 'trialN': 92, 'loaded': True, 'loadedTime': 2805.7999999970198, 'positionName': 'LEFT', 'positionCoords': [142.96, 155], 'bid': 0.08}, {'imgObject': {}, 'id': 'mac & cheese', 'src': '/static/foodstim60/mac & cheese.jpg', 'key': 'i', 'origWidth': 410, 'origHeight': 410, 'width': 410, 'height': 410, 'widthPercent': 0.45, 'rescaleHeight': False, 'trialN': 92, 'loaded': True, 'loadedTime': 2624.5999999940395, 'positionName': 'RIGHT', 'positionCoords': [599.04, 155], 'bid': 4.86}]",152815.39999999106,1669830253212,seaweed,mac & cheese,0.08,4.86,4.78,mac & cheese,907.9000000059605,908,908.3000000119209,True,i,154230.79999999702,1415.4000000059605,1669830254627,1415,HRV,HRV_0128,2022-11-30 17:46:23
93,"[{'imgObject': {}, 'id': 'seaweed', 'src': '/static/foodstim60/seaweed.jpg', 'key': 'u', 'origWidth': 410, 'origHeight': 410, 'width': 410, 'height': 410, 'widthPercent': 0.45, 'rescaleHeight': False, 'trialN': 93, 'loaded': True, 'loadedTime': 2805.8999999910593, 'positionName': 'LEFT', 'positionCoords': [142.96, 155], 'bid': 0.08}, {'imgObject': {}, 'id': 'mashed potato', 'src': '/static/foodstim60/mashed potato.jpg', 'key': 'i', 'origWidth': 409, 'origHeight': 409, 'width': 409, 'height': 409, 'widthPercent': 0.45, 'rescaleHeight': False, 'trialN': 93, 'loaded': True, 'loadedTime': 2501.7999999970198, 'positionName': 'RIGHT', 'positionCoords': [599.04, 155.5], 'bid': 8.26}]",154231.09999999404,1669830254628,seaweed,mashed potato,0.08,8.26,8.18,mashed potato,1001.4000000059605,1002,1002.0,True,i,155734.20000000298,1503.1000000089407,1669830256131,1503,HRV,HRV_0128,2022-11-30 17:46:23
94,"[{'imgObject': {}, 'id': 'turkeysandwich', 'src': '/static/foodstim60/turkeysandwich.jpg', 'key': 'u', 'origWidth': 409, 'origHeight': 409, 'width': 409, 'height': 409, 'widthPercent': 0.45, 'rescaleHeight': False, 'trialN': 94, 'loaded': True, 'loadedTime': 2385.8999999910593, 'positionName': 'LEFT', 'positionCoords': [143.96, 155.5], 'bid': 9.37}, {'imgObject': {}, 'id': 'blackbeanswithrice', 'src': '/static/foodstim60/blackbeanswithrice.jpg', 'key': 'i', 'origWidth': 410, 'origHeight': 410, 'width': 410, 'height': 410, 'widthPercent': 0.45, 'rescaleHeight': False, 'trialN': 94, 'loaded': True, 'loadedTime': 2511.2999999970198, 'positionName': 'RIGHT', 'positionCoords': [599.04, 155], 'bid': 9.49}]",155734.5,1669830256131,turkeysandwich,blackbeanswithrice,9.37,9.49,0.120000000000001,blackbeanswithrice,1009,1009,1009.3999999910593,True,i,157247.79999999702,1513.2999999970198,1669830257644,1513,HRV,HRV_0128,2022-11-30 17:46:23
95,"[{'imgObject': {}, 'id': 'seaweed', 'src': '/static/foodstim60/seaweed.jpg', 'key': 'u', 'origWidth': 410, 'origHeight': 410, 'width': 410, 'height': 410, 'widthPercent': 0.45, 'rescaleHeight': False, 'trialN': 95, 'loaded': True, 'loadedTime': 2805.7000000029802, 'positionName': 'LEFT', 'positionCoords': [142.96, 155], 'bid': 0.08}, {'imgObject': {}, 'id': 'froot loops w milk', 'src': '/static/foodstim60/froot loops w milk.jpg', 'key': 'i', 'origWidth': 410, 'origHeight': 410, 'width': 410, 'height': 410, 'widthPercent': 0.45, 'rescaleHeight': False, 'trialN': 95, 'loaded': True, 'loadedTime': 2568.7000000029802, 'positionName': 'RIGHT', 'positionCoords': [599.04, 155], 'bid': 3.88}]",157248.09999999404,1669830257645,seaweed,froot loops w milk,0.08,3.88,3.8,froot loops w milk,1271.4000000059605,1271,1271.9000000059605,True,i,159022.5,1774.4000000059605,1669830259419,1774,HRV,HRV_0128,2022-11-30 17:46:23
96,"[{'imgObject': {}, 'id': 'burrito', 'src': '/static/foodstim60/burrito.jpg', 'key': 'u', 'origWidth': 410, 'origHeight': 410, 'width': 410, 'height': 410, 'widthPercent': 0.45, 'rescaleHeight': False, 'trialN': 96, 'loaded': True, 'loadedTime': 2939.7000000029802, 'positionName': 'LEFT', 'positionCoords': [142.96, 155], 'bid': 8.45}, {'imgObject': {}, 'id': 'yogurt no spoon', 'src': '/static/foodstim60/yogurt no spoon.jpg', 'key': 'i', 'origWidth': 411, 'origHeight': 410, 'width': 411, 'height': 410, 'widthPercent': 0.45, 'rescaleHeight': False, 'trialN': 96, 'loaded': True, 'loadedTime': 2395.0999999940395, 'positionName': 'RIGHT', 'positionCoords': [599.04, 155], 'bid': 8.290000000000001}]",159022.70000000298,1669830259419,burrito,yogurt no spoon,8.45,8.290000000000001,-0.15999999999999837,yogurt no spoon,1183.0999999940395,1183,1183.2999999970198,True,i,160710.59999999404,1687.8999999910593,1669830261107,1688,HRV,HRV_0128,2022-11-30 17:46:23
97,"[{'imgObject': {}, 'id': 'mashed potato', 'src': '/static/foodstim60/mashed potato.jpg', 'key': 'u', 'origWidth': 409, 'origHeight': 409, 'width': 409, 'height': 409, 'widthPercent': 0.45, 'rescaleHeight': False, 'trialN': 97, 'loaded': True, 'loadedTime': 2500.0999999940395, 'positionName': 'LEFT', 'positionCoords': [143.96, 155.5], 'bid': 8.26}, {'imgObject': {}, 'id': 'roastedpotatoes', 'src': '/static/foodstim60/roastedpotatoes.jpg', 'key': 'i', 'origWidth': 409, 'origHeight': 410, 'width': 409, 'height': 410, 'widthPercent': 0.45, 'rescaleHeight': False, 'trialN': 97, 'loaded': True, 'loadedTime': 2683.7999999970198, 'positionName': 'RIGHT', 'positionCoords': [599.04, 155], 'bid': 7.98}]",160710.79999999702,1669830261107,mashed potato,roastedpotatoes,8.26,7.98,-0.27999999999999936,roastedpotatoes,1225,1226,1225.5,True,i,162438.79999999702,1728.0,1669830262835,1728,HRV,HRV_0128,2022-11-30 17:46:23
98,"[{'imgObject': {}, 'id': 'veggieswithdip', 'src': '/static/foodstim60/veggieswithdip.jpg', 'key': 'u', 'origWidth': 409, 'origHeight': 409, 'width': 409, 'height': 409, 'widthPercent': 0.45, 'rescaleHeight': False, 'trialN': 98, 'loaded': True, 'loadedTime': 2596.7000000029802, 'positionName': 'LEFT', 'positionCoords': [143.96, 155.5], 'bid': 8.24}, {'imgObject': {}, 'id': 'banana', 'src': '/static/foodstim60/banana.jpg', 'key': 'i', 'origWidth': 410, 'origHeight': 410, 'width': 410, 'height': 410, 'widthPercent': 0.45, 'rescaleHeight': False, 'trialN': 98, 'loaded': True, 'loadedTime': 2394, 'positionName': 'RIGHT', 'positionCoords': [599.04, 155], 'bid': 7.84}]",162439.09999999404,1669830262836,veggieswithdip,banana,8.24,7.84,-0.40000000000000036,veggieswithdip,1579.4000000059605,1580,1580.0,True,u,164527.5,2088.4000000059605,1669830264924,2088,HRV,HRV_0128,2022-11-30 17:46:23
99,"[{'imgObject': {}, 'id': 'sushi w_condiments', 'src': '/static/foodstim60/sushi w_condiments.jpg', 'key': 'u', 'origWidth': 410, 'origHeight': 410, 'width': 410, 'height': 410, 'widthPercent': 0.45, 'rescaleHeight': False, 'trialN': 99, 'loaded': True, 'loadedTime': 2735.8999999910593, 'positionName': 'LEFT', 'positionCoords': [142.96, 155], 'bid': 0.48}, {'imgObject': {}, 'id': 'eggs', 'src': '/static/foodstim60/eggs.jpg', 'key': 'i', 'origWidth': 409, 'origHeight': 409, 'width': 409, 'height': 409, 'widthPercent': 0.45, 'rescaleHeight': False, 'trialN': 99, 'loaded': True, 'loadedTime': 2629.7000000029802, 'positionName': 'RIGHT', 'positionCoords': [599.04, 155.5], 'bid': 4.58}]",164527.79999999702,1669830264924,sushi w_condiments,eggs,0.48,4.58,4.1,eggs,1064.7000000029802,1065,1065.2000000029802,True,i,166094.39999999106,1566.5999999940395,1669830266491,1567,HRV,HRV_0128,2022-11-30 17:46:23
100,"[{'imgObject': {}, 'id': 'salmon', 'src': '/static/foodstim60/salmon.jpg', 'key': 'u', 'origWidth': 410, 'origHeight': 409, 'width': 410, 'height': 409, 'widthPercent': 0.45, 'rescaleHeight': False, 'trialN': 100, 'loaded': True, 'loadedTime': 2410.5999999940395, 'positionName': 'LEFT', 'positionCoords': [142.96, 155.5], 'bid': 0}, {'imgObject': {}, 'id': 'veggieswithdip', 'src': '/static/foodstim60/veggieswithdip.jpg', 'key': 'i', 'origWidth': 409, 'origHeight': 409, 'width': 409, 'height': 409, 'widthPercent': 0.45, 'rescaleHeight': False, 'trialN': 100, 'loaded': True, 'loadedTime': 2596.5999999940395, 'positionName': 'RIGHT', 'positionCoords': [599.04, 155.5], 'bid': 8.24}]",166094.70000000298,1669830266491,salmon,veggieswithdip,0.0,8.24,8.24,veggieswithdip,964.7999999970198,966,965.2999999970198,True,i,167566.70000000298,1472.0,1669830267963,1472,HRV,HRV_0128,2022-11-30 17:46:23
101,"[{'imgObject': {}, 'id': 'sweetpotato', 'src': '/static/foodstim60/sweetpotato.jpg', 'key': 'u', 'origWidth': 410, 'origHeight': 410, 'width': 410, 'height': 410, 'widthPercent': 0.45, 'rescaleHeight': False, 'trialN': 101, 'loaded': True, 'loadedTime': 2625.5, 'positionName': 'LEFT', 'positionCoords': [142.96, 155], 'bid': 7.84}, {'imgObject': {}, 'id': 'chickenfingers', 'src': '/static/foodstim60/chickenfingers.jpg', 'key': 'i', 'origWidth': 410, 'origHeight': 410, 'width': 410, 'height': 410, 'widthPercent': 0.45, 'rescaleHeight': False, 'trialN': 101, 'loaded': True, 'loadedTime': 2536.5, 'positionName': 'RIGHT', 'positionCoords': [599.04, 155], 'bid': 7.01}]",167567.0,1669830267963,sweetpotato,chickenfingers,7.84,7.01,-0.8300000000000001,chickenfingers,953.3999999910593,954,953.7999999970198,True,i,169022.09999999404,1455.0999999940395,1669830269419,1456,HRV,HRV_0128,2022-11-30 17:46:23
102,"[{'imgObject': {}, 'id': 'eggs', 'src': '/static/foodstim60/eggs.jpg', 'key': 'u', 'origWidth': 409, 'origHeight': 409, 'width': 409, 'height': 409, 'widthPercent': 0.45, 'rescaleHeight': False, 'trialN': 102, 'loaded': True, 'loadedTime': 2630.5, 'positionName': 'LEFT', 'positionCoords': [143.96, 155.5], 'bid': 4.58}, {'imgObject': {}, 'id': 'ice cream sundae 002', 'src': '/static/foodstim60/ice cream sundae 002.jpg', 'key': 'i', 'origWidth': 409, 'origHeight': 409, 'width': 409, 'height': 409, 'widthPercent': 0.45, 'rescaleHeight': False, 'trialN': 102, 'loaded': True, 'loadedTime': 2401.3999999910593, 'positionName': 'RIGHT', 'positionCoords': [599.04, 155.5], 'bid': 8.75}]",169022.39999999106,1669830269419,eggs,ice cream sundae 002,4.58,8.75,4.17,ice cream sundae 002,802.8000000119209,803,803.2000000029802,True,i,170327.39999999106,1305.0,1669830270724,1305,HRV,HRV_0128,2022-11-30 17:46:23
103,"[{'imgObject': {}, 'id': 'yogurt no spoon', 'src': '/static/foodstim60/yogurt no spoon.jpg', 'key': 'u', 'origWidth': 411, 'origHeight': 410, 'width': 411, 'height': 410, 'widthPercent': 0.45, 'rescaleHeight': False, 'trialN': 103, 'loaded': True, 'loadedTime': 2398.3999999910593, 'positionName': 'LEFT', 'positionCoords': [141.96, 155], 'bid': 8.290000000000001}, {'imgObject': {}, 'id': 'sweetpotato', 'src': '/static/foodstim60/sweetpotato.jpg', 'key': 'i', 'origWidth': 410, 'origHeight': 410, 'width': 410, 'height': 410, 'widthPercent': 0.45, 'rescaleHeight': False, 'trialN': 103, 'loaded': True, 'loadedTime': 2625.3999999910593, 'positionName': 'RIGHT', 'positionCoords': [599.04, 155], 'bid': 7.84}]",170327.59999999404,1669830270724,yogurt no spoon,sweetpotato,8.290000000000001,7.84,-0.45000000000000107,yogurt no spoon,741.9000000059605,743,742.4000000059605,True,u,171574.70000000298,1247.1000000089407,1669830271971,1247,HRV,HRV_0128,2022-11-30 17:46:23
104,"[{'imgObject': {}, 'id': 'raisin bran w milk', 'src': '/static/foodstim60/raisin bran w milk.jpg', 'key': 'u', 'origWidth': 411, 'origHeight': 411, 'width': 411, 'height': 411, 'widthPercent': 0.45, 'rescaleHeight': False, 'trialN': 104, 'loaded': True, 'loadedTime': 2597.3999999910593, 'positionName': 'LEFT', 'positionCoords': [141.96, 154.5], 'bid': 8.4}, {'imgObject': {}, 'id': 'mango', 'src': '/static/foodstim60/mango.jpg', 'key': 'i', 'origWidth': 411, 'origHeight': 411, 'width': 411, 'height': 411, 'widthPercent': 0.45, 'rescaleHeight': False, 'trialN': 104, 'loaded': True, 'loadedTime': 2656.3999999910593, 'positionName': 'RIGHT', 'positionCoords': [599.04, 154.5], 'bid': 8.26}]",171574.89999999106,1669830271971,raisin bran w milk,mango,8.4,8.26,-0.14000000000000057,raisin bran w milk,932.5,933,933.0,True,u,173014.79999999702,1439.9000000059605,1669830273411,1440,HRV,HRV_0128,2022-11-30 17:46:23
105,"[{'imgObject': {}, 'id': 'tacos', 'src': '/static/foodstim60/tacos.jpg', 'key': 'u', 'origWidth': 411, 'origHeight': 411, 'width': 411, 'height': 411, 'widthPercent': 0.45, 'rescaleHeight': False, 'trialN': 105, 'loaded': True, 'loadedTime': 2803.7999999970198, 'positionName': 'LEFT', 'positionCoords': [141.96, 154.5], 'bid': 8.950000000000001}, {'imgObject': {}, 'id': 'hotdog w must', 'src': '/static/foodstim60/hotdog w must.jpg', 'key': 'i', 'origWidth': 409, 'origHeight': 409, 'width': 409, 'height': 409, 'widthPercent': 0.45, 'rescaleHeight': False, 'trialN': 105, 'loaded': True, 'loadedTime': 2654.3999999910593, 'positionName': 'RIGHT', 'positionCoords': [599.04, 155.5], 'bid': 5.64}]",173015.09999999404,1669830273412,tacos,hotdog w must,8.950000000000001,5.64,-3.3100000000000014,tacos,859.5,860,860.0,True,u,174382.20000000298,1367.1000000089407,1669830274779,1367,HRV,HRV_0128,2022-11-30 17:46:23
106,"[{'imgObject': {}, 'id': 'avocado', 'src': '/static/foodstim60/avocado.jpg', 'key': 'u', 'origWidth': 409, 'origHeight': 409, 'width': 409, 'height': 409, 'widthPercent': 0.45, 'rescaleHeight': False, 'trialN': 106, 'loaded': True, 'loadedTime': 2893.3999999910593, 'positionName': 'LEFT', 'positionCoords': [143.96, 155.5], 'bid': 5.95}, {'imgObject': {}, 'id': 'hotdog w must', 'src': '/static/foodstim60/hotdog w must.jpg', 'key': 'i', 'origWidth': 409, 'origHeight': 409, 'width': 409, 'height': 409, 'widthPercent': 0.45, 'rescaleHeight': False, 'trialN': 106, 'loaded': True, 'loadedTime': 2653.3999999910593, 'positionName': 'RIGHT', 'positionCoords': [599.04, 155.5], 'bid': 5.64}]",174382.39999999106,1669830274779,avocado,hotdog w must,5.95,5.64,-0.3100000000000005,avocado,1005.8000000119209,1006,1006.3000000119209,True,u,175894.29999999702,1511.9000000059605,1669830276291,1512,HRV,HRV_0128,2022-11-30 17:46:23
107,"[{'imgObject': {}, 'id': 'rigatoni and sauce', 'src': '/static/foodstim60/rigatoni and sauce.jpg', 'key': 'u', 'origWidth': 410, 'origHeight': 411, 'width': 410, 'height': 411, 'widthPercent': 0.45, 'rescaleHeight': False, 'trialN': 107, 'loaded': True, 'loadedTime': 2658.7999999970198, 'positionName': 'LEFT', 'positionCoords': [142.96, 154.5], 'bid': 8.15}, {'imgObject': {}, 'id': 'cantaloupe', 'src': '/static/foodstim60/cantaloupe.jpg', 'key': 'i', 'origWidth': 409, 'origHeight': 409, 'width': 409, 'height': 409, 'widthPercent': 0.45, 'rescaleHeight': False, 'trialN': 107, 'loaded': True, 'loadedTime': 2446.2999999970198, 'positionName': 'RIGHT', 'positionCoords': [599.04, 155.5], 'bid': 8.69}]",175894.59999999404,1669830276291,rigatoni and sauce,cantaloupe,8.15,8.69,0.5399999999999991,cantaloupe,681.7000000029802,682,682.2000000029802,True,i,177079.39999999106,1184.7999999970198,1669830277476,1185,HRV,HRV_0128,2022-11-30 17:46:23
