success,trial_type,trial_index,time_elapsed,internal_node_id,Block,TrialNumber,TrialTime,trialTimeDiff,FPS_avg,FPS_med,FPS_mode,TrialDur,winResizeTime,rt,block,button_pressed,MotCoh,MotDir,ColCoh,Color,ChoiceKey,Choice,Accuracy,RT,nFrames,FPS,PPD,missTrial,missTrialMsg,onsetDelay,fullScreenExitTime,canvCenter,TrialType,Score,BlockTrial,stimulus,button_labels,exp,subjectId,date
True,fullscreen,0,3240,0.0-0.0,0.0,1.0,,,,,,,,,,,,,,,,,,,,,,,,,,,,,,,,HRV,HRV_0033,2022-11-30 17:57:37
,wl-check-fps,1,8304,0.0-1.0,0.0,2.0,"[4693, 4704.2, 4713.8, 4733.5, 4749.7, 4767.4, 4787.6, 4799.2, 4814, 4830.5, 4847.3, 4863.8, 4880.5, 4897.2, 4913.9, 4930.6, 4947.3, 4963.9, 4981.6, 5000.7, 5013.9, 5030.5, 5047.2, 5064.2, 5080.5, 5097.2, 5113.8, 5130.5, 5147.3, 5174.8, 5186.3, 5207.5, 5220.2, 5230.6, 5247.2, 5263.7, 5280.5, 5318.1, 5323.2, 5335.9, 5348.7, 5365.9, 5382.9, 5398.3, 5444.1, 5448.6, 5451.2, 5465.1, 5481.7, 5498.6, 5515.3, 5531.9, 5548.6, 5565.6, 5582, 5604.3, 5614.9, 5631.5, 5648.2, 5668.5, 5682.7, 5698.6, 5716.2, 5731.6, 5748.8, 5765.5, 5781.8, 5798.3, 5814.9, 5832.2, 5853.9, 5877.5, 5884.3, 5897.3, 5913.7, 5930.3, 5947, 5963.7, 5980.4, 5997, 6014.2, 6032.8, 6048.7, 6065.8, 6081.5, 6098, 6114.6, 6131.1, 6147.8, 6164.8, 6184.1, 6197.5, 6214.2, 6230.8, 6248.4, 6265.4, 6281.2, 6297.5, 6314.2, 6330.9, 6350.5, 6367.4, 6380.6, 6397.7, 6414, 6430.7, 6447.7, 6465.9, 6481.5, 6498.2, 6514.5, 6531.8, 6548.3, 6565.1, 6581.6, 6598.5, 6614.1, 6632.1, 6648.1, 6665.1, 6681.4, 6701.6, 6714, 6730.7, 6748.2, 6766.5, 6781.9, 6799.3, 6815.1, 6835.4, 6848.7, 6864.3, 6880.7, 6897.5, 6913.8, 6930.7, 6946.9, 6963.6, 6980.4, 6997.5, 7014.2, 7031.1, 7048.2, 7064.9, 7082.9, 7098.9, 7116, 7132.6, 7149.7, 7164.1, 7185.3, 7197.6, 7214, 7230.6, 7247.4, 7264, 7280.7, 7300.4, 7317.2, 7330.5, 7348.5, 7365.8, 7381.4, 7397.8, 7414.3, 7431, 7447.7, 7465.6, 7481.7, 7498.3, 7517.4, 7530.5, 7547.1, 7563.9, 7580.5, 7597.2, 7614.1, 7630.6, 7647.3, 7664.3, 7682, 7699.4, 7715.5, 7732.5, 7753.1, 7764.8, 7780.7, 7797.2, 7814.1, 7831.6, 7849, 7864, 7882.4, 7897.4, 7914.3, 7931.2, 7948.1, 7964.4, 7980.8, 7998.3, 8014, 8031.2, 8048.1, 8064.6, 8083.1, 8098.7, 8115.6, 8131.5, 8148.5, 8168.6, 8180.2, 8210.8, 8235.9, 8254.4, 8271.8, 8285.5, 8299.6, 8322.4, 8333.3, 8351.9, 8366.8, 8385.7, 8398.1, 8421.1, 8438.8, 8450.4, 8469.8, 8485.1, 8497.7, 8514.9, 8533.2, 8550.3, 8565.1, 8580.5, 8597.8, 8616.4, 8635.3, 8648.6, 8664.1, 8681.3, 8697.5, 8715.5, 8732.6, 8749.5, 8766.9, 8782.7, 8800.6, 8816.9, 8834.3, 8850.5, 8866.1, 8881.2, 8897.7, 8913.7, 8931.1, 8947, 8963.4, 8979.9, 8997.3, 9014.3, 9030.1, 9049.4, 9065.6, 9081.9, 9098.9, 9115.4, 9132, 9149.4, 9165.6, 9182.2, 9199.2, 9216.1, 9231.6, 9248.7, 9265.3, 9281.2, 9298, 9314.6, 9331.5, 9348.8, 9365.5, 9381.5, 9398.6, 9414.9, 9431.8, 9450.2, 9464.7, 9481.5, 9497.7, 9514.5, 9532.9, 9556.7, 9564.6, 9581.2, 9597.9, 9614.4, 9631.4, 9648, 9664.4, 9681]","[20.8, 11.2, 9.6, 19.7, 16.2, 17.7, 20.2, 11.6, 14.8, 16.5, 16.8, 16.5, 16.7, 16.7, 16.7, 16.7, 16.7, 16.6, 17.7, 19.1, 13.2, 16.6, 16.7, 17, 16.3, 16.7, 16.6, 16.7, 16.8, 27.5, 11.5, 21.2, 12.7, 10.4, 16.6, 16.5, 16.8, 37.6, 5.1, 12.7, 12.8, 17.2, 17, 15.4, 45.8, 4.5, 2.6, 13.9, 16.6, 16.9, 16.7, 16.6, 16.7, 17, 16.4, 22.3, 10.6, 16.6, 16.7, 20.3, 14.2, 15.9, 17.6, 15.4, 17.2, 16.7, 16.3, 16.5, 16.6, 17.3, 21.7, 23.6, 6.8, 13, 16.4, 16.6, 16.7, 16.7, 16.7, 16.6, 17.2, 18.6, 15.9, 17.1, 15.7, 16.5, 16.6, 16.5, 16.7, 17, 19.3, 13.4, 16.7, 16.6, 17.6, 17, 15.8, 16.3, 16.7, 16.7, 19.6, 16.9, 13.2, 17.1, 16.3, 16.7, 17, 18.2, 15.6, 16.7, 16.3, 17.3, 16.5, 16.8, 16.5, 16.9, 15.6, 18, 16, 17, 16.3, 20.2, 12.4, 16.7, 17.5, 18.3, 15.4, 17.4, 15.8, 20.3, 13.3, 15.6, 16.4, 16.8, 16.3, 16.9, 16.2, 16.7, 16.8, 17.1, 16.7, 16.9, 17.1, 16.7, 18, 16, 17.1, 16.6, 17.1, 14.4, 21.2, 12.3, 16.4, 16.6, 16.8, 16.6, 16.7, 19.7, 16.8, 13.3, 18, 17.3, 15.6, 16.4, 16.5, 16.7, 16.7, 17.9, 16.1, 16.6, 19.1, 13.1, 16.6, 16.8, 16.6, 16.7, 16.9, 16.5, 16.7, 17, 17.7, 17.4, 16.1, 17, 20.6, 11.7, 15.9, 16.5, 16.9, 17.5, 17.4, 15, 18.4, 15, 16.9, 16.9, 16.9, 16.3, 16.4, 17.5, 15.7, 17.2, 16.9, 16.5, 18.5, 15.6, 16.9, 15.9, 17, 20.1, 11.6, 30.6, 25.1, 18.5, 17.4, 13.7, 14.1, 22.8, 10.9, 18.6, 14.9, 18.9, 12.4, 23, 17.7, 11.6, 19.4, 15.3, 12.6, 17.2, 18.3, 17.1, 14.8, 15.4, 17.3, 18.6, 18.9, 13.3, 15.5, 17.2, 16.2, 18, 17.1, 16.9, 17.4, 15.8, 17.9, 16.3, 17.4, 16.2, 15.6, 15.1, 16.5, 16, 17.4, 15.9, 16.4, 16.5, 17.4, 17, 15.8, 19.3, 16.2, 16.3, 17, 16.5, 16.6, 17.4, 16.2, 16.6, 17, 16.9, 15.5, 17.1, 16.6, 15.9, 16.8, 16.6, 16.9, 17.3, 16.7, 16, 17.1, 16.3, 16.9, 18.4, 14.5, 16.8, 16.2, 16.8, 18.4, 23.8, 7.9, 16.6, 16.7, 16.5, 17, 16.6, 16.4, 16.6]",60.0,56.0,60.0,5025.6,[],,,,,,,,,,,,,,,,,,,,,,,,,HRV,HRV_0033,2022-11-30 17:57:37
,wl-html-keyboard-response,2,29079,0.0-2.0-0.0,0.0,3.0,,,,,,,,18722.39999999851,0.0,0,,,,,,,,,,,,,,,,,,,,,,HRV,HRV_0033,2022-11-30 17:57:37
,wl-rdm,3,36666,0.0-3.0-0.0,0.0,4.0,,,,,,,[],,,,0.0,0.0,87.9,0.0,u,0.0,True,1955.2999999970198,113.0,60.0,40.0,False,,3000.0,[],"[768, 432]",ColorTask_Demo,,,,,HRV,HRV_0033,2022-11-30 17:57:37
,wl-rdm,4,41981,0.0-3.0-1.0,0.0,5.0,,,,,,,[],,,,0.0,0.0,87.9,1.0,i,1.0,True,1234.3000000044703,74.0,60.0,40.0,False,,2000.0,[],"[768, 432]",ColorTask_Demo,,,,,HRV,HRV_0033,2022-11-30 17:57:37
,wl-html-keyboard-response,5,47039,0.0-3.0-2.0,0.0,6.0,,,,,,,,3039.39999999851,0.0,1,,,,,,,,,,,,,,,,,,,,,,HRV,HRV_0033,2022-11-30 17:57:37
,wl-html-keyboard-response,6,58039,0.0-4.0-0.0,0.0,7.0,,,,,,,,8987.60000000149,0.0,0,,,,,,,,,,,,,,,,,,,,,,HRV,HRV_0033,2022-11-30 17:57:37
,wl-html-keyboard-response,7,71511,0.0-5.0-0.0,0.0,8.0,,,,,,,,11465.29999999702,0.0,0,,,,,,,,,,,,,,,,,,,,,,HRV,HRV_0033,2022-11-30 17:57:37
,wl-rdm,8,73794,0.0-6.0-0.0,0.0,9.0,,,,,,,[],,,,,,87.9,0.0,u,0.0,True,991.2000000029802,59.0,60.0,40.0,False,,225.9250627949514,[],"[768, 432]",ColorTask,1.0,1.0,,,HRV,HRV_0033,2022-11-30 17:57:37
,wl-rdm,9,75979,0.0-6.1-0.1,0.0,10.0,,,,,,,[],,,,,,73.6,0.0,u,0.0,True,820.7000000029802,50.0,60.0,40.0,False,,289.34888741832924,[],"[768, 432]",ColorTask,2.0,2.0,,,HRV,HRV_0033,2022-11-30 17:57:37
,wl-rdm,10,77910,0.0-6.2-0.2,0.0,11.0,,,,,,,[],,,,,,62.5,0.0,u,0.0,True,577.1999999955297,35.0,60.0,40.0,False,,263.8306715732966,[],"[768, 432]",ColorTask,3.0,3.0,,,HRV,HRV_0033,2022-11-30 17:57:37
,wl-rdm,11,80115,0.0-6.3-0.3,0.0,12.0,,,,,,,[],,,,,,50.0,1.0,u,0.0,False,816.8999999985099,49.0,60.0,40.0,False,,305.45874974436356,[],"[768, 432]",ColorTask,2.0,4.0,,,HRV,HRV_0033,2022-11-30 17:57:37
,wl-rdm,12,82609,0.0-6.4-0.4,0.0,13.0,,,,,,,[],,,,,,56.4,0.0,i,1.0,False,1141.0,68.0,60.0,40.0,False,,283.66532541671296,[],"[768, 432]",ColorTask,1.0,5.0,,,HRV,HRV_0033,2022-11-30 17:57:37
,wl-rdm,13,85309,0.0-6.5-0.5,0.0,14.0,,,,,,,[],,,,,,56.4,0.0,i,1.0,False,1392.6000000014901,83.0,60.0,40.0,False,,224.23724234695518,[],"[768, 432]",ColorTask,0.0,6.0,,,HRV,HRV_0033,2022-11-30 17:57:37
,wl-rdm,14,87659,0.0-6.6-0.6,0.0,15.0,,,,,,,[],,,,,,53.2,1.0,i,1.0,True,1024.2000000029802,62.0,60.0,40.0,False,,252.8525330851844,[],"[768, 432]",ColorTask,1.0,7.0,,,HRV,HRV_0033,2022-11-30 17:57:37
,wl-rdm,15,89824,0.0-6.7-0.7,0.0,16.0,,,,,,,[],,,,,,73.6,1.0,i,1.0,True,773.1000000014901,47.0,60.0,40.0,False,,309.7233404518173,[],"[768, 432]",ColorTask,2.0,8.0,,,HRV,HRV_0033,2022-11-30 17:57:37
,wl-rdm,16,92723,0.0-6.8-0.8,0.0,17.0,,,,,,,[],,,,,,53.2,0.0,i,1.0,False,1456.8000000044703,88.0,60.0,40.0,False,,343.58179976079987,[],"[768, 432]",ColorTask,1.0,9.0,,,HRV,HRV_0033,2022-11-30 17:57:37
,wl-rdm,17,94973,0.0-6.9-0.9,0.0,18.0,,,,,,,[],,,,,,73.6,0.0,u,0.0,True,961.7000000029802,56.0,60.0,40.0,False,,208.39681503429472,[],"[768, 432]",ColorTask,2.0,10.0,,,HRV,HRV_0033,2022-11-30 17:57:37
,wl-rdm,18,97124,0.0-6.10-0.10,0.0,19.0,,,,,,,[],,,,,,73.6,1.0,i,1.0,True,705.0000000074506,42.0,60.0,40.0,False,,379.7054596469314,[],"[768, 432]",ColorTask,3.0,11.0,,,HRV,HRV_0033,2022-11-30 17:57:37
,wl-rdm,19,99330,0.0-6.11-0.11,0.0,20.0,,,,,,,[],,,,,,73.6,0.0,u,0.0,True,917.9000000059605,56.0,60.0,40.0,False,,209.91529420481305,[],"[768, 432]",ColorTask,4.0,12.0,,,HRV,HRV_0033,2022-11-30 17:57:37
,wl-rdm,20,101556,0.0-6.12-0.12,0.0,21.0,,,,,,,[],,,,,,62.5,1.0,i,1.0,True,757.9999999925494,45.0,60.0,40.0,False,,382.0439774678381,[],"[768, 432]",ColorTask,5.0,13.0,,,HRV,HRV_0033,2022-11-30 17:57:37
,wl-rdm,21,103705,0.0-6.13-0.13,0.0,22.0,,,,,,,[],,,,,,87.9,0.0,u,0.0,True,688.6000000089407,35.0,60.0,40.0,False,,397.75648391048355,[],"[768, 432]",ColorTask,6.0,14.0,,,HRV,HRV_0033,2022-11-30 17:57:37
,wl-rdm,22,105689,0.0-6.14-0.14,0.0,23.0,,,,,,,[],,,,,,87.9,0.0,u,0.0,True,685.5,41.0,60.0,40.0,False,,231.57055909341338,[],"[768, 432]",ColorTask,7.0,15.0,,,HRV,HRV_0033,2022-11-30 17:57:37
,wl-rdm,23,107772,0.0-6.15-0.15,0.0,24.0,,,,,,,[],,,,,,62.5,0.0,u,0.0,True,696.7999999970198,40.0,60.0,40.0,False,,303.7590356116535,[],"[768, 432]",ColorTask,8.0,16.0,,,HRV,HRV_0033,2022-11-30 17:57:37
,wl-rdm,24,109656,0.0-6.16-0.16,0.0,25.0,,,,,,,[],,,,,,50.0,0.0,u,0.0,True,592.1999999955297,36.0,60.0,40.0,False,,226.1738800733219,[],"[768, 432]",ColorTask,9.0,17.0,,,HRV,HRV_0033,2022-11-30 17:57:37
,wl-rdm,25,111721,0.0-6.17-0.17,0.0,26.0,,,,,,,[],,,,,,53.2,0.0,u,0.0,True,779.9000000059605,48.0,60.0,40.0,False,,222.59323562758965,[],"[768, 432]",ColorTask,10.0,18.0,,,HRV,HRV_0033,2022-11-30 17:57:37
,wl-rdm,26,113777,0.0-6.18-0.18,0.0,27.0,,,,,,,[],,,,,,87.9,0.0,u,0.0,True,758.0999999940395,46.0,60.0,40.0,False,,214.3836314217652,[],"[768, 432]",ColorTask,11.0,19.0,,,HRV,HRV_0033,2022-11-30 17:57:37
,wl-rdm,27,116204,0.0-6.19-0.19,0.0,28.0,,,,,,,[],,,,,,53.2,1.0,u,0.0,False,1072.2999999970198,61.0,60.0,40.0,False,,266.2805548228254,[],"[768, 432]",ColorTask,10.0,20.0,,,HRV,HRV_0033,2022-11-30 17:57:37
,wl-rdm,28,118358,0.0-6.20-0.20,0.0,29.0,,,,,,,[],,,,,,73.6,1.0,i,1.0,True,702.8999999985099,42.0,60.0,40.0,False,,373.4317188573257,[],"[768, 432]",ColorTask,11.0,21.0,,,HRV,HRV_0033,2022-11-30 17:57:37
,wl-rdm,29,120755,0.0-6.21-0.21,0.0,30.0,,,,,,,[],,,,,,53.2,0.0,u,0.0,True,1044.4999999925494,62.0,60.0,40.0,False,,260.2192407826409,[],"[768, 432]",ColorTask,12.0,22.0,,,HRV,HRV_0033,2022-11-30 17:57:37
,wl-rdm,30,122903,0.0-6.22-0.22,0.0,31.0,,,,,,,[],,,,,,56.4,1.0,i,1.0,True,798.0,48.0,60.0,40.0,False,,293.4986818969499,[],"[768, 432]",ColorTask,13.0,23.0,,,HRV,HRV_0033,2022-11-30 17:57:37
,wl-rdm,31,125036,0.0-6.23-0.23,0.0,32.0,,,,,,,[],,,,,,87.9,1.0,i,1.0,True,812.7000000029802,49.0,60.0,40.0,False,,222.56747802460495,[],"[768, 432]",ColorTask,14.0,24.0,,,HRV,HRV_0033,2022-11-30 17:57:37
,wl-rdm,32,127253,0.0-6.24-0.24,0.0,33.0,,,,,,,[],,,,,,56.4,1.0,i,1.0,True,902.8999999910593,55.0,60.0,40.0,False,,243.00350936082117,[],"[768, 432]",ColorTask,15.0,25.0,,,HRV,HRV_0033,2022-11-30 17:57:37
,wl-rdm,33,129321,0.0-6.25-0.25,0.0,34.0,,,,,,,[],,,,,,50.0,1.0,i,1.0,True,708.0999999940395,41.0,60.0,40.0,False,,269.9803824604388,[],"[768, 432]",ColorTask,16.0,26.0,,,HRV,HRV_0033,2022-11-30 17:57:37
,wl-rdm,34,131677,0.0-6.26-0.26,0.0,35.0,,,,,,,[],,,,,,53.2,1.0,i,1.0,True,1035.8000000044703,63.0,60.0,40.0,False,,243.29422700774523,[],"[768, 432]",ColorTask,17.0,27.0,,,HRV,HRV_0033,2022-11-30 17:57:37
,wl-rdm,35,133901,0.0-6.27-0.27,0.0,36.0,,,,,,,[],,,,,,62.5,1.0,i,1.0,True,831.3999999985099,49.0,60.0,40.0,False,,343.62915062115184,[],"[768, 432]",ColorTask,18.0,28.0,,,HRV,HRV_0033,2022-11-30 17:57:37
,wl-rdm,36,136220,0.0-6.28-0.28,0.0,37.0,,,,,,,[],,,,,,62.5,0.0,i,1.0,False,1010.8999999985099,61.0,60.0,40.0,False,,203.54084727763336,[],"[768, 432]",ColorTask,17.0,29.0,,,HRV,HRV_0033,2022-11-30 17:57:37
,wl-rdm,37,138418,0.0-6.29-0.29,0.0,38.0,,,,,,,[],,,,,,62.5,0.0,u,0.0,True,826.8000000044703,49.0,60.0,40.0,False,,297.28739032302786,[],"[768, 432]",ColorTask,18.0,30.0,,,HRV,HRV_0033,2022-11-30 17:57:37
,wl-rdm,38,140652,0.0-6.30-0.30,0.0,39.0,,,,,,,[],,,,,,50.0,1.0,u,0.0,False,895.9999999925494,53.0,60.0,40.0,False,,276.16407546151123,[],"[768, 432]",ColorTask,17.0,31.0,,,HRV,HRV_0033,2022-11-30 17:57:37
,wl-rdm,39,142984,0.0-6.31-0.31,0.0,40.0,,,,,,,[],,,,,,53.2,0.0,u,0.0,True,923.8999999985099,54.0,60.0,40.0,False,,344.84178403483475,[],"[768, 432]",ColorTask,18.0,32.0,,,HRV,HRV_0033,2022-11-30 17:57:37
,wl-rdm,40,144951,0.0-6.32-0.32,0.0,41.0,,,,,,,[],,,,,,87.9,1.0,i,1.0,True,657.2999999970198,40.0,60.0,40.0,False,,220.57436810504754,[],"[768, 432]",ColorTask,19.0,33.0,,,HRV,HRV_0033,2022-11-30 17:57:37
,wl-rdm,41,147067,0.0-6.33-0.33,0.0,42.0,,,,,,,[],,,,,,87.9,1.0,i,1.0,True,669.0,40.0,60.0,40.0,False,,377.38801117698347,[],"[768, 432]",ColorTask,20.0,34.0,,,HRV,HRV_0033,2022-11-30 17:57:37
,wl-rdm,42,149651,0.0-6.34-0.34,0.0,43.0,,,,,,,[],,,,,,53.2,0.0,i,1.0,False,1107.2000000029802,66.0,60.0,40.0,False,,392.9055456230312,[],"[768, 432]",ColorTask,19.0,35.0,,,HRV,HRV_0033,2022-11-30 17:57:37
,wl-rdm,43,151671,0.0-6.35-0.35,0.0,44.0,,,,,,,[],,,,,,87.9,0.0,u,0.0,True,690.1000000089407,41.0,60.0,40.0,False,,254.38253656827015,[],"[768, 432]",ColorTask,20.0,36.0,,,HRV,HRV_0033,2022-11-30 17:57:37
,wl-rdm,44,153848,0.0-6.36-0.36,0.0,45.0,,,,,,,[],,,,,,62.5,0.0,u,0.0,True,732.1000000014901,44.0,60.0,40.0,False,,334.86903041081763,[],"[768, 432]",ColorTask,21.0,37.0,,,HRV,HRV_0033,2022-11-30 17:57:37
,wl-rdm,45,156099,0.0-6.37-0.37,0.0,46.0,,,,,,,[],,,,,,56.4,1.0,i,1.0,True,843.3999999985099,51.0,60.0,40.0,False,,315.5633789877441,[],"[768, 432]",ColorTask,22.0,38.0,,,HRV,HRV_0033,2022-11-30 17:57:37
,wl-rdm,46,158366,0.0-6.38-0.38,0.0,47.0,,,,,,,[],,,,,,62.5,0.0,u,0.0,True,957.0,57.0,60.0,40.0,False,,241.61766181746026,[],"[768, 432]",ColorTask,23.0,39.0,,,HRV,HRV_0033,2022-11-30 17:57:37
,wl-rdm,47,160699,0.0-6.39-0.39,0.0,48.0,,,,,,,[],,,,,,73.6,1.0,i,1.0,True,974.8999999985099,59.0,60.0,40.0,False,,299.33072536727957,[],"[768, 432]",ColorTask,24.0,40.0,,,HRV,HRV_0033,2022-11-30 17:57:37
,wl-rdm,48,163033,0.0-6.40-0.40,0.0,49.0,,,,,,,[],,,,,,73.6,0.0,u,0.0,True,928.7999999970198,56.0,60.0,40.0,False,,342.5762017487811,[],"[768, 432]",ColorTask,25.0,41.0,,,HRV,HRV_0033,2022-11-30 17:57:37
,wl-rdm,49,165479,0.0-6.41-0.41,0.0,50.0,,,,,,,[],,,,,,53.2,0.0,u,0.0,True,1083.5000000074506,63.0,60.0,40.0,False,,292.62794557031657,[],"[768, 432]",ColorTask,26.0,42.0,,,HRV,HRV_0033,2022-11-30 17:57:37
,wl-rdm,50,167714,0.0-6.42-0.42,0.0,51.0,,,,,,,[],,,,,,56.4,0.0,u,0.0,True,814.7999999970198,49.0,60.0,40.0,False,,366.2381185659351,[],"[768, 432]",ColorTask,27.0,43.0,,,HRV,HRV_0033,2022-11-30 17:57:37
,wl-rdm,51,169866,0.0-6.43-0.43,0.0,52.0,,,,,,,[],,,,,,87.9,1.0,i,1.0,True,770.3999999985099,47.0,60.0,40.0,False,,311.9563159732851,[],"[768, 432]",ColorTask,28.0,44.0,,,HRV,HRV_0033,2022-11-30 17:57:37
,wl-rdm,52,172398,0.0-6.44-0.44,0.0,53.0,,,,,,,[],,,,,,73.6,0.0,i,1.0,False,1106.9000000059605,67.0,60.0,40.0,False,,299.4368654935514,[],"[768, 432]",ColorTask,27.0,45.0,,,HRV,HRV_0033,2022-11-30 17:57:37
,wl-rdm,53,175030,0.0-6.45-0.45,0.0,54.0,,,,,,,[],,,,,,56.4,1.0,u,0.0,False,1341.1999999955297,76.0,60.0,40.0,False,,226.6975428145355,[],"[768, 432]",ColorTask,26.0,46.0,,,HRV,HRV_0033,2022-11-30 17:57:37
,wl-rdm,54,177246,0.0-6.46-0.46,0.0,55.0,,,,,,,[],,,,,,62.5,1.0,i,1.0,True,908.2999999895692,55.0,60.0,40.0,False,,232.6646716413762,[],"[768, 432]",ColorTask,27.0,47.0,,,HRV,HRV_0033,2022-11-30 17:57:37
,wl-rdm,55,179495,0.0-6.47-0.47,0.0,56.0,,,,,,,[],,,,,,50.0,1.0,u,0.0,False,953.3999999985099,58.0,60.0,40.0,False,,200.14666991872147,[],"[768, 432]",ColorTask,26.0,48.0,,,HRV,HRV_0033,2022-11-30 17:57:37
,wl-rdm,56,181749,0.0-6.48-0.48,0.0,57.0,,,,,,,[],,,,,,50.0,1.0,u,0.0,False,868.2999999970198,52.0,60.0,40.0,False,,330.36097223267876,[],"[768, 432]",ColorTask,25.0,49.0,,,HRV,HRV_0033,2022-11-30 17:57:37
,wl-rdm,57,184116,0.0-6.49-0.49,0.0,58.0,,,,,,,[],,,,,,53.2,1.0,i,1.0,True,925.3999999985099,54.0,60.0,40.0,False,,367.9038643293519,[],"[768, 432]",ColorTask,26.0,50.0,,,HRV,HRV_0033,2022-11-30 17:57:37
,wl-rdm,58,185944,0.0-6.50-0.50,0.0,59.0,,,,,,,[],,,,,,87.9,1.0,i,1.0,True,540.0000000074506,29.0,60.0,40.0,False,,215.23545446755838,[],"[768, 432]",ColorTask,27.0,51.0,,,HRV,HRV_0033,2022-11-30 17:57:37
,wl-rdm,59,187062,0.0-6.51-0.51,0.0,59.0,,,,,,,[],,,,,,56.4,0.0,i,,,575.7000000029802,0.0,60.0,40.0,True,too_early ,278.85304746571785,[],"[768, 432]",ColorTask,26.0,52.0,,,HRV,HRV_0033,2022-11-30 17:57:37
,wl-rdm,60,188989,0.0-6.52-0.52,0.0,60.0,,,,,,,[],,,,,,73.6,1.0,i,1.0,True,558.5,34.0,60.0,40.0,False,,291.57782796229515,[],"[768, 432]",ColorTask,27.0,53.0,,,HRV,HRV_0033,2022-11-30 17:57:37
,wl-rdm,61,191412,0.0-6.53-0.53,0.0,61.0,,,,,,,[],,,,,,73.6,0.0,u,0.0,True,966.3999999985099,58.0,60.0,40.0,False,,350.86562420927817,[],"[768, 432]",ColorTask,28.0,54.0,,,HRV,HRV_0033,2022-11-30 17:57:37
,wl-rdm,62,193462,0.0-6.54-0.54,0.0,62.0,,,,,,,[],,,,,,50.0,0.0,i,1.0,False,644.7000000029802,39.0,60.0,40.0,False,,328.68374297827046,[],"[768, 432]",ColorTask,27.0,55.0,,,HRV,HRV_0033,2022-11-30 17:57:37
,wl-rdm,63,195594,0.0-6.55-0.55,0.0,63.0,,,,,,,[],,,,,,50.0,0.0,i,1.0,False,842.6000000014901,50.0,60.0,40.0,False,,205.03131498465882,[],"[768, 432]",ColorTask,26.0,56.0,,,HRV,HRV_0033,2022-11-30 17:57:37
,wl-rdm,64,197893,0.0-6.56-0.56,0.0,64.0,,,,,,,[],,,,,,50.0,1.0,i,1.0,True,874.5,53.0,60.0,40.0,False,,354.60673016528966,[],"[768, 432]",ColorTask,27.0,57.0,,,HRV,HRV_0033,2022-11-30 17:57:37
,wl-rdm,65,199994,0.0-6.57-0.57,0.0,65.0,,,,,,,[],,,,,,62.5,1.0,i,1.0,True,712.9999999925494,43.0,60.0,40.0,False,,283.4095031832844,[],"[768, 432]",ColorTask,28.0,58.0,,,HRV,HRV_0033,2022-11-30 17:57:37
,wl-rdm,66,201875,0.0-6.58-0.58,0.0,66.0,,,,,,,[],,,,,,50.0,0.0,i,1.0,False,516.3999999985099,29.0,60.0,40.0,False,,283.1922470116146,[],"[768, 432]",ColorTask,27.0,59.0,,,HRV,HRV_0033,2022-11-30 17:57:37
,wl-rdm,67,204009,0.0-6.59-0.59,0.0,67.0,,,,,,,[],,,,,,53.2,1.0,i,1.0,True,761.7000000029802,45.0,60.0,40.0,False,,297.58272136829794,[],"[768, 432]",ColorTask,28.0,60.0,,,HRV,HRV_0033,2022-11-30 17:57:37
,wl-rdm,68,205909,0.0-6.60-0.60,0.0,68.0,,,,,,,[],,,,,,62.5,0.0,i,1.0,False,620.2999999970198,34.0,60.0,40.0,False,,215.38469878907844,[],"[768, 432]",ColorTask,27.0,61.0,,,HRV,HRV_0033,2022-11-30 17:57:37
,wl-rdm,69,208125,0.0-6.61-0.61,0.0,69.0,,,,,,,[],,,,,,62.5,0.0,u,0.0,True,775.1000000014901,47.0,60.0,40.0,False,,359.3124082256333,[],"[768, 432]",ColorTask,28.0,62.0,,,HRV,HRV_0033,2022-11-30 17:57:37
,wl-rdm,70,210359,0.0-6.62-0.62,0.0,70.0,,,,,,,[],,,,,,62.5,1.0,i,1.0,True,797.0999999940395,48.0,60.0,40.0,False,,341.32535029812954,[],"[768, 432]",ColorTask,29.0,63.0,,,HRV,HRV_0033,2022-11-30 17:57:37
,wl-rdm,71,212492,0.0-6.63-0.63,0.0,71.0,,,,,,,[],,,,,,53.2,0.0,u,0.0,True,735.1999999955297,45.0,60.0,40.0,False,,346.4245527739603,[],"[768, 432]",ColorTask,30.0,64.0,,,HRV,HRV_0033,2022-11-30 17:57:37
,wl-rdm,72,215010,0.0-6.64-0.64,0.0,72.0,,,,,,,[],,,,,,73.6,1.0,i,1.0,True,1116.6000000014901,67.0,60.0,40.0,False,,338.67116761545594,[],"[768, 432]",ColorTask,31.0,65.0,,,HRV,HRV_0033,2022-11-30 17:57:37
,wl-rdm,73,217076,0.0-6.65-0.65,0.0,73.0,,,,,,,[],,,,,,62.5,1.0,i,1.0,True,697.5,43.0,60.0,40.0,False,,275.17141605068167,[],"[768, 432]",ColorTask,32.0,66.0,,,HRV,HRV_0033,2022-11-30 17:57:37
,wl-rdm,74,219309,0.0-6.66-0.66,0.0,74.0,,,,,,,[],,,,,,62.5,0.0,i,1.0,False,906.4999999925494,55.0,60.0,40.0,False,,260.00975984330057,[],"[768, 432]",ColorTask,31.0,67.0,,,HRV,HRV_0033,2022-11-30 17:57:37
,wl-rdm,75,221557,0.0-6.67-0.67,0.0,75.0,,,,,,,[],,,,,,56.4,1.0,i,1.0,True,877.5999999940395,53.0,60.0,40.0,False,,278.7356421569453,[],"[768, 432]",ColorTask,32.0,68.0,,,HRV,HRV_0033,2022-11-30 17:57:37
,wl-rdm,76,224073,0.0-6.68-0.68,0.0,76.0,,,,,,,[],,,,,,87.9,0.0,u,0.0,True,1172.2000000029802,70.0,60.0,40.0,False,,280.05725789167843,[],"[768, 432]",ColorTask,33.0,69.0,,,HRV,HRV_0033,2022-11-30 17:57:37
,wl-rdm,77,226524,0.0-6.69-0.69,0.0,77.0,,,,,,,[],,,,,,73.6,1.0,i,1.0,True,1063.8999999985099,64.0,60.0,40.0,False,,297.0826560903824,[],"[768, 432]",ColorTask,34.0,70.0,,,HRV,HRV_0033,2022-11-30 17:57:37
,wl-rdm,78,228789,0.0-6.70-0.70,0.0,78.0,,,,,,,[],,,,,,56.4,0.0,i,1.0,False,936.3999999910593,56.0,60.0,40.0,False,,262.09608399925287,[],"[768, 432]",ColorTask,33.0,71.0,,,HRV,HRV_0033,2022-11-30 17:57:37
,wl-rdm,79,231089,0.0-6.71-0.71,0.0,79.0,,,,,,,[],,,,,,87.9,1.0,i,1.0,True,1017.6000000014901,61.0,60.0,40.0,False,,201.66258821586095,[],"[768, 432]",ColorTask,34.0,72.0,,,HRV,HRV_0033,2022-11-30 17:57:37
,wl-rdm,80,233838,0.0-6.72-0.72,0.0,80.0,,,,,,,[],,,,,,87.9,0.0,u,0.0,True,1280.1000000014901,76.0,60.0,40.0,False,,395.65491843106804,[],"[768, 432]",ColorTask,35.0,73.0,,,HRV,HRV_0033,2022-11-30 17:57:37
,wl-rdm,81,235956,0.0-6.73-0.73,0.0,81.0,,,,,,,[],,,,,,87.9,1.0,i,1.0,True,697.1000000014901,40.0,60.0,40.0,False,,338.35884301042216,[],"[768, 432]",ColorTask,36.0,74.0,,,HRV,HRV_0033,2022-11-30 17:57:37
,wl-rdm,82,237822,0.0-6.74-0.74,0.0,82.0,,,,,,,[],,,,,,87.9,1.0,i,1.0,True,567.1000000014901,34.0,60.0,40.0,False,,235.3484061200644,[],"[768, 432]",ColorTask,37.0,75.0,,,HRV,HRV_0033,2022-11-30 17:57:37
,wl-rdm,83,239789,0.0-6.75-0.75,0.0,83.0,,,,,,,[],,,,,,53.2,1.0,i,1.0,True,600.8999999910593,36.0,60.0,40.0,False,,309.70116509047244,[],"[768, 432]",ColorTask,38.0,76.0,,,HRV,HRV_0033,2022-11-30 17:57:37
,wl-rdm,84,241887,0.0-6.76-0.76,0.0,84.0,,,,,,,[],,,,,,56.4,0.0,i,1.0,False,651.3999999985099,39.0,60.0,40.0,False,,367.08790923783556,[],"[768, 432]",ColorTask,37.0,77.0,,,HRV,HRV_0033,2022-11-30 17:57:37
,wl-rdm,85,243890,0.0-6.77-0.77,0.0,85.0,,,,,,,[],,,,,,87.9,0.0,u,0.0,True,627.6999999955297,38.0,60.0,40.0,False,,296.4904420406523,[],"[768, 432]",ColorTask,38.0,78.0,,,HRV,HRV_0033,2022-11-30 17:57:37
,wl-rdm,86,246165,0.0-6.78-0.78,0.0,86.0,,,,,,,[],,,,,,50.0,0.0,u,0.0,True,805.6999999955297,49.0,60.0,40.0,False,,391.90786915166086,[],"[768, 432]",ColorTask,39.0,79.0,,,HRV,HRV_0033,2022-11-30 17:57:37
,wl-rdm,87,248389,0.0-6.79-0.79,0.0,87.0,,,,,,,[],,,,,,56.4,1.0,u,0.0,False,896.0,54.0,60.0,40.0,False,,256.78456232469296,[],"[768, 432]",ColorTask,38.0,80.0,,,HRV,HRV_0033,2022-11-30 17:57:37
,wl-rdm,88,250669,0.0-6.80-0.80,0.0,88.0,,,,,,,[],,,,,,62.5,1.0,i,1.0,True,878.0,53.0,60.0,40.0,False,,324.2413849836726,[],"[768, 432]",ColorTask,39.0,81.0,,,HRV,HRV_0033,2022-11-30 17:57:37
,wl-rdm,89,252753,0.0-6.81-0.81,0.0,89.0,,,,,,,[],,,,,,50.0,1.0,u,0.0,False,790.0,48.0,60.0,40.0,False,,214.4025383208301,[],"[768, 432]",ColorTask,38.0,82.0,,,HRV,HRV_0033,2022-11-30 17:57:37
,wl-rdm,90,254936,0.0-6.82-0.82,0.0,90.0,,,,,,,[],,,,,,50.0,0.0,u,0.0,True,874.7999999970198,53.0,60.0,40.0,False,,227.22060657971434,[],"[768, 432]",ColorTask,39.0,83.0,,,HRV,HRV_0033,2022-11-30 17:57:37
,wl-rdm,91,257169,0.0-6.83-0.83,0.0,91.0,,,,,,,[],,,,,,73.6,1.0,i,1.0,True,875.2000000029802,52.0,60.0,40.0,False,,264.28468399879296,[],"[768, 432]",ColorTask,40.0,84.0,,,HRV,HRV_0033,2022-11-30 17:57:37
,wl-rdm,92,259672,0.0-6.84-0.84,0.0,92.0,,,,,,,[],,,,,,56.4,1.0,u,0.0,False,1096.8999999985099,66.0,60.0,40.0,False,,323.2777180770286,[],"[768, 432]",ColorTask,39.0,85.0,,,HRV,HRV_0033,2022-11-30 17:57:37
,wl-rdm,93,261720,0.0-6.85-0.85,0.0,93.0,,,,,,,[],,,,,,53.2,1.0,i,1.0,True,712.2000000104308,43.0,60.0,40.0,False,,258.15470274228414,[],"[768, 432]",ColorTask,40.0,86.0,,,HRV,HRV_0033,2022-11-30 17:57:37
,wl-rdm,94,263869,0.0-6.86-0.86,0.0,94.0,,,,,,,[],,,,,,87.9,0.0,u,0.0,True,831.0,49.0,60.0,40.0,False,,225.03280168363128,[],"[768, 432]",ColorTask,41.0,87.0,,,HRV,HRV_0033,2022-11-30 17:57:37
,wl-rdm,95,265834,0.0-6.87-0.87,0.0,95.0,,,,,,,[],,,,,,73.6,0.0,u,0.0,True,645.3000000044703,39.0,60.0,40.0,False,,265.09329660110393,[],"[768, 432]",ColorTask,42.0,88.0,,,HRV,HRV_0033,2022-11-30 17:57:37
,wl-rdm,96,267868,0.0-6.88-0.88,0.0,96.0,,,,,,,[],,,,,,53.2,0.0,u,0.0,True,760.3000000044703,46.0,60.0,40.0,False,,212.3901710801282,[],"[768, 432]",ColorTask,43.0,89.0,,,HRV,HRV_0033,2022-11-30 17:57:37
,wl-rdm,97,269957,0.0-6.89-0.89,0.0,97.0,,,,,,,[],,,,,,56.4,1.0,u,0.0,False,705.2000000029802,34.0,60.0,40.0,False,,315.64009365537663,[],"[768, 432]",ColorTask,42.0,90.0,,,HRV,HRV_0033,2022-11-30 17:57:37
,wl-rdm,98,272418,0.0-6.90-0.90,0.0,98.0,,,,,,,[],,,,,,56.4,0.0,u,0.0,True,1122.0,68.0,60.0,40.0,False,,271.1830335254095,[],"[768, 432]",ColorTask,43.0,91.0,,,HRV,HRV_0033,2022-11-30 17:57:37
,wl-rdm,99,274769,0.0-6.91-0.91,0.0,99.0,,,,,,,[],,,,,,53.2,1.0,i,1.0,True,1078.2999999970198,64.0,60.0,40.0,False,,210.81681904864695,[],"[768, 432]",ColorTask,44.0,92.0,,,HRV,HRV_0033,2022-11-30 17:57:37
,wl-rdm,100,276702,0.0-6.92-0.92,0.0,100.0,,,,,,,[],,,,,,73.6,0.0,u,0.0,True,660.7999999970198,40.0,60.0,40.0,False,,201.33020726768206,[],"[768, 432]",ColorTask,45.0,93.0,,,HRV,HRV_0033,2022-11-30 17:57:37
,wl-rdm,101,278916,0.0-6.93-0.93,0.0,101.0,,,,,,,[],,,,,,53.2,1.0,i,1.0,True,886.2000000029802,53.0,60.0,40.0,False,,259.7820400912438,[],"[768, 432]",ColorTask,46.0,94.0,,,HRV,HRV_0033,2022-11-30 17:57:37
,wl-rdm,102,280967,0.0-6.94-0.94,0.0,102.0,,,,,,,[],,,,,,56.4,1.0,i,1.0,True,738.5,45.0,60.0,40.0,False,,237.10528577493884,[],"[768, 432]",ColorTask,47.0,95.0,,,HRV,HRV_0033,2022-11-30 17:57:37
,wl-rdm,103,283517,0.0-6.95-0.95,0.0,103.0,,,,,,,[],,,,,,56.4,0.0,u,0.0,True,1114.2000000029802,67.0,60.0,40.0,False,,363.0723695247045,[],"[768, 432]",ColorTask,48.0,96.0,,,HRV,HRV_0033,2022-11-30 17:57:37
,wl-rdm,104,286082,0.0-6.96-0.96,0.0,104.0,,,,,,,[],,,,,,50.0,0.0,i,1.0,False,1155.1000000014901,64.0,60.0,40.0,False,,339.67177789378235,[],"[768, 432]",ColorTask,47.0,97.0,,,HRV,HRV_0033,2022-11-30 17:57:37
,wl-rdm,105,288244,0.0-6.97-0.97,0.0,105.0,,,,,,,[],,,,,,56.4,0.0,i,1.0,False,741.3000000044703,44.0,60.0,40.0,False,,330.9610717087596,[],"[768, 432]",ColorTask,46.0,98.0,,,HRV,HRV_0033,2022-11-30 17:57:37
,wl-rdm,106,290366,0.0-6.98-0.98,0.0,106.0,,,,,,,[],,,,,,62.5,1.0,u,0.0,False,744.6000000014901,44.0,60.0,40.0,False,,250.78028700865184,[],"[768, 432]",ColorTask,45.0,99.0,,,HRV,HRV_0033,2022-11-30 17:57:37
,wl-rdm,107,292864,0.0-6.99-0.99,0.0,107.0,,,,,,,[],,,,,,50.0,1.0,i,1.0,True,1183.6000000014901,71.0,60.0,40.0,False,,248.99584523757787,[],"[768, 432]",ColorTask,46.0,100.0,,,HRV,HRV_0033,2022-11-30 17:57:37
,wl-rdm,108,295080,0.0-6.100-0.100,0.0,108.0,,,,,,,[],,,,,,87.9,1.0,i,1.0,True,760.1000000014901,45.0,60.0,40.0,False,,379.271404620063,[],"[768, 432]",ColorTask,47.0,101.0,,,HRV,HRV_0033,2022-11-30 17:57:37
,wl-rdm,109,297766,0.0-6.101-0.101,0.0,109.0,,,,,,,[],,,,,,56.4,0.0,i,1.0,False,1301.3999999985099,72.0,60.0,40.0,False,,313.59255890928654,[],"[768, 432]",ColorTask,46.0,102.0,,,HRV,HRV_0033,2022-11-30 17:57:37
,wl-rdm,110,300313,0.0-6.102-0.102,0.0,110.0,,,,,,,[],,,,,,50.0,1.0,i,1.0,True,1087.3999999910593,66.0,60.0,40.0,False,,398.9967911476814,[],"[768, 432]",ColorTask,47.0,103.0,,,HRV,HRV_0033,2022-11-30 17:57:37
,wl-rdm,111,302752,0.0-6.103-0.103,0.0,111.0,,,,,,,[],,,,,,50.0,0.0,i,1.0,False,1120.8999999985099,68.0,60.0,40.0,False,,242.05447583506356,[],"[768, 432]",ColorTask,46.0,104.0,,,HRV,HRV_0033,2022-11-30 17:57:37
,wl-rdm,112,305181,0.0-6.104-0.104,0.0,112.0,,,,,,,[],,,,,,50.0,0.0,i,1.0,False,1092.7999999970198,66.0,60.0,40.0,False,,271.8219343930744,[],"[768, 432]",ColorTask,45.0,105.0,,,HRV,HRV_0033,2022-11-30 17:57:37
,wl-rdm,113,307796,0.0-6.105-0.105,0.0,113.0,,,,,,,[],,,,,,62.5,1.0,u,0.0,False,1223.5999999940395,72.0,60.0,40.0,False,,307.5970405434531,[],"[768, 432]",ColorTask,44.0,106.0,,,HRV,HRV_0033,2022-11-30 17:57:37
,wl-rdm,114,309748,0.0-6.106-0.106,0.0,114.0,,,,,,,[],,,,,,73.6,1.0,i,1.0,True,536.8000000044703,33.0,60.0,40.0,False,,338.1371325088148,[],"[768, 432]",ColorTask,45.0,107.0,,,HRV,HRV_0033,2022-11-30 17:57:37
,wl-rdm,115,311764,0.0-6.107-0.107,0.0,115.0,,,,,,,[],,,,,,73.6,0.0,u,0.0,True,696.1000000014901,42.0,60.0,40.0,False,,212.8919812035563,[],"[768, 432]",ColorTask,46.0,108.0,,,HRV,HRV_0033,2022-11-30 17:57:37
,wl-rdm,116,314128,0.0-6.108-0.108,0.0,116.0,,,,,,,[],,,,,,53.2,0.0,u,0.0,True,999.6000000014901,57.0,60.0,40.0,False,,285.06303195303883,[],"[768, 432]",ColorTask,47.0,109.0,,,HRV,HRV_0033,2022-11-30 17:57:37
,wl-html-keyboard-response,117,344751,0.0-7.0-0.0,1.0,117.0,,,,,,,,28591.30000000447,1.0,0,,,,,,,,,,,,,,,,,,,,,,HRV,HRV_0033,2022-11-30 17:57:37
,wl-rdm,118,348074,0.0-8.0-0.0,1.0,118.0,,,,,,,[],,,,,,50.0,0.0,i,1.0,False,1993.9000000059605,120.0,60.0,40.0,False,,255.7114692864407,[],"[768, 432]",ColorTask,46.0,1.0,,,HRV,HRV_0033,2022-11-30 17:57:37
,wl-rdm,119,350041,0.0-8.1-0.1,1.0,119.0,,,,,,,[],,,,,,56.4,1.0,i,1.0,True,700.4000000059605,40.0,60.0,40.0,False,,205.44544108910188,[],"[768, 432]",ColorTask,47.0,2.0,,,HRV,HRV_0033,2022-11-30 17:57:37
,wl-rdm,120,352056,0.0-8.2-0.2,1.0,120.0,,,,,,,[],,,,,,87.9,1.0,i,1.0,True,716.4000000059605,44.0,60.0,40.0,False,,229.65638572530383,[],"[768, 432]",ColorTask,48.0,3.0,,,HRV,HRV_0033,2022-11-30 17:57:37
,wl-rdm,121,354190,0.0-8.3-0.3,1.0,121.0,,,,,,,[],,,,,,53.2,0.0,u,0.0,True,779.3999999910593,47.0,60.0,40.0,False,,292.8654479117053,[],"[768, 432]",ColorTask,49.0,4.0,,,HRV,HRV_0033,2022-11-30 17:57:37
,wl-rdm,122,356108,0.0-8.4-0.4,1.0,122.0,,,,,,,[],,,,,,87.9,1.0,i,1.0,True,557.4000000059605,33.0,60.0,40.0,False,,275.68799050573625,[],"[768, 432]",ColorTask,50.0,5.0,,,HRV,HRV_0033,2022-11-30 17:57:37
,wl-rdm,123,357940,0.0-8.5-0.5,1.0,123.0,,,,,,,[],,,,,,73.6,1.0,i,1.0,True,556.3000000044703,34.0,60.0,40.0,False,,210.10899606916155,[],"[768, 432]",ColorTask,51.0,6.0,,,HRV,HRV_0033,2022-11-30 17:57:37
,wl-rdm,124,359772,0.0-8.6-0.6,1.0,124.0,,,,,,,[],,,,,,56.4,0.0,i,1.0,False,470.40000000596046,27.0,60.0,40.0,False,,279.56855674531994,[],"[768, 432]",ColorTask,50.0,7.0,,,HRV,HRV_0033,2022-11-30 17:57:37
,wl-rdm,125,361890,0.0-8.7-0.7,1.0,125.0,,,,,,,[],,,,,,62.5,0.0,u,0.0,True,705.7000000029802,42.0,60.0,40.0,False,,320.575020866017,[],"[768, 432]",ColorTask,51.0,8.0,,,HRV,HRV_0033,2022-11-30 17:57:37
,wl-rdm,126,363823,0.0-8.8-0.8,1.0,126.0,,,,,,,[],,,,,,62.5,0.0,u,0.0,True,596.0999999940395,35.0,60.0,40.0,False,,270.67988849323245,[],"[768, 432]",ColorTask,52.0,9.0,,,HRV,HRV_0033,2022-11-30 17:57:37
,wl-rdm,127,365838,0.0-8.9-0.9,1.0,127.0,,,,,,,[],,,,,,62.5,0.0,u,0.0,True,624.3999999985099,35.0,60.0,40.0,False,,285.69998175495687,[],"[768, 432]",ColorTask,53.0,10.0,,,HRV,HRV_0033,2022-11-30 17:57:37
,wl-rdm,128,368604,0.0-8.10-0.10,1.0,128.0,,,,,,,[],,,,,,50.0,0.0,u,0.0,True,1392.9000000059605,84.0,60.0,40.0,False,,289.15099825570184,[],"[768, 432]",ColorTask,54.0,11.0,,,HRV,HRV_0033,2022-11-30 17:57:37
,wl-rdm,129,370672,0.0-8.11-0.11,1.0,129.0,,,,,,,[],,,,,,87.9,1.0,i,1.0,True,795.2000000029802,49.0,60.0,40.0,False,,209.21742563211072,[],"[768, 432]",ColorTask,55.0,12.0,,,HRV,HRV_0033,2022-11-30 17:57:37
,wl-rdm,130,374573,0.0-8.12-0.12,1.0,130.0,,,,,,,[],,,,,,87.9,1.0,i,1.0,True,2633.5999999940395,157.0,60.0,40.0,False,,209.8465604027298,[],"[768, 432]",ColorTask,56.0,13.0,,,HRV,HRV_0033,2022-11-30 17:57:37
,wl-rdm,131,377571,0.0-8.13-0.13,1.0,131.0,,,,,,,[],,,,,,53.2,1.0,u,0.0,False,1689.0,100.0,60.0,40.0,False,,245.29288577679236,[],"[768, 432]",ColorTask,55.0,14.0,,,HRV,HRV_0033,2022-11-30 17:57:37
,wl-rdm,132,379893,0.0-8.14-0.14,1.0,132.0,,,,,,,[],,,,,,62.5,1.0,i,1.0,True,986.2999999970198,59.0,60.0,40.0,False,,266.05476041523707,[],"[768, 432]",ColorTask,56.0,15.0,,,HRV,HRV_0033,2022-11-30 17:57:37
,wl-rdm,133,381903,0.0-8.15-0.15,1.0,133.0,,,,,,,[],,,,,,62.5,1.0,i,1.0,True,539.8999999985099,33.0,60.0,40.0,False,,398.53133230021,[],"[768, 432]",ColorTask,57.0,16.0,,,HRV,HRV_0033,2022-11-30 17:57:37
,wl-rdm,134,384003,0.0-8.16-0.16,1.0,134.0,,,,,,,[],,,,,,56.4,0.0,u,0.0,True,815.2000000029802,49.0,60.0,40.0,False,,210.86412034095358,[],"[768, 432]",ColorTask,58.0,17.0,,,HRV,HRV_0033,2022-11-30 17:57:37
,wl-rdm,135,386002,0.0-8.17-0.17,1.0,135.0,,,,,,,[],,,,,,56.4,1.0,i,1.0,True,545.2000000029802,33.0,60.0,40.0,False,,359.9127598065711,[],"[768, 432]",ColorTask,59.0,18.0,,,HRV,HRV_0033,2022-11-30 17:57:37
,wl-rdm,136,387954,0.0-8.18-0.18,1.0,136.0,,,,,,,[],,,,,,87.9,0.0,u,0.0,True,499.5,30.0,60.0,40.0,False,,367.68111477560507,[],"[768, 432]",ColorTask,60.0,19.0,,,HRV,HRV_0033,2022-11-30 17:57:37
,wl-rdm,137,390102,0.0-8.19-0.19,1.0,137.0,,,,,,,[],,,,,,53.2,0.0,u,0.0,True,741.0,45.0,60.0,40.0,False,,309.18324861212386,[],"[768, 432]",ColorTask,61.0,20.0,,,HRV,HRV_0033,2022-11-30 17:57:37
,wl-rdm,138,392168,0.0-8.20-0.20,1.0,138.0,,,,,,,[],,,,,,73.6,1.0,i,1.0,True,593.4000000059605,36.0,60.0,40.0,False,,363.6632334772088,[],"[768, 432]",ColorTask,62.0,21.0,,,HRV,HRV_0033,2022-11-30 17:57:37
,wl-rdm,139,394152,0.0-8.21-0.21,1.0,139.0,,,,,,,[],,,,,,53.2,1.0,i,1.0,True,586.4999999925494,36.0,60.0,40.0,False,,319.0911150726381,[],"[768, 432]",ColorTask,63.0,22.0,,,HRV,HRV_0033,2022-11-30 17:57:37
,wl-rdm,140,396217,0.0-8.22-0.22,1.0,140.0,,,,,,,[],,,,,,62.5,1.0,i,1.0,True,714.6999999955297,40.0,60.0,40.0,False,,266.4783064451728,[],"[768, 432]",ColorTask,64.0,23.0,,,HRV,HRV_0033,2022-11-30 17:57:37
,wl-rdm,141,398153,0.0-8.23-0.23,1.0,141.0,,,,,,,[],,,,,,73.6,0.0,u,0.0,True,537.7999999970198,32.0,60.0,40.0,False,,331.4319863059004,[],"[768, 432]",ColorTask,65.0,24.0,,,HRV,HRV_0033,2022-11-30 17:57:37
,wl-rdm,142,400134,0.0-8.24-0.24,1.0,142.0,,,,,,,[],,,,,,62.5,0.0,u,0.0,True,575.4999999925494,35.0,60.0,40.0,False,,319.9085997953183,[],"[768, 432]",ColorTask,66.0,25.0,,,HRV,HRV_0033,2022-11-30 17:57:37
,wl-rdm,143,402067,0.0-8.25-0.25,1.0,143.0,,,,,,,[],,,,,,87.9,1.0,i,1.0,True,630.0999999940395,38.0,60.0,40.0,False,,235.39761448407572,[],"[768, 432]",ColorTask,67.0,26.0,,,HRV,HRV_0033,2022-11-30 17:57:37
,wl-rdm,144,404074,0.0-8.26-0.26,1.0,144.0,,,,,,,[],,,,,,56.4,0.0,u,0.0,True,701.4000000059605,42.0,60.0,40.0,False,,231.64038848303767,[],"[768, 432]",ColorTask,68.0,27.0,,,HRV,HRV_0033,2022-11-30 17:57:37
,wl-rdm,145,405968,0.0-8.27-0.27,1.0,145.0,,,,,,,[],,,,,,56.4,1.0,u,0.0,False,576.6000000014901,34.0,60.0,40.0,False,,261.2334568893656,[],"[768, 432]",ColorTask,67.0,28.0,,,HRV,HRV_0033,2022-11-30 17:57:37
,wl-rdm,146,408118,0.0-8.28-0.28,1.0,146.0,,,,,,,[],,,,,,50.0,0.0,u,0.0,True,814.7000000029802,47.0,60.0,40.0,False,,248.05731932755157,[],"[768, 432]",ColorTask,68.0,29.0,,,HRV,HRV_0033,2022-11-30 17:57:37
,wl-rdm,147,410049,0.0-8.29-0.29,1.0,147.0,,,,,,,[],,,,,,62.5,1.0,u,0.0,False,650.8000000044703,37.0,60.0,40.0,False,,203.5953653244652,[],"[768, 432]",ColorTask,67.0,30.0,,,HRV,HRV_0033,2022-11-30 17:57:37
,wl-rdm,148,412382,0.0-8.30-0.30,1.0,148.0,,,,,,,[],,,,,,53.2,1.0,u,0.0,False,928.1000000089407,56.0,60.0,40.0,False,,321.2462777336509,[],"[768, 432]",ColorTask,66.0,31.0,,,HRV,HRV_0033,2022-11-30 17:57:37
,wl-rdm,149,414634,0.0-8.31-0.31,1.0,149.0,,,,,,,[],,,,,,73.6,1.0,u,0.0,False,952.6000000014901,57.0,60.0,40.0,False,,223.03612453859614,[],"[768, 432]",ColorTask,65.0,32.0,,,HRV,HRV_0033,2022-11-30 17:57:37
,wl-rdm,150,416649,0.0-8.32-0.32,1.0,150.0,,,,,,,[],,,,,,73.6,0.0,u,0.0,True,736.9999999925494,42.0,60.0,40.0,False,,210.9889743602693,[],"[768, 432]",ColorTask,66.0,33.0,,,HRV,HRV_0033,2022-11-30 17:57:37
,wl-rdm,151,419131,0.0-8.33-0.33,1.0,151.0,,,,,,,[],,,,,,53.2,1.0,i,1.0,True,1120.0,66.0,60.0,40.0,False,,254.78171457539074,[],"[768, 432]",ColorTask,67.0,34.0,,,HRV,HRV_0033,2022-11-30 17:57:37
,wl-rdm,152,421258,0.0-8.34-0.34,1.0,152.0,,,,,,,[],,,,,,53.2,0.0,u,0.0,True,718.6000000014901,44.0,60.0,40.0,False,,313.22742073740187,[],"[768, 432]",ColorTask,68.0,35.0,,,HRV,HRV_0033,2022-11-30 17:57:37
,wl-rdm,153,423731,0.0-8.35-0.35,1.0,153.0,,,,,,,[],,,,,,87.9,0.0,u,0.0,True,1004.1999999955297,61.0,60.0,40.0,False,,387.65297136557115,[],"[768, 432]",ColorTask,69.0,36.0,,,HRV,HRV_0033,2022-11-30 17:57:37
,wl-rdm,154,425947,0.0-8.36-0.36,1.0,154.0,,,,,,,[],,,,,,50.0,0.0,u,0.0,True,767.6000000014901,46.0,60.0,40.0,False,,372.8290064233677,[],"[768, 432]",ColorTask,70.0,37.0,,,HRV,HRV_0033,2022-11-30 17:57:37
,wl-rdm,155,428297,0.0-8.37-0.37,1.0,155.0,,,,,,,[],,,,,,62.5,0.0,u,0.0,True,967.3000000044703,58.0,60.0,40.0,False,,312.64163197180756,[],"[768, 432]",ColorTask,71.0,38.0,,,HRV,HRV_0033,2022-11-30 17:57:37
,wl-rdm,156,430263,0.0-8.38-0.38,1.0,156.0,,,,,,,[],,,,,,50.0,1.0,u,0.0,False,604.1999999880791,37.0,60.0,40.0,False,,247.743085117286,[],"[768, 432]",ColorTask,70.0,39.0,,,HRV,HRV_0033,2022-11-30 17:57:37
,wl-rdm,157,432347,0.0-8.39-0.39,1.0,157.0,,,,,,,[],,,,,,73.6,0.0,u,0.0,True,759.1000000014901,46.0,60.0,40.0,False,,253.9234090213365,[],"[768, 432]",ColorTask,71.0,40.0,,,HRV,HRV_0033,2022-11-30 17:57:37
,wl-rdm,158,434252,0.0-8.40-0.40,1.0,158.0,,,,,,,[],,,,,,62.5,0.0,u,0.0,True,623.4000000059605,38.0,60.0,40.0,False,,220.00037944914925,[],"[768, 432]",ColorTask,72.0,41.0,,,HRV,HRV_0033,2022-11-30 17:57:37
,wl-rdm,159,436236,0.0-8.41-0.41,1.0,159.0,,,,,,,[],,,,,,56.4,0.0,u,0.0,True,605.3999999985099,36.0,60.0,40.0,False,,315.92617563638726,[],"[768, 432]",ColorTask,73.0,42.0,,,HRV,HRV_0033,2022-11-30 17:57:37
,wl-rdm,160,438329,0.0-8.42-0.42,1.0,160.0,,,,,,,[],,,,,,50.0,1.0,u,0.0,False,634.2000000029802,38.0,60.0,40.0,False,,335.8606193137817,[],"[768, 432]",ColorTask,72.0,43.0,,,HRV,HRV_0033,2022-11-30 17:57:37
,wl-rdm,161,440315,0.0-8.43-0.43,1.0,161.0,,,,,,,[],,,,,,87.9,0.0,u,0.0,True,561.5,34.0,60.0,40.0,False,,339.25988908634616,[],"[768, 432]",ColorTask,73.0,44.0,,,HRV,HRV_0033,2022-11-30 17:57:37
,wl-rdm,162,442430,0.0-8.44-0.44,1.0,162.0,,,,,,,[],,,,,,50.0,0.0,u,0.0,True,749.7000000029802,44.0,60.0,40.0,False,,281.8267668008182,[],"[768, 432]",ColorTask,74.0,45.0,,,HRV,HRV_0033,2022-11-30 17:57:37
,wl-rdm,163,444181,0.0-8.45-0.45,1.0,163.0,,,,,,,[],,,,,,53.2,0.0,u,0.0,True,469.0,28.0,60.0,40.0,False,,209.96328719284523,[],"[768, 432]",ColorTask,75.0,46.0,,,HRV,HRV_0033,2022-11-30 17:57:37
,wl-rdm,164,446229,0.0-8.46-0.46,1.0,164.0,,,,,,,[],,,,,,56.4,1.0,u,0.0,False,589.4999999925494,36.0,60.0,40.0,False,,282.9423812408654,[],"[768, 432]",ColorTask,74.0,47.0,,,HRV,HRV_0033,2022-11-30 17:57:37
,wl-rdm,165,448094,0.0-8.47-0.47,1.0,165.0,,,,,,,[],,,,,,53.2,1.0,u,0.0,False,481.0,29.0,60.0,40.0,False,,309.22334448699866,[],"[768, 432]",ColorTask,73.0,48.0,,,HRV,HRV_0033,2022-11-30 17:57:37
,wl-rdm,166,450030,0.0-8.48-0.48,1.0,166.0,,,,,,,[],,,,,,73.6,0.0,u,0.0,True,601.4000000059605,36.0,60.0,40.0,False,,267.5620074561479,[],"[768, 432]",ColorTask,74.0,49.0,,,HRV,HRV_0033,2022-11-30 17:57:37
,wl-rdm,167,451944,0.0-8.49-0.49,1.0,167.0,,,,,,,[],,,,,,62.5,1.0,i,1.0,True,636.5,39.0,60.0,40.0,False,,214.9500645309037,[],"[768, 432]",ColorTask,75.0,50.0,,,HRV,HRV_0033,2022-11-30 17:57:37
,wl-rdm,168,453782,0.0-8.50-0.50,1.0,168.0,,,,,,,[],,,,,,73.6,1.0,i,1.0,True,525.5,31.0,60.0,40.0,False,,237.88711290437917,[],"[768, 432]",ColorTask,76.0,51.0,,,HRV,HRV_0033,2022-11-30 17:57:37
,wl-rdm,169,455644,0.0-8.51-0.51,1.0,169.0,,,,,,,[],,,,,,53.2,1.0,i,1.0,True,448.3999999985099,27.0,60.0,40.0,False,,342.5781863178738,[],"[768, 432]",ColorTask,77.0,52.0,,,HRV,HRV_0033,2022-11-30 17:57:37
,wl-rdm,170,457611,0.0-8.52-0.52,1.0,170.0,,,,,,,[],,,,,,73.6,0.0,u,0.0,True,683.7000000029802,41.0,60.0,40.0,False,,211.35755996815328,[],"[768, 432]",ColorTask,78.0,53.0,,,HRV,HRV_0033,2022-11-30 17:57:37
,wl-rdm,171,459380,0.0-8.53-0.53,1.0,171.0,,,,,,,[],,,,,,87.9,0.0,u,0.0,True,461.1000000089407,28.0,60.0,40.0,False,,242.8958275151333,[],"[768, 432]",ColorTask,79.0,54.0,,,HRV,HRV_0033,2022-11-30 17:57:37
,wl-rdm,172,461427,0.0-8.54-0.54,1.0,172.0,,,,,,,[],,,,,,73.6,1.0,i,1.0,True,741.2000000029802,44.0,60.0,40.0,False,,217.02803376444132,[],"[768, 432]",ColorTask,80.0,55.0,,,HRV,HRV_0033,2022-11-30 17:57:37
,wl-rdm,173,463826,0.0-8.55-0.55,1.0,173.0,,,,,,,[],,,,,,50.0,1.0,i,1.0,True,973.3999999985099,59.0,60.0,40.0,False,,342.8789732913368,[],"[768, 432]",ColorTask,81.0,56.0,,,HRV,HRV_0033,2022-11-30 17:57:37
,wl-rdm,174,465861,0.0-8.56-0.56,1.0,174.0,,,,,,,[],,,,,,62.5,0.0,u,0.0,True,641.3999999985099,37.0,60.0,40.0,False,,316.37952391689515,[],"[768, 432]",ColorTask,82.0,57.0,,,HRV,HRV_0033,2022-11-30 17:57:37
,wl-rdm,175,467942,0.0-8.57-0.57,1.0,175.0,,,,,,,[],,,,,,50.0,1.0,u,0.0,False,614.9000000059605,37.0,60.0,40.0,False,,398.4334759727798,[],"[768, 432]",ColorTask,81.0,58.0,,,HRV,HRV_0033,2022-11-30 17:57:37
,wl-rdm,176,469891,0.0-8.58-0.58,1.0,176.0,,,,,,,[],,,,,,87.9,1.0,i,1.0,True,631.2999999970198,38.0,60.0,40.0,False,,244.0703372298317,[],"[768, 432]",ColorTask,82.0,59.0,,,HRV,HRV_0033,2022-11-30 17:57:37
,wl-rdm,177,471958,0.0-8.59-0.59,1.0,177.0,,,,,,,[],,,,,,53.2,0.0,i,1.0,False,733.8000000044703,44.0,60.0,40.0,False,,259.15574507282867,[],"[768, 432]",ColorTask,81.0,60.0,,,HRV,HRV_0033,2022-11-30 17:57:37
,wl-rdm,178,473909,0.0-8.60-0.60,1.0,178.0,,,,,,,[],,,,,,62.5,1.0,u,0.0,False,510.70000000298023,31.0,60.0,40.0,False,,363.1237955299056,[],"[768, 432]",ColorTask,80.0,61.0,,,HRV,HRV_0033,2022-11-30 17:57:37
,wl-rdm,179,475862,0.0-8.61-0.61,1.0,179.0,,,,,,,[],,,,,,73.6,0.0,u,0.0,True,591.9999999925494,35.0,60.0,40.0,False,,275.5159792251795,[],"[768, 432]",ColorTask,81.0,62.0,,,HRV,HRV_0033,2022-11-30 17:57:37
,wl-rdm,180,477945,0.0-8.62-0.62,1.0,180.0,,,,,,,[],,,,,,73.6,1.0,i,1.0,True,736.6000000014901,45.0,60.0,40.0,False,,251.02369645992223,[],"[768, 432]",ColorTask,82.0,63.0,,,HRV,HRV_0033,2022-11-30 17:57:37
,wl-rdm,181,479874,0.0-8.63-0.63,1.0,181.0,,,,,,,[],,,,,,62.5,1.0,i,1.0,True,595.1999999955297,36.0,60.0,40.0,False,,262.03751432845604,[],"[768, 432]",ColorTask,83.0,64.0,,,HRV,HRV_0033,2022-11-30 17:57:37
,wl-rdm,182,481624,0.0-8.64-0.64,1.0,182.0,,,,,,,[],,,,,,50.0,1.0,i,1.0,True,480.19999999552965,25.0,60.0,40.0,False,,210.52753240363057,[],"[768, 432]",ColorTask,84.0,65.0,,,HRV,HRV_0033,2022-11-30 17:57:37
,wl-rdm,183,483481,0.0-8.65-0.65,1.0,183.0,,,,,,,[],,,,,,73.6,0.0,u,0.0,True,558.1000000014901,34.0,60.0,40.0,False,,200.86239787426248,[],"[768, 432]",ColorTask,85.0,66.0,,,HRV,HRV_0033,2022-11-30 17:57:37
,wl-rdm,184,485657,0.0-8.66-0.66,1.0,184.0,,,,,,,[],,,,,,62.5,0.0,u,0.0,True,837.7000000029802,50.0,60.0,40.0,False,,269.9804501733571,[],"[768, 432]",ColorTask,86.0,67.0,,,HRV,HRV_0033,2022-11-30 17:57:37
,wl-rdm,185,487724,0.0-8.67-0.67,1.0,185.0,,,,,,,[],,,,,,56.4,1.0,u,0.0,False,693.1000000014901,42.0,60.0,40.0,False,,295.89821228212395,[],"[768, 432]",ColorTask,85.0,68.0,,,HRV,HRV_0033,2022-11-30 17:57:37
,wl-rdm,186,489725,0.0-8.68-0.68,1.0,186.0,,,,,,,[],,,,,,87.9,0.0,u,0.0,True,607.3000000044703,37.0,60.0,40.0,False,,320.4699667131379,[],"[768, 432]",ColorTask,86.0,69.0,,,HRV,HRV_0033,2022-11-30 17:57:37
,wl-rdm,187,491824,0.0-8.69-0.69,1.0,187.0,,,,,,,[],,,,,,73.6,1.0,i,1.0,True,681.6000000014901,41.0,60.0,40.0,False,,292.5425162948014,[],"[768, 432]",ColorTask,87.0,70.0,,,HRV,HRV_0033,2022-11-30 17:57:37
,wl-rdm,188,493850,0.0-8.70-0.70,1.0,188.0,,,,,,,[],,,,,,73.6,0.0,u,0.0,True,616.0,37.0,60.0,40.0,False,,343.96631783719454,[],"[768, 432]",ColorTask,88.0,71.0,,,HRV,HRV_0033,2022-11-30 17:57:37
,wl-rdm,189,496124,0.0-8.71-0.71,1.0,189.0,,,,,,,[],,,,,,87.9,1.0,i,1.0,True,915.5999999940395,53.0,60.0,40.0,False,,279.9919290735521,[],"[768, 432]",ColorTask,89.0,72.0,,,HRV,HRV_0033,2022-11-30 17:57:37
,wl-rdm,190,498173,0.0-8.72-0.72,1.0,190.0,,,,,,,[],,,,,,50.0,0.0,u,0.0,True,644.2000000029802,39.0,60.0,40.0,False,,342.70215227880794,[],"[768, 432]",ColorTask,90.0,73.0,,,HRV,HRV_0033,2022-11-30 17:57:37
,wl-rdm,191,500065,0.0-8.73-0.73,1.0,191.0,,,,,,,[],,,,,,73.6,0.0,u,0.0,True,541.9999999925494,33.0,60.0,40.0,False,,250.6685800986861,[],"[768, 432]",ColorTask,91.0,74.0,,,HRV,HRV_0033,2022-11-30 17:57:37
,wl-rdm,192,501972,0.0-8.74-0.74,1.0,192.0,,,,,,,[],,,,,,50.0,0.0,u,0.0,True,479.5000000074506,29.0,60.0,40.0,False,,318.76326629012397,[],"[768, 432]",ColorTask,92.0,75.0,,,HRV,HRV_0033,2022-11-30 17:57:37
,wl-rdm,193,504049,0.0-8.75-0.75,1.0,193.0,,,,,,,[],,,,,,50.0,1.0,i,1.0,True,754.5999999940395,46.0,60.0,40.0,False,,259.3580135296826,[],"[768, 432]",ColorTask,93.0,76.0,,,HRV,HRV_0033,2022-11-30 17:57:37
,wl-rdm,194,506075,0.0-8.76-0.76,1.0,194.0,,,,,,,[],,,,,,62.5,1.0,u,0.0,False,724.3999999910593,43.0,60.0,40.0,False,,202.8360955757287,[],"[768, 432]",ColorTask,92.0,77.0,,,HRV,HRV_0033,2022-11-30 17:57:37
,wl-rdm,195,508105,0.0-8.77-0.77,1.0,195.0,,,,,,,[],,,,,,56.4,1.0,u,0.0,False,740.4999999925494,45.0,60.0,40.0,False,,220.98522589211245,[],"[768, 432]",ColorTask,91.0,78.0,,,HRV,HRV_0033,2022-11-30 17:57:37
,wl-rdm,196,510155,0.0-8.78-0.78,1.0,196.0,,,,,,,[],,,,,,53.2,0.0,i,1.0,False,689.9999999925494,42.0,60.0,40.0,False,,290.50357435686016,[],"[768, 432]",ColorTask,90.0,79.0,,,HRV,HRV_0033,2022-11-30 17:57:37
,wl-rdm,197,513927,0.0-8.79-0.79,1.0,197.0,,,,,,,[],,,,,,87.9,0.0,u,0.0,True,2319.0,140.0,60.0,40.0,False,,358.32928719259644,[],"[768, 432]",ColorTask,91.0,80.0,,,HRV,HRV_0033,2022-11-30 17:57:37
,wl-rdm,198,516038,0.0-8.80-0.80,1.0,198.0,,,,,,,[],,,,,,56.4,0.0,i,1.0,False,812.1000000014901,49.0,60.0,40.0,False,,221.7282805779716,[],"[768, 432]",ColorTask,90.0,81.0,,,HRV,HRV_0033,2022-11-30 17:57:37
,wl-rdm,199,517963,0.0-8.81-0.81,1.0,199.0,,,,,,,[],,,,,,87.9,0.0,u,0.0,True,528.6999999955297,32.0,60.0,40.0,False,,305.1660403613518,[],"[768, 432]",ColorTask,91.0,82.0,,,HRV,HRV_0033,2022-11-30 17:57:37
,wl-rdm,200,520340,0.0-8.82-0.82,1.0,200.0,,,,,,,[],,,,,,56.4,0.0,i,1.0,False,896.7999999970198,55.0,60.0,40.0,False,,397.8279731706001,[],"[768, 432]",ColorTask,90.0,83.0,,,HRV,HRV_0033,2022-11-30 17:57:37
,wl-rdm,201,522670,0.0-8.83-0.83,1.0,201.0,,,,,,,[],,,,,,62.5,1.0,i,1.0,True,1042.0999999940395,62.0,60.0,40.0,False,,200.57674847061273,[],"[768, 432]",ColorTask,91.0,84.0,,,HRV,HRV_0033,2022-11-30 17:57:37
,wl-rdm,202,525520,0.0-8.84-0.84,1.0,202.0,,,,,,,[],,,,,,53.2,0.0,i,1.0,False,1461.9999999925494,87.0,60.0,40.0,False,,305.00016822397583,[],"[768, 432]",ColorTask,90.0,85.0,,,HRV,HRV_0033,2022-11-30 17:57:37
,wl-rdm,203,527522,0.0-8.85-0.85,1.0,203.0,,,,,,,[],,,,,,53.2,1.0,i,1.0,True,628.6000000014901,38.0,60.0,40.0,False,,277.29518374397867,[],"[768, 432]",ColorTask,91.0,86.0,,,HRV,HRV_0033,2022-11-30 17:57:37
,wl-rdm,204,529518,0.0-8.86-0.86,1.0,204.0,,,,,,,[],,,,,,56.4,1.0,i,1.0,True,564.7000000029802,34.0,60.0,40.0,False,,340.055748602735,[],"[768, 432]",ColorTask,92.0,87.0,,,HRV,HRV_0033,2022-11-30 17:57:37
,wl-rdm,205,531366,0.0-8.87-0.87,1.0,205.0,,,,,,,[],,,,,,50.0,1.0,i,1.0,True,505.8999999985099,31.0,60.0,40.0,False,,266.26328618203354,[],"[768, 432]",ColorTask,93.0,88.0,,,HRV,HRV_0033,2022-11-30 17:57:37
,wl-rdm,206,533301,0.0-8.88-0.88,1.0,206.0,,,,,,,[],,,,,,50.0,1.0,u,0.0,False,646.8999999985099,39.0,60.0,40.0,False,,212.44784175966956,[],"[768, 432]",ColorTask,92.0,89.0,,,HRV,HRV_0033,2022-11-30 17:57:37
,wl-rdm,207,535351,0.0-8.89-0.89,1.0,207.0,,,,,,,[],,,,,,87.9,0.0,u,0.0,True,572.5999999940395,35.0,60.0,40.0,False,,398.09001013799013,[],"[768, 432]",ColorTask,93.0,90.0,,,HRV,HRV_0033,2022-11-30 17:57:37
,wl-rdm,208,537400,0.0-8.90-0.90,1.0,208.0,,,,,,,[],,,,,,53.2,0.0,i,1.0,False,561.5000000074506,34.0,60.0,40.0,False,,387.67992633888036,[],"[768, 432]",ColorTask,92.0,91.0,,,HRV,HRV_0033,2022-11-30 17:57:37
,wl-rdm,209,539968,0.0-8.91-0.91,1.0,209.0,,,,,,,[],,,,,,87.9,1.0,i,1.0,True,1261.1000000014901,76.0,60.0,40.0,False,,234.51756599459014,[],"[768, 432]",ColorTask,93.0,92.0,,,HRV,HRV_0033,2022-11-30 17:57:37
,wl-rdm,210,541969,0.0-8.92-0.92,1.0,210.0,,,,,,,[],,,,,,56.4,0.0,u,0.0,True,695.5,41.0,60.0,40.0,False,,244.89898314612032,[],"[768, 432]",ColorTask,94.0,93.0,,,HRV,HRV_0033,2022-11-30 17:57:37
,wl-rdm,211,543869,0.0-8.93-0.93,1.0,211.0,,,,,,,[],,,,,,56.4,0.0,u,0.0,True,606.9000000059605,37.0,60.0,40.0,False,,208.07349971685778,[],"[768, 432]",ColorTask,95.0,94.0,,,HRV,HRV_0033,2022-11-30 17:57:37
,wl-rdm,212,545798,0.0-8.94-0.94,1.0,212.0,,,,,,,[],,,,,,53.2,0.0,i,1.0,False,495.79999999701977,30.0,60.0,40.0,False,,348.813097925315,[],"[768, 432]",ColorTask,94.0,95.0,,,HRV,HRV_0033,2022-11-30 17:57:37
,wl-rdm,213,547682,0.0-8.95-0.95,1.0,213.0,,,,,,,[],,,,,,87.9,0.0,u,0.0,True,575.6000000014901,35.0,60.0,40.0,False,,240.84726426005352,[],"[768, 432]",ColorTask,95.0,96.0,,,HRV,HRV_0033,2022-11-30 17:57:37
,wl-rdm,214,549699,0.0-8.96-0.96,1.0,214.0,,,,,,,[],,,,,,53.2,1.0,i,1.0,True,741.5000000074506,45.0,60.0,40.0,False,,210.87867990310573,[],"[768, 432]",ColorTask,96.0,97.0,,,HRV,HRV_0033,2022-11-30 17:57:37
,wl-rdm,215,551703,0.0-8.97-0.97,1.0,215.0,,,,,,,[],,,,,,73.6,1.0,i,1.0,True,719.0,43.0,60.0,40.0,False,,202.5114519027825,[],"[768, 432]",ColorTask,97.0,98.0,,,HRV,HRV_0033,2022-11-30 17:57:37
,wl-rdm,216,553532,0.0-8.98-0.98,1.0,216.0,,,,,,,[],,,,,,73.6,1.0,i,1.0,True,549.3999999985099,31.0,60.0,40.0,False,,229.82848135652813,[],"[768, 432]",ColorTask,98.0,99.0,,,HRV,HRV_0033,2022-11-30 17:57:37
,wl-rdm,217,555568,0.0-8.99-0.99,1.0,217.0,,,,,,,[],,,,,,50.0,1.0,i,1.0,True,686.9000000059605,42.0,60.0,40.0,False,,263.38829910529796,[],"[768, 432]",ColorTask,99.0,100.0,,,HRV,HRV_0033,2022-11-30 17:57:37
,wl-rdm,218,557564,0.0-8.100-0.100,1.0,218.0,,,,,,,[],,,,,,50.0,0.0,u,0.0,True,547.4000000059605,33.0,60.0,40.0,False,,370.52031222049175,[],"[768, 432]",ColorTask,100.0,101.0,,,HRV,HRV_0033,2022-11-30 17:57:37
,wl-rdm,219,559414,0.0-8.101-0.101,1.0,219.0,,,,,,,[],,,,,,53.2,1.0,i,1.0,True,529.0,32.0,60.0,40.0,False,,263.8515580517744,[],"[768, 432]",ColorTask,101.0,102.0,,,HRV,HRV_0033,2022-11-30 17:57:37
,wl-rdm,220,561447,0.0-8.102-0.102,1.0,220.0,,,,,,,[],,,,,,56.4,1.0,i,1.0,True,610.2000000029802,33.0,60.0,40.0,False,,336.50617575440134,[],"[768, 432]",ColorTask,102.0,103.0,,,HRV,HRV_0033,2022-11-30 17:57:37
,wl-rdm,221,563496,0.0-8.103-0.103,1.0,221.0,,,,,,,[],,,,,,50.0,0.0,i,1.0,False,624.8999999985099,38.0,60.0,40.0,False,,344.55557874732716,[],"[768, 432]",ColorTask,101.0,104.0,,,HRV,HRV_0033,2022-11-30 17:57:37
,wl-rdm,222,565547,0.0-8.104-0.104,1.0,222.0,,,,,,,[],,,,,,56.4,1.0,i,1.0,True,628.3999999985099,37.0,60.0,40.0,False,,354.7463321155704,[],"[768, 432]",ColorTask,102.0,105.0,,,HRV,HRV_0033,2022-11-30 17:57:37
,wl-rdm,223,567698,0.0-8.105-0.105,1.0,223.0,,,,,,,[],,,,,,62.5,0.0,u,0.0,True,847.8999999910593,51.0,60.0,40.0,False,,243.88996418830317,[],"[768, 432]",ColorTask,103.0,106.0,,,HRV,HRV_0033,2022-11-30 17:57:37
,wl-rdm,224,569895,0.0-8.106-0.106,1.0,224.0,,,,,,,[],,,,,,56.4,0.0,u,0.0,True,901.2000000029802,53.0,60.0,40.0,False,,226.72448901089737,[],"[768, 432]",ColorTask,104.0,107.0,,,HRV,HRV_0033,2022-11-30 17:57:37
,wl-rdm,225,571695,0.0-8.107-0.107,1.0,225.0,,,,,,,[],,,,,,87.9,1.0,i,1.0,True,469.1000000014901,29.0,60.0,40.0,False,,260.72240271911187,[],"[768, 432]",ColorTask,105.0,108.0,,,HRV,HRV_0033,2022-11-30 17:57:37
,wl-html-button-response,226,574622,0.0-9.0-0.0,,,,,,,,,,2868.5,,0,,,,,,,,,,,,,,,,,,,,<h3>End of this session. Thank you!</h3><br>,['Close window'],HRV,HRV_0033,2022-11-30 17:57:37
