trialN,stimuli,trialStartTime,trialStartTime_UNIX,stimulus1,stimulus2,stimulus1Bid,stimulus2Bid,delta,selected,rt,rt_UNIX,rt_perfnow,receivedResponse,rsp,trialEndTime,trialDuration,trialEndTime_UNIX,trialDuration_UNIX,exp,subjectId,date
0,"[{'imgObject': {}, 'id': 'shreddedwheatwithmilk', 'src': '/static/foodstim60/shreddedwheatwithmilk.jpg', 'key': 'u', 'origWidth': 410, 'origHeight': 410, 'width': 410, 'height': 410, 'widthPercent': 0.45, 'rescaleHeight': False, 'trialN': 0, 'loaded': True, 'loadedTime': 5966.39999999851, 'positionName': 'LEFT', 'positionCoords': [327.28, 227], 'bid': 1.31}, {'imgObject': {}, 'id': 'yogurt no spoon', 'src': '/static/foodstim60/yogurt no spoon.jpg', 'key': 'i', 'origWidth': 411, 'origHeight': 410, 'width': 411, 'height': 410, 'widthPercent': 0.45, 'rescaleHeight': False, 'trialN': 0, 'loaded': True, 'loadedTime': 6104.39999999851, 'positionName': 'RIGHT', 'positionCoords': [798.72, 227], 'bid': 1.6}]",13755.70000000298,1669830228230,shreddedwheatwithmilk,yogurt no spoon,1.31,1.6,0.29000000000000004,yogurt no spoon,907.0,916,915.8999999985099,True,i,15177.60000000149,1421.8999999985099,1669830229652,1422,HRV,HRV_0033,2022-11-30 17:47:53
1,"[{'imgObject': {}, 'id': 'hashbrowns', 'src': '/static/foodstim60/hashbrowns.jpg', 'key': 'u', 'origWidth': 411, 'origHeight': 410, 'width': 411, 'height': 410, 'widthPercent': 0.45, 'rescaleHeight': False, 'trialN': 1, 'loaded': True, 'loadedTime': 6659.29999999702, 'positionName': 'LEFT', 'positionCoords': [326.28, 227], 'bid': 4.03}, {'imgObject': {}, 'id': 'fruitsalad', 'src': '/static/foodstim60/fruitsalad.jpg', 'key': 'i', 'origWidth': 410, 'origHeight': 410, 'width': 410, 'height': 410, 'widthPercent': 0.45, 'rescaleHeight': False, 'trialN': 1, 'loaded': True, 'loadedTime': 7290, 'positionName': 'RIGHT', 'positionCoords': [798.72, 227], 'bid': 4.07}]",15178.0,1669830229653,hashbrowns,fruitsalad,4.03,4.07,0.040000000000000036,hashbrowns,838.1000000014901,841,841.7000000029802,True,u,16521.0,1343.0,1669830230996,1343,HRV,HRV_0033,2022-11-30 17:47:53
2,"[{'imgObject': {}, 'id': 'rigatoni and sauce', 'src': '/static/foodstim60/rigatoni and sauce.jpg', 'key': 'u', 'origWidth': 410, 'origHeight': 411, 'width': 410, 'height': 411, 'widthPercent': 0.45, 'rescaleHeight': False, 'trialN': 2, 'loaded': True, 'loadedTime': 7530.60000000149, 'positionName': 'LEFT', 'positionCoords': [327.28, 226.5], 'bid': 2.51}, {'imgObject': {}, 'id': 'edamame', 'src': '/static/foodstim60/edamame.jpg', 'key': 'i', 'origWidth': 409, 'origHeight': 410, 'width': 409, 'height': 410, 'widthPercent': 0.45, 'rescaleHeight': False, 'trialN': 2, 'loaded': True, 'loadedTime': 7817.29999999702, 'positionName': 'RIGHT', 'positionCoords': [798.72, 227], 'bid': 2.5}]",16521.29999999702,1669830230996,rigatoni and sauce,edamame,2.51,2.5,-0.009999999999999787,edamame,995.0,996,996.4000000059605,True,i,18024.89999999851,1503.6000000014901,1669830232500,1504,HRV,HRV_0033,2022-11-30 17:47:53
3,"[{'imgObject': {}, 'id': 'blueberries', 'src': '/static/foodstim60/blueberries.jpg', 'key': 'u', 'origWidth': 411, 'origHeight': 411, 'width': 411, 'height': 411, 'widthPercent': 0.45, 'rescaleHeight': False, 'trialN': 3, 'loaded': True, 'loadedTime': 7817.79999999702, 'positionName': 'LEFT', 'positionCoords': [326.28, 226.5], 'bid': 1.35}, {'imgObject': {}, 'id': 'salad w chicken', 'src': '/static/foodstim60/salad w chicken.jpg', 'key': 'i', 'origWidth': 411, 'origHeight': 411, 'width': 411, 'height': 411, 'widthPercent': 0.45, 'rescaleHeight': False, 'trialN': 3, 'loaded': True, 'loadedTime': 8108.89999999851, 'positionName': 'RIGHT', 'positionCoords': [798.72, 226.5], 'bid': 4.57}]",18025.39999999851,1669830232500,blueberries,salad w chicken,1.35,4.57,3.22,salad w chicken,1141.1000000014901,1149,1149.3999999985099,True,i,19681.0,1655.6000000014901,1669830234156,1656,HRV,HRV_0033,2022-11-30 17:47:53
4,"[{'imgObject': {}, 'id': 'raspberries', 'src': '/static/foodstim60/raspberries.jpg', 'key': 'u', 'origWidth': 411, 'origHeight': 411, 'width': 411, 'height': 411, 'widthPercent': 0.45, 'rescaleHeight': False, 'trialN': 4, 'loaded': True, 'loadedTime': 8888.60000000149, 'positionName': 'LEFT', 'positionCoords': [326.28, 226.5], 'bid': 4.96}, {'imgObject': {}, 'id': 'turkeysandwich', 'src': '/static/foodstim60/turkeysandwich.jpg', 'key': 'i', 'origWidth': 409, 'origHeight': 409, 'width': 409, 'height': 409, 'widthPercent': 0.45, 'rescaleHeight': False, 'trialN': 4, 'loaded': True, 'loadedTime': 8904.39999999851, 'positionName': 'RIGHT', 'positionCoords': [798.72, 227.5], 'bid': 4.0200000000000005}]",19681.20000000298,1669830234156,raspberries,turkeysandwich,4.96,4.0200000000000005,-0.9399999999999995,turkeysandwich,901.0,904,904.5999999940395,True,i,21088.79999999702,1407.5999999940395,1669830235563,1407,HRV,HRV_0033,2022-11-30 17:47:53
5,"[{'imgObject': {}, 'id': 'roastedpotatoes', 'src': '/static/foodstim60/roastedpotatoes.jpg', 'key': 'u', 'origWidth': 409, 'origHeight': 410, 'width': 409, 'height': 410, 'widthPercent': 0.45, 'rescaleHeight': False, 'trialN': 5, 'loaded': True, 'loadedTime': 9196.39999999851, 'positionName': 'LEFT', 'positionCoords': [328.28, 227], 'bid': 6.28}, {'imgObject': {}, 'id': 'cocktailshrimp', 'src': '/static/foodstim60/cocktailshrimp.jpg', 'key': 'i', 'origWidth': 410, 'origHeight': 410, 'width': 410, 'height': 410, 'widthPercent': 0.45, 'rescaleHeight': False, 'trialN': 5, 'loaded': True, 'loadedTime': 9392.39999999851, 'positionName': 'RIGHT', 'positionCoords': [798.72, 227], 'bid': 6.19}]",21089.10000000149,1669830235564,roastedpotatoes,cocktailshrimp,6.28,6.19,-0.08999999999999986,roastedpotatoes,696.3999999985099,698,698.6999999955297,True,u,22288.89999999851,1199.7999999970198,1669830236763,1199,HRV,HRV_0033,2022-11-30 17:47:53
6,"[{'imgObject': {}, 'id': 'fruitsalad', 'src': '/static/foodstim60/fruitsalad.jpg', 'key': 'u', 'origWidth': 410, 'origHeight': 410, 'width': 410, 'height': 410, 'widthPercent': 0.45, 'rescaleHeight': False, 'trialN': 6, 'loaded': True, 'loadedTime': 7268.39999999851, 'positionName': 'LEFT', 'positionCoords': [327.28, 227], 'bid': 4.07}, {'imgObject': {}, 'id': 'bagel plain', 'src': '/static/foodstim60/bagel plain.jpg', 'key': 'i', 'origWidth': 410, 'origHeight': 410, 'width': 410, 'height': 410, 'widthPercent': 0.45, 'rescaleHeight': False, 'trialN': 6, 'loaded': True, 'loadedTime': 9556.10000000149, 'positionName': 'RIGHT', 'positionCoords': [798.72, 227], 'bid': 2.64}]",22289.20000000298,1669830236764,fruitsalad,bagel plain,4.07,2.64,-1.4300000000000002,fruitsalad,964.0,966,966.0999999940395,True,u,23760.79999999702,1471.5999999940395,1669830238235,1471,HRV,HRV_0033,2022-11-30 17:47:53
7,"[{'imgObject': {}, 'id': 'chicken nuggets2', 'src': '/static/foodstim60/chicken nuggets2.jpg', 'key': 'u', 'origWidth': 410, 'origHeight': 409, 'width': 410, 'height': 409, 'widthPercent': 0.45, 'rescaleHeight': False, 'trialN': 7, 'loaded': True, 'loadedTime': 9811.70000000298, 'positionName': 'LEFT', 'positionCoords': [327.28, 227.5], 'bid': 1.54}, {'imgObject': {}, 'id': 'yogurt no spoon', 'src': '/static/foodstim60/yogurt no spoon.jpg', 'key': 'i', 'origWidth': 411, 'origHeight': 410, 'width': 411, 'height': 410, 'widthPercent': 0.45, 'rescaleHeight': False, 'trialN': 7, 'loaded': True, 'loadedTime': 6116.29999999702, 'positionName': 'RIGHT', 'positionCoords': [798.72, 227], 'bid': 1.6}]",23761.5,1669830238236,chicken nuggets2,yogurt no spoon,1.54,1.6,0.06000000000000005,chicken nuggets2,977.3999999985099,981,980.8999999985099,True,u,25252.20000000298,1490.7000000029802,1669830239727,1491,HRV,HRV_0033,2022-11-30 17:47:53
8,"[{'imgObject': {}, 'id': 'veggieswithdip', 'src': '/static/foodstim60/veggieswithdip.jpg', 'key': 'u', 'origWidth': 409, 'origHeight': 409, 'width': 409, 'height': 409, 'widthPercent': 0.45, 'rescaleHeight': False, 'trialN': 8, 'loaded': True, 'loadedTime': 10236.70000000298, 'positionName': 'LEFT', 'positionCoords': [328.28, 227.5], 'bid': 5.26}, {'imgObject': {}, 'id': 'seaweed', 'src': '/static/foodstim60/seaweed.jpg', 'key': 'i', 'origWidth': 410, 'origHeight': 410, 'width': 410, 'height': 410, 'widthPercent': 0.45, 'rescaleHeight': False, 'trialN': 8, 'loaded': True, 'loadedTime': 9812.29999999702, 'positionName': 'RIGHT', 'positionCoords': [798.72, 227], 'bid': 6.45}]",25252.39999999851,1669830239727,veggieswithdip,seaweed,5.26,6.45,1.1900000000000004,seaweed,889.3999999985099,892,891.7000000029802,True,i,26649.0,1396.6000000014901,1669830241124,1397,HRV,HRV_0033,2022-11-30 17:47:53
9,"[{'imgObject': {}, 'id': 'turkeysandwich', 'src': '/static/foodstim60/turkeysandwich.jpg', 'key': 'u', 'origWidth': 409, 'origHeight': 409, 'width': 409, 'height': 409, 'widthPercent': 0.45, 'rescaleHeight': False, 'trialN': 9, 'loaded': True, 'loadedTime': 8922.39999999851, 'positionName': 'LEFT', 'positionCoords': [328.28, 227.5], 'bid': 4.0200000000000005}, {'imgObject': {}, 'id': 'mango', 'src': '/static/foodstim60/mango.jpg', 'key': 'i', 'origWidth': 411, 'origHeight': 411, 'width': 411, 'height': 411, 'widthPercent': 0.45, 'rescaleHeight': False, 'trialN': 9, 'loaded': True, 'loadedTime': 10249.39999999851, 'positionName': 'RIGHT', 'positionCoords': [798.72, 226.5], 'bid': 4.58}]",26649.29999999702,1669830241124,turkeysandwich,mango,4.0200000000000005,4.58,0.5599999999999996,mango,869.7000000029802,871,871.2000000029802,True,i,28024.79999999702,1375.5,1669830242499,1375,HRV,HRV_0033,2022-11-30 17:47:53
10,"[{'imgObject': {}, 'id': 'hotdog w must', 'src': '/static/foodstim60/hotdog w must.jpg', 'key': 'u', 'origWidth': 409, 'origHeight': 409, 'width': 409, 'height': 409, 'widthPercent': 0.45, 'rescaleHeight': False, 'trialN': 10, 'loaded': True, 'loadedTime': 10289.70000000298, 'positionName': 'LEFT', 'positionCoords': [328.28, 227.5], 'bid': 2.29}, {'imgObject': {}, 'id': 'bagel and cc', 'src': '/static/foodstim60/bagel and cc.jpg', 'key': 'i', 'origWidth': 410, 'origHeight': 410, 'width': 410, 'height': 410, 'widthPercent': 0.45, 'rescaleHeight': False, 'trialN': 10, 'loaded': True, 'loadedTime': 10362.89999999851, 'positionName': 'RIGHT', 'positionCoords': [798.72, 227], 'bid': 1.7}]",28025.20000000298,1669830242500,hotdog w must,bagel and cc,2.29,1.7,-0.5900000000000001,hotdog w must,1059.0,1063,1063.5999999940395,True,u,29592.89999999851,1567.6999999955297,1669830244068,1568,HRV,HRV_0033,2022-11-30 17:47:53
11,"[{'imgObject': {}, 'id': 'blueberries', 'src': '/static/foodstim60/blueberries.jpg', 'key': 'u', 'origWidth': 411, 'origHeight': 411, 'width': 411, 'height': 411, 'widthPercent': 0.45, 'rescaleHeight': False, 'trialN': 11, 'loaded': True, 'loadedTime': 8095.60000000149, 'positionName': 'LEFT', 'positionCoords': [326.28, 226.5], 'bid': 1.35}, {'imgObject': {}, 'id': 'raisin bran w milk', 'src': '/static/foodstim60/raisin bran w milk.jpg', 'key': 'i', 'origWidth': 411, 'origHeight': 411, 'width': 411, 'height': 411, 'widthPercent': 0.45, 'rescaleHeight': False, 'trialN': 11, 'loaded': True, 'loadedTime': 10346.60000000149, 'positionName': 'RIGHT', 'positionCoords': [798.72, 226.5], 'bid': 1.38}]",29593.20000000298,1669830244068,blueberries,raisin bran w milk,1.35,1.38,0.029999999999999805,raisin bran w milk,645.5,648,648.5,True,i,30745.10000000149,1151.8999999985099,1669830245220,1152,HRV,HRV_0033,2022-11-30 17:47:53
12,"[{'imgObject': {}, 'id': 'burger', 'src': '/static/foodstim60/burger.jpg', 'key': 'u', 'origWidth': 409, 'origHeight': 409, 'width': 409, 'height': 409, 'widthPercent': 0.45, 'rescaleHeight': False, 'trialN': 12, 'loaded': True, 'loadedTime': 10407.5, 'positionName': 'LEFT', 'positionCoords': [328.28, 227.5], 'bid': 7.73}, {'imgObject': {}, 'id': 'cheerios', 'src': '/static/foodstim60/cheerios.jpg', 'key': 'i', 'origWidth': 409, 'origHeight': 410, 'width': 409, 'height': 410, 'widthPercent': 0.45, 'rescaleHeight': False, 'trialN': 12, 'loaded': True, 'loadedTime': 10452.79999999702, 'positionName': 'RIGHT', 'positionCoords': [798.72, 227], 'bid': 5.98}]",30745.60000000149,1669830245220,burger,cheerios,7.73,5.98,-1.75,burger,554.1000000014901,556,555.5,True,u,31808.79999999702,1063.1999999955297,1669830246283,1063,HRV,HRV_0033,2022-11-30 17:47:53
13,"[{'imgObject': {}, 'id': 'cherries', 'src': '/static/foodstim60/cherries.jpg', 'key': 'u', 'origWidth': 410, 'origHeight': 411, 'width': 410, 'height': 411, 'widthPercent': 0.45, 'rescaleHeight': False, 'trialN': 13, 'loaded': True, 'loadedTime': 10721.10000000149, 'positionName': 'LEFT', 'positionCoords': [327.28, 226.5], 'bid': 4.75}, {'imgObject': {}, 'id': 'raspberries', 'src': '/static/foodstim60/raspberries.jpg', 'key': 'i', 'origWidth': 411, 'origHeight': 411, 'width': 411, 'height': 411, 'widthPercent': 0.45, 'rescaleHeight': False, 'trialN': 13, 'loaded': True, 'loadedTime': 8502.29999999702, 'positionName': 'RIGHT', 'positionCoords': [798.72, 226.5], 'bid': 4.96}]",31809.39999999851,1669830246284,cherries,raspberries,4.75,4.96,0.20999999999999996,cherries,665.7000000029802,668,667.6000000014901,True,u,32986.10000000149,1176.7000000029802,1669830247461,1177,HRV,HRV_0033,2022-11-30 17:47:53
14,"[{'imgObject': {}, 'id': 'strawberries', 'src': '/static/foodstim60/strawberries.jpg', 'key': 'u', 'origWidth': 410, 'origHeight': 410, 'width': 410, 'height': 410, 'widthPercent': 0.45, 'rescaleHeight': False, 'trialN': 14, 'loaded': True, 'loadedTime': 11000.20000000298, 'positionName': 'LEFT', 'positionCoords': [327.28, 227], 'bid': 5.96}, {'imgObject': {}, 'id': 'froot loops w milk', 'src': '/static/foodstim60/froot loops w milk.jpg', 'key': 'i', 'origWidth': 410, 'origHeight': 410, 'width': 410, 'height': 410, 'widthPercent': 0.45, 'rescaleHeight': False, 'trialN': 14, 'loaded': True, 'loadedTime': 10922.79999999702, 'positionName': 'RIGHT', 'positionCoords': [798.72, 227], 'bid': 2.5}]",32986.70000000298,1669830247461,strawberries,froot loops w milk,5.96,2.5,-3.46,strawberries,600.2999999970198,603,602.3999999985099,True,u,34096.89999999851,1110.1999999955297,1669830248572,1111,HRV,HRV_0033,2022-11-30 17:47:53
15,"[{'imgObject': {}, 'id': 'avocado', 'src': '/static/foodstim60/avocado.jpg', 'key': 'u', 'origWidth': 409, 'origHeight': 409, 'width': 409, 'height': 409, 'widthPercent': 0.45, 'rescaleHeight': False, 'trialN': 15, 'loaded': True, 'loadedTime': 11461.20000000298, 'positionName': 'LEFT', 'positionCoords': [328.28, 227.5], 'bid': 4.67}, {'imgObject': {}, 'id': 'Tribe humus pita', 'src': '/static/foodstim60/Tribe humus pita.jpg', 'key': 'i', 'origWidth': 411, 'origHeight': 411, 'width': 411, 'height': 411, 'widthPercent': 0.45, 'rescaleHeight': False, 'trialN': 15, 'loaded': True, 'loadedTime': 11484.89999999851, 'positionName': 'RIGHT', 'positionCoords': [798.72, 226.5], 'bid': 5.2700000000000005}]",34097.20000000298,1669830248572,avocado,Tribe humus pita,4.67,5.2700000000000005,0.6000000000000005,Tribe humus pita,879.5,882,882.5,True,i,35485.20000000298,1388.0,1669830249960,1388,HRV,HRV_0033,2022-11-30 17:47:53
16,"[{'imgObject': {}, 'id': 'granola w milk', 'src': '/static/foodstim60/granola w milk.jpg', 'key': 'u', 'origWidth': 410, 'origHeight': 410, 'width': 410, 'height': 410, 'widthPercent': 0.45, 'rescaleHeight': False, 'trialN': 16, 'loaded': True, 'loadedTime': 11563.5, 'positionName': 'LEFT', 'positionCoords': [327.28, 227], 'bid': 1.47}, {'imgObject': {}, 'id': 'raisin bran w milk', 'src': '/static/foodstim60/raisin bran w milk.jpg', 'key': 'i', 'origWidth': 411, 'origHeight': 411, 'width': 411, 'height': 411, 'widthPercent': 0.45, 'rescaleHeight': False, 'trialN': 16, 'loaded': True, 'loadedTime': 10334.79999999702, 'positionName': 'RIGHT', 'positionCoords': [798.72, 226.5], 'bid': 1.38}]",35485.60000000149,1669830249960,granola w milk,raisin bran w milk,1.47,1.38,-0.09000000000000008,raisin bran w milk,767.6000000014901,770,769.6999999955297,True,i,36761.0,1275.3999999985099,1669830251236,1276,HRV,HRV_0033,2022-11-30 17:47:53
17,"[{'imgObject': {}, 'id': 'cantaloupe', 'src': '/static/foodstim60/cantaloupe.jpg', 'key': 'u', 'origWidth': 409, 'origHeight': 409, 'width': 409, 'height': 409, 'widthPercent': 0.45, 'rescaleHeight': False, 'trialN': 17, 'loaded': True, 'loadedTime': 11681.20000000298, 'positionName': 'LEFT', 'positionCoords': [328.28, 227.5], 'bid': 1.69}, {'imgObject': {}, 'id': 'banana', 'src': '/static/foodstim60/banana.jpg', 'key': 'i', 'origWidth': 410, 'origHeight': 410, 'width': 410, 'height': 410, 'widthPercent': 0.45, 'rescaleHeight': False, 'trialN': 17, 'loaded': True, 'loadedTime': 11818.60000000149, 'positionName': 'RIGHT', 'positionCoords': [798.72, 227], 'bid': 0.66}]",36761.39999999851,1669830251236,cantaloupe,banana,1.69,0.66,-1.0299999999999998,cantaloupe,1159.0,1161,1161.2000000029802,True,u,38425.5,1664.1000000014901,1669830252900,1664,HRV,HRV_0033,2022-11-30 17:47:53
18,"[{'imgObject': {}, 'id': 'avocado', 'src': '/static/foodstim60/avocado.jpg', 'key': 'u', 'origWidth': 409, 'origHeight': 409, 'width': 409, 'height': 409, 'widthPercent': 0.45, 'rescaleHeight': False, 'trialN': 18, 'loaded': True, 'loadedTime': 11457, 'positionName': 'LEFT', 'positionCoords': [328.28, 227.5], 'bid': 4.67}, {'imgObject': {}, 'id': 'seaweed', 'src': '/static/foodstim60/seaweed.jpg', 'key': 'i', 'origWidth': 410, 'origHeight': 410, 'width': 410, 'height': 410, 'widthPercent': 0.45, 'rescaleHeight': False, 'trialN': 18, 'loaded': True, 'loadedTime': 9837.39999999851, 'positionName': 'RIGHT', 'positionCoords': [798.72, 227], 'bid': 6.45}]",38425.89999999851,1669830252900,avocado,seaweed,4.67,6.45,1.7800000000000002,seaweed,639.7000000029802,642,641.8000000044703,True,i,39569.10000000149,1143.2000000029802,1669830254044,1144,HRV,HRV_0033,2022-11-30 17:47:53
19,"[{'imgObject': {}, 'id': 'bagel plain', 'src': '/static/foodstim60/bagel plain.jpg', 'key': 'u', 'origWidth': 410, 'origHeight': 410, 'width': 410, 'height': 410, 'widthPercent': 0.45, 'rescaleHeight': False, 'trialN': 19, 'loaded': True, 'loadedTime': 9431.79999999702, 'positionName': 'LEFT', 'positionCoords': [327.28, 227], 'bid': 2.64}, {'imgObject': {}, 'id': 'orange slices', 'src': '/static/foodstim60/orange slices.jpg', 'key': 'i', 'origWidth': 409, 'origHeight': 410, 'width': 409, 'height': 410, 'widthPercent': 0.45, 'rescaleHeight': False, 'trialN': 19, 'loaded': True, 'loadedTime': 11828.5, 'positionName': 'RIGHT', 'positionCoords': [798.72, 227], 'bid': 2.79}]",39570.10000000149,1669830254045,bagel plain,orange slices,2.64,2.79,0.1499999999999999,orange slices,1175.6999999955297,1178,1178.0,True,i,41256.79999999702,1686.6999999955297,1669830255731,1686,HRV,HRV_0033,2022-11-30 17:47:53
20,"[{'imgObject': {}, 'id': 'strawberries', 'src': '/static/foodstim60/strawberries.jpg', 'key': 'u', 'origWidth': 410, 'origHeight': 410, 'width': 410, 'height': 410, 'widthPercent': 0.45, 'rescaleHeight': False, 'trialN': 20, 'loaded': True, 'loadedTime': 10972.60000000149, 'positionName': 'LEFT', 'positionCoords': [327.28, 227], 'bid': 5.96}, {'imgObject': {}, 'id': 'luckycharms', 'src': '/static/foodstim60/luckycharms.jpg', 'key': 'i', 'origWidth': 410, 'origHeight': 409, 'width': 410, 'height': 409, 'widthPercent': 0.45, 'rescaleHeight': False, 'trialN': 20, 'loaded': True, 'loadedTime': 12009.89999999851, 'positionName': 'RIGHT', 'positionCoords': [798.72, 227.5], 'bid': 5.19}]",41257.10000000149,1669830255732,strawberries,luckycharms,5.96,5.19,-0.7699999999999996,strawberries,735.6000000014901,738,737.8999999985099,True,u,42497.20000000298,1240.1000000014901,1669830256972,1240,HRV,HRV_0033,2022-11-30 17:47:53
21,"[{'imgObject': {}, 'id': 'granola w milk', 'src': '/static/foodstim60/granola w milk.jpg', 'key': 'u', 'origWidth': 410, 'origHeight': 410, 'width': 410, 'height': 410, 'widthPercent': 0.45, 'rescaleHeight': False, 'trialN': 21, 'loaded': True, 'loadedTime': 11560.20000000298, 'positionName': 'LEFT', 'positionCoords': [327.28, 227], 'bid': 1.47}, {'imgObject': {}, 'id': 'rigatoni', 'src': '/static/foodstim60/rigatoni.jpg', 'key': 'i', 'origWidth': 411, 'origHeight': 411, 'width': 411, 'height': 411, 'widthPercent': 0.45, 'rescaleHeight': False, 'trialN': 21, 'loaded': True, 'loadedTime': 12046.89999999851, 'positionName': 'RIGHT', 'positionCoords': [798.72, 226.5], 'bid': 1.4}]",42498.5,1669830256973,granola w milk,rigatoni,1.47,1.4,-0.07000000000000006,rigatoni,693.2000000029802,696,695.7999999970198,True,i,43696.79999999702,1198.2999999970198,1669830258171,1198,HRV,HRV_0033,2022-11-30 17:47:53
22,"[{'imgObject': {}, 'id': 'olives', 'src': '/static/foodstim60/olives.jpg', 'key': 'u', 'origWidth': 410, 'origHeight': 410, 'width': 410, 'height': 410, 'widthPercent': 0.45, 'rescaleHeight': False, 'trialN': 22, 'loaded': True, 'loadedTime': 12054.29999999702, 'positionName': 'LEFT', 'positionCoords': [327.28, 227], 'bid': 8.5}, {'imgObject': {}, 'id': 'lox', 'src': '/static/foodstim60/lox.jpg', 'key': 'i', 'origWidth': 410, 'origHeight': 411, 'width': 410, 'height': 411, 'widthPercent': 0.45, 'rescaleHeight': False, 'trialN': 22, 'loaded': True, 'loadedTime': 12211.79999999702, 'positionName': 'RIGHT', 'positionCoords': [798.72, 226.5], 'bid': 6.87}]",43697.39999999851,1669830258172,olives,lox,8.5,6.87,-1.63,olives,697.8999999985099,700,699.8000000044703,True,u,44904.89999999851,1207.5,1669830259380,1208,HRV,HRV_0033,2022-11-30 17:47:53
23,"[{'imgObject': {}, 'id': 'hotdog w must', 'src': '/static/foodstim60/hotdog w must.jpg', 'key': 'u', 'origWidth': 409, 'origHeight': 409, 'width': 409, 'height': 409, 'widthPercent': 0.45, 'rescaleHeight': False, 'trialN': 23, 'loaded': True, 'loadedTime': 10299.29999999702, 'positionName': 'LEFT', 'positionCoords': [328.28, 227.5], 'bid': 2.29}, {'imgObject': {}, 'id': 'Grapes', 'src': '/static/foodstim60/Grapes.jpg', 'key': 'i', 'origWidth': 411, 'origHeight': 411, 'width': 411, 'height': 411, 'widthPercent': 0.45, 'rescaleHeight': False, 'trialN': 23, 'loaded': True, 'loadedTime': 12232.39999999851, 'positionName': 'RIGHT', 'positionCoords': [798.72, 226.5], 'bid': 2.42}]",44905.20000000298,1669830259380,hotdog w must,Grapes,2.29,2.42,0.1299999999999999,hotdog w must,639.6999999955297,642,641.8999999985099,True,u,46049.0,1143.7999999970198,1669830260524,1144,HRV,HRV_0033,2022-11-30 17:47:53
24,"[{'imgObject': {}, 'id': 'lox', 'src': '/static/foodstim60/lox.jpg', 'key': 'u', 'origWidth': 410, 'origHeight': 411, 'width': 410, 'height': 411, 'widthPercent': 0.45, 'rescaleHeight': False, 'trialN': 24, 'loaded': True, 'loadedTime': 12223.39999999851, 'positionName': 'LEFT', 'positionCoords': [327.28, 226.5], 'bid': 6.87}, {'imgObject': {}, 'id': 'sushi w_condiments', 'src': '/static/foodstim60/sushi w_condiments.jpg', 'key': 'i', 'origWidth': 410, 'origHeight': 410, 'width': 410, 'height': 410, 'widthPercent': 0.45, 'rescaleHeight': False, 'trialN': 24, 'loaded': True, 'loadedTime': 12402.89999999851, 'positionName': 'RIGHT', 'positionCoords': [798.72, 227], 'bid': 7.05}]",46049.39999999851,1669830260524,lox,sushi w_condiments,6.87,7.05,0.17999999999999972,sushi w_condiments,615.0,617,616.7000000029802,True,i,47172.79999999702,1123.3999999985099,1669830261647,1123,HRV,HRV_0033,2022-11-30 17:47:53
25,"[{'imgObject': {}, 'id': 'edamame', 'src': '/static/foodstim60/edamame.jpg', 'key': 'u', 'origWidth': 409, 'origHeight': 410, 'width': 409, 'height': 410, 'widthPercent': 0.45, 'rescaleHeight': False, 'trialN': 25, 'loaded': True, 'loadedTime': 7557.39999999851, 'positionName': 'LEFT', 'positionCoords': [328.28, 227], 'bid': 2.5}, {'imgObject': {}, 'id': 'cheerios', 'src': '/static/foodstim60/cheerios.jpg', 'key': 'i', 'origWidth': 409, 'origHeight': 410, 'width': 409, 'height': 410, 'widthPercent': 0.45, 'rescaleHeight': False, 'trialN': 25, 'loaded': True, 'loadedTime': 10473.60000000149, 'positionName': 'RIGHT', 'positionCoords': [798.72, 227], 'bid': 5.98}]",47173.29999999702,1669830261648,edamame,cheerios,2.5,5.98,3.4800000000000004,edamame,742.6000000014901,744,744.0,True,u,48424.79999999702,1251.5,1669830262899,1251,HRV,HRV_0033,2022-11-30 17:47:53
26,"[{'imgObject': {}, 'id': 'cheerios', 'src': '/static/foodstim60/cheerios.jpg', 'key': 'u', 'origWidth': 409, 'origHeight': 410, 'width': 409, 'height': 410, 'widthPercent': 0.45, 'rescaleHeight': False, 'trialN': 26, 'loaded': True, 'loadedTime': 10471.5, 'positionName': 'LEFT', 'positionCoords': [328.28, 227], 'bid': 5.98}, {'imgObject': {}, 'id': 'cocktailshrimp', 'src': '/static/foodstim60/cocktailshrimp.jpg', 'key': 'i', 'origWidth': 410, 'origHeight': 410, 'width': 410, 'height': 410, 'widthPercent': 0.45, 'rescaleHeight': False, 'trialN': 26, 'loaded': True, 'loadedTime': 9410.60000000149, 'positionName': 'RIGHT', 'positionCoords': [798.72, 227], 'bid': 6.19}]",48425.39999999851,1669830262900,cheerios,cocktailshrimp,5.98,6.19,0.20999999999999996,cocktailshrimp,734.5,736,736.0,True,i,49664.79999999702,1239.3999999985099,1669830264139,1239,HRV,HRV_0033,2022-11-30 17:47:53
27,"[{'imgObject': {}, 'id': 'bagel and cc', 'src': '/static/foodstim60/bagel and cc.jpg', 'key': 'u', 'origWidth': 410, 'origHeight': 410, 'width': 410, 'height': 410, 'widthPercent': 0.45, 'rescaleHeight': False, 'trialN': 27, 'loaded': True, 'loadedTime': 10376.29999999702, 'positionName': 'LEFT', 'positionCoords': [327.28, 227], 'bid': 1.7}, {'imgObject': {}, 'id': 'veggieswithdip', 'src': '/static/foodstim60/veggieswithdip.jpg', 'key': 'i', 'origWidth': 409, 'origHeight': 409, 'width': 409, 'height': 409, 'widthPercent': 0.45, 'rescaleHeight': False, 'trialN': 27, 'loaded': True, 'loadedTime': 10158.70000000298, 'positionName': 'RIGHT', 'positionCoords': [798.72, 227.5], 'bid': 5.26}]",49665.70000000298,1669830264140,bagel and cc,veggieswithdip,1.7,5.26,3.5599999999999996,veggieswithdip,758.2999999970198,761,760.5,True,i,50929.20000000298,1263.5,1669830265404,1264,HRV,HRV_0033,2022-11-30 17:47:53
28,"[{'imgObject': {}, 'id': 'sweetpotato', 'src': '/static/foodstim60/sweetpotato.jpg', 'key': 'u', 'origWidth': 410, 'origHeight': 410, 'width': 410, 'height': 410, 'widthPercent': 0.45, 'rescaleHeight': False, 'trialN': 28, 'loaded': True, 'loadedTime': 12727.39999999851, 'positionName': 'LEFT', 'positionCoords': [327.28, 227], 'bid': 0.55}, {'imgObject': {}, 'id': 'Grapes', 'src': '/static/foodstim60/Grapes.jpg', 'key': 'i', 'origWidth': 411, 'origHeight': 411, 'width': 411, 'height': 411, 'widthPercent': 0.45, 'rescaleHeight': False, 'trialN': 28, 'loaded': True, 'loadedTime': 12248, 'positionName': 'RIGHT', 'positionCoords': [798.72, 226.5], 'bid': 2.42}]",50929.79999999702,1669830265404,sweetpotato,Grapes,0.55,2.42,1.8699999999999999,sweetpotato,711.4000000059605,713,712.9000000059605,True,u,52144.79999999702,1215.0,1669830266619,1215,HRV,HRV_0033,2022-11-30 17:47:53
29,"[{'imgObject': {}, 'id': 'eggs', 'src': '/static/foodstim60/eggs.jpg', 'key': 'u', 'origWidth': 409, 'origHeight': 409, 'width': 409, 'height': 409, 'widthPercent': 0.45, 'rescaleHeight': False, 'trialN': 29, 'loaded': True, 'loadedTime': 12790.79999999702, 'positionName': 'LEFT', 'positionCoords': [328.28, 227.5], 'bid': 3.28}, {'imgObject': {}, 'id': 'kiwi', 'src': '/static/foodstim60/kiwi.jpg', 'key': 'i', 'origWidth': 410, 'origHeight': 410, 'width': 410, 'height': 410, 'widthPercent': 0.45, 'rescaleHeight': False, 'trialN': 29, 'loaded': True, 'loadedTime': 13171.79999999702, 'positionName': 'RIGHT', 'positionCoords': [798.72, 227], 'bid': 3.5}]",52145.10000000149,1669830266620,eggs,kiwi,3.28,3.5,0.2200000000000002,eggs,562.5,563,563.6999999955297,True,u,53216.79999999702,1071.6999999955297,1669830267691,1071,HRV,HRV_0033,2022-11-30 17:47:53
30,"[{'imgObject': {}, 'id': 'veggieswithdip', 'src': '/static/foodstim60/veggieswithdip.jpg', 'key': 'u', 'origWidth': 409, 'origHeight': 409, 'width': 409, 'height': 409, 'widthPercent': 0.45, 'rescaleHeight': False, 'trialN': 30, 'loaded': True, 'loadedTime': 9998.5, 'positionName': 'LEFT', 'positionCoords': [328.28, 227.5], 'bid': 5.26}, {'imgObject': {}, 'id': 'tacos', 'src': '/static/foodstim60/tacos.jpg', 'key': 'i', 'origWidth': 411, 'origHeight': 411, 'width': 411, 'height': 411, 'widthPercent': 0.45, 'rescaleHeight': False, 'trialN': 30, 'loaded': True, 'loadedTime': 13178.29999999702, 'positionName': 'RIGHT', 'positionCoords': [798.72, 226.5], 'bid': 7.6}]",53217.10000000149,1669830267692,veggieswithdip,tacos,5.26,7.6,2.34,tacos,720.1999999955297,723,723.2999999970198,True,i,54440.79999999702,1223.6999999955297,1669830268915,1223,HRV,HRV_0033,2022-11-30 17:47:53
31,"[{'imgObject': {}, 'id': 'mango', 'src': '/static/foodstim60/mango.jpg', 'key': 'u', 'origWidth': 411, 'origHeight': 411, 'width': 411, 'height': 411, 'widthPercent': 0.45, 'rescaleHeight': False, 'trialN': 31, 'loaded': True, 'loadedTime': 10251.29999999702, 'positionName': 'LEFT', 'positionCoords': [326.28, 226.5], 'bid': 4.58}, {'imgObject': {}, 'id': 'apple slices', 'src': '/static/foodstim60/apple slices.jpg', 'key': 'i', 'origWidth': 409, 'origHeight': 410, 'width': 409, 'height': 410, 'widthPercent': 0.45, 'rescaleHeight': False, 'trialN': 31, 'loaded': True, 'loadedTime': 13281.60000000149, 'positionName': 'RIGHT', 'positionCoords': [798.72, 227], 'bid': 3.34}]",54441.20000000298,1669830268916,mango,apple slices,4.58,3.34,-1.2400000000000002,mango,712.8999999985099,715,714.6999999955297,True,u,55656.79999999702,1215.5999999940395,1669830270131,1215,HRV,HRV_0033,2022-11-30 17:47:53
32,"[{'imgObject': {}, 'id': 'baked potato', 'src': '/static/foodstim60/baked potato.jpg', 'key': 'u', 'origWidth': 409, 'origHeight': 410, 'width': 409, 'height': 410, 'widthPercent': 0.45, 'rescaleHeight': False, 'trialN': 32, 'loaded': True, 'loadedTime': 13290.10000000149, 'positionName': 'LEFT', 'positionCoords': [328.28, 227], 'bid': 5}, {'imgObject': {}, 'id': 'corn cob', 'src': '/static/foodstim60/corn cob.jpg', 'key': 'i', 'origWidth': 411, 'origHeight': 411, 'width': 411, 'height': 411, 'widthPercent': 0.45, 'rescaleHeight': False, 'trialN': 32, 'loaded': True, 'loadedTime': 13308.39999999851, 'positionName': 'RIGHT', 'positionCoords': [798.72, 226.5], 'bid': 1.64}]",55657.5,1669830270132,baked potato,corn cob,5.0,1.64,-3.3600000000000003,baked potato,731.6000000014901,736,735.7999999970198,True,u,56897.39999999851,1239.8999999985099,1669830271372,1240,HRV,HRV_0033,2022-11-30 17:47:53
33,"[{'imgObject': {}, 'id': 'olives', 'src': '/static/foodstim60/olives.jpg', 'key': 'u', 'origWidth': 410, 'origHeight': 410, 'width': 410, 'height': 410, 'widthPercent': 0.45, 'rescaleHeight': False, 'trialN': 33, 'loaded': True, 'loadedTime': 12211.29999999702, 'positionName': 'LEFT', 'positionCoords': [327.28, 227], 'bid': 8.5}, {'imgObject': {}, 'id': 'cocktailshrimp', 'src': '/static/foodstim60/cocktailshrimp.jpg', 'key': 'i', 'origWidth': 410, 'origHeight': 410, 'width': 410, 'height': 410, 'widthPercent': 0.45, 'rescaleHeight': False, 'trialN': 33, 'loaded': True, 'loadedTime': 9401.79999999702, 'positionName': 'RIGHT', 'positionCoords': [798.72, 227], 'bid': 6.19}]",56897.79999999702,1669830271372,olives,cocktailshrimp,8.5,6.19,-2.3099999999999996,olives,574.9000000059605,577,576.8000000044703,True,u,57976.89999999851,1079.1000000014901,1669830272452,1080,HRV,HRV_0033,2022-11-30 17:47:53
34,"[{'imgObject': {}, 'id': 'apple slices', 'src': '/static/foodstim60/apple slices.jpg', 'key': 'u', 'origWidth': 409, 'origHeight': 410, 'width': 409, 'height': 410, 'widthPercent': 0.45, 'rescaleHeight': False, 'trialN': 34, 'loaded': True, 'loadedTime': 13282.20000000298, 'positionName': 'LEFT', 'positionCoords': [328.28, 227], 'bid': 3.34}, {'imgObject': {}, 'id': 'eggs', 'src': '/static/foodstim60/eggs.jpg', 'key': 'i', 'origWidth': 409, 'origHeight': 409, 'width': 409, 'height': 409, 'widthPercent': 0.45, 'rescaleHeight': False, 'trialN': 34, 'loaded': True, 'loadedTime': 12752, 'positionName': 'RIGHT', 'positionCoords': [798.72, 227.5], 'bid': 3.28}]",57977.20000000298,1669830272452,apple slices,eggs,3.34,3.28,-0.06000000000000005,eggs,835.5,838,837.8999999985099,True,i,59322.10000000149,1344.8999999985099,1669830273797,1345,HRV,HRV_0033,2022-11-30 17:47:53
35,"[{'imgObject': {}, 'id': 'blueberries', 'src': '/static/foodstim60/blueberries.jpg', 'key': 'u', 'origWidth': 411, 'origHeight': 411, 'width': 411, 'height': 411, 'widthPercent': 0.45, 'rescaleHeight': False, 'trialN': 35, 'loaded': True, 'loadedTime': 8095, 'positionName': 'LEFT', 'positionCoords': [326.28, 226.5], 'bid': 1.35}, {'imgObject': {}, 'id': 'rigatoni and sauce', 'src': '/static/foodstim60/rigatoni and sauce.jpg', 'key': 'i', 'origWidth': 410, 'origHeight': 411, 'width': 410, 'height': 411, 'widthPercent': 0.45, 'rescaleHeight': False, 'trialN': 35, 'loaded': True, 'loadedTime': 7531.5, 'positionName': 'RIGHT', 'positionCoords': [798.72, 226.5], 'bid': 2.51}]",59322.29999999702,1669830273797,blueberries,rigatoni and sauce,1.35,2.51,1.1599999999999997,rigatoni and sauce,552.7000000029802,555,555.3000000044703,True,i,60384.79999999702,1062.5,1669830274859,1062,HRV,HRV_0033,2022-11-30 17:47:53
36,"[{'imgObject': {}, 'id': 'eggsalad', 'src': '/static/foodstim60/eggsalad.jpg', 'key': 'u', 'origWidth': 410, 'origHeight': 409, 'width': 410, 'height': 409, 'widthPercent': 0.45, 'rescaleHeight': False, 'trialN': 36, 'loaded': True, 'loadedTime': 13316.39999999851, 'positionName': 'LEFT', 'positionCoords': [327.28, 227.5], 'bid': 2.65}, {'imgObject': {}, 'id': 'omelette', 'src': '/static/foodstim60/omelette.jpg', 'key': 'i', 'origWidth': 410, 'origHeight': 409, 'width': 410, 'height': 409, 'widthPercent': 0.45, 'rescaleHeight': False, 'trialN': 36, 'loaded': True, 'loadedTime': 13322.29999999702, 'positionName': 'RIGHT', 'positionCoords': [798.72, 227.5], 'bid': 4.17}]",60385.39999999851,1669830274860,eggsalad,omelette,2.65,4.17,1.52,eggsalad,567.3000000044703,570,570.3999999985099,True,u,61464.79999999702,1079.3999999985099,1669830275939,1079,HRV,HRV_0033,2022-11-30 17:47:53
37,"[{'imgObject': {}, 'id': 'mashed potato', 'src': '/static/foodstim60/mashed potato.jpg', 'key': 'u', 'origWidth': 409, 'origHeight': 409, 'width': 409, 'height': 409, 'widthPercent': 0.45, 'rescaleHeight': False, 'trialN': 37, 'loaded': True, 'loadedTime': 13329.70000000298, 'positionName': 'LEFT', 'positionCoords': [328.28, 227.5], 'bid': 4.38}, {'imgObject': {}, 'id': 'mango', 'src': '/static/foodstim60/mango.jpg', 'key': 'i', 'origWidth': 411, 'origHeight': 411, 'width': 411, 'height': 411, 'widthPercent': 0.45, 'rescaleHeight': False, 'trialN': 37, 'loaded': True, 'loadedTime': 10261.20000000298, 'positionName': 'RIGHT', 'positionCoords': [798.72, 226.5], 'bid': 4.58}]",61465.0,1669830275940,mashed potato,mango,4.38,4.58,0.20000000000000018,mashed potato,577.0,579,579.7000000029802,True,u,62546.20000000298,1081.2000000029802,1669830277021,1081,HRV,HRV_0033,2022-11-30 17:47:53
38,"[{'imgObject': {}, 'id': 'bagel and cc', 'src': '/static/foodstim60/bagel and cc.jpg', 'key': 'u', 'origWidth': 410, 'origHeight': 410, 'width': 410, 'height': 410, 'widthPercent': 0.45, 'rescaleHeight': False, 'trialN': 38, 'loaded': True, 'loadedTime': 10357.39999999851, 'positionName': 'LEFT', 'positionCoords': [327.28, 227], 'bid': 1.7}, {'imgObject': {}, 'id': 'popsicles', 'src': '/static/foodstim60/popsicles.jpg', 'key': 'i', 'origWidth': 410, 'origHeight': 410, 'width': 410, 'height': 410, 'widthPercent': 0.45, 'rescaleHeight': False, 'trialN': 38, 'loaded': True, 'loadedTime': 13335.79999999702, 'positionName': 'RIGHT', 'positionCoords': [798.72, 227], 'bid': 1.13}]",62546.5,1669830277021,bagel and cc,popsicles,1.7,1.13,-0.5700000000000001,bagel and cc,686.3999999985099,689,688.3999999985099,True,u,63737.0,1190.5,1669830278212,1191,HRV,HRV_0033,2022-11-30 17:47:53
39,"[{'imgObject': {}, 'id': 'rigatoni', 'src': '/static/foodstim60/rigatoni.jpg', 'key': 'u', 'origWidth': 411, 'origHeight': 411, 'width': 411, 'height': 411, 'widthPercent': 0.45, 'rescaleHeight': False, 'trialN': 39, 'loaded': True, 'loadedTime': 12027.79999999702, 'positionName': 'LEFT', 'positionCoords': [326.28, 226.5], 'bid': 1.4}, {'imgObject': {}, 'id': 'cherry tomato', 'src': '/static/foodstim60/cherry tomato.jpg', 'key': 'i', 'origWidth': 410, 'origHeight': 410, 'width': 410, 'height': 410, 'widthPercent': 0.45, 'rescaleHeight': False, 'trialN': 39, 'loaded': True, 'loadedTime': 13340.60000000149, 'positionName': 'RIGHT', 'positionCoords': [798.72, 227], 'bid': 4.58}]",63737.29999999702,1669830278212,rigatoni,cherry tomato,1.4,4.58,3.18,rigatoni,614.9000000059605,616,616.4000000059605,True,u,64856.89999999851,1119.6000000014901,1669830279331,1119,HRV,HRV_0033,2022-11-30 17:47:53
40,"[{'imgObject': {}, 'id': 'mac & cheese', 'src': '/static/foodstim60/mac & cheese.jpg', 'key': 'u', 'origWidth': 410, 'origHeight': 410, 'width': 410, 'height': 410, 'widthPercent': 0.45, 'rescaleHeight': False, 'trialN': 40, 'loaded': True, 'loadedTime': 13364.20000000298, 'positionName': 'LEFT', 'positionCoords': [327.28, 227], 'bid': 7.05}, {'imgObject': {}, 'id': 'cheerios', 'src': '/static/foodstim60/cheerios.jpg', 'key': 'i', 'origWidth': 409, 'origHeight': 410, 'width': 409, 'height': 410, 'widthPercent': 0.45, 'rescaleHeight': False, 'trialN': 40, 'loaded': True, 'loadedTime': 10472.79999999702, 'positionName': 'RIGHT', 'positionCoords': [798.72, 227], 'bid': 5.98}]",64857.10000000149,1669830279332,mac & cheese,cheerios,7.05,5.98,-1.0699999999999994,mac & cheese,826.6000000014901,829,828.7999999970198,True,u,66193.0,1335.8999999985099,1669830280668,1336,HRV,HRV_0033,2022-11-30 17:47:53
41,"[{'imgObject': {}, 'id': 'kiwi', 'src': '/static/foodstim60/kiwi.jpg', 'key': 'u', 'origWidth': 410, 'origHeight': 410, 'width': 410, 'height': 410, 'widthPercent': 0.45, 'rescaleHeight': False, 'trialN': 41, 'loaded': True, 'loadedTime': 12791.60000000149, 'positionName': 'LEFT', 'positionCoords': [327.28, 227], 'bid': 3.5}, {'imgObject': {}, 'id': 'turkey sandwich', 'src': '/static/foodstim60/turkey sandwich.jpg', 'key': 'i', 'origWidth': 409, 'origHeight': 409, 'width': 409, 'height': 409, 'widthPercent': 0.45, 'rescaleHeight': False, 'trialN': 41, 'loaded': True, 'loadedTime': 13365.20000000298, 'positionName': 'RIGHT', 'positionCoords': [798.72, 227.5], 'bid': 3.91}]",66193.29999999702,1669830280668,kiwi,turkey sandwich,3.5,3.91,0.41000000000000014,turkey sandwich,906.1000000014901,910,909.6000000014901,True,i,67608.89999999851,1415.6000000014901,1669830282083,1415,HRV,HRV_0033,2022-11-30 17:47:53
42,"[{'imgObject': {}, 'id': 'baked potato', 'src': '/static/foodstim60/baked potato.jpg', 'key': 'u', 'origWidth': 409, 'origHeight': 410, 'width': 409, 'height': 410, 'widthPercent': 0.45, 'rescaleHeight': False, 'trialN': 42, 'loaded': True, 'loadedTime': 13298.70000000298, 'positionName': 'LEFT', 'positionCoords': [328.28, 227], 'bid': 5}, {'imgObject': {}, 'id': 'chickenfingers', 'src': '/static/foodstim60/chickenfingers.jpg', 'key': 'i', 'origWidth': 410, 'origHeight': 410, 'width': 410, 'height': 410, 'widthPercent': 0.45, 'rescaleHeight': False, 'trialN': 42, 'loaded': True, 'loadedTime': 13412.89999999851, 'positionName': 'RIGHT', 'positionCoords': [798.72, 227], 'bid': 6.23}]",67609.20000000298,1669830282084,baked potato,chickenfingers,5.0,6.23,1.2300000000000004,chickenfingers,593.5,595,595.0999999940395,True,i,68704.89999999851,1095.6999999955297,1669830283180,1096,HRV,HRV_0033,2022-11-30 17:47:53
43,"[{'imgObject': {}, 'id': 'bagel plain', 'src': '/static/foodstim60/bagel plain.jpg', 'key': 'u', 'origWidth': 410, 'origHeight': 410, 'width': 410, 'height': 410, 'widthPercent': 0.45, 'rescaleHeight': False, 'trialN': 43, 'loaded': True, 'loadedTime': 9556.70000000298, 'positionName': 'LEFT', 'positionCoords': [327.28, 227], 'bid': 2.64}, {'imgObject': {}, 'id': 'Grapes', 'src': '/static/foodstim60/Grapes.jpg', 'key': 'i', 'origWidth': 411, 'origHeight': 411, 'width': 411, 'height': 411, 'widthPercent': 0.45, 'rescaleHeight': False, 'trialN': 43, 'loaded': True, 'loadedTime': 12240.20000000298, 'positionName': 'RIGHT', 'positionCoords': [798.72, 226.5], 'bid': 2.42}]",68705.79999999702,1669830283180,bagel plain,Grapes,2.64,2.42,-0.2200000000000002,bagel plain,874.5,877,876.9000000059605,True,u,70088.89999999851,1383.1000000014901,1669830284564,1384,HRV,HRV_0033,2022-11-30 17:47:53
44,"[{'imgObject': {}, 'id': 'omelette', 'src': '/static/foodstim60/omelette.jpg', 'key': 'u', 'origWidth': 410, 'origHeight': 409, 'width': 410, 'height': 409, 'widthPercent': 0.45, 'rescaleHeight': False, 'trialN': 44, 'loaded': True, 'loadedTime': 13320.79999999702, 'positionName': 'LEFT', 'positionCoords': [327.28, 227.5], 'bid': 4.17}, {'imgObject': {}, 'id': 'salad w chicken', 'src': '/static/foodstim60/salad w chicken.jpg', 'key': 'i', 'origWidth': 411, 'origHeight': 411, 'width': 411, 'height': 411, 'widthPercent': 0.45, 'rescaleHeight': False, 'trialN': 44, 'loaded': True, 'loadedTime': 8501.39999999851, 'positionName': 'RIGHT', 'positionCoords': [798.72, 226.5], 'bid': 4.57}]",70089.20000000298,1669830284564,omelette,salad w chicken,4.17,4.57,0.40000000000000036,omelette,689.5,692,692.1999999955297,True,u,71288.79999999702,1199.5999999940395,1669830285763,1199,HRV,HRV_0033,2022-11-30 17:47:53
45,"[{'imgObject': {}, 'id': 'chickenfingers', 'src': '/static/foodstim60/chickenfingers.jpg', 'key': 'u', 'origWidth': 410, 'origHeight': 410, 'width': 410, 'height': 410, 'widthPercent': 0.45, 'rescaleHeight': False, 'trialN': 45, 'loaded': True, 'loadedTime': 13431.5, 'positionName': 'LEFT', 'positionCoords': [327.28, 227], 'bid': 6.23}, {'imgObject': {}, 'id': 'mango', 'src': '/static/foodstim60/mango.jpg', 'key': 'i', 'origWidth': 411, 'origHeight': 411, 'width': 411, 'height': 411, 'widthPercent': 0.45, 'rescaleHeight': False, 'trialN': 45, 'loaded': True, 'loadedTime': 10241.60000000149, 'positionName': 'RIGHT', 'positionCoords': [798.72, 226.5], 'bid': 4.58}]",71289.39999999851,1669830285764,chickenfingers,mango,6.23,4.58,-1.6500000000000004,chickenfingers,553.0,555,555.3000000044703,True,u,72352.79999999702,1063.3999999985099,1669830286827,1063,HRV,HRV_0033,2022-11-30 17:47:53
46,"[{'imgObject': {}, 'id': 'steak', 'src': '/static/foodstim60/steak.jpg', 'key': 'u', 'origWidth': 410, 'origHeight': 410, 'width': 410, 'height': 410, 'widthPercent': 0.45, 'rescaleHeight': False, 'trialN': 46, 'loaded': True, 'loadedTime': 13471, 'positionName': 'LEFT', 'positionCoords': [327.28, 227], 'bid': 2.5}, {'imgObject': {}, 'id': 'edamame', 'src': '/static/foodstim60/edamame.jpg', 'key': 'i', 'origWidth': 409, 'origHeight': 410, 'width': 409, 'height': 410, 'widthPercent': 0.45, 'rescaleHeight': False, 'trialN': 46, 'loaded': True, 'loadedTime': 7532.29999999702, 'positionName': 'RIGHT', 'positionCoords': [798.72, 227], 'bid': 2.5}]",72353.10000000149,1669830286828,steak,edamame,2.5,2.5,0.0,steak,555.5,558,557.8999999985099,True,u,73416.79999999702,1063.6999999955297,1669830287891,1063,HRV,HRV_0033,2022-11-30 17:47:53
47,"[{'imgObject': {}, 'id': 'sweetpotato', 'src': '/static/foodstim60/sweetpotato.jpg', 'key': 'u', 'origWidth': 410, 'origHeight': 410, 'width': 410, 'height': 410, 'widthPercent': 0.45, 'rescaleHeight': False, 'trialN': 47, 'loaded': True, 'loadedTime': 12728.10000000149, 'positionName': 'LEFT', 'positionCoords': [327.28, 227], 'bid': 0.55}, {'imgObject': {}, 'id': 'hashbrowns', 'src': '/static/foodstim60/hashbrowns.jpg', 'key': 'i', 'origWidth': 411, 'origHeight': 410, 'width': 411, 'height': 410, 'widthPercent': 0.45, 'rescaleHeight': False, 'trialN': 47, 'loaded': True, 'loadedTime': 6688.60000000149, 'positionName': 'RIGHT', 'positionCoords': [798.72, 227], 'bid': 4.03}]",73417.20000000298,1669830287892,sweetpotato,hashbrowns,0.55,4.03,3.4800000000000004,hashbrowns,773.0999999940395,775,775.0,True,i,74696.79999999702,1279.5999999940395,1669830289171,1279,HRV,HRV_0033,2022-11-30 17:47:53
48,"[{'imgObject': {}, 'id': 'eggsalad', 'src': '/static/foodstim60/eggsalad.jpg', 'key': 'u', 'origWidth': 410, 'origHeight': 409, 'width': 410, 'height': 409, 'widthPercent': 0.45, 'rescaleHeight': False, 'trialN': 48, 'loaded': True, 'loadedTime': 13312.70000000298, 'positionName': 'LEFT', 'positionCoords': [327.28, 227.5], 'bid': 2.65}, {'imgObject': {}, 'id': 'ice cream sundae 002', 'src': '/static/foodstim60/ice cream sundae 002.jpg', 'key': 'i', 'origWidth': 409, 'origHeight': 409, 'width': 409, 'height': 409, 'widthPercent': 0.45, 'rescaleHeight': False, 'trialN': 48, 'loaded': True, 'loadedTime': 13526.10000000149, 'positionName': 'RIGHT', 'positionCoords': [798.72, 227.5], 'bid': 2.6}]",74697.0,1669830289172,eggsalad,ice cream sundae 002,2.65,2.6,-0.04999999999999982,eggsalad,746.7999999970198,749,749.2000000029802,True,u,75952.79999999702,1255.7999999970198,1669830290427,1255,HRV,HRV_0033,2022-11-30 17:47:53
49,"[{'imgObject': {}, 'id': 'veggieswithdip', 'src': '/static/foodstim60/veggieswithdip.jpg', 'key': 'u', 'origWidth': 409, 'origHeight': 409, 'width': 409, 'height': 409, 'widthPercent': 0.45, 'rescaleHeight': False, 'trialN': 49, 'loaded': True, 'loadedTime': 10025.39999999851, 'positionName': 'LEFT', 'positionCoords': [328.28, 227.5], 'bid': 5.26}, {'imgObject': {}, 'id': 'cherry tomato', 'src': '/static/foodstim60/cherry tomato.jpg', 'key': 'i', 'origWidth': 410, 'origHeight': 410, 'width': 410, 'height': 410, 'widthPercent': 0.45, 'rescaleHeight': False, 'trialN': 49, 'loaded': True, 'loadedTime': 13337.20000000298, 'positionName': 'RIGHT', 'positionCoords': [798.72, 227], 'bid': 4.58}]",75953.5,1669830290428,veggieswithdip,cherry tomato,5.26,4.58,-0.6799999999999997,veggieswithdip,540.7999999970198,546,546.2999999970198,True,u,77001.20000000298,1047.7000000029802,1669830291476,1048,HRV,HRV_0033,2022-11-30 17:47:53
50,"[{'imgObject': {}, 'id': 'raisin bran w milk', 'src': '/static/foodstim60/raisin bran w milk.jpg', 'key': 'u', 'origWidth': 411, 'origHeight': 411, 'width': 411, 'height': 411, 'widthPercent': 0.45, 'rescaleHeight': False, 'trialN': 50, 'loaded': True, 'loadedTime': 10318.70000000298, 'positionName': 'LEFT', 'positionCoords': [326.28, 226.5], 'bid': 1.38}, {'imgObject': {}, 'id': 'Grapes', 'src': '/static/foodstim60/Grapes.jpg', 'key': 'i', 'origWidth': 411, 'origHeight': 411, 'width': 411, 'height': 411, 'widthPercent': 0.45, 'rescaleHeight': False, 'trialN': 50, 'loaded': True, 'loadedTime': 12249.5, 'positionName': 'RIGHT', 'positionCoords': [798.72, 226.5], 'bid': 2.42}]",77001.39999999851,1669830291476,raisin bran w milk,Grapes,1.38,2.42,1.04,raisin bran w milk,687.3999999985099,690,689.8999999985099,True,u,78192.79999999702,1191.3999999985099,1669830292667,1191,HRV,HRV_0033,2022-11-30 17:47:53
51,"[{'imgObject': {}, 'id': 'hashbrowns', 'src': '/static/foodstim60/hashbrowns.jpg', 'key': 'u', 'origWidth': 411, 'origHeight': 410, 'width': 411, 'height': 410, 'widthPercent': 0.45, 'rescaleHeight': False, 'trialN': 51, 'loaded': True, 'loadedTime': 7019, 'positionName': 'LEFT', 'positionCoords': [326.28, 227], 'bid': 4.03}, {'imgObject': {}, 'id': 'eggs', 'src': '/static/foodstim60/eggs.jpg', 'key': 'i', 'origWidth': 409, 'origHeight': 409, 'width': 409, 'height': 409, 'widthPercent': 0.45, 'rescaleHeight': False, 'trialN': 51, 'loaded': True, 'loadedTime': 12782.20000000298, 'positionName': 'RIGHT', 'positionCoords': [798.72, 227.5], 'bid': 3.28}]",78193.10000000149,1669830292668,hashbrowns,eggs,4.03,3.28,-0.7500000000000004,eggs,596.0,598,598.3999999985099,True,i,79296.79999999702,1103.6999999955297,1669830293771,1103,HRV,HRV_0033,2022-11-30 17:47:53
52,"[{'imgObject': {}, 'id': 'bagel plain', 'src': '/static/foodstim60/bagel plain.jpg', 'key': 'u', 'origWidth': 410, 'origHeight': 410, 'width': 410, 'height': 410, 'widthPercent': 0.45, 'rescaleHeight': False, 'trialN': 52, 'loaded': True, 'loadedTime': 9565.89999999851, 'positionName': 'LEFT', 'positionCoords': [327.28, 227], 'bid': 2.64}, {'imgObject': {}, 'id': 'ice cream sundae 002', 'src': '/static/foodstim60/ice cream sundae 002.jpg', 'key': 'i', 'origWidth': 409, 'origHeight': 409, 'width': 409, 'height': 409, 'widthPercent': 0.45, 'rescaleHeight': False, 'trialN': 52, 'loaded': True, 'loadedTime': 13527.10000000149, 'positionName': 'RIGHT', 'positionCoords': [798.72, 227.5], 'bid': 2.6}]",79297.29999999702,1669830293772,bagel plain,ice cream sundae 002,2.64,2.6,-0.040000000000000036,ice cream sundae 002,493.0,494,494.30000000447035,True,i,80299.20000000298,1001.9000000059605,1669830294774,1002,HRV,HRV_0033,2022-11-30 17:47:53
53,"[{'imgObject': {}, 'id': 'mac & cheese', 'src': '/static/foodstim60/mac & cheese.jpg', 'key': 'u', 'origWidth': 410, 'origHeight': 410, 'width': 410, 'height': 410, 'widthPercent': 0.45, 'rescaleHeight': False, 'trialN': 53, 'loaded': True, 'loadedTime': 13359.60000000149, 'positionName': 'LEFT', 'positionCoords': [327.28, 227], 'bid': 7.05}, {'imgObject': {}, 'id': 'raspberries', 'src': '/static/foodstim60/raspberries.jpg', 'key': 'i', 'origWidth': 411, 'origHeight': 411, 'width': 411, 'height': 411, 'widthPercent': 0.45, 'rescaleHeight': False, 'trialN': 53, 'loaded': True, 'loadedTime': 8528.10000000149, 'positionName': 'RIGHT', 'positionCoords': [798.72, 226.5], 'bid': 4.96}]",80299.60000000149,1669830294774,mac & cheese,raspberries,7.05,4.96,-2.09,raspberries,484.3999999985099,487,486.6000000014901,True,i,81289.0,989.3999999985099,1669830295764,990,HRV,HRV_0033,2022-11-30 17:47:53
54,"[{'imgObject': {}, 'id': 'cocktailshrimp', 'src': '/static/foodstim60/cocktailshrimp.jpg', 'key': 'u', 'origWidth': 410, 'origHeight': 410, 'width': 410, 'height': 410, 'widthPercent': 0.45, 'rescaleHeight': False, 'trialN': 54, 'loaded': True, 'loadedTime': 9431.20000000298, 'positionName': 'LEFT', 'positionCoords': [327.28, 227], 'bid': 6.19}, {'imgObject': {}, 'id': 'rigatoni and sauce', 'src': '/static/foodstim60/rigatoni and sauce.jpg', 'key': 'i', 'origWidth': 410, 'origHeight': 411, 'width': 410, 'height': 411, 'widthPercent': 0.45, 'rescaleHeight': False, 'trialN': 54, 'loaded': True, 'loadedTime': 7336, 'positionName': 'RIGHT', 'positionCoords': [798.72, 226.5], 'bid': 2.51}]",81289.70000000298,1669830295764,cocktailshrimp,rigatoni and sauce,6.19,2.51,-3.6800000000000006,rigatoni and sauce,483.09999999403954,486,485.59999999403954,True,i,82280.79999999702,991.0999999940395,1669830296755,991,HRV,HRV_0033,2022-11-30 17:47:53
55,"[{'imgObject': {}, 'id': 'burrito', 'src': '/static/foodstim60/burrito.jpg', 'key': 'u', 'origWidth': 410, 'origHeight': 410, 'width': 410, 'height': 410, 'widthPercent': 0.45, 'rescaleHeight': False, 'trialN': 55, 'loaded': True, 'loadedTime': 13540.79999999702, 'positionName': 'LEFT', 'positionCoords': [327.28, 227], 'bid': 3.95}, {'imgObject': {}, 'id': 'pear', 'src': '/static/foodstim60/pear.jpg', 'key': 'i', 'origWidth': 411, 'origHeight': 410, 'width': 411, 'height': 410, 'widthPercent': 0.45, 'rescaleHeight': False, 'trialN': 55, 'loaded': True, 'loadedTime': 13542.60000000149, 'positionName': 'RIGHT', 'positionCoords': [798.72, 227], 'bid': 2.23}]",82281.10000000149,1669830296756,burrito,pear,3.95,2.23,-1.7200000000000002,burrito,616.1999999955297,619,619.5,True,u,83400.89999999851,1119.7999999970198,1669830297876,1120,HRV,HRV_0033,2022-11-30 17:47:53
56,"[{'imgObject': {}, 'id': 'roastedpotatoes', 'src': '/static/foodstim60/roastedpotatoes.jpg', 'key': 'u', 'origWidth': 409, 'origHeight': 410, 'width': 409, 'height': 410, 'widthPercent': 0.45, 'rescaleHeight': False, 'trialN': 56, 'loaded': True, 'loadedTime': 9191, 'positionName': 'LEFT', 'positionCoords': [328.28, 227], 'bid': 6.28}, {'imgObject': {}, 'id': 'luckycharms', 'src': '/static/foodstim60/luckycharms.jpg', 'key': 'i', 'origWidth': 410, 'origHeight': 409, 'width': 410, 'height': 409, 'widthPercent': 0.45, 'rescaleHeight': False, 'trialN': 56, 'loaded': True, 'loadedTime': 11830.5, 'positionName': 'RIGHT', 'positionCoords': [798.72, 227.5], 'bid': 5.19}]",83401.20000000298,1669830297876,roastedpotatoes,luckycharms,6.28,5.19,-1.0899999999999999,roastedpotatoes,493.29999999701977,495,495.19999999552965,True,u,84400.79999999702,999.5999999940395,1669830298875,999,HRV,HRV_0033,2022-11-30 17:47:53
57,"[{'imgObject': {}, 'id': 'corn cob', 'src': '/static/foodstim60/corn cob.jpg', 'key': 'u', 'origWidth': 411, 'origHeight': 411, 'width': 411, 'height': 411, 'widthPercent': 0.45, 'rescaleHeight': False, 'trialN': 57, 'loaded': True, 'loadedTime': 13304.79999999702, 'positionName': 'LEFT', 'positionCoords': [326.28, 226.5], 'bid': 1.64}, {'imgObject': {}, 'id': 'sweetpotato', 'src': '/static/foodstim60/sweetpotato.jpg', 'key': 'i', 'origWidth': 410, 'origHeight': 410, 'width': 410, 'height': 410, 'widthPercent': 0.45, 'rescaleHeight': False, 'trialN': 57, 'loaded': True, 'loadedTime': 12728.5, 'positionName': 'RIGHT', 'positionCoords': [798.72, 227], 'bid': 0.55}]",84401.10000000149,1669830298876,corn cob,sweetpotato,1.64,0.55,-1.0899999999999999,sweetpotato,645.3999999985099,647,647.2999999970198,True,i,85553.10000000149,1152.0,1669830300028,1152,HRV,HRV_0033,2022-11-30 17:47:53
58,"[{'imgObject': {}, 'id': 'bagel plain', 'src': '/static/foodstim60/bagel plain.jpg', 'key': 'u', 'origWidth': 410, 'origHeight': 410, 'width': 410, 'height': 410, 'widthPercent': 0.45, 'rescaleHeight': False, 'trialN': 58, 'loaded': True, 'loadedTime': 9566.5, 'positionName': 'LEFT', 'positionCoords': [327.28, 227], 'bid': 2.64}, {'imgObject': {}, 'id': 'roastedpotatoes', 'src': '/static/foodstim60/roastedpotatoes.jpg', 'key': 'i', 'origWidth': 409, 'origHeight': 410, 'width': 409, 'height': 410, 'widthPercent': 0.45, 'rescaleHeight': False, 'trialN': 58, 'loaded': True, 'loadedTime': 9195.60000000149, 'positionName': 'RIGHT', 'positionCoords': [798.72, 227], 'bid': 6.28}]",85554.10000000149,1669830300029,bagel plain,roastedpotatoes,2.64,6.28,3.64,roastedpotatoes,533.1000000014901,535,535.0,True,i,86592.79999999702,1038.6999999955297,1669830301067,1038,HRV,HRV_0033,2022-11-30 17:47:53
59,"[{'imgObject': {}, 'id': 'ice cream sundae 002', 'src': '/static/foodstim60/ice cream sundae 002.jpg', 'key': 'u', 'origWidth': 409, 'origHeight': 409, 'width': 409, 'height': 409, 'widthPercent': 0.45, 'rescaleHeight': False, 'trialN': 59, 'loaded': True, 'loadedTime': 13510.89999999851, 'positionName': 'LEFT', 'positionCoords': [328.28, 227.5], 'bid': 2.6}, {'imgObject': {}, 'id': 'hashbrowns', 'src': '/static/foodstim60/hashbrowns.jpg', 'key': 'i', 'origWidth': 411, 'origHeight': 410, 'width': 411, 'height': 410, 'widthPercent': 0.45, 'rescaleHeight': False, 'trialN': 59, 'loaded': True, 'loadedTime': 7000.10000000149, 'positionName': 'RIGHT', 'positionCoords': [798.72, 227], 'bid': 4.03}]",86593.10000000149,1669830301068,ice cream sundae 002,hashbrowns,2.6,4.03,1.4300000000000002,hashbrowns,590.6999999955297,592,592.6999999955297,True,i,87689.10000000149,1096.0,1669830302164,1096,HRV,HRV_0033,2022-11-30 17:47:53
60,"[{'imgObject': {}, 'id': 'fruitsalad', 'src': '/static/foodstim60/fruitsalad.jpg', 'key': 'u', 'origWidth': 410, 'origHeight': 410, 'width': 410, 'height': 410, 'widthPercent': 0.45, 'rescaleHeight': False, 'trialN': 60, 'loaded': True, 'loadedTime': 7290.29999999702, 'positionName': 'LEFT', 'positionCoords': [327.28, 227], 'bid': 4.07}, {'imgObject': {}, 'id': 'apple slices', 'src': '/static/foodstim60/apple slices.jpg', 'key': 'i', 'origWidth': 409, 'origHeight': 410, 'width': 409, 'height': 410, 'widthPercent': 0.45, 'rescaleHeight': False, 'trialN': 60, 'loaded': True, 'loadedTime': 13230.29999999702, 'positionName': 'RIGHT', 'positionCoords': [798.72, 227], 'bid': 3.34}]",87689.39999999851,1669830302164,fruitsalad,apple slices,4.07,3.34,-0.7300000000000004,fruitsalad,689.2000000029802,692,691.8999999985099,True,u,88888.79999999702,1199.3999999985099,1669830303363,1199,HRV,HRV_0033,2022-11-30 17:47:53
61,"[{'imgObject': {}, 'id': 'baked potato', 'src': '/static/foodstim60/baked potato.jpg', 'key': 'u', 'origWidth': 409, 'origHeight': 410, 'width': 409, 'height': 410, 'widthPercent': 0.45, 'rescaleHeight': False, 'trialN': 61, 'loaded': True, 'loadedTime': 13301.10000000149, 'positionName': 'LEFT', 'positionCoords': [328.28, 227], 'bid': 5}, {'imgObject': {}, 'id': 'salmon', 'src': '/static/foodstim60/salmon.jpg', 'key': 'i', 'origWidth': 410, 'origHeight': 409, 'width': 410, 'height': 409, 'widthPercent': 0.45, 'rescaleHeight': False, 'trialN': 61, 'loaded': True, 'loadedTime': 13553.5, 'positionName': 'RIGHT', 'positionCoords': [798.72, 227.5], 'bid': 5.93}]",88889.79999999702,1669830303364,baked potato,salmon,5.0,5.93,0.9299999999999997,salmon,714.1000000014901,716,716.0,True,i,90112.79999999702,1223.0,1669830304587,1223,HRV,HRV_0033,2022-11-30 17:47:53
62,"[{'imgObject': {}, 'id': 'cherry tomato', 'src': '/static/foodstim60/cherry tomato.jpg', 'key': 'u', 'origWidth': 410, 'origHeight': 410, 'width': 410, 'height': 410, 'widthPercent': 0.45, 'rescaleHeight': False, 'trialN': 62, 'loaded': True, 'loadedTime': 13341.5, 'positionName': 'LEFT', 'positionCoords': [327.28, 227], 'bid': 4.58}, {'imgObject': {}, 'id': 'kiwi', 'src': '/static/foodstim60/kiwi.jpg', 'key': 'i', 'origWidth': 410, 'origHeight': 410, 'width': 410, 'height': 410, 'widthPercent': 0.45, 'rescaleHeight': False, 'trialN': 62, 'loaded': True, 'loadedTime': 13169.39999999851, 'positionName': 'RIGHT', 'positionCoords': [798.72, 227], 'bid': 3.5}]",90113.79999999702,1669830304588,cherry tomato,kiwi,4.58,3.5,-1.08,cherry tomato,498.70000000298023,501,500.90000000596046,True,u,91121.0,1007.2000000029802,1669830305596,1008,HRV,HRV_0033,2022-11-30 17:47:53
63,"[{'imgObject': {}, 'id': 'cheerios', 'src': '/static/foodstim60/cheerios.jpg', 'key': 'u', 'origWidth': 409, 'origHeight': 410, 'width': 409, 'height': 410, 'widthPercent': 0.45, 'rescaleHeight': False, 'trialN': 63, 'loaded': True, 'loadedTime': 10471.89999999851, 'positionName': 'LEFT', 'positionCoords': [328.28, 227], 'bid': 5.98}, {'imgObject': {}, 'id': 'mashed potato', 'src': '/static/foodstim60/mashed potato.jpg', 'key': 'i', 'origWidth': 409, 'origHeight': 409, 'width': 409, 'height': 409, 'widthPercent': 0.45, 'rescaleHeight': False, 'trialN': 63, 'loaded': True, 'loadedTime': 13331.5, 'positionName': 'RIGHT', 'positionCoords': [798.72, 227.5], 'bid': 4.38}]",91121.29999999702,1669830305596,cheerios,mashed potato,5.98,4.38,-1.6000000000000005,cheerios,1104.5,1106,1105.8000000044703,True,u,92729.89999999851,1608.6000000014901,1669830307204,1608,HRV,HRV_0033,2022-11-30 17:47:53
64,"[{'imgObject': {}, 'id': 'salad w chicken', 'src': '/static/foodstim60/salad w chicken.jpg', 'key': 'u', 'origWidth': 411, 'origHeight': 411, 'width': 411, 'height': 411, 'widthPercent': 0.45, 'rescaleHeight': False, 'trialN': 64, 'loaded': True, 'loadedTime': 8103.20000000298, 'positionName': 'LEFT', 'positionCoords': [326.28, 226.5], 'bid': 4.57}, {'imgObject': {}, 'id': 'eggs', 'src': '/static/foodstim60/eggs.jpg', 'key': 'i', 'origWidth': 409, 'origHeight': 409, 'width': 409, 'height': 409, 'widthPercent': 0.45, 'rescaleHeight': False, 'trialN': 64, 'loaded': True, 'loadedTime': 12781.79999999702, 'positionName': 'RIGHT', 'positionCoords': [798.72, 227.5], 'bid': 3.28}]",92730.29999999702,1669830307205,salad w chicken,eggs,4.57,3.28,-1.2900000000000005,eggs,687.8000000044703,697,697.3000000044703,True,i,93937.20000000298,1206.9000000059605,1669830308412,1207,HRV,HRV_0033,2022-11-30 17:47:53
65,"[{'imgObject': {}, 'id': 'apple slices', 'src': '/static/foodstim60/apple slices.jpg', 'key': 'u', 'origWidth': 409, 'origHeight': 410, 'width': 409, 'height': 410, 'widthPercent': 0.45, 'rescaleHeight': False, 'trialN': 65, 'loaded': True, 'loadedTime': 13244.89999999851, 'positionName': 'LEFT', 'positionCoords': [328.28, 227], 'bid': 3.34}, {'imgObject': {}, 'id': 'corn cob', 'src': '/static/foodstim60/corn cob.jpg', 'key': 'i', 'origWidth': 411, 'origHeight': 411, 'width': 411, 'height': 411, 'widthPercent': 0.45, 'rescaleHeight': False, 'trialN': 65, 'loaded': True, 'loadedTime': 13309.39999999851, 'positionName': 'RIGHT', 'positionCoords': [798.72, 226.5], 'bid': 1.64}]",93937.5,1669830308412,apple slices,corn cob,3.34,1.64,-1.7,corn cob,932.5,935,935.0,True,i,95376.79999999702,1439.2999999970198,1669830309851,1439,HRV,HRV_0033,2022-11-30 17:47:53
66,"[{'imgObject': {}, 'id': 'seaweed', 'src': '/static/foodstim60/seaweed.jpg', 'key': 'u', 'origWidth': 410, 'origHeight': 410, 'width': 410, 'height': 410, 'widthPercent': 0.45, 'rescaleHeight': False, 'trialN': 66, 'loaded': True, 'loadedTime': 9986.20000000298, 'positionName': 'LEFT', 'positionCoords': [327.28, 227], 'bid': 6.45}, {'imgObject': {}, 'id': 'eggsalad', 'src': '/static/foodstim60/eggsalad.jpg', 'key': 'i', 'origWidth': 410, 'origHeight': 409, 'width': 410, 'height': 409, 'widthPercent': 0.45, 'rescaleHeight': False, 'trialN': 66, 'loaded': True, 'loadedTime': 13315.70000000298, 'positionName': 'RIGHT', 'positionCoords': [798.72, 227.5], 'bid': 2.65}]",95377.10000000149,1669830309852,seaweed,eggsalad,6.45,2.65,-3.8000000000000003,seaweed,811.7999999970198,814,814.1999999955297,True,u,96697.20000000298,1320.1000000014901,1669830311172,1320,HRV,HRV_0033,2022-11-30 17:47:53
67,"[{'imgObject': {}, 'id': 'chicken nuggets2', 'src': '/static/foodstim60/chicken nuggets2.jpg', 'key': 'u', 'origWidth': 410, 'origHeight': 409, 'width': 410, 'height': 409, 'widthPercent': 0.45, 'rescaleHeight': False, 'trialN': 67, 'loaded': True, 'loadedTime': 9588.20000000298, 'positionName': 'LEFT', 'positionCoords': [327.28, 227.5], 'bid': 1.54}, {'imgObject': {}, 'id': 'popsicles', 'src': '/static/foodstim60/popsicles.jpg', 'key': 'i', 'origWidth': 410, 'origHeight': 410, 'width': 410, 'height': 410, 'widthPercent': 0.45, 'rescaleHeight': False, 'trialN': 67, 'loaded': True, 'loadedTime': 13336.20000000298, 'positionName': 'RIGHT', 'positionCoords': [798.72, 227], 'bid': 1.13}]",96698.10000000149,1669830311173,chicken nuggets2,popsicles,1.54,1.13,-0.41000000000000014,chicken nuggets2,598.6000000014901,607,607.1999999955297,True,u,97809.39999999851,1111.2999999970198,1669830312284,1111,HRV,HRV_0033,2022-11-30 17:47:53
68,"[{'imgObject': {}, 'id': 'raspberries', 'src': '/static/foodstim60/raspberries.jpg', 'key': 'u', 'origWidth': 411, 'origHeight': 411, 'width': 411, 'height': 411, 'widthPercent': 0.45, 'rescaleHeight': False, 'trialN': 68, 'loaded': True, 'loadedTime': 8902.20000000298, 'positionName': 'LEFT', 'positionCoords': [326.28, 226.5], 'bid': 4.96}, {'imgObject': {}, 'id': 'yogurt no spoon', 'src': '/static/foodstim60/yogurt no spoon.jpg', 'key': 'i', 'origWidth': 411, 'origHeight': 410, 'width': 411, 'height': 410, 'widthPercent': 0.45, 'rescaleHeight': False, 'trialN': 68, 'loaded': True, 'loadedTime': 6116.89999999851, 'positionName': 'RIGHT', 'positionCoords': [798.72, 227], 'bid': 1.6}]",97809.89999999851,1669830312284,raspberries,yogurt no spoon,4.96,1.6,-3.36,yogurt no spoon,538.1000000014901,540,539.7000000029802,True,i,98858.10000000149,1048.2000000029802,1669830313333,1049,HRV,HRV_0033,2022-11-30 17:47:53
69,"[{'imgObject': {}, 'id': 'blueberries', 'src': '/static/foodstim60/blueberries.jpg', 'key': 'u', 'origWidth': 411, 'origHeight': 411, 'width': 411, 'height': 411, 'widthPercent': 0.45, 'rescaleHeight': False, 'trialN': 69, 'loaded': True, 'loadedTime': 7855.20000000298, 'positionName': 'LEFT', 'positionCoords': [326.28, 226.5], 'bid': 1.35}, {'imgObject': {}, 'id': 'hotdog w must', 'src': '/static/foodstim60/hotdog w must.jpg', 'key': 'i', 'origWidth': 409, 'origHeight': 409, 'width': 409, 'height': 409, 'widthPercent': 0.45, 'rescaleHeight': False, 'trialN': 69, 'loaded': True, 'loadedTime': 10301.70000000298, 'positionName': 'RIGHT', 'positionCoords': [798.72, 227.5], 'bid': 2.29}]",98858.60000000149,1669830313333,blueberries,hotdog w must,1.35,2.29,0.94,hotdog w must,732.5,735,734.8999999985099,True,i,100096.89999999851,1238.2999999970198,1669830314572,1239,HRV,HRV_0033,2022-11-30 17:47:53
70,"[{'imgObject': {}, 'id': 'banana', 'src': '/static/foodstim60/banana.jpg', 'key': 'u', 'origWidth': 410, 'origHeight': 410, 'width': 410, 'height': 410, 'widthPercent': 0.45, 'rescaleHeight': False, 'trialN': 70, 'loaded': True, 'loadedTime': 11776.39999999851, 'positionName': 'LEFT', 'positionCoords': [327.28, 227], 'bid': 0.66}, {'imgObject': {}, 'id': 'steak', 'src': '/static/foodstim60/steak.jpg', 'key': 'i', 'origWidth': 410, 'origHeight': 410, 'width': 410, 'height': 410, 'widthPercent': 0.45, 'rescaleHeight': False, 'trialN': 70, 'loaded': True, 'loadedTime': 13510.5, 'positionName': 'RIGHT', 'positionCoords': [798.72, 227], 'bid': 2.5}]",100097.29999999702,1669830314572,banana,steak,0.66,2.5,1.8399999999999999,banana,866.0,870,870.5,True,u,101472.89999999851,1375.6000000014901,1669830315948,1376,HRV,HRV_0033,2022-11-30 17:47:53
71,"[{'imgObject': {}, 'id': 'tacos', 'src': '/static/foodstim60/tacos.jpg', 'key': 'u', 'origWidth': 411, 'origHeight': 411, 'width': 411, 'height': 411, 'widthPercent': 0.45, 'rescaleHeight': False, 'trialN': 71, 'loaded': True, 'loadedTime': 13198.79999999702, 'positionName': 'LEFT', 'positionCoords': [326.28, 226.5], 'bid': 7.6}, {'imgObject': {}, 'id': 'strawberries', 'src': '/static/foodstim60/strawberries.jpg', 'key': 'i', 'origWidth': 410, 'origHeight': 410, 'width': 410, 'height': 410, 'widthPercent': 0.45, 'rescaleHeight': False, 'trialN': 71, 'loaded': True, 'loadedTime': 10990.39999999851, 'positionName': 'RIGHT', 'positionCoords': [798.72, 227], 'bid': 5.96}]",101473.60000000149,1669830315948,tacos,strawberries,7.6,5.96,-1.6399999999999997,tacos,690.1999999955297,695,694.7999999970198,True,u,102673.10000000149,1199.5,1669830317148,1200,HRV,HRV_0033,2022-11-30 17:47:53
72,"[{'imgObject': {}, 'id': 'ice cream sundae 002', 'src': '/static/foodstim60/ice cream sundae 002.jpg', 'key': 'u', 'origWidth': 409, 'origHeight': 409, 'width': 409, 'height': 409, 'widthPercent': 0.45, 'rescaleHeight': False, 'trialN': 72, 'loaded': True, 'loadedTime': 13527.39999999851, 'positionName': 'LEFT', 'positionCoords': [328.28, 227.5], 'bid': 2.6}, {'imgObject': {}, 'id': 'raisin bran w milk', 'src': '/static/foodstim60/raisin bran w milk.jpg', 'key': 'i', 'origWidth': 411, 'origHeight': 411, 'width': 411, 'height': 411, 'widthPercent': 0.45, 'rescaleHeight': False, 'trialN': 72, 'loaded': True, 'loadedTime': 10348.20000000298, 'positionName': 'RIGHT', 'positionCoords': [798.72, 226.5], 'bid': 1.38}]",102673.39999999851,1669830317148,ice cream sundae 002,raisin bran w milk,2.6,1.38,-1.2200000000000002,ice cream sundae 002,995.0,997,996.8999999985099,True,u,104177.0,1503.6000000014901,1669830318652,1504,HRV,HRV_0033,2022-11-30 17:47:53
73,"[{'imgObject': {}, 'id': 'sweetpotato', 'src': '/static/foodstim60/sweetpotato.jpg', 'key': 'u', 'origWidth': 410, 'origHeight': 410, 'width': 410, 'height': 410, 'widthPercent': 0.45, 'rescaleHeight': False, 'trialN': 73, 'loaded': True, 'loadedTime': 12430.5, 'positionName': 'LEFT', 'positionCoords': [327.28, 227], 'bid': 0.55}, {'imgObject': {}, 'id': 'popsicles', 'src': '/static/foodstim60/popsicles.jpg', 'key': 'i', 'origWidth': 410, 'origHeight': 410, 'width': 410, 'height': 410, 'widthPercent': 0.45, 'rescaleHeight': False, 'trialN': 73, 'loaded': True, 'loadedTime': 13331.89999999851, 'positionName': 'RIGHT', 'positionCoords': [798.72, 227], 'bid': 1.13}]",104177.20000000298,1669830318652,sweetpotato,popsicles,0.55,1.13,0.5799999999999998,popsicles,756.5,758,758.5,True,i,105440.89999999851,1263.6999999955297,1669830319915,1263,HRV,HRV_0033,2022-11-30 17:47:53
74,"[{'imgObject': {}, 'id': 'sushi w_condiments', 'src': '/static/foodstim60/sushi w_condiments.jpg', 'key': 'u', 'origWidth': 410, 'origHeight': 410, 'width': 410, 'height': 410, 'widthPercent': 0.45, 'rescaleHeight': False, 'trialN': 74, 'loaded': True, 'loadedTime': 12384.10000000149, 'positionName': 'LEFT', 'positionCoords': [327.28, 227], 'bid': 7.05}, {'imgObject': {}, 'id': 'cocktailshrimp', 'src': '/static/foodstim60/cocktailshrimp.jpg', 'key': 'i', 'origWidth': 410, 'origHeight': 410, 'width': 410, 'height': 410, 'widthPercent': 0.45, 'rescaleHeight': False, 'trialN': 74, 'loaded': True, 'loadedTime': 9418.10000000149, 'positionName': 'RIGHT', 'positionCoords': [798.72, 227], 'bid': 6.19}]",105441.20000000298,1669830319916,sushi w_condiments,cocktailshrimp,7.05,6.19,-0.8599999999999994,cocktailshrimp,937.0999999940395,939,939.5999999940395,True,i,106889.0,1447.7999999970198,1669830321364,1448,HRV,HRV_0033,2022-11-30 17:47:53
75,"[{'imgObject': {}, 'id': 'tacos', 'src': '/static/foodstim60/tacos.jpg', 'key': 'u', 'origWidth': 411, 'origHeight': 411, 'width': 411, 'height': 411, 'widthPercent': 0.45, 'rescaleHeight': False, 'trialN': 75, 'loaded': True, 'loadedTime': 13194.60000000149, 'positionName': 'LEFT', 'positionCoords': [326.28, 226.5], 'bid': 7.6}, {'imgObject': {}, 'id': 'roastedpotatoes', 'src': '/static/foodstim60/roastedpotatoes.jpg', 'key': 'i', 'origWidth': 409, 'origHeight': 410, 'width': 409, 'height': 410, 'widthPercent': 0.45, 'rescaleHeight': False, 'trialN': 75, 'loaded': True, 'loadedTime': 9188.5, 'positionName': 'RIGHT', 'positionCoords': [798.72, 227], 'bid': 6.28}]",106889.5,1669830321364,tacos,roastedpotatoes,7.6,6.28,-1.3199999999999994,roastedpotatoes,750.7999999970198,752,752.2999999970198,True,i,108145.0,1255.5,1669830322620,1256,HRV,HRV_0033,2022-11-30 17:47:53
76,"[{'imgObject': {}, 'id': 'sushi w_condiments', 'src': '/static/foodstim60/sushi w_condiments.jpg', 'key': 'u', 'origWidth': 410, 'origHeight': 410, 'width': 410, 'height': 410, 'widthPercent': 0.45, 'rescaleHeight': False, 'trialN': 76, 'loaded': True, 'loadedTime': 12411.10000000149, 'positionName': 'LEFT', 'positionCoords': [327.28, 227], 'bid': 7.05}, {'imgObject': {}, 'id': 'baked potato', 'src': '/static/foodstim60/baked potato.jpg', 'key': 'i', 'origWidth': 409, 'origHeight': 410, 'width': 409, 'height': 410, 'widthPercent': 0.45, 'rescaleHeight': False, 'trialN': 76, 'loaded': True, 'loadedTime': 13303.89999999851, 'positionName': 'RIGHT', 'positionCoords': [798.72, 227], 'bid': 5}]",108145.60000000149,1669830322620,sushi w_condiments,baked potato,7.05,5.0,-2.05,sushi w_condiments,856.2999999970198,860,859.7999999970198,True,u,109512.79999999702,1367.1999999955297,1669830323987,1367,HRV,HRV_0033,2022-11-30 17:47:53
77,"[{'imgObject': {}, 'id': 'grilled chicken strips', 'src': '/static/foodstim60/grilled chicken strips.jpg', 'key': 'u', 'origWidth': 410, 'origHeight': 411, 'width': 410, 'height': 411, 'widthPercent': 0.45, 'rescaleHeight': False, 'trialN': 77, 'loaded': True, 'loadedTime': 13587.29999999702, 'positionName': 'LEFT', 'positionCoords': [327.28, 226.5], 'bid': 5.42}, {'imgObject': {}, 'id': 'cherries', 'src': '/static/foodstim60/cherries.jpg', 'key': 'i', 'origWidth': 410, 'origHeight': 411, 'width': 410, 'height': 411, 'widthPercent': 0.45, 'rescaleHeight': False, 'trialN': 77, 'loaded': True, 'loadedTime': 10703.10000000149, 'positionName': 'RIGHT', 'positionCoords': [798.72, 226.5], 'bid': 4.75}]",109513.20000000298,1669830323988,grilled chicken strips,cherries,5.42,4.75,-0.6699999999999999,grilled chicken strips,1515.1999999955297,1519,1519.1999999955297,True,u,111539.29999999702,2026.0999999940395,1669830326014,2026,HRV,HRV_0033,2022-11-30 17:47:53
78,"[{'imgObject': {}, 'id': 'Tribe humus pita', 'src': '/static/foodstim60/Tribe humus pita.jpg', 'key': 'u', 'origWidth': 411, 'origHeight': 411, 'width': 411, 'height': 411, 'widthPercent': 0.45, 'rescaleHeight': False, 'trialN': 78, 'loaded': True, 'loadedTime': 11474, 'positionName': 'LEFT', 'positionCoords': [326.28, 226.5], 'bid': 5.2700000000000005}, {'imgObject': {}, 'id': 'veggieswithdip', 'src': '/static/foodstim60/veggieswithdip.jpg', 'key': 'i', 'origWidth': 409, 'origHeight': 409, 'width': 409, 'height': 409, 'widthPercent': 0.45, 'rescaleHeight': False, 'trialN': 78, 'loaded': True, 'loadedTime': 10213.89999999851, 'positionName': 'RIGHT', 'positionCoords': [798.72, 227.5], 'bid': 5.26}]",111539.60000000149,1669830326014,Tribe humus pita,veggieswithdip,5.2700000000000005,5.26,-0.010000000000000675,Tribe humus pita,1413.1000000014901,1416,1416.0,True,u,113456.89999999851,1917.2999999970198,1669830327931,1917,HRV,HRV_0033,2022-11-30 17:47:53
79,"[{'imgObject': {}, 'id': 'fruitsalad', 'src': '/static/foodstim60/fruitsalad.jpg', 'key': 'u', 'origWidth': 410, 'origHeight': 410, 'width': 410, 'height': 410, 'widthPercent': 0.45, 'rescaleHeight': False, 'trialN': 79, 'loaded': True, 'loadedTime': 7033.60000000149, 'positionName': 'LEFT', 'positionCoords': [327.28, 227], 'bid': 4.07}, {'imgObject': {}, 'id': 'salmon', 'src': '/static/foodstim60/salmon.jpg', 'key': 'i', 'origWidth': 410, 'origHeight': 409, 'width': 410, 'height': 409, 'widthPercent': 0.45, 'rescaleHeight': False, 'trialN': 79, 'loaded': True, 'loadedTime': 13576.89999999851, 'positionName': 'RIGHT', 'positionCoords': [798.72, 227.5], 'bid': 5.93}]",113457.10000000149,1669830327932,fruitsalad,salmon,4.07,5.93,1.8599999999999994,fruitsalad,745.1000000014901,747,747.0,True,u,114705.20000000298,1248.1000000014901,1669830329180,1248,HRV,HRV_0033,2022-11-30 17:47:53
80,"[{'imgObject': {}, 'id': 'chickenfingers', 'src': '/static/foodstim60/chickenfingers.jpg', 'key': 'u', 'origWidth': 410, 'origHeight': 410, 'width': 410, 'height': 410, 'widthPercent': 0.45, 'rescaleHeight': False, 'trialN': 80, 'loaded': True, 'loadedTime': 13431.89999999851, 'positionName': 'LEFT', 'positionCoords': [327.28, 227], 'bid': 6.23}, {'imgObject': {}, 'id': 'roastedpotatoes', 'src': '/static/foodstim60/roastedpotatoes.jpg', 'key': 'i', 'origWidth': 409, 'origHeight': 410, 'width': 409, 'height': 410, 'widthPercent': 0.45, 'rescaleHeight': False, 'trialN': 80, 'loaded': True, 'loadedTime': 9199.39999999851, 'positionName': 'RIGHT', 'positionCoords': [798.72, 227], 'bid': 6.28}]",114706.10000000149,1669830329181,chickenfingers,roastedpotatoes,6.23,6.28,0.04999999999999982,chickenfingers,1047.0,1050,1049.8999999985099,True,u,116257.79999999702,1551.6999999955297,1669830330732,1551,HRV,HRV_0033,2022-11-30 17:47:53
81,"[{'imgObject': {}, 'id': 'fruitsalad', 'src': '/static/foodstim60/fruitsalad.jpg', 'key': 'u', 'origWidth': 410, 'origHeight': 410, 'width': 410, 'height': 410, 'widthPercent': 0.45, 'rescaleHeight': False, 'trialN': 81, 'loaded': True, 'loadedTime': 7019.89999999851, 'positionName': 'LEFT', 'positionCoords': [327.28, 227], 'bid': 4.07}, {'imgObject': {}, 'id': 'turkeysandwich', 'src': '/static/foodstim60/turkeysandwich.jpg', 'key': 'i', 'origWidth': 409, 'origHeight': 409, 'width': 409, 'height': 409, 'widthPercent': 0.45, 'rescaleHeight': False, 'trialN': 81, 'loaded': True, 'loadedTime': 8923.10000000149, 'positionName': 'RIGHT', 'positionCoords': [798.72, 227.5], 'bid': 4.0200000000000005}]",116258.10000000149,1669830330733,fruitsalad,turkeysandwich,4.07,4.0200000000000005,-0.04999999999999982,turkeysandwich,890.2999999970198,892,892.0,True,i,117656.79999999702,1398.6999999955297,1669830332131,1398,HRV,HRV_0033,2022-11-30 17:47:53
82,"[{'imgObject': {}, 'id': 'orange slices', 'src': '/static/foodstim60/orange slices.jpg', 'key': 'u', 'origWidth': 409, 'origHeight': 410, 'width': 409, 'height': 410, 'widthPercent': 0.45, 'rescaleHeight': False, 'trialN': 82, 'loaded': True, 'loadedTime': 11827.39999999851, 'positionName': 'LEFT', 'positionCoords': [328.28, 227], 'bid': 2.79}, {'imgObject': {}, 'id': 'lox', 'src': '/static/foodstim60/lox.jpg', 'key': 'i', 'origWidth': 410, 'origHeight': 411, 'width': 410, 'height': 411, 'widthPercent': 0.45, 'rescaleHeight': False, 'trialN': 82, 'loaded': True, 'loadedTime': 12222.89999999851, 'positionName': 'RIGHT', 'positionCoords': [798.72, 226.5], 'bid': 6.87}]",117657.10000000149,1669830332132,orange slices,lox,2.79,6.87,4.08,lox,949.6999999955297,953,953.3999999985099,True,i,119112.79999999702,1455.6999999955297,1669830333587,1455,HRV,HRV_0033,2022-11-30 17:47:53
83,"[{'imgObject': {}, 'id': 'yogurt no spoon', 'src': '/static/foodstim60/yogurt no spoon.jpg', 'key': 'u', 'origWidth': 411, 'origHeight': 410, 'width': 411, 'height': 410, 'widthPercent': 0.45, 'rescaleHeight': False, 'trialN': 83, 'loaded': True, 'loadedTime': 6106.70000000298, 'positionName': 'LEFT', 'positionCoords': [326.28, 227], 'bid': 1.6}, {'imgObject': {}, 'id': 'cantaloupe', 'src': '/static/foodstim60/cantaloupe.jpg', 'key': 'i', 'origWidth': 409, 'origHeight': 409, 'width': 409, 'height': 409, 'widthPercent': 0.45, 'rescaleHeight': False, 'trialN': 83, 'loaded': True, 'loadedTime': 11751.60000000149, 'positionName': 'RIGHT', 'positionCoords': [798.72, 227.5], 'bid': 1.69}]",119113.20000000298,1669830333588,yogurt no spoon,cantaloupe,1.6,1.69,0.08999999999999986,yogurt no spoon,910.5,913,912.8999999985099,True,u,120528.89999999851,1415.6999999955297,1669830335004,1416,HRV,HRV_0033,2022-11-30 17:47:53
84,"[{'imgObject': {}, 'id': 'blackbeanswithrice', 'src': '/static/foodstim60/blackbeanswithrice.jpg', 'key': 'u', 'origWidth': 410, 'origHeight': 410, 'width': 410, 'height': 410, 'widthPercent': 0.45, 'rescaleHeight': False, 'trialN': 84, 'loaded': True, 'loadedTime': 13599.29999999702, 'positionName': 'LEFT', 'positionCoords': [327.28, 227], 'bid': 7.51}, {'imgObject': {}, 'id': 'tacos', 'src': '/static/foodstim60/tacos.jpg', 'key': 'i', 'origWidth': 411, 'origHeight': 411, 'width': 411, 'height': 411, 'widthPercent': 0.45, 'rescaleHeight': False, 'trialN': 84, 'loaded': True, 'loadedTime': 13199.20000000298, 'positionName': 'RIGHT', 'positionCoords': [798.72, 226.5], 'bid': 7.6}]",120529.89999999851,1669830335004,blackbeanswithrice,tacos,7.51,7.6,0.08999999999999986,tacos,718.8999999985099,722,721.1000000014901,True,i,121753.39999999851,1223.5,1669830336228,1224,HRV,HRV_0033,2022-11-30 17:47:53
85,"[{'imgObject': {}, 'id': 'edamame', 'src': '/static/foodstim60/edamame.jpg', 'key': 'u', 'origWidth': 409, 'origHeight': 410, 'width': 409, 'height': 410, 'widthPercent': 0.45, 'rescaleHeight': False, 'trialN': 85, 'loaded': True, 'loadedTime': 7810.5, 'positionName': 'LEFT', 'positionCoords': [328.28, 227], 'bid': 2.5}, {'imgObject': {}, 'id': 'shreddedwheatwithmilk', 'src': '/static/foodstim60/shreddedwheatwithmilk.jpg', 'key': 'i', 'origWidth': 410, 'origHeight': 410, 'width': 410, 'height': 410, 'widthPercent': 0.45, 'rescaleHeight': False, 'trialN': 85, 'loaded': True, 'loadedTime': 5687.10000000149, 'positionName': 'RIGHT', 'positionCoords': [798.72, 227], 'bid': 1.31}]",121753.79999999702,1669830336228,edamame,shreddedwheatwithmilk,2.5,1.31,-1.19,edamame,949.4000000059605,953,952.4000000059605,True,u,123209.0,1455.2000000029802,1669830337684,1456,HRV,HRV_0033,2022-11-30 17:47:53
86,"[{'imgObject': {}, 'id': 'orange slices', 'src': '/static/foodstim60/orange slices.jpg', 'key': 'u', 'origWidth': 409, 'origHeight': 410, 'width': 409, 'height': 410, 'widthPercent': 0.45, 'rescaleHeight': False, 'trialN': 86, 'loaded': True, 'loadedTime': 11823.39999999851, 'positionName': 'LEFT', 'positionCoords': [328.28, 227], 'bid': 2.79}, {'imgObject': {}, 'id': 'eggsalad', 'src': '/static/foodstim60/eggsalad.jpg', 'key': 'i', 'origWidth': 410, 'origHeight': 409, 'width': 410, 'height': 409, 'widthPercent': 0.45, 'rescaleHeight': False, 'trialN': 86, 'loaded': True, 'loadedTime': 13317.79999999702, 'positionName': 'RIGHT', 'positionCoords': [798.72, 227.5], 'bid': 2.65}]",123209.20000000298,1669830337684,orange slices,eggsalad,2.79,2.65,-0.14000000000000012,eggsalad,793.0,795,795.5999999940395,True,i,124512.79999999702,1303.5999999940395,1669830338987,1303,HRV,HRV_0033,2022-11-30 17:47:53
87,"[{'imgObject': {}, 'id': 'cherries', 'src': '/static/foodstim60/cherries.jpg', 'key': 'u', 'origWidth': 410, 'origHeight': 411, 'width': 410, 'height': 411, 'widthPercent': 0.45, 'rescaleHeight': False, 'trialN': 87, 'loaded': True, 'loadedTime': 10720.29999999702, 'positionName': 'LEFT', 'positionCoords': [327.28, 226.5], 'bid': 4.75}, {'imgObject': {}, 'id': 'lox', 'src': '/static/foodstim60/lox.jpg', 'key': 'i', 'origWidth': 410, 'origHeight': 411, 'width': 410, 'height': 411, 'widthPercent': 0.45, 'rescaleHeight': False, 'trialN': 87, 'loaded': True, 'loadedTime': 12230.20000000298, 'positionName': 'RIGHT', 'positionCoords': [798.72, 226.5], 'bid': 6.87}]",124513.79999999702,1669830338988,cherries,lox,4.75,6.87,2.12,lox,729.8000000044703,739,738.9000000059605,True,i,125761.10000000149,1247.3000000044703,1669830340236,1248,HRV,HRV_0033,2022-11-30 17:47:53
88,"[{'imgObject': {}, 'id': 'Tribe humus pita', 'src': '/static/foodstim60/Tribe humus pita.jpg', 'key': 'u', 'origWidth': 411, 'origHeight': 411, 'width': 411, 'height': 411, 'widthPercent': 0.45, 'rescaleHeight': False, 'trialN': 88, 'loaded': True, 'loadedTime': 11507.70000000298, 'positionName': 'LEFT', 'positionCoords': [326.28, 226.5], 'bid': 5.2700000000000005}, {'imgObject': {}, 'id': 'luckycharms', 'src': '/static/foodstim60/luckycharms.jpg', 'key': 'i', 'origWidth': 410, 'origHeight': 409, 'width': 410, 'height': 409, 'widthPercent': 0.45, 'rescaleHeight': False, 'trialN': 88, 'loaded': True, 'loadedTime': 12027.29999999702, 'positionName': 'RIGHT', 'positionCoords': [798.72, 227.5], 'bid': 5.19}]",125761.5,1669830340236,Tribe humus pita,luckycharms,5.2700000000000005,5.19,-0.08000000000000007,luckycharms,1525.6000000014901,1527,1527.2000000029802,True,i,127793.29999999702,2031.7999999970198,1669830342268,2032,HRV,HRV_0033,2022-11-30 17:47:53
89,"[{'imgObject': {}, 'id': 'grilled chicken strips', 'src': '/static/foodstim60/grilled chicken strips.jpg', 'key': 'u', 'origWidth': 410, 'origHeight': 411, 'width': 410, 'height': 411, 'widthPercent': 0.45, 'rescaleHeight': False, 'trialN': 89, 'loaded': True, 'loadedTime': 13591.89999999851, 'positionName': 'LEFT', 'positionCoords': [327.28, 226.5], 'bid': 5.42}, {'imgObject': {}, 'id': 'salmon', 'src': '/static/foodstim60/salmon.jpg', 'key': 'i', 'origWidth': 410, 'origHeight': 409, 'width': 410, 'height': 409, 'widthPercent': 0.45, 'rescaleHeight': False, 'trialN': 89, 'loaded': True, 'loadedTime': 13576.20000000298, 'positionName': 'RIGHT', 'positionCoords': [798.72, 227.5], 'bid': 5.93}]",127794.10000000149,1669830342269,grilled chicken strips,salmon,5.42,5.93,0.5099999999999998,salmon,960.8999999985099,962,962.7999999970198,True,i,129264.79999999702,1470.6999999955297,1669830343739,1470,HRV,HRV_0033,2022-11-30 17:47:53
90,"[{'imgObject': {}, 'id': 'turkey sandwich', 'src': '/static/foodstim60/turkey sandwich.jpg', 'key': 'u', 'origWidth': 409, 'origHeight': 409, 'width': 409, 'height': 409, 'widthPercent': 0.45, 'rescaleHeight': False, 'trialN': 90, 'loaded': True, 'loadedTime': 13384.20000000298, 'positionName': 'LEFT', 'positionCoords': [328.28, 227.5], 'bid': 3.91}, {'imgObject': {}, 'id': 'apple slices', 'src': '/static/foodstim60/apple slices.jpg', 'key': 'i', 'origWidth': 409, 'origHeight': 410, 'width': 409, 'height': 410, 'widthPercent': 0.45, 'rescaleHeight': False, 'trialN': 90, 'loaded': True, 'loadedTime': 13275.39999999851, 'positionName': 'RIGHT', 'positionCoords': [798.72, 227], 'bid': 3.34}]",132506.29999999702,1669830346981,turkey sandwich,apple slices,3.91,3.34,-0.5700000000000003,turkey sandwich,1679.0,1689,1688.7000000029802,True,u,134698.1000000015,2191.8000000044703,1669830349173,2192,HRV,HRV_0033,2022-11-30 17:47:53
91,"[{'imgObject': {}, 'id': 'olives', 'src': '/static/foodstim60/olives.jpg', 'key': 'u', 'origWidth': 410, 'origHeight': 410, 'width': 410, 'height': 410, 'widthPercent': 0.45, 'rescaleHeight': False, 'trialN': 91, 'loaded': True, 'loadedTime': 12047.5, 'positionName': 'LEFT', 'positionCoords': [327.28, 227], 'bid': 8.5}, {'imgObject': {}, 'id': 'tacos', 'src': '/static/foodstim60/tacos.jpg', 'key': 'i', 'origWidth': 411, 'origHeight': 411, 'width': 411, 'height': 411, 'widthPercent': 0.45, 'rescaleHeight': False, 'trialN': 91, 'loaded': True, 'loadedTime': 13198.20000000298, 'positionName': 'RIGHT', 'positionCoords': [798.72, 226.5], 'bid': 7.6}]",134698.5,1669830349173,olives,tacos,8.5,7.6,-0.9000000000000004,tacos,684.7999999970198,687,687.1000000014901,True,i,135889.29999999702,1190.7999999970198,1669830350364,1191,HRV,HRV_0033,2022-11-30 17:47:53
92,"[{'imgObject': {}, 'id': 'granola w milk', 'src': '/static/foodstim60/granola w milk.jpg', 'key': 'u', 'origWidth': 410, 'origHeight': 410, 'width': 410, 'height': 410, 'widthPercent': 0.45, 'rescaleHeight': False, 'trialN': 92, 'loaded': True, 'loadedTime': 11561, 'positionName': 'LEFT', 'positionCoords': [327.28, 227], 'bid': 1.47}, {'imgObject': {}, 'id': 'avocado', 'src': '/static/foodstim60/avocado.jpg', 'key': 'i', 'origWidth': 409, 'origHeight': 409, 'width': 409, 'height': 409, 'widthPercent': 0.45, 'rescaleHeight': False, 'trialN': 92, 'loaded': True, 'loadedTime': 11461.79999999702, 'positionName': 'RIGHT', 'positionCoords': [798.72, 227.5], 'bid': 4.67}]",135889.79999999702,1669830350364,granola w milk,avocado,1.47,4.67,3.2,avocado,708.2000000029802,711,710.6000000014901,True,i,137105.0,1215.2000000029802,1669830351580,1216,HRV,HRV_0033,2022-11-30 17:47:53
93,"[{'imgObject': {}, 'id': 'fruitsalad', 'src': '/static/foodstim60/fruitsalad.jpg', 'key': 'u', 'origWidth': 410, 'origHeight': 410, 'width': 410, 'height': 410, 'widthPercent': 0.45, 'rescaleHeight': False, 'trialN': 93, 'loaded': True, 'loadedTime': 7034.39999999851, 'positionName': 'LEFT', 'positionCoords': [327.28, 227], 'bid': 4.07}, {'imgObject': {}, 'id': 'banana', 'src': '/static/foodstim60/banana.jpg', 'key': 'i', 'origWidth': 410, 'origHeight': 410, 'width': 410, 'height': 410, 'widthPercent': 0.45, 'rescaleHeight': False, 'trialN': 93, 'loaded': True, 'loadedTime': 11819.39999999851, 'positionName': 'RIGHT', 'positionCoords': [798.72, 227], 'bid': 0.66}]",137105.6000000015,1669830351580,fruitsalad,banana,4.07,0.66,-3.41,fruitsalad,677.1000000014901,681,680.3999999985099,True,u,138290.3999999985,1184.7999999970198,1669830352765,1185,HRV,HRV_0033,2022-11-30 17:47:53
94,"[{'imgObject': {}, 'id': 'raisin bran w milk', 'src': '/static/foodstim60/raisin bran w milk.jpg', 'key': 'u', 'origWidth': 411, 'origHeight': 411, 'width': 411, 'height': 411, 'widthPercent': 0.45, 'rescaleHeight': False, 'trialN': 94, 'loaded': True, 'loadedTime': 10333.5, 'positionName': 'LEFT', 'positionCoords': [326.28, 226.5], 'bid': 1.38}, {'imgObject': {}, 'id': 'cantaloupe', 'src': '/static/foodstim60/cantaloupe.jpg', 'key': 'i', 'origWidth': 409, 'origHeight': 409, 'width': 409, 'height': 409, 'widthPercent': 0.45, 'rescaleHeight': False, 'trialN': 94, 'loaded': True, 'loadedTime': 11752.20000000298, 'positionName': 'RIGHT', 'positionCoords': [798.72, 227.5], 'bid': 1.69}]",138290.6000000015,1669830352765,raisin bran w milk,cantaloupe,1.38,1.69,0.31000000000000005,raisin bran w milk,945.5,950,949.6999999955297,True,u,139745.0,1454.3999999985099,1669830354220,1455,HRV,HRV_0033,2022-11-30 17:47:53
95,"[{'imgObject': {}, 'id': 'cherry tomato', 'src': '/static/foodstim60/cherry tomato.jpg', 'key': 'u', 'origWidth': 410, 'origHeight': 410, 'width': 410, 'height': 410, 'widthPercent': 0.45, 'rescaleHeight': False, 'trialN': 95, 'loaded': True, 'loadedTime': 13345.89999999851, 'positionName': 'LEFT', 'positionCoords': [327.28, 227], 'bid': 4.58}, {'imgObject': {}, 'id': 'roastedpotatoes', 'src': '/static/foodstim60/roastedpotatoes.jpg', 'key': 'i', 'origWidth': 409, 'origHeight': 410, 'width': 409, 'height': 410, 'widthPercent': 0.45, 'rescaleHeight': False, 'trialN': 95, 'loaded': True, 'loadedTime': 9378.70000000298, 'positionName': 'RIGHT', 'positionCoords': [798.72, 227], 'bid': 6.28}]",139745.20000000298,1669830354220,cherry tomato,roastedpotatoes,4.58,6.28,1.7000000000000002,cherry tomato,728.1999999955297,731,731.2999999970198,True,u,140977.20000000298,1232.0,1669830355452,1232,HRV,HRV_0033,2022-11-30 17:47:53
96,"[{'imgObject': {}, 'id': 'cherries', 'src': '/static/foodstim60/cherries.jpg', 'key': 'u', 'origWidth': 410, 'origHeight': 411, 'width': 410, 'height': 411, 'widthPercent': 0.45, 'rescaleHeight': False, 'trialN': 96, 'loaded': True, 'loadedTime': 10494.89999999851, 'positionName': 'LEFT', 'positionCoords': [327.28, 226.5], 'bid': 4.75}, {'imgObject': {}, 'id': 'cherry tomato', 'src': '/static/foodstim60/cherry tomato.jpg', 'key': 'i', 'origWidth': 410, 'origHeight': 410, 'width': 410, 'height': 410, 'widthPercent': 0.45, 'rescaleHeight': False, 'trialN': 96, 'loaded': True, 'loadedTime': 13339.70000000298, 'positionName': 'RIGHT', 'positionCoords': [798.72, 227], 'bid': 4.58}]",140977.6000000015,1669830355452,cherries,cherry tomato,4.75,4.58,-0.16999999999999993,cherries,121.10000000149012,124,123.29999999701977,True,u,141608.79999999702,631.1999999955297,1669830356083,631,HRV,HRV_0033,2022-11-30 17:47:53
97,"[{'imgObject': {}, 'id': 'sweetpotato', 'src': '/static/foodstim60/sweetpotato.jpg', 'key': 'u', 'origWidth': 410, 'origHeight': 410, 'width': 410, 'height': 410, 'widthPercent': 0.45, 'rescaleHeight': False, 'trialN': 97, 'loaded': True, 'loadedTime': 12745.70000000298, 'positionName': 'LEFT', 'positionCoords': [327.28, 227], 'bid': 0.55}, {'imgObject': {}, 'id': 'rigatoni', 'src': '/static/foodstim60/rigatoni.jpg', 'key': 'i', 'origWidth': 411, 'origHeight': 411, 'width': 411, 'height': 411, 'widthPercent': 0.45, 'rescaleHeight': False, 'trialN': 97, 'loaded': True, 'loadedTime': 12041.20000000298, 'positionName': 'RIGHT', 'positionCoords': [798.72, 226.5], 'bid': 1.4}]",141609.1000000015,1669830356084,sweetpotato,rigatoni,0.55,1.4,0.8499999999999999,rigatoni,178.5,181,181.0,True,i,142296.79999999702,687.6999999955297,1669830356771,687,HRV,HRV_0033,2022-11-30 17:47:53
98,"[{'imgObject': {}, 'id': 'fried eggs', 'src': '/static/foodstim60/fried eggs.jpg', 'key': 'u', 'origWidth': 410, 'origHeight': 410, 'width': 410, 'height': 410, 'widthPercent': 0.45, 'rescaleHeight': False, 'trialN': 98, 'loaded': True, 'loadedTime': 13603.79999999702, 'positionName': 'LEFT', 'positionCoords': [327.28, 227], 'bid': 5.79}, {'imgObject': {}, 'id': 'raspberries', 'src': '/static/foodstim60/raspberries.jpg', 'key': 'i', 'origWidth': 411, 'origHeight': 411, 'width': 411, 'height': 411, 'widthPercent': 0.45, 'rescaleHeight': False, 'trialN': 98, 'loaded': True, 'loadedTime': 8528.79999999702, 'positionName': 'RIGHT', 'positionCoords': [798.72, 226.5], 'bid': 4.96}]",142297.1000000015,1669830356772,fried eggs,raspberries,5.79,4.96,-0.8300000000000001,fried eggs,875.3999999985099,877,877.1999999955297,True,u,143680.8999999985,1383.7999999970198,1669830358156,1384,HRV,HRV_0033,2022-11-30 17:47:53
99,"[{'imgObject': {}, 'id': 'burrito', 'src': '/static/foodstim60/burrito.jpg', 'key': 'u', 'origWidth': 410, 'origHeight': 410, 'width': 410, 'height': 410, 'widthPercent': 0.45, 'rescaleHeight': False, 'trialN': 99, 'loaded': True, 'loadedTime': 13527.89999999851, 'positionName': 'LEFT', 'positionCoords': [327.28, 227], 'bid': 3.95}, {'imgObject': {}, 'id': 'hashbrowns', 'src': '/static/foodstim60/hashbrowns.jpg', 'key': 'i', 'origWidth': 411, 'origHeight': 410, 'width': 411, 'height': 410, 'widthPercent': 0.45, 'rescaleHeight': False, 'trialN': 99, 'loaded': True, 'loadedTime': 6674.60000000149, 'positionName': 'RIGHT', 'positionCoords': [798.72, 227], 'bid': 4.03}]",143681.20000000298,1669830358156,burrito,hashbrowns,3.95,4.03,0.08000000000000007,burrito,743.2999999970198,744,744.5,True,u,144928.8999999985,1247.6999999955297,1669830359404,1248,HRV,HRV_0033,2022-11-30 17:47:53
100,"[{'imgObject': {}, 'id': 'Grapes', 'src': '/static/foodstim60/Grapes.jpg', 'key': 'u', 'origWidth': 411, 'origHeight': 411, 'width': 411, 'height': 411, 'widthPercent': 0.45, 'rescaleHeight': False, 'trialN': 100, 'loaded': True, 'loadedTime': 12258.39999999851, 'positionName': 'LEFT', 'positionCoords': [326.28, 226.5], 'bid': 2.42}, {'imgObject': {}, 'id': 'pear', 'src': '/static/foodstim60/pear.jpg', 'key': 'i', 'origWidth': 411, 'origHeight': 410, 'width': 411, 'height': 410, 'widthPercent': 0.45, 'rescaleHeight': False, 'trialN': 100, 'loaded': True, 'loadedTime': 13545.70000000298, 'positionName': 'RIGHT', 'positionCoords': [798.72, 227], 'bid': 2.23}]",144929.20000000298,1669830359404,Grapes,pear,2.42,2.23,-0.18999999999999995,pear,769.6999999955297,772,772.1999999955297,True,i,146208.79999999702,1279.5999999940395,1669830360683,1279,HRV,HRV_0033,2022-11-30 17:47:53
101,"[{'imgObject': {}, 'id': 'grilled chicken strips', 'src': '/static/foodstim60/grilled chicken strips.jpg', 'key': 'u', 'origWidth': 410, 'origHeight': 411, 'width': 410, 'height': 411, 'widthPercent': 0.45, 'rescaleHeight': False, 'trialN': 101, 'loaded': True, 'loadedTime': 13580.60000000149, 'positionName': 'LEFT', 'positionCoords': [327.28, 226.5], 'bid': 5.42}, {'imgObject': {}, 'id': 'fried eggs', 'src': '/static/foodstim60/fried eggs.jpg', 'key': 'i', 'origWidth': 410, 'origHeight': 410, 'width': 410, 'height': 410, 'widthPercent': 0.45, 'rescaleHeight': False, 'trialN': 101, 'loaded': True, 'loadedTime': 13608.5, 'positionName': 'RIGHT', 'positionCoords': [798.72, 227], 'bid': 5.79}]",146209.1000000015,1669830360684,grilled chicken strips,fried eggs,5.42,5.79,0.3700000000000001,fried eggs,790.7999999970198,794,793.8999999985099,True,i,147506.20000000298,1297.1000000014901,1669830361981,1297,HRV,HRV_0033,2022-11-30 17:47:53
102,"[{'imgObject': {}, 'id': 'avocado', 'src': '/static/foodstim60/avocado.jpg', 'key': 'u', 'origWidth': 409, 'origHeight': 409, 'width': 409, 'height': 409, 'widthPercent': 0.45, 'rescaleHeight': False, 'trialN': 102, 'loaded': True, 'loadedTime': 11460, 'positionName': 'LEFT', 'positionCoords': [328.28, 227.5], 'bid': 4.67}, {'imgObject': {}, 'id': 'turkey sandwich', 'src': '/static/foodstim60/turkey sandwich.jpg', 'key': 'i', 'origWidth': 409, 'origHeight': 409, 'width': 409, 'height': 409, 'widthPercent': 0.45, 'rescaleHeight': False, 'trialN': 102, 'loaded': True, 'loadedTime': 13412.39999999851, 'positionName': 'RIGHT', 'positionCoords': [798.72, 227.5], 'bid': 3.91}]",147506.6000000015,1669830361981,avocado,turkey sandwich,4.67,3.91,-0.7599999999999998,turkey sandwich,861.1000000014901,866,865.6999999955297,True,i,148873.79999999702,1367.1999999955297,1669830363348,1367,HRV,HRV_0033,2022-11-30 17:47:53
103,"[{'imgObject': {}, 'id': 'omelette', 'src': '/static/foodstim60/omelette.jpg', 'key': 'u', 'origWidth': 410, 'origHeight': 409, 'width': 410, 'height': 409, 'widthPercent': 0.45, 'rescaleHeight': False, 'trialN': 103, 'loaded': True, 'loadedTime': 13321.79999999702, 'positionName': 'LEFT', 'positionCoords': [327.28, 227.5], 'bid': 4.17}, {'imgObject': {}, 'id': 'kiwi', 'src': '/static/foodstim60/kiwi.jpg', 'key': 'i', 'origWidth': 410, 'origHeight': 410, 'width': 410, 'height': 410, 'widthPercent': 0.45, 'rescaleHeight': False, 'trialN': 103, 'loaded': True, 'loadedTime': 13036.60000000149, 'positionName': 'RIGHT', 'positionCoords': [798.72, 227], 'bid': 3.5}]",148874.1000000015,1669830363349,omelette,kiwi,4.17,3.5,-0.6699999999999999,omelette,1035.1000000014901,1036,1036.7999999970198,True,u,150416.8999999985,1542.7999999970198,1669830364891,1542,HRV,HRV_0033,2022-11-30 17:47:53
104,"[{'imgObject': {}, 'id': 'eggs', 'src': '/static/foodstim60/eggs.jpg', 'key': 'u', 'origWidth': 409, 'origHeight': 409, 'width': 409, 'height': 409, 'widthPercent': 0.45, 'rescaleHeight': False, 'trialN': 104, 'loaded': True, 'loadedTime': 12773.29999999702, 'positionName': 'LEFT', 'positionCoords': [328.28, 227.5], 'bid': 3.28}, {'imgObject': {}, 'id': 'yogurt no spoon', 'src': '/static/foodstim60/yogurt no spoon.jpg', 'key': 'i', 'origWidth': 411, 'origHeight': 410, 'width': 411, 'height': 410, 'widthPercent': 0.45, 'rescaleHeight': False, 'trialN': 104, 'loaded': True, 'loadedTime': 6115.5, 'positionName': 'RIGHT', 'positionCoords': [798.72, 227], 'bid': 1.6}]",150417.1000000015,1669830364892,eggs,yogurt no spoon,3.28,1.6,-1.6799999999999997,eggs,750.7999999970198,753,753.2999999970198,True,u,151672.79999999702,1255.6999999955297,1669830366147,1255,HRV,HRV_0033,2022-11-30 17:47:53
105,"[{'imgObject': {}, 'id': 'lox', 'src': '/static/foodstim60/lox.jpg', 'key': 'u', 'origWidth': 410, 'origHeight': 411, 'width': 410, 'height': 411, 'widthPercent': 0.45, 'rescaleHeight': False, 'trialN': 105, 'loaded': True, 'loadedTime': 12231.29999999702, 'positionName': 'LEFT', 'positionCoords': [327.28, 226.5], 'bid': 6.87}, {'imgObject': {}, 'id': 'seaweed', 'src': '/static/foodstim60/seaweed.jpg', 'key': 'i', 'origWidth': 410, 'origHeight': 410, 'width': 410, 'height': 410, 'widthPercent': 0.45, 'rescaleHeight': False, 'trialN': 105, 'loaded': True, 'loadedTime': 9838.20000000298, 'positionName': 'RIGHT', 'positionCoords': [798.72, 227], 'bid': 6.45}]",151673.1000000015,1669830366148,lox,seaweed,6.87,6.45,-0.41999999999999993,lox,646.1999999955297,648,648.6999999955297,True,u,152824.79999999702,1151.6999999955297,1669830367299,1151,HRV,HRV_0033,2022-11-30 17:47:53
106,"[{'imgObject': {}, 'id': 'granola w milk', 'src': '/static/foodstim60/granola w milk.jpg', 'key': 'u', 'origWidth': 410, 'origHeight': 410, 'width': 410, 'height': 410, 'widthPercent': 0.45, 'rescaleHeight': False, 'trialN': 106, 'loaded': True, 'loadedTime': 11553.60000000149, 'positionName': 'LEFT', 'positionCoords': [327.28, 227], 'bid': 1.47}, {'imgObject': {}, 'id': 'froot loops w milk', 'src': '/static/foodstim60/froot loops w milk.jpg', 'key': 'i', 'origWidth': 410, 'origHeight': 410, 'width': 410, 'height': 410, 'widthPercent': 0.45, 'rescaleHeight': False, 'trialN': 106, 'loaded': True, 'loadedTime': 10733, 'positionName': 'RIGHT', 'positionCoords': [798.72, 227], 'bid': 2.5}]",152825.29999999702,1669830367300,granola w milk,froot loops w milk,1.47,2.5,1.03,froot loops w milk,952.1000000014901,956,955.9000000059605,True,i,154288.79999999702,1463.5,1669830368763,1463,HRV,HRV_0033,2022-11-30 17:47:53
107,"[{'imgObject': {}, 'id': 'shreddedwheatwithmilk', 'src': '/static/foodstim60/shreddedwheatwithmilk.jpg', 'key': 'u', 'origWidth': 410, 'origHeight': 410, 'width': 410, 'height': 410, 'widthPercent': 0.45, 'rescaleHeight': False, 'trialN': 107, 'loaded': True, 'loadedTime': 5710.39999999851, 'positionName': 'LEFT', 'positionCoords': [327.28, 227], 'bid': 1.31}, {'imgObject': {}, 'id': 'banana', 'src': '/static/foodstim60/banana.jpg', 'key': 'i', 'origWidth': 410, 'origHeight': 410, 'width': 410, 'height': 410, 'widthPercent': 0.45, 'rescaleHeight': False, 'trialN': 107, 'loaded': True, 'loadedTime': 11819.79999999702, 'positionName': 'RIGHT', 'positionCoords': [798.72, 227], 'bid': 0.66}]",154289.1000000015,1669830368764,shreddedwheatwithmilk,banana,1.31,0.66,-0.65,shreddedwheatwithmilk,1072.5,1074,1074.1999999955297,True,u,155865.1000000015,1576.0,1669830370340,1576,HRV,HRV_0033,2022-11-30 17:47:53
108,"[{'imgObject': {}, 'id': 'banana', 'src': '/static/foodstim60/banana.jpg', 'key': 'u', 'origWidth': 410, 'origHeight': 410, 'width': 410, 'height': 410, 'widthPercent': 0.45, 'rescaleHeight': False, 'trialN': 108, 'loaded': True, 'loadedTime': 11822.39999999851, 'positionName': 'LEFT', 'positionCoords': [327.28, 227], 'bid': 0.66}, {'imgObject': {}, 'id': 'granola w milk', 'src': '/static/foodstim60/granola w milk.jpg', 'key': 'i', 'origWidth': 410, 'origHeight': 410, 'width': 410, 'height': 410, 'widthPercent': 0.45, 'rescaleHeight': False, 'trialN': 108, 'loaded': True, 'loadedTime': 11583.89999999851, 'positionName': 'RIGHT', 'positionCoords': [798.72, 227], 'bid': 1.47}]",155865.3999999985,1669830370340,banana,granola w milk,0.66,1.47,0.8099999999999999,granola w milk,758.3999999985099,760,760.0,True,i,157128.79999999702,1263.3999999985099,1669830371603,1263,HRV,HRV_0033,2022-11-30 17:47:53
