trialN,stimuli,trialStartTime,trialStartTime_UNIX,stimulus1,stimulus2,stimulus1Bid,stimulus2Bid,delta,selected,rt,rt_UNIX,rt_perfnow,receivedResponse,rsp,trialEndTime,trialDuration,trialEndTime_UNIX,trialDuration_UNIX,exp,subjectId,date
0,"[{'imgObject': {}, 'id': 'granola w milk', 'src': '/static/foodstim60/granola w milk.jpg', 'key': 'u', 'origWidth': 410, 'origHeight': 410, 'width': 410, 'height': 410, 'widthPercent': 0.45, 'rescaleHeight': False, 'trialN': 0, 'loaded': True, 'loadedTime': 2969.2000000029802, 'positionName': 'LEFT', 'positionCoords': [245.68, 179], 'bid': 6.62}, {'imgObject': {}, 'id': 'orange slices', 'src': '/static/foodstim60/orange slices.jpg', 'key': 'i', 'origWidth': 409, 'origHeight': 410, 'width': 409, 'height': 410, 'widthPercent': 0.45, 'rescaleHeight': False, 'trialN': 0, 'loaded': True, 'loadedTime': 3007.5, 'positionName': 'RIGHT', 'positionCoords': [710.32, 179], 'bid': 9.77}]",3885.8999999910593,1669830404609,granola w milk,orange slices,6.62,9.77,3.1499999999999995,orange slices,919.3000000119209,921,920.9000000059605,True,i,5313.399999991059,1427.5,1669830406037,1428,HRV,HRV_0132,2022-11-30 17:52:59
1,"[{'imgObject': {}, 'id': 'mango', 'src': '/static/foodstim60/mango.jpg', 'key': 'u', 'origWidth': 411, 'origHeight': 411, 'width': 411, 'height': 411, 'widthPercent': 0.45, 'rescaleHeight': False, 'trialN': 1, 'loaded': True, 'loadedTime': 3017.5999999940395, 'positionName': 'LEFT', 'positionCoords': [244.68, 178.5], 'bid': 3.27}, {'imgObject': {}, 'id': 'sweetpotato', 'src': '/static/foodstim60/sweetpotato.jpg', 'key': 'i', 'origWidth': 410, 'origHeight': 410, 'width': 410, 'height': 410, 'widthPercent': 0.45, 'rescaleHeight': False, 'trialN': 1, 'loaded': True, 'loadedTime': 3049.2999999970198, 'positionName': 'RIGHT', 'positionCoords': [710.32, 179], 'bid': 0.1}]",5314.29999999702,1669830406038,mango,sweetpotato,3.27,0.1,-3.17,mango,1216.2999999970198,1220,1219.5999999940395,True,u,7045.899999991059,1731.5999999940395,1669830407770,1732,HRV,HRV_0132,2022-11-30 17:52:59
2,"[{'imgObject': {}, 'id': 'veggieswithdip', 'src': '/static/foodstim60/veggieswithdip.jpg', 'key': 'u', 'origWidth': 409, 'origHeight': 409, 'width': 409, 'height': 409, 'widthPercent': 0.45, 'rescaleHeight': False, 'trialN': 2, 'loaded': True, 'loadedTime': 3064.0999999940395, 'positionName': 'LEFT', 'positionCoords': [246.68, 179.5], 'bid': 0.75}, {'imgObject': {}, 'id': 'hotdog w must', 'src': '/static/foodstim60/hotdog w must.jpg', 'key': 'i', 'origWidth': 409, 'origHeight': 409, 'width': 409, 'height': 409, 'widthPercent': 0.45, 'rescaleHeight': False, 'trialN': 2, 'loaded': True, 'loadedTime': 3081.3999999910593, 'positionName': 'RIGHT', 'positionCoords': [710.32, 179.5], 'bid': 5.58}]",7046.5999999940395,1669830407770,veggieswithdip,hotdog w must,0.75,5.58,4.83,hotdog w must,1144.0,1145,1144.9000000059605,True,i,8699.0,1652.4000000059605,1669830409423,1653,HRV,HRV_0132,2022-11-30 17:52:59
3,"[{'imgObject': {}, 'id': 'bagel plain', 'src': '/static/foodstim60/bagel plain.jpg', 'key': 'u', 'origWidth': 410, 'origHeight': 410, 'width': 410, 'height': 410, 'widthPercent': 0.45, 'rescaleHeight': False, 'trialN': 3, 'loaded': True, 'loadedTime': 3117.2999999970198, 'positionName': 'LEFT', 'positionCoords': [245.68, 179], 'bid': 5.26}, {'imgObject': {}, 'id': 'eggs', 'src': '/static/foodstim60/eggs.jpg', 'key': 'i', 'origWidth': 409, 'origHeight': 409, 'width': 409, 'height': 409, 'widthPercent': 0.45, 'rescaleHeight': False, 'trialN': 3, 'loaded': True, 'loadedTime': 3122, 'positionName': 'RIGHT', 'positionCoords': [710.32, 179.5], 'bid': 4.8}]",8699.5,1669830409423,bagel plain,eggs,5.26,4.8,-0.45999999999999996,bagel plain,1125.8999999910593,1127,1126.7000000029802,True,u,10347.39999999106,1647.8999999910593,1669830411071,1648,HRV,HRV_0132,2022-11-30 17:52:59
4,"[{'imgObject': {}, 'id': 'steak', 'src': '/static/foodstim60/steak.jpg', 'key': 'u', 'origWidth': 410, 'origHeight': 410, 'width': 410, 'height': 410, 'widthPercent': 0.45, 'rescaleHeight': False, 'trialN': 4, 'loaded': True, 'loadedTime': 3141.3999999910593, 'positionName': 'LEFT', 'positionCoords': [245.68, 179], 'bid': 6.21}, {'imgObject': {}, 'id': 'chickenfingers', 'src': '/static/foodstim60/chickenfingers.jpg', 'key': 'i', 'origWidth': 410, 'origHeight': 410, 'width': 410, 'height': 410, 'widthPercent': 0.45, 'rescaleHeight': False, 'trialN': 4, 'loaded': True, 'loadedTime': 3167.3999999910593, 'positionName': 'RIGHT', 'positionCoords': [710.32, 179], 'bid': 7.16}]",10348.0,1669830411072,steak,chickenfingers,6.21,7.16,0.9500000000000002,steak,1249.5,1250,1250.2999999970198,True,u,12111.09999999404,1763.0999999940395,1669830412835,1763,HRV,HRV_0132,2022-11-30 17:52:59
5,"[{'imgObject': {}, 'id': 'seaweed', 'src': '/static/foodstim60/seaweed.jpg', 'key': 'u', 'origWidth': 410, 'origHeight': 410, 'width': 410, 'height': 410, 'widthPercent': 0.45, 'rescaleHeight': False, 'trialN': 5, 'loaded': True, 'loadedTime': 3258.5999999940395, 'positionName': 'LEFT', 'positionCoords': [245.68, 179], 'bid': 0.05}, {'imgObject': {}, 'id': 'sweetpotato', 'src': '/static/foodstim60/sweetpotato.jpg', 'key': 'i', 'origWidth': 410, 'origHeight': 410, 'width': 410, 'height': 410, 'widthPercent': 0.45, 'rescaleHeight': False, 'trialN': 5, 'loaded': True, 'loadedTime': 3031.5, 'positionName': 'RIGHT', 'positionCoords': [710.32, 179], 'bid': 0.1}]",12111.5,1669830412835,seaweed,sweetpotato,0.05,0.1,0.05,seaweed,1360.2000000029802,1361,1361.2000000029802,True,u,13979.39999999106,1867.8999999910593,1669830414703,1868,HRV,HRV_0132,2022-11-30 17:52:59
6,"[{'imgObject': {}, 'id': 'veggieswithdip', 'src': '/static/foodstim60/veggieswithdip.jpg', 'key': 'u', 'origWidth': 409, 'origHeight': 409, 'width': 409, 'height': 409, 'widthPercent': 0.45, 'rescaleHeight': False, 'trialN': 6, 'loaded': True, 'loadedTime': 3050.5999999940395, 'positionName': 'LEFT', 'positionCoords': [246.68, 179.5], 'bid': 0.75}, {'imgObject': {}, 'id': 'pear', 'src': '/static/foodstim60/pear.jpg', 'key': 'i', 'origWidth': 411, 'origHeight': 410, 'width': 411, 'height': 410, 'widthPercent': 0.45, 'rescaleHeight': False, 'trialN': 6, 'loaded': True, 'loadedTime': 3199.7999999970198, 'positionName': 'RIGHT', 'positionCoords': [710.32, 179], 'bid': 4.72}]",13980.09999999404,1669830414704,veggieswithdip,pear,0.75,4.72,3.9699999999999998,pear,1278.2999999970198,1279,1279.2999999970198,True,i,15777.29999999702,1797.2000000029802,1669830416501,1797,HRV,HRV_0132,2022-11-30 17:52:59
7,"[{'imgObject': {}, 'id': 'orange slices', 'src': '/static/foodstim60/orange slices.jpg', 'key': 'u', 'origWidth': 409, 'origHeight': 410, 'width': 409, 'height': 410, 'widthPercent': 0.45, 'rescaleHeight': False, 'trialN': 7, 'loaded': True, 'loadedTime': 3000.5, 'positionName': 'LEFT', 'positionCoords': [246.68, 179], 'bid': 9.77}, {'imgObject': {}, 'id': 'burrito', 'src': '/static/foodstim60/burrito.jpg', 'key': 'i', 'origWidth': 410, 'origHeight': 410, 'width': 410, 'height': 410, 'widthPercent': 0.45, 'rescaleHeight': False, 'trialN': 7, 'loaded': True, 'loadedTime': 3227.2999999970198, 'positionName': 'RIGHT', 'positionCoords': [710.32, 179], 'bid': 9.65}]",15778.09999999404,1669830416502,orange slices,burrito,9.77,9.65,-0.11999999999999922,burrito,1372.4000000059605,1373,1373.2000000029802,True,i,17659.70000000298,1881.6000000089407,1669830418383,1881,HRV,HRV_0132,2022-11-30 17:52:59
8,"[{'imgObject': {}, 'id': 'fruitsalad', 'src': '/static/foodstim60/fruitsalad.jpg', 'key': 'u', 'origWidth': 410, 'origHeight': 410, 'width': 410, 'height': 410, 'widthPercent': 0.45, 'rescaleHeight': False, 'trialN': 8, 'loaded': True, 'loadedTime': 3250.7000000029802, 'positionName': 'LEFT', 'positionCoords': [245.68, 179], 'bid': 9.69}, {'imgObject': {}, 'id': 'strawberries', 'src': '/static/foodstim60/strawberries.jpg', 'key': 'i', 'origWidth': 410, 'origHeight': 410, 'width': 410, 'height': 410, 'widthPercent': 0.45, 'rescaleHeight': False, 'trialN': 8, 'loaded': True, 'loadedTime': 3300.2000000029802, 'positionName': 'RIGHT', 'positionCoords': [710.32, 179], 'bid': 8.33}]",17660.29999999702,1669830418384,fruitsalad,strawberries,9.69,8.33,-1.3599999999999994,fruitsalad,1318.0999999940395,1319,1319.0999999940395,True,u,19493.70000000298,1833.4000000059605,1669830420217,1833,HRV,HRV_0132,2022-11-30 17:52:59
9,"[{'imgObject': {}, 'id': 'mac & cheese', 'src': '/static/foodstim60/mac & cheese.jpg', 'key': 'u', 'origWidth': 410, 'origHeight': 410, 'width': 410, 'height': 410, 'widthPercent': 0.45, 'rescaleHeight': False, 'trialN': 9, 'loaded': True, 'loadedTime': 3462.3999999910593, 'positionName': 'LEFT', 'positionCoords': [245.68, 179], 'bid': 3.96}, {'imgObject': {}, 'id': 'sushi w_condiments', 'src': '/static/foodstim60/sushi w_condiments.jpg', 'key': 'i', 'origWidth': 410, 'origHeight': 410, 'width': 410, 'height': 410, 'widthPercent': 0.45, 'rescaleHeight': False, 'trialN': 9, 'loaded': True, 'loadedTime': 3500, 'positionName': 'RIGHT', 'positionCoords': [710.32, 179], 'bid': 0.05}]",19494.20000000298,1669830420218,mac & cheese,sushi w_condiments,3.96,0.05,-3.91,mac & cheese,1266.199999988079,1267,1267.3999999910593,True,u,21277.20000000298,1783.0,1669830422001,1783,HRV,HRV_0132,2022-11-30 17:52:59
10,"[{'imgObject': {}, 'id': 'hashbrowns', 'src': '/static/foodstim60/hashbrowns.jpg', 'key': 'u', 'origWidth': 411, 'origHeight': 410, 'width': 411, 'height': 410, 'widthPercent': 0.45, 'rescaleHeight': False, 'trialN': 10, 'loaded': True, 'loadedTime': 3399.2999999970198, 'positionName': 'LEFT', 'positionCoords': [244.68, 179], 'bid': 2.54}, {'imgObject': {}, 'id': 'Tribe humus pita', 'src': '/static/foodstim60/Tribe humus pita.jpg', 'key': 'i', 'origWidth': 411, 'origHeight': 411, 'width': 411, 'height': 411, 'widthPercent': 0.45, 'rescaleHeight': False, 'trialN': 10, 'loaded': True, 'loadedTime': 3541.2000000029802, 'positionName': 'RIGHT', 'positionCoords': [710.32, 178.5], 'bid': 1.99}]",21278.0,1669830422002,hashbrowns,Tribe humus pita,2.54,1.99,-0.55,Tribe humus pita,1433.5999999940395,1434,1434.8999999910593,True,i,23215.59999999404,1937.5999999940395,1669830423939,1937,HRV,HRV_0132,2022-11-30 17:52:59
11,"[{'imgObject': {}, 'id': 'cocktailshrimp', 'src': '/static/foodstim60/cocktailshrimp.jpg', 'key': 'u', 'origWidth': 410, 'origHeight': 410, 'width': 410, 'height': 410, 'widthPercent': 0.45, 'rescaleHeight': False, 'trialN': 11, 'loaded': True, 'loadedTime': 3367.5, 'positionName': 'LEFT', 'positionCoords': [245.68, 179], 'bid': 6.42}, {'imgObject': {}, 'id': 'chicken nuggets2', 'src': '/static/foodstim60/chicken nuggets2.jpg', 'key': 'i', 'origWidth': 410, 'origHeight': 409, 'width': 410, 'height': 409, 'widthPercent': 0.45, 'rescaleHeight': False, 'trialN': 11, 'loaded': True, 'loadedTime': 3304.7999999970198, 'positionName': 'RIGHT', 'positionCoords': [710.32, 179.5], 'bid': 7.19}]",23215.79999999702,1669830423939,cocktailshrimp,chicken nuggets2,6.42,7.19,0.7700000000000005,cocktailshrimp,1291.9000000059605,1294,1293.4000000059605,True,u,25024.39999999106,1808.5999999940395,1669830425748,1809,HRV,HRV_0132,2022-11-30 17:52:59
12,"[{'imgObject': {}, 'id': 'apple slices', 'src': '/static/foodstim60/apple slices.jpg', 'key': 'u', 'origWidth': 409, 'origHeight': 410, 'width': 409, 'height': 410, 'widthPercent': 0.45, 'rescaleHeight': False, 'trialN': 12, 'loaded': True, 'loadedTime': 3373, 'positionName': 'LEFT', 'positionCoords': [246.68, 179], 'bid': 6.69}, {'imgObject': {}, 'id': 'turkeysandwich', 'src': '/static/foodstim60/turkeysandwich.jpg', 'key': 'i', 'origWidth': 409, 'origHeight': 409, 'width': 409, 'height': 409, 'widthPercent': 0.45, 'rescaleHeight': False, 'trialN': 12, 'loaded': True, 'loadedTime': 3426.7999999970198, 'positionName': 'RIGHT', 'positionCoords': [710.32, 179.5], 'bid': 8.33}]",25025.09999999404,1669830425749,apple slices,turkeysandwich,6.69,8.33,1.6399999999999997,turkeysandwich,1332.6000000089407,1334,1334.1000000089407,True,i,26875.20000000298,1850.1000000089407,1669830427599,1850,HRV,HRV_0132,2022-11-30 17:52:59
13,"[{'imgObject': {}, 'id': 'eggsalad', 'src': '/static/foodstim60/eggsalad.jpg', 'key': 'u', 'origWidth': 410, 'origHeight': 409, 'width': 410, 'height': 409, 'widthPercent': 0.45, 'rescaleHeight': False, 'trialN': 13, 'loaded': True, 'loadedTime': 3432, 'positionName': 'LEFT', 'positionCoords': [245.68, 179.5], 'bid': 2.08}, {'imgObject': {}, 'id': 'strawberries', 'src': '/static/foodstim60/strawberries.jpg', 'key': 'i', 'origWidth': 410, 'origHeight': 410, 'width': 410, 'height': 410, 'widthPercent': 0.45, 'rescaleHeight': False, 'trialN': 13, 'loaded': True, 'loadedTime': 3302.2000000029802, 'positionName': 'RIGHT', 'positionCoords': [710.32, 179], 'bid': 8.33}]",26875.79999999702,1669830427599,eggsalad,strawberries,2.08,8.33,6.25,strawberries,1299.2000000029802,1302,1301.7000000029802,True,i,28691.0,1815.2000000029802,1669830429415,1816,HRV,HRV_0132,2022-11-30 17:52:59
14,"[{'imgObject': {}, 'id': 'froot loops w milk', 'src': '/static/foodstim60/froot loops w milk.jpg', 'key': 'u', 'origWidth': 410, 'origHeight': 410, 'width': 410, 'height': 410, 'widthPercent': 0.45, 'rescaleHeight': False, 'trialN': 14, 'loaded': True, 'loadedTime': 3478.7999999970198, 'positionName': 'LEFT', 'positionCoords': [245.68, 179], 'bid': 5.98}, {'imgObject': {}, 'id': 'pear', 'src': '/static/foodstim60/pear.jpg', 'key': 'i', 'origWidth': 411, 'origHeight': 410, 'width': 411, 'height': 410, 'widthPercent': 0.45, 'rescaleHeight': False, 'trialN': 14, 'loaded': True, 'loadedTime': 3210.2000000029802, 'positionName': 'RIGHT', 'positionCoords': [710.32, 179], 'bid': 4.72}]",28691.70000000298,1669830429415,froot loops w milk,pear,5.98,4.72,-1.2600000000000007,froot loops w milk,1393.0,1395,1394.199999988079,True,u,30592.29999999702,1900.5999999940395,1669830431316,1901,HRV,HRV_0132,2022-11-30 17:52:59
15,"[{'imgObject': {}, 'id': 'bagel and cc', 'src': '/static/foodstim60/bagel and cc.jpg', 'key': 'u', 'origWidth': 410, 'origHeight': 410, 'width': 410, 'height': 410, 'widthPercent': 0.45, 'rescaleHeight': False, 'trialN': 15, 'loaded': True, 'loadedTime': 3501, 'positionName': 'LEFT', 'positionCoords': [245.68, 179], 'bid': 5.4}, {'imgObject': {}, 'id': 'popsicles', 'src': '/static/foodstim60/popsicles.jpg', 'key': 'i', 'origWidth': 410, 'origHeight': 410, 'width': 410, 'height': 410, 'widthPercent': 0.45, 'rescaleHeight': False, 'trialN': 15, 'loaded': True, 'loadedTime': 3832.7999999970198, 'positionName': 'RIGHT', 'positionCoords': [710.32, 179], 'bid': 3.62}]",30593.0,1669830431317,bagel and cc,popsicles,5.4,3.62,-1.7800000000000002,bagel and cc,1214.2999999970198,1221,1215.7000000029802,True,u,32323.89999999106,1730.8999999910593,1669830433053,1736,HRV,HRV_0132,2022-11-30 17:52:59
16,"[{'imgObject': {}, 'id': 'rigatoni', 'src': '/static/foodstim60/rigatoni.jpg', 'key': 'u', 'origWidth': 411, 'origHeight': 411, 'width': 411, 'height': 411, 'widthPercent': 0.45, 'rescaleHeight': False, 'trialN': 16, 'loaded': True, 'loadedTime': 3529.0999999940395, 'positionName': 'LEFT', 'positionCoords': [244.68, 178.5], 'bid': 4.45}, {'imgObject': {}, 'id': 'pear', 'src': '/static/foodstim60/pear.jpg', 'key': 'i', 'origWidth': 411, 'origHeight': 410, 'width': 411, 'height': 410, 'widthPercent': 0.45, 'rescaleHeight': False, 'trialN': 16, 'loaded': True, 'loadedTime': 3206.5999999940395, 'positionName': 'RIGHT', 'positionCoords': [710.32, 179], 'bid': 4.72}]",32324.5,1669830433054,rigatoni,pear,4.45,4.72,0.2699999999999996,pear,1383.8999999910593,1385,1385.2000000029802,True,i,34216.59999999404,1892.0999999940395,1669830434946,1892,HRV,HRV_0132,2022-11-30 17:52:59
17,"[{'imgObject': {}, 'id': 'eggsalad', 'src': '/static/foodstim60/eggsalad.jpg', 'key': 'u', 'origWidth': 410, 'origHeight': 409, 'width': 410, 'height': 409, 'widthPercent': 0.45, 'rescaleHeight': False, 'trialN': 17, 'loaded': True, 'loadedTime': 3432.5, 'positionName': 'LEFT', 'positionCoords': [245.68, 179.5], 'bid': 2.08}, {'imgObject': {}, 'id': 'bagel plain', 'src': '/static/foodstim60/bagel plain.jpg', 'key': 'i', 'origWidth': 410, 'origHeight': 410, 'width': 410, 'height': 410, 'widthPercent': 0.45, 'rescaleHeight': False, 'trialN': 17, 'loaded': True, 'loadedTime': 3103.8999999910593, 'positionName': 'RIGHT', 'positionCoords': [710.32, 179], 'bid': 5.26}]",34217.20000000298,1669830434947,eggsalad,bagel plain,2.08,5.26,3.1799999999999997,bagel plain,1134.2999999970198,1135,1135.3999999910593,True,i,35861.79999999702,1644.5999999940395,1669830436592,1645,HRV,HRV_0132,2022-11-30 17:52:59
18,"[{'imgObject': {}, 'id': 'raisin bran w milk', 'src': '/static/foodstim60/raisin bran w milk.jpg', 'key': 'u', 'origWidth': 411, 'origHeight': 411, 'width': 411, 'height': 411, 'widthPercent': 0.45, 'rescaleHeight': False, 'trialN': 18, 'loaded': True, 'loadedTime': 3545.7000000029802, 'positionName': 'LEFT', 'positionCoords': [244.68, 178.5], 'bid': 6.8100000000000005}, {'imgObject': {}, 'id': 'chickenfingers', 'src': '/static/foodstim60/chickenfingers.jpg', 'key': 'i', 'origWidth': 410, 'origHeight': 410, 'width': 410, 'height': 410, 'widthPercent': 0.45, 'rescaleHeight': False, 'trialN': 18, 'loaded': True, 'loadedTime': 3165.7999999970198, 'positionName': 'RIGHT', 'positionCoords': [710.32, 179], 'bid': 7.16}]",35862.29999999702,1669830436592,raisin bran w milk,chickenfingers,6.8100000000000005,7.16,0.34999999999999964,chickenfingers,1333.4000000059605,1334,1334.7000000029802,True,i,37706.09999999404,1843.7999999970198,1669830438436,1844,HRV,HRV_0132,2022-11-30 17:52:59
19,"[{'imgObject': {}, 'id': 'seaweed', 'src': '/static/foodstim60/seaweed.jpg', 'key': 'u', 'origWidth': 410, 'origHeight': 410, 'width': 410, 'height': 410, 'widthPercent': 0.45, 'rescaleHeight': False, 'trialN': 19, 'loaded': True, 'loadedTime': 3257.5999999940395, 'positionName': 'LEFT', 'positionCoords': [245.68, 179], 'bid': 0.05}, {'imgObject': {}, 'id': 'rigatoni', 'src': '/static/foodstim60/rigatoni.jpg', 'key': 'i', 'origWidth': 411, 'origHeight': 411, 'width': 411, 'height': 411, 'widthPercent': 0.45, 'rescaleHeight': False, 'trialN': 19, 'loaded': True, 'loadedTime': 3528.5999999940395, 'positionName': 'RIGHT', 'positionCoords': [710.32, 178.5], 'bid': 4.45}]",37706.39999999106,1669830438436,seaweed,rigatoni,0.05,4.45,4.4,seaweed,1305.4000000059605,1307,1306.6000000089407,True,u,39525.59999999404,1819.2000000029802,1669830440255,1819,HRV,HRV_0132,2022-11-30 17:52:59
20,"[{'imgObject': {}, 'id': 'raspberries', 'src': '/static/foodstim60/raspberries.jpg', 'key': 'u', 'origWidth': 411, 'origHeight': 411, 'width': 411, 'height': 411, 'widthPercent': 0.45, 'rescaleHeight': False, 'trialN': 20, 'loaded': True, 'loadedTime': 3565.7000000029802, 'positionName': 'LEFT', 'positionCoords': [244.68, 178.5], 'bid': 8.6}, {'imgObject': {}, 'id': 'baked potato', 'src': '/static/foodstim60/baked potato.jpg', 'key': 'i', 'origWidth': 409, 'origHeight': 410, 'width': 409, 'height': 410, 'widthPercent': 0.45, 'rescaleHeight': False, 'trialN': 20, 'loaded': True, 'loadedTime': 3587.2000000029802, 'positionName': 'RIGHT', 'positionCoords': [710.32, 179], 'bid': 8.63}]",39526.20000000298,1669830440256,raspberries,baked potato,8.6,8.63,0.030000000000001137,baked potato,1387.2999999970198,1388,1388.5,True,i,41423.0,1896.7999999970198,1669830442152,1896,HRV,HRV_0132,2022-11-30 17:52:59
21,"[{'imgObject': {}, 'id': 'Tribe humus pita', 'src': '/static/foodstim60/Tribe humus pita.jpg', 'key': 'u', 'origWidth': 411, 'origHeight': 411, 'width': 411, 'height': 411, 'widthPercent': 0.45, 'rescaleHeight': False, 'trialN': 21, 'loaded': True, 'loadedTime': 3531.7000000029802, 'positionName': 'LEFT', 'positionCoords': [244.68, 178.5], 'bid': 1.99}, {'imgObject': {}, 'id': 'eggsalad', 'src': '/static/foodstim60/eggsalad.jpg', 'key': 'i', 'origWidth': 410, 'origHeight': 409, 'width': 410, 'height': 409, 'widthPercent': 0.45, 'rescaleHeight': False, 'trialN': 21, 'loaded': True, 'loadedTime': 3453.3999999910593, 'positionName': 'RIGHT', 'positionCoords': [710.32, 179.5], 'bid': 2.08}]",41423.5,1669830442153,Tribe humus pita,eggsalad,1.99,2.08,0.09000000000000008,Tribe humus pita,1223.2000000029802,1225,1224.5,True,u,43160.09999999404,1736.5999999940395,1669830443890,1737,HRV,HRV_0132,2022-11-30 17:52:59
22,"[{'imgObject': {}, 'id': 'cherry tomato', 'src': '/static/foodstim60/cherry tomato.jpg', 'key': 'u', 'origWidth': 410, 'origHeight': 410, 'width': 410, 'height': 410, 'widthPercent': 0.45, 'rescaleHeight': False, 'trialN': 22, 'loaded': True, 'loadedTime': 3607.2999999970198, 'positionName': 'LEFT', 'positionCoords': [245.68, 179], 'bid': 9.87}, {'imgObject': {}, 'id': 'cantaloupe', 'src': '/static/foodstim60/cantaloupe.jpg', 'key': 'i', 'origWidth': 409, 'origHeight': 409, 'width': 409, 'height': 409, 'widthPercent': 0.45, 'rescaleHeight': False, 'trialN': 22, 'loaded': True, 'loadedTime': 3615.5999999940395, 'positionName': 'RIGHT', 'positionCoords': [710.32, 179.5], 'bid': 9.69}]",43160.59999999404,1669830443890,cherry tomato,cantaloupe,9.87,9.69,-0.17999999999999972,cherry tomato,1323.7999999970198,1326,1325.5,True,u,45003.20000000298,1842.6000000089407,1669830445733,1843,HRV,HRV_0132,2022-11-30 17:52:59
23,"[{'imgObject': {}, 'id': 'lox', 'src': '/static/foodstim60/lox.jpg', 'key': 'u', 'origWidth': 410, 'origHeight': 411, 'width': 410, 'height': 411, 'widthPercent': 0.45, 'rescaleHeight': False, 'trialN': 23, 'loaded': True, 'loadedTime': 3646.2000000029802, 'positionName': 'LEFT', 'positionCoords': [245.68, 178.5], 'bid': 0.41}, {'imgObject': {}, 'id': 'sushi w_condiments', 'src': '/static/foodstim60/sushi w_condiments.jpg', 'key': 'i', 'origWidth': 410, 'origHeight': 410, 'width': 410, 'height': 410, 'widthPercent': 0.45, 'rescaleHeight': False, 'trialN': 23, 'loaded': True, 'loadedTime': 3483.2999999970198, 'positionName': 'RIGHT', 'positionCoords': [710.32, 179], 'bid': 0.05}]",45003.70000000298,1669830445733,lox,sushi w_condiments,0.41,0.05,-0.36,lox,1433.3999999910593,1435,1434.5999999940395,True,u,46944.79999999702,1941.0999999940395,1669830447674,1941,HRV,HRV_0132,2022-11-30 17:52:59
24,"[{'imgObject': {}, 'id': 'cheerios', 'src': '/static/foodstim60/cheerios.jpg', 'key': 'u', 'origWidth': 409, 'origHeight': 410, 'width': 409, 'height': 410, 'widthPercent': 0.45, 'rescaleHeight': False, 'trialN': 24, 'loaded': True, 'loadedTime': 3648.8999999910593, 'positionName': 'LEFT', 'positionCoords': [246.68, 179], 'bid': 6.05}, {'imgObject': {}, 'id': 'eggsalad', 'src': '/static/foodstim60/eggsalad.jpg', 'key': 'i', 'origWidth': 410, 'origHeight': 409, 'width': 410, 'height': 409, 'widthPercent': 0.45, 'rescaleHeight': False, 'trialN': 24, 'loaded': True, 'loadedTime': 3431.0999999940395, 'positionName': 'RIGHT', 'positionCoords': [710.32, 179.5], 'bid': 2.08}]",46945.39999999106,1669830447675,cheerios,eggsalad,6.05,2.08,-3.9699999999999998,cheerios,1475.4000000059605,1477,1476.7000000029802,True,u,48937.20000000298,1991.800000011921,1669830449667,1992,HRV,HRV_0132,2022-11-30 17:52:59
25,"[{'imgObject': {}, 'id': 'turkeysandwich', 'src': '/static/foodstim60/turkeysandwich.jpg', 'key': 'u', 'origWidth': 409, 'origHeight': 409, 'width': 409, 'height': 409, 'widthPercent': 0.45, 'rescaleHeight': False, 'trialN': 25, 'loaded': True, 'loadedTime': 3419.5, 'positionName': 'LEFT', 'positionCoords': [246.68, 179.5], 'bid': 8.33}, {'imgObject': {}, 'id': 'strawberries', 'src': '/static/foodstim60/strawberries.jpg', 'key': 'i', 'origWidth': 410, 'origHeight': 410, 'width': 410, 'height': 410, 'widthPercent': 0.45, 'rescaleHeight': False, 'trialN': 25, 'loaded': True, 'loadedTime': 3303.2999999970198, 'positionName': 'RIGHT', 'positionCoords': [710.32, 179], 'bid': 8.33}]",48937.70000000298,1669830449667,turkeysandwich,strawberries,8.33,8.33,0.0,turkeysandwich,1426.7999999970198,1428,1428.0999999940395,True,u,50871.29999999702,1933.5999999940395,1669830451601,1934,HRV,HRV_0132,2022-11-30 17:52:59
26,"[{'imgObject': {}, 'id': 'baked potato', 'src': '/static/foodstim60/baked potato.jpg', 'key': 'u', 'origWidth': 409, 'origHeight': 410, 'width': 409, 'height': 410, 'widthPercent': 0.45, 'rescaleHeight': False, 'trialN': 26, 'loaded': True, 'loadedTime': 3585.5999999940395, 'positionName': 'LEFT', 'positionCoords': [246.68, 179], 'bid': 8.63}, {'imgObject': {}, 'id': 'mango', 'src': '/static/foodstim60/mango.jpg', 'key': 'i', 'origWidth': 411, 'origHeight': 411, 'width': 411, 'height': 411, 'widthPercent': 0.45, 'rescaleHeight': False, 'trialN': 26, 'loaded': True, 'loadedTime': 3028.8999999910593, 'positionName': 'RIGHT', 'positionCoords': [710.32, 178.5], 'bid': 3.27}]",50871.5,1669830451601,baked potato,mango,8.63,3.27,-5.360000000000001,baked potato,1609.5,1611,1610.5999999940395,True,u,53003.89999999106,2132.3999999910593,1669830453733,2132,HRV,HRV_0132,2022-11-30 17:52:59
27,"[{'imgObject': {}, 'id': 'Grapes', 'src': '/static/foodstim60/Grapes.jpg', 'key': 'u', 'origWidth': 411, 'origHeight': 411, 'width': 411, 'height': 411, 'widthPercent': 0.45, 'rescaleHeight': False, 'trialN': 27, 'loaded': True, 'loadedTime': 3649.2999999970198, 'positionName': 'LEFT', 'positionCoords': [244.68, 178.5], 'bid': 9.94}, {'imgObject': {}, 'id': 'cherry tomato', 'src': '/static/foodstim60/cherry tomato.jpg', 'key': 'i', 'origWidth': 410, 'origHeight': 410, 'width': 410, 'height': 410, 'widthPercent': 0.45, 'rescaleHeight': False, 'trialN': 27, 'loaded': True, 'loadedTime': 3592.8999999910593, 'positionName': 'RIGHT', 'positionCoords': [710.32, 179], 'bid': 9.87}]",53004.5,1669830453734,Grapes,cherry tomato,9.94,9.87,-0.07000000000000028,cherry tomato,1376.8999999910593,1378,1378.2000000029802,True,i,54887.79999999702,1883.2999999970198,1669830455617,1883,HRV,HRV_0132,2022-11-30 17:52:59
28,"[{'imgObject': {}, 'id': 'raspberries', 'src': '/static/foodstim60/raspberries.jpg', 'key': 'u', 'origWidth': 411, 'origHeight': 411, 'width': 411, 'height': 411, 'widthPercent': 0.45, 'rescaleHeight': False, 'trialN': 28, 'loaded': True, 'loadedTime': 3565.5, 'positionName': 'LEFT', 'positionCoords': [244.68, 178.5], 'bid': 8.6}, {'imgObject': {}, 'id': 'edamame', 'src': '/static/foodstim60/edamame.jpg', 'key': 'i', 'origWidth': 409, 'origHeight': 410, 'width': 409, 'height': 410, 'widthPercent': 0.45, 'rescaleHeight': False, 'trialN': 28, 'loaded': True, 'loadedTime': 3664.7000000029802, 'positionName': 'RIGHT', 'positionCoords': [710.32, 179], 'bid': 2.71}]",54888.5,1669830455618,raspberries,edamame,8.6,2.71,-5.89,raspberries,1498.5,1500,1499.7999999970198,True,u,56900.59999999404,2012.0999999940395,1669830457630,2012,HRV,HRV_0132,2022-11-30 17:52:59
29,"[{'imgObject': {}, 'id': 'steak', 'src': '/static/foodstim60/steak.jpg', 'key': 'u', 'origWidth': 410, 'origHeight': 410, 'width': 410, 'height': 410, 'widthPercent': 0.45, 'rescaleHeight': False, 'trialN': 29, 'loaded': True, 'loadedTime': 3144, 'positionName': 'LEFT', 'positionCoords': [245.68, 179], 'bid': 6.21}, {'imgObject': {}, 'id': 'blueberries', 'src': '/static/foodstim60/blueberries.jpg', 'key': 'i', 'origWidth': 411, 'origHeight': 411, 'width': 411, 'height': 411, 'widthPercent': 0.45, 'rescaleHeight': False, 'trialN': 29, 'loaded': True, 'loadedTime': 3667.2999999970198, 'positionName': 'RIGHT', 'positionCoords': [710.32, 178.5], 'bid': 9.69}]",56901.20000000298,1669830457631,steak,blueberries,6.21,9.69,3.4799999999999995,blueberries,1397.8999999910593,1399,1399.199999988079,True,i,58817.20000000298,1916.0,1669830459547,1916,HRV,HRV_0132,2022-11-30 17:52:59
30,"[{'imgObject': {}, 'id': 'baked potato', 'src': '/static/foodstim60/baked potato.jpg', 'key': 'u', 'origWidth': 409, 'origHeight': 410, 'width': 409, 'height': 410, 'widthPercent': 0.45, 'rescaleHeight': False, 'trialN': 30, 'loaded': True, 'loadedTime': 3567, 'positionName': 'LEFT', 'positionCoords': [246.68, 179], 'bid': 8.63}, {'imgObject': {}, 'id': 'cherry tomato', 'src': '/static/foodstim60/cherry tomato.jpg', 'key': 'i', 'origWidth': 410, 'origHeight': 410, 'width': 410, 'height': 410, 'widthPercent': 0.45, 'rescaleHeight': False, 'trialN': 30, 'loaded': True, 'loadedTime': 3587.3999999910593, 'positionName': 'RIGHT', 'positionCoords': [710.32, 179], 'bid': 9.87}]",58817.70000000298,1669830459547,baked potato,cherry tomato,8.63,9.87,1.2399999999999984,cherry tomato,1602.0,1603,1603.199999988079,True,i,60934.09999999404,2116.3999999910593,1669830461664,2117,HRV,HRV_0132,2022-11-30 17:52:59
31,"[{'imgObject': {}, 'id': 'lox', 'src': '/static/foodstim60/lox.jpg', 'key': 'u', 'origWidth': 410, 'origHeight': 411, 'width': 410, 'height': 411, 'widthPercent': 0.45, 'rescaleHeight': False, 'trialN': 31, 'loaded': True, 'loadedTime': 3646.5, 'positionName': 'LEFT', 'positionCoords': [245.68, 178.5], 'bid': 0.41}, {'imgObject': {}, 'id': 'veggieswithdip', 'src': '/static/foodstim60/veggieswithdip.jpg', 'key': 'i', 'origWidth': 409, 'origHeight': 409, 'width': 409, 'height': 409, 'widthPercent': 0.45, 'rescaleHeight': False, 'trialN': 31, 'loaded': True, 'loadedTime': 3070.5, 'positionName': 'RIGHT', 'positionCoords': [710.32, 179.5], 'bid': 0.75}]",60934.70000000298,1669830461664,lox,veggieswithdip,0.41,0.75,0.34,veggieswithdip,1647.5,1649,1648.699999988079,True,i,63100.09999999404,2165.3999999910593,1669830463830,2166,HRV,HRV_0132,2022-11-30 17:52:59
32,"[{'imgObject': {}, 'id': 'froot loops w milk', 'src': '/static/foodstim60/froot loops w milk.jpg', 'key': 'u', 'origWidth': 410, 'origHeight': 410, 'width': 410, 'height': 410, 'widthPercent': 0.45, 'rescaleHeight': False, 'trialN': 32, 'loaded': True, 'loadedTime': 3477.5, 'positionName': 'LEFT', 'positionCoords': [245.68, 179], 'bid': 5.98}, {'imgObject': {}, 'id': 'burger', 'src': '/static/foodstim60/burger.jpg', 'key': 'i', 'origWidth': 409, 'origHeight': 409, 'width': 409, 'height': 409, 'widthPercent': 0.45, 'rescaleHeight': False, 'trialN': 32, 'loaded': True, 'loadedTime': 3692.3999999910593, 'positionName': 'RIGHT', 'positionCoords': [710.32, 179.5], 'bid': 9.67}]",63100.59999999404,1669830463830,froot loops w milk,burger,5.98,9.67,3.6899999999999995,burger,1610.1000000089407,1612,1611.7000000029802,True,i,65219.29999999702,2118.7000000029802,1669830465949,2119,HRV,HRV_0132,2022-11-30 17:52:59
33,"[{'imgObject': {}, 'id': 'eggs', 'src': '/static/foodstim60/eggs.jpg', 'key': 'u', 'origWidth': 409, 'origHeight': 409, 'width': 409, 'height': 409, 'widthPercent': 0.45, 'rescaleHeight': False, 'trialN': 33, 'loaded': True, 'loadedTime': 3124.7000000029802, 'positionName': 'LEFT', 'positionCoords': [246.68, 179.5], 'bid': 4.8}, {'imgObject': {}, 'id': 'Tribe humus pita', 'src': '/static/foodstim60/Tribe humus pita.jpg', 'key': 'i', 'origWidth': 411, 'origHeight': 411, 'width': 411, 'height': 411, 'widthPercent': 0.45, 'rescaleHeight': False, 'trialN': 33, 'loaded': True, 'loadedTime': 3535.7999999970198, 'positionName': 'RIGHT', 'positionCoords': [710.32, 178.5], 'bid': 1.99}]",65220.0,1669830465950,eggs,Tribe humus pita,4.8,1.99,-2.8099999999999996,eggs,1561.2000000029802,1562,1562.5,True,u,67299.70000000298,2079.7000000029802,1669830468029,2079,HRV,HRV_0132,2022-11-30 17:52:59
34,"[{'imgObject': {}, 'id': 'salad w chicken', 'src': '/static/foodstim60/salad w chicken.jpg', 'key': 'u', 'origWidth': 411, 'origHeight': 411, 'width': 411, 'height': 411, 'widthPercent': 0.45, 'rescaleHeight': False, 'trialN': 34, 'loaded': True, 'loadedTime': 3697.5999999940395, 'positionName': 'LEFT', 'positionCoords': [244.68, 178.5], 'bid': 8.64}, {'imgObject': {}, 'id': 'turkey sandwich', 'src': '/static/foodstim60/turkey sandwich.jpg', 'key': 'i', 'origWidth': 409, 'origHeight': 409, 'width': 409, 'height': 409, 'widthPercent': 0.45, 'rescaleHeight': False, 'trialN': 34, 'loaded': True, 'loadedTime': 3697.8999999910593, 'positionName': 'RIGHT', 'positionCoords': [710.32, 179.5], 'bid': 9.2}]",67300.29999999702,1669830468030,salad w chicken,turkey sandwich,8.64,9.2,0.5599999999999987,salad w chicken,1521.7999999970198,1523,1523.2000000029802,True,u,69336.09999999404,2035.7999999970198,1669830470066,2036,HRV,HRV_0132,2022-11-30 17:52:59
35,"[{'imgObject': {}, 'id': 'raisin bran w milk', 'src': '/static/foodstim60/raisin bran w milk.jpg', 'key': 'u', 'origWidth': 411, 'origHeight': 411, 'width': 411, 'height': 411, 'widthPercent': 0.45, 'rescaleHeight': False, 'trialN': 35, 'loaded': True, 'loadedTime': 3551.7000000029802, 'positionName': 'LEFT', 'positionCoords': [244.68, 178.5], 'bid': 6.8100000000000005}, {'imgObject': {}, 'id': 'Grapes', 'src': '/static/foodstim60/Grapes.jpg', 'key': 'i', 'origWidth': 411, 'origHeight': 411, 'width': 411, 'height': 411, 'widthPercent': 0.45, 'rescaleHeight': False, 'trialN': 35, 'loaded': True, 'loadedTime': 3651, 'positionName': 'RIGHT', 'positionCoords': [710.32, 178.5], 'bid': 9.94}]",69336.59999999404,1669830470066,raisin bran w milk,Grapes,6.8100000000000005,9.94,3.129999999999999,Grapes,1361.7000000029802,1363,1363.0,True,i,71216.20000000298,1879.6000000089407,1669830471946,1880,HRV,HRV_0132,2022-11-30 17:52:59
36,"[{'imgObject': {}, 'id': 'cocktailshrimp', 'src': '/static/foodstim60/cocktailshrimp.jpg', 'key': 'u', 'origWidth': 410, 'origHeight': 410, 'width': 410, 'height': 410, 'widthPercent': 0.45, 'rescaleHeight': False, 'trialN': 36, 'loaded': True, 'loadedTime': 3365.0999999940395, 'positionName': 'LEFT', 'positionCoords': [245.68, 179], 'bid': 6.42}, {'imgObject': {}, 'id': 'mashed potato', 'src': '/static/foodstim60/mashed potato.jpg', 'key': 'i', 'origWidth': 409, 'origHeight': 409, 'width': 409, 'height': 409, 'widthPercent': 0.45, 'rescaleHeight': False, 'trialN': 36, 'loaded': True, 'loadedTime': 3752.2000000029802, 'positionName': 'RIGHT', 'positionCoords': [710.32, 179.5], 'bid': 2.61}]",71216.5,1669830471946,cocktailshrimp,mashed potato,6.42,2.61,-3.81,cocktailshrimp,1367.5,1369,1368.8999999910593,True,u,73100.70000000298,1884.2000000029802,1669830473830,1884,HRV,HRV_0132,2022-11-30 17:52:59
37,"[{'imgObject': {}, 'id': 'ice cream sundae 002', 'src': '/static/foodstim60/ice cream sundae 002.jpg', 'key': 'u', 'origWidth': 409, 'origHeight': 409, 'width': 409, 'height': 409, 'widthPercent': 0.45, 'rescaleHeight': False, 'trialN': 37, 'loaded': True, 'loadedTime': 3759.7000000029802, 'positionName': 'LEFT', 'positionCoords': [246.68, 179.5], 'bid': 8.63}, {'imgObject': {}, 'id': 'salad w chicken', 'src': '/static/foodstim60/salad w chicken.jpg', 'key': 'i', 'origWidth': 411, 'origHeight': 411, 'width': 411, 'height': 411, 'widthPercent': 0.45, 'rescaleHeight': False, 'trialN': 37, 'loaded': True, 'loadedTime': 3697.0999999940395, 'positionName': 'RIGHT', 'positionCoords': [710.32, 178.5], 'bid': 8.64}]",73101.29999999702,1669830473831,ice cream sundae 002,salad w chicken,8.63,8.64,0.009999999999999787,ice cream sundae 002,1356.7999999970198,1358,1358.0999999940395,True,u,74974.70000000298,1873.4000000059605,1669830475704,1873,HRV,HRV_0132,2022-11-30 17:52:59
38,"[{'imgObject': {}, 'id': 'burger', 'src': '/static/foodstim60/burger.jpg', 'key': 'u', 'origWidth': 409, 'origHeight': 409, 'width': 409, 'height': 409, 'widthPercent': 0.45, 'rescaleHeight': False, 'trialN': 38, 'loaded': True, 'loadedTime': 3694.2999999970198, 'positionName': 'LEFT', 'positionCoords': [246.68, 179.5], 'bid': 9.67}, {'imgObject': {}, 'id': 'blueberries', 'src': '/static/foodstim60/blueberries.jpg', 'key': 'i', 'origWidth': 411, 'origHeight': 411, 'width': 411, 'height': 411, 'widthPercent': 0.45, 'rescaleHeight': False, 'trialN': 38, 'loaded': True, 'loadedTime': 3665, 'positionName': 'RIGHT', 'positionCoords': [710.32, 178.5], 'bid': 9.69}]",74975.39999999106,1669830475705,burger,blueberries,9.67,9.69,0.019999999999999574,blueberries,1564.2000000029802,1565,1565.4000000059605,True,i,77048.0,2072.6000000089407,1669830477778,2073,HRV,HRV_0132,2022-11-30 17:52:59
39,"[{'imgObject': {}, 'id': 'roastedpotatoes', 'src': '/static/foodstim60/roastedpotatoes.jpg', 'key': 'u', 'origWidth': 409, 'origHeight': 410, 'width': 409, 'height': 410, 'widthPercent': 0.45, 'rescaleHeight': False, 'trialN': 39, 'loaded': True, 'loadedTime': 3766.2000000029802, 'positionName': 'LEFT', 'positionCoords': [246.68, 179], 'bid': 9.09}, {'imgObject': {}, 'id': 'ice cream sundae 002', 'src': '/static/foodstim60/ice cream sundae 002.jpg', 'key': 'i', 'origWidth': 409, 'origHeight': 409, 'width': 409, 'height': 409, 'widthPercent': 0.45, 'rescaleHeight': False, 'trialN': 39, 'loaded': True, 'loadedTime': 3755.2000000029802, 'positionName': 'RIGHT', 'positionCoords': [710.32, 179.5], 'bid': 8.63}]",77048.59999999404,1669830477778,roastedpotatoes,ice cream sundae 002,9.09,8.63,-0.4599999999999991,ice cream sundae 002,1467.9000000059605,1469,1469.1000000089407,True,i,79029.70000000298,1981.1000000089407,1669830479759,1981,HRV,HRV_0132,2022-11-30 17:52:59
40,"[{'imgObject': {}, 'id': 'avocado', 'src': '/static/foodstim60/avocado.jpg', 'key': 'u', 'origWidth': 409, 'origHeight': 409, 'width': 409, 'height': 409, 'widthPercent': 0.45, 'rescaleHeight': False, 'trialN': 40, 'loaded': True, 'loadedTime': 3768, 'positionName': 'LEFT', 'positionCoords': [246.68, 179.5], 'bid': 0.1}, {'imgObject': {}, 'id': 'bagel plain', 'src': '/static/foodstim60/bagel plain.jpg', 'key': 'i', 'origWidth': 410, 'origHeight': 410, 'width': 410, 'height': 410, 'widthPercent': 0.45, 'rescaleHeight': False, 'trialN': 40, 'loaded': True, 'loadedTime': 3116.8999999910593, 'positionName': 'RIGHT', 'positionCoords': [710.32, 179], 'bid': 5.26}]",79031.20000000298,1669830479761,avocado,bagel plain,0.1,5.26,5.16,bagel plain,1536.2999999970198,1537,1537.5999999940395,True,i,81070.20000000298,2039.0,1669830481800,2039,HRV,HRV_0132,2022-11-30 17:52:59
41,"[{'imgObject': {}, 'id': 'luckycharms', 'src': '/static/foodstim60/luckycharms.jpg', 'key': 'u', 'origWidth': 410, 'origHeight': 409, 'width': 410, 'height': 409, 'widthPercent': 0.45, 'rescaleHeight': False, 'trialN': 41, 'loaded': True, 'loadedTime': 3790, 'positionName': 'LEFT', 'positionCoords': [245.68, 179.5], 'bid': 8.27}, {'imgObject': {}, 'id': 'granola w milk', 'src': '/static/foodstim60/granola w milk.jpg', 'key': 'i', 'origWidth': 410, 'origHeight': 410, 'width': 410, 'height': 410, 'widthPercent': 0.45, 'rescaleHeight': False, 'trialN': 41, 'loaded': True, 'loadedTime': 2960.3999999910593, 'positionName': 'RIGHT', 'positionCoords': [710.32, 179], 'bid': 6.62}]",81070.70000000298,1669830481800,luckycharms,granola w milk,8.27,6.62,-1.6499999999999995,luckycharms,1436.7999999970198,1438,1438.0999999940395,True,u,83014.29999999702,1943.5999999940395,1669830483744,1944,HRV,HRV_0132,2022-11-30 17:52:59
42,"[{'imgObject': {}, 'id': 'olives', 'src': '/static/foodstim60/olives.jpg', 'key': 'u', 'origWidth': 410, 'origHeight': 410, 'width': 410, 'height': 410, 'widthPercent': 0.45, 'rescaleHeight': False, 'trialN': 42, 'loaded': True, 'loadedTime': 3791.7999999970198, 'positionName': 'LEFT', 'positionCoords': [245.68, 179], 'bid': 0.13}, {'imgObject': {}, 'id': 'mac & cheese', 'src': '/static/foodstim60/mac & cheese.jpg', 'key': 'i', 'origWidth': 410, 'origHeight': 410, 'width': 410, 'height': 410, 'widthPercent': 0.45, 'rescaleHeight': False, 'trialN': 42, 'loaded': True, 'loadedTime': 3463.2000000029802, 'positionName': 'RIGHT', 'positionCoords': [710.32, 179], 'bid': 3.96}]",83015.20000000298,1669830483745,olives,mac & cheese,0.13,3.96,3.83,mac & cheese,1175.8999999910593,1177,1177.199999988079,True,i,84703.39999999106,1688.199999988079,1669830485433,1688,HRV,HRV_0132,2022-11-30 17:52:59
43,"[{'imgObject': {}, 'id': 'bagel and cc', 'src': '/static/foodstim60/bagel and cc.jpg', 'key': 'u', 'origWidth': 410, 'origHeight': 410, 'width': 410, 'height': 410, 'widthPercent': 0.45, 'rescaleHeight': False, 'trialN': 43, 'loaded': True, 'loadedTime': 3505.2000000029802, 'positionName': 'LEFT', 'positionCoords': [245.68, 179], 'bid': 5.4}, {'imgObject': {}, 'id': 'hotdog w must', 'src': '/static/foodstim60/hotdog w must.jpg', 'key': 'i', 'origWidth': 409, 'origHeight': 409, 'width': 409, 'height': 409, 'widthPercent': 0.45, 'rescaleHeight': False, 'trialN': 43, 'loaded': True, 'loadedTime': 3084.2000000029802, 'positionName': 'RIGHT', 'positionCoords': [710.32, 179.5], 'bid': 5.58}]",84703.59999999404,1669830485433,bagel and cc,hotdog w must,5.4,5.58,0.17999999999999972,bagel and cc,1310.5,1312,1311.7000000029802,True,u,86528.70000000298,1825.1000000089407,1669830487258,1825,HRV,HRV_0132,2022-11-30 17:52:59
44,"[{'imgObject': {}, 'id': 'tacos', 'src': '/static/foodstim60/tacos.jpg', 'key': 'u', 'origWidth': 411, 'origHeight': 411, 'width': 411, 'height': 411, 'widthPercent': 0.45, 'rescaleHeight': False, 'trialN': 44, 'loaded': True, 'loadedTime': 3821.3999999910593, 'positionName': 'LEFT', 'positionCoords': [244.68, 178.5], 'bid': 8.6}, {'imgObject': {}, 'id': 'turkey sandwich', 'src': '/static/foodstim60/turkey sandwich.jpg', 'key': 'i', 'origWidth': 409, 'origHeight': 409, 'width': 409, 'height': 409, 'widthPercent': 0.45, 'rescaleHeight': False, 'trialN': 44, 'loaded': True, 'loadedTime': 3700.2000000029802, 'positionName': 'RIGHT', 'positionCoords': [710.32, 179.5], 'bid': 9.2}]",86529.20000000298,1669830487259,tacos,turkey sandwich,8.6,9.2,0.5999999999999996,tacos,1387.0999999940395,1388,1388.3999999910593,True,u,88427.29999999702,1898.0999999940395,1669830489157,1898,HRV,HRV_0132,2022-11-30 17:52:59
45,"[{'imgObject': {}, 'id': 'ice cream sundae 002', 'src': '/static/foodstim60/ice cream sundae 002.jpg', 'key': 'u', 'origWidth': 409, 'origHeight': 409, 'width': 409, 'height': 409, 'widthPercent': 0.45, 'rescaleHeight': False, 'trialN': 45, 'loaded': True, 'loadedTime': 3758.0999999940395, 'positionName': 'LEFT', 'positionCoords': [246.68, 179.5], 'bid': 8.63}, {'imgObject': {}, 'id': 'fruitsalad', 'src': '/static/foodstim60/fruitsalad.jpg', 'key': 'i', 'origWidth': 410, 'origHeight': 410, 'width': 410, 'height': 410, 'widthPercent': 0.45, 'rescaleHeight': False, 'trialN': 45, 'loaded': True, 'loadedTime': 3233.0999999940395, 'positionName': 'RIGHT', 'positionCoords': [710.32, 179], 'bid': 9.69}]",88427.79999999702,1669830489157,ice cream sundae 002,fruitsalad,8.63,9.69,1.0599999999999987,fruitsalad,1318.9000000059605,1320,1320.2000000029802,True,i,90260.70000000298,1832.9000000059605,1669830490990,1833,HRV,HRV_0132,2022-11-30 17:52:59
46,"[{'imgObject': {}, 'id': 'tacos', 'src': '/static/foodstim60/tacos.jpg', 'key': 'u', 'origWidth': 411, 'origHeight': 411, 'width': 411, 'height': 411, 'widthPercent': 0.45, 'rescaleHeight': False, 'trialN': 46, 'loaded': True, 'loadedTime': 3804.2999999970198, 'positionName': 'LEFT', 'positionCoords': [244.68, 178.5], 'bid': 8.6}, {'imgObject': {}, 'id': 'cherries', 'src': '/static/foodstim60/cherries.jpg', 'key': 'i', 'origWidth': 410, 'origHeight': 411, 'width': 410, 'height': 411, 'widthPercent': 0.45, 'rescaleHeight': False, 'trialN': 46, 'loaded': True, 'loadedTime': 3823.7000000029802, 'positionName': 'RIGHT', 'positionCoords': [710.32, 178.5], 'bid': 8.55}]",90261.29999999702,1669830490991,tacos,cherries,8.6,8.55,-0.049999999999998934,tacos,1382.2000000029802,1383,1383.5999999940395,True,u,92159.89999999106,1898.5999999940395,1669830492894,1903,HRV,HRV_0132,2022-11-30 17:52:59
47,"[{'imgObject': {}, 'id': 'lox', 'src': '/static/foodstim60/lox.jpg', 'key': 'u', 'origWidth': 410, 'origHeight': 411, 'width': 410, 'height': 411, 'widthPercent': 0.45, 'rescaleHeight': False, 'trialN': 47, 'loaded': True, 'loadedTime': 3624.3999999910593, 'positionName': 'LEFT', 'positionCoords': [245.68, 178.5], 'bid': 0.41}, {'imgObject': {}, 'id': 'rigatoni', 'src': '/static/foodstim60/rigatoni.jpg', 'key': 'i', 'origWidth': 411, 'origHeight': 411, 'width': 411, 'height': 411, 'widthPercent': 0.45, 'rescaleHeight': False, 'trialN': 47, 'loaded': True, 'loadedTime': 3530.3999999910593, 'positionName': 'RIGHT', 'positionCoords': [710.32, 178.5], 'bid': 4.45}]",92160.39999999106,1669830492895,lox,rigatoni,0.41,4.45,4.04,rigatoni,1409.6000000089407,1410,1410.7000000029802,True,i,94079.5,1919.1000000089407,1669830494814,1919,HRV,HRV_0132,2022-11-30 17:52:59
48,"[{'imgObject': {}, 'id': 'tacos', 'src': '/static/foodstim60/tacos.jpg', 'key': 'u', 'origWidth': 411, 'origHeight': 411, 'width': 411, 'height': 411, 'widthPercent': 0.45, 'rescaleHeight': False, 'trialN': 48, 'loaded': True, 'loadedTime': 3823.0999999940395, 'positionName': 'LEFT', 'positionCoords': [244.68, 178.5], 'bid': 8.6}, {'imgObject': {}, 'id': 'mashed potato', 'src': '/static/foodstim60/mashed potato.jpg', 'key': 'i', 'origWidth': 409, 'origHeight': 409, 'width': 409, 'height': 409, 'widthPercent': 0.45, 'rescaleHeight': False, 'trialN': 48, 'loaded': True, 'loadedTime': 3750.3999999910593, 'positionName': 'RIGHT', 'positionCoords': [710.32, 179.5], 'bid': 2.61}]",94080.09999999404,1669830494814,tacos,mashed potato,8.6,2.61,-5.99,tacos,1493.6000000089407,1495,1494.9000000059605,True,u,96092.59999999404,2012.5,1669830496827,2013,HRV,HRV_0132,2022-11-30 17:52:59
49,"[{'imgObject': {}, 'id': 'orange slices', 'src': '/static/foodstim60/orange slices.jpg', 'key': 'u', 'origWidth': 409, 'origHeight': 410, 'width': 409, 'height': 410, 'widthPercent': 0.45, 'rescaleHeight': False, 'trialN': 49, 'loaded': True, 'loadedTime': 3006.2000000029802, 'positionName': 'LEFT', 'positionCoords': [246.68, 179], 'bid': 9.77}, {'imgObject': {}, 'id': 'cantaloupe', 'src': '/static/foodstim60/cantaloupe.jpg', 'key': 'i', 'origWidth': 409, 'origHeight': 409, 'width': 409, 'height': 409, 'widthPercent': 0.45, 'rescaleHeight': False, 'trialN': 49, 'loaded': True, 'loadedTime': 3617.7000000029802, 'positionName': 'RIGHT', 'positionCoords': [710.32, 179.5], 'bid': 9.69}]",96093.20000000298,1669830496827,orange slices,cantaloupe,9.77,9.69,-0.08000000000000007,orange slices,1477.7999999970198,1479,1479.0999999940395,True,u,98078.59999999404,1985.3999999910593,1669830498813,1986,HRV,HRV_0132,2022-11-30 17:52:59
50,"[{'imgObject': {}, 'id': 'salmon', 'src': '/static/foodstim60/salmon.jpg', 'key': 'u', 'origWidth': 410, 'origHeight': 409, 'width': 410, 'height': 409, 'widthPercent': 0.45, 'rescaleHeight': False, 'trialN': 50, 'loaded': True, 'loadedTime': 3838.2999999970198, 'positionName': 'LEFT', 'positionCoords': [245.68, 179.5], 'bid': 0.08}, {'imgObject': {}, 'id': 'edamame', 'src': '/static/foodstim60/edamame.jpg', 'key': 'i', 'origWidth': 409, 'origHeight': 410, 'width': 409, 'height': 410, 'widthPercent': 0.45, 'rescaleHeight': False, 'trialN': 50, 'loaded': True, 'loadedTime': 3664, 'positionName': 'RIGHT', 'positionCoords': [710.32, 179], 'bid': 2.71}]",98078.79999999702,1669830498813,salmon,edamame,0.08,2.71,2.63,edamame,1579.9000000059605,1581,1581.2999999970198,True,i,100172.79999999702,2094.0,1669830500907,2094,HRV,HRV_0132,2022-11-30 17:52:59
51,"[{'imgObject': {}, 'id': 'froot loops w milk', 'src': '/static/foodstim60/froot loops w milk.jpg', 'key': 'u', 'origWidth': 410, 'origHeight': 410, 'width': 410, 'height': 410, 'widthPercent': 0.45, 'rescaleHeight': False, 'trialN': 51, 'loaded': True, 'loadedTime': 3480.2000000029802, 'positionName': 'LEFT', 'positionCoords': [245.68, 179], 'bid': 5.98}, {'imgObject': {}, 'id': 'rigatoni and sauce', 'src': '/static/foodstim60/rigatoni and sauce.jpg', 'key': 'i', 'origWidth': 410, 'origHeight': 411, 'width': 410, 'height': 411, 'widthPercent': 0.45, 'rescaleHeight': False, 'trialN': 51, 'loaded': True, 'loadedTime': 3843.5, 'positionName': 'RIGHT', 'positionCoords': [710.32, 178.5], 'bid': 5.5200000000000005}]",100173.0,1669830500907,froot loops w milk,rigatoni and sauce,5.98,5.5200000000000005,-0.45999999999999996,froot loops w milk,1415.5,1417,1416.7999999970198,True,u,102107.09999999404,1934.0999999940395,1669830502841,1934,HRV,HRV_0132,2022-11-30 17:52:59
52,"[{'imgObject': {}, 'id': 'rigatoni and sauce', 'src': '/static/foodstim60/rigatoni and sauce.jpg', 'key': 'u', 'origWidth': 410, 'origHeight': 411, 'width': 410, 'height': 411, 'widthPercent': 0.45, 'rescaleHeight': False, 'trialN': 52, 'loaded': True, 'loadedTime': 3841.8999999910593, 'positionName': 'LEFT', 'positionCoords': [245.68, 178.5], 'bid': 5.5200000000000005}, {'imgObject': {}, 'id': 'lox', 'src': '/static/foodstim60/lox.jpg', 'key': 'i', 'origWidth': 410, 'origHeight': 411, 'width': 410, 'height': 411, 'widthPercent': 0.45, 'rescaleHeight': False, 'trialN': 52, 'loaded': True, 'loadedTime': 3627.0999999940395, 'positionName': 'RIGHT', 'positionCoords': [710.32, 178.5], 'bid': 0.41}]",102107.70000000298,1669830502842,rigatoni and sauce,lox,5.5200000000000005,0.41,-5.11,rigatoni and sauce,1503.2999999970198,1506,1506.0,True,u,104117.29999999702,2009.5999999940395,1669830504851,2009,HRV,HRV_0132,2022-11-30 17:52:59
53,"[{'imgObject': {}, 'id': 'olives', 'src': '/static/foodstim60/olives.jpg', 'key': 'u', 'origWidth': 410, 'origHeight': 410, 'width': 410, 'height': 410, 'widthPercent': 0.45, 'rescaleHeight': False, 'trialN': 53, 'loaded': True, 'loadedTime': 3799, 'positionName': 'LEFT', 'positionCoords': [245.68, 179], 'bid': 0.13}, {'imgObject': {}, 'id': 'mashed potato', 'src': '/static/foodstim60/mashed potato.jpg', 'key': 'i', 'origWidth': 409, 'origHeight': 409, 'width': 409, 'height': 409, 'widthPercent': 0.45, 'rescaleHeight': False, 'trialN': 53, 'loaded': True, 'loadedTime': 3753.3999999910593, 'positionName': 'RIGHT', 'positionCoords': [710.32, 179.5], 'bid': 2.61}]",104118.09999999404,1669830504852,olives,mashed potato,0.13,2.61,2.48,mashed potato,1527.6000000089407,1529,1528.7999999970198,True,i,106153.29999999702,2035.2000000029802,1669830506887,2035,HRV,HRV_0132,2022-11-30 17:52:59
54,"[{'imgObject': {}, 'id': 'Grapes', 'src': '/static/foodstim60/Grapes.jpg', 'key': 'u', 'origWidth': 411, 'origHeight': 411, 'width': 411, 'height': 411, 'widthPercent': 0.45, 'rescaleHeight': False, 'trialN': 54, 'loaded': True, 'loadedTime': 3651.3999999910593, 'positionName': 'LEFT', 'positionCoords': [244.68, 178.5], 'bid': 9.94}, {'imgObject': {}, 'id': 'orange slices', 'src': '/static/foodstim60/orange slices.jpg', 'key': 'i', 'origWidth': 409, 'origHeight': 410, 'width': 409, 'height': 410, 'widthPercent': 0.45, 'rescaleHeight': False, 'trialN': 54, 'loaded': True, 'loadedTime': 2991.8999999910593, 'positionName': 'RIGHT', 'positionCoords': [710.32, 179], 'bid': 9.77}]",106154.0,1669830506888,Grapes,orange slices,9.94,9.77,-0.16999999999999993,Grapes,1333.7999999970198,1335,1335.0999999940395,True,u,108000.5,1846.5,1669830508735,1847,HRV,HRV_0132,2022-11-30 17:52:59
55,"[{'imgObject': {}, 'id': 'omelette', 'src': '/static/foodstim60/omelette.jpg', 'key': 'u', 'origWidth': 410, 'origHeight': 409, 'width': 410, 'height': 409, 'widthPercent': 0.45, 'rescaleHeight': False, 'trialN': 55, 'loaded': True, 'loadedTime': 3845.8999999910593, 'positionName': 'LEFT', 'positionCoords': [245.68, 179.5], 'bid': 9.27}, {'imgObject': {}, 'id': 'grilled chicken strips', 'src': '/static/foodstim60/grilled chicken strips.jpg', 'key': 'i', 'origWidth': 410, 'origHeight': 411, 'width': 410, 'height': 411, 'widthPercent': 0.45, 'rescaleHeight': False, 'trialN': 55, 'loaded': True, 'loadedTime': 3867.7999999970198, 'positionName': 'RIGHT', 'positionCoords': [710.32, 178.5], 'bid': 7.59}]",108001.09999999404,1669830508735,omelette,grilled chicken strips,9.27,7.59,-1.6799999999999997,omelette,1311.9000000059605,1313,1313.2000000029802,True,u,109836.0,1834.9000000059605,1669830510570,1835,HRV,HRV_0132,2022-11-30 17:52:59
56,"[{'imgObject': {}, 'id': 'cheerios', 'src': '/static/foodstim60/cheerios.jpg', 'key': 'u', 'origWidth': 409, 'origHeight': 410, 'width': 409, 'height': 410, 'widthPercent': 0.45, 'rescaleHeight': False, 'trialN': 56, 'loaded': True, 'loadedTime': 3648.7999999970198, 'positionName': 'LEFT', 'positionCoords': [246.68, 179], 'bid': 6.05}, {'imgObject': {}, 'id': 'cocktailshrimp', 'src': '/static/foodstim60/cocktailshrimp.jpg', 'key': 'i', 'origWidth': 410, 'origHeight': 410, 'width': 410, 'height': 410, 'widthPercent': 0.45, 'rescaleHeight': False, 'trialN': 56, 'loaded': True, 'loadedTime': 3342.0999999940395, 'positionName': 'RIGHT', 'positionCoords': [710.32, 179], 'bid': 6.42}]",109836.29999999702,1669830510570,cheerios,cocktailshrimp,6.05,6.42,0.3700000000000001,cocktailshrimp,1433.5999999940395,1435,1434.9000000059605,True,i,111789.09999999404,1952.7999999970198,1669830512523,1953,HRV,HRV_0132,2022-11-30 17:52:59
57,"[{'imgObject': {}, 'id': 'rigatoni', 'src': '/static/foodstim60/rigatoni.jpg', 'key': 'u', 'origWidth': 411, 'origHeight': 411, 'width': 411, 'height': 411, 'widthPercent': 0.45, 'rescaleHeight': False, 'trialN': 57, 'loaded': True, 'loadedTime': 3524.7999999970198, 'positionName': 'LEFT', 'positionCoords': [244.68, 178.5], 'bid': 4.45}, {'imgObject': {}, 'id': 'hotdog w must', 'src': '/static/foodstim60/hotdog w must.jpg', 'key': 'i', 'origWidth': 409, 'origHeight': 409, 'width': 409, 'height': 409, 'widthPercent': 0.45, 'rescaleHeight': False, 'trialN': 57, 'loaded': True, 'loadedTime': 3087.5, 'positionName': 'RIGHT', 'positionCoords': [710.32, 179.5], 'bid': 5.58}]",111789.5,1669830512524,rigatoni,hotdog w must,4.45,5.58,1.13,hotdog w must,1286.3999999910593,1287,1287.5,True,i,113588.59999999404,1799.0999999940395,1669830514323,1799,HRV,HRV_0132,2022-11-30 17:52:59
58,"[{'imgObject': {}, 'id': 'corn cob', 'src': '/static/foodstim60/corn cob.jpg', 'key': 'u', 'origWidth': 411, 'origHeight': 411, 'width': 411, 'height': 411, 'widthPercent': 0.45, 'rescaleHeight': False, 'trialN': 58, 'loaded': True, 'loadedTime': 3853.2999999970198, 'positionName': 'LEFT', 'positionCoords': [244.68, 178.5], 'bid': 9.55}, {'imgObject': {}, 'id': 'blackbeanswithrice', 'src': '/static/foodstim60/blackbeanswithrice.jpg', 'key': 'i', 'origWidth': 410, 'origHeight': 410, 'width': 410, 'height': 410, 'widthPercent': 0.45, 'rescaleHeight': False, 'trialN': 58, 'loaded': True, 'loadedTime': 3868.2999999970198, 'positionName': 'RIGHT', 'positionCoords': [710.32, 179], 'bid': 7.81}]",113588.79999999702,1669830514323,corn cob,blackbeanswithrice,9.55,7.81,-1.740000000000001,blackbeanswithrice,1453.4000000059605,1455,1454.7000000029802,True,i,115555.29999999702,1966.5,1669830516290,1967,HRV,HRV_0132,2022-11-30 17:52:59
59,"[{'imgObject': {}, 'id': 'seaweed', 'src': '/static/foodstim60/seaweed.jpg', 'key': 'u', 'origWidth': 410, 'origHeight': 410, 'width': 410, 'height': 410, 'widthPercent': 0.45, 'rescaleHeight': False, 'trialN': 59, 'loaded': True, 'loadedTime': 3255.2999999970198, 'positionName': 'LEFT', 'positionCoords': [245.68, 179], 'bid': 0.05}, {'imgObject': {}, 'id': 'sushi w_condiments', 'src': '/static/foodstim60/sushi w_condiments.jpg', 'key': 'i', 'origWidth': 410, 'origHeight': 410, 'width': 410, 'height': 410, 'widthPercent': 0.45, 'rescaleHeight': False, 'trialN': 59, 'loaded': True, 'loadedTime': 3480.5, 'positionName': 'RIGHT', 'positionCoords': [710.32, 179], 'bid': 0.05}]",115555.89999999106,1669830516290,seaweed,sushi w_condiments,0.05,0.05,0.0,seaweed,1265.7000000029802,1267,1267.0,True,u,117338.09999999404,1782.2000000029802,1669830518072,1782,HRV,HRV_0132,2022-11-30 17:52:59
60,"[{'imgObject': {}, 'id': 'blueberries', 'src': '/static/foodstim60/blueberries.jpg', 'key': 'u', 'origWidth': 411, 'origHeight': 411, 'width': 411, 'height': 411, 'widthPercent': 0.45, 'rescaleHeight': False, 'trialN': 60, 'loaded': True, 'loadedTime': 3667.0999999940395, 'positionName': 'LEFT', 'positionCoords': [244.68, 178.5], 'bid': 9.69}, {'imgObject': {}, 'id': 'fruitsalad', 'src': '/static/foodstim60/fruitsalad.jpg', 'key': 'i', 'origWidth': 410, 'origHeight': 410, 'width': 410, 'height': 410, 'widthPercent': 0.45, 'rescaleHeight': False, 'trialN': 60, 'loaded': True, 'loadedTime': 3233.5, 'positionName': 'RIGHT', 'positionCoords': [710.32, 179], 'bid': 9.69}]",117338.5,1669830518073,blueberries,fruitsalad,9.69,9.69,0.0,fruitsalad,1308.7999999970198,1310,1310.0999999940395,True,i,119155.5,1817.0,1669830519890,1817,HRV,HRV_0132,2022-11-30 17:52:59
61,"[{'imgObject': {}, 'id': 'roastedpotatoes', 'src': '/static/foodstim60/roastedpotatoes.jpg', 'key': 'u', 'origWidth': 409, 'origHeight': 410, 'width': 409, 'height': 410, 'widthPercent': 0.45, 'rescaleHeight': False, 'trialN': 61, 'loaded': True, 'loadedTime': 3764.3999999910593, 'positionName': 'LEFT', 'positionCoords': [246.68, 179], 'bid': 9.09}, {'imgObject': {}, 'id': 'cherries', 'src': '/static/foodstim60/cherries.jpg', 'key': 'i', 'origWidth': 410, 'origHeight': 411, 'width': 410, 'height': 411, 'widthPercent': 0.45, 'rescaleHeight': False, 'trialN': 61, 'loaded': True, 'loadedTime': 3829.5999999940395, 'positionName': 'RIGHT', 'positionCoords': [710.32, 178.5], 'bid': 8.55}]",119155.70000000298,1669830519890,roastedpotatoes,cherries,9.09,8.55,-0.5399999999999991,roastedpotatoes,1275.5,1277,1276.8999999910593,True,u,120938.59999999404,1782.8999999910593,1669830521673,1783,HRV,HRV_0132,2022-11-30 17:52:59
62,"[{'imgObject': {}, 'id': 'apple slices', 'src': '/static/foodstim60/apple slices.jpg', 'key': 'u', 'origWidth': 409, 'origHeight': 410, 'width': 409, 'height': 410, 'widthPercent': 0.45, 'rescaleHeight': False, 'trialN': 62, 'loaded': True, 'loadedTime': 3370.0999999940395, 'positionName': 'LEFT', 'positionCoords': [246.68, 179], 'bid': 6.69}, {'imgObject': {}, 'id': 'kiwi', 'src': '/static/foodstim60/kiwi.jpg', 'key': 'i', 'origWidth': 410, 'origHeight': 410, 'width': 410, 'height': 410, 'widthPercent': 0.45, 'rescaleHeight': False, 'trialN': 62, 'loaded': True, 'loadedTime': 3871.0999999940395, 'positionName': 'RIGHT', 'positionCoords': [710.32, 179], 'bid': 7.81}]",120939.20000000298,1669830521673,apple slices,kiwi,6.69,7.81,1.1199999999999992,apple slices,1326.0,1328,1327.3999999910593,True,u,122787.70000000298,1848.5,1669830523522,1849,HRV,HRV_0132,2022-11-30 17:52:59
63,"[{'imgObject': {}, 'id': 'yogurt no spoon', 'src': '/static/foodstim60/yogurt no spoon.jpg', 'key': 'u', 'origWidth': 411, 'origHeight': 410, 'width': 411, 'height': 410, 'widthPercent': 0.45, 'rescaleHeight': False, 'trialN': 63, 'loaded': True, 'loadedTime': 3877.2999999970198, 'positionName': 'LEFT', 'positionCoords': [244.68, 179], 'bid': 8.06}, {'imgObject': {}, 'id': 'raspberries', 'src': '/static/foodstim60/raspberries.jpg', 'key': 'i', 'origWidth': 411, 'origHeight': 411, 'width': 411, 'height': 411, 'widthPercent': 0.45, 'rescaleHeight': False, 'trialN': 63, 'loaded': True, 'loadedTime': 3564.7999999970198, 'positionName': 'RIGHT', 'positionCoords': [710.32, 178.5], 'bid': 8.6}]",122788.20000000298,1669830523522,yogurt no spoon,raspberries,8.06,8.6,0.5399999999999991,yogurt no spoon,1471.8999999910593,1474,1473.0999999940395,True,u,124769.09999999404,1980.8999999910593,1669830525503,1981,HRV,HRV_0132,2022-11-30 17:52:59
64,"[{'imgObject': {}, 'id': 'bagel and cc', 'src': '/static/foodstim60/bagel and cc.jpg', 'key': 'u', 'origWidth': 410, 'origHeight': 410, 'width': 410, 'height': 410, 'widthPercent': 0.45, 'rescaleHeight': False, 'trialN': 64, 'loaded': True, 'loadedTime': 3503.5, 'positionName': 'LEFT', 'positionCoords': [245.68, 179], 'bid': 5.4}, {'imgObject': {}, 'id': 'olives', 'src': '/static/foodstim60/olives.jpg', 'key': 'i', 'origWidth': 410, 'origHeight': 410, 'width': 410, 'height': 410, 'widthPercent': 0.45, 'rescaleHeight': False, 'trialN': 64, 'loaded': True, 'loadedTime': 3797.5999999940395, 'positionName': 'RIGHT', 'positionCoords': [710.32, 179], 'bid': 0.13}]",124769.39999999106,1669830525504,bagel and cc,olives,5.4,0.13,-5.2700000000000005,bagel and cc,1533.9000000059605,1535,1535.2000000029802,True,u,126819.29999999702,2049.9000000059605,1669830527554,2050,HRV,HRV_0132,2022-11-30 17:52:59
65,"[{'imgObject': {}, 'id': 'blackbeanswithrice', 'src': '/static/foodstim60/blackbeanswithrice.jpg', 'key': 'u', 'origWidth': 410, 'origHeight': 410, 'width': 410, 'height': 410, 'widthPercent': 0.45, 'rescaleHeight': False, 'trialN': 65, 'loaded': True, 'loadedTime': 3870.7000000029802, 'positionName': 'LEFT', 'positionCoords': [245.68, 179], 'bid': 7.81}, {'imgObject': {}, 'id': 'steak', 'src': '/static/foodstim60/steak.jpg', 'key': 'i', 'origWidth': 410, 'origHeight': 410, 'width': 410, 'height': 410, 'widthPercent': 0.45, 'rescaleHeight': False, 'trialN': 65, 'loaded': True, 'loadedTime': 3145.2000000029802, 'positionName': 'RIGHT', 'positionCoords': [710.32, 179], 'bid': 6.21}]",126820.0,1669830527554,blackbeanswithrice,steak,7.81,6.21,-1.5999999999999996,steak,1322.2999999970198,1324,1323.5,True,i,128651.09999999404,1831.0999999940395,1669830529385,1831,HRV,HRV_0132,2022-11-30 17:52:59
66,"[{'imgObject': {}, 'id': 'kiwi', 'src': '/static/foodstim60/kiwi.jpg', 'key': 'u', 'origWidth': 410, 'origHeight': 410, 'width': 410, 'height': 410, 'widthPercent': 0.45, 'rescaleHeight': False, 'trialN': 66, 'loaded': True, 'loadedTime': 3873.5999999940395, 'positionName': 'LEFT', 'positionCoords': [245.68, 179], 'bid': 7.81}, {'imgObject': {}, 'id': 'avocado', 'src': '/static/foodstim60/avocado.jpg', 'key': 'i', 'origWidth': 409, 'origHeight': 409, 'width': 409, 'height': 409, 'widthPercent': 0.45, 'rescaleHeight': False, 'trialN': 66, 'loaded': True, 'loadedTime': 3786.0999999940395, 'positionName': 'RIGHT', 'positionCoords': [710.32, 179.5], 'bid': 0.1}]",128651.59999999404,1669830529386,kiwi,avocado,7.81,0.1,-7.71,kiwi,1269.7000000029802,1271,1271.0,True,u,130430.29999999702,1778.7000000029802,1669830531165,1779,HRV,HRV_0132,2022-11-30 17:52:59
67,"[{'imgObject': {}, 'id': 'luckycharms', 'src': '/static/foodstim60/luckycharms.jpg', 'key': 'u', 'origWidth': 410, 'origHeight': 409, 'width': 410, 'height': 409, 'widthPercent': 0.45, 'rescaleHeight': False, 'trialN': 67, 'loaded': True, 'loadedTime': 3790.7999999970198, 'positionName': 'LEFT', 'positionCoords': [245.68, 179.5], 'bid': 8.27}, {'imgObject': {}, 'id': 'veggieswithdip', 'src': '/static/foodstim60/veggieswithdip.jpg', 'key': 'i', 'origWidth': 409, 'origHeight': 409, 'width': 409, 'height': 409, 'widthPercent': 0.45, 'rescaleHeight': False, 'trialN': 67, 'loaded': True, 'loadedTime': 3063, 'positionName': 'RIGHT', 'positionCoords': [710.32, 179.5], 'bid': 0.75}]",130430.70000000298,1669830531165,luckycharms,veggieswithdip,8.27,0.75,-7.52,luckycharms,1229.8999999910593,1231,1231.199999988079,True,u,132169.0,1738.2999999970198,1669830532903,1738,HRV,HRV_0132,2022-11-30 17:52:59
68,"[{'imgObject': {}, 'id': 'cherries', 'src': '/static/foodstim60/cherries.jpg', 'key': 'u', 'origWidth': 410, 'origHeight': 411, 'width': 410, 'height': 411, 'widthPercent': 0.45, 'rescaleHeight': False, 'trialN': 68, 'loaded': True, 'loadedTime': 3829.3999999910593, 'positionName': 'LEFT', 'positionCoords': [245.68, 178.5], 'bid': 8.55}, {'imgObject': {}, 'id': 'hashbrowns', 'src': '/static/foodstim60/hashbrowns.jpg', 'key': 'i', 'origWidth': 411, 'origHeight': 410, 'width': 411, 'height': 410, 'widthPercent': 0.45, 'rescaleHeight': False, 'trialN': 68, 'loaded': True, 'loadedTime': 3396.5999999940395, 'positionName': 'RIGHT', 'positionCoords': [710.32, 179], 'bid': 2.54}]",132169.59999999404,1669830532904,cherries,hashbrowns,8.55,2.54,-6.010000000000001,cherries,1241.9000000059605,1243,1243.6000000089407,True,u,133923.59999999404,1754.0,1669830534658,1754,HRV,HRV_0132,2022-11-30 17:52:59
69,"[{'imgObject': {}, 'id': 'steak', 'src': '/static/foodstim60/steak.jpg', 'key': 'u', 'origWidth': 410, 'origHeight': 410, 'width': 410, 'height': 410, 'widthPercent': 0.45, 'rescaleHeight': False, 'trialN': 69, 'loaded': True, 'loadedTime': 3146.3999999910593, 'positionName': 'LEFT', 'positionCoords': [245.68, 179], 'bid': 6.21}, {'imgObject': {}, 'id': 'hashbrowns', 'src': '/static/foodstim60/hashbrowns.jpg', 'key': 'i', 'origWidth': 411, 'origHeight': 410, 'width': 411, 'height': 410, 'widthPercent': 0.45, 'rescaleHeight': False, 'trialN': 69, 'loaded': True, 'loadedTime': 3397.3999999910593, 'positionName': 'RIGHT', 'positionCoords': [710.32, 179], 'bid': 2.54}]",133924.29999999702,1669830534659,steak,hashbrowns,6.21,2.54,-3.67,steak,1415.5999999940395,1416,1416.9000000059605,True,u,135849.70000000298,1925.4000000059605,1669830536584,1925,HRV,HRV_0132,2022-11-30 17:52:59
70,"[{'imgObject': {}, 'id': 'luckycharms', 'src': '/static/foodstim60/luckycharms.jpg', 'key': 'u', 'origWidth': 410, 'origHeight': 409, 'width': 410, 'height': 409, 'widthPercent': 0.45, 'rescaleHeight': False, 'trialN': 70, 'loaded': True, 'loadedTime': 3786.7000000029802, 'positionName': 'LEFT', 'positionCoords': [245.68, 179.5], 'bid': 8.27}, {'imgObject': {}, 'id': 'strawberries', 'src': '/static/foodstim60/strawberries.jpg', 'key': 'i', 'origWidth': 410, 'origHeight': 410, 'width': 410, 'height': 410, 'widthPercent': 0.45, 'rescaleHeight': False, 'trialN': 70, 'loaded': True, 'loadedTime': 3301.7999999970198, 'positionName': 'RIGHT', 'positionCoords': [710.32, 179], 'bid': 8.33}]",135850.29999999702,1669830536584,luckycharms,strawberries,8.27,8.33,0.0600000000000005,luckycharms,1488.2999999970198,1490,1489.5,True,u,137849.70000000298,1999.4000000059605,1669830538584,2000,HRV,HRV_0132,2022-11-30 17:52:59
71,"[{'imgObject': {}, 'id': 'salad w chicken', 'src': '/static/foodstim60/salad w chicken.jpg', 'key': 'u', 'origWidth': 411, 'origHeight': 411, 'width': 411, 'height': 411, 'widthPercent': 0.45, 'rescaleHeight': False, 'trialN': 71, 'loaded': True, 'loadedTime': 3695.0999999940395, 'positionName': 'LEFT', 'positionCoords': [244.68, 178.5], 'bid': 8.64}, {'imgObject': {}, 'id': 'blueberries', 'src': '/static/foodstim60/blueberries.jpg', 'key': 'i', 'origWidth': 411, 'origHeight': 411, 'width': 411, 'height': 411, 'widthPercent': 0.45, 'rescaleHeight': False, 'trialN': 71, 'loaded': True, 'loadedTime': 3666.3999999910593, 'positionName': 'RIGHT', 'positionCoords': [710.32, 178.5], 'bid': 9.69}]",137850.39999999106,1669830538585,salad w chicken,blueberries,8.64,9.69,1.049999999999999,salad w chicken,1454.2000000029802,1456,1456.2000000029802,True,u,139815.79999999702,1965.4000000059605,1669830540550,1965,HRV,HRV_0132,2022-11-30 17:52:59
72,"[{'imgObject': {}, 'id': 'popsicles', 'src': '/static/foodstim60/popsicles.jpg', 'key': 'u', 'origWidth': 410, 'origHeight': 410, 'width': 410, 'height': 410, 'widthPercent': 0.45, 'rescaleHeight': False, 'trialN': 72, 'loaded': True, 'loadedTime': 3834.5999999940395, 'positionName': 'LEFT', 'positionCoords': [245.68, 179], 'bid': 3.62}, {'imgObject': {}, 'id': 'mac & cheese', 'src': '/static/foodstim60/mac & cheese.jpg', 'key': 'i', 'origWidth': 410, 'origHeight': 410, 'width': 410, 'height': 410, 'widthPercent': 0.45, 'rescaleHeight': False, 'trialN': 72, 'loaded': True, 'loadedTime': 3460.7999999970198, 'positionName': 'RIGHT', 'positionCoords': [710.32, 179], 'bid': 3.96}]",139816.29999999702,1669830540550,popsicles,mac & cheese,3.62,3.96,0.33999999999999986,mac & cheese,1218.4000000059605,1220,1219.7000000029802,True,i,141548.79999999702,1732.5,1669830542283,1733,HRV,HRV_0132,2022-11-30 17:52:59
73,"[{'imgObject': {}, 'id': 'turkeysandwich', 'src': '/static/foodstim60/turkeysandwich.jpg', 'key': 'u', 'origWidth': 409, 'origHeight': 409, 'width': 409, 'height': 409, 'widthPercent': 0.45, 'rescaleHeight': False, 'trialN': 73, 'loaded': True, 'loadedTime': 3421, 'positionName': 'LEFT', 'positionCoords': [246.68, 179.5], 'bid': 8.33}, {'imgObject': {}, 'id': 'ice cream sundae 002', 'src': '/static/foodstim60/ice cream sundae 002.jpg', 'key': 'i', 'origWidth': 409, 'origHeight': 409, 'width': 409, 'height': 409, 'widthPercent': 0.45, 'rescaleHeight': False, 'trialN': 73, 'loaded': True, 'loadedTime': 3760.7000000029802, 'positionName': 'RIGHT', 'positionCoords': [710.32, 179.5], 'bid': 8.63}]",141549.5,1669830542284,turkeysandwich,ice cream sundae 002,8.33,8.63,0.3000000000000007,ice cream sundae 002,1425.2999999970198,1426,1426.5999999940395,True,i,143482.29999999702,1932.7999999970198,1669830544216,1932,HRV,HRV_0132,2022-11-30 17:52:59
74,"[{'imgObject': {}, 'id': 'bagel and cc', 'src': '/static/foodstim60/bagel and cc.jpg', 'key': 'u', 'origWidth': 410, 'origHeight': 410, 'width': 410, 'height': 410, 'widthPercent': 0.45, 'rescaleHeight': False, 'trialN': 74, 'loaded': True, 'loadedTime': 3507.0999999940395, 'positionName': 'LEFT', 'positionCoords': [245.68, 179], 'bid': 5.4}, {'imgObject': {}, 'id': 'rigatoni and sauce', 'src': '/static/foodstim60/rigatoni and sauce.jpg', 'key': 'i', 'origWidth': 410, 'origHeight': 411, 'width': 410, 'height': 411, 'widthPercent': 0.45, 'rescaleHeight': False, 'trialN': 74, 'loaded': True, 'loadedTime': 3842.3999999910593, 'positionName': 'RIGHT', 'positionCoords': [710.32, 178.5], 'bid': 5.5200000000000005}]",143482.89999999106,1669830544217,bagel and cc,rigatoni and sauce,5.4,5.5200000000000005,0.1200000000000001,bagel and cc,1435.7000000029802,1437,1437.0,True,u,145425.79999999702,1942.9000000059605,1669830546160,1943,HRV,HRV_0132,2022-11-30 17:52:59
75,"[{'imgObject': {}, 'id': 'roastedpotatoes', 'src': '/static/foodstim60/roastedpotatoes.jpg', 'key': 'u', 'origWidth': 409, 'origHeight': 410, 'width': 409, 'height': 410, 'widthPercent': 0.45, 'rescaleHeight': False, 'trialN': 75, 'loaded': True, 'loadedTime': 3765.5, 'positionName': 'LEFT', 'positionCoords': [246.68, 179], 'bid': 9.09}, {'imgObject': {}, 'id': 'rigatoni', 'src': '/static/foodstim60/rigatoni.jpg', 'key': 'i', 'origWidth': 411, 'origHeight': 411, 'width': 411, 'height': 411, 'widthPercent': 0.45, 'rescaleHeight': False, 'trialN': 75, 'loaded': True, 'loadedTime': 3527.3999999910593, 'positionName': 'RIGHT', 'positionCoords': [710.32, 178.5], 'bid': 4.45}]",145426.5,1669830546161,roastedpotatoes,rigatoni,9.09,4.45,-4.64,roastedpotatoes,1292.5999999940395,1294,1293.8999999910593,True,u,147231.09999999404,1804.5999999940395,1669830547965,1804,HRV,HRV_0132,2022-11-30 17:52:59
76,"[{'imgObject': {}, 'id': 'hashbrowns', 'src': '/static/foodstim60/hashbrowns.jpg', 'key': 'u', 'origWidth': 411, 'origHeight': 410, 'width': 411, 'height': 410, 'widthPercent': 0.45, 'rescaleHeight': False, 'trialN': 76, 'loaded': True, 'loadedTime': 3398.5, 'positionName': 'LEFT', 'positionCoords': [244.68, 179], 'bid': 2.54}, {'imgObject': {}, 'id': 'sushi w_condiments', 'src': '/static/foodstim60/sushi w_condiments.jpg', 'key': 'i', 'origWidth': 410, 'origHeight': 410, 'width': 410, 'height': 410, 'widthPercent': 0.45, 'rescaleHeight': False, 'trialN': 76, 'loaded': True, 'loadedTime': 3482.5999999940395, 'positionName': 'RIGHT', 'positionCoords': [710.32, 179], 'bid': 0.05}]",147231.70000000298,1669830547966,hashbrowns,sushi w_condiments,2.54,0.05,-2.49,hashbrowns,1535.0999999940395,1536,1536.3999999910593,True,u,149278.29999999702,2046.5999999940395,1669830550012,2046,HRV,HRV_0132,2022-11-30 17:52:59
77,"[{'imgObject': {}, 'id': 'tacos', 'src': '/static/foodstim60/tacos.jpg', 'key': 'u', 'origWidth': 411, 'origHeight': 411, 'width': 411, 'height': 411, 'widthPercent': 0.45, 'rescaleHeight': False, 'trialN': 77, 'loaded': True, 'loadedTime': 3799.5, 'positionName': 'LEFT', 'positionCoords': [244.68, 178.5], 'bid': 8.6}, {'imgObject': {}, 'id': 'burrito', 'src': '/static/foodstim60/burrito.jpg', 'key': 'i', 'origWidth': 410, 'origHeight': 410, 'width': 410, 'height': 410, 'widthPercent': 0.45, 'rescaleHeight': False, 'trialN': 77, 'loaded': True, 'loadedTime': 3228.0999999940395, 'positionName': 'RIGHT', 'positionCoords': [710.32, 179], 'bid': 9.65}]",149278.89999999106,1669830550013,tacos,burrito,8.6,9.65,1.0500000000000007,tacos,1504.9000000059605,1506,1506.2000000029802,True,u,151296.29999999702,2017.4000000059605,1669830552030,2017,HRV,HRV_0132,2022-11-30 17:52:59
78,"[{'imgObject': {}, 'id': 'turkeysandwich', 'src': '/static/foodstim60/turkeysandwich.jpg', 'key': 'u', 'origWidth': 409, 'origHeight': 409, 'width': 409, 'height': 409, 'widthPercent': 0.45, 'rescaleHeight': False, 'trialN': 78, 'loaded': True, 'loadedTime': 3421.5999999940395, 'positionName': 'LEFT', 'positionCoords': [246.68, 179.5], 'bid': 8.33}, {'imgObject': {}, 'id': 'Tribe humus pita', 'src': '/static/foodstim60/Tribe humus pita.jpg', 'key': 'i', 'origWidth': 411, 'origHeight': 411, 'width': 411, 'height': 411, 'widthPercent': 0.45, 'rescaleHeight': False, 'trialN': 78, 'loaded': True, 'loadedTime': 3538.0999999940395, 'positionName': 'RIGHT', 'positionCoords': [710.32, 178.5], 'bid': 1.99}]",151296.5,1669830552031,turkeysandwich,Tribe humus pita,8.33,1.99,-6.34,turkeysandwich,1512.2999999970198,1499,1513.7000000029802,True,u,153330.20000000298,2033.7000000029802,1669830554051,2020,HRV,HRV_0132,2022-11-30 17:52:59
79,"[{'imgObject': {}, 'id': 'Tribe humus pita', 'src': '/static/foodstim60/Tribe humus pita.jpg', 'key': 'u', 'origWidth': 411, 'origHeight': 411, 'width': 411, 'height': 411, 'widthPercent': 0.45, 'rescaleHeight': False, 'trialN': 79, 'loaded': True, 'loadedTime': 3539.2000000029802, 'positionName': 'LEFT', 'positionCoords': [244.68, 178.5], 'bid': 1.99}, {'imgObject': {}, 'id': 'salmon', 'src': '/static/foodstim60/salmon.jpg', 'key': 'i', 'origWidth': 410, 'origHeight': 409, 'width': 410, 'height': 409, 'widthPercent': 0.45, 'rescaleHeight': False, 'trialN': 79, 'loaded': True, 'loadedTime': 3838.8999999910593, 'positionName': 'RIGHT', 'positionCoords': [710.32, 179.5], 'bid': 0.08}]",153330.79999999702,1669830554051,Tribe humus pita,salmon,1.99,0.08,-1.91,Tribe humus pita,1438.7000000029802,1440,1439.2999999970198,True,u,155278.5,1947.7000000029802,1669830555999,1948,HRV,HRV_0132,2022-11-30 17:52:59
80,"[{'imgObject': {}, 'id': 'burger', 'src': '/static/foodstim60/burger.jpg', 'key': 'u', 'origWidth': 409, 'origHeight': 409, 'width': 409, 'height': 409, 'widthPercent': 0.45, 'rescaleHeight': False, 'trialN': 80, 'loaded': True, 'loadedTime': 3694.5, 'positionName': 'LEFT', 'positionCoords': [246.68, 179.5], 'bid': 9.67}, {'imgObject': {}, 'id': 'banana', 'src': '/static/foodstim60/banana.jpg', 'key': 'i', 'origWidth': 410, 'origHeight': 410, 'width': 410, 'height': 410, 'widthPercent': 0.45, 'rescaleHeight': False, 'trialN': 80, 'loaded': True, 'loadedTime': 3877.5999999940395, 'positionName': 'RIGHT', 'positionCoords': [710.32, 179], 'bid': 9.67}]",155279.09999999404,1669830555999,burger,banana,9.67,9.67,0.0,banana,1537.9000000059605,1539,1538.6000000089407,True,i,157338.0,2058.9000000059605,1669830558058,2059,HRV,HRV_0132,2022-11-30 17:52:59
81,"[{'imgObject': {}, 'id': 'strawberries', 'src': '/static/foodstim60/strawberries.jpg', 'key': 'u', 'origWidth': 410, 'origHeight': 410, 'width': 410, 'height': 410, 'widthPercent': 0.45, 'rescaleHeight': False, 'trialN': 81, 'loaded': True, 'loadedTime': 3302.5999999940395, 'positionName': 'LEFT', 'positionCoords': [245.68, 179], 'bid': 8.33}, {'imgObject': {}, 'id': 'salad w chicken', 'src': '/static/foodstim60/salad w chicken.jpg', 'key': 'i', 'origWidth': 411, 'origHeight': 411, 'width': 411, 'height': 411, 'widthPercent': 0.45, 'rescaleHeight': False, 'trialN': 81, 'loaded': True, 'loadedTime': 3696.8999999910593, 'positionName': 'RIGHT', 'positionCoords': [710.32, 178.5], 'bid': 8.64}]",157338.59999999404,1669830558059,strawberries,salad w chicken,8.33,8.64,0.3100000000000005,salad w chicken,1419.0,1420,1420.2000000029802,True,i,159262.5,1923.9000000059605,1669830559983,1924,HRV,HRV_0132,2022-11-30 17:52:59
82,"[{'imgObject': {}, 'id': 'grilled chicken strips', 'src': '/static/foodstim60/grilled chicken strips.jpg', 'key': 'u', 'origWidth': 410, 'origHeight': 411, 'width': 410, 'height': 411, 'widthPercent': 0.45, 'rescaleHeight': False, 'trialN': 82, 'loaded': True, 'loadedTime': 3855.7999999970198, 'positionName': 'LEFT', 'positionCoords': [245.68, 178.5], 'bid': 7.59}, {'imgObject': {}, 'id': 'blackbeanswithrice', 'src': '/static/foodstim60/blackbeanswithrice.jpg', 'key': 'i', 'origWidth': 410, 'origHeight': 410, 'width': 410, 'height': 410, 'widthPercent': 0.45, 'rescaleHeight': False, 'trialN': 82, 'loaded': True, 'loadedTime': 3870.8999999910593, 'positionName': 'RIGHT', 'positionCoords': [710.32, 179], 'bid': 7.81}]",159263.09999999404,1669830559983,grilled chicken strips,blackbeanswithrice,7.59,7.81,0.21999999999999975,blackbeanswithrice,1453.0,1455,1454.2000000029802,True,i,161229.09999999404,1966.0,1669830561949,1966,HRV,HRV_0132,2022-11-30 17:52:59
83,"[{'imgObject': {}, 'id': 'apple slices', 'src': '/static/foodstim60/apple slices.jpg', 'key': 'u', 'origWidth': 409, 'origHeight': 410, 'width': 409, 'height': 410, 'widthPercent': 0.45, 'rescaleHeight': False, 'trialN': 83, 'loaded': True, 'loadedTime': 3370.5, 'positionName': 'LEFT', 'positionCoords': [246.68, 179], 'bid': 6.69}, {'imgObject': {}, 'id': 'shreddedwheatwithmilk', 'src': '/static/foodstim60/shreddedwheatwithmilk.jpg', 'key': 'i', 'origWidth': 410, 'origHeight': 410, 'width': 410, 'height': 410, 'widthPercent': 0.45, 'rescaleHeight': False, 'trialN': 83, 'loaded': True, 'loadedTime': 3881.7999999970198, 'positionName': 'RIGHT', 'positionCoords': [710.32, 179], 'bid': 6.84}]",161229.29999999702,1669830561950,apple slices,shreddedwheatwithmilk,6.69,6.84,0.14999999999999947,shreddedwheatwithmilk,1657.0999999940395,1658,1658.2999999970198,True,i,163394.39999999106,2165.0999999940395,1669830564115,2165,HRV,HRV_0132,2022-11-30 17:52:59
84,"[{'imgObject': {}, 'id': 'corn cob', 'src': '/static/foodstim60/corn cob.jpg', 'key': 'u', 'origWidth': 411, 'origHeight': 411, 'width': 411, 'height': 411, 'widthPercent': 0.45, 'rescaleHeight': False, 'trialN': 84, 'loaded': True, 'loadedTime': 3854, 'positionName': 'LEFT', 'positionCoords': [244.68, 178.5], 'bid': 9.55}, {'imgObject': {}, 'id': 'omelette', 'src': '/static/foodstim60/omelette.jpg', 'key': 'i', 'origWidth': 410, 'origHeight': 409, 'width': 410, 'height': 409, 'widthPercent': 0.45, 'rescaleHeight': False, 'trialN': 84, 'loaded': True, 'loadedTime': 3848.2999999970198, 'positionName': 'RIGHT', 'positionCoords': [710.32, 179.5], 'bid': 9.27}]",163395.0,1669830564115,corn cob,omelette,9.55,9.27,-0.28000000000000114,corn cob,1545.7000000029802,1547,1546.8999999910593,True,u,165455.0,2060.0,1669830566175,2060,HRV,HRV_0132,2022-11-30 17:52:59
85,"[{'imgObject': {}, 'id': 'salmon', 'src': '/static/foodstim60/salmon.jpg', 'key': 'u', 'origWidth': 410, 'origHeight': 409, 'width': 410, 'height': 409, 'widthPercent': 0.45, 'rescaleHeight': False, 'trialN': 85, 'loaded': True, 'loadedTime': 3838.0999999940395, 'positionName': 'LEFT', 'positionCoords': [245.68, 179.5], 'bid': 0.08}, {'imgObject': {}, 'id': 'pear', 'src': '/static/foodstim60/pear.jpg', 'key': 'i', 'origWidth': 411, 'origHeight': 410, 'width': 411, 'height': 410, 'widthPercent': 0.45, 'rescaleHeight': False, 'trialN': 85, 'loaded': True, 'loadedTime': 3205.5999999940395, 'positionName': 'RIGHT', 'positionCoords': [710.32, 179], 'bid': 4.72}]",165455.20000000298,1669830566176,salmon,pear,0.08,4.72,4.64,pear,1249.7999999970198,1250,1251.0,True,i,167220.0,1764.7999999970198,1669830567940,1764,HRV,HRV_0132,2022-11-30 17:52:59
86,"[{'imgObject': {}, 'id': 'fried eggs', 'src': '/static/foodstim60/fried eggs.jpg', 'key': 'u', 'origWidth': 410, 'origHeight': 410, 'width': 410, 'height': 410, 'widthPercent': 0.45, 'rescaleHeight': False, 'trialN': 86, 'loaded': True, 'loadedTime': 3884.2999999970198, 'positionName': 'LEFT', 'positionCoords': [245.68, 179], 'bid': 9.55}, {'imgObject': {}, 'id': 'burrito', 'src': '/static/foodstim60/burrito.jpg', 'key': 'i', 'origWidth': 410, 'origHeight': 410, 'width': 410, 'height': 410, 'widthPercent': 0.45, 'rescaleHeight': False, 'trialN': 86, 'loaded': True, 'loadedTime': 3228.5999999940395, 'positionName': 'RIGHT', 'positionCoords': [710.32, 179], 'bid': 9.65}]",167220.59999999404,1669830567941,fried eggs,burrito,9.55,9.65,0.09999999999999964,burrito,1447.7000000029802,1449,1448.9000000059605,True,i,169176.39999999106,1955.7999999970198,1669830569897,1956,HRV,HRV_0132,2022-11-30 17:52:59
87,"[{'imgObject': {}, 'id': 'chicken nuggets2', 'src': '/static/foodstim60/chicken nuggets2.jpg', 'key': 'u', 'origWidth': 410, 'origHeight': 409, 'width': 410, 'height': 409, 'widthPercent': 0.45, 'rescaleHeight': False, 'trialN': 87, 'loaded': True, 'loadedTime': 3340.5, 'positionName': 'LEFT', 'positionCoords': [245.68, 179.5], 'bid': 7.19}, {'imgObject': {}, 'id': 'turkey sandwich', 'src': '/static/foodstim60/turkey sandwich.jpg', 'key': 'i', 'origWidth': 409, 'origHeight': 409, 'width': 409, 'height': 409, 'widthPercent': 0.45, 'rescaleHeight': False, 'trialN': 87, 'loaded': True, 'loadedTime': 3699.8999999910593, 'positionName': 'RIGHT', 'positionCoords': [710.32, 179.5], 'bid': 9.2}]",169177.0,1669830569897,chicken nuggets2,turkey sandwich,7.19,9.2,2.009999999999999,turkey sandwich,1580.2999999970198,1582,1581.5,True,i,171275.09999999404,2098.0999999940395,1669830571995,2098,HRV,HRV_0132,2022-11-30 17:52:59
88,"[{'imgObject': {}, 'id': 'baked potato', 'src': '/static/foodstim60/baked potato.jpg', 'key': 'u', 'origWidth': 409, 'origHeight': 410, 'width': 409, 'height': 410, 'widthPercent': 0.45, 'rescaleHeight': False, 'trialN': 88, 'loaded': True, 'loadedTime': 3585.7999999970198, 'positionName': 'LEFT', 'positionCoords': [246.68, 179], 'bid': 8.63}, {'imgObject': {}, 'id': 'burger', 'src': '/static/foodstim60/burger.jpg', 'key': 'i', 'origWidth': 409, 'origHeight': 409, 'width': 409, 'height': 409, 'widthPercent': 0.45, 'rescaleHeight': False, 'trialN': 88, 'loaded': True, 'loadedTime': 3694.7999999970198, 'positionName': 'RIGHT', 'positionCoords': [710.32, 179.5], 'bid': 9.67}]",171275.70000000298,1669830571996,baked potato,burger,8.63,9.67,1.0399999999999991,burger,1508.7999999970198,1510,1510.0999999940395,True,i,173300.59999999404,2024.8999999910593,1669830574021,2025,HRV,HRV_0132,2022-11-30 17:52:59
89,"[{'imgObject': {}, 'id': 'Tribe humus pita', 'src': '/static/foodstim60/Tribe humus pita.jpg', 'key': 'u', 'origWidth': 411, 'origHeight': 411, 'width': 411, 'height': 411, 'widthPercent': 0.45, 'rescaleHeight': False, 'trialN': 89, 'loaded': True, 'loadedTime': 3536.2999999970198, 'positionName': 'LEFT', 'positionCoords': [244.68, 178.5], 'bid': 1.99}, {'imgObject': {}, 'id': 'froot loops w milk', 'src': '/static/foodstim60/froot loops w milk.jpg', 'key': 'i', 'origWidth': 410, 'origHeight': 410, 'width': 410, 'height': 410, 'widthPercent': 0.45, 'rescaleHeight': False, 'trialN': 89, 'loaded': True, 'loadedTime': 3479, 'positionName': 'RIGHT', 'positionCoords': [710.32, 179], 'bid': 5.98}]",173301.0,1669830574021,Tribe humus pita,froot loops w milk,1.99,5.98,3.99,froot loops w milk,1619.0999999940395,1621,1620.3999999910593,True,i,175426.59999999404,2125.5999999940395,1669830576147,2126,HRV,HRV_0132,2022-11-30 17:52:59
90,"[{'imgObject': {}, 'id': 'sushi w_condiments', 'src': '/static/foodstim60/sushi w_condiments.jpg', 'key': 'u', 'origWidth': 410, 'origHeight': 410, 'width': 410, 'height': 410, 'widthPercent': 0.45, 'rescaleHeight': False, 'trialN': 90, 'loaded': True, 'loadedTime': 3500.5999999940395, 'positionName': 'LEFT', 'positionCoords': [245.68, 179], 'bid': 0.05}, {'imgObject': {}, 'id': 'salmon', 'src': '/static/foodstim60/salmon.jpg', 'key': 'i', 'origWidth': 410, 'origHeight': 409, 'width': 410, 'height': 409, 'widthPercent': 0.45, 'rescaleHeight': False, 'trialN': 90, 'loaded': True, 'loadedTime': 3838.3999999910593, 'positionName': 'RIGHT', 'positionCoords': [710.32, 179.5], 'bid': 0.08}]",226406.70000000298,1669830627141,sushi w_condiments,salmon,0.05,0.08,0.03,salmon,891.0,892,892.2999999970198,True,i,227806.59999999404,1399.8999999910593,1669830628541,1400,HRV,HRV_0132,2022-11-30 17:52:59
91,"[{'imgObject': {}, 'id': 'burrito', 'src': '/static/foodstim60/burrito.jpg', 'key': 'u', 'origWidth': 410, 'origHeight': 410, 'width': 410, 'height': 410, 'widthPercent': 0.45, 'rescaleHeight': False, 'trialN': 91, 'loaded': True, 'loadedTime': 3227.7000000029802, 'positionName': 'LEFT', 'positionCoords': [245.68, 179], 'bid': 9.65}, {'imgObject': {}, 'id': 'rigatoni and sauce', 'src': '/static/foodstim60/rigatoni and sauce.jpg', 'key': 'i', 'origWidth': 410, 'origHeight': 411, 'width': 410, 'height': 411, 'widthPercent': 0.45, 'rescaleHeight': False, 'trialN': 91, 'loaded': True, 'loadedTime': 3842.0999999940395, 'positionName': 'RIGHT', 'positionCoords': [710.32, 178.5], 'bid': 5.5200000000000005}]",227807.39999999106,1669830628542,burrito,rigatoni and sauce,9.65,5.5200000000000005,-4.13,burrito,953.2000000029802,954,954.0,True,u,229269.79999999702,1462.4000000059605,1669830630004,1462,HRV,HRV_0132,2022-11-30 17:52:59
92,"[{'imgObject': {}, 'id': 'mashed potato', 'src': '/static/foodstim60/mashed potato.jpg', 'key': 'u', 'origWidth': 409, 'origHeight': 409, 'width': 409, 'height': 409, 'widthPercent': 0.45, 'rescaleHeight': False, 'trialN': 92, 'loaded': True, 'loadedTime': 3754.8999999910593, 'positionName': 'LEFT', 'positionCoords': [246.68, 179.5], 'bid': 2.61}, {'imgObject': {}, 'id': 'eggsalad', 'src': '/static/foodstim60/eggsalad.jpg', 'key': 'i', 'origWidth': 410, 'origHeight': 409, 'width': 410, 'height': 409, 'widthPercent': 0.45, 'rescaleHeight': False, 'trialN': 92, 'loaded': True, 'loadedTime': 3433.2000000029802, 'positionName': 'RIGHT', 'positionCoords': [710.32, 179.5], 'bid': 2.08}]",229270.0,1669830630004,mashed potato,eggsalad,2.61,2.08,-0.5299999999999998,mashed potato,1279.7000000029802,1281,1280.7000000029802,True,u,231061.5,1791.5,1669830631796,1792,HRV,HRV_0132,2022-11-30 17:52:59
93,"[{'imgObject': {}, 'id': 'eggs', 'src': '/static/foodstim60/eggs.jpg', 'key': 'u', 'origWidth': 409, 'origHeight': 409, 'width': 409, 'height': 409, 'widthPercent': 0.45, 'rescaleHeight': False, 'trialN': 93, 'loaded': True, 'loadedTime': 3140.7999999970198, 'positionName': 'LEFT', 'positionCoords': [246.68, 179.5], 'bid': 4.8}, {'imgObject': {}, 'id': 'sweetpotato', 'src': '/static/foodstim60/sweetpotato.jpg', 'key': 'i', 'origWidth': 410, 'origHeight': 410, 'width': 410, 'height': 410, 'widthPercent': 0.45, 'rescaleHeight': False, 'trialN': 93, 'loaded': True, 'loadedTime': 3037.2999999970198, 'positionName': 'RIGHT', 'positionCoords': [710.32, 179], 'bid': 0.1}]",231062.0,1669830631796,eggs,sweetpotato,4.8,0.1,-4.7,eggs,1148.3999999910593,1150,1149.2999999970198,True,u,232731.39999999106,1669.3999999910593,1669830633466,1670,HRV,HRV_0132,2022-11-30 17:52:59
94,"[{'imgObject': {}, 'id': 'roastedpotatoes', 'src': '/static/foodstim60/roastedpotatoes.jpg', 'key': 'u', 'origWidth': 409, 'origHeight': 410, 'width': 409, 'height': 410, 'widthPercent': 0.45, 'rescaleHeight': False, 'trialN': 94, 'loaded': True, 'loadedTime': 3767.0999999940395, 'positionName': 'LEFT', 'positionCoords': [246.68, 179], 'bid': 9.09}, {'imgObject': {}, 'id': 'cantaloupe', 'src': '/static/foodstim60/cantaloupe.jpg', 'key': 'i', 'origWidth': 409, 'origHeight': 409, 'width': 409, 'height': 409, 'widthPercent': 0.45, 'rescaleHeight': False, 'trialN': 94, 'loaded': True, 'loadedTime': 3610.2999999970198, 'positionName': 'RIGHT', 'positionCoords': [710.32, 179.5], 'bid': 9.69}]",232731.89999999106,1669830633466,roastedpotatoes,cantaloupe,9.09,9.69,0.5999999999999996,roastedpotatoes,1166.5,1168,1167.300000011921,True,u,234411.29999999702,1679.4000000059605,1669830635146,1680,HRV,HRV_0132,2022-11-30 17:52:59
95,"[{'imgObject': {}, 'id': 'corn cob', 'src': '/static/foodstim60/corn cob.jpg', 'key': 'u', 'origWidth': 411, 'origHeight': 411, 'width': 411, 'height': 411, 'widthPercent': 0.45, 'rescaleHeight': False, 'trialN': 95, 'loaded': True, 'loadedTime': 3849.7999999970198, 'positionName': 'LEFT', 'positionCoords': [244.68, 178.5], 'bid': 9.55}, {'imgObject': {}, 'id': 'cherries', 'src': '/static/foodstim60/cherries.jpg', 'key': 'i', 'origWidth': 410, 'origHeight': 411, 'width': 410, 'height': 411, 'widthPercent': 0.45, 'rescaleHeight': False, 'trialN': 95, 'loaded': True, 'loadedTime': 3829.7999999970198, 'positionName': 'RIGHT', 'positionCoords': [710.32, 178.5], 'bid': 8.55}]",234411.79999999702,1669830635146,corn cob,cherries,9.55,8.55,-1.0,corn cob,1214.7000000029802,1216,1216.2000000029802,True,u,236134.29999999702,1722.5,1669830636869,1723,HRV,HRV_0132,2022-11-30 17:52:59
96,"[{'imgObject': {}, 'id': 'grilled chicken strips', 'src': '/static/foodstim60/grilled chicken strips.jpg', 'key': 'u', 'origWidth': 410, 'origHeight': 411, 'width': 410, 'height': 411, 'widthPercent': 0.45, 'rescaleHeight': False, 'trialN': 96, 'loaded': True, 'loadedTime': 3867.0999999940395, 'positionName': 'LEFT', 'positionCoords': [245.68, 178.5], 'bid': 7.59}, {'imgObject': {}, 'id': 'froot loops w milk', 'src': '/static/foodstim60/froot loops w milk.jpg', 'key': 'i', 'origWidth': 410, 'origHeight': 410, 'width': 410, 'height': 410, 'widthPercent': 0.45, 'rescaleHeight': False, 'trialN': 96, 'loaded': True, 'loadedTime': 3475.5999999940395, 'positionName': 'RIGHT', 'positionCoords': [710.32, 179], 'bid': 5.98}]",236134.89999999106,1669830636869,grilled chicken strips,froot loops w milk,7.59,5.98,-1.6099999999999994,grilled chicken strips,1306.7000000029802,1308,1307.5,True,u,237959.59999999404,1824.7000000029802,1669830638694,1825,HRV,HRV_0132,2022-11-30 17:52:59
97,"[{'imgObject': {}, 'id': 'yogurt no spoon', 'src': '/static/foodstim60/yogurt no spoon.jpg', 'key': 'u', 'origWidth': 411, 'origHeight': 410, 'width': 411, 'height': 410, 'widthPercent': 0.45, 'rescaleHeight': False, 'trialN': 97, 'loaded': True, 'loadedTime': 3877.0999999940395, 'positionName': 'LEFT', 'positionCoords': [244.68, 179], 'bid': 8.06}, {'imgObject': {}, 'id': 'lox', 'src': '/static/foodstim60/lox.jpg', 'key': 'i', 'origWidth': 410, 'origHeight': 411, 'width': 410, 'height': 411, 'widthPercent': 0.45, 'rescaleHeight': False, 'trialN': 97, 'loaded': True, 'loadedTime': 3645.5999999940395, 'positionName': 'RIGHT', 'positionCoords': [710.32, 178.5], 'bid': 0.41}]",237960.29999999702,1669830638695,yogurt no spoon,lox,8.06,0.41,-7.65,yogurt no spoon,1340.2000000029802,1341,1341.0,True,u,239817.5,1857.2000000029802,1669830640552,1857,HRV,HRV_0132,2022-11-30 17:52:59
98,"[{'imgObject': {}, 'id': 'yogurt no spoon', 'src': '/static/foodstim60/yogurt no spoon.jpg', 'key': 'u', 'origWidth': 411, 'origHeight': 410, 'width': 411, 'height': 410, 'widthPercent': 0.45, 'rescaleHeight': False, 'trialN': 98, 'loaded': True, 'loadedTime': 3877.3999999910593, 'positionName': 'LEFT', 'positionCoords': [244.68, 179], 'bid': 8.06}, {'imgObject': {}, 'id': 'burrito', 'src': '/static/foodstim60/burrito.jpg', 'key': 'i', 'origWidth': 410, 'origHeight': 410, 'width': 410, 'height': 410, 'widthPercent': 0.45, 'rescaleHeight': False, 'trialN': 98, 'loaded': True, 'loadedTime': 3210.5999999940395, 'positionName': 'RIGHT', 'positionCoords': [710.32, 179], 'bid': 9.65}]",239818.09999999404,1669830640552,yogurt no spoon,burrito,8.06,9.65,1.5899999999999999,burrito,1266.4000000059605,1268,1267.4000000059605,True,i,241589.59999999404,1771.5,1669830642324,1772,HRV,HRV_0132,2022-11-30 17:52:59
99,"[{'imgObject': {}, 'id': 'avocado', 'src': '/static/foodstim60/avocado.jpg', 'key': 'u', 'origWidth': 409, 'origHeight': 409, 'width': 409, 'height': 409, 'widthPercent': 0.45, 'rescaleHeight': False, 'trialN': 99, 'loaded': True, 'loadedTime': 3771, 'positionName': 'LEFT', 'positionCoords': [246.68, 179.5], 'bid': 0.1}, {'imgObject': {}, 'id': 'popsicles', 'src': '/static/foodstim60/popsicles.jpg', 'key': 'i', 'origWidth': 410, 'origHeight': 410, 'width': 410, 'height': 410, 'widthPercent': 0.45, 'rescaleHeight': False, 'trialN': 99, 'loaded': True, 'loadedTime': 3833, 'positionName': 'RIGHT', 'positionCoords': [710.32, 179], 'bid': 3.62}]",241590.20000000298,1669830642325,avocado,popsicles,0.1,3.62,3.52,popsicles,1245.3999999910593,1246,1246.699999988079,True,i,243349.59999999404,1759.3999999910593,1669830644084,1759,HRV,HRV_0132,2022-11-30 17:52:59
100,"[{'imgObject': {}, 'id': 'shreddedwheatwithmilk', 'src': '/static/foodstim60/shreddedwheatwithmilk.jpg', 'key': 'u', 'origWidth': 410, 'origHeight': 410, 'width': 410, 'height': 410, 'widthPercent': 0.45, 'rescaleHeight': False, 'trialN': 100, 'loaded': True, 'loadedTime': 3881.8999999910593, 'positionName': 'LEFT', 'positionCoords': [245.68, 179], 'bid': 6.84}, {'imgObject': {}, 'id': 'sushi w_condiments', 'src': '/static/foodstim60/sushi w_condiments.jpg', 'key': 'i', 'origWidth': 410, 'origHeight': 410, 'width': 410, 'height': 410, 'widthPercent': 0.45, 'rescaleHeight': False, 'trialN': 100, 'loaded': True, 'loadedTime': 3482.7999999970198, 'positionName': 'RIGHT', 'positionCoords': [710.32, 179], 'bid': 0.05}]",243350.39999999106,1669830644085,shreddedwheatwithmilk,sushi w_condiments,6.84,0.05,-6.79,shreddedwheatwithmilk,1200.6000000089407,1202,1202.0,True,u,245068.29999999702,1717.9000000059605,1669830645803,1718,HRV,HRV_0132,2022-11-30 17:52:59
101,"[{'imgObject': {}, 'id': 'seaweed', 'src': '/static/foodstim60/seaweed.jpg', 'key': 'u', 'origWidth': 410, 'origHeight': 410, 'width': 410, 'height': 410, 'widthPercent': 0.45, 'rescaleHeight': False, 'trialN': 101, 'loaded': True, 'loadedTime': 3259.2000000029802, 'positionName': 'LEFT', 'positionCoords': [245.68, 179], 'bid': 0.05}, {'imgObject': {}, 'id': 'mashed potato', 'src': '/static/foodstim60/mashed potato.jpg', 'key': 'i', 'origWidth': 409, 'origHeight': 409, 'width': 409, 'height': 409, 'widthPercent': 0.45, 'rescaleHeight': False, 'trialN': 101, 'loaded': True, 'loadedTime': 3754.0999999940395, 'positionName': 'RIGHT', 'positionCoords': [710.32, 179.5], 'bid': 2.61}]",245069.0,1669830645803,seaweed,mashed potato,0.05,2.61,2.56,mashed potato,1168.2000000029802,1170,1169.3999999910593,True,i,246746.89999999106,1677.8999999910593,1669830647481,1678,HRV,HRV_0132,2022-11-30 17:52:59
102,"[{'imgObject': {}, 'id': 'salmon', 'src': '/static/foodstim60/salmon.jpg', 'key': 'u', 'origWidth': 410, 'origHeight': 409, 'width': 410, 'height': 409, 'widthPercent': 0.45, 'rescaleHeight': False, 'trialN': 102, 'loaded': True, 'loadedTime': 3837.5999999940395, 'positionName': 'LEFT', 'positionCoords': [245.68, 179.5], 'bid': 0.08}, {'imgObject': {}, 'id': 'sweetpotato', 'src': '/static/foodstim60/sweetpotato.jpg', 'key': 'i', 'origWidth': 410, 'origHeight': 410, 'width': 410, 'height': 410, 'widthPercent': 0.45, 'rescaleHeight': False, 'trialN': 102, 'loaded': True, 'loadedTime': 3048.7999999970198, 'positionName': 'RIGHT', 'positionCoords': [710.32, 179], 'bid': 0.1}]",246747.5,1669830647482,salmon,sweetpotato,0.08,0.1,0.020000000000000004,salmon,1155.7999999970198,1157,1157.0,True,u,248410.09999999404,1662.5999999940395,1669830649145,1663,HRV,HRV_0132,2022-11-30 17:52:59
103,"[{'imgObject': {}, 'id': 'hotdog w must', 'src': '/static/foodstim60/hotdog w must.jpg', 'key': 'u', 'origWidth': 409, 'origHeight': 409, 'width': 409, 'height': 409, 'widthPercent': 0.45, 'rescaleHeight': False, 'trialN': 103, 'loaded': True, 'loadedTime': 3091.3999999910593, 'positionName': 'LEFT', 'positionCoords': [246.68, 179.5], 'bid': 5.58}, {'imgObject': {}, 'id': 'banana', 'src': '/static/foodstim60/banana.jpg', 'key': 'i', 'origWidth': 410, 'origHeight': 410, 'width': 410, 'height': 410, 'widthPercent': 0.45, 'rescaleHeight': False, 'trialN': 103, 'loaded': True, 'loadedTime': 3878.8999999910593, 'positionName': 'RIGHT', 'positionCoords': [710.32, 179], 'bid': 9.67}]",248410.70000000298,1669830649145,hotdog w must,banana,5.58,9.67,4.09,hotdog w must,1246.7999999970198,1247,1247.3999999910593,True,u,250166.59999999404,1755.8999999910593,1669830650901,1756,HRV,HRV_0132,2022-11-30 17:52:59
104,"[{'imgObject': {}, 'id': 'popsicles', 'src': '/static/foodstim60/popsicles.jpg', 'key': 'u', 'origWidth': 410, 'origHeight': 410, 'width': 410, 'height': 410, 'widthPercent': 0.45, 'rescaleHeight': False, 'trialN': 104, 'loaded': True, 'loadedTime': 3831.0999999940395, 'positionName': 'LEFT', 'positionCoords': [245.68, 179], 'bid': 3.62}, {'imgObject': {}, 'id': 'ice cream sundae 002', 'src': '/static/foodstim60/ice cream sundae 002.jpg', 'key': 'i', 'origWidth': 409, 'origHeight': 409, 'width': 409, 'height': 409, 'widthPercent': 0.45, 'rescaleHeight': False, 'trialN': 104, 'loaded': True, 'loadedTime': 3760.8999999910593, 'positionName': 'RIGHT', 'positionCoords': [710.32, 179.5], 'bid': 8.63}]",250167.0,1669830650901,popsicles,ice cream sundae 002,3.62,8.63,5.010000000000001,ice cream sundae 002,1125.2999999970198,1127,1126.2999999970198,True,i,251807.70000000298,1640.7000000029802,1669830652542,1641,HRV,HRV_0132,2022-11-30 17:52:59
105,"[{'imgObject': {}, 'id': 'mango', 'src': '/static/foodstim60/mango.jpg', 'key': 'u', 'origWidth': 411, 'origHeight': 411, 'width': 411, 'height': 411, 'widthPercent': 0.45, 'rescaleHeight': False, 'trialN': 105, 'loaded': True, 'loadedTime': 3030.0999999940395, 'positionName': 'LEFT', 'positionCoords': [244.68, 178.5], 'bid': 3.27}, {'imgObject': {}, 'id': 'mac & cheese', 'src': '/static/foodstim60/mac & cheese.jpg', 'key': 'i', 'origWidth': 410, 'origHeight': 410, 'width': 410, 'height': 410, 'widthPercent': 0.45, 'rescaleHeight': False, 'trialN': 105, 'loaded': True, 'loadedTime': 3461.8999999910593, 'positionName': 'RIGHT', 'positionCoords': [710.32, 179], 'bid': 3.96}]",251807.89999999106,1669830652542,mango,mac & cheese,3.27,3.96,0.69,mango,1277.1000000089407,1279,1278.300000011921,True,u,253591.70000000298,1783.800000011921,1669830654326,1784,HRV,HRV_0132,2022-11-30 17:52:59
106,"[{'imgObject': {}, 'id': 'blackbeanswithrice', 'src': '/static/foodstim60/blackbeanswithrice.jpg', 'key': 'u', 'origWidth': 410, 'origHeight': 410, 'width': 410, 'height': 410, 'widthPercent': 0.45, 'rescaleHeight': False, 'trialN': 106, 'loaded': True, 'loadedTime': 3870.0999999940395, 'positionName': 'LEFT', 'positionCoords': [245.68, 179], 'bid': 7.81}, {'imgObject': {}, 'id': 'kiwi', 'src': '/static/foodstim60/kiwi.jpg', 'key': 'i', 'origWidth': 410, 'origHeight': 410, 'width': 410, 'height': 410, 'widthPercent': 0.45, 'rescaleHeight': False, 'trialN': 106, 'loaded': True, 'loadedTime': 3872.8999999910593, 'positionName': 'RIGHT', 'positionCoords': [710.32, 179], 'bid': 7.81}]",253592.39999999106,1669830654327,blackbeanswithrice,kiwi,7.81,7.81,0.0,blackbeanswithrice,1226.2000000029802,1227,1227.0,True,u,255334.20000000298,1741.800000011921,1669830656069,1742,HRV,HRV_0132,2022-11-30 17:52:59
107,"[{'imgObject': {}, 'id': 'bagel and cc', 'src': '/static/foodstim60/bagel and cc.jpg', 'key': 'u', 'origWidth': 410, 'origHeight': 410, 'width': 410, 'height': 410, 'widthPercent': 0.45, 'rescaleHeight': False, 'trialN': 107, 'loaded': True, 'loadedTime': 3506.3999999910593, 'positionName': 'LEFT', 'positionCoords': [245.68, 179], 'bid': 5.4}, {'imgObject': {}, 'id': 'shreddedwheatwithmilk', 'src': '/static/foodstim60/shreddedwheatwithmilk.jpg', 'key': 'i', 'origWidth': 410, 'origHeight': 410, 'width': 410, 'height': 410, 'widthPercent': 0.45, 'rescaleHeight': False, 'trialN': 107, 'loaded': True, 'loadedTime': 3881.5, 'positionName': 'RIGHT', 'positionCoords': [710.32, 179], 'bid': 6.84}]",255334.70000000298,1669830656069,bagel and cc,shreddedwheatwithmilk,5.4,6.84,1.4399999999999995,bagel and cc,1243.0,1244,1244.199999988079,True,u,257088.59999999404,1753.8999999910593,1669830657823,1754,HRV,HRV_0132,2022-11-30 17:52:59
108,"[{'imgObject': {}, 'id': 'banana', 'src': '/static/foodstim60/banana.jpg', 'key': 'u', 'origWidth': 410, 'origHeight': 410, 'width': 410, 'height': 410, 'widthPercent': 0.45, 'rescaleHeight': False, 'trialN': 108, 'loaded': True, 'loadedTime': 3879.3999999910593, 'positionName': 'LEFT', 'positionCoords': [245.68, 179], 'bid': 9.67}, {'imgObject': {}, 'id': 'cherry tomato', 'src': '/static/foodstim60/cherry tomato.jpg', 'key': 'i', 'origWidth': 410, 'origHeight': 410, 'width': 410, 'height': 410, 'widthPercent': 0.45, 'rescaleHeight': False, 'trialN': 108, 'loaded': True, 'loadedTime': 3592.3999999910593, 'positionName': 'RIGHT', 'positionCoords': [710.32, 179], 'bid': 9.87}]",257089.29999999702,1669830657824,banana,cherry tomato,9.67,9.87,0.1999999999999993,cherry tomato,1028.7000000029802,1030,1030.0,True,i,258625.20000000298,1535.9000000059605,1669830659359,1535,HRV,HRV_0132,2022-11-30 17:52:59
