trialN,stimuli,question,trialStartTime,trialStartTime_UNIX,stimulus1,rt,receivedResponse,rating,trialEndTime,trialDuration,stimulus1Loaded,exp,subjectId,date
0,"[{'imgObject': {}, 'id': 'grilled chicken strips', 'src': '/static/foodstim60/grilled chicken strips.jpg', 'key': 'NaN', 'origWidth': 410, 'origHeight': 411, 'width': 410, 'height': 411, 'widthPercent': 0.8, 'rescaleHeight': True, 'trialN': 0, 'loaded': True, 'loadedTime': 3690.800000011921, 'positionName': 'CENTER', 'positionCoords': [478, 178.5]}]",Rate how much you want to eat this food from 0 (least) to 10 (most).,4924.70000000298,1669829982179,grilled chicken strips,2625.7000000029802,True,6.15,7550.4000000059605,2625.7000000029802,True,HRV,HRV_0132,2022-11-30 17:42:29
1,"[{'imgObject': {}, 'id': 'raspberries', 'src': '/static/foodstim60/raspberries.jpg', 'key': 'NaN', 'origWidth': 411, 'origHeight': 411, 'width': 411, 'height': 411, 'widthPercent': 0.8, 'rescaleHeight': True, 'trialN': 1, 'loaded': True, 'loadedTime': 3708.2000000029802, 'positionName': 'CENTER', 'positionCoords': [477.5, 178.5]}]",Rate how much you want to eat this food from 0 (least) to 10 (most).,7556.600000008941,1669829984810,raspberries,3194.7999999970198,True,5.36,10751.40000000596,3194.7999999970198,True,HRV,HRV_0132,2022-11-30 17:42:29
2,"[{'imgObject': {}, 'id': 'tacos', 'src': '/static/foodstim60/tacos.jpg', 'key': 'NaN', 'origWidth': 411, 'origHeight': 411, 'width': 411, 'height': 411, 'widthPercent': 0.8, 'rescaleHeight': True, 'trialN': 2, 'loaded': True, 'loadedTime': 3751.4000000059605, 'positionName': 'CENTER', 'positionCoords': [477.5, 178.5]}]",Rate how much you want to eat this food from 0 (least) to 10 (most).,10754.40000000596,1669829988008,tacos,2035.0,True,9.5,12789.40000000596,2035.0,True,HRV,HRV_0132,2022-11-30 17:42:29
3,"[{'imgObject': {}, 'id': 'chicken nuggets2', 'src': '/static/foodstim60/chicken nuggets2.jpg', 'key': 'NaN', 'origWidth': 410, 'origHeight': 409, 'width': 410, 'height': 409, 'widthPercent': 0.8, 'rescaleHeight': True, 'trialN': 3, 'loaded': True, 'loadedTime': 3898.6000000089407, 'positionName': 'CENTER', 'positionCoords': [478, 179.5]}]",Rate how much you want to eat this food from 0 (least) to 10 (most).,12792.0,1669829990046,chicken nuggets2,2682.800000011921,True,3.02,15474.800000011921,2682.800000011921,True,HRV,HRV_0132,2022-11-30 17:42:29
4,"[{'imgObject': {}, 'id': 'fruitsalad', 'src': '/static/foodstim60/fruitsalad.jpg', 'key': 'NaN', 'origWidth': 410, 'origHeight': 410, 'width': 410, 'height': 410, 'widthPercent': 0.8, 'rescaleHeight': True, 'trialN': 4, 'loaded': True, 'loadedTime': 3892.9000000059605, 'positionName': 'CENTER', 'positionCoords': [478, 179]}]",Rate how much you want to eat this food from 0 (least) to 10 (most).,15477.5,1669829992731,fruitsalad,2439.7000000029802,True,9.89,17917.20000000298,2439.7000000029802,True,HRV,HRV_0132,2022-11-30 17:42:29
5,"[{'imgObject': {}, 'id': 'rigatoni', 'src': '/static/foodstim60/rigatoni.jpg', 'key': 'NaN', 'origWidth': 411, 'origHeight': 411, 'width': 411, 'height': 411, 'widthPercent': 0.8, 'rescaleHeight': True, 'trialN': 5, 'loaded': True, 'loadedTime': 3803.1000000089407, 'positionName': 'CENTER', 'positionCoords': [477.5, 178.5]}]",Rate how much you want to eat this food from 0 (least) to 10 (most).,17920.10000000894,1669829995174,rigatoni,2461.8999999910593,True,5.71,20382.0,2461.8999999910593,True,HRV,HRV_0132,2022-11-30 17:42:29
6,"[{'imgObject': {}, 'id': 'yogurt no spoon', 'src': '/static/foodstim60/yogurt no spoon.jpg', 'key': 'NaN', 'origWidth': 411, 'origHeight': 410, 'width': 411, 'height': 410, 'widthPercent': 0.8, 'rescaleHeight': True, 'trialN': 6, 'loaded': True, 'loadedTime': 3854.7000000029802, 'positionName': 'CENTER', 'positionCoords': [477.5, 179]}]",Rate how much you want to eat this food from 0 (least) to 10 (most).,20385.30000001192,1669829997639,yogurt no spoon,3138.0999999940395,True,9.72,23523.40000000596,3138.0999999940395,True,HRV,HRV_0132,2022-11-30 17:42:29
7,"[{'imgObject': {}, 'id': 'turkeysandwich', 'src': '/static/foodstim60/turkeysandwich.jpg', 'key': 'NaN', 'origWidth': 409, 'origHeight': 409, 'width': 409, 'height': 409, 'widthPercent': 0.8, 'rescaleHeight': True, 'trialN': 7, 'loaded': True, 'loadedTime': 3840.7000000029802, 'positionName': 'CENTER', 'positionCoords': [478.5, 179.5]}]",Rate how much you want to eat this food from 0 (least) to 10 (most).,23526.10000000894,1669830000780,turkeysandwich,1990.8999999910593,True,9.21,25517.0,1990.8999999910593,True,HRV,HRV_0132,2022-11-30 17:42:29
8,"[{'imgObject': {}, 'id': 'pear', 'src': '/static/foodstim60/pear.jpg', 'key': 'NaN', 'origWidth': 411, 'origHeight': 410, 'width': 411, 'height': 410, 'widthPercent': 0.8, 'rescaleHeight': True, 'trialN': 8, 'loaded': True, 'loadedTime': 3812.5, 'positionName': 'CENTER', 'positionCoords': [477.5, 179]}]",Rate how much you want to eat this food from 0 (least) to 10 (most).,25520.30000001192,1669830002774,pear,2792.5999999940395,True,6.08,28312.90000000596,2792.5999999940395,True,HRV,HRV_0132,2022-11-30 17:42:29
9,"[{'imgObject': {}, 'id': 'lox', 'src': '/static/foodstim60/lox.jpg', 'key': 'NaN', 'origWidth': 410, 'origHeight': 411, 'width': 410, 'height': 411, 'widthPercent': 0.8, 'rescaleHeight': True, 'trialN': 9, 'loaded': True, 'loadedTime': 3905.7000000029802, 'positionName': 'CENTER', 'positionCoords': [478, 178.5]}]",Rate how much you want to eat this food from 0 (least) to 10 (most).,28316.30000001192,1669830005570,lox,3057.0,True,0.02,31373.30000001192,3057.0,True,HRV,HRV_0132,2022-11-30 17:42:29
10,"[{'imgObject': {}, 'id': 'blackbeanswithrice', 'src': '/static/foodstim60/blackbeanswithrice.jpg', 'key': 'NaN', 'origWidth': 410, 'origHeight': 410, 'width': 410, 'height': 410, 'widthPercent': 0.8, 'rescaleHeight': True, 'trialN': 10, 'loaded': True, 'loadedTime': 3917.7000000029802, 'positionName': 'CENTER', 'positionCoords': [478, 179]}]",Rate how much you want to eat this food from 0 (least) to 10 (most).,31376.5,1669830008630,blackbeanswithrice,3123.1000000089407,True,8.71,34499.60000000894,3123.1000000089407,True,HRV,HRV_0132,2022-11-30 17:42:29
11,"[{'imgObject': {}, 'id': 'chickenfingers', 'src': '/static/foodstim60/chickenfingers.jpg', 'key': 'NaN', 'origWidth': 410, 'origHeight': 410, 'width': 410, 'height': 410, 'widthPercent': 0.8, 'rescaleHeight': True, 'trialN': 11, 'loaded': True, 'loadedTime': 3919.6000000089407, 'positionName': 'CENTER', 'positionCoords': [478, 179]}]",Rate how much you want to eat this food from 0 (least) to 10 (most).,34502.70000000298,1669830011756,chickenfingers,2329.2000000029802,True,6.66,36831.90000000596,2329.2000000029802,True,HRV,HRV_0132,2022-11-30 17:42:29
12,"[{'imgObject': {}, 'id': 'luckycharms', 'src': '/static/foodstim60/luckycharms.jpg', 'key': 'NaN', 'origWidth': 410, 'origHeight': 409, 'width': 410, 'height': 409, 'widthPercent': 0.8, 'rescaleHeight': True, 'trialN': 12, 'loaded': True, 'loadedTime': 3967.6000000089407, 'positionName': 'CENTER', 'positionCoords': [478, 179.5]}]",Rate how much you want to eat this food from 0 (least) to 10 (most).,36835.10000000894,1669830014088,luckycharms,4933.20000000298,True,8.71,41768.30000001192,4933.20000000298,True,HRV,HRV_0132,2022-11-30 17:42:29
13,"[{'imgObject': {}, 'id': 'eggsalad', 'src': '/static/foodstim60/eggsalad.jpg', 'key': 'NaN', 'origWidth': 410, 'origHeight': 409, 'width': 410, 'height': 409, 'widthPercent': 0.8, 'rescaleHeight': True, 'trialN': 13, 'loaded': True, 'loadedTime': 3945.300000011921, 'positionName': 'CENTER', 'positionCoords': [478, 179.5]}]",Rate how much you want to eat this food from 0 (least) to 10 (most).,41771.60000000894,1669830019025,eggsalad,4330.0999999940395,True,1.51,46101.70000000298,4330.0999999940395,True,HRV,HRV_0132,2022-11-30 17:42:29
14,"[{'imgObject': {}, 'id': 'apple slices', 'src': '/static/foodstim60/apple slices.jpg', 'key': 'NaN', 'origWidth': 409, 'origHeight': 410, 'width': 409, 'height': 410, 'widthPercent': 0.8, 'rescaleHeight': True, 'trialN': 14, 'loaded': True, 'loadedTime': 3972.300000011921, 'positionName': 'CENTER', 'positionCoords': [478.5, 179]}]",Rate how much you want to eat this food from 0 (least) to 10 (most).,46105.30000001192,1669830023358,apple slices,2137.199999988079,True,6.2,48242.5,2137.199999988079,True,HRV,HRV_0132,2022-11-30 17:42:29
15,"[{'imgObject': {}, 'id': 'cherry tomato', 'src': '/static/foodstim60/cherry tomato.jpg', 'key': 'NaN', 'origWidth': 410, 'origHeight': 410, 'width': 410, 'height': 410, 'widthPercent': 0.8, 'rescaleHeight': True, 'trialN': 15, 'loaded': True, 'loadedTime': 3984.4000000059605, 'positionName': 'CENTER', 'positionCoords': [478, 179]}]",Rate how much you want to eat this food from 0 (least) to 10 (most).,48246.90000000596,1669830025500,cherry tomato,2239.2999999970198,True,9.9,50486.20000000298,2239.2999999970198,True,HRV,HRV_0132,2022-11-30 17:42:29
16,"[{'imgObject': {}, 'id': 'fried eggs', 'src': '/static/foodstim60/fried eggs.jpg', 'key': 'NaN', 'origWidth': 410, 'origHeight': 410, 'width': 410, 'height': 410, 'widthPercent': 0.8, 'rescaleHeight': True, 'trialN': 16, 'loaded': True, 'loadedTime': 3997.7000000029802, 'positionName': 'CENTER', 'positionCoords': [478, 179]}]",Rate how much you want to eat this food from 0 (least) to 10 (most).,50488.5,1669830027741,fried eggs,2204.300000011921,True,9.67,52692.80000001192,2204.300000011921,True,HRV,HRV_0132,2022-11-30 17:42:29
17,"[{'imgObject': {}, 'id': 'omelette', 'src': '/static/foodstim60/omelette.jpg', 'key': 'NaN', 'origWidth': 410, 'origHeight': 409, 'width': 410, 'height': 409, 'widthPercent': 0.8, 'rescaleHeight': True, 'trialN': 17, 'loaded': True, 'loadedTime': 4001.4000000059605, 'positionName': 'CENTER', 'positionCoords': [478, 179.5]}]",Rate how much you want to eat this food from 0 (least) to 10 (most).,52695.0,1669830029948,omelette,2315.800000011921,True,9.81,55010.80000001192,2315.800000011921,True,HRV,HRV_0132,2022-11-30 17:42:29
18,"[{'imgObject': {}, 'id': 'sweetpotato', 'src': '/static/foodstim60/sweetpotato.jpg', 'key': 'NaN', 'origWidth': 410, 'origHeight': 410, 'width': 410, 'height': 410, 'widthPercent': 0.8, 'rescaleHeight': True, 'trialN': 18, 'loaded': True, 'loadedTime': 4027.6000000089407, 'positionName': 'CENTER', 'positionCoords': [478, 179]}]",Rate how much you want to eat this food from 0 (least) to 10 (most).,55014.40000000596,1669830032267,sweetpotato,3042.2000000029802,True,0.06,58056.60000000894,3042.2000000029802,True,HRV,HRV_0132,2022-11-30 17:42:29
19,"[{'imgObject': {}, 'id': 'cocktailshrimp', 'src': '/static/foodstim60/cocktailshrimp.jpg', 'key': 'NaN', 'origWidth': 410, 'origHeight': 410, 'width': 410, 'height': 410, 'widthPercent': 0.8, 'rescaleHeight': True, 'trialN': 19, 'loaded': True, 'loadedTime': 4046.9000000059605, 'positionName': 'CENTER', 'positionCoords': [478, 179]}]",Rate how much you want to eat this food from 0 (least) to 10 (most).,58061.0,1669830035314,cocktailshrimp,2607.300000011921,True,7.3500000000000005,60668.30000001192,2607.300000011921,True,HRV,HRV_0132,2022-11-30 17:42:29
20,"[{'imgObject': {}, 'id': 'turkey sandwich', 'src': '/static/foodstim60/turkey sandwich.jpg', 'key': 'NaN', 'origWidth': 409, 'origHeight': 409, 'width': 409, 'height': 409, 'widthPercent': 0.8, 'rescaleHeight': True, 'trialN': 20, 'loaded': True, 'loadedTime': 4055, 'positionName': 'CENTER', 'positionCoords': [478.5, 179.5]}]",Rate how much you want to eat this food from 0 (least) to 10 (most).,60672.10000000894,1669830037925,turkey sandwich,1827.7999999970198,True,8.13,62499.90000000596,1827.7999999970198,True,HRV,HRV_0132,2022-11-30 17:42:29
21,"[{'imgObject': {}, 'id': 'shreddedwheatwithmilk', 'src': '/static/foodstim60/shreddedwheatwithmilk.jpg', 'key': 'NaN', 'origWidth': 410, 'origHeight': 410, 'width': 410, 'height': 410, 'widthPercent': 0.8, 'rescaleHeight': True, 'trialN': 21, 'loaded': True, 'loadedTime': 4079.7000000029802, 'positionName': 'CENTER', 'positionCoords': [478, 179]}]",Rate how much you want to eat this food from 0 (least) to 10 (most).,62503.90000000596,1669830039757,shreddedwheatwithmilk,2511.9000000059605,True,6.5200000000000005,65015.80000001192,2511.9000000059605,True,HRV,HRV_0132,2022-11-30 17:42:29
22,"[{'imgObject': {}, 'id': 'burger', 'src': '/static/foodstim60/burger.jpg', 'key': 'NaN', 'origWidth': 409, 'origHeight': 409, 'width': 409, 'height': 409, 'widthPercent': 0.8, 'rescaleHeight': True, 'trialN': 22, 'loaded': True, 'loadedTime': 4090.7000000029802, 'positionName': 'CENTER', 'positionCoords': [478.5, 179.5]}]",Rate how much you want to eat this food from 0 (least) to 10 (most).,65018.20000000298,1669830042271,burger,3035.9000000059605,True,9.870000000000001,68054.10000000894,3035.9000000059605,True,HRV,HRV_0132,2022-11-30 17:42:29
23,"[{'imgObject': {}, 'id': 'eggs', 'src': '/static/foodstim60/eggs.jpg', 'key': 'NaN', 'origWidth': 409, 'origHeight': 409, 'width': 409, 'height': 409, 'widthPercent': 0.8, 'rescaleHeight': True, 'trialN': 23, 'loaded': True, 'loadedTime': 4098.9000000059605, 'positionName': 'CENTER', 'positionCoords': [478.5, 179.5]}]",Rate how much you want to eat this food from 0 (least) to 10 (most).,68056.80000001192,1669830045310,eggs,3491.699999988079,True,2.43,71548.5,3491.699999988079,True,HRV,HRV_0132,2022-11-30 17:42:29
24,"[{'imgObject': {}, 'id': 'baked potato', 'src': '/static/foodstim60/baked potato.jpg', 'key': 'NaN', 'origWidth': 409, 'origHeight': 410, 'width': 409, 'height': 410, 'widthPercent': 0.8, 'rescaleHeight': True, 'trialN': 24, 'loaded': True, 'loadedTime': 4107, 'positionName': 'CENTER', 'positionCoords': [478.5, 179]}]",Rate how much you want to eat this food from 0 (least) to 10 (most).,71550.90000000596,1669830048804,baked potato,1991.0,True,8.42,73541.90000000596,1991.0,True,HRV,HRV_0132,2022-11-30 17:42:29
25,"[{'imgObject': {}, 'id': 'Tribe humus pita', 'src': '/static/foodstim60/Tribe humus pita.jpg', 'key': 'NaN', 'origWidth': 411, 'origHeight': 411, 'width': 411, 'height': 411, 'widthPercent': 0.8, 'rescaleHeight': True, 'trialN': 25, 'loaded': True, 'loadedTime': 4129.9000000059605, 'positionName': 'CENTER', 'positionCoords': [477.5, 178.5]}]",Rate how much you want to eat this food from 0 (least) to 10 (most).,73544.40000000596,1669830050797,Tribe humus pita,2771.2999999970198,True,2.14,76315.70000000298,2771.2999999970198,True,HRV,HRV_0132,2022-11-30 17:42:29
26,"[{'imgObject': {}, 'id': 'popsicles', 'src': '/static/foodstim60/popsicles.jpg', 'key': 'NaN', 'origWidth': 410, 'origHeight': 410, 'width': 410, 'height': 410, 'widthPercent': 0.8, 'rescaleHeight': True, 'trialN': 26, 'loaded': True, 'loadedTime': 4144.100000008941, 'positionName': 'CENTER', 'positionCoords': [478, 179]}]",Rate how much you want to eat this food from 0 (least) to 10 (most).,76318.20000000298,1669830053571,popsicles,2697.2999999970198,True,2.99,79015.5,2697.2999999970198,True,HRV,HRV_0132,2022-11-30 17:42:29
27,"[{'imgObject': {}, 'id': 'olives', 'src': '/static/foodstim60/olives.jpg', 'key': 'NaN', 'origWidth': 410, 'origHeight': 410, 'width': 410, 'height': 410, 'widthPercent': 0.8, 'rescaleHeight': True, 'trialN': 27, 'loaded': True, 'loadedTime': 4161.800000011921, 'positionName': 'CENTER', 'positionCoords': [478, 179]}]",Rate how much you want to eat this food from 0 (least) to 10 (most).,79018.30000001192,1669830056271,olives,3042.8999999910593,True,0.12,82061.20000000298,3042.8999999910593,True,HRV,HRV_0132,2022-11-30 17:42:29
28,"[{'imgObject': {}, 'id': 'hotdog w must', 'src': '/static/foodstim60/hotdog w must.jpg', 'key': 'NaN', 'origWidth': 409, 'origHeight': 409, 'width': 409, 'height': 409, 'widthPercent': 0.8, 'rescaleHeight': True, 'trialN': 28, 'loaded': True, 'loadedTime': 4157.800000011921, 'positionName': 'CENTER', 'positionCoords': [478.5, 179.5]}]",Rate how much you want to eat this food from 0 (least) to 10 (most).,82064.0,1669830059317,hotdog w must,3065.0,True,5.68,85129.0,3065.0,True,HRV,HRV_0132,2022-11-30 17:42:29
29,"[{'imgObject': {}, 'id': 'roastedpotatoes', 'src': '/static/foodstim60/roastedpotatoes.jpg', 'key': 'NaN', 'origWidth': 409, 'origHeight': 410, 'width': 409, 'height': 410, 'widthPercent': 0.8, 'rescaleHeight': True, 'trialN': 29, 'loaded': True, 'loadedTime': 4165.5, 'positionName': 'CENTER', 'positionCoords': [478.5, 179]}]",Rate how much you want to eat this food from 0 (least) to 10 (most).,85132.10000000894,1669830062385,roastedpotatoes,3116.7000000029802,True,7.94,88248.80000001192,3116.7000000029802,True,HRV,HRV_0132,2022-11-30 17:42:29
30,"[{'imgObject': {}, 'id': 'mango', 'src': '/static/foodstim60/mango.jpg', 'key': 'NaN', 'origWidth': 411, 'origHeight': 411, 'width': 411, 'height': 411, 'widthPercent': 0.8, 'rescaleHeight': True, 'trialN': 30, 'loaded': True, 'loadedTime': 4178.800000011921, 'positionName': 'CENTER', 'positionCoords': [477.5, 178.5]}]",Rate how much you want to eat this food from 0 (least) to 10 (most).,88253.0,1669830065506,mango,3019.7000000029802,True,2.74,91272.70000000298,3019.7000000029802,True,HRV,HRV_0132,2022-11-30 17:42:29
31,"[{'imgObject': {}, 'id': 'bagel and cc', 'src': '/static/foodstim60/bagel and cc.jpg', 'key': 'NaN', 'origWidth': 410, 'origHeight': 410, 'width': 410, 'height': 410, 'widthPercent': 0.8, 'rescaleHeight': True, 'trialN': 31, 'loaded': True, 'loadedTime': 4194.800000011921, 'positionName': 'CENTER', 'positionCoords': [478, 179]}]",Rate how much you want to eat this food from 0 (least) to 10 (most).,91276.0,1669830068529,bagel and cc,2056.6000000089407,True,5.46,93332.60000000894,2056.6000000089407,True,HRV,HRV_0132,2022-11-30 17:42:29
32,"[{'imgObject': {}, 'id': 'ice cream sundae 002', 'src': '/static/foodstim60/ice cream sundae 002.jpg', 'key': 'NaN', 'origWidth': 409, 'origHeight': 409, 'width': 409, 'height': 409, 'widthPercent': 0.8, 'rescaleHeight': True, 'trialN': 32, 'loaded': True, 'loadedTime': 4203, 'positionName': 'CENTER', 'positionCoords': [478.5, 179.5]}]",Rate how much you want to eat this food from 0 (least) to 10 (most).,93336.70000000298,1669830070590,ice cream sundae 002,2710.7000000029802,True,8.290000000000001,96047.40000000596,2710.7000000029802,True,HRV,HRV_0132,2022-11-30 17:42:29
33,"[{'imgObject': {}, 'id': 'avocado', 'src': '/static/foodstim60/avocado.jpg', 'key': 'NaN', 'origWidth': 409, 'origHeight': 409, 'width': 409, 'height': 409, 'widthPercent': 0.8, 'rescaleHeight': True, 'trialN': 33, 'loaded': True, 'loadedTime': 4224.9000000059605, 'positionName': 'CENTER', 'positionCoords': [478.5, 179.5]}]",Rate how much you want to eat this food from 0 (least) to 10 (most).,96051.70000000298,1669830073306,avocado,2386.7999999970198,True,0.05,98438.5,2386.7999999970198,True,HRV,HRV_0132,2022-11-30 17:42:29
34,"[{'imgObject': {}, 'id': 'veggieswithdip', 'src': '/static/foodstim60/veggieswithdip.jpg', 'key': 'NaN', 'origWidth': 409, 'origHeight': 409, 'width': 409, 'height': 409, 'widthPercent': 0.8, 'rescaleHeight': True, 'trialN': 34, 'loaded': True, 'loadedTime': 4246.4000000059605, 'positionName': 'CENTER', 'positionCoords': [478.5, 179.5]}]",Rate how much you want to eat this food from 0 (least) to 10 (most).,98442.20000000298,1669830075696,veggieswithdip,2277.2000000029802,True,0.65,100719.40000000596,2277.2000000029802,True,HRV,HRV_0132,2022-11-30 17:42:29
35,"[{'imgObject': {}, 'id': 'mashed potato', 'src': '/static/foodstim60/mashed potato.jpg', 'key': 'NaN', 'origWidth': 409, 'origHeight': 409, 'width': 409, 'height': 409, 'widthPercent': 0.8, 'rescaleHeight': True, 'trialN': 35, 'loaded': True, 'loadedTime': 4226.800000011921, 'positionName': 'CENTER', 'positionCoords': [478.5, 179.5]}]",Rate how much you want to eat this food from 0 (least) to 10 (most).,100723.10000000894,1669830077977,mashed potato,2328.7999999970198,True,0.28,103051.90000000596,2328.7999999970198,True,HRV,HRV_0132,2022-11-30 17:42:29
36,"[{'imgObject': {}, 'id': 'granola w milk', 'src': '/static/foodstim60/granola w milk.jpg', 'key': 'NaN', 'origWidth': 410, 'origHeight': 410, 'width': 410, 'height': 410, 'widthPercent': 0.8, 'rescaleHeight': True, 'trialN': 36, 'loaded': True, 'loadedTime': 4262.9000000059605, 'positionName': 'CENTER', 'positionCoords': [478, 179]}]",Rate how much you want to eat this food from 0 (least) to 10 (most).,103055.60000000894,1669830080309,granola w milk,3321.8999999910593,True,5.2,106377.5,3321.8999999910593,True,HRV,HRV_0132,2022-11-30 17:42:29
37,"[{'imgObject': {}, 'id': 'strawberries', 'src': '/static/foodstim60/strawberries.jpg', 'key': 'NaN', 'origWidth': 410, 'origHeight': 410, 'width': 410, 'height': 410, 'widthPercent': 0.8, 'rescaleHeight': True, 'trialN': 37, 'loaded': True, 'loadedTime': 4274.100000008941, 'positionName': 'CENTER', 'positionCoords': [478, 179]}]",Rate how much you want to eat this food from 0 (least) to 10 (most).,106382.5,1669830083636,strawberries,2592.0,True,8.61,108974.5,2592.0,True,HRV,HRV_0132,2022-11-30 17:42:29
38,"[{'imgObject': {}, 'id': 'banana', 'src': '/static/foodstim60/banana.jpg', 'key': 'NaN', 'origWidth': 410, 'origHeight': 410, 'width': 410, 'height': 410, 'widthPercent': 0.8, 'rescaleHeight': True, 'trialN': 38, 'loaded': True, 'loadedTime': 4288.70000000298, 'positionName': 'CENTER', 'positionCoords': [478, 179]}]",Rate how much you want to eat this food from 0 (least) to 10 (most).,108976.0,1669830086230,banana,2073.800000011921,True,9.46,111049.80000001192,2073.800000011921,True,HRV,HRV_0132,2022-11-30 17:42:29
39,"[{'imgObject': {}, 'id': 'mac & cheese', 'src': '/static/foodstim60/mac & cheese.jpg', 'key': 'NaN', 'origWidth': 410, 'origHeight': 410, 'width': 410, 'height': 410, 'widthPercent': 0.8, 'rescaleHeight': True, 'trialN': 39, 'loaded': True, 'loadedTime': 4306.4000000059605, 'positionName': 'CENTER', 'positionCoords': [478, 179]}]",Rate how much you want to eat this food from 0 (least) to 10 (most).,111052.10000000894,1669830088306,mac & cheese,3000.0,True,4.0,114052.10000000894,3000.0,True,HRV,HRV_0132,2022-11-30 17:42:29
40,"[{'imgObject': {}, 'id': 'bagel plain', 'src': '/static/foodstim60/bagel plain.jpg', 'key': 'NaN', 'origWidth': 410, 'origHeight': 410, 'width': 410, 'height': 410, 'widthPercent': 0.8, 'rescaleHeight': True, 'trialN': 40, 'loaded': True, 'loadedTime': 4332.5, 'positionName': 'CENTER', 'positionCoords': [478, 179]}]",Rate how much you want to eat this food from 0 (least) to 10 (most).,114054.5,1669830091308,bagel plain,3573.2000000029802,True,5.54,117627.70000000298,3573.2000000029802,True,HRV,HRV_0132,2022-11-30 17:42:29
41,"[{'imgObject': {}, 'id': 'orange slices', 'src': '/static/foodstim60/orange slices.jpg', 'key': 'NaN', 'origWidth': 409, 'origHeight': 410, 'width': 409, 'height': 410, 'widthPercent': 0.8, 'rescaleHeight': True, 'trialN': 41, 'loaded': True, 'loadedTime': 4338.70000000298, 'positionName': 'CENTER', 'positionCoords': [478.5, 179]}]",Rate how much you want to eat this food from 0 (least) to 10 (most).,117631.10000000894,1669830094885,orange slices,2225.8999999910593,True,9.58,119857.0,2225.8999999910593,True,HRV,HRV_0132,2022-11-30 17:42:29
42,"[{'imgObject': {}, 'id': 'edamame', 'src': '/static/foodstim60/edamame.jpg', 'key': 'NaN', 'origWidth': 409, 'origHeight': 410, 'width': 409, 'height': 410, 'widthPercent': 0.8, 'rescaleHeight': True, 'trialN': 42, 'loaded': True, 'loadedTime': 4678.300000011921, 'positionName': 'CENTER', 'positionCoords': [478.5, 179]}]",Rate how much you want to eat this food from 0 (least) to 10 (most).,119859.70000000298,1669830097114,edamame,4235.0,True,3.37,124094.70000000298,4235.0,True,HRV,HRV_0132,2022-11-30 17:42:29
43,"[{'imgObject': {}, 'id': 'kiwi', 'src': '/static/foodstim60/kiwi.jpg', 'key': 'NaN', 'origWidth': 410, 'origHeight': 410, 'width': 410, 'height': 410, 'widthPercent': 0.8, 'rescaleHeight': True, 'trialN': 43, 'loaded': True, 'loadedTime': 4667.4000000059605, 'positionName': 'CENTER', 'positionCoords': [478, 179]}]",Rate how much you want to eat this food from 0 (least) to 10 (most).,124099.30000001192,1669830101353,kiwi,2431.0,True,4.44,126530.30000001192,2431.0,True,HRV,HRV_0132,2022-11-30 17:42:29
44,"[{'imgObject': {}, 'id': 'Grapes', 'src': '/static/foodstim60/Grapes.jpg', 'key': 'NaN', 'origWidth': 411, 'origHeight': 411, 'width': 411, 'height': 411, 'widthPercent': 0.8, 'rescaleHeight': True, 'trialN': 44, 'loaded': True, 'loadedTime': 4631.100000008941, 'positionName': 'CENTER', 'positionCoords': [477.5, 178.5]}]",Rate how much you want to eat this food from 0 (least) to 10 (most).,126532.90000000596,1669830103787,Grapes,2167.5999999940395,True,9.870000000000001,128700.5,2167.5999999940395,True,HRV,HRV_0132,2022-11-30 17:42:29
45,"[{'imgObject': {}, 'id': 'hashbrowns', 'src': '/static/foodstim60/hashbrowns.jpg', 'key': 'NaN', 'origWidth': 411, 'origHeight': 410, 'width': 411, 'height': 410, 'widthPercent': 0.8, 'rescaleHeight': True, 'trialN': 45, 'loaded': True, 'loadedTime': 4687.800000011921, 'positionName': 'CENTER', 'positionCoords': [477.5, 179]}]",Rate how much you want to eat this food from 0 (least) to 10 (most).,128703.5,1669830105957,hashbrowns,3705.1000000089407,True,2.68,132408.60000000894,3705.1000000089407,True,HRV,HRV_0132,2022-11-30 17:42:29
46,"[{'imgObject': {}, 'id': 'corn cob', 'src': '/static/foodstim60/corn cob.jpg', 'key': 'NaN', 'origWidth': 411, 'origHeight': 411, 'width': 411, 'height': 411, 'widthPercent': 0.8, 'rescaleHeight': True, 'trialN': 46, 'loaded': True, 'loadedTime': 4671.300000011921, 'positionName': 'CENTER', 'positionCoords': [477.5, 178.5]}]",Rate how much you want to eat this food from 0 (least) to 10 (most).,132411.60000000894,1669830109665,corn cob,2189.3999999910593,True,9.61,134601.0,2189.3999999910593,True,HRV,HRV_0132,2022-11-30 17:42:29
47,"[{'imgObject': {}, 'id': 'cantaloupe', 'src': '/static/foodstim60/cantaloupe.jpg', 'key': 'NaN', 'origWidth': 409, 'origHeight': 409, 'width': 409, 'height': 409, 'widthPercent': 0.8, 'rescaleHeight': True, 'trialN': 47, 'loaded': True, 'loadedTime': 4684.800000011921, 'positionName': 'CENTER', 'positionCoords': [478.5, 179.5]}]",Rate how much you want to eat this food from 0 (least) to 10 (most).,134604.0,1669830111858,cantaloupe,2336.2000000029802,True,9.74,136940.20000000298,2336.2000000029802,True,HRV,HRV_0132,2022-11-30 17:42:29
48,"[{'imgObject': {}, 'id': 'blueberries', 'src': '/static/foodstim60/blueberries.jpg', 'key': 'NaN', 'origWidth': 411, 'origHeight': 411, 'width': 411, 'height': 411, 'widthPercent': 0.8, 'rescaleHeight': True, 'trialN': 48, 'loaded': True, 'loadedTime': 4753.100000008941, 'positionName': 'CENTER', 'positionCoords': [477.5, 178.5]}]",Rate how much you want to eat this food from 0 (least) to 10 (most).,136945.10000000894,1669830114199,blueberries,3188.3999999910593,True,9.67,140133.5,3188.3999999910593,True,HRV,HRV_0132,2022-11-30 17:42:29
49,"[{'imgObject': {}, 'id': 'cherries', 'src': '/static/foodstim60/cherries.jpg', 'key': 'NaN', 'origWidth': 410, 'origHeight': 411, 'width': 410, 'height': 411, 'widthPercent': 0.8, 'rescaleHeight': True, 'trialN': 49, 'loaded': True, 'loadedTime': 4790.300000011921, 'positionName': 'CENTER', 'positionCoords': [478, 178.5]}]",Rate how much you want to eat this food from 0 (least) to 10 (most).,140136.80000001192,1669830117391,cherries,1843.199999988079,True,8.9,141980.0,1843.199999988079,True,HRV,HRV_0132,2022-11-30 17:42:29
50,"[{'imgObject': {}, 'id': 'sushi w_condiments', 'src': '/static/foodstim60/sushi w_condiments.jpg', 'key': 'NaN', 'origWidth': 410, 'origHeight': 410, 'width': 410, 'height': 410, 'widthPercent': 0.8, 'rescaleHeight': True, 'trialN': 50, 'loaded': True, 'loadedTime': 4796.70000000298, 'positionName': 'CENTER', 'positionCoords': [478, 179]}]",Rate how much you want to eat this food from 0 (least) to 10 (most).,141983.40000000596,1669830119237,sushi w_condiments,2932.0999999940395,True,0.0,144915.5,2932.0999999940395,True,HRV,HRV_0132,2022-11-30 17:42:29
51,"[{'imgObject': {}, 'id': 'rigatoni and sauce', 'src': '/static/foodstim60/rigatoni and sauce.jpg', 'key': 'NaN', 'origWidth': 410, 'origHeight': 411, 'width': 410, 'height': 411, 'widthPercent': 0.8, 'rescaleHeight': True, 'trialN': 51, 'loaded': True, 'loadedTime': 4843.100000008941, 'positionName': 'CENTER', 'positionCoords': [478, 178.5]}]",Rate how much you want to eat this food from 0 (least) to 10 (most).,144918.90000000596,1669830122173,rigatoni and sauce,2586.0,True,5.2700000000000005,147504.90000000596,2586.0,True,HRV,HRV_0132,2022-11-30 17:42:29
52,"[{'imgObject': {}, 'id': 'seaweed', 'src': '/static/foodstim60/seaweed.jpg', 'key': 'NaN', 'origWidth': 410, 'origHeight': 410, 'width': 410, 'height': 410, 'widthPercent': 0.8, 'rescaleHeight': True, 'trialN': 52, 'loaded': True, 'loadedTime': 4811.600000008941, 'positionName': 'CENTER', 'positionCoords': [478, 179]}]",Rate how much you want to eat this food from 0 (least) to 10 (most).,147508.5,1669830124762,seaweed,2630.300000011921,True,0.13,150138.80000001192,2630.300000011921,True,HRV,HRV_0132,2022-11-30 17:42:29
53,"[{'imgObject': {}, 'id': 'froot loops w milk', 'src': '/static/foodstim60/froot loops w milk.jpg', 'key': 'NaN', 'origWidth': 410, 'origHeight': 410, 'width': 410, 'height': 410, 'widthPercent': 0.8, 'rescaleHeight': True, 'trialN': 53, 'loaded': True, 'loadedTime': 4847.20000000298, 'positionName': 'CENTER', 'positionCoords': [478, 179]}]",Rate how much you want to eat this food from 0 (least) to 10 (most).,150142.30000001192,1669830127396,froot loops w milk,3395.3999999910593,True,2.97,153537.70000000298,3395.3999999910593,True,HRV,HRV_0132,2022-11-30 17:42:29
54,"[{'imgObject': {}, 'id': 'steak', 'src': '/static/foodstim60/steak.jpg', 'key': 'NaN', 'origWidth': 410, 'origHeight': 410, 'width': 410, 'height': 410, 'widthPercent': 0.8, 'rescaleHeight': True, 'trialN': 54, 'loaded': True, 'loadedTime': 4849, 'positionName': 'CENTER', 'positionCoords': [478, 179]}]",Rate how much you want to eat this food from 0 (least) to 10 (most).,153541.70000000298,1669830130796,steak,3512.4000000059605,True,6.49,157054.10000000894,3512.4000000059605,True,HRV,HRV_0132,2022-11-30 17:42:29
55,"[{'imgObject': {}, 'id': 'cheerios', 'src': '/static/foodstim60/cheerios.jpg', 'key': 'NaN', 'origWidth': 409, 'origHeight': 410, 'width': 409, 'height': 410, 'widthPercent': 0.8, 'rescaleHeight': True, 'trialN': 55, 'loaded': True, 'loadedTime': 4868.5, 'positionName': 'CENTER', 'positionCoords': [478.5, 179]}]",Rate how much you want to eat this food from 0 (least) to 10 (most).,157058.0,1669830134312,cheerios,2357.4000000059605,True,7.03,159415.40000000596,2357.4000000059605,True,HRV,HRV_0132,2022-11-30 17:42:29
56,"[{'imgObject': {}, 'id': 'salmon', 'src': '/static/foodstim60/salmon.jpg', 'key': 'NaN', 'origWidth': 410, 'origHeight': 409, 'width': 410, 'height': 409, 'widthPercent': 0.8, 'rescaleHeight': True, 'trialN': 56, 'loaded': True, 'loadedTime': 4872, 'positionName': 'CENTER', 'positionCoords': [478, 179.5]}]",Rate how much you want to eat this food from 0 (least) to 10 (most).,159418.20000000298,1669830136672,salmon,2851.7000000029802,True,1.36,162269.90000000596,2851.7000000029802,True,HRV,HRV_0132,2022-11-30 17:42:29
57,"[{'imgObject': {}, 'id': 'raisin bran w milk', 'src': '/static/foodstim60/raisin bran w milk.jpg', 'key': 'NaN', 'origWidth': 411, 'origHeight': 411, 'width': 411, 'height': 411, 'widthPercent': 0.8, 'rescaleHeight': True, 'trialN': 57, 'loaded': True, 'loadedTime': 4898.100000008941, 'positionName': 'CENTER', 'positionCoords': [477.5, 178.5]}]",Rate how much you want to eat this food from 0 (least) to 10 (most).,162272.20000000298,1669830139526,raisin bran w milk,3042.7999999970198,True,5.64,165315.0,3042.7999999970198,True,HRV,HRV_0132,2022-11-30 17:42:29
58,"[{'imgObject': {}, 'id': 'salad w chicken', 'src': '/static/foodstim60/salad w chicken.jpg', 'key': 'NaN', 'origWidth': 411, 'origHeight': 411, 'width': 411, 'height': 411, 'widthPercent': 0.8, 'rescaleHeight': True, 'trialN': 58, 'loaded': True, 'loadedTime': 4902.300000011921, 'positionName': 'CENTER', 'positionCoords': [477.5, 178.5]}]",Rate how much you want to eat this food from 0 (least) to 10 (most).,165316.40000000596,1669830142570,salad w chicken,2874.7999999970198,True,8.89,168191.20000000298,2874.7999999970198,True,HRV,HRV_0132,2022-11-30 17:42:29
59,"[{'imgObject': {}, 'id': 'burrito', 'src': '/static/foodstim60/burrito.jpg', 'key': 'NaN', 'origWidth': 410, 'origHeight': 410, 'width': 410, 'height': 410, 'widthPercent': 0.8, 'rescaleHeight': True, 'trialN': 59, 'loaded': True, 'loadedTime': 4922, 'positionName': 'CENTER', 'positionCoords': [478, 179]}]",Rate how much you want to eat this food from 0 (least) to 10 (most).,168192.60000000894,1669830145446,burrito,3854.2999999970198,True,9.34,172046.90000000596,3854.2999999970198,True,HRV,HRV_0132,2022-11-30 17:42:29
