success,trial_type,trial_index,time_elapsed,internal_node_id,Block,TrialNumber,TrialTime,trialTimeDiff,FPS_avg,FPS_med,FPS_mode,TrialDur,winResizeTime,rt,block,button_pressed,MotCoh,MotDir,ColCoh,Color,ChoiceKey,Choice,Accuracy,RT,nFrames,FPS,PPD,missTrial,missTrialMsg,onsetDelay,fullScreenExitTime,canvCenter,TrialType,Score,BlockTrial,stimulus,button_labels,exp,subjectId,date
True,fullscreen,0,2783,0.0-0.0,0.0,1.0,,,,,,,,,,,,,,,,,,,,,,,,,,,,,,,,HRV,HRV_0132,2022-11-30 18:19:46
,wl-check-fps,1,7788,0.0-1.0,0.0,2.0,"[7884.1, 7897, 7919, 7933.2, 7948.3, 7965.9, 7982.2, 7998.2, 8016, 8030.4, 8046.9, 8063, 8078.4, 8095, 8111.7, 8128.4, 8145.7, 8162.3, 8178.4, 8195, 8212.3, 8228.4, 8245, 8262.4, 8278.4, 8295, 8311.7, 8328.4, 8345.1, 8361.7, 8378.4, 8395.1, 8411.7, 8428.7, 8445.3, 8463.1, 8478.7, 8496.2, 8513.7, 8529.6, 8545.3, 8563, 8578.7, 8595.3, 8612, 8628.7, 8645.4, 8663, 8678.7, 8695.3, 8713.5, 8728.6, 8745.4, 8762, 8778.5, 8795.3, 8813, 8828.6, 8845.3, 8863, 8878.6, 8895.4, 8912, 8928.6, 8945.3, 8961.8, 8978.3, 8995, 9011.6, 9028.3, 9044.9, 9061.6, 9078.3, 9094.9, 9111.6, 9128.3, 9145, 9162.2, 9178.3, 9194.9, 9211.6, 9228.3, 9244.8, 9261.6, 9278.7, 9294.9, 9311.6, 9328.2, 9344.9, 9361.6, 9378.2, 9394.8, 9411.5, 9428.2, 9444.8, 9461.5, 9478.2, 9494.8, 9513, 9528.1, 9544.8, 9561.5, 9578.2, 9594.8, 9611.4, 9628.2, 9644.8, 9661.5, 9678.2, 9694.8, 9711.4, 9728.3, 9744.8, 9761.5, 9778.2, 9794.8, 9811.5, 9828.2, 9844.8, 9861.9, 9878.1, 9894.8, 9911.4, 9928.1, 9945.7, 9962.5, 9978, 9994.8, 10011.4, 10028.1, 10044.7, 10061.4, 10078.1, 10094.7, 10111.4, 10128.1, 10144.7, 10161.4, 10178.1, 10194.7, 10211.4, 10228, 10244.7, 10261.4, 10278, 10294.6, 10311.4, 10328.1, 10344.6, 10361.3, 10378, 10394.7, 10411.4, 10427.9, 10444.7, 10461.2, 10478, 10494.6, 10511.3, 10528, 10544.6, 10561.3, 10578, 10594.6, 10611.3, 10628, 10645.4, 10661.2, 10678, 10694.6, 10711.3, 10727.9, 10744.6, 10761.2, 10777.9, 10794.6, 10811.2, 10827.9, 10844.5, 10861.3, 10877.9, 10894.5, 10911.2, 10927.9, 10944.4, 10961, 10977.7, 10994.5, 11011, 11027.8, 11044.4, 11061.1, 11077.7, 11094.4, 11111.1, 11127.7, 11144.4, 11161.1, 11177.7, 11194.4, 11211.1, 11227.7, 11244.3, 11261, 11277.8, 11294.3, 11311.1, 11327.7, 11344.3, 11361.1, 11377.7, 11394.3, 11411, 11427.7, 11444.3, 11461.4, 11478.1, 11494.7, 11512.6, 11529.7, 11546.4, 11563.4, 11579, 11595.7, 11613.2, 11629.6, 11646.1, 11663.3, 11679.9, 11696.2, 11713.7, 11729.5, 11746.5, 11763.4, 11779.1, 11795.1, 11811.8, 11829.3, 11845.5, 11863.4, 11879.3, 11896, 11913.5, 11931, 11945.9, 11962.7, 11978.8, 11995.5, 12012.7, 12028, 12044.8, 12061.5, 12078.9, 12095.5, 12111.4, 12128.1, 12144.8, 12162.8, 12178.6, 12194.8, 12212.3, 12227.6, 12244.8, 12262.2, 12277.9, 12294.6, 12311.1, 12327.8, 12344.6, 12361.2, 12377.8, 12394.5, 12411.2, 12428.1, 12444.5, 12461.1, 12477.8, 12494.8, 12511.6, 12528.2, 12544.9, 12561.6, 12578.3, 12594.9, 12611.6, 12628.2, 12656.3, 12662.8, 12682.9, 12694.5, 12711, 12727.9, 12744.4, 12761.1, 12777.7, 12794.4, 12811.4, 12827.9, 12844.3, 12861]","[6.9, 12.9, 22, 14.2, 15.1, 17.6, 16.3, 16, 17.8, 14.4, 16.5, 16.1, 15.4, 16.6, 16.7, 16.7, 17.3, 16.6, 16.1, 16.6, 17.3, 16.1, 16.6, 17.4, 16, 16.6, 16.7, 16.7, 16.7, 16.6, 16.7, 16.7, 16.6, 17, 16.6, 17.8, 15.6, 17.5, 17.5, 15.9, 15.7, 17.7, 15.7, 16.6, 16.7, 16.7, 16.7, 17.6, 15.7, 16.6, 18.2, 15.1, 16.8, 16.6, 16.5, 16.8, 17.7, 15.6, 16.7, 17.7, 15.6, 16.8, 16.6, 16.6, 16.7, 16.5, 16.5, 16.7, 16.6, 16.7, 16.6, 16.7, 16.7, 16.6, 16.7, 16.7, 16.7, 17.2, 16.1, 16.6, 16.7, 16.7, 16.5, 16.8, 17.1, 16.2, 16.7, 16.6, 16.7, 16.7, 16.6, 16.6, 16.7, 16.7, 16.6, 16.7, 16.7, 16.6, 18.2, 15.1, 16.7, 16.7, 16.7, 16.6, 16.6, 16.8, 16.6, 16.7, 16.7, 16.6, 16.6, 16.9, 16.5, 16.7, 16.7, 16.6, 16.7, 16.7, 16.6, 17.1, 16.2, 16.7, 16.6, 16.7, 17.6, 16.8, 15.5, 16.8, 16.6, 16.7, 16.6, 16.7, 16.7, 16.6, 16.7, 16.7, 16.6, 16.7, 16.7, 16.6, 16.7, 16.6, 16.7, 16.7, 16.6, 16.6, 16.8, 16.7, 16.5, 16.7, 16.7, 16.7, 16.7, 16.5, 16.8, 16.5, 16.8, 16.6, 16.7, 16.7, 16.6, 16.7, 16.7, 16.6, 16.7, 16.7, 17.4, 15.8, 16.8, 16.6, 16.7, 16.6, 16.7, 16.6, 16.7, 16.7, 16.6, 16.7, 16.6, 16.8, 16.6, 16.6, 16.7, 16.7, 16.5, 16.6, 16.7, 16.8, 16.5, 16.8, 16.6, 16.7, 16.6, 16.7, 16.7, 16.6, 16.7, 16.7, 16.6, 16.7, 16.7, 16.6, 16.6, 16.7, 16.8, 16.5, 16.8, 16.6, 16.6, 16.8, 16.6, 16.6, 16.7, 16.7, 16.6, 17.1, 16.7, 16.6, 17.9, 17.1, 16.7, 17, 15.6, 16.7, 17.5, 16.4, 16.5, 17.2, 16.6, 16.3, 17.5, 15.8, 17, 16.9, 15.7, 16, 16.7, 17.5, 16.2, 17.9, 15.9, 16.7, 17.5, 17.5, 14.9, 16.8, 16.1, 16.7, 17.2, 15.3, 16.8, 16.7, 17.4, 16.6, 15.9, 16.7, 16.7, 18, 15.8, 16.2, 17.5, 15.3, 17.2, 17.4, 15.7, 16.7, 16.5, 16.7, 16.8, 16.6, 16.6, 16.7, 16.7, 16.9, 16.4, 16.6, 16.7, 17, 16.8, 16.6, 16.7, 16.7, 16.7, 16.6, 16.7, 16.6, 28.1, 6.5, 20.1, 11.6, 16.5, 16.9, 16.5, 16.7, 16.6, 16.7, 17, 16.5, 16.4, 16.7]",60.0,60.0,60.0,5000.5,[],,,,,,,,,,,,,,,,,,,,,,,,,HRV,HRV_0132,2022-11-30 18:19:46
,wl-html-keyboard-response,2,27681,0.0-2.0-0.0,0.0,3.0,,,,,,,,17877.40000000596,0.0,0,,,,,,,,,,,,,,,,,,,,,,HRV,HRV_0132,2022-11-30 18:19:46
,wl-rdm,3,34217,0.0-3.0-0.0,0.0,4.0,,,,,,,[],,,,0.0,0.0,87.9,0.0,u,0.0,True,947.0,57.0,60.0,40.0,False,,3000.0,[],"[683, 384]",ColorTask_Demo,,,,,HRV,HRV_0132,2022-11-30 18:19:46
,wl-rdm,4,38966,0.0-3.0-1.0,0.0,5.0,,,,,,,[],,,,0.0,0.0,87.9,1.0,i,1.0,True,669.3999999910593,41.0,60.0,40.0,False,,2000.0,[],"[683, 384]",ColorTask_Demo,,,,,HRV,HRV_0132,2022-11-30 18:19:46
,wl-html-keyboard-response,5,44480,0.0-3.0-2.0,0.0,6.0,,,,,,,,3501.5,0.0,1,,,,,,,,,,,,,,,,,,,,,,HRV,HRV_0132,2022-11-30 18:19:46
,wl-html-keyboard-response,6,55784,0.0-4.0-0.0,0.0,7.0,,,,,,,,9290.60000000894,0.0,0,,,,,,,,,,,,,,,,,,,,,,HRV,HRV_0132,2022-11-30 18:19:46
,wl-html-keyboard-response,7,68934,0.0-5.0-0.0,0.0,8.0,,,,,,,,11145.0,0.0,0,,,,,,,,,,,,,,,,,,,,,,HRV,HRV_0132,2022-11-30 18:19:46
,wl-rdm,8,71540,0.0-6.0-0.0,0.0,9.0,,,,,,,[],,,,,,53.2,1.0,i,1.0,True,1273.5999999791384,77.0,60.0,40.0,False,,248.92781673602576,[],"[683, 384]",ColorTask,1.0,1.0,,,HRV,HRV_0132,2022-11-30 18:19:46
,wl-rdm,9,73890,0.0-6.1-0.1,0.0,10.0,,,,,,,[],,,,,,87.9,0.0,u,0.0,True,1011.6999999880791,61.0,60.0,40.0,False,,266.0299694353753,[],"[683, 384]",ColorTask,2.0,2.0,,,HRV,HRV_0132,2022-11-30 18:19:46
,wl-rdm,10,76239,0.0-6.2-0.2,0.0,11.0,,,,,,,[],,,,,,73.6,1.0,i,1.0,True,1021.3999999910593,62.0,60.0,40.0,False,,240.8158989429516,[],"[683, 384]",ColorTask,3.0,3.0,,,HRV,HRV_0132,2022-11-30 18:19:46
,wl-rdm,11,78789,0.0-6.3-0.3,0.0,12.0,,,,,,,[],,,,,,62.5,0.0,i,1.0,False,1218.2000000178814,73.0,60.0,40.0,False,,263.3209479159349,[],"[683, 384]",ColorTask,2.0,4.0,,,HRV,HRV_0132,2022-11-30 18:19:46
,wl-rdm,12,81204,0.0-6.4-0.4,0.0,13.0,,,,,,,[],,,,,,62.5,1.0,u,0.0,False,1053.8999999910593,64.0,60.0,40.0,False,,299.037639145212,[],"[683, 384]",ColorTask,1.0,5.0,,,HRV,HRV_0132,2022-11-30 18:19:46
,wl-rdm,13,84154,0.0-6.5-0.5,0.0,14.0,,,,,,,[],,,,,,53.2,0.0,i,1.0,False,1561.5999999940395,94.0,60.0,40.0,False,,303.6779916961996,[],"[683, 384]",ColorTask,0.0,6.0,,,HRV,HRV_0132,2022-11-30 18:19:46
,wl-rdm,14,87136,0.0-6.6-0.6,0.0,15.0,,,,,,,[],,,,,,62.5,0.0,i,1.0,False,1654.300000011921,100.0,60.0,40.0,False,,245.32665730892975,[],"[683, 384]",ColorTask,-1.0,7.0,,,HRV,HRV_0132,2022-11-30 18:19:46
,wl-rdm,15,89653,0.0-6.7-0.7,0.0,16.0,,,,,,,[],,,,,,62.5,1.0,i,1.0,True,1232.8999999910593,74.0,60.0,40.0,False,,207.97729725176418,[],"[683, 384]",ColorTask,0.0,8.0,,,HRV,HRV_0132,2022-11-30 18:19:46
,wl-rdm,16,92219,0.0-6.8-0.8,0.0,17.0,,,,,,,[],,,,,,50.0,0.0,i,1.0,False,1272.8999999910593,77.0,60.0,40.0,False,,227.12461843232086,[],"[683, 384]",ColorTask,-1.0,9.0,,,HRV,HRV_0132,2022-11-30 18:19:46
,wl-rdm,17,94717,0.0-6.9-0.9,0.0,18.0,,,,,,,[],,,,,,50.0,1.0,u,0.0,False,1213.6000000089407,73.0,60.0,40.0,False,,213.26501071408381,[],"[683, 384]",ColorTask,-2.0,10.0,,,HRV,HRV_0132,2022-11-30 18:19:46
,wl-rdm,18,97817,0.0-6.10-0.10,0.0,19.0,,,,,,,[],,,,,,53.2,0.0,u,0.0,True,1643.4999999850988,99.0,60.0,40.0,False,,374.27590657203507,[],"[683, 384]",ColorTask,-1.0,11.0,,,HRV,HRV_0132,2022-11-30 18:19:46
,wl-rdm,19,100466,0.0-6.11-0.11,0.0,20.0,,,,,,,[],,,,,,62.5,1.0,i,1.0,True,1372.9000000208616,83.0,60.0,40.0,False,,204.00584762824911,[],"[683, 384]",ColorTask,0.0,12.0,,,HRV,HRV_0132,2022-11-30 18:19:46
,wl-rdm,20,103165,0.0-6.12-0.12,0.0,21.0,,,,,,,[],,,,,,87.9,0.0,u,0.0,True,1408.5999999940395,84.0,60.0,40.0,False,,202.72654787739347,[],"[683, 384]",ColorTask,1.0,13.0,,,HRV,HRV_0132,2022-11-30 18:19:46
,wl-rdm,21,105998,0.0-6.13-0.13,0.0,22.0,,,,,,,[],,,,,,56.4,1.0,i,1.0,True,1440.0999999940395,87.0,60.0,40.0,False,,306.7306827967154,[],"[683, 384]",ColorTask,2.0,14.0,,,HRV,HRV_0132,2022-11-30 18:19:46
,wl-rdm,22,108864,0.0-6.14-0.14,0.0,23.0,,,,,,,[],,,,,,50.0,1.0,i,1.0,True,1572.0,95.0,60.0,40.0,False,,208.21343828325382,[],"[683, 384]",ColorTask,3.0,15.0,,,HRV,HRV_0132,2022-11-30 18:19:46
,wl-rdm,23,111614,0.0-6.15-0.15,0.0,24.0,,,,,,,[],,,,,,87.9,1.0,i,1.0,True,1320.4000000059605,80.0,60.0,40.0,False,,363.8026849178739,[],"[683, 384]",ColorTask,4.0,16.0,,,HRV,HRV_0132,2022-11-30 18:19:46
,wl-rdm,24,114596,0.0-6.16-0.16,0.0,25.0,,,,,,,[],,,,,,62.5,0.0,u,0.0,True,1561.5999999940395,94.0,60.0,40.0,False,,351.640460713311,[],"[683, 384]",ColorTask,5.0,17.0,,,HRV,HRV_0132,2022-11-30 18:19:46
,wl-rdm,25,117313,0.0-6.17-0.17,0.0,26.0,,,,,,,[],,,,,,62.5,0.0,u,0.0,True,1271.2000000029802,77.0,60.0,40.0,False,,350.63647215428813,[],"[683, 384]",ColorTask,6.0,18.0,,,HRV,HRV_0132,2022-11-30 18:19:46
,wl-rdm,26,120079,0.0-6.18-0.18,0.0,27.0,,,,,,,[],,,,,,53.2,1.0,i,1.0,True,1438.7999999821186,87.0,60.0,40.0,False,,249.39857691471184,[],"[683, 384]",ColorTask,7.0,19.0,,,HRV,HRV_0132,2022-11-30 18:19:46
,wl-rdm,27,122811,0.0-6.19-0.19,0.0,28.0,,,,,,,[],,,,,,53.2,0.0,i,1.0,False,1429.2000000029802,86.0,60.0,40.0,False,,229.84698823752038,[],"[683, 384]",ColorTask,6.0,20.0,,,HRV,HRV_0132,2022-11-30 18:19:46
,wl-rdm,28,125360,0.0-6.20-0.20,0.0,29.0,,,,,,,[],,,,,,73.6,1.0,i,1.0,True,1173.699999988079,71.0,60.0,40.0,False,,295.74423573781127,[],"[683, 384]",ColorTask,7.0,21.0,,,HRV,HRV_0132,2022-11-30 18:19:46
,wl-rdm,29,128010,0.0-6.21-0.21,0.0,30.0,,,,,,,[],,,,,,50.0,1.0,i,1.0,True,1335.9000000059605,80.0,60.0,40.0,False,,242.72640162901644,[],"[683, 384]",ColorTask,8.0,22.0,,,HRV,HRV_0132,2022-11-30 18:19:46
,wl-rdm,30,130759,0.0-6.22-0.22,0.0,31.0,,,,,,,[],,,,,,87.9,1.0,i,1.0,True,1387.2999999970198,84.0,60.0,40.0,False,,272.8284023438776,[],"[683, 384]",ColorTask,9.0,23.0,,,HRV,HRV_0132,2022-11-30 18:19:46
,wl-rdm,31,133625,0.0-6.23-0.23,0.0,32.0,,,,,,,[],,,,,,62.5,1.0,i,1.0,True,1457.7999999970198,88.0,60.0,40.0,False,,343.2564725084841,[],"[683, 384]",ColorTask,10.0,24.0,,,HRV,HRV_0132,2022-11-30 18:19:46
,wl-rdm,32,136474,0.0-6.24-0.24,0.0,33.0,,,,,,,[],,,,,,73.6,1.0,i,1.0,True,1524.199999988079,92.0,60.0,40.0,False,,239.32334490872137,[],"[683, 384]",ColorTask,11.0,25.0,,,HRV,HRV_0132,2022-11-30 18:19:46
,wl-rdm,33,139241,0.0-6.25-0.25,0.0,34.0,,,,,,,[],,,,,,56.4,1.0,i,1.0,True,1489.1000000089407,90.0,60.0,40.0,False,,204.97576623437288,[],"[683, 384]",ColorTask,12.0,26.0,,,HRV,HRV_0132,2022-11-30 18:19:46
,wl-rdm,34,142126,0.0-6.26-0.26,0.0,35.0,,,,,,,[],,,,,,56.4,0.0,u,0.0,True,1562.0999999940395,94.0,60.0,40.0,False,,245.48124973131917,[],"[683, 384]",ColorTask,13.0,27.0,,,HRV,HRV_0132,2022-11-30 18:19:46
,wl-rdm,35,144957,0.0-6.27-0.27,0.0,36.0,,,,,,,[],,,,,,87.9,1.0,i,1.0,True,1541.5,93.0,60.0,40.0,False,,211.57968094109216,[],"[683, 384]",ColorTask,14.0,28.0,,,HRV,HRV_0132,2022-11-30 18:19:46
,wl-rdm,36,147906,0.0-6.28-0.28,0.0,37.0,,,,,,,[],,,,,,62.5,1.0,i,1.0,True,1569.9000000059605,94.0,60.0,40.0,False,,310.6027118851671,[],"[683, 384]",ColorTask,15.0,29.0,,,HRV,HRV_0132,2022-11-30 18:19:46
,wl-rdm,37,150772,0.0-6.29-0.29,0.0,38.0,,,,,,,[],,,,,,53.2,1.0,i,1.0,True,1565.0999999940395,94.0,60.0,40.0,False,,226.06273117582714,[],"[683, 384]",ColorTask,16.0,30.0,,,HRV,HRV_0132,2022-11-30 18:19:46
,wl-rdm,38,153755,0.0-6.30-0.30,0.0,39.0,,,,,,,[],,,,,,87.9,1.0,i,1.0,True,1588.5,96.0,60.0,40.0,False,,319.8094653533385,[],"[683, 384]",ColorTask,17.0,31.0,,,HRV,HRV_0132,2022-11-30 18:19:46
,wl-rdm,39,156470,0.0-6.31-0.31,0.0,40.0,,,,,,,[],,,,,,53.2,0.0,i,1.0,False,1426.5999999940395,86.0,60.0,40.0,False,,205.148376396414,[],"[683, 384]",ColorTask,16.0,32.0,,,HRV,HRV_0132,2022-11-30 18:19:46
,wl-rdm,40,159404,0.0-6.32-0.32,0.0,41.0,,,,,,,[],,,,,,62.5,0.0,u,0.0,True,1579.7000000029802,95.0,60.0,40.0,False,,299.46224246695044,[],"[683, 384]",ColorTask,17.0,33.0,,,HRV,HRV_0132,2022-11-30 18:19:46
,wl-rdm,41,162320,0.0-6.33-0.33,0.0,42.0,,,,,,,[],,,,,,73.6,1.0,i,1.0,True,1556.2999999970198,94.0,60.0,40.0,False,,297.9865700706944,[],"[683, 384]",ColorTask,18.0,34.0,,,HRV,HRV_0132,2022-11-30 18:19:46
,wl-rdm,42,165385,0.0-6.34-0.34,0.0,43.0,,,,,,,[],,,,,,62.5,0.0,u,0.0,True,1755.199999988079,106.0,60.0,40.0,False,,217.9555780500287,[],"[683, 384]",ColorTask,19.0,35.0,,,HRV,HRV_0132,2022-11-30 18:19:46
,wl-rdm,43,168068,0.0-6.35-0.35,0.0,44.0,,,,,,,[],,,,,,87.9,0.0,u,0.0,True,1219.2000000029802,73.0,60.0,40.0,False,,397.597157678212,[],"[683, 384]",ColorTask,20.0,36.0,,,HRV,HRV_0132,2022-11-30 18:19:46
,wl-rdm,44,170934,0.0-6.36-0.36,0.0,45.0,,,,,,,[],,,,,,53.2,1.0,i,1.0,True,1470.3999999910593,89.0,60.0,40.0,False,,302.4646180247454,[],"[683, 384]",ColorTask,21.0,37.0,,,HRV,HRV_0132,2022-11-30 18:19:46
,wl-rdm,45,173916,0.0-6.37-0.37,0.0,46.0,,,,,,,[],,,,,,53.2,0.0,u,0.0,True,1673.4999999850988,101.0,60.0,40.0,False,,219.91401770551593,[],"[683, 384]",ColorTask,22.0,38.0,,,HRV,HRV_0132,2022-11-30 18:19:46
,wl-rdm,46,176899,0.0-6.38-0.38,0.0,47.0,,,,,,,[],,,,,,50.0,0.0,u,0.0,True,1640.2000000178814,99.0,60.0,40.0,False,,257.04195946646445,[],"[683, 384]",ColorTask,23.0,39.0,,,HRV,HRV_0132,2022-11-30 18:19:46
,wl-rdm,47,179632,0.0-6.39-0.39,0.0,48.0,,,,,,,[],,,,,,73.6,0.0,u,0.0,True,1441.5,87.0,60.0,40.0,False,,215.64234759905736,[],"[683, 384]",ColorTask,24.0,40.0,,,HRV,HRV_0132,2022-11-30 18:19:46
,wl-rdm,48,182481,0.0-6.40-0.40,0.0,49.0,,,,,,,[],,,,,,73.6,0.0,u,0.0,True,1528.5000000149012,92.0,60.0,40.0,False,,247.26066413238755,[],"[683, 384]",ColorTask,25.0,41.0,,,HRV,HRV_0132,2022-11-30 18:19:46
,wl-rdm,49,185230,0.0-6.41-0.41,0.0,50.0,,,,,,,[],,,,,,56.4,0.0,u,0.0,True,1463.1000000089407,88.0,60.0,40.0,False,,207.35827812878784,[],"[683, 384]",ColorTask,26.0,42.0,,,HRV,HRV_0132,2022-11-30 18:19:46
,wl-rdm,50,187930,0.0-6.42-0.42,0.0,51.0,,,,,,,[],,,,,,56.4,1.0,i,1.0,True,1331.5,80.0,60.0,40.0,False,,295.69306592143687,[],"[683, 384]",ColorTask,27.0,43.0,,,HRV,HRV_0132,2022-11-30 18:19:46
,wl-rdm,51,190779,0.0-6.43-0.43,0.0,52.0,,,,,,,[],,,,,,62.5,1.0,i,1.0,True,1454.0000000149012,88.0,60.0,40.0,False,,322.8344580288667,[],"[683, 384]",ColorTask,28.0,44.0,,,HRV,HRV_0132,2022-11-30 18:19:46
,wl-rdm,52,193613,0.0-6.44-0.44,0.0,53.0,,,,,,,[],,,,,,87.9,1.0,i,1.0,True,1507.5000000149012,91.0,60.0,40.0,False,,237.86388032752774,[],"[683, 384]",ColorTask,29.0,45.0,,,HRV,HRV_0132,2022-11-30 18:19:46
,wl-rdm,53,196478,0.0-6.45-0.45,0.0,54.0,,,,,,,[],,,,,,50.0,1.0,i,1.0,True,1538.4999999850988,93.0,60.0,40.0,False,,236.6678562957101,[],"[683, 384]",ColorTask,30.0,46.0,,,HRV,HRV_0132,2022-11-30 18:19:46
,wl-rdm,54,199427,0.0-6.46-0.46,0.0,55.0,,,,,,,[],,,,,,53.2,0.0,u,0.0,True,1615.6000000089407,97.0,60.0,40.0,False,,273.13695803099256,[],"[683, 384]",ColorTask,31.0,47.0,,,HRV,HRV_0132,2022-11-30 18:19:46
,wl-rdm,55,202510,0.0-6.47-0.47,0.0,56.0,,,,,,,[],,,,,,53.2,1.0,u,0.0,False,1759.800000011921,106.0,60.0,40.0,False,,235.43653514997595,[],"[683, 384]",ColorTask,30.0,48.0,,,HRV,HRV_0132,2022-11-30 18:19:46
,wl-rdm,56,204926,0.0-6.48-0.48,0.0,57.0,,,,,,,[],,,,,,87.9,1.0,i,1.0,True,1054.0999999940395,64.0,60.0,40.0,False,,282.4139624413258,[],"[683, 384]",ColorTask,31.0,49.0,,,HRV,HRV_0132,2022-11-30 18:19:46
,wl-rdm,57,207327,0.0-6.49-0.49,0.0,58.0,,,,,,,[],,,,,,87.9,0.0,u,0.0,True,1074.9000000059605,65.0,60.0,40.0,False,,233.36448663521438,[],"[683, 384]",ColorTask,32.0,50.0,,,HRV,HRV_0132,2022-11-30 18:19:46
,wl-rdm,58,210225,0.0-6.50-0.50,0.0,59.0,,,,,,,[],,,,,,53.2,1.0,i,1.0,True,1449.8999999910593,87.0,60.0,40.0,False,,368.0804296515943,[],"[683, 384]",ColorTask,33.0,51.0,,,HRV,HRV_0132,2022-11-30 18:19:46
,wl-rdm,59,213001,0.0-6.51-0.51,0.0,60.0,,,,,,,[],,,,,,73.6,1.0,i,1.0,True,1461.5999999940395,88.0,60.0,40.0,False,,228.7013615168099,[],"[683, 384]",ColorTask,34.0,52.0,,,HRV,HRV_0132,2022-11-30 18:19:46
,wl-rdm,60,215774,0.0-6.52-0.52,0.0,61.0,,,,,,,[],,,,,,56.4,0.0,u,0.0,True,1420.800000011921,86.0,60.0,40.0,False,,274.5033895382189,[],"[683, 384]",ColorTask,35.0,53.0,,,HRV,HRV_0132,2022-11-30 18:19:46
,wl-rdm,61,218790,0.0-6.53-0.53,0.0,62.0,,,,,,,[],,,,,,53.2,0.0,u,0.0,True,1640.300000011921,99.0,60.0,40.0,False,,287.2375283981735,[],"[683, 384]",ColorTask,36.0,54.0,,,HRV,HRV_0132,2022-11-30 18:19:46
,wl-rdm,62,221706,0.0-6.54-0.54,0.0,63.0,,,,,,,[],,,,,,73.6,1.0,i,1.0,True,1527.5999999940395,92.0,60.0,40.0,False,,300.4218778342421,[],"[683, 384]",ColorTask,37.0,55.0,,,HRV,HRV_0132,2022-11-30 18:19:46
,wl-rdm,63,225005,0.0-6.55-0.55,0.0,64.0,,,,,,,[],,,,,,50.0,1.0,i,1.0,True,1853.3999999910593,112.0,60.0,40.0,False,,352.849123500611,[],"[683, 384]",ColorTask,38.0,56.0,,,HRV,HRV_0132,2022-11-30 18:19:46
,wl-rdm,64,227754,0.0-6.56-0.56,0.0,65.0,,,,,,,[],,,,,,56.4,1.0,i,1.0,True,1443.300000011921,87.0,60.0,40.0,False,,226.5538424914687,[],"[683, 384]",ColorTask,39.0,57.0,,,HRV,HRV_0132,2022-11-30 18:19:46
,wl-rdm,65,230937,0.0-6.57-0.57,0.0,66.0,,,,,,,[],,,,,,56.4,0.0,i,1.0,False,1788.2000000029802,108.0,60.0,40.0,False,,307.2756139927391,[],"[683, 384]",ColorTask,38.0,58.0,,,HRV,HRV_0132,2022-11-30 18:19:46
,wl-rdm,66,233370,0.0-6.58-0.58,0.0,67.0,,,,,,,[],,,,,,87.9,1.0,i,1.0,True,1125.6000000089407,68.0,60.0,40.0,False,,217.95880504613083,[],"[683, 384]",ColorTask,39.0,59.0,,,HRV,HRV_0132,2022-11-30 18:19:46
,wl-rdm,67,236536,0.0-6.59-0.59,0.0,68.0,,,,,,,[],,,,,,50.0,1.0,i,1.0,True,1813.5999999940395,109.0,60.0,40.0,False,,267.5873345852102,[],"[683, 384]",ColorTask,40.0,60.0,,,HRV,HRV_0132,2022-11-30 18:19:46
,wl-rdm,68,239485,0.0-6.60-0.60,0.0,69.0,,,,,,,[],,,,,,50.0,1.0,i,1.0,True,1648.2999999970198,99.0,60.0,40.0,False,,221.38262487507814,[],"[683, 384]",ColorTask,41.0,61.0,,,HRV,HRV_0132,2022-11-30 18:19:46
,wl-rdm,69,242118,0.0-6.61-0.61,0.0,70.0,,,,,,,[],,,,,,87.9,1.0,i,1.0,True,1309.2999999970198,79.0,60.0,40.0,False,,249.1683451122201,[],"[683, 384]",ColorTask,42.0,62.0,,,HRV,HRV_0132,2022-11-30 18:19:46
,wl-rdm,70,244533,0.0-6.62-0.62,0.0,71.0,,,,,,,[],,,,,,87.9,0.0,u,0.0,True,1110.8999999910593,67.0,60.0,40.0,False,,233.02682550005292,[],"[683, 384]",ColorTask,43.0,63.0,,,HRV,HRV_0132,2022-11-30 18:19:46
,wl-rdm,71,247345,0.0-6.63-0.63,0.0,72.0,,,,,,,[],,,,,,62.5,0.0,u,0.0,True,1445.3999999910593,87.0,60.0,40.0,False,,273.65263908498935,[],"[683, 384]",ColorTask,44.0,64.0,,,HRV,HRV_0132,2022-11-30 18:19:46
,wl-rdm,72,250033,0.0-6.64-0.64,0.0,73.0,,,,,,,[],,,,,,73.6,1.0,i,1.0,True,1346.800000011921,81.0,60.0,40.0,False,,264.25747762307714,[],"[683, 384]",ColorTask,45.0,65.0,,,HRV,HRV_0132,2022-11-30 18:19:46
,wl-rdm,73,252849,0.0-6.65-0.65,0.0,74.0,,,,,,,[],,,,,,53.2,1.0,i,1.0,True,1428.4000000059605,86.0,60.0,40.0,False,,312.81299232127134,[],"[683, 384]",ColorTask,46.0,66.0,,,HRV,HRV_0132,2022-11-30 18:19:46
,wl-rdm,74,255215,0.0-6.66-0.66,0.0,75.0,,,,,,,[],,,,,,87.9,0.0,u,0.0,True,1070.0999999940395,65.0,60.0,40.0,False,,211.30908819327647,[],"[683, 384]",ColorTask,47.0,67.0,,,HRV,HRV_0132,2022-11-30 18:19:46
,wl-rdm,75,257764,0.0-6.67-0.67,0.0,76.0,,,,,,,[],,,,,,62.5,0.0,u,0.0,True,1146.2999999970198,69.0,60.0,40.0,False,,320.80546972180184,[],"[683, 384]",ColorTask,48.0,68.0,,,HRV,HRV_0132,2022-11-30 18:19:46
,wl-rdm,76,260364,0.0-6.68-0.68,0.0,77.0,,,,,,,[],,,,,,73.6,1.0,i,1.0,True,1219.4999999850988,74.0,60.0,40.0,False,,309.01140074401246,[],"[683, 384]",ColorTask,49.0,69.0,,,HRV,HRV_0132,2022-11-30 18:19:46
,wl-rdm,77,263129,0.0-6.69-0.69,0.0,78.0,,,,,,,[],,,,,,56.4,0.0,i,1.0,False,1454.2000000029802,88.0,60.0,40.0,False,,225.8969546350602,[],"[683, 384]",ColorTask,48.0,70.0,,,HRV,HRV_0132,2022-11-30 18:19:46
,wl-rdm,78,266145,0.0-6.70-0.70,0.0,79.0,,,,,,,[],,,,,,50.0,0.0,i,1.0,False,1595.3999999910593,96.0,60.0,40.0,False,,348.5096417665542,[],"[683, 384]",ColorTask,47.0,71.0,,,HRV,HRV_0132,2022-11-30 18:19:46
,wl-rdm,79,268861,0.0-6.71-0.71,0.0,80.0,,,,,,,[],,,,,,73.6,0.0,u,0.0,True,1287.5,78.0,60.0,40.0,False,,333.52279049943826,[],"[683, 384]",ColorTask,48.0,72.0,,,HRV,HRV_0132,2022-11-30 18:19:46
,wl-rdm,80,271744,0.0-6.72-0.72,0.0,81.0,,,,,,,[],,,,,,73.6,0.0,u,0.0,True,1499.199999988079,90.0,60.0,40.0,False,,303.48292122342633,[],"[683, 384]",ColorTask,49.0,73.0,,,HRV,HRV_0132,2022-11-30 18:19:46
,wl-rdm,81,274444,0.0-6.73-0.73,0.0,82.0,,,,,,,[],,,,,,50.0,0.0,u,0.0,True,1358.8999999910593,82.0,60.0,40.0,False,,253.09763582360287,[],"[683, 384]",ColorTask,50.0,74.0,,,HRV,HRV_0132,2022-11-30 18:19:46
,wl-rdm,82,277210,0.0-6.74-0.74,0.0,83.0,,,,,,,[],,,,,,56.4,1.0,i,1.0,True,1294.1000000089407,78.0,60.0,40.0,False,,388.77740762763585,[],"[683, 384]",ColorTask,51.0,75.0,,,HRV,HRV_0132,2022-11-30 18:19:46
,wl-rdm,83,279842,0.0-6.75-0.75,0.0,84.0,,,,,,,[],,,,,,73.6,0.0,u,0.0,True,1289.8999999910593,78.0,60.0,40.0,False,,264.46709784475826,[],"[683, 384]",ColorTask,52.0,76.0,,,HRV,HRV_0132,2022-11-30 18:19:46
,wl-rdm,84,282475,0.0-6.76-0.76,0.0,85.0,,,,,,,[],,,,,,56.4,0.0,u,0.0,True,1179.2999999970198,71.0,60.0,40.0,False,,367.0141671768032,[],"[683, 384]",ColorTask,53.0,77.0,,,HRV,HRV_0132,2022-11-30 18:19:46
,wl-rdm,85,285009,0.0-6.77-0.77,0.0,86.0,,,,,,,[],,,,,,56.4,0.0,u,0.0,True,1239.5999999940395,74.0,60.0,40.0,False,,206.18031899264776,[],"[683, 384]",ColorTask,54.0,78.0,,,HRV,HRV_0132,2022-11-30 18:19:46
,wl-rdm,86,287490,0.0-6.78-0.78,0.0,87.0,,,,,,,[],,,,,,87.9,0.0,u,0.0,True,1120.0,68.0,60.0,40.0,False,,270.81556858752947,[],"[683, 384]",ColorTask,55.0,79.0,,,HRV,HRV_0132,2022-11-30 18:19:46
,wl-rdm,87,290157,0.0-6.79-0.79,0.0,88.0,,,,,,,[],,,,,,50.0,0.0,u,0.0,True,1328.3999999910593,80.0,60.0,40.0,False,,263.37932476907065,[],"[683, 384]",ColorTask,56.0,80.0,,,HRV,HRV_0132,2022-11-30 18:19:46
,wl-rdm,88,292841,0.0-6.80-0.80,0.0,89.0,,,,,,,[],,,,,,50.0,0.0,u,0.0,True,1322.2000000029802,80.0,60.0,40.0,False,,285.88645067422465,[],"[683, 384]",ColorTask,57.0,81.0,,,HRV,HRV_0132,2022-11-30 18:19:46
,wl-rdm,89,295556,0.0-6.81-0.81,0.0,90.0,,,,,,,[],,,,,,53.2,0.0,i,1.0,False,1420.6000000089407,86.0,60.0,40.0,False,,223.41185024681778,[],"[683, 384]",ColorTask,56.0,82.0,,,HRV,HRV_0132,2022-11-30 18:19:46
,wl-rdm,90,298255,0.0-6.82-0.82,0.0,91.0,,,,,,,[],,,,,,56.4,1.0,i,1.0,True,1254.800000011921,76.0,60.0,40.0,False,,361.0976766481175,[],"[683, 384]",ColorTask,57.0,83.0,,,HRV,HRV_0132,2022-11-30 18:19:46
,wl-rdm,91,300797,0.0-6.83-0.83,0.0,92.0,,,,,,,[],,,,,,73.6,0.0,u,0.0,True,1175.1000000089407,71.0,60.0,40.0,False,,287.97505480507675,[],"[683, 384]",ColorTask,58.0,84.0,,,HRV,HRV_0132,2022-11-30 18:19:46
,wl-rdm,92,303336,0.0-6.84-0.84,0.0,93.0,,,,,,,[],,,,,,73.6,0.0,u,0.0,True,1237.1000000089407,75.0,60.0,40.0,False,,229.5607388798859,[],"[683, 384]",ColorTask,59.0,85.0,,,HRV,HRV_0132,2022-11-30 18:19:46
,wl-rdm,93,306003,0.0-6.85-0.85,0.0,94.0,,,,,,,[],,,,,,56.4,1.0,i,1.0,True,1381.0,83.0,60.0,40.0,False,,214.42345996488112,[],"[683, 384]",ColorTask,60.0,86.0,,,HRV,HRV_0132,2022-11-30 18:19:46
,wl-rdm,94,308886,0.0-6.86-0.86,0.0,95.0,,,,,,,[],,,,,,50.0,0.0,i,1.0,False,1535.9000000059605,92.0,60.0,40.0,False,,282.29837521548563,[],"[683, 384]",ColorTask,59.0,87.0,,,HRV,HRV_0132,2022-11-30 18:19:46
,wl-rdm,95,311602,0.0-6.87-0.87,0.0,96.0,,,,,,,[],,,,,,53.2,0.0,u,0.0,True,1395.9000000059605,84.0,60.0,40.0,False,,238.4886172456317,[],"[683, 384]",ColorTask,60.0,88.0,,,HRV,HRV_0132,2022-11-30 18:19:46
,wl-rdm,96,314487,0.0-6.88-0.88,0.0,97.0,,,,,,,[],,,,,,62.5,1.0,i,1.0,True,1507.0,91.0,60.0,40.0,False,,304.9067412171883,[],"[683, 384]",ColorTask,61.0,89.0,,,HRV,HRV_0132,2022-11-30 18:19:46
,wl-rdm,97,316767,0.0-6.89-0.89,0.0,98.0,,,,,,,[],,,,,,87.9,0.0,u,0.0,True,1008.1999999880791,61.0,60.0,40.0,False,,213.24200058731432,[],"[683, 384]",ColorTask,62.0,90.0,,,HRV,HRV_0132,2022-11-30 18:19:46
,wl-rdm,98,319500,0.0-6.90-0.90,0.0,99.0,,,,,,,[],,,,,,87.9,0.0,u,0.0,True,1365.0,82.0,60.0,40.0,False,,293.15396447918624,[],"[683, 384]",ColorTask,63.0,91.0,,,HRV,HRV_0132,2022-11-30 18:19:46
,wl-rdm,99,322349,0.0-6.91-0.91,0.0,100.0,,,,,,,[],,,,,,73.6,0.0,u,0.0,True,1424.5,86.0,60.0,40.0,False,,342.03854316392403,[],"[683, 384]",ColorTask,64.0,92.0,,,HRV,HRV_0132,2022-11-30 18:19:46
,wl-rdm,100,325065,0.0-6.92-0.92,0.0,101.0,,,,,,,[],,,,,,56.4,1.0,i,1.0,True,1343.199999988079,81.0,60.0,40.0,False,,292.60405128325505,[],"[683, 384]",ColorTask,65.0,93.0,,,HRV,HRV_0132,2022-11-30 18:19:46
,wl-rdm,101,327747,0.0-6.93-0.93,0.0,102.0,,,,,,,[],,,,,,73.6,0.0,u,0.0,True,1401.7999999970198,84.0,60.0,40.0,False,,209.93331012821412,[],"[683, 384]",ColorTask,66.0,94.0,,,HRV,HRV_0132,2022-11-30 18:19:46
,wl-rdm,102,330430,0.0-6.94-0.94,0.0,103.0,,,,,,,[],,,,,,62.5,1.0,i,1.0,True,1292.9000000059605,78.0,60.0,40.0,False,,305.3186887876129,[],"[683, 384]",ColorTask,67.0,95.0,,,HRV,HRV_0132,2022-11-30 18:19:46
,wl-rdm,103,333113,0.0-6.95-0.95,0.0,104.0,,,,,,,[],,,,,,62.5,0.0,u,0.0,True,1371.5,83.0,60.0,40.0,False,,217.57566924255772,[],"[683, 384]",ColorTask,68.0,96.0,,,HRV,HRV_0132,2022-11-30 18:19:46
,wl-rdm,104,336230,0.0-6.96-0.96,0.0,105.0,,,,,,,[],,,,,,53.2,1.0,i,1.0,True,1720.5,104.0,60.0,40.0,False,,328.4406945449317,[],"[683, 384]",ColorTask,69.0,97.0,,,HRV,HRV_0132,2022-11-30 18:19:46
,wl-rdm,105,339345,0.0-6.97-0.97,0.0,106.0,,,,,,,[],,,,,,50.0,1.0,i,1.0,True,1646.9000000059605,99.0,60.0,40.0,False,,396.56559520577196,[],"[683, 384]",ColorTask,70.0,98.0,,,HRV,HRV_0132,2022-11-30 18:19:46
,wl-rdm,106,342777,0.0-6.98-0.98,0.0,107.0,,,,,,,[],,,,,,56.4,1.0,i,1.0,True,2037.0,123.0,60.0,40.0,False,,312.4408790276453,[],"[683, 384]",ColorTask,71.0,99.0,,,HRV,HRV_0132,2022-11-30 18:19:46
,wl-rdm,107,346046,0.0-6.99-0.99,0.0,108.0,,,,,,,[],,,,,,50.0,1.0,i,1.0,True,1913.7000000029802,115.0,60.0,40.0,False,,270.1618492667005,[],"[683, 384]",ColorTask,72.0,100.0,,,HRV,HRV_0132,2022-11-30 18:19:46
,wl-rdm,108,348693,0.0-6.100-0.100,0.0,109.0,,,,,,,[],,,,,,62.5,1.0,i,1.0,True,1360.5999999940395,82.0,60.0,40.0,False,,213.7925978134031,[],"[683, 384]",ColorTask,73.0,101.0,,,HRV,HRV_0132,2022-11-30 18:19:46
,wl-rdm,109,351808,0.0-6.101-0.101,0.0,110.0,,,,,,,[],,,,,,53.2,1.0,i,1.0,True,1774.2999999970198,107.0,60.0,40.0,False,,252.21377149501672,[],"[683, 384]",ColorTask,74.0,102.0,,,HRV,HRV_0132,2022-11-30 18:19:46
,wl-rdm,110,355324,0.0-6.102-0.102,0.0,111.0,,,,,,,[],,,,,,50.0,0.0,i,1.0,False,2165.2000000178814,130.0,60.0,40.0,False,,274.82930268470847,[],"[683, 384]",ColorTask,73.0,103.0,,,HRV,HRV_0132,2022-11-30 18:19:46
,wl-rdm,111,358274,0.0-6.103-0.103,0.0,112.0,,,,,,,[],,,,,,56.4,0.0,u,0.0,True,1524.2000000029802,92.0,60.0,40.0,False,,336.2124576245143,[],"[683, 384]",ColorTask,74.0,104.0,,,HRV,HRV_0132,2022-11-30 18:19:46
,wl-rdm,112,361025,0.0-6.104-0.104,0.0,113.0,,,,,,,[],,,,,,56.4,0.0,u,0.0,True,1439.9000000059605,87.0,60.0,40.0,False,,231.39869079734433,[],"[683, 384]",ColorTask,75.0,105.0,,,HRV,HRV_0132,2022-11-30 18:19:46
,wl-rdm,113,364173,0.0-6.105-0.105,0.0,114.0,,,,,,,[],,,,,,50.0,0.0,i,1.0,False,1795.1000000089407,108.0,60.0,40.0,False,,283.4619032032677,[],"[683, 384]",ColorTask,74.0,106.0,,,HRV,HRV_0132,2022-11-30 18:19:46
,wl-rdm,114,366655,0.0-6.106-0.106,0.0,115.0,,,,,,,[],,,,,,73.6,1.0,i,1.0,True,1105.4000000059605,67.0,60.0,40.0,False,,288.1740222302584,[],"[683, 384]",ColorTask,75.0,107.0,,,HRV,HRV_0132,2022-11-30 18:19:46
,wl-rdm,115,369188,0.0-6.107-0.107,0.0,116.0,,,,,,,[],,,,,,87.9,1.0,i,1.0,True,1174.9000000059605,71.0,60.0,40.0,False,,280.99215419177136,[],"[683, 384]",ColorTask,76.0,108.0,,,HRV,HRV_0132,2022-11-30 18:19:46
,wl-html-keyboard-response,116,422320,0.0-7.0-0.0,1.0,117.0,,,,,,,,51121.39999999106,1.0,0,,,,,,,,,,,,,,,,,,,,,,HRV,HRV_0132,2022-11-30 18:19:46
,wl-rdm,117,424859,0.0-8.0-0.0,1.0,118.0,,,,,,,[],,,,,,62.5,0.0,u,0.0,True,1189.3999999910593,72.0,60.0,40.0,False,,280.5208901338477,[],"[683, 384]",ColorTask,77.0,1.0,,,HRV,HRV_0132,2022-11-30 18:19:46
,wl-rdm,118,427658,0.0-8.1-0.1,1.0,119.0,,,,,,,[],,,,,,50.0,0.0,i,1.0,False,1417.5,85.0,60.0,40.0,False,,307.09825202936395,[],"[683, 384]",ColorTask,76.0,2.0,,,HRV,HRV_0132,2022-11-30 18:19:46
,wl-rdm,119,430074,0.0-8.2-0.2,1.0,120.0,,,,,,,[],,,,,,87.9,1.0,i,1.0,True,961.9000000059605,58.0,60.0,40.0,False,,379.1561325036548,[],"[683, 384]",ColorTask,77.0,3.0,,,HRV,HRV_0132,2022-11-30 18:19:46
,wl-rdm,120,432923,0.0-8.3-0.3,1.0,121.0,,,,,,,[],,,,,,73.6,1.0,i,1.0,True,1512.3999999910593,91.0,60.0,40.0,False,,264.5340849770198,[],"[683, 384]",ColorTask,78.0,4.0,,,HRV,HRV_0132,2022-11-30 18:19:46
,wl-rdm,121,435789,0.0-8.4-0.4,1.0,122.0,,,,,,,[],,,,,,50.0,1.0,i,1.0,True,1580.699999988079,95.0,60.0,40.0,False,,208.48682763138623,[],"[683, 384]",ColorTask,79.0,5.0,,,HRV,HRV_0132,2022-11-30 18:19:46
,wl-rdm,122,439122,0.0-8.5-0.5,1.0,123.0,,,,,,,[],,,,,,62.5,0.0,u,0.0,True,1993.5000000149012,120.0,60.0,40.0,False,,256.2172946600143,[],"[683, 384]",ColorTask,80.0,6.0,,,HRV,HRV_0132,2022-11-30 18:19:46
,wl-rdm,123,441655,0.0-8.6-0.6,1.0,124.0,,,,,,,[],,,,,,73.6,0.0,u,0.0,True,1265.4000000059605,76.0,60.0,40.0,False,,211.3951613872976,[],"[683, 384]",ColorTask,81.0,7.0,,,HRV,HRV_0132,2022-11-30 18:19:46
,wl-rdm,124,444754,0.0-8.7-0.7,1.0,125.0,,,,,,,[],,,,,,53.2,0.0,u,0.0,True,1655.699999988079,100.0,60.0,40.0,False,,371.9826080119487,[],"[683, 384]",ColorTask,82.0,8.0,,,HRV,HRV_0132,2022-11-30 18:19:46
,wl-rdm,125,447370,0.0-8.8-0.8,1.0,126.0,,,,,,,[],,,,,,56.4,0.0,u,0.0,True,1206.0,73.0,60.0,40.0,False,,318.3092370625881,[],"[683, 384]",ColorTask,83.0,9.0,,,HRV,HRV_0132,2022-11-30 18:19:46
,wl-rdm,126,450020,0.0-8.9-0.9,1.0,127.0,,,,,,,[],,,,,,56.4,1.0,i,1.0,True,1256.0999999940395,76.0,60.0,40.0,False,,311.55757405642066,[],"[683, 384]",ColorTask,84.0,10.0,,,HRV,HRV_0132,2022-11-30 18:19:46
,wl-rdm,127,452669,0.0-8.10-0.10,1.0,128.0,,,,,,,[],,,,,,73.6,0.0,u,0.0,True,1220.7999999970198,73.0,60.0,40.0,False,,357.63608765094415,[],"[683, 384]",ColorTask,85.0,11.0,,,HRV,HRV_0132,2022-11-30 18:19:46
,wl-rdm,128,455368,0.0-8.11-0.11,1.0,129.0,,,,,,,[],,,,,,87.9,0.0,u,0.0,True,1258.4999999850988,76.0,60.0,40.0,False,,350.0702614103154,[],"[683, 384]",ColorTask,86.0,12.0,,,HRV,HRV_0132,2022-11-30 18:19:46
,wl-rdm,129,458118,0.0-8.12-0.12,1.0,130.0,,,,,,,[],,,,,,53.2,0.0,i,1.0,False,1377.0,83.0,60.0,40.0,False,,312.29088323737693,[],"[683, 384]",ColorTask,85.0,13.0,,,HRV,HRV_0132,2022-11-30 18:19:46
,wl-rdm,130,461100,0.0-8.13-0.13,1.0,131.0,,,,,,,[],,,,,,56.4,1.0,i,1.0,True,1563.0999999940395,94.0,60.0,40.0,False,,334.9544676716486,[],"[683, 384]",ColorTask,86.0,14.0,,,HRV,HRV_0132,2022-11-30 18:19:46
,wl-rdm,131,463867,0.0-8.14-0.14,1.0,132.0,,,,,,,[],,,,,,73.6,0.0,u,0.0,True,1447.9000000059605,87.0,60.0,40.0,False,,241.28858593187584,[],"[683, 384]",ColorTask,87.0,15.0,,,HRV,HRV_0132,2022-11-30 18:19:46
,wl-rdm,132,466583,0.0-8.15-0.15,1.0,133.0,,,,,,,[],,,,,,50.0,1.0,u,0.0,False,1441.1000000089407,87.0,60.0,40.0,False,,203.16464244119723,[],"[683, 384]",ColorTask,86.0,16.0,,,HRV,HRV_0132,2022-11-30 18:19:46
,wl-rdm,133,469232,0.0-8.16-0.16,1.0,134.0,,,,,,,[],,,,,,50.0,0.0,i,1.0,False,1323.5999999940395,80.0,60.0,40.0,False,,253.82061459993028,[],"[683, 384]",ColorTask,85.0,17.0,,,HRV,HRV_0132,2022-11-30 18:19:46
,wl-rdm,134,471431,0.0-8.17-0.17,1.0,135.0,,,,,,,[],,,,,,87.9,1.0,i,1.0,True,839.8000000119209,51.0,60.0,40.0,False,,272.80821357963174,[],"[683, 384]",ColorTask,86.0,18.0,,,HRV,HRV_0132,2022-11-30 18:19:46
,wl-rdm,135,474997,0.0-8.18-0.18,1.0,136.0,,,,,,,[],,,,,,50.0,1.0,u,0.0,False,2242.0999999940395,135.0,60.0,40.0,False,,243.4346275254393,[],"[683, 384]",ColorTask,85.0,19.0,,,HRV,HRV_0132,2022-11-30 18:19:46
,wl-rdm,136,477963,0.0-8.19-0.19,1.0,137.0,,,,,,,[],,,,,,53.2,1.0,i,1.0,True,1604.2000000029802,96.0,60.0,40.0,False,,295.22831211445737,[],"[683, 384]",ColorTask,86.0,20.0,,,HRV,HRV_0132,2022-11-30 18:19:46
,wl-rdm,137,480663,0.0-8.20-0.20,1.0,138.0,,,,,,,[],,,,,,62.5,1.0,i,1.0,True,1356.2000000178814,80.0,60.0,40.0,False,,252.05430765292238,[],"[683, 384]",ColorTask,87.0,21.0,,,HRV,HRV_0132,2022-11-30 18:19:46
,wl-rdm,138,482946,0.0-8.21-0.21,1.0,139.0,,,,,,,[],,,,,,73.6,0.0,u,0.0,True,975.5000000149012,59.0,60.0,40.0,False,,224.0880915991948,[],"[683, 384]",ColorTask,88.0,22.0,,,HRV,HRV_0132,2022-11-30 18:19:46
,wl-rdm,139,485678,0.0-8.22-0.22,1.0,140.0,,,,,,,[],,,,,,87.9,0.0,u,0.0,True,1320.5999999940395,80.0,60.0,40.0,False,,346.62408135259204,[],"[683, 384]",ColorTask,89.0,23.0,,,HRV,HRV_0132,2022-11-30 18:19:46
,wl-rdm,140,488560,0.0-8.23-0.23,1.0,141.0,,,,,,,[],,,,,,73.6,0.0,u,0.0,True,1472.0,89.0,60.0,40.0,False,,325.2784997682767,[],"[683, 384]",ColorTask,90.0,24.0,,,HRV,HRV_0132,2022-11-30 18:19:46
,wl-rdm,141,492143,0.0-8.24-0.24,1.0,142.0,,,,,,,[],,,,,,50.0,0.0,i,1.0,False,2124.9000000059605,128.0,60.0,40.0,False,,368.67126289189275,[],"[683, 384]",ColorTask,89.0,25.0,,,HRV,HRV_0132,2022-11-30 18:19:46
,wl-rdm,142,494727,0.0-8.25-0.25,1.0,143.0,,,,,,,[],,,,,,87.9,0.0,u,0.0,True,1170.3999999910593,70.0,60.0,40.0,False,,333.9313974665751,[],"[683, 384]",ColorTask,90.0,26.0,,,HRV,HRV_0132,2022-11-30 18:19:46
,wl-rdm,143,497342,0.0-8.26-0.26,1.0,144.0,,,,,,,[],,,,,,87.9,0.0,u,0.0,True,1342.6000000089407,81.0,60.0,40.0,False,,209.72635307282698,[],"[683, 384]",ColorTask,91.0,27.0,,,HRV,HRV_0132,2022-11-30 18:19:46
,wl-rdm,144,500558,0.0-8.27-0.27,1.0,145.0,,,,,,,[],,,,,,50.0,1.0,i,1.0,True,1739.5999999940395,105.0,60.0,40.0,False,,387.647383201396,[],"[683, 384]",ColorTask,92.0,28.0,,,HRV,HRV_0132,2022-11-30 18:19:46
,wl-rdm,145,503406,0.0-8.28-0.28,1.0,146.0,,,,,,,[],,,,,,62.5,1.0,i,1.0,True,1562.5999999940395,94.0,60.0,40.0,False,,201.01072839163123,[],"[683, 384]",ColorTask,93.0,29.0,,,HRV,HRV_0132,2022-11-30 18:19:46
,wl-rdm,146,506222,0.0-8.29-0.29,1.0,147.0,,,,,,,[],,,,,,53.2,1.0,i,1.0,True,1495.5999999940395,90.0,60.0,40.0,False,,249.45748299582118,[],"[683, 384]",ColorTask,94.0,30.0,,,HRV,HRV_0132,2022-11-30 18:19:46
,wl-rdm,147,509255,0.0-8.30-0.30,1.0,148.0,,,,,,,[],,,,,,56.4,1.0,i,1.0,True,1750.1000000089407,105.0,60.0,40.0,False,,205.03033020269254,[],"[683, 384]",ColorTask,95.0,31.0,,,HRV,HRV_0132,2022-11-30 18:19:46
,wl-rdm,148,512271,0.0-8.31-0.31,1.0,149.0,,,,,,,[],,,,,,53.2,0.0,u,0.0,True,1614.6000000089407,97.0,60.0,40.0,False,,316.4380275521962,[],"[683, 384]",ColorTask,96.0,32.0,,,HRV,HRV_0132,2022-11-30 18:19:46
,wl-rdm,149,515604,0.0-8.32-0.32,1.0,150.0,,,,,,,[],,,,,,50.0,0.0,i,1.0,False,1973.300000011921,119.0,60.0,40.0,False,,277.02498115464016,[],"[683, 384]",ColorTask,95.0,33.0,,,HRV,HRV_0132,2022-11-30 18:19:46
,wl-rdm,150,519286,0.0-8.33-0.33,1.0,151.0,,,,,,,[],,,,,,50.0,1.0,u,0.0,False,2287.3999999910593,138.0,60.0,40.0,False,,305.27552129252416,[],"[683, 384]",ColorTask,94.0,34.0,,,HRV,HRV_0132,2022-11-30 18:19:46
,wl-rdm,151,521919,0.0-8.34-0.34,1.0,152.0,,,,,,,[],,,,,,73.6,0.0,u,0.0,True,1267.1000000089407,76.0,60.0,40.0,False,,284.29936637731487,[],"[683, 384]",ColorTask,95.0,35.0,,,HRV,HRV_0132,2022-11-30 18:19:46
,wl-rdm,152,524802,0.0-8.35-0.35,1.0,153.0,,,,,,,[],,,,,,73.6,0.0,u,0.0,True,1492.6000000089407,90.0,60.0,40.0,False,,323.94608839305624,[],"[683, 384]",ColorTask,96.0,36.0,,,HRV,HRV_0132,2022-11-30 18:19:46
,wl-rdm,153,527201,0.0-8.36-0.36,1.0,154.0,,,,,,,[],,,,,,87.9,1.0,i,1.0,True,1056.7000000029802,64.0,60.0,40.0,False,,255.85901738855318,[],"[683, 384]",ColorTask,97.0,37.0,,,HRV,HRV_0132,2022-11-30 18:19:46
,wl-rdm,154,530550,0.0-8.37-0.37,1.0,155.0,,,,,,,[],,,,,,50.0,1.0,i,1.0,True,1956.699999988079,118.0,60.0,40.0,False,,331.20037959708395,[],"[683, 384]",ColorTask,98.0,38.0,,,HRV,HRV_0132,2022-11-30 18:19:46
,wl-rdm,155,533549,0.0-8.38-0.38,1.0,156.0,,,,,,,[],,,,,,56.4,1.0,i,1.0,True,1519.8999999910593,92.0,60.0,40.0,False,,345.63864394931625,[],"[683, 384]",ColorTask,99.0,39.0,,,HRV,HRV_0132,2022-11-30 18:19:46
,wl-rdm,156,536383,0.0-8.39-0.39,1.0,157.0,,,,,,,[],,,,,,73.6,0.0,u,0.0,True,1422.699999988079,86.0,60.0,40.0,False,,349.3507649098713,[],"[683, 384]",ColorTask,100.0,40.0,,,HRV,HRV_0132,2022-11-30 18:19:46
,wl-rdm,157,539498,0.0-8.40-0.40,1.0,158.0,,,,,,,[],,,,,,50.0,0.0,i,1.0,False,1804.4000000208616,109.0,60.0,40.0,False,,235.36748465369305,[],"[683, 384]",ColorTask,99.0,41.0,,,HRV,HRV_0132,2022-11-30 18:19:46
,wl-rdm,158,542448,0.0-8.41-0.41,1.0,159.0,,,,,,,[],,,,,,62.5,1.0,i,1.0,True,1576.699999988079,95.0,60.0,40.0,False,,308.2348262715075,[],"[683, 384]",ColorTask,100.0,42.0,,,HRV,HRV_0132,2022-11-30 18:19:46
,wl-rdm,159,545664,0.0-8.42-0.42,1.0,160.0,,,,,,,[],,,,,,53.2,0.0,u,0.0,True,1920.7000000029802,116.0,60.0,40.0,False,,217.0309815241803,[],"[683, 384]",ColorTask,101.0,43.0,,,HRV,HRV_0132,2022-11-30 18:19:46
,wl-rdm,160,549146,0.0-8.43-0.43,1.0,161.0,,,,,,,[],,,,,,50.0,1.0,u,0.0,False,2152.3999999910593,129.0,60.0,40.0,False,,249.99579586077513,[],"[683, 384]",ColorTask,100.0,44.0,,,HRV,HRV_0132,2022-11-30 18:19:46
,wl-rdm,161,553262,0.0-8.44-0.44,1.0,162.0,,,,,,,[],,,,,,56.4,0.0,u,0.0,True,2679.4000000059605,161.0,60.0,40.0,False,,354.6329092976566,[],"[683, 384]",ColorTask,101.0,45.0,,,HRV,HRV_0132,2022-11-30 18:19:46
,wl-rdm,162,556195,0.0-8.45-0.45,1.0,163.0,,,,,,,[],,,,,,62.5,1.0,i,1.0,True,1642.2999999970198,99.0,60.0,40.0,False,,222.9272663861696,[],"[683, 384]",ColorTask,102.0,46.0,,,HRV,HRV_0132,2022-11-30 18:19:46
,wl-rdm,163,558311,0.0-8.46-0.46,1.0,164.0,,,,,,,[],,,,,,87.9,0.0,u,0.0,True,809.1000000089407,49.0,60.0,40.0,False,,230.02168654549823,[],"[683, 384]",ColorTask,103.0,47.0,,,HRV,HRV_0132,2022-11-30 18:19:46
,wl-rdm,164,561577,0.0-8.47-0.47,1.0,165.0,,,,,,,[],,,,,,62.5,0.0,u,0.0,True,1994.6000000089407,120.0,60.0,40.0,False,,214.37563876868523,[],"[683, 384]",ColorTask,104.0,48.0,,,HRV,HRV_0132,2022-11-30 18:19:46
,wl-rdm,165,564026,0.0-8.48-0.48,1.0,166.0,,,,,,,[],,,,,,53.2,1.0,i,1.0,True,995.7999999970198,60.0,60.0,40.0,False,,380.18775180627927,[],"[683, 384]",ColorTask,105.0,49.0,,,HRV,HRV_0132,2022-11-30 18:19:46
,wl-rdm,166,567175,0.0-8.49-0.49,1.0,167.0,,,,,,,[],,,,,,53.2,0.0,u,0.0,True,1839.0,111.0,60.0,40.0,False,,224.3878670814683,[],"[683, 384]",ColorTask,106.0,50.0,,,HRV,HRV_0132,2022-11-30 18:19:46
,wl-rdm,167,569792,0.0-8.50-0.50,1.0,168.0,,,,,,,[],,,,,,73.6,1.0,i,1.0,True,1138.0999999940395,69.0,60.0,40.0,False,,390.02738191263836,[],"[683, 384]",ColorTask,107.0,51.0,,,HRV,HRV_0132,2022-11-30 18:19:46
,wl-rdm,168,572827,0.0-8.51-0.51,1.0,169.0,,,,,,,[],,,,,,53.2,1.0,i,1.0,True,1595.2000000178814,96.0,60.0,40.0,False,,351.7645702610322,[],"[683, 384]",ColorTask,108.0,52.0,,,HRV,HRV_0132,2022-11-30 18:19:46
,wl-rdm,169,575190,0.0-8.52-0.52,1.0,170.0,,,,,,,[],,,,,,87.9,0.0,u,0.0,True,911.6000000089407,55.0,60.0,40.0,False,,381.3489316841085,[],"[683, 384]",ColorTask,109.0,53.0,,,HRV,HRV_0132,2022-11-30 18:19:46
,wl-rdm,170,577607,0.0-8.53-0.53,1.0,171.0,,,,,,,[],,,,,,87.9,1.0,i,1.0,True,1063.5,64.0,60.0,40.0,False,,279.3785916973035,[],"[683, 384]",ColorTask,110.0,54.0,,,HRV,HRV_0132,2022-11-30 18:19:46
,wl-rdm,171,580206,0.0-8.54-0.54,1.0,172.0,,,,,,,[],,,,,,73.6,0.0,u,0.0,True,1258.800000011921,76.0,60.0,40.0,False,,253.1138504167888,[],"[683, 384]",ColorTask,111.0,55.0,,,HRV,HRV_0132,2022-11-30 18:19:46
,wl-rdm,172,582956,0.0-8.55-0.55,1.0,173.0,,,,,,,[],,,,,,56.4,0.0,u,0.0,True,1421.9000000059605,86.0,60.0,40.0,False,,261.7918855735041,[],"[683, 384]",ColorTask,112.0,56.0,,,HRV,HRV_0132,2022-11-30 18:19:46
,wl-rdm,173,585638,0.0-8.56-0.56,1.0,174.0,,,,,,,[],,,,,,56.4,1.0,i,1.0,True,1237.2999999970198,75.0,60.0,40.0,False,,362.99393236461225,[],"[683, 384]",ColorTask,113.0,57.0,,,HRV,HRV_0132,2022-11-30 18:19:46
,wl-rdm,174,588471,0.0-8.57-0.57,1.0,175.0,,,,,,,[],,,,,,56.4,1.0,i,1.0,True,1472.7000000029802,89.0,60.0,40.0,False,,282.2441549822296,[],"[683, 384]",ColorTask,114.0,58.0,,,HRV,HRV_0132,2022-11-30 18:19:46
,wl-rdm,175,590770,0.0-8.58-0.58,1.0,176.0,,,,,,,[],,,,,,87.9,0.0,u,0.0,True,1006.6999999880791,61.0,60.0,40.0,False,,212.53434079305813,[],"[683, 384]",ColorTask,115.0,59.0,,,HRV,HRV_0132,2022-11-30 18:19:46
,wl-rdm,176,593153,0.0-8.59-0.59,1.0,177.0,,,,,,,[],,,,,,73.6,1.0,i,1.0,True,1047.4000000059605,63.0,60.0,40.0,False,,259.4810244613003,[],"[683, 384]",ColorTask,116.0,60.0,,,HRV,HRV_0132,2022-11-30 18:19:46
,wl-rdm,177,595719,0.0-8.60-0.60,1.0,178.0,,,,,,,[],,,,,,62.5,1.0,i,1.0,True,1157.5,70.0,60.0,40.0,False,,338.5258269859355,[],"[683, 384]",ColorTask,117.0,61.0,,,HRV,HRV_0132,2022-11-30 18:19:46
,wl-rdm,178,598602,0.0-8.61-0.61,1.0,179.0,,,,,,,[],,,,,,50.0,0.0,i,1.0,False,1606.7999999970198,97.0,60.0,40.0,False,,203.3830559810871,[],"[683, 384]",ColorTask,116.0,62.0,,,HRV,HRV_0132,2022-11-30 18:19:46
,wl-rdm,179,601385,0.0-8.62-0.62,1.0,180.0,,,,,,,[],,,,,,62.5,0.0,u,0.0,True,1430.1000000089407,86.0,60.0,40.0,False,,296.45832435723537,[],"[683, 384]",ColorTask,117.0,63.0,,,HRV,HRV_0132,2022-11-30 18:19:46
,wl-rdm,180,604117,0.0-8.63-0.63,1.0,181.0,,,,,,,[],,,,,,73.6,1.0,i,1.0,True,1261.800000011921,76.0,60.0,40.0,False,,394.3639926021448,[],"[683, 384]",ColorTask,118.0,64.0,,,HRV,HRV_0132,2022-11-30 18:19:46
,wl-rdm,181,606966,0.0-8.64-0.64,1.0,182.0,,,,,,,[],,,,,,56.4,1.0,i,1.0,True,1522.6000000089407,92.0,60.0,40.0,False,,247.29086967353243,[],"[683, 384]",ColorTask,119.0,65.0,,,HRV,HRV_0132,2022-11-30 18:19:46
,wl-rdm,182,609999,0.0-8.65-0.65,1.0,183.0,,,,,,,[],,,,,,50.0,1.0,u,0.0,False,1746.4000000059605,105.0,60.0,40.0,False,,216.49035061512478,[],"[683, 384]",ColorTask,118.0,66.0,,,HRV,HRV_0132,2022-11-30 18:19:46
,wl-rdm,183,613699,0.0-8.66-0.66,1.0,184.0,,,,,,,[],,,,,,53.2,1.0,i,1.0,True,2262.6000000089407,136.0,60.0,40.0,False,,370.20291511095763,[],"[683, 384]",ColorTask,119.0,67.0,,,HRV,HRV_0132,2022-11-30 18:19:46
,wl-rdm,184,616498,0.0-8.67-0.67,1.0,185.0,,,,,,,[],,,,,,62.5,0.0,u,0.0,True,1390.6000000089407,84.0,60.0,40.0,False,,317.12617344977195,[],"[683, 384]",ColorTask,120.0,68.0,,,HRV,HRV_0132,2022-11-30 18:19:46
,wl-rdm,185,619047,0.0-8.68-0.68,1.0,186.0,,,,,,,[],,,,,,73.6,1.0,i,1.0,True,1109.0999999940395,67.0,60.0,40.0,False,,365.7543873572901,[],"[683, 384]",ColorTask,121.0,69.0,,,HRV,HRV_0132,2022-11-30 18:19:46
,wl-rdm,186,623013,0.0-8.69-0.69,1.0,187.0,,,,,,,[],,,,,,53.2,1.0,i,1.0,True,2587.9000000059605,156.0,60.0,40.0,False,,290.61756353717846,[],"[683, 384]",ColorTask,122.0,70.0,,,HRV,HRV_0132,2022-11-30 18:19:46
,wl-rdm,187,625412,0.0-8.70-0.70,1.0,188.0,,,,,,,[],,,,,,73.6,1.0,i,1.0,True,1056.0,64.0,60.0,40.0,False,,256.30787385299675,[],"[683, 384]",ColorTask,123.0,71.0,,,HRV,HRV_0132,2022-11-30 18:19:46
,wl-rdm,188,628345,0.0-8.71-0.71,1.0,189.0,,,,,,,[],,,,,,50.0,0.0,i,1.0,False,1489.5999999940395,90.0,60.0,40.0,False,,351.9126056823234,[],"[683, 384]",ColorTask,122.0,72.0,,,HRV,HRV_0132,2022-11-30 18:19:46
,wl-rdm,189,631327,0.0-8.72-0.72,1.0,190.0,,,,,,,[],,,,,,56.4,0.0,u,0.0,True,1641.0999999940395,99.0,60.0,40.0,False,,262.6977946490375,[],"[683, 384]",ColorTask,123.0,73.0,,,HRV,HRV_0132,2022-11-30 18:19:46
,wl-rdm,190,633643,0.0-8.73-0.73,1.0,191.0,,,,,,,[],,,,,,87.9,0.0,u,0.0,True,1003.6999999880791,61.0,60.0,40.0,False,,219.15908019974995,[],"[683, 384]",ColorTask,124.0,74.0,,,HRV,HRV_0132,2022-11-30 18:19:46
,wl-rdm,191,636393,0.0-8.74-0.74,1.0,192.0,,,,,,,[],,,,,,56.4,0.0,u,0.0,True,1383.0999999940395,83.0,60.0,40.0,False,,292.6032248220167,[],"[683, 384]",ColorTask,125.0,75.0,,,HRV,HRV_0132,2022-11-30 18:19:46
,wl-rdm,192,638792,0.0-8.75-0.75,1.0,193.0,,,,,,,[],,,,,,87.9,1.0,i,1.0,True,944.0,57.0,60.0,40.0,False,,371.9456455865703,[],"[683, 384]",ColorTask,126.0,76.0,,,HRV,HRV_0132,2022-11-30 18:19:46
,wl-rdm,193,641609,0.0-8.76-0.76,1.0,194.0,,,,,,,[],,,,,,53.2,0.0,u,0.0,True,1414.9000000059605,85.0,60.0,40.0,False,,341.64504594442485,[],"[683, 384]",ColorTask,127.0,77.0,,,HRV,HRV_0132,2022-11-30 18:19:46
,wl-rdm,194,643791,0.0-8.77-0.77,1.0,195.0,,,,,,,[],,,,,,73.6,1.0,i,1.0,True,871.0999999940395,52.0,60.0,40.0,False,,238.15905575929958,[],"[683, 384]",ColorTask,128.0,78.0,,,HRV,HRV_0132,2022-11-30 18:19:46
,wl-rdm,195,646324,0.0-8.78-0.78,1.0,196.0,,,,,,,[],,,,,,87.9,1.0,i,1.0,True,1093.7000000029802,66.0,60.0,40.0,False,,357.7364561447049,[],"[683, 384]",ColorTask,129.0,79.0,,,HRV,HRV_0132,2022-11-30 18:19:46
,wl-rdm,196,648940,0.0-8.79-0.79,1.0,197.0,,,,,,,[],,,,,,62.5,1.0,i,1.0,True,1183.3999999910593,71.0,60.0,40.0,False,,365.70055169298337,[],"[683, 384]",ColorTask,130.0,80.0,,,HRV,HRV_0132,2022-11-30 18:19:46
,wl-rdm,197,651906,0.0-8.80-0.80,1.0,198.0,,,,,,,[],,,,,,53.2,0.0,u,0.0,True,1549.5,93.0,60.0,40.0,False,,344.2826450865687,[],"[683, 384]",ColorTask,131.0,81.0,,,HRV,HRV_0132,2022-11-30 18:19:46
,wl-rdm,198,654905,0.0-8.81-0.81,1.0,199.0,,,,,,,[],,,,,,53.2,0.0,u,0.0,True,1594.300000011921,96.0,60.0,40.0,False,,320.83569926551775,[],"[683, 384]",ColorTask,132.0,82.0,,,HRV,HRV_0132,2022-11-30 18:19:46
,wl-rdm,199,657538,0.0-8.82-0.82,1.0,200.0,,,,,,,[],,,,,,87.9,1.0,i,1.0,True,1177.8999999910593,71.0,60.0,40.0,False,,369.7337760608945,[],"[683, 384]",ColorTask,133.0,83.0,,,HRV,HRV_0132,2022-11-30 18:19:46
,wl-rdm,200,660804,0.0-8.83-0.83,1.0,201.0,,,,,,,[],,,,,,56.4,1.0,i,1.0,True,1839.4000000059605,111.0,60.0,40.0,False,,335.08744593330414,[],"[683, 384]",ColorTask,134.0,84.0,,,HRV,HRV_0132,2022-11-30 18:19:46
,wl-rdm,201,663886,0.0-8.84-0.84,1.0,202.0,,,,,,,[],,,,,,62.5,1.0,i,1.0,True,1788.0,108.0,60.0,40.0,False,,212.2565375817436,[],"[683, 384]",ColorTask,135.0,85.0,,,HRV,HRV_0132,2022-11-30 18:19:46
,wl-rdm,202,666569,0.0-8.85-0.85,1.0,203.0,,,,,,,[],,,,,,73.6,1.0,i,1.0,True,1333.7999999970198,80.0,60.0,40.0,False,,282.47487462117033,[],"[683, 384]",ColorTask,136.0,86.0,,,HRV,HRV_0132,2022-11-30 18:19:46
,wl-rdm,203,669003,0.0-8.86-0.86,1.0,204.0,,,,,,,[],,,,,,87.9,1.0,i,1.0,True,997.2999999970198,60.0,60.0,40.0,False,,381.7047925958829,[],"[683, 384]",ColorTask,137.0,87.0,,,HRV,HRV_0132,2022-11-30 18:19:46
,wl-rdm,204,671801,0.0-8.87-0.87,1.0,205.0,,,,,,,[],,,,,,62.5,1.0,i,1.0,True,1427.3999999910593,86.0,60.0,40.0,False,,294.01398067003305,[],"[683, 384]",ColorTask,138.0,88.0,,,HRV,HRV_0132,2022-11-30 18:19:46
,wl-rdm,205,674401,0.0-8.88-0.88,1.0,206.0,,,,,,,[],,,,,,73.6,1.0,i,1.0,True,1312.0999999940395,79.0,60.0,40.0,False,,209.4198223166619,[],"[683, 384]",ColorTask,139.0,89.0,,,HRV,HRV_0132,2022-11-30 18:19:46
,wl-rdm,206,677234,0.0-8.89-0.89,1.0,207.0,,,,,,,[],,,,,,50.0,1.0,u,0.0,False,1514.0999999940395,91.0,60.0,40.0,False,,234.47118534689264,[],"[683, 384]",ColorTask,138.0,90.0,,,HRV,HRV_0132,2022-11-30 18:19:46
,wl-rdm,207,679967,0.0-8.90-0.90,1.0,208.0,,,,,,,[],,,,,,50.0,0.0,i,1.0,False,1368.3999999910593,82.0,60.0,40.0,False,,283.7941197311315,[],"[683, 384]",ColorTask,137.0,91.0,,,HRV,HRV_0132,2022-11-30 18:19:46
,wl-rdm,208,683600,0.0-8.91-0.91,1.0,209.0,,,,,,,[],,,,,,53.2,1.0,i,1.0,True,2189.699999988079,132.0,60.0,40.0,False,,363.8755997308729,[],"[683, 384]",ColorTask,138.0,92.0,,,HRV,HRV_0132,2022-11-30 18:19:46
,wl-rdm,209,686116,0.0-8.92-0.92,1.0,210.0,,,,,,,[],,,,,,62.5,0.0,u,0.0,True,1189.2000000029802,72.0,60.0,40.0,False,,242.4800418669085,[],"[683, 384]",ColorTask,139.0,93.0,,,HRV,HRV_0132,2022-11-30 18:19:46
,wl-rdm,210,688732,0.0-8.93-0.93,1.0,211.0,,,,,,,[],,,,,,56.4,0.0,u,0.0,True,1309.5,79.0,60.0,40.0,False,,228.25315150707686,[],"[683, 384]",ColorTask,140.0,94.0,,,HRV,HRV_0132,2022-11-30 18:19:46
,wl-rdm,211,691881,0.0-8.94-0.94,1.0,212.0,,,,,,,[],,,,,,50.0,0.0,u,0.0,True,1871.2000000178814,113.0,60.0,40.0,False,,210.75759427641492,[],"[683, 384]",ColorTask,141.0,95.0,,,HRV,HRV_0132,2022-11-30 18:19:46
,wl-rdm,212,694547,0.0-8.95-0.95,1.0,213.0,,,,,,,[],,,,,,53.2,1.0,u,0.0,False,1225.0999999940395,74.0,60.0,40.0,False,,357.789866856099,[],"[683, 384]",ColorTask,140.0,96.0,,,HRV,HRV_0132,2022-11-30 18:19:46
,wl-rdm,213,697033,0.0-8.96-0.96,1.0,214.0,,,,,,,[],,,,,,87.9,0.0,u,0.0,True,1160.5999999940395,70.0,60.0,40.0,False,,246.94411916261737,[],"[683, 384]",ColorTask,141.0,97.0,,,HRV,HRV_0132,2022-11-30 18:19:46
,wl-rdm,214,699863,0.0-8.97-0.97,1.0,215.0,,,,,,,[],,,,,,56.4,0.0,u,0.0,True,1422.6000000089407,86.0,60.0,40.0,False,,344.77858642831757,[],"[683, 384]",ColorTask,142.0,98.0,,,HRV,HRV_0132,2022-11-30 18:19:46
,wl-rdm,215,702563,0.0-8.98-0.98,1.0,216.0,,,,,,,[],,,,,,62.5,0.0,u,0.0,True,1422.4000000059605,85.0,60.0,40.0,False,,203.865084221794,[],"[683, 384]",ColorTask,143.0,99.0,,,HRV,HRV_0132,2022-11-30 18:19:46
,wl-rdm,216,705478,0.0-8.99-0.99,1.0,217.0,,,,,,,[],,,,,,56.4,1.0,u,0.0,False,1508.0,91.0,60.0,40.0,False,,318.1826314386284,[],"[683, 384]",ColorTask,142.0,100.0,,,HRV,HRV_0132,2022-11-30 18:19:46
,wl-rdm,217,708727,0.0-8.100-0.100,1.0,218.0,,,,,,,[],,,,,,56.4,0.0,u,0.0,True,1775.0,107.0,60.0,40.0,False,,392.39477588237065,[],"[683, 384]",ColorTask,143.0,101.0,,,HRV,HRV_0132,2022-11-30 18:19:46
,wl-rdm,218,711510,0.0-8.101-0.101,1.0,219.0,,,,,,,[],,,,,,56.4,0.0,u,0.0,True,1493.3999999910593,90.0,60.0,40.0,False,,214.96985936652482,[],"[683, 384]",ColorTask,144.0,102.0,,,HRV,HRV_0132,2022-11-30 18:19:46
,wl-rdm,219,714226,0.0-8.102-0.102,1.0,220.0,,,,,,,[],,,,,,62.5,0.0,u,0.0,True,1420.2999999970198,85.0,60.0,40.0,False,,226.97861724410112,[],"[683, 384]",ColorTask,145.0,103.0,,,HRV,HRV_0132,2022-11-30 18:19:46
,wl-rdm,220,716926,0.0-8.103-0.103,1.0,221.0,,,,,,,[],,,,,,62.5,0.0,u,0.0,True,1343.2000000178814,81.0,60.0,40.0,False,,262.3610562151224,[],"[683, 384]",ColorTask,146.0,104.0,,,HRV,HRV_0132,2022-11-30 18:19:46
,wl-rdm,221,719108,0.0-8.104-0.104,1.0,222.0,,,,,,,[],,,,,,87.9,1.0,i,1.0,True,877.1000000089407,53.0,60.0,40.0,False,,219.69206206918602,[],"[683, 384]",ColorTask,147.0,105.0,,,HRV,HRV_0132,2022-11-30 18:19:46
,wl-rdm,222,721541,0.0-8.105-0.105,1.0,223.0,,,,,,,[],,,,,,62.5,1.0,i,1.0,True,1013.0000000149012,61.0,60.0,40.0,False,,349.6581548651177,[],"[683, 384]",ColorTask,148.0,106.0,,,HRV,HRV_0132,2022-11-30 18:19:46
,wl-rdm,223,724190,0.0-8.106-0.106,1.0,224.0,,,,,,,[],,,,,,53.2,0.0,u,0.0,True,1196.8999999910593,72.0,60.0,40.0,False,,374.288322775665,[],"[683, 384]",ColorTask,149.0,107.0,,,HRV,HRV_0132,2022-11-30 18:19:46
,wl-rdm,224,726923,0.0-8.107-0.107,1.0,225.0,,,,,,,[],,,,,,53.2,1.0,u,0.0,False,1429.0,86.0,60.0,40.0,False,,237.87021330593728,[],"[683, 384]",ColorTask,148.0,108.0,,,HRV,HRV_0132,2022-11-30 18:19:46
,wl-html-button-response,225,729818,0.0-9.0-0.0,,,,,,,,,,2882.5,,0,,,,,,,,,,,,,,,,,,,,<h3>End of this session. Thank you!</h3><br>,['Close window'],HRV,HRV_0132,2022-11-30 18:19:46
