success,trial_type,trial_index,time_elapsed,internal_node_id,Block,TrialNumber,TrialTime,trialTimeDiff,FPS_avg,FPS_med,FPS_mode,TrialDur,winResizeTime,rt,block,button_pressed,MotCoh,MotDir,ColCoh,Color,ChoiceKey,Choice,Accuracy,RT,nFrames,FPS,PPD,missTrial,missTrialMsg,onsetDelay,fullScreenExitTime,canvCenter,TrialType,Score,BlockTrial,stimulus,button_labels,exp,subjectId,date
True,fullscreen,0,2507,0.0-0.0,0.0,1.0,,,,,,,,,,,,,,,,,,,,,,,,,,,,,,,,HRV,HRV_0184,2022-11-30 18:45:42
,wl-check-fps,1,7511,0.0-1.0,0.0,2.0,"[4979.2, 4989.5, 5005.9, 5023, 5039.3, 5056.1, 5072.8, 5090, 5106.3, 5122.6, 5139.8, 5156, 5172.8, 5189.5, 5206.1, 5222.6, 5239.3, 5255.9, 5272.6, 5289.4, 5306.2, 5322.9, 5339.6, 5356.3, 5373, 5389.3, 5406.2, 5423, 5439.5, 5456.1, 5472.7, 5489.4, 5506.1, 5523, 5539.8, 5556.3, 5572.8, 5589.7, 5606, 5622.9, 5639.7, 5656.1, 5673.1, 5690.1, 5706.4, 5723, 5740, 5756.9, 5773.3, 5789.6, 5806.4, 5823.3, 5839.7, 5856.2, 5873, 5889.6, 5906.4, 5922.9, 5939.7, 5956.2, 5972.9, 5989.6, 6006.3, 6023.2, 6039.6, 6056.5, 6073.3, 6089.8, 6106.5, 6123.2, 6139.8, 6156.4, 6173.2, 6189.6, 6206.2, 6223.3, 6239.9, 6256.6, 6273.3, 6289.9, 6306.3, 6323.1, 6339.7, 6356.8, 6373.3, 6390, 6406.6, 6423.2, 6439.7, 6456.4, 6473.3, 6489.7, 6506.6, 6523.5, 6540.3, 6556.7, 6573.1, 6589.8, 6606.7, 6623.4, 6640.1, 6656.5, 6673.2, 6690, 6706.9, 6723.2, 6740.1, 6756.7, 6773.8, 6790.3, 6807.2, 6823.7, 6840.1, 6856.8, 6873.6, 6890.3, 6906.6, 6923.3, 6940.2, 6956.8, 6973.6, 6990.2, 7006.9, 7023.3, 7040.1, 7056.9, 7074, 7090.6, 7107, 7124, 7140.9, 7157, 7173.9, 7190.3, 7206.9, 7223.6, 7240.3, 7257, 7273.6, 7290.6, 7307.2, 7323.8, 7340.3, 7357, 7373.4, 7390.4, 7406.8, 7423.3, 7440.4, 7457.1, 7473.5, 7490.2, 7507.1, 7523.5, 7540.6, 7557, 7573.7, 7590.4, 7607.7, 7623.7, 7640.5, 7657.5, 7673.8, 7691.3, 7707.2, 7724.8, 7740.9, 7757.3, 7773.7, 7790.3, 7807.2, 7823.9, 7840.8, 7857.9, 7874.1, 7890.7, 7907.3, 7924.2, 7941, 7957.7, 7974.1, 7990.5, 8007.3, 8024.4, 8040.6, 8057.6, 8074.3, 8090.7, 8107.3, 8124.1, 8141.3, 8157.8, 8174.1, 8190.7, 8207.4, 8224.1, 8240.8, 8257.9, 8274, 8290.3, 8307, 8323.7, 8340.5, 8357.4, 8374, 8390.5, 8407.3, 8424.1, 8440.8, 8457.1, 8473.8, 8490.9, 8507.4, 8524.2, 8540.8, 8557.1, 8573.9, 8590.8, 8607.2, 8624.3, 8640.6, 8657.9, 8674.3, 8691, 8707.4, 8724.1, 8740.8, 8757.9, 8774.2, 8791.1, 8807.7, 8824, 8841.2, 8857.4, 8874.2, 8890.8, 8907.6, 8924.1, 8941.2, 8957.6, 8974.2, 8990.8, 9007.8, 9024.4, 9041.1, 9057.8, 9074.4, 9090.9, 9107.6, 9124.3, 9140.9, 9157.9, 9174.5, 9191.4, 9207.8, 9224.4, 9240.8, 9257.9, 9274.2, 9291.3, 9308.1, 9324.2, 9340.8, 9357.4, 9374.2, 9390.8, 9407.5, 9424.9, 9441.2, 9457.8, 9474.3, 9491.2, 9507.6, 9524.8, 9541.6, 9558.2, 9574.5, 9591.4, 9608, 9624.5, 9641.6, 9658.3, 9675, 9692.1, 9708.7, 9725.2, 9741.7, 9757.7, 9774.7, 9791.3, 9808, 9824.7, 9841.7, 9858.2, 9874.8, 9891.4, 9908.7, 9925.3, 9941.8, 9958.2]","[2.1, 10.3, 16.4, 17.1, 16.3, 16.8, 16.7, 17.2, 16.3, 16.3, 17.2, 16.2, 16.8, 16.7, 16.6, 16.5, 16.7, 16.6, 16.7, 16.8, 16.8, 16.7, 16.7, 16.7, 16.7, 16.3, 16.9, 16.8, 16.5, 16.6, 16.6, 16.7, 16.7, 16.9, 16.8, 16.5, 16.5, 16.9, 16.3, 16.9, 16.8, 16.4, 17, 17, 16.3, 16.6, 17, 16.9, 16.4, 16.3, 16.8, 16.9, 16.4, 16.5, 16.8, 16.6, 16.8, 16.5, 16.8, 16.5, 16.7, 16.7, 16.7, 16.9, 16.4, 16.9, 16.8, 16.5, 16.7, 16.7, 16.6, 16.6, 16.8, 16.4, 16.6, 17.1, 16.6, 16.7, 16.7, 16.6, 16.4, 16.8, 16.6, 17.1, 16.5, 16.7, 16.6, 16.6, 16.5, 16.7, 16.9, 16.4, 16.9, 16.9, 16.8, 16.4, 16.4, 16.7, 16.9, 16.7, 16.7, 16.4, 16.7, 16.8, 16.9, 16.3, 16.9, 16.6, 17.1, 16.5, 16.9, 16.5, 16.4, 16.7, 16.8, 16.7, 16.3, 16.7, 16.9, 16.6, 16.8, 16.6, 16.7, 16.4, 16.8, 16.8, 17.1, 16.6, 16.4, 17, 16.9, 16.1, 16.9, 16.4, 16.6, 16.7, 16.7, 16.7, 16.6, 17, 16.6, 16.6, 16.5, 16.7, 16.4, 17, 16.4, 16.5, 17.1, 16.7, 16.4, 16.7, 16.9, 16.4, 17.1, 16.4, 16.7, 16.7, 17.3, 16, 16.8, 17, 16.3, 17.5, 15.9, 17.6, 16.1, 16.4, 16.4, 16.6, 16.9, 16.7, 16.9, 17.1, 16.2, 16.6, 16.6, 16.9, 16.8, 16.7, 16.4, 16.4, 16.8, 17.1, 16.2, 17, 16.7, 16.4, 16.6, 16.8, 17.2, 16.5, 16.3, 16.6, 16.7, 16.7, 16.7, 17.1, 16.1, 16.3, 16.7, 16.7, 16.8, 16.9, 16.6, 16.5, 16.8, 16.8, 16.7, 16.3, 16.7, 17.1, 16.5, 16.8, 16.6, 16.3, 16.8, 16.9, 16.4, 17.1, 16.3, 17.3, 16.4, 16.7, 16.4, 16.7, 16.7, 17.1, 16.3, 16.9, 16.6, 16.3, 17.2, 16.2, 16.8, 16.6, 16.8, 16.5, 17.1, 16.4, 16.6, 16.6, 17, 16.6, 16.7, 16.7, 16.6, 16.5, 16.7, 16.7, 16.6, 17, 16.6, 16.9, 16.4, 16.6, 16.4, 17.1, 16.3, 17.1, 16.8, 16.1, 16.6, 16.6, 16.8, 16.6, 16.7, 17.4, 16.3, 16.6, 16.5, 16.9, 16.4, 17.2, 16.8, 16.6, 16.3, 16.9, 16.6, 16.5, 17.1, 16.7, 16.7, 17.1, 16.6, 16.5, 16.5, 16, 17, 16.6, 16.7, 16.7, 17, 16.5, 16.6, 16.6, 17.3, 16.6, 16.5, 16.4]",60.0,60.0,60.0,4998.1,[],,,,,,,,,,,,,,,,,,,,,,,,,HRV,HRV_0184,2022-11-30 18:45:42
,wl-html-keyboard-response,2,17908,0.0-2.0-0.0,0.0,3.0,,,,,,,,8374.89999999851,0.0,0,,,,,,,,,,,,,,,,,,,,,,HRV,HRV_0184,2022-11-30 18:45:42
,wl-rdm,3,35754,0.0-3.0-0.0,0.0,4.0,,,,,,,[],,,,0.0,0.0,87.9,0.0,u,0.0,True,3596.60000000149,216.0,60.0,40.0,False,too_early too_early ,3000.0,[],"[768, 432]",ColorTask_Demo,,,,,HRV,HRV_0184,2022-11-30 18:45:42
,wl-rdm,4,40905,0.0-3.0-1.0,0.0,5.0,,,,,,,[],,,,0.0,0.0,87.9,1.0,i,1.0,True,1095.9999999962747,66.0,60.0,40.0,False,,2000.0,[],"[768, 432]",ColorTask_Demo,,,,,HRV,HRV_0184,2022-11-30 18:45:42
,wl-html-keyboard-response,5,45693,0.0-3.0-2.0,0.0,6.0,,,,,,,,3067.60000000149,0.0,1,,,,,,,,,,,,,,,,,,,,,,HRV,HRV_0184,2022-11-30 18:45:42
,wl-html-keyboard-response,6,53556,0.0-4.0-0.0,0.0,7.0,,,,,,,,5856.300000000745,0.0,0,,,,,,,,,,,,,,,,,,,,,,HRV,HRV_0184,2022-11-30 18:45:42
,wl-html-keyboard-response,7,61188,0.0-5.0-0.0,0.0,8.0,,,,,,,,5625.199999999255,0.0,0,,,,,,,,,,,,,,,,,,,,,,HRV,HRV_0184,2022-11-30 18:45:42
,wl-rdm,8,64313,0.0-6.0-0.0,0.0,9.0,,,,,,,[],,,,,,62.5,0.0,i,1.0,False,1679.0999999977648,101.0,60.0,40.0,False,,373.55373668981383,[],"[768, 432]",ColorTask,-1.0,1.0,,,HRV,HRV_0184,2022-11-30 18:45:42
,wl-rdm,9,66564,0.0-6.1-0.1,0.0,10.0,,,,,,,[],,,,,,56.4,1.0,i,1.0,True,864.4999999962747,52.0,60.0,40.0,False,,325.5609815677707,[],"[768, 432]",ColorTask,0.0,2.0,,,HRV,HRV_0184,2022-11-30 18:45:42
,wl-rdm,10,68799,0.0-6.2-0.2,0.0,11.0,,,,,,,[],,,,,,62.5,1.0,u,0.0,False,923.4000000022352,56.0,60.0,40.0,False,,242.5142507872082,[],"[768, 432]",ColorTask,-1.0,3.0,,,HRV,HRV_0184,2022-11-30 18:45:42
,wl-rdm,11,71550,0.0-6.3-0.3,0.0,12.0,,,,,,,[],,,,,,50.0,1.0,i,1.0,True,1295.1000000014901,78.0,60.0,40.0,False,,392.0886774074157,[],"[768, 432]",ColorTask,0.0,4.0,,,HRV,HRV_0184,2022-11-30 18:45:42
,wl-rdm,12,73684,0.0-6.4-0.4,0.0,13.0,,,,,,,[],,,,,,73.6,1.0,i,1.0,True,779.1999999992549,47.0,60.0,40.0,False,,285.78828668113005,[],"[768, 432]",ColorTask,1.0,5.0,,,HRV,HRV_0184,2022-11-30 18:45:42
,wl-rdm,13,75851,0.0-6.5-0.5,0.0,14.0,,,,,,,[],,,,,,50.0,1.0,u,0.0,False,878.6000000014901,53.0,60.0,40.0,False,,212.9010442525497,[],"[768, 432]",ColorTask,0.0,6.0,,,HRV,HRV_0184,2022-11-30 18:45:42
,wl-rdm,14,77669,0.0-6.6-0.6,0.0,15.0,,,,,,,[],,,,,,56.4,1.0,i,1.0,True,548.0,33.0,60.0,40.0,False,,210.33349845468211,[],"[768, 432]",ColorTask,1.0,7.0,,,HRV,HRV_0184,2022-11-30 18:45:42
,wl-rdm,15,79653,0.0-6.7-0.7,0.0,16.0,,,,,,,[],,,,,,62.5,1.0,i,1.0,True,640.5,39.0,60.0,40.0,False,,277.923949036815,[],"[768, 432]",ColorTask,2.0,8.0,,,HRV,HRV_0184,2022-11-30 18:45:42
,wl-rdm,16,81653,0.0-6.8-0.8,0.0,17.0,,,,,,,[],,,,,,50.0,0.0,i,1.0,False,541.6000000014901,33.0,60.0,40.0,False,,374.4074722368327,[],"[768, 432]",ColorTask,1.0,9.0,,,HRV,HRV_0184,2022-11-30 18:45:42
,wl-rdm,17,83620,0.0-6.9-0.9,0.0,18.0,,,,,,,[],,,,,,50.0,0.0,i,1.0,False,546.7000000029802,33.0,60.0,40.0,False,,355.24508325704664,[],"[768, 432]",ColorTask,0.0,10.0,,,HRV,HRV_0184,2022-11-30 18:45:42
,wl-rdm,18,85371,0.0-6.10-0.10,0.0,19.0,,,,,,,[],,,,,,73.6,0.0,u,0.0,True,459.5999999977648,28.0,60.0,40.0,False,,217.45955062042964,[],"[768, 432]",ColorTask,1.0,11.0,,,HRV,HRV_0184,2022-11-30 18:45:42
,wl-rdm,19,87589,0.0-6.11-0.11,0.0,20.0,,,,,,,[],,,,,,73.6,0.0,i,1.0,False,907.6000000014901,55.0,60.0,40.0,False,,247.6261061996314,[],"[768, 432]",ColorTask,0.0,12.0,,,HRV,HRV_0184,2022-11-30 18:45:42
,wl-rdm,20,89439,0.0-6.12-0.12,0.0,21.0,,,,,,,[],,,,,,56.4,0.0,u,0.0,True,433.20000000298023,26.0,60.0,40.0,False,,340.23650558570364,[],"[768, 432]",ColorTask,1.0,13.0,,,HRV,HRV_0184,2022-11-30 18:45:42
,wl-rdm,21,91573,0.0-6.13-0.13,0.0,22.0,,,,,,,[],,,,,,73.6,0.0,i,1.0,False,787.7999999970198,48.0,60.0,40.0,False,,257.6010117094951,[],"[768, 432]",ColorTask,0.0,14.0,,,HRV,HRV_0184,2022-11-30 18:45:42
,wl-rdm,22,93625,0.0-6.14-0.14,0.0,23.0,,,,,,,[],,,,,,53.2,0.0,i,1.0,False,687.0000000037253,42.0,60.0,40.0,False,,292.44633215624486,[],"[768, 432]",ColorTask,-1.0,15.0,,,HRV,HRV_0184,2022-11-30 18:45:42
,wl-rdm,23,95592,0.0-6.15-0.15,0.0,24.0,,,,,,,[],,,,,,62.5,0.0,i,1.0,False,614.9000000022352,37.0,60.0,40.0,False,,270.1753391991776,[],"[768, 432]",ColorTask,-2.0,16.0,,,HRV,HRV_0184,2022-11-30 18:45:42
,wl-rdm,24,97309,0.0-6.16-0.16,0.0,25.0,,,,,,,[],,,,,,53.2,0.0,u,0.0,True,356.0999999977648,22.0,60.0,40.0,False,,288.3585686664987,[],"[768, 432]",ColorTask,-1.0,17.0,,,HRV,HRV_0184,2022-11-30 18:45:42
,wl-rdm,25,99310,0.0-6.17-0.17,0.0,26.0,,,,,,,[],,,,,,87.9,1.0,u,0.0,False,662.0999999977648,40.0,60.0,40.0,False,,257.5710109914263,[],"[768, 432]",ColorTask,-2.0,18.0,,,HRV,HRV_0184,2022-11-30 18:45:42
,wl-rdm,26,100927,0.0-6.18-0.18,0.0,27.0,,,,,,,[],,,,,,53.2,1.0,i,1.0,True,328.3999999985099,20.0,60.0,40.0,False,,207.46113347360645,[],"[768, 432]",ColorTask,-1.0,19.0,,,HRV,HRV_0184,2022-11-30 18:45:42
,wl-rdm,27,102528,0.0-6.19-0.19,0.0,28.0,,,,,,,[],,,,,,50.0,0.0,i,1.0,False,320.80000000447035,20.0,60.0,40.0,False,,209.82236718782264,[],"[768, 432]",ColorTask,-2.0,20.0,,,HRV,HRV_0184,2022-11-30 18:45:42
,wl-rdm,28,106664,0.0-6.20-0.20,0.0,29.0,,,,,,,[],,,,,,56.4,0.0,u,0.0,True,2782.300000000745,167.0,60.0,40.0,False,,290.8637116699112,[],"[768, 432]",ColorTask,-1.0,21.0,,,HRV,HRV_0184,2022-11-30 18:45:42
,wl-rdm,29,109614,0.0-6.21-0.21,0.0,30.0,,,,,,,[],,,,,,73.6,1.0,i,1.0,True,1506.0,91.0,60.0,40.0,False,,361.3792173991661,[],"[768, 432]",ColorTask,0.0,22.0,,,HRV,HRV_0184,2022-11-30 18:45:42
,wl-rdm,30,111631,0.0-6.22-0.22,0.0,31.0,,,,,,,[],,,,,,56.4,1.0,i,1.0,True,717.1000000014901,43.0,60.0,40.0,False,,217.103108747524,[],"[768, 432]",ColorTask,1.0,23.0,,,HRV,HRV_0184,2022-11-30 18:45:42
,wl-rdm,31,113382,0.0-6.23-0.23,0.0,32.0,,,,,,,[],,,,,,62.5,0.0,u,0.0,True,420.4000000022352,26.0,60.0,40.0,False,,245.5036508773541,[],"[768, 432]",ColorTask,2.0,24.0,,,HRV,HRV_0184,2022-11-30 18:45:42
,wl-rdm,32,115099,0.0-6.24-0.24,0.0,33.0,,,,,,,[],,,,,,62.5,1.0,i,1.0,True,374.8999999985099,23.0,60.0,40.0,False,,268.90400689136493,[],"[768, 432]",ColorTask,3.0,25.0,,,HRV,HRV_0184,2022-11-30 18:45:42
,wl-rdm,33,117767,0.0-6.25-0.25,0.0,34.0,,,,,,,[],,,,,,62.5,1.0,u,0.0,False,1187.6000000014901,72.0,60.0,40.0,False,,394.65766366986844,[],"[768, 432]",ColorTask,2.0,26.0,,,HRV,HRV_0184,2022-11-30 18:45:42
,wl-rdm,34,119484,0.0-6.26-0.26,0.0,35.0,,,,,,,[],,,,,,50.0,0.0,i,1.0,False,377.0,23.0,60.0,40.0,False,,275.1124538127239,[],"[768, 432]",ColorTask,1.0,27.0,,,HRV,HRV_0184,2022-11-30 18:45:42
,wl-rdm,35,123302,0.0-6.27-0.27,0.0,36.0,,,,,,,[],,,,,,53.2,1.0,i,1.0,True,2454.4999999962747,148.0,60.0,40.0,False,,277.57237239455065,[],"[768, 432]",ColorTask,2.0,28.0,,,HRV,HRV_0184,2022-11-30 18:45:42
,wl-rdm,36,125469,0.0-6.28-0.28,0.0,37.0,,,,,,,[],,,,,,56.4,1.0,u,0.0,False,842.3999999985099,50.0,60.0,40.0,False,,254.43803190409233,[],"[768, 432]",ColorTask,1.0,29.0,,,HRV,HRV_0184,2022-11-30 18:45:42
,wl-rdm,37,127537,0.0-6.29-0.29,0.0,38.0,,,,,,,[],,,,,,87.9,0.0,i,1.0,False,742.8000000044703,45.0,60.0,40.0,False,,250.7686391719138,[],"[768, 432]",ColorTask,0.0,30.0,,,HRV,HRV_0184,2022-11-30 18:45:42
,wl-rdm,38,129254,0.0-6.30-0.30,0.0,39.0,,,,,,,[],,,,,,87.9,1.0,u,0.0,False,307.6000000014901,19.0,60.0,40.0,False,,349.9979214481519,[],"[768, 432]",ColorTask,-1.0,31.0,,,HRV,HRV_0184,2022-11-30 18:45:42
,wl-rdm,39,130955,0.0-6.31-0.31,0.0,40.0,,,,,,,[],,,,,,87.9,1.0,u,0.0,False,287.30000000074506,18.0,60.0,40.0,False,,339.5608964817037,[],"[768, 432]",ColorTask,-2.0,32.0,,,HRV,HRV_0184,2022-11-30 18:45:42
,wl-rdm,40,132539,0.0-6.32-0.32,0.0,41.0,,,,,,,[],,,,,,56.4,0.0,u,0.0,True,254.0000000037253,16.0,60.0,40.0,False,,253.48564546785173,[],"[768, 432]",ColorTask,-1.0,33.0,,,HRV,HRV_0184,2022-11-30 18:45:42
,wl-rdm,41,134540,0.0-6.33-0.33,0.0,42.0,,,,,,,[],,,,,,62.5,0.0,i,1.0,False,587.9000000022352,36.0,60.0,40.0,False,,325.7896526748313,[],"[768, 432]",ColorTask,-2.0,34.0,,,HRV,HRV_0184,2022-11-30 18:45:42
,wl-rdm,42,136340,0.0-6.34-0.34,0.0,43.0,,,,,,,[],,,,,,62.5,0.0,u,0.0,True,478.5,29.0,60.0,40.0,False,,255.68793149494167,[],"[768, 432]",ColorTask,-1.0,35.0,,,HRV,HRV_0184,2022-11-30 18:45:42
,wl-rdm,43,138541,0.0-6.35-0.35,0.0,44.0,,,,,,,[],,,,,,50.0,0.0,i,1.0,False,809.4000000022352,49.0,60.0,40.0,False,,329.2000868359959,[],"[768, 432]",ColorTask,-2.0,36.0,,,HRV,HRV_0184,2022-11-30 18:45:42
,wl-rdm,44,140875,0.0-6.36-0.36,0.0,45.0,,,,,,,[],,,,,,62.5,1.0,u,0.0,False,939.5,57.0,60.0,40.0,False,,313.0694671187307,[],"[768, 432]",ColorTask,-3.0,37.0,,,HRV,HRV_0184,2022-11-30 18:45:42
,wl-rdm,45,142143,0.0-6.37-0.37,0.0,45.0,,,,,,,[],,,,,,56.4,1.0,i,,,736.1999999992549,0.0,60.0,40.0,True,too_early ,330.713818456657,[],"[768, 432]",ColorTask,-4.0,38.0,,,HRV,HRV_0184,2022-11-30 18:45:42
,wl-rdm,46,143726,0.0-6.38-0.38,0.0,46.0,,,,,,,[],,,,,,73.6,1.0,u,0.0,False,271.0999999977648,17.0,60.0,40.0,False,,229.2116911822436,[],"[768, 432]",ColorTask,-5.0,39.0,,,HRV,HRV_0184,2022-11-30 18:45:42
,wl-rdm,47,145827,0.0-6.39-0.39,0.0,47.0,,,,,,,[],,,,,,53.2,0.0,u,0.0,True,642.3000000007451,39.0,60.0,40.0,False,,387.55599761168975,[],"[768, 432]",ColorTask,-4.0,40.0,,,HRV,HRV_0184,2022-11-30 18:45:42
,wl-rdm,48,147628,0.0-6.40-0.40,0.0,48.0,,,,,,,[],,,,,,56.4,0.0,i,1.0,False,493.5999999977648,30.0,60.0,40.0,False,,239.09344964596417,[],"[768, 432]",ColorTask,-5.0,41.0,,,HRV,HRV_0184,2022-11-30 18:45:42
,wl-rdm,49,148778,0.0-6.41-0.41,0.0,48.0,,,,,,,[],,,,,,50.0,1.0,u,,,619.8000000007451,0.0,60.0,40.0,True,too_early ,209.40823451741892,[],"[768, 432]",ColorTask,-6.0,42.0,,,HRV,HRV_0184,2022-11-30 18:45:42
,wl-rdm,50,149945,0.0-6.42-0.42,0.0,48.0,,,,,,,[],,,,,,62.5,1.0,i,,,615.0999999977648,0.0,60.0,40.0,True,too_early ,237.2462913857667,[],"[768, 432]",ColorTask,-7.0,43.0,,,HRV,HRV_0184,2022-11-30 18:45:42
,wl-rdm,51,152430,0.0-6.43-0.43,0.0,49.0,,,,,,,[],,,,,,53.2,1.0,u,0.0,False,1147.1000000014901,69.0,60.0,40.0,False,,270.4590624334037,[],"[768, 432]",ColorTask,-8.0,44.0,,,HRV,HRV_0184,2022-11-30 18:45:42
,wl-rdm,52,154680,0.0-6.44-0.44,0.0,50.0,,,,,,,[],,,,,,53.2,0.0,i,1.0,False,978.3000000007451,59.0,60.0,40.0,False,,207.5864480540733,[],"[768, 432]",ColorTask,-9.0,45.0,,,HRV,HRV_0184,2022-11-30 18:45:42
,wl-rdm,53,157532,0.0-6.45-0.45,0.0,51.0,,,,,,,[],,,,,,50.0,1.0,i,1.0,True,1453.3999999985099,86.0,60.0,40.0,False,,319.3015038582913,[],"[768, 432]",ColorTask,-8.0,46.0,,,HRV,HRV_0184,2022-11-30 18:45:42
,wl-rdm,54,160066,0.0-6.46-0.46,0.0,52.0,,,,,,,[],,,,,,56.4,1.0,u,0.0,False,1216.199999999255,73.0,60.0,40.0,False,,257.5163918505019,[],"[768, 432]",ColorTask,-9.0,47.0,,,HRV,HRV_0184,2022-11-30 18:45:42
,wl-rdm,55,162300,0.0-6.47-0.47,0.0,53.0,,,,,,,[],,,,,,53.2,1.0,u,0.0,False,928.9000000022352,56.0,60.0,40.0,False,,249.69339567521394,[],"[768, 432]",ColorTask,-10.0,48.0,,,HRV,HRV_0184,2022-11-30 18:45:42
,wl-rdm,56,166635,0.0-6.48-0.48,0.0,53.0,,,,,,,[],,,,,,56.4,0.0,,,,,179.0,60.0,40.0,True,RT_timeout ,256.4617496237423,[],"[768, 432]",ColorTask,-11.0,49.0,,,HRV,HRV_0184,2022-11-30 18:45:42
,wl-rdm,57,168202,0.0-6.49-0.49,0.0,54.0,,,,,,,[],,,,,,50.0,1.0,u,0.0,False,179.10000000149012,11.0,60.0,40.0,False,,318.6943504840273,[],"[768, 432]",ColorTask,-12.0,50.0,,,HRV,HRV_0184,2022-11-30 18:45:42
,wl-rdm,58,170737,0.0-6.50-0.50,0.0,55.0,,,,,,,[],,,,,,50.0,1.0,i,1.0,True,1148.1000000014901,69.0,60.0,40.0,False,,322.61025142112646,[],"[768, 432]",ColorTask,-11.0,51.0,,,HRV,HRV_0184,2022-11-30 18:45:42
,wl-rdm,59,172704,0.0-6.51-0.51,0.0,56.0,,,,,,,[],,,,,,62.5,0.0,i,1.0,False,659.6000000014901,40.0,60.0,40.0,False,,248.86931859335934,[],"[768, 432]",ColorTask,-12.0,52.0,,,HRV,HRV_0184,2022-11-30 18:45:42
,wl-rdm,60,174588,0.0-6.52-0.52,0.0,57.0,,,,,,,[],,,,,,73.6,0.0,u,0.0,True,479.1000000014901,29.0,60.0,40.0,False,,329.80424102000075,[],"[768, 432]",ColorTask,-11.0,53.0,,,HRV,HRV_0184,2022-11-30 18:45:42
,wl-rdm,61,176705,0.0-6.53-0.53,0.0,58.0,,,,,,,[],,,,,,50.0,0.0,u,0.0,True,664.1999999992549,40.0,60.0,40.0,False,,384.6703003168056,[],"[768, 432]",ColorTask,-10.0,54.0,,,HRV,HRV_0184,2022-11-30 18:45:42
,wl-rdm,62,178589,0.0-6.54-0.54,0.0,59.0,,,,,,,[],,,,,,73.6,0.0,u,0.0,True,457.0,28.0,60.0,40.0,False,,337.6186357262534,[],"[768, 432]",ColorTask,-9.0,55.0,,,HRV,HRV_0184,2022-11-30 18:45:42
,wl-rdm,63,180624,0.0-6.55-0.55,0.0,60.0,,,,,,,[],,,,,,73.6,1.0,i,1.0,True,712.0,43.0,60.0,40.0,False,,244.09609757628917,[],"[768, 432]",ColorTask,-8.0,56.0,,,HRV,HRV_0184,2022-11-30 18:45:42
,wl-rdm,64,182791,0.0-6.56-0.56,0.0,61.0,,,,,,,[],,,,,,87.9,0.0,u,0.0,True,879.3999999985099,53.0,60.0,40.0,False,,200.81680531443354,[],"[768, 432]",ColorTask,-7.0,57.0,,,HRV,HRV_0184,2022-11-30 18:45:42
,wl-rdm,65,184742,0.0-6.57-0.57,0.0,62.0,,,,,,,[],,,,,,87.9,1.0,i,1.0,True,614.0,37.0,60.0,40.0,False,,268.27918220131096,[],"[768, 432]",ColorTask,-6.0,58.0,,,HRV,HRV_0184,2022-11-30 18:45:42
,wl-rdm,66,187359,0.0-6.58-0.58,0.0,63.0,,,,,,,[],,,,,,53.2,0.0,i,1.0,False,1260.5,76.0,60.0,40.0,False,,289.39061424919873,[],"[768, 432]",ColorTask,-7.0,59.0,,,HRV,HRV_0184,2022-11-30 18:45:42
,wl-rdm,67,189343,0.0-6.59-0.59,0.0,64.0,,,,,,,[],,,,,,50.0,1.0,i,1.0,True,657.1999999992549,40.0,60.0,40.0,False,,249.91419103462886,[],"[768, 432]",ColorTask,-6.0,60.0,,,HRV,HRV_0184,2022-11-30 18:45:42
,wl-rdm,68,191544,0.0-6.60-0.60,0.0,65.0,,,,,,,[],,,,,,50.0,0.0,i,1.0,False,745.0,45.0,60.0,40.0,False,,366.94216945103625,[],"[768, 432]",ColorTask,-7.0,61.0,,,HRV,HRV_0184,2022-11-30 18:45:42
,wl-rdm,69,193678,0.0-6.61-0.61,0.0,66.0,,,,,,,[],,,,,,62.5,0.0,u,0.0,True,737.1000000014901,45.0,60.0,40.0,False,,328.02219314688796,[],"[768, 432]",ColorTask,-6.0,62.0,,,HRV,HRV_0184,2022-11-30 18:45:42
,wl-rdm,70,195746,0.0-6.62-0.62,0.0,67.0,,,,,,,[],,,,,,87.9,0.0,u,0.0,True,620.6999999992549,38.0,60.0,40.0,False,,371.84021005230784,[],"[768, 432]",ColorTask,-5.0,63.0,,,HRV,HRV_0184,2022-11-30 18:45:42
,wl-rdm,71,197746,0.0-6.63-0.63,0.0,68.0,,,,,,,[],,,,,,56.4,1.0,i,1.0,True,620.5,38.0,60.0,40.0,False,,304.88809861607166,[],"[768, 432]",ColorTask,-4.0,64.0,,,HRV,HRV_0184,2022-11-30 18:45:42
,wl-rdm,72,199731,0.0-6.64-0.64,0.0,69.0,,,,,,,[],,,,,,87.9,1.0,i,1.0,True,694.7000000029802,42.0,60.0,40.0,False,,217.02929760339433,[],"[768, 432]",ColorTask,-3.0,65.0,,,HRV,HRV_0184,2022-11-30 18:45:42
,wl-rdm,73,201831,0.0-6.65-0.65,0.0,70.0,,,,,,,[],,,,,,73.6,1.0,i,1.0,True,620.9000000022352,38.0,60.0,40.0,False,,387.5792365189898,[],"[768, 432]",ColorTask,-2.0,66.0,,,HRV,HRV_0184,2022-11-30 18:45:42
,wl-rdm,74,204298,0.0-6.66-0.66,0.0,71.0,,,,,,,[],,,,,,73.6,0.0,u,0.0,True,1009.8000000007451,61.0,60.0,40.0,False,,395.51460758534455,[],"[768, 432]",ColorTask,-1.0,67.0,,,HRV,HRV_0184,2022-11-30 18:45:42
,wl-rdm,75,206399,0.0-6.67-0.67,0.0,72.0,,,,,,,[],,,,,,56.4,0.0,i,1.0,False,831.0999999977648,50.0,60.0,40.0,False,,205.30862572822824,[],"[768, 432]",ColorTask,-2.0,68.0,,,HRV,HRV_0184,2022-11-30 18:45:42
,wl-rdm,76,208417,0.0-6.68-0.68,0.0,73.0,,,,,,,[],,,,,,87.9,0.0,u,0.0,True,712.7000000029802,43.0,60.0,40.0,False,,238.9216673013798,[],"[768, 432]",ColorTask,-1.0,69.0,,,HRV,HRV_0184,2022-11-30 18:45:42
,wl-rdm,77,210434,0.0-6.69-0.69,0.0,74.0,,,,,,,[],,,,,,87.9,0.0,u,0.0,True,645.4000000022352,39.0,60.0,40.0,False,,311.76280515850846,[],"[768, 432]",ColorTask,0.0,70.0,,,HRV,HRV_0184,2022-11-30 18:45:42
,wl-rdm,78,213002,0.0-6.70-0.70,0.0,75.0,,,,,,,[],,,,,,53.2,1.0,i,1.0,True,1181.699999999255,71.0,60.0,40.0,False,,325.6144968703212,[],"[768, 432]",ColorTask,1.0,71.0,,,HRV,HRV_0184,2022-11-30 18:45:42
,wl-rdm,79,215036,0.0-6.71-0.71,0.0,76.0,,,,,,,[],,,,,,50.0,1.0,i,1.0,True,707.6999999992549,43.0,60.0,40.0,False,,260.16608356801004,[],"[768, 432]",ColorTask,2.0,72.0,,,HRV,HRV_0184,2022-11-30 18:45:42
,wl-rdm,80,216936,0.0-6.72-0.72,0.0,77.0,,,,,,,[],,,,,,73.6,1.0,i,1.0,True,580.3000000007451,35.0,60.0,40.0,False,,250.43867385989248,[],"[768, 432]",ColorTask,3.0,73.0,,,HRV,HRV_0184,2022-11-30 18:45:42
,wl-rdm,81,218771,0.0-6.73-0.73,0.0,78.0,,,,,,,[],,,,,,56.4,1.0,i,1.0,True,506.8999999985099,31.0,60.0,40.0,False,,259.72592046110657,[],"[768, 432]",ColorTask,4.0,74.0,,,HRV,HRV_0184,2022-11-30 18:45:42
,wl-rdm,82,220938,0.0-6.74-0.74,0.0,79.0,,,,,,,[],,,,,,56.4,0.0,i,1.0,False,770.1000000014901,47.0,60.0,40.0,False,,306.53738127004726,[],"[768, 432]",ColorTask,3.0,75.0,,,HRV,HRV_0184,2022-11-30 18:45:42
,wl-rdm,83,223039,0.0-6.75-0.75,0.0,80.0,,,,,,,[],,,,,,53.2,0.0,u,0.0,True,732.3000000007451,44.0,60.0,40.0,False,,316.5241137047801,[],"[768, 432]",ColorTask,4.0,76.0,,,HRV,HRV_0184,2022-11-30 18:45:42
,wl-rdm,84,225123,0.0-6.76-0.76,0.0,81.0,,,,,,,[],,,,,,73.6,1.0,u,0.0,False,653.6999999992549,40.0,60.0,40.0,False,,354.42250119176447,[],"[768, 432]",ColorTask,3.0,77.0,,,HRV,HRV_0184,2022-11-30 18:45:42
,wl-rdm,85,226874,0.0-6.77-0.77,0.0,82.0,,,,,,,[],,,,,,56.4,1.0,i,1.0,True,460.19999999925494,28.0,60.0,40.0,False,,227.50399735617808,[],"[768, 432]",ColorTask,4.0,78.0,,,HRV,HRV_0184,2022-11-30 18:45:42
,wl-rdm,86,228857,0.0-6.78-0.78,0.0,83.0,,,,,,,[],,,,,,87.9,0.0,i,1.0,False,537.3000000044703,33.0,60.0,40.0,False,,368.72808972443414,[],"[768, 432]",ColorTask,3.0,79.0,,,HRV,HRV_0184,2022-11-30 18:45:42
,wl-rdm,87,230641,0.0-6.79-0.79,0.0,84.0,,,,,,,[],,,,,,73.6,0.0,u,0.0,True,490.20000000298023,30.0,60.0,40.0,False,,229.376904726208,[],"[768, 432]",ColorTask,4.0,80.0,,,HRV,HRV_0184,2022-11-30 18:45:42
,wl-rdm,88,232576,0.0-6.80-0.80,0.0,85.0,,,,,,,[],,,,,,62.5,0.0,u,0.0,True,611.3999999985099,37.0,60.0,40.0,False,,254.30770448957236,[],"[768, 432]",ColorTask,5.0,81.0,,,HRV,HRV_0184,2022-11-30 18:45:42
,wl-rdm,89,234594,0.0-6.81-0.81,0.0,86.0,,,,,,,[],,,,,,53.2,1.0,i,1.0,True,742.6999999992549,45.0,60.0,40.0,False,,212.85710684171266,[],"[768, 432]",ColorTask,6.0,82.0,,,HRV,HRV_0184,2022-11-30 18:45:42
,wl-rdm,90,236527,0.0-6.82-0.82,0.0,87.0,,,,,,,[],,,,,,56.4,0.0,i,1.0,False,605.6999999992549,37.0,60.0,40.0,False,,263.18906351725144,[],"[768, 432]",ColorTask,5.0,83.0,,,HRV,HRV_0184,2022-11-30 18:45:42
,wl-rdm,91,238679,0.0-6.83-0.83,0.0,88.0,,,,,,,[],,,,,,73.6,1.0,i,1.0,True,843.4000000022352,51.0,60.0,40.0,False,,243.95842086613547,[],"[768, 432]",ColorTask,6.0,84.0,,,HRV,HRV_0184,2022-11-30 18:45:42
,wl-rdm,92,240879,0.0-6.84-0.84,0.0,89.0,,,,,,,[],,,,,,50.0,1.0,i,1.0,True,778.4000000022352,47.0,60.0,40.0,False,,362.65568838654644,[],"[768, 432]",ColorTask,7.0,85.0,,,HRV,HRV_0184,2022-11-30 18:45:42
,wl-rdm,93,242846,0.0-6.85-0.85,0.0,90.0,,,,,,,[],,,,,,62.5,1.0,i,1.0,True,647.1000000014901,39.0,60.0,40.0,False,,266.30827449438254,[],"[768, 432]",ColorTask,8.0,86.0,,,HRV,HRV_0184,2022-11-30 18:45:42
,wl-rdm,94,244847,0.0-6.86-0.86,0.0,91.0,,,,,,,[],,,,,,53.2,0.0,i,1.0,False,684.6999999992549,41.0,60.0,40.0,False,,241.4712052102965,[],"[768, 432]",ColorTask,7.0,87.0,,,HRV,HRV_0184,2022-11-30 18:45:42
,wl-rdm,95,247931,0.0-6.87-0.87,0.0,92.0,,,,,,,[],,,,,,62.5,1.0,i,1.0,True,1688.2000000029802,102.0,60.0,40.0,False,,317.1318255196168,[],"[768, 432]",ColorTask,8.0,88.0,,,HRV,HRV_0184,2022-11-30 18:45:42
,wl-rdm,96,250132,0.0-6.88-0.88,0.0,93.0,,,,,,,[],,,,,,62.5,1.0,i,1.0,True,728.0999999977648,44.0,60.0,40.0,False,,398.1213551367232,[],"[768, 432]",ColorTask,9.0,89.0,,,HRV,HRV_0184,2022-11-30 18:45:42
,wl-rdm,97,252000,0.0-6.89-0.89,0.0,94.0,,,,,,,[],,,,,,56.4,1.0,i,1.0,True,592.3000000007451,36.0,60.0,40.0,False,,207.10816184734148,[],"[768, 432]",ColorTask,10.0,90.0,,,HRV,HRV_0184,2022-11-30 18:45:42
,wl-rdm,98,253834,0.0-6.90-0.90,0.0,95.0,,,,,,,[],,,,,,87.9,1.0,i,1.0,True,531.3000000044703,32.0,60.0,40.0,False,,229.61606596083337,[],"[768, 432]",ColorTask,11.0,91.0,,,HRV,HRV_0184,2022-11-30 18:45:42
,wl-rdm,99,255818,0.0-6.91-0.91,0.0,96.0,,,,,,,[],,,,,,87.9,0.0,u,0.0,True,541.5,33.0,60.0,40.0,False,,371.9111174709671,[],"[768, 432]",ColorTask,12.0,92.0,,,HRV,HRV_0184,2022-11-30 18:45:42
,wl-rdm,100,258186,0.0-6.92-0.92,0.0,97.0,,,,,,,[],,,,,,53.2,1.0,i,1.0,True,1040.2000000029802,63.0,60.0,40.0,False,,251.8856155775947,[],"[768, 432]",ColorTask,13.0,93.0,,,HRV,HRV_0184,2022-11-30 18:45:42
,wl-rdm,101,260420,0.0-6.93-0.93,0.0,98.0,,,,,,,[],,,,,,87.9,0.0,u,0.0,True,823.5999999977648,50.0,60.0,40.0,False,,341.62142810563387,[],"[768, 432]",ColorTask,14.0,94.0,,,HRV,HRV_0184,2022-11-30 18:45:42
,wl-rdm,102,262671,0.0-6.94-0.94,0.0,99.0,,,,,,,[],,,,,,87.9,1.0,i,1.0,True,876.6000000014901,53.0,60.0,40.0,False,,285.65342012997826,[],"[768, 432]",ColorTask,15.0,95.0,,,HRV,HRV_0184,2022-11-30 18:45:42
,wl-rdm,103,264922,0.0-6.95-0.95,0.0,100.0,,,,,,,[],,,,,,73.6,0.0,u,0.0,True,939.2000000029802,57.0,60.0,40.0,False,,241.49798279948735,[],"[768, 432]",ColorTask,16.0,96.0,,,HRV,HRV_0184,2022-11-30 18:45:42
,wl-rdm,104,269257,0.0-6.96-0.96,0.0,100.0,,,,,,,[],,,,,,56.4,0.0,,,,,179.0,60.0,40.0,True,RT_timeout ,235.60216005290167,[],"[768, 432]",ColorTask,15.0,97.0,,,HRV,HRV_0184,2022-11-30 18:45:42
,wl-rdm,105,271741,0.0-6.97-0.97,0.0,101.0,,,,,,,[],,,,,,62.5,1.0,i,1.0,True,1044.8999999985099,63.0,60.0,40.0,False,,367.0850023072687,[],"[768, 432]",ColorTask,16.0,98.0,,,HRV,HRV_0184,2022-11-30 18:45:42
,wl-rdm,106,273775,0.0-6.98-0.98,0.0,102.0,,,,,,,[],,,,,,87.9,1.0,i,1.0,True,728.8999999985099,44.0,60.0,40.0,False,,222.0895557233117,[],"[768, 432]",ColorTask,17.0,99.0,,,HRV,HRV_0184,2022-11-30 18:45:42
,wl-rdm,107,276142,0.0-6.99-0.99,0.0,103.0,,,,,,,[],,,,,,56.4,0.0,u,0.0,True,937.5,57.0,60.0,40.0,False,,340.0944582147401,[],"[768, 432]",ColorTask,18.0,100.0,,,HRV,HRV_0184,2022-11-30 18:45:42
,wl-rdm,108,278360,0.0-6.100-0.100,0.0,104.0,,,,,,,[],,,,,,53.2,1.0,u,0.0,False,887.0,54.0,60.0,40.0,False,,261.9715994349191,[],"[768, 432]",ColorTask,17.0,101.0,,,HRV,HRV_0184,2022-11-30 18:45:42
,wl-rdm,109,280677,0.0-6.101-0.101,0.0,105.0,,,,,,,[],,,,,,50.0,0.0,u,0.0,True,1023.8000000044703,62.0,60.0,40.0,False,,222.70245232935335,[],"[768, 432]",ColorTask,18.0,102.0,,,HRV,HRV_0184,2022-11-30 18:45:42
,wl-rdm,110,282678,0.0-6.102-0.102,0.0,106.0,,,,,,,[],,,,,,73.6,0.0,u,0.0,True,713.8000000044703,43.0,60.0,40.0,False,,222.86000447268896,[],"[768, 432]",ColorTask,19.0,103.0,,,HRV,HRV_0184,2022-11-30 18:45:42
,wl-rdm,111,284779,0.0-6.103-0.103,0.0,107.0,,,,,,,[],,,,,,56.4,0.0,u,0.0,True,813.1999999955297,49.0,60.0,40.0,False,,220.14772360011446,[],"[768, 432]",ColorTask,20.0,104.0,,,HRV,HRV_0184,2022-11-30 18:45:42
,wl-rdm,112,287047,0.0-6.104-0.104,0.0,108.0,,,,,,,[],,,,,,53.2,0.0,i,1.0,False,972.3000000007451,59.0,60.0,40.0,False,,212.89940931312205,[],"[768, 432]",ColorTask,19.0,105.0,,,HRV,HRV_0184,2022-11-30 18:45:42
,wl-rdm,113,289247,0.0-6.105-0.105,0.0,109.0,,,,,,,[],,,,,,50.0,1.0,u,0.0,False,854.0999999977648,52.0,60.0,40.0,False,,258.1605587969136,[],"[768, 432]",ColorTask,18.0,106.0,,,HRV,HRV_0184,2022-11-30 18:45:42
,wl-rdm,114,291348,0.0-6.106-0.106,0.0,110.0,,,,,,,[],,,,,,62.5,0.0,u,0.0,True,821.4999999962747,50.0,60.0,40.0,False,,204.30992734456146,[],"[768, 432]",ColorTask,19.0,107.0,,,HRV,HRV_0184,2022-11-30 18:45:42
,wl-rdm,115,293649,0.0-6.107-0.107,0.0,111.0,,,,,,,[],,,,,,53.2,0.0,u,0.0,True,870.8999999985099,53.0,60.0,40.0,False,,353.5031688521843,[],"[768, 432]",ColorTask,20.0,108.0,,,HRV,HRV_0184,2022-11-30 18:45:42
,wl-rdm,116,295766,0.0-6.108-0.108,0.0,112.0,,,,,,,[],,,,,,73.6,1.0,i,1.0,True,664.1999999992549,40.0,60.0,40.0,False,,395.88839910991805,[],"[768, 432]",ColorTask,21.0,109.0,,,HRV,HRV_0184,2022-11-30 18:45:42
,wl-rdm,117,298200,0.0-6.109-0.109,0.0,113.0,,,,,,,[],,,,,,50.0,0.0,i,1.0,False,1093.199999999255,66.0,60.0,40.0,False,,263.90485605164974,[],"[768, 432]",ColorTask,20.0,110.0,,,HRV,HRV_0184,2022-11-30 18:45:42
,wl-rdm,118,300085,0.0-6.110-0.110,0.0,114.0,,,,,,,[],,,,,,53.2,1.0,i,1.0,True,546.3999999985099,33.0,60.0,40.0,False,,277.3261833094565,[],"[768, 432]",ColorTask,21.0,111.0,,,HRV,HRV_0184,2022-11-30 18:45:42
,wl-rdm,119,301919,0.0-6.111-0.111,0.0,115.0,,,,,,,[],,,,,,87.9,1.0,i,1.0,True,493.19999999925494,30.0,60.0,40.0,False,,280.92543647908934,[],"[768, 432]",ColorTask,22.0,112.0,,,HRV,HRV_0184,2022-11-30 18:45:42
,wl-rdm,120,303836,0.0-6.112-0.112,0.0,116.0,,,,,,,[],,,,,,87.9,0.0,u,0.0,True,619.8000000007451,38.0,60.0,40.0,False,,226.00899428659898,[],"[768, 432]",ColorTask,23.0,113.0,,,HRV,HRV_0184,2022-11-30 18:45:42
,wl-html-keyboard-response,121,311764,0.0-7.0-0.0,1.0,117.0,,,,,,,,5906.0,1.0,0,,,,,,,,,,,,,,,,,,,,,,HRV,HRV_0184,2022-11-30 18:45:42
,wl-rdm,122,313873,0.0-8.0-0.0,1.0,118.0,,,,,,,[],,,,,,56.4,1.0,i,1.0,True,804.6000000014901,49.0,60.0,40.0,False,,232.15640720649432,[],"[768, 432]",ColorTask,24.0,1.0,,,HRV,HRV_0184,2022-11-30 18:45:42
,wl-rdm,123,315823,0.0-8.1-0.1,1.0,119.0,,,,,,,[],,,,,,50.0,0.0,i,1.0,False,638.5,39.0,60.0,40.0,False,,220.2379576495696,[],"[768, 432]",ColorTask,23.0,2.0,,,HRV,HRV_0184,2022-11-30 18:45:42
,wl-rdm,124,317824,0.0-8.2-0.2,1.0,120.0,,,,,,,[],,,,,,50.0,1.0,i,1.0,True,703.8000000007451,43.0,60.0,40.0,False,,217.6122578710815,[],"[768, 432]",ColorTask,24.0,3.0,,,HRV,HRV_0184,2022-11-30 18:45:42
,wl-rdm,125,319742,0.0-8.3-0.3,1.0,121.0,,,,,,,[],,,,,,73.6,0.0,u,0.0,True,526.2999999970198,32.0,60.0,40.0,False,,326.2682517207556,[],"[768, 432]",ColorTask,25.0,4.0,,,HRV,HRV_0184,2022-11-30 18:45:42
,wl-rdm,126,321759,0.0-8.4-0.4,1.0,122.0,,,,,,,[],,,,,,73.6,1.0,i,1.0,True,597.1999999992549,36.0,60.0,40.0,False,,364.4852317524376,[],"[768, 432]",ColorTask,26.0,5.0,,,HRV,HRV_0184,2022-11-30 18:45:42
,wl-rdm,127,323693,0.0-8.5-0.5,1.0,123.0,,,,,,,[],,,,,,53.2,1.0,i,1.0,True,533.1999999992549,32.0,60.0,40.0,False,,327.4481214823903,[],"[768, 432]",ColorTask,27.0,6.0,,,HRV,HRV_0184,2022-11-30 18:45:42
,wl-rdm,128,325527,0.0-8.6-0.6,1.0,124.0,,,,,,,[],,,,,,53.2,1.0,i,1.0,True,512.0,31.0,60.0,40.0,False,,237.077786631417,[],"[768, 432]",ColorTask,28.0,7.0,,,HRV,HRV_0184,2022-11-30 18:45:42
,wl-rdm,129,327528,0.0-8.7-0.7,1.0,125.0,,,,,,,[],,,,,,50.0,0.0,u,0.0,True,608.1999999992549,37.0,60.0,40.0,False,,309.8687781195358,[],"[768, 432]",ColorTask,29.0,8.0,,,HRV,HRV_0184,2022-11-30 18:45:42
,wl-rdm,130,329912,0.0-8.8-0.8,1.0,126.0,,,,,,,[],,,,,,53.2,1.0,i,1.0,True,986.6000000014901,60.0,60.0,40.0,False,,319.8078153815391,[],"[768, 432]",ColorTask,30.0,9.0,,,HRV,HRV_0184,2022-11-30 18:45:42
,wl-rdm,131,331846,0.0-8.9-0.9,1.0,127.0,,,,,,,[],,,,,,56.4,1.0,i,1.0,True,555.4000000022352,34.0,60.0,40.0,False,,287.6851224483173,[],"[768, 432]",ColorTask,31.0,10.0,,,HRV,HRV_0184,2022-11-30 18:45:42
,wl-rdm,132,333830,0.0-8.10-0.10,1.0,128.0,,,,,,,[],,,,,,73.6,1.0,i,1.0,True,559.7000000029802,34.0,60.0,40.0,False,,363.32027476024996,[],"[768, 432]",ColorTask,32.0,11.0,,,HRV,HRV_0184,2022-11-30 18:45:42
,wl-rdm,133,336098,0.0-8.11-0.11,1.0,129.0,,,,,,,[],,,,,,56.4,0.0,i,1.0,False,808.0,49.0,60.0,40.0,False,,370.6384100585493,[],"[768, 432]",ColorTask,31.0,12.0,,,HRV,HRV_0184,2022-11-30 18:45:42
,wl-rdm,134,338098,0.0-8.12-0.12,1.0,130.0,,,,,,,[],,,,,,53.2,0.0,i,1.0,False,722.0000000037253,44.0,60.0,40.0,False,,205.76624054729749,[],"[768, 432]",ColorTask,30.0,13.0,,,HRV,HRV_0184,2022-11-30 18:45:42
,wl-rdm,135,340299,0.0-8.13-0.13,1.0,131.0,,,,,,,[],,,,,,73.6,1.0,u,0.0,False,721.6000000014901,44.0,60.0,40.0,False,,389.92151069736326,[],"[768, 432]",ColorTask,29.0,14.0,,,HRV,HRV_0184,2022-11-30 18:45:42
,wl-rdm,136,342567,0.0-8.14-0.14,1.0,132.0,,,,,,,[],,,,,,56.4,0.0,i,1.0,False,963.0,58.0,60.0,40.0,False,,222.2446365681224,[],"[768, 432]",ColorTask,28.0,15.0,,,HRV,HRV_0184,2022-11-30 18:45:42
,wl-rdm,137,344701,0.0-8.15-0.15,1.0,133.0,,,,,,,[],,,,,,50.0,0.0,i,1.0,False,703.4000000022352,43.0,60.0,40.0,False,,364.6742194434554,[],"[768, 432]",ColorTask,27.0,16.0,,,HRV,HRV_0184,2022-11-30 18:45:42
,wl-rdm,138,346835,0.0-8.16-0.16,1.0,134.0,,,,,,,[],,,,,,56.4,0.0,i,1.0,False,820.6999999992549,50.0,60.0,40.0,False,,233.83801563149842,[],"[768, 432]",ColorTask,26.0,17.0,,,HRV,HRV_0184,2022-11-30 18:45:42
,wl-rdm,139,349420,0.0-8.17-0.17,1.0,135.0,,,,,,,[],,,,,,50.0,1.0,i,1.0,True,1155.7999999970198,70.0,60.0,40.0,False,,355.0639182899814,[],"[768, 432]",ColorTask,27.0,18.0,,,HRV,HRV_0184,2022-11-30 18:45:42
,wl-rdm,140,351353,0.0-8.18-0.18,1.0,136.0,,,,,,,[],,,,,,62.5,0.0,i,1.0,False,600.3999999985099,36.0,60.0,40.0,False,,252.96449869426624,[],"[768, 432]",ColorTask,26.0,19.0,,,HRV,HRV_0184,2022-11-30 18:45:42
,wl-rdm,141,353821,0.0-8.19-0.19,1.0,137.0,,,,,,,[],,,,,,62.5,1.0,i,1.0,True,1021.7000000029802,62.0,60.0,40.0,False,,374.9094114223368,[],"[768, 432]",ColorTask,27.0,20.0,,,HRV,HRV_0184,2022-11-30 18:45:42
,wl-rdm,142,355855,0.0-8.20-0.20,1.0,138.0,,,,,,,[],,,,,,53.2,1.0,i,1.0,True,749.2000000029802,45.0,60.0,40.0,False,,230.99771243278548,[],"[768, 432]",ColorTask,28.0,21.0,,,HRV,HRV_0184,2022-11-30 18:45:42
,wl-rdm,143,358023,0.0-8.21-0.21,1.0,139.0,,,,,,,[],,,,,,87.9,0.0,u,0.0,True,779.3000000007451,47.0,60.0,40.0,False,,332.20079351986465,[],"[768, 432]",ColorTask,29.0,22.0,,,HRV,HRV_0184,2022-11-30 18:45:42
,wl-rdm,144,361090,0.0-8.22-0.22,1.0,140.0,,,,,,,[],,,,,,53.2,0.0,i,1.0,False,1609.5,97.0,60.0,40.0,False,,398.0798933319818,[],"[768, 432]",ColorTask,28.0,23.0,,,HRV,HRV_0184,2022-11-30 18:45:42
,wl-rdm,145,363208,0.0-8.23-0.23,1.0,141.0,,,,,,,[],,,,,,73.6,1.0,i,1.0,True,756.0,46.0,60.0,40.0,False,,296.5611998794828,[],"[768, 432]",ColorTask,29.0,24.0,,,HRV,HRV_0184,2022-11-30 18:45:42
,wl-rdm,146,365242,0.0-8.24-0.24,1.0,142.0,,,,,,,[],,,,,,62.5,0.0,i,1.0,False,642.6999999992549,39.0,60.0,40.0,False,,323.76716310197,[],"[768, 432]",ColorTask,28.0,25.0,,,HRV,HRV_0184,2022-11-30 18:45:42
,wl-rdm,147,367909,0.0-8.25-0.25,1.0,143.0,,,,,,,[],,,,,,56.4,0.0,u,0.0,True,1396.7999999970198,84.0,60.0,40.0,False,,207.31966705819454,[],"[768, 432]",ColorTask,29.0,26.0,,,HRV,HRV_0184,2022-11-30 18:45:42
,wl-rdm,148,370110,0.0-8.26-0.26,1.0,144.0,,,,,,,[],,,,,,62.5,0.0,u,0.0,True,841.3000000044703,51.0,60.0,40.0,False,,279.05326944823634,[],"[768, 432]",ColorTask,30.0,27.0,,,HRV,HRV_0184,2022-11-30 18:45:42
,wl-rdm,149,372294,0.0-8.27-0.27,1.0,145.0,,,,,,,[],,,,,,62.5,1.0,i,1.0,True,860.5,52.0,60.0,40.0,False,,253.36792107884952,[],"[768, 432]",ColorTask,31.0,28.0,,,HRV,HRV_0184,2022-11-30 18:45:42
,wl-rdm,150,375212,0.0-8.28-0.28,1.0,146.0,,,,,,,[],,,,,,50.0,0.0,u,0.0,True,1455.1000000014901,88.0,60.0,40.0,False,,394.96075902920495,[],"[768, 432]",ColorTask,32.0,29.0,,,HRV,HRV_0184,2022-11-30 18:45:42
,wl-rdm,151,377796,0.0-8.29-0.29,1.0,147.0,,,,,,,[],,,,,,53.2,0.0,u,0.0,True,1249.0000000037253,75.0,60.0,40.0,False,,273.57118227366294,[],"[768, 432]",ColorTask,33.0,30.0,,,HRV,HRV_0184,2022-11-30 18:45:42
,wl-rdm,152,379881,0.0-8.30-0.30,1.0,148.0,,,,,,,[],,,,,,62.5,0.0,u,0.0,True,738.8999999985099,45.0,60.0,40.0,False,,249.5066803985171,[],"[768, 432]",ColorTask,34.0,31.0,,,HRV,HRV_0184,2022-11-30 18:45:42
,wl-rdm,153,382348,0.0-8.31-0.31,1.0,149.0,,,,,,,[],,,,,,56.4,0.0,u,0.0,True,1182.6000000014901,71.0,60.0,40.0,False,,228.9291038169588,[],"[768, 432]",ColorTask,35.0,32.0,,,HRV,HRV_0184,2022-11-30 18:45:42
,wl-rdm,154,384599,0.0-8.32-0.32,1.0,150.0,,,,,,,[],,,,,,50.0,1.0,u,0.0,False,896.1000000014901,54.0,60.0,40.0,False,,291.4892371966236,[],"[768, 432]",ColorTask,34.0,33.0,,,HRV,HRV_0184,2022-11-30 18:45:42
,wl-rdm,155,386667,0.0-8.33-0.33,1.0,151.0,,,,,,,[],,,,,,56.4,1.0,i,1.0,True,788.7999999970198,48.0,60.0,40.0,False,,210.24520500036726,[],"[768, 432]",ColorTask,35.0,34.0,,,HRV,HRV_0184,2022-11-30 18:45:42
,wl-rdm,156,388934,0.0-8.34-0.34,1.0,152.0,,,,,,,[],,,,,,62.5,1.0,i,1.0,True,838.9999999962747,51.0,60.0,40.0,False,,352.92163815656176,[],"[768, 432]",ColorTask,36.0,35.0,,,HRV,HRV_0184,2022-11-30 18:45:42
,wl-rdm,157,391384,0.0-8.35-0.35,1.0,153.0,,,,,,,[],,,,,,53.2,0.0,u,0.0,True,1108.8999999985099,67.0,60.0,40.0,False,,267.78493248046215,[],"[768, 432]",ColorTask,37.0,36.0,,,HRV,HRV_0184,2022-11-30 18:45:42
,wl-rdm,158,393436,0.0-8.36-0.36,1.0,154.0,,,,,,,[],,,,,,53.2,0.0,u,0.0,True,737.1999999992549,45.0,60.0,40.0,False,,235.59185103930264,[],"[768, 432]",ColorTask,38.0,37.0,,,HRV,HRV_0184,2022-11-30 18:45:42
,wl-rdm,159,395636,0.0-8.37-0.37,1.0,155.0,,,,,,,[],,,,,,87.9,0.0,u,0.0,True,745.6999999992549,45.0,60.0,40.0,False,,391.0511618283126,[],"[768, 432]",ColorTask,39.0,38.0,,,HRV,HRV_0184,2022-11-30 18:45:42
,wl-rdm,160,397804,0.0-8.38-0.38,1.0,156.0,,,,,,,[],,,,,,73.6,0.0,u,0.0,True,787.3999999985099,48.0,60.0,40.0,False,,307.0941209693668,[],"[768, 432]",ColorTask,40.0,39.0,,,HRV,HRV_0184,2022-11-30 18:45:42
,wl-rdm,161,399789,0.0-8.39-0.39,1.0,157.0,,,,,,,[],,,,,,62.5,0.0,u,0.0,True,677.3000000007451,41.0,60.0,40.0,False,,242.02649600395182,[],"[768, 432]",ColorTask,41.0,40.0,,,HRV,HRV_0184,2022-11-30 18:45:42
,wl-rdm,162,401622,0.0-8.40-0.40,1.0,158.0,,,,,,,[],,,,,,87.9,1.0,i,1.0,True,522.3000000007451,32.0,60.0,40.0,False,,236.96802251188373,[],"[768, 432]",ColorTask,42.0,41.0,,,HRV,HRV_0184,2022-11-30 18:45:42
,wl-rdm,163,403623,0.0-8.41-0.41,1.0,159.0,,,,,,,[],,,,,,53.2,0.0,i,1.0,False,672.8999999985099,41.0,60.0,40.0,False,,238.17751408304503,[],"[768, 432]",ColorTask,41.0,42.0,,,HRV,HRV_0184,2022-11-30 18:45:42
,wl-rdm,164,405673,0.0-8.42-0.42,1.0,160.0,,,,,,,[],,,,,,87.9,1.0,i,1.0,True,721.0000000037253,44.0,60.0,40.0,False,,254.27615988830524,[],"[768, 432]",ColorTask,42.0,43.0,,,HRV,HRV_0184,2022-11-30 18:45:42
,wl-rdm,165,408157,0.0-8.43-0.43,1.0,161.0,,,,,,,[],,,,,,50.0,1.0,u,0.0,False,1111.9000000022352,67.0,60.0,40.0,False,,306.40752242255587,[],"[768, 432]",ColorTask,41.0,44.0,,,HRV,HRV_0184,2022-11-30 18:45:42
,wl-rdm,166,410876,0.0-8.44-0.44,1.0,162.0,,,,,,,[],,,,,,53.2,1.0,u,0.0,False,1290.699999999255,78.0,60.0,40.0,False,,351.95970236763793,[],"[768, 432]",ColorTask,40.0,45.0,,,HRV,HRV_0184,2022-11-30 18:45:42
,wl-rdm,167,413126,0.0-8.45-0.45,1.0,163.0,,,,,,,[],,,,,,62.5,1.0,i,1.0,True,836.6999999992549,51.0,60.0,40.0,False,,342.70510217434486,[],"[768, 432]",ColorTask,41.0,46.0,,,HRV,HRV_0184,2022-11-30 18:45:42
,wl-rdm,168,414977,0.0-8.46-0.46,1.0,164.0,,,,,,,[],,,,,,87.9,1.0,i,1.0,True,554.1999999992549,34.0,60.0,40.0,False,,221.26404904974476,[],"[768, 432]",ColorTask,42.0,47.0,,,HRV,HRV_0184,2022-11-30 18:45:42
,wl-rdm,169,416961,0.0-8.47-0.47,1.0,165.0,,,,,,,[],,,,,,87.9,0.0,u,0.0,True,614.4000000022352,37.0,60.0,40.0,False,,315.72750417970735,[],"[768, 432]",ColorTask,43.0,48.0,,,HRV,HRV_0184,2022-11-30 18:45:42
,wl-rdm,170,419145,0.0-8.48-0.48,1.0,166.0,,,,,,,[],,,,,,56.4,1.0,i,1.0,True,819.4000000022352,50.0,60.0,40.0,False,,281.860053433175,[],"[768, 432]",ColorTask,44.0,49.0,,,HRV,HRV_0184,2022-11-30 18:45:42
,wl-rdm,171,421463,0.0-8.49-0.49,1.0,167.0,,,,,,,[],,,,,,62.5,1.0,i,1.0,True,969.6000000014901,57.0,60.0,40.0,False,,259.6658450426951,[],"[768, 432]",ColorTask,45.0,50.0,,,HRV,HRV_0184,2022-11-30 18:45:42
,wl-rdm,172,423513,0.0-8.50-0.50,1.0,168.0,,,,,,,[],,,,,,50.0,1.0,i,1.0,True,657.5999999977648,40.0,60.0,40.0,False,,325.41058017105775,[],"[768, 432]",ColorTask,46.0,51.0,,,HRV,HRV_0184,2022-11-30 18:45:42
,wl-rdm,173,425597,0.0-8.51-0.51,1.0,169.0,,,,,,,[],,,,,,73.6,0.0,u,0.0,True,708.9000000022352,43.0,60.0,40.0,False,,300.9550626766719,[],"[768, 432]",ColorTask,47.0,52.0,,,HRV,HRV_0184,2022-11-30 18:45:42
,wl-rdm,174,427815,0.0-8.52-0.52,1.0,170.0,,,,,,,[],,,,,,87.9,1.0,i,1.0,True,877.0,53.0,60.0,40.0,False,,274.0992795899256,[],"[768, 432]",ColorTask,48.0,53.0,,,HRV,HRV_0184,2022-11-30 18:45:42
,wl-rdm,175,429899,0.0-8.53-0.53,1.0,171.0,,,,,,,[],,,,,,73.6,1.0,i,1.0,True,689.8999999985099,42.0,60.0,40.0,False,,314.4062855511538,[],"[768, 432]",ColorTask,49.0,54.0,,,HRV,HRV_0184,2022-11-30 18:45:42
,wl-rdm,176,431716,0.0-8.54-0.54,1.0,172.0,,,,,,,[],,,,,,87.9,1.0,i,1.0,True,527.6999999992549,32.0,60.0,40.0,False,,227.0626939477006,[],"[768, 432]",ColorTask,50.0,55.0,,,HRV,HRV_0184,2022-11-30 18:45:42
,wl-rdm,177,433651,0.0-8.55-0.55,1.0,173.0,,,,,,,[],,,,,,62.5,0.0,i,1.0,False,643.3000000007451,39.0,60.0,40.0,False,,217.0676962217973,[],"[768, 432]",ColorTask,49.0,56.0,,,HRV,HRV_0184,2022-11-30 18:45:42
,wl-rdm,178,435518,0.0-8.56-0.56,1.0,174.0,,,,,,,[],,,,,,87.9,1.0,i,1.0,True,591.1000000014901,36.0,60.0,40.0,False,,215.9856414023643,[],"[768, 432]",ColorTask,50.0,57.0,,,HRV,HRV_0184,2022-11-30 18:45:42
,wl-rdm,179,437469,0.0-8.57-0.57,1.0,175.0,,,,,,,[],,,,,,87.9,0.0,u,0.0,True,631.5,38.0,60.0,40.0,False,,252.65255286165538,[],"[768, 432]",ColorTask,51.0,58.0,,,HRV,HRV_0184,2022-11-30 18:45:42
,wl-rdm,180,439470,0.0-8.58-0.58,1.0,176.0,,,,,,,[],,,,,,87.9,1.0,i,1.0,True,554.6999999992549,34.0,60.0,40.0,False,,358.77528247812097,[],"[768, 432]",ColorTask,52.0,59.0,,,HRV,HRV_0184,2022-11-30 18:45:42
,wl-rdm,181,442988,0.0-8.59-0.59,1.0,177.0,,,,,,,[],,,,,,50.0,1.0,i,1.0,True,2086.39999999851,126.0,60.0,40.0,False,,349.5180816781406,[],"[768, 432]",ColorTask,53.0,60.0,,,HRV,HRV_0184,2022-11-30 18:45:42
,wl-rdm,182,444872,0.0-8.60-0.60,1.0,178.0,,,,,,,[],,,,,,73.6,1.0,i,1.0,True,613.6999999992549,37.0,60.0,40.0,False,,212.07555854320148,[],"[768, 432]",ColorTask,54.0,61.0,,,HRV,HRV_0184,2022-11-30 18:45:42
,wl-rdm,183,446739,0.0-8.61-0.61,1.0,179.0,,,,,,,[],,,,,,50.0,0.0,i,1.0,False,552.8999999985099,34.0,60.0,40.0,False,,241.99106040218024,[],"[768, 432]",ColorTask,53.0,62.0,,,HRV,HRV_0184,2022-11-30 18:45:42
,wl-rdm,184,449023,0.0-8.62-0.62,1.0,180.0,,,,,,,[],,,,,,73.6,1.0,i,1.0,True,858.5999999977648,52.0,60.0,40.0,False,,351.39258744595924,[],"[768, 432]",ColorTask,54.0,63.0,,,HRV,HRV_0184,2022-11-30 18:45:42
,wl-rdm,185,450924,0.0-8.63-0.63,1.0,181.0,,,,,,,[],,,,,,62.5,1.0,i,1.0,True,570.1000000014901,35.0,60.0,40.0,False,,246.07316034290284,[],"[768, 432]",ColorTask,55.0,64.0,,,HRV,HRV_0184,2022-11-30 18:45:42
,wl-rdm,186,452825,0.0-8.64-0.64,1.0,182.0,,,,,,,[],,,,,,56.4,1.0,i,1.0,True,587.6000000014901,36.0,60.0,40.0,False,,235.39996876471244,[],"[768, 432]",ColorTask,56.0,65.0,,,HRV,HRV_0184,2022-11-30 18:45:42
,wl-rdm,187,454742,0.0-8.65-0.65,1.0,183.0,,,,,,,[],,,,,,87.9,0.0,u,0.0,True,571.5,35.0,60.0,40.0,False,,253.6203874342949,[],"[768, 432]",ColorTask,57.0,66.0,,,HRV,HRV_0184,2022-11-30 18:45:42
,wl-rdm,188,456593,0.0-8.66-0.66,1.0,184.0,,,,,,,[],,,,,,73.6,0.0,u,0.0,True,539.6999999955297,33.0,60.0,40.0,False,,233.8097049110832,[],"[768, 432]",ColorTask,58.0,67.0,,,HRV,HRV_0184,2022-11-30 18:45:42
,wl-rdm,189,459010,0.0-8.67-0.67,1.0,185.0,,,,,,,[],,,,,,62.5,1.0,i,1.0,True,1019.6999999992549,62.0,60.0,40.0,False,,329.09232078390954,[],"[768, 432]",ColorTask,59.0,68.0,,,HRV,HRV_0184,2022-11-30 18:45:42
,wl-rdm,190,460928,0.0-8.68-0.68,1.0,186.0,,,,,,,[],,,,,,50.0,1.0,i,1.0,True,620.1999999992549,38.0,60.0,40.0,False,,221.3114799114794,[],"[768, 432]",ColorTask,60.0,69.0,,,HRV,HRV_0184,2022-11-30 18:45:42
,wl-rdm,191,462895,0.0-8.69-0.69,1.0,187.0,,,,,,,[],,,,,,50.0,0.0,i,1.0,False,552.6999999992549,34.0,60.0,40.0,False,,338.0280765337087,[],"[768, 432]",ColorTask,59.0,70.0,,,HRV,HRV_0184,2022-11-30 18:45:42
,wl-rdm,192,464846,0.0-8.70-0.70,1.0,188.0,,,,,,,[],,,,,,73.6,1.0,i,1.0,True,585.5999999977648,36.0,60.0,40.0,False,,285.103861961984,[],"[768, 432]",ColorTask,60.0,71.0,,,HRV,HRV_0184,2022-11-30 18:45:42
,wl-rdm,193,466946,0.0-8.71-0.71,1.0,189.0,,,,,,,[],,,,,,73.6,1.0,i,1.0,True,688.6999999992549,42.0,60.0,40.0,False,,349.66368750646274,[],"[768, 432]",ColorTask,61.0,72.0,,,HRV,HRV_0184,2022-11-30 18:45:42
,wl-rdm,194,468897,0.0-8.72-0.72,1.0,190.0,,,,,,,[],,,,,,56.4,1.0,i,1.0,True,570.3000000007451,35.0,60.0,40.0,False,,290.10465782225975,[],"[768, 432]",ColorTask,62.0,73.0,,,HRV,HRV_0184,2022-11-30 18:45:42
,wl-rdm,195,471155,0.0-8.73-0.73,1.0,191.0,,,,,,,[],,,,,,56.4,1.0,u,0.0,False,978.4000000022352,59.0,60.0,40.0,False,,218.47501446998305,[],"[768, 432]",ColorTask,61.0,74.0,,,HRV,HRV_0184,2022-11-30 18:45:42
,wl-rdm,196,473015,0.0-8.74-0.74,1.0,192.0,,,,,,,[],,,,,,53.2,1.0,i,1.0,True,490.5,30.0,60.0,40.0,False,,285.3653080293422,[],"[768, 432]",ColorTask,62.0,75.0,,,HRV,HRV_0184,2022-11-30 18:45:42
,wl-rdm,197,475200,0.0-8.75-0.75,1.0,193.0,,,,,,,[],,,,,,62.5,0.0,u,0.0,True,753.3000000007451,46.0,60.0,40.0,False,,364.1418591907915,[],"[768, 432]",ColorTask,63.0,76.0,,,HRV,HRV_0184,2022-11-30 18:45:42
,wl-rdm,198,477217,0.0-8.76-0.76,1.0,194.0,,,,,,,[],,,,,,62.5,1.0,i,1.0,True,709.4000000022352,43.0,60.0,40.0,False,,230.3977402569142,[],"[768, 432]",ColorTask,64.0,77.0,,,HRV,HRV_0184,2022-11-30 18:45:42
,wl-rdm,199,479335,0.0-8.77-0.77,1.0,195.0,,,,,,,[],,,,,,73.6,0.0,u,0.0,True,786.1000000014901,48.0,60.0,40.0,False,,242.13163659957257,[],"[768, 432]",ColorTask,65.0,78.0,,,HRV,HRV_0184,2022-11-30 18:45:42
,wl-rdm,200,482120,0.0-8.78-0.78,1.0,196.0,,,,,,,[],,,,,,53.2,1.0,u,0.0,False,1504.9000000022352,91.0,60.0,40.0,False,,211.6164312966197,[],"[768, 432]",ColorTask,64.0,79.0,,,HRV,HRV_0184,2022-11-30 18:45:42
,wl-rdm,201,484703,0.0-8.79-0.79,1.0,197.0,,,,,,,[],,,,,,73.6,0.0,u,0.0,True,1141.699999999255,69.0,60.0,40.0,False,,369.6006167684774,[],"[768, 432]",ColorTask,65.0,80.0,,,HRV,HRV_0184,2022-11-30 18:45:42
,wl-rdm,202,486721,0.0-8.80-0.80,1.0,198.0,,,,,,,[],,,,,,56.4,1.0,i,1.0,True,612.2000000029802,37.0,60.0,40.0,False,,342.33388432928643,[],"[768, 432]",ColorTask,66.0,81.0,,,HRV,HRV_0184,2022-11-30 18:45:42
,wl-rdm,203,489005,0.0-8.81-0.81,1.0,199.0,,,,,,,[],,,,,,56.4,0.0,i,1.0,False,883.3000000007451,53.0,60.0,40.0,False,,319.5666488452706,[],"[768, 432]",ColorTask,65.0,82.0,,,HRV,HRV_0184,2022-11-30 18:45:42
,wl-rdm,204,491105,0.0-8.82-0.82,1.0,200.0,,,,,,,[],,,,,,87.9,1.0,i,1.0,True,823.7000000029802,50.0,60.0,40.0,False,,206.07787039739642,[],"[768, 432]",ColorTask,66.0,83.0,,,HRV,HRV_0184,2022-11-30 18:45:42
,wl-rdm,205,493106,0.0-8.83-0.83,1.0,201.0,,,,,,,[],,,,,,87.9,0.0,u,0.0,True,641.1999999992549,39.0,60.0,40.0,False,,293.2214693032516,[],"[768, 432]",ColorTask,67.0,84.0,,,HRV,HRV_0184,2022-11-30 18:45:42
,wl-rdm,206,495307,0.0-8.84-0.84,1.0,202.0,,,,,,,[],,,,,,53.2,0.0,i,1.0,False,759.5,46.0,60.0,40.0,False,,372.9214753321985,[],"[768, 432]",ColorTask,66.0,85.0,,,HRV,HRV_0184,2022-11-30 18:45:42
,wl-rdm,207,497107,0.0-8.85-0.85,1.0,203.0,,,,,,,[],,,,,,50.0,1.0,i,1.0,True,503.0000000037253,31.0,60.0,40.0,False,,215.16934711271045,[],"[768, 432]",ColorTask,67.0,86.0,,,HRV,HRV_0184,2022-11-30 18:45:42
,wl-rdm,208,499191,0.0-8.86-0.86,1.0,204.0,,,,,,,[],,,,,,56.4,0.0,i,1.0,False,685.9999999962747,42.0,60.0,40.0,False,,328.31343765122915,[],"[768, 432]",ColorTask,66.0,87.0,,,HRV,HRV_0184,2022-11-30 18:45:42
,wl-rdm,209,501192,0.0-8.87-0.87,1.0,205.0,,,,,,,[],,,,,,56.4,0.0,i,1.0,False,697.5,42.0,60.0,40.0,False,,234.64334095921876,[],"[768, 432]",ColorTask,65.0,88.0,,,HRV,HRV_0184,2022-11-30 18:45:42
,wl-rdm,210,503309,0.0-8.88-0.88,1.0,206.0,,,,,,,[],,,,,,50.0,1.0,u,0.0,False,770.3000000007451,47.0,60.0,40.0,False,,258.314480671434,[],"[768, 432]",ColorTask,64.0,89.0,,,HRV,HRV_0184,2022-11-30 18:45:42
,wl-rdm,211,505343,0.0-8.89-0.89,1.0,207.0,,,,,,,[],,,,,,56.4,0.0,u,0.0,True,639.5,39.0,60.0,40.0,False,,318.8624215014697,[],"[768, 432]",ColorTask,65.0,90.0,,,HRV,HRV_0184,2022-11-30 18:45:42
,wl-rdm,212,507377,0.0-8.90-0.90,1.0,208.0,,,,,,,[],,,,,,62.5,0.0,u,0.0,True,703.3000000007451,43.0,60.0,40.0,False,,262.8305645610529,[],"[768, 432]",ColorTask,66.0,91.0,,,HRV,HRV_0184,2022-11-30 18:45:42
,wl-rdm,213,509278,0.0-8.91-0.91,1.0,209.0,,,,,,,[],,,,,,87.9,0.0,u,0.0,True,569.3000000007451,35.0,60.0,40.0,False,,240.84424429877797,[],"[768, 432]",ColorTask,67.0,92.0,,,HRV,HRV_0184,2022-11-30 18:45:42
,wl-rdm,214,511246,0.0-8.92-0.92,1.0,210.0,,,,,,,[],,,,,,87.9,0.0,u,0.0,True,527.0999999977648,32.0,60.0,40.0,False,,370.6743792417252,[],"[768, 432]",ColorTask,68.0,93.0,,,HRV,HRV_0184,2022-11-30 18:45:42
,wl-rdm,215,512980,0.0-8.93-0.93,1.0,211.0,,,,,,,[],,,,,,87.9,0.0,u,0.0,True,454.0,28.0,60.0,40.0,False,,212.3936052846981,[],"[768, 432]",ColorTask,69.0,94.0,,,HRV,HRV_0184,2022-11-30 18:45:42
,wl-rdm,216,515031,0.0-8.94-0.94,1.0,212.0,,,,,,,[],,,,,,53.2,1.0,i,1.0,True,645.2999999970198,39.0,60.0,40.0,False,,319.15832079179694,[],"[768, 432]",ColorTask,70.0,95.0,,,HRV,HRV_0184,2022-11-30 18:45:42
,wl-rdm,217,516931,0.0-8.95-0.95,1.0,213.0,,,,,,,[],,,,,,73.6,0.0,u,0.0,True,561.7000000029802,34.0,60.0,40.0,False,,274.5495219324882,[],"[768, 432]",ColorTask,71.0,96.0,,,HRV,HRV_0184,2022-11-30 18:45:42
,wl-rdm,218,519365,0.0-8.96-0.96,1.0,214.0,,,,,,,[],,,,,,50.0,0.0,u,0.0,True,1136.1999999955297,69.0,60.0,40.0,False,,221.47291596191954,[],"[768, 432]",ColorTask,72.0,97.0,,,HRV,HRV_0184,2022-11-30 18:45:42
,wl-rdm,219,521566,0.0-8.97-0.97,1.0,215.0,,,,,,,[],,,,,,62.5,1.0,i,1.0,True,803.0,49.0,60.0,40.0,False,,327.2122969933982,[],"[768, 432]",ColorTask,73.0,98.0,,,HRV,HRV_0184,2022-11-30 18:45:42
,wl-rdm,220,523450,0.0-8.98-0.98,1.0,216.0,,,,,,,[],,,,,,53.2,1.0,u,0.0,False,610.0,37.0,60.0,40.0,False,,210.9613124884848,[],"[768, 432]",ColorTask,72.0,99.0,,,HRV,HRV_0184,2022-11-30 18:45:42
,wl-rdm,221,525618,0.0-8.99-0.99,1.0,217.0,,,,,,,[],,,,,,62.5,0.0,u,0.0,True,875.1999999992549,53.0,60.0,40.0,False,,228.52598117456566,[],"[768, 432]",ColorTask,73.0,100.0,,,HRV,HRV_0184,2022-11-30 18:45:42
,wl-rdm,222,527518,0.0-8.100-0.100,1.0,218.0,,,,,,,[],,,,,,73.6,0.0,u,0.0,True,545.9000000022352,33.0,60.0,40.0,False,,299.7633787106211,[],"[768, 432]",ColorTask,74.0,101.0,,,HRV,HRV_0184,2022-11-30 18:45:42
,wl-rdm,223,529536,0.0-8.101-0.101,1.0,219.0,,,,,,,[],,,,,,53.2,0.0,u,0.0,True,682.3000000007451,41.0,60.0,40.0,False,,280.98170023374246,[],"[768, 432]",ColorTask,75.0,102.0,,,HRV,HRV_0184,2022-11-30 18:45:42
,wl-rdm,224,531486,0.0-8.102-0.102,1.0,220.0,,,,,,,[],,,,,,56.4,1.0,i,1.0,True,624.5999999977648,38.0,60.0,40.0,False,,261.5073374122408,[],"[768, 432]",ColorTask,76.0,103.0,,,HRV,HRV_0184,2022-11-30 18:45:42
,wl-rdm,225,533804,0.0-8.103-0.103,1.0,221.0,,,,,,,[],,,,,,73.6,0.0,u,0.0,True,961.5999999977648,58.0,60.0,40.0,False,,271.41278079024255,[],"[768, 432]",ColorTask,77.0,104.0,,,HRV,HRV_0184,2022-11-30 18:45:42
,wl-rdm,226,535805,0.0-8.104-0.104,1.0,222.0,,,,,,,[],,,,,,50.0,0.0,i,1.0,False,710.4000000022352,43.0,60.0,40.0,False,,220.5977002803274,[],"[768, 432]",ColorTask,76.0,105.0,,,HRV,HRV_0184,2022-11-30 18:45:42
,wl-rdm,227,537822,0.0-8.105-0.105,1.0,223.0,,,,,,,[],,,,,,53.2,0.0,u,0.0,True,640.9000000022352,39.0,60.0,40.0,False,,301.5797583940986,[],"[768, 432]",ColorTask,77.0,106.0,,,HRV,HRV_0184,2022-11-30 18:45:42
,wl-rdm,228,539706,0.0-8.106-0.106,1.0,224.0,,,,,,,[],,,,,,87.9,1.0,i,1.0,True,609.3000000007451,37.0,60.0,40.0,False,,202.27168661771555,[],"[768, 432]",ColorTask,78.0,107.0,,,HRV,HRV_0184,2022-11-30 18:45:42
,wl-rdm,229,541740,0.0-8.107-0.107,1.0,225.0,,,,,,,[],,,,,,50.0,0.0,i,1.0,False,666.0,40.0,60.0,40.0,False,,314.32016356129463,[],"[768, 432]",ColorTask,77.0,108.0,,,HRV,HRV_0184,2022-11-30 18:45:42
,wl-html-button-response,230,548349,0.0-9.0-0.0,,,,,,,,,,6602.89999999851,,0,,,,,,,,,,,,,,,,,,,,<h3>End of this session. Thank you!</h3><br>,['Close window'],HRV,HRV_0184,2022-11-30 18:45:42
