trialN,stimuli,trialStartTime,trialStartTime_UNIX,stimulus1,stimulus2,stimulus1Bid,stimulus2Bid,delta,selected,rt,rt_UNIX,rt_perfnow,receivedResponse,rsp,trialEndTime,trialDuration,trialEndTime_UNIX,trialDuration_UNIX,exp,subjectId,date
0,"[{'imgObject': {}, 'id': 'mashed potato', 'src': '/static/foodstim60/mashed potato.jpg', 'key': 'u', 'origWidth': 409, 'origHeight': 409, 'width': 409, 'height': 409, 'widthPercent': 0.45, 'rescaleHeight': False, 'trialN': 0, 'loaded': True, 'loadedTime': 5992.5, 'positionName': 'LEFT', 'positionCoords': [328.28, 227.5], 'bid': 6.78}, {'imgObject': {}, 'id': 'hotdog w must', 'src': '/static/foodstim60/hotdog w must.jpg', 'key': 'i', 'origWidth': 409, 'origHeight': 409, 'width': 409, 'height': 409, 'widthPercent': 0.45, 'rescaleHeight': False, 'trialN': 0, 'loaded': True, 'loadedTime': 6092.60000000149, 'positionName': 'RIGHT', 'positionCoords': [798.72, 227.5], 'bid': 7.86}]",6835.10000000149,1669832499191,mashed potato,hotdog w must,6.78,7.86,1.08,mashed potato,511.8999999985099,514,514.0,True,u,7858.5,1023.3999999985099,1669832500215,1024,HRV,HRV_0184,2022-11-30 18:23:49
1,"[{'imgObject': {}, 'id': 'salmon', 'src': '/static/foodstim60/salmon.jpg', 'key': 'u', 'origWidth': 410, 'origHeight': 409, 'width': 410, 'height': 409, 'widthPercent': 0.45, 'rescaleHeight': False, 'trialN': 1, 'loaded': True, 'loadedTime': 6162.900000002235, 'positionName': 'LEFT', 'positionCoords': [327.28, 227.5], 'bid': 7.96}, {'imgObject': {}, 'id': 'raspberries', 'src': '/static/foodstim60/raspberries.jpg', 'key': 'i', 'origWidth': 411, 'origHeight': 411, 'width': 411, 'height': 411, 'widthPercent': 0.45, 'rescaleHeight': False, 'trialN': 1, 'loaded': True, 'loadedTime': 6217.300000000745, 'positionName': 'RIGHT', 'positionCoords': [798.72, 226.5], 'bid': 6.94}]",7859.300000000745,1669832500215,salmon,raspberries,7.96,6.94,-1.0199999999999996,raspberries,312.0,313,312.6000000014901,True,i,8684.70000000298,825.4000000022352,1669832501041,826,HRV,HRV_0184,2022-11-30 18:23:49
2,"[{'imgObject': {}, 'id': 'sweetpotato', 'src': '/static/foodstim60/sweetpotato.jpg', 'key': 'u', 'origWidth': 410, 'origHeight': 410, 'width': 410, 'height': 410, 'widthPercent': 0.45, 'rescaleHeight': False, 'trialN': 2, 'loaded': True, 'loadedTime': 6254.800000000745, 'positionName': 'LEFT', 'positionCoords': [327.28, 227], 'bid': 2.81}, {'imgObject': {}, 'id': 'baked potato', 'src': '/static/foodstim60/baked potato.jpg', 'key': 'i', 'origWidth': 409, 'origHeight': 410, 'width': 409, 'height': 410, 'widthPercent': 0.45, 'rescaleHeight': False, 'trialN': 2, 'loaded': True, 'loadedTime': 6315.10000000149, 'positionName': 'RIGHT', 'positionCoords': [798.72, 227], 'bid': 3.22}]",8685.300000000745,1669832501041,sweetpotato,baked potato,2.81,3.22,0.41000000000000014,baked potato,238.30000000074506,239,238.80000000074506,True,i,9439.800000000745,754.5,1669832501796,755,HRV,HRV_0184,2022-11-30 18:23:49
3,"[{'imgObject': {}, 'id': 'shreddedwheatwithmilk', 'src': '/static/foodstim60/shreddedwheatwithmilk.jpg', 'key': 'u', 'origWidth': 410, 'origHeight': 410, 'width': 410, 'height': 410, 'widthPercent': 0.45, 'rescaleHeight': False, 'trialN': 3, 'loaded': True, 'loadedTime': 6318.70000000298, 'positionName': 'LEFT', 'positionCoords': [327.28, 227], 'bid': 7.17}, {'imgObject': {}, 'id': 'burger', 'src': '/static/foodstim60/burger.jpg', 'key': 'i', 'origWidth': 409, 'origHeight': 409, 'width': 409, 'height': 409, 'widthPercent': 0.45, 'rescaleHeight': False, 'trialN': 3, 'loaded': True, 'loadedTime': 6333.70000000298, 'positionName': 'RIGHT', 'positionCoords': [798.72, 227.5], 'bid': 7.390000000000001}]",9440.400000002235,1669832501796,shreddedwheatwithmilk,burger,7.17,7.390000000000001,0.22000000000000064,burger,120.5,122,121.19999999925494,True,i,10064.300000000745,623.8999999985099,1669832502420,624,HRV,HRV_0184,2022-11-30 18:23:49
4,"[{'imgObject': {}, 'id': 'hotdog w must', 'src': '/static/foodstim60/hotdog w must.jpg', 'key': 'u', 'origWidth': 409, 'origHeight': 409, 'width': 409, 'height': 409, 'widthPercent': 0.45, 'rescaleHeight': False, 'trialN': 4, 'loaded': True, 'loadedTime': 6099.300000000745, 'positionName': 'LEFT', 'positionCoords': [328.28, 227.5], 'bid': 7.86}, {'imgObject': {}, 'id': 'lox', 'src': '/static/foodstim60/lox.jpg', 'key': 'i', 'origWidth': 410, 'origHeight': 411, 'width': 410, 'height': 411, 'widthPercent': 0.45, 'rescaleHeight': False, 'trialN': 4, 'loaded': True, 'loadedTime': 6372.300000000745, 'positionName': 'RIGHT', 'positionCoords': [798.72, 226.5], 'bid': 7.91}]",10064.800000000745,1669832502421,hotdog w must,lox,7.86,7.91,0.04999999999999982,hotdog w must,55.100000001490116,56,55.69999999925494,True,u,10631.400000002235,566.6000000014901,1669832502988,567,HRV,HRV_0184,2022-11-30 18:23:49
5,"[{'imgObject': {}, 'id': 'banana', 'src': '/static/foodstim60/banana.jpg', 'key': 'u', 'origWidth': 410, 'origHeight': 410, 'width': 410, 'height': 410, 'widthPercent': 0.45, 'rescaleHeight': False, 'trialN': 5, 'loaded': True, 'loadedTime': 6040.70000000298, 'positionName': 'LEFT', 'positionCoords': [327.28, 227], 'bid': 7.05}, {'imgObject': {}, 'id': 'raspberries', 'src': '/static/foodstim60/raspberries.jpg', 'key': 'i', 'origWidth': 411, 'origHeight': 411, 'width': 411, 'height': 411, 'widthPercent': 0.45, 'rescaleHeight': False, 'trialN': 5, 'loaded': True, 'loadedTime': 6196.400000002235, 'positionName': 'RIGHT', 'positionCoords': [798.72, 226.5], 'bid': 6.94}]",10632.0,1669832502988,banana,raspberries,7.05,6.94,-0.10999999999999943,banana,238.70000000298023,239,239.20000000298023,True,u,11380.400000002235,748.4000000022352,1669832503736,748,HRV,HRV_0184,2022-11-30 18:23:49
6,"[{'imgObject': {}, 'id': 'chicken nuggets2', 'src': '/static/foodstim60/chicken nuggets2.jpg', 'key': 'u', 'origWidth': 410, 'origHeight': 409, 'width': 410, 'height': 409, 'widthPercent': 0.45, 'rescaleHeight': False, 'trialN': 6, 'loaded': True, 'loadedTime': 6056.10000000149, 'positionName': 'LEFT', 'positionCoords': [327.28, 227.5], 'bid': 5.14}, {'imgObject': {}, 'id': 'sushi w_condiments', 'src': '/static/foodstim60/sushi w_condiments.jpg', 'key': 'i', 'origWidth': 410, 'origHeight': 410, 'width': 410, 'height': 410, 'widthPercent': 0.45, 'rescaleHeight': False, 'trialN': 6, 'loaded': True, 'loadedTime': 6074.5, 'positionName': 'RIGHT', 'positionCoords': [798.72, 227], 'bid': 3.26}]",11380.800000000745,1669832503737,chicken nuggets2,sushi w_condiments,5.14,3.26,-1.88,sushi w_condiments,222.60000000149012,223,223.10000000149012,True,i,12106.400000002235,725.6000000014901,1669832504462,725,HRV,HRV_0184,2022-11-30 18:23:49
7,"[{'imgObject': {}, 'id': 'strawberries', 'src': '/static/foodstim60/strawberries.jpg', 'key': 'u', 'origWidth': 410, 'origHeight': 410, 'width': 410, 'height': 410, 'widthPercent': 0.45, 'rescaleHeight': False, 'trialN': 7, 'loaded': True, 'loadedTime': 6138.300000000745, 'positionName': 'LEFT', 'positionCoords': [327.28, 227], 'bid': 8.17}, {'imgObject': {}, 'id': 'ice cream sundae 002', 'src': '/static/foodstim60/ice cream sundae 002.jpg', 'key': 'i', 'origWidth': 409, 'origHeight': 409, 'width': 409, 'height': 409, 'widthPercent': 0.45, 'rescaleHeight': False, 'trialN': 7, 'loaded': True, 'loadedTime': 6220.20000000298, 'positionName': 'RIGHT', 'positionCoords': [798.72, 227.5], 'bid': 8.5}]",12106.900000002235,1669832504463,strawberries,ice cream sundae 002,8.17,8.5,0.33000000000000007,ice cream sundae 002,247.80000000074506,248,248.19999999925494,True,i,12871.5,764.5999999977648,1669832505228,765,HRV,HRV_0184,2022-11-30 18:23:49
8,"[{'imgObject': {}, 'id': 'steak', 'src': '/static/foodstim60/steak.jpg', 'key': 'u', 'origWidth': 410, 'origHeight': 410, 'width': 410, 'height': 410, 'widthPercent': 0.45, 'rescaleHeight': False, 'trialN': 8, 'loaded': True, 'loadedTime': 6261.400000002235, 'positionName': 'LEFT', 'positionCoords': [327.28, 227], 'bid': 5.54}, {'imgObject': {}, 'id': 'grilled chicken strips', 'src': '/static/foodstim60/grilled chicken strips.jpg', 'key': 'i', 'origWidth': 410, 'origHeight': 411, 'width': 410, 'height': 411, 'widthPercent': 0.45, 'rescaleHeight': False, 'trialN': 8, 'loaded': True, 'loadedTime': 6278.800000000745, 'positionName': 'RIGHT', 'positionCoords': [798.72, 226.5], 'bid': 2.81}]",12873.400000002235,1669832505229,steak,grilled chicken strips,5.54,2.81,-2.73,grilled chicken strips,144.5,145,145.0,True,i,13528.800000000745,655.3999999985099,1669832505885,656,HRV,HRV_0184,2022-11-30 18:23:49
9,"[{'imgObject': {}, 'id': 'yogurt no spoon', 'src': '/static/foodstim60/yogurt no spoon.jpg', 'key': 'u', 'origWidth': 411, 'origHeight': 410, 'width': 411, 'height': 410, 'widthPercent': 0.45, 'rescaleHeight': False, 'trialN': 9, 'loaded': True, 'loadedTime': 6337.10000000149, 'positionName': 'LEFT', 'positionCoords': [326.28, 227], 'bid': 7.26}, {'imgObject': {}, 'id': 'chicken nuggets2', 'src': '/static/foodstim60/chicken nuggets2.jpg', 'key': 'i', 'origWidth': 410, 'origHeight': 409, 'width': 410, 'height': 409, 'widthPercent': 0.45, 'rescaleHeight': False, 'trialN': 9, 'loaded': True, 'loadedTime': 6044.900000002235, 'positionName': 'RIGHT', 'positionCoords': [798.72, 227.5], 'bid': 5.14}]",13529.400000002235,1669832505886,yogurt no spoon,chicken nuggets2,7.26,5.14,-2.12,chicken nuggets2,123.09999999776483,124,124.09999999776483,True,i,14155.400000002235,626.0,1669832506511,625,HRV,HRV_0184,2022-11-30 18:23:49
10,"[{'imgObject': {}, 'id': 'turkey sandwich', 'src': '/static/foodstim60/turkey sandwich.jpg', 'key': 'u', 'origWidth': 409, 'origHeight': 409, 'width': 409, 'height': 409, 'widthPercent': 0.45, 'rescaleHeight': False, 'trialN': 10, 'loaded': True, 'loadedTime': 6378.60000000149, 'positionName': 'LEFT', 'positionCoords': [328.28, 227.5], 'bid': 7.56}, {'imgObject': {}, 'id': 'bagel plain', 'src': '/static/foodstim60/bagel plain.jpg', 'key': 'i', 'origWidth': 410, 'origHeight': 410, 'width': 410, 'height': 410, 'widthPercent': 0.45, 'rescaleHeight': False, 'trialN': 10, 'loaded': True, 'loadedTime': 6399.300000000745, 'positionName': 'RIGHT', 'positionCoords': [798.72, 227], 'bid': 7.85}]",14156.0,1669832506512,turkey sandwich,bagel plain,7.56,7.85,0.29000000000000004,bagel plain,121.5,122,122.10000000149012,True,i,14797.900000002235,641.9000000022352,1669832507154,642,HRV,HRV_0184,2022-11-30 18:23:49
11,"[{'imgObject': {}, 'id': 'luckycharms', 'src': '/static/foodstim60/luckycharms.jpg', 'key': 'u', 'origWidth': 410, 'origHeight': 409, 'width': 410, 'height': 409, 'widthPercent': 0.45, 'rescaleHeight': False, 'trialN': 11, 'loaded': True, 'loadedTime': 6423.5, 'positionName': 'LEFT', 'positionCoords': [327.28, 227.5], 'bid': 7.81}, {'imgObject': {}, 'id': 'pear', 'src': '/static/foodstim60/pear.jpg', 'key': 'i', 'origWidth': 411, 'origHeight': 410, 'width': 411, 'height': 410, 'widthPercent': 0.45, 'rescaleHeight': False, 'trialN': 11, 'loaded': True, 'loadedTime': 6438.20000000298, 'positionName': 'RIGHT', 'positionCoords': [798.72, 227], 'bid': 7.82}]",14798.20000000298,1669832507154,luckycharms,pear,7.81,7.82,0.010000000000000675,pear,85.69999999925494,87,86.59999999776483,True,i,15392.400000002235,594.1999999992549,1669832507748,594,HRV,HRV_0184,2022-11-30 18:23:49
12,"[{'imgObject': {}, 'id': 'baked potato', 'src': '/static/foodstim60/baked potato.jpg', 'key': 'u', 'origWidth': 409, 'origHeight': 410, 'width': 409, 'height': 410, 'widthPercent': 0.45, 'rescaleHeight': False, 'trialN': 12, 'loaded': True, 'loadedTime': 6296.20000000298, 'positionName': 'LEFT', 'positionCoords': [328.28, 227], 'bid': 3.22}, {'imgObject': {}, 'id': 'turkey sandwich', 'src': '/static/foodstim60/turkey sandwich.jpg', 'key': 'i', 'origWidth': 409, 'origHeight': 409, 'width': 409, 'height': 409, 'widthPercent': 0.45, 'rescaleHeight': False, 'trialN': 12, 'loaded': True, 'loadedTime': 6392.60000000149, 'positionName': 'RIGHT', 'positionCoords': [798.72, 227.5], 'bid': 7.56}]",15392.800000000745,1669832507749,baked potato,turkey sandwich,3.22,7.56,4.34,turkey sandwich,136.19999999925494,137,137.10000000149012,True,i,16038.400000002235,645.6000000014901,1669832508395,646,HRV,HRV_0184,2022-11-30 18:23:49
13,"[{'imgObject': {}, 'id': 'turkeysandwich', 'src': '/static/foodstim60/turkeysandwich.jpg', 'key': 'u', 'origWidth': 409, 'origHeight': 409, 'width': 409, 'height': 409, 'widthPercent': 0.45, 'rescaleHeight': False, 'trialN': 13, 'loaded': True, 'loadedTime': 6461.20000000298, 'positionName': 'LEFT', 'positionCoords': [328.28, 227.5], 'bid': 7.31}, {'imgObject': {}, 'id': 'omelette', 'src': '/static/foodstim60/omelette.jpg', 'key': 'i', 'origWidth': 410, 'origHeight': 409, 'width': 410, 'height': 409, 'widthPercent': 0.45, 'rescaleHeight': False, 'trialN': 13, 'loaded': True, 'loadedTime': 6478, 'positionName': 'RIGHT', 'positionCoords': [798.72, 227.5], 'bid': 7.12}]",16038.70000000298,1669832508395,turkeysandwich,omelette,7.31,7.12,-0.1899999999999995,omelette,70.39999999850988,71,70.79999999701977,True,i,16616.400000002235,577.6999999992549,1669832508973,578,HRV,HRV_0184,2022-11-30 18:23:49
14,"[{'imgObject': {}, 'id': 'olives', 'src': '/static/foodstim60/olives.jpg', 'key': 'u', 'origWidth': 410, 'origHeight': 410, 'width': 410, 'height': 410, 'widthPercent': 0.45, 'rescaleHeight': False, 'trialN': 14, 'loaded': True, 'loadedTime': 6513.300000000745, 'positionName': 'LEFT', 'positionCoords': [327.28, 227], 'bid': 7.77}, {'imgObject': {}, 'id': 'eggsalad', 'src': '/static/foodstim60/eggsalad.jpg', 'key': 'i', 'origWidth': 410, 'origHeight': 409, 'width': 410, 'height': 409, 'widthPercent': 0.45, 'rescaleHeight': False, 'trialN': 14, 'loaded': True, 'loadedTime': 6516.300000000745, 'positionName': 'RIGHT', 'positionCoords': [798.72, 227.5], 'bid': 7.72}]",16616.800000000745,1669832508973,olives,eggsalad,7.77,7.72,-0.04999999999999982,olives,95.80000000074506,96,96.30000000074506,True,u,17226.0,609.1999999992549,1669832509582,609,HRV,HRV_0184,2022-11-30 18:23:49
15,"[{'imgObject': {}, 'id': 'mac & cheese', 'src': '/static/foodstim60/mac & cheese.jpg', 'key': 'u', 'origWidth': 410, 'origHeight': 410, 'width': 410, 'height': 410, 'widthPercent': 0.45, 'rescaleHeight': False, 'trialN': 15, 'loaded': True, 'loadedTime': 6529.60000000149, 'positionName': 'LEFT', 'positionCoords': [327.28, 227], 'bid': 8.15}, {'imgObject': {}, 'id': 'tacos', 'src': '/static/foodstim60/tacos.jpg', 'key': 'i', 'origWidth': 411, 'origHeight': 411, 'width': 411, 'height': 411, 'widthPercent': 0.45, 'rescaleHeight': False, 'trialN': 15, 'loaded': True, 'loadedTime': 6550.20000000298, 'positionName': 'RIGHT', 'positionCoords': [798.72, 226.5], 'bid': 7.72}]",17226.5,1669832509583,mac & cheese,tacos,8.15,7.72,-0.4300000000000006,mac & cheese,213.40000000223517,213,213.90000000223517,True,u,17944.400000002235,717.9000000022352,1669832510301,718,HRV,HRV_0184,2022-11-30 18:23:49
16,"[{'imgObject': {}, 'id': 'mac & cheese', 'src': '/static/foodstim60/mac & cheese.jpg', 'key': 'u', 'origWidth': 410, 'origHeight': 410, 'width': 410, 'height': 410, 'widthPercent': 0.45, 'rescaleHeight': False, 'trialN': 16, 'loaded': True, 'loadedTime': 6529.300000000745, 'positionName': 'LEFT', 'positionCoords': [327.28, 227], 'bid': 8.15}, {'imgObject': {}, 'id': 'cantaloupe', 'src': '/static/foodstim60/cantaloupe.jpg', 'key': 'i', 'origWidth': 409, 'origHeight': 409, 'width': 409, 'height': 409, 'widthPercent': 0.45, 'rescaleHeight': False, 'trialN': 16, 'loaded': True, 'loadedTime': 6554.10000000149, 'positionName': 'RIGHT', 'positionCoords': [798.72, 227.5], 'bid': 8.05}]",17945.0,1669832510301,mac & cheese,cantaloupe,8.15,8.05,-0.09999999999999964,mac & cheese,190.60000000149012,191,191.10000000149012,True,u,18651.900000002235,706.9000000022352,1669832511008,707,HRV,HRV_0184,2022-11-30 18:23:49
17,"[{'imgObject': {}, 'id': 'veggieswithdip', 'src': '/static/foodstim60/veggieswithdip.jpg', 'key': 'u', 'origWidth': 409, 'origHeight': 409, 'width': 409, 'height': 409, 'widthPercent': 0.45, 'rescaleHeight': False, 'trialN': 17, 'loaded': True, 'loadedTime': 6576, 'positionName': 'LEFT', 'positionCoords': [328.28, 227.5], 'bid': 7.78}, {'imgObject': {}, 'id': 'salad w chicken', 'src': '/static/foodstim60/salad w chicken.jpg', 'key': 'i', 'origWidth': 411, 'origHeight': 411, 'width': 411, 'height': 411, 'widthPercent': 0.45, 'rescaleHeight': False, 'trialN': 17, 'loaded': True, 'loadedTime': 6597.5, 'positionName': 'RIGHT', 'positionCoords': [798.72, 226.5], 'bid': 7.7}]",18652.300000000745,1669832511008,veggieswithdip,salad w chicken,7.78,7.7,-0.08000000000000007,veggieswithdip,287.30000000074506,288,287.9000000022352,True,u,19453.60000000149,801.3000000007451,1669832511810,802,HRV,HRV_0184,2022-11-30 18:23:49
18,"[{'imgObject': {}, 'id': 'mac & cheese', 'src': '/static/foodstim60/mac & cheese.jpg', 'key': 'u', 'origWidth': 410, 'origHeight': 410, 'width': 410, 'height': 410, 'widthPercent': 0.45, 'rescaleHeight': False, 'trialN': 18, 'loaded': True, 'loadedTime': 6531.60000000149, 'positionName': 'LEFT', 'positionCoords': [327.28, 227], 'bid': 8.15}, {'imgObject': {}, 'id': 'edamame', 'src': '/static/foodstim60/edamame.jpg', 'key': 'i', 'origWidth': 409, 'origHeight': 410, 'width': 409, 'height': 410, 'widthPercent': 0.45, 'rescaleHeight': False, 'trialN': 18, 'loaded': True, 'loadedTime': 6614.800000000745, 'positionName': 'RIGHT', 'positionCoords': [798.72, 227], 'bid': 7.16}]",19454.400000002235,1669832511810,mac & cheese,edamame,8.15,7.16,-0.9900000000000002,mac & cheese,280.5,282,281.0,True,u,20239.0,784.5999999977648,1669832512595,785,HRV,HRV_0184,2022-11-30 18:23:49
19,"[{'imgObject': {}, 'id': 'burrito', 'src': '/static/foodstim60/burrito.jpg', 'key': 'u', 'origWidth': 410, 'origHeight': 410, 'width': 410, 'height': 410, 'widthPercent': 0.45, 'rescaleHeight': False, 'trialN': 19, 'loaded': True, 'loadedTime': 6617.900000002235, 'positionName': 'LEFT', 'positionCoords': [327.28, 227], 'bid': 7.61}, {'imgObject': {}, 'id': 'burger', 'src': '/static/foodstim60/burger.jpg', 'key': 'i', 'origWidth': 409, 'origHeight': 409, 'width': 409, 'height': 409, 'widthPercent': 0.45, 'rescaleHeight': False, 'trialN': 19, 'loaded': True, 'loadedTime': 6334.800000000745, 'positionName': 'RIGHT', 'positionCoords': [798.72, 227.5], 'bid': 7.390000000000001}]",20239.5,1669832512596,burrito,burger,7.61,7.390000000000001,-0.21999999999999975,burger,93.70000000298023,95,95.60000000149012,True,i,20848.5,609.0,1669832513205,609,HRV,HRV_0184,2022-11-30 18:23:49
20,"[{'imgObject': {}, 'id': 'shreddedwheatwithmilk', 'src': '/static/foodstim60/shreddedwheatwithmilk.jpg', 'key': 'u', 'origWidth': 410, 'origHeight': 410, 'width': 410, 'height': 410, 'widthPercent': 0.45, 'rescaleHeight': False, 'trialN': 20, 'loaded': True, 'loadedTime': 6316.10000000149, 'positionName': 'LEFT', 'positionCoords': [327.28, 227], 'bid': 7.17}, {'imgObject': {}, 'id': 'hashbrowns', 'src': '/static/foodstim60/hashbrowns.jpg', 'key': 'i', 'origWidth': 411, 'origHeight': 410, 'width': 411, 'height': 410, 'widthPercent': 0.45, 'rescaleHeight': False, 'trialN': 20, 'loaded': True, 'loadedTime': 6638.20000000298, 'positionName': 'RIGHT', 'positionCoords': [798.72, 227], 'bid': 7.65}]",20848.900000002235,1669832513205,shreddedwheatwithmilk,hashbrowns,7.17,7.65,0.4800000000000004,shreddedwheatwithmilk,614.8999999985099,615,615.3999999985099,True,u,21977.60000000149,1128.699999999255,1669832514334,1129,HRV,HRV_0184,2022-11-30 18:23:49
21,"[{'imgObject': {}, 'id': 'kiwi', 'src': '/static/foodstim60/kiwi.jpg', 'key': 'u', 'origWidth': 410, 'origHeight': 410, 'width': 410, 'height': 410, 'widthPercent': 0.45, 'rescaleHeight': False, 'trialN': 21, 'loaded': True, 'loadedTime': 6642.300000000745, 'positionName': 'LEFT', 'positionCoords': [327.28, 227], 'bid': 7.73}, {'imgObject': {}, 'id': 'popsicles', 'src': '/static/foodstim60/popsicles.jpg', 'key': 'i', 'origWidth': 410, 'origHeight': 410, 'width': 410, 'height': 410, 'widthPercent': 0.45, 'rescaleHeight': False, 'trialN': 21, 'loaded': True, 'loadedTime': 6644.900000002235, 'positionName': 'RIGHT', 'positionCoords': [798.72, 227], 'bid': 5.05}]",21978.0,1669832514334,kiwi,popsicles,7.73,5.05,-2.6800000000000006,kiwi,427.0,428,428.20000000298023,True,u,22917.900000002235,939.9000000022352,1669832515274,940,HRV,HRV_0184,2022-11-30 18:23:49
22,"[{'imgObject': {}, 'id': 'raspberries', 'src': '/static/foodstim60/raspberries.jpg', 'key': 'u', 'origWidth': 411, 'origHeight': 411, 'width': 411, 'height': 411, 'widthPercent': 0.45, 'rescaleHeight': False, 'trialN': 22, 'loaded': True, 'loadedTime': 6200.60000000149, 'positionName': 'LEFT', 'positionCoords': [326.28, 226.5], 'bid': 6.94}, {'imgObject': {}, 'id': 'steak', 'src': '/static/foodstim60/steak.jpg', 'key': 'i', 'origWidth': 410, 'origHeight': 410, 'width': 410, 'height': 410, 'widthPercent': 0.45, 'rescaleHeight': False, 'trialN': 22, 'loaded': True, 'loadedTime': 6258, 'positionName': 'RIGHT', 'positionCoords': [798.72, 227], 'bid': 5.54}]",22918.10000000149,1669832515274,raspberries,steak,6.94,5.54,-1.4000000000000004,steak,774.8999999985099,776,776.1000000014901,True,i,24198.800000000745,1280.699999999255,1669832516555,1281,HRV,HRV_0184,2022-11-30 18:23:49
23,"[{'imgObject': {}, 'id': 'yogurt no spoon', 'src': '/static/foodstim60/yogurt no spoon.jpg', 'key': 'u', 'origWidth': 411, 'origHeight': 410, 'width': 411, 'height': 410, 'widthPercent': 0.45, 'rescaleHeight': False, 'trialN': 23, 'loaded': True, 'loadedTime': 6355.20000000298, 'positionName': 'LEFT', 'positionCoords': [326.28, 227], 'bid': 7.26}, {'imgObject': {}, 'id': 'chickenfingers', 'src': '/static/foodstim60/chickenfingers.jpg', 'key': 'i', 'origWidth': 410, 'origHeight': 410, 'width': 410, 'height': 410, 'widthPercent': 0.45, 'rescaleHeight': False, 'trialN': 23, 'loaded': True, 'loadedTime': 6665.10000000149, 'positionName': 'RIGHT', 'positionCoords': [798.72, 227], 'bid': 7.22}]",24199.0,1669832516555,yogurt no spoon,chickenfingers,7.26,7.22,-0.040000000000000036,yogurt no spoon,360.70000000298023,362,361.6000000014901,True,u,25076.300000000745,877.3000000007451,1669832517432,877,HRV,HRV_0184,2022-11-30 18:23:49
24,"[{'imgObject': {}, 'id': 'edamame', 'src': '/static/foodstim60/edamame.jpg', 'key': 'u', 'origWidth': 409, 'origHeight': 410, 'width': 409, 'height': 410, 'widthPercent': 0.45, 'rescaleHeight': False, 'trialN': 24, 'loaded': True, 'loadedTime': 6615.20000000298, 'positionName': 'LEFT', 'positionCoords': [328.28, 227], 'bid': 7.16}, {'imgObject': {}, 'id': 'apple slices', 'src': '/static/foodstim60/apple slices.jpg', 'key': 'i', 'origWidth': 409, 'origHeight': 410, 'width': 409, 'height': 410, 'widthPercent': 0.45, 'rescaleHeight': False, 'trialN': 24, 'loaded': True, 'loadedTime': 6678, 'positionName': 'RIGHT', 'positionCoords': [798.72, 227], 'bid': 7.21}]",25076.70000000298,1669832517433,edamame,apple slices,7.16,7.21,0.04999999999999982,apple slices,121.69999999925494,122,122.19999999925494,True,i,25716.70000000298,640.0,1669832518073,640,HRV,HRV_0184,2022-11-30 18:23:49
25,"[{'imgObject': {}, 'id': 'yogurt no spoon', 'src': '/static/foodstim60/yogurt no spoon.jpg', 'key': 'u', 'origWidth': 411, 'origHeight': 410, 'width': 411, 'height': 410, 'widthPercent': 0.45, 'rescaleHeight': False, 'trialN': 25, 'loaded': True, 'loadedTime': 6339.300000000745, 'positionName': 'LEFT', 'positionCoords': [326.28, 227], 'bid': 7.26}, {'imgObject': {}, 'id': 'rigatoni', 'src': '/static/foodstim60/rigatoni.jpg', 'key': 'i', 'origWidth': 411, 'origHeight': 411, 'width': 411, 'height': 411, 'widthPercent': 0.45, 'rescaleHeight': False, 'trialN': 25, 'loaded': True, 'loadedTime': 6681.10000000149, 'positionName': 'RIGHT', 'positionCoords': [798.72, 226.5], 'bid': 7.63}]",25717.10000000149,1669832518073,yogurt no spoon,rigatoni,7.26,7.63,0.3700000000000001,yogurt no spoon,145.5,147,146.69999999925494,True,u,26376.900000002235,659.8000000007451,1669832518733,660,HRV,HRV_0184,2022-11-30 18:23:49
26,"[{'imgObject': {}, 'id': 'rigatoni and sauce', 'src': '/static/foodstim60/rigatoni and sauce.jpg', 'key': 'u', 'origWidth': 410, 'origHeight': 411, 'width': 410, 'height': 411, 'widthPercent': 0.45, 'rescaleHeight': False, 'trialN': 26, 'loaded': True, 'loadedTime': 6685.5, 'positionName': 'LEFT', 'positionCoords': [327.28, 226.5], 'bid': 3.82}, {'imgObject': {}, 'id': 'steak', 'src': '/static/foodstim60/steak.jpg', 'key': 'i', 'origWidth': 410, 'origHeight': 410, 'width': 410, 'height': 410, 'widthPercent': 0.45, 'rescaleHeight': False, 'trialN': 26, 'loaded': True, 'loadedTime': 6260.400000002235, 'positionName': 'RIGHT', 'positionCoords': [798.72, 227], 'bid': 5.54}]",26377.400000002235,1669832518734,rigatoni and sauce,steak,3.82,5.54,1.7200000000000002,rigatoni and sauce,87.59999999776483,88,88.59999999776483,True,u,26987.900000002235,610.5,1669832519344,610,HRV,HRV_0184,2022-11-30 18:23:49
27,"[{'imgObject': {}, 'id': 'blackbeanswithrice', 'src': '/static/foodstim60/blackbeanswithrice.jpg', 'key': 'u', 'origWidth': 410, 'origHeight': 410, 'width': 410, 'height': 410, 'widthPercent': 0.45, 'rescaleHeight': False, 'trialN': 27, 'loaded': True, 'loadedTime': 6704.400000002235, 'positionName': 'LEFT', 'positionCoords': [327.28, 227], 'bid': 7.78}, {'imgObject': {}, 'id': 'cheerios', 'src': '/static/foodstim60/cheerios.jpg', 'key': 'i', 'origWidth': 409, 'origHeight': 410, 'width': 409, 'height': 410, 'widthPercent': 0.45, 'rescaleHeight': False, 'trialN': 27, 'loaded': True, 'loadedTime': 6704.60000000149, 'positionName': 'RIGHT', 'positionCoords': [798.72, 227], 'bid': 7.7}]",26988.20000000298,1669832519344,blackbeanswithrice,cheerios,7.78,7.7,-0.08000000000000007,blackbeanswithrice,161.59999999776483,162,162.0,True,u,27673.10000000149,684.8999999985099,1669832520029,685,HRV,HRV_0184,2022-11-30 18:23:49
28,"[{'imgObject': {}, 'id': 'turkey sandwich', 'src': '/static/foodstim60/turkey sandwich.jpg', 'key': 'u', 'origWidth': 409, 'origHeight': 409, 'width': 409, 'height': 409, 'widthPercent': 0.45, 'rescaleHeight': False, 'trialN': 28, 'loaded': True, 'loadedTime': 6381.800000000745, 'positionName': 'LEFT', 'positionCoords': [328.28, 227.5], 'bid': 7.56}, {'imgObject': {}, 'id': 'rigatoni', 'src': '/static/foodstim60/rigatoni.jpg', 'key': 'i', 'origWidth': 411, 'origHeight': 411, 'width': 411, 'height': 411, 'widthPercent': 0.45, 'rescaleHeight': False, 'trialN': 28, 'loaded': True, 'loadedTime': 6681.20000000298, 'positionName': 'RIGHT', 'positionCoords': [798.72, 226.5], 'bid': 7.63}]",27673.900000002235,1669832520030,turkey sandwich,rigatoni,7.56,7.63,0.07000000000000028,rigatoni,80.69999999925494,81,81.30000000074506,True,i,28262.70000000298,588.8000000007451,1669832520619,589,HRV,HRV_0184,2022-11-30 18:23:49
29,"[{'imgObject': {}, 'id': 'Tribe humus pita', 'src': '/static/foodstim60/Tribe humus pita.jpg', 'key': 'u', 'origWidth': 411, 'origHeight': 411, 'width': 411, 'height': 411, 'widthPercent': 0.45, 'rescaleHeight': False, 'trialN': 29, 'loaded': True, 'loadedTime': 6709.60000000149, 'positionName': 'LEFT', 'positionCoords': [326.28, 226.5], 'bid': 3.95}, {'imgObject': {}, 'id': 'mango', 'src': '/static/foodstim60/mango.jpg', 'key': 'i', 'origWidth': 411, 'origHeight': 411, 'width': 411, 'height': 411, 'widthPercent': 0.45, 'rescaleHeight': False, 'trialN': 29, 'loaded': True, 'loadedTime': 6727.800000000745, 'positionName': 'RIGHT', 'positionCoords': [798.72, 226.5], 'bid': 5.88}]",28263.300000000745,1669832520619,Tribe humus pita,mango,3.95,5.88,1.9299999999999997,Tribe humus pita,348.1000000014901,349,348.80000000074506,True,u,29132.10000000149,868.8000000007451,1669832521488,869,HRV,HRV_0184,2022-11-30 18:23:49
30,"[{'imgObject': {}, 'id': 'mac & cheese', 'src': '/static/foodstim60/mac & cheese.jpg', 'key': 'u', 'origWidth': 410, 'origHeight': 410, 'width': 410, 'height': 410, 'widthPercent': 0.45, 'rescaleHeight': False, 'trialN': 30, 'loaded': True, 'loadedTime': 6525.70000000298, 'positionName': 'LEFT', 'positionCoords': [327.28, 227], 'bid': 8.15}, {'imgObject': {}, 'id': 'cherry tomato', 'src': '/static/foodstim60/cherry tomato.jpg', 'key': 'i', 'origWidth': 410, 'origHeight': 410, 'width': 410, 'height': 410, 'widthPercent': 0.45, 'rescaleHeight': False, 'trialN': 30, 'loaded': True, 'loadedTime': 6733.400000002235, 'positionName': 'RIGHT', 'positionCoords': [798.72, 227], 'bid': 8.07}]",29132.70000000298,1669832521489,mac & cheese,cherry tomato,8.15,8.07,-0.08000000000000007,mac & cheese,272.0999999977648,273,272.69999999925494,True,u,29920.20000000298,787.5,1669832522276,787,HRV,HRV_0184,2022-11-30 18:23:49
31,"[{'imgObject': {}, 'id': 'luckycharms', 'src': '/static/foodstim60/luckycharms.jpg', 'key': 'u', 'origWidth': 410, 'origHeight': 409, 'width': 410, 'height': 409, 'widthPercent': 0.45, 'rescaleHeight': False, 'trialN': 31, 'loaded': True, 'loadedTime': 6424.5, 'positionName': 'LEFT', 'positionCoords': [327.28, 227.5], 'bid': 7.81}, {'imgObject': {}, 'id': 'strawberries', 'src': '/static/foodstim60/strawberries.jpg', 'key': 'i', 'origWidth': 410, 'origHeight': 410, 'width': 410, 'height': 410, 'widthPercent': 0.45, 'rescaleHeight': False, 'trialN': 31, 'loaded': True, 'loadedTime': 6134.400000002235, 'positionName': 'RIGHT', 'positionCoords': [798.72, 227], 'bid': 8.17}]",29920.5,1669832522277,luckycharms,strawberries,7.81,8.17,0.3600000000000003,luckycharms,133.90000000223517,134,134.60000000149012,True,u,30559.10000000149,638.6000000014901,1669832522915,638,HRV,HRV_0184,2022-11-30 18:23:49
32,"[{'imgObject': {}, 'id': 'rigatoni and sauce', 'src': '/static/foodstim60/rigatoni and sauce.jpg', 'key': 'u', 'origWidth': 410, 'origHeight': 411, 'width': 410, 'height': 411, 'widthPercent': 0.45, 'rescaleHeight': False, 'trialN': 32, 'loaded': True, 'loadedTime': 6685.20000000298, 'positionName': 'LEFT', 'positionCoords': [327.28, 226.5], 'bid': 3.82}, {'imgObject': {}, 'id': 'hashbrowns', 'src': '/static/foodstim60/hashbrowns.jpg', 'key': 'i', 'origWidth': 411, 'origHeight': 410, 'width': 411, 'height': 410, 'widthPercent': 0.45, 'rescaleHeight': False, 'trialN': 32, 'loaded': True, 'loadedTime': 6620.10000000149, 'positionName': 'RIGHT', 'positionCoords': [798.72, 227], 'bid': 7.65}]",30559.70000000298,1669832522916,rigatoni and sauce,hashbrowns,3.82,7.65,3.8300000000000005,rigatoni and sauce,64.5,65,65.09999999776483,True,u,31138.60000000149,578.8999999985099,1669832523495,579,HRV,HRV_0184,2022-11-30 18:23:49
33,"[{'imgObject': {}, 'id': 'lox', 'src': '/static/foodstim60/lox.jpg', 'key': 'u', 'origWidth': 410, 'origHeight': 411, 'width': 410, 'height': 411, 'widthPercent': 0.45, 'rescaleHeight': False, 'trialN': 33, 'loaded': True, 'loadedTime': 6373.20000000298, 'positionName': 'LEFT', 'positionCoords': [327.28, 226.5], 'bid': 7.91}, {'imgObject': {}, 'id': 'ice cream sundae 002', 'src': '/static/foodstim60/ice cream sundae 002.jpg', 'key': 'i', 'origWidth': 409, 'origHeight': 409, 'width': 409, 'height': 409, 'widthPercent': 0.45, 'rescaleHeight': False, 'trialN': 33, 'loaded': True, 'loadedTime': 6219.70000000298, 'positionName': 'RIGHT', 'positionCoords': [798.72, 227.5], 'bid': 8.5}]",31139.10000000149,1669832523495,lox,ice cream sundae 002,7.91,8.5,0.5899999999999999,lox,61.30000000074506,62,62.19999999925494,True,u,31706.10000000149,567.0,1669832524062,567,HRV,HRV_0184,2022-11-30 18:23:49
34,"[{'imgObject': {}, 'id': 'mashed potato', 'src': '/static/foodstim60/mashed potato.jpg', 'key': 'u', 'origWidth': 409, 'origHeight': 409, 'width': 409, 'height': 409, 'widthPercent': 0.45, 'rescaleHeight': False, 'trialN': 34, 'loaded': True, 'loadedTime': 6000.800000000745, 'positionName': 'LEFT', 'positionCoords': [328.28, 227.5], 'bid': 6.78}, {'imgObject': {}, 'id': 'mango', 'src': '/static/foodstim60/mango.jpg', 'key': 'i', 'origWidth': 411, 'origHeight': 411, 'width': 411, 'height': 411, 'widthPercent': 0.45, 'rescaleHeight': False, 'trialN': 34, 'loaded': True, 'loadedTime': 6727.5, 'positionName': 'RIGHT', 'positionCoords': [798.72, 226.5], 'bid': 5.88}]",31706.900000002235,1669832524063,mashed potato,mango,6.78,5.88,-0.9000000000000004,mashed potato,352.0,353,352.8999999985099,True,u,32576.10000000149,869.1999999992549,1669832524932,869,HRV,HRV_0184,2022-11-30 18:23:49
35,"[{'imgObject': {}, 'id': 'bagel plain', 'src': '/static/foodstim60/bagel plain.jpg', 'key': 'u', 'origWidth': 410, 'origHeight': 410, 'width': 410, 'height': 410, 'widthPercent': 0.45, 'rescaleHeight': False, 'trialN': 35, 'loaded': True, 'loadedTime': 6399.70000000298, 'positionName': 'LEFT', 'positionCoords': [327.28, 227], 'bid': 7.85}, {'imgObject': {}, 'id': 'froot loops w milk', 'src': '/static/foodstim60/froot loops w milk.jpg', 'key': 'i', 'origWidth': 410, 'origHeight': 410, 'width': 410, 'height': 410, 'widthPercent': 0.45, 'rescaleHeight': False, 'trialN': 35, 'loaded': True, 'loadedTime': 6736.60000000149, 'positionName': 'RIGHT', 'positionCoords': [798.72, 227], 'bid': 8.540000000000001}]",32576.800000000745,1669832524933,bagel plain,froot loops w milk,7.85,8.540000000000001,0.6900000000000013,bagel plain,200.5,201,201.0,True,u,33292.60000000149,715.8000000007451,1669832525649,716,HRV,HRV_0184,2022-11-30 18:23:49
36,"[{'imgObject': {}, 'id': 'popsicles', 'src': '/static/foodstim60/popsicles.jpg', 'key': 'u', 'origWidth': 410, 'origHeight': 410, 'width': 410, 'height': 410, 'widthPercent': 0.45, 'rescaleHeight': False, 'trialN': 36, 'loaded': True, 'loadedTime': 6642.60000000149, 'positionName': 'LEFT', 'positionCoords': [327.28, 227], 'bid': 5.05}, {'imgObject': {}, 'id': 'chicken nuggets2', 'src': '/static/foodstim60/chicken nuggets2.jpg', 'key': 'i', 'origWidth': 410, 'origHeight': 409, 'width': 410, 'height': 409, 'widthPercent': 0.45, 'rescaleHeight': False, 'trialN': 36, 'loaded': True, 'loadedTime': 6053.400000002235, 'positionName': 'RIGHT', 'positionCoords': [798.72, 227.5], 'bid': 5.14}]",33293.20000000298,1669832525649,popsicles,chicken nuggets2,5.05,5.14,0.08999999999999986,popsicles,302.5999999977648,304,303.5999999977648,True,u,34104.900000002235,811.6999999992549,1669832526461,812,HRV,HRV_0184,2022-11-30 18:23:49
37,"[{'imgObject': {}, 'id': 'salmon', 'src': '/static/foodstim60/salmon.jpg', 'key': 'u', 'origWidth': 410, 'origHeight': 409, 'width': 410, 'height': 409, 'widthPercent': 0.45, 'rescaleHeight': False, 'trialN': 37, 'loaded': True, 'loadedTime': 6166.300000000745, 'positionName': 'LEFT', 'positionCoords': [327.28, 227.5], 'bid': 7.96}, {'imgObject': {}, 'id': 'froot loops w milk', 'src': '/static/foodstim60/froot loops w milk.jpg', 'key': 'i', 'origWidth': 410, 'origHeight': 410, 'width': 410, 'height': 410, 'widthPercent': 0.45, 'rescaleHeight': False, 'trialN': 37, 'loaded': True, 'loadedTime': 6736.400000002235, 'positionName': 'RIGHT', 'positionCoords': [798.72, 227], 'bid': 8.540000000000001}]",34105.20000000298,1669832526461,salmon,froot loops w milk,7.96,8.540000000000001,0.580000000000001,froot loops w milk,63.0,64,63.599999997764826,True,i,34682.0,576.7999999970198,1669832527038,577,HRV,HRV_0184,2022-11-30 18:23:49
38,"[{'imgObject': {}, 'id': 'popsicles', 'src': '/static/foodstim60/popsicles.jpg', 'key': 'u', 'origWidth': 410, 'origHeight': 410, 'width': 410, 'height': 410, 'widthPercent': 0.45, 'rescaleHeight': False, 'trialN': 38, 'loaded': True, 'loadedTime': 6645.300000000745, 'positionName': 'LEFT', 'positionCoords': [327.28, 227], 'bid': 5.05}, {'imgObject': {}, 'id': 'cherries', 'src': '/static/foodstim60/cherries.jpg', 'key': 'i', 'origWidth': 410, 'origHeight': 411, 'width': 410, 'height': 411, 'widthPercent': 0.45, 'rescaleHeight': False, 'trialN': 38, 'loaded': True, 'loadedTime': 6740.10000000149, 'positionName': 'RIGHT', 'positionCoords': [798.72, 226.5], 'bid': 6.48}]",34682.5,1669832527039,popsicles,cherries,5.05,6.48,1.4300000000000006,cherries,229.70000000298023,230,230.30000000074506,True,i,35417.0,734.5,1669832527773,734,HRV,HRV_0184,2022-11-30 18:23:49
39,"[{'imgObject': {}, 'id': 'seaweed', 'src': '/static/foodstim60/seaweed.jpg', 'key': 'u', 'origWidth': 410, 'origHeight': 410, 'width': 410, 'height': 410, 'widthPercent': 0.45, 'rescaleHeight': False, 'trialN': 39, 'loaded': True, 'loadedTime': 6740.800000000745, 'positionName': 'LEFT', 'positionCoords': [327.28, 227], 'bid': 2.79}, {'imgObject': {}, 'id': 'grilled chicken strips', 'src': '/static/foodstim60/grilled chicken strips.jpg', 'key': 'i', 'origWidth': 410, 'origHeight': 411, 'width': 410, 'height': 411, 'widthPercent': 0.45, 'rescaleHeight': False, 'trialN': 39, 'loaded': True, 'loadedTime': 6282.60000000149, 'positionName': 'RIGHT', 'positionCoords': [798.72, 226.5], 'bid': 2.81}]",35417.300000000745,1669832527773,seaweed,grilled chicken strips,2.79,2.81,0.020000000000000018,grilled chicken strips,154.40000000223517,155,155.0,True,i,36077.900000002235,660.6000000014901,1669832528434,661,HRV,HRV_0184,2022-11-30 18:23:49
40,"[{'imgObject': {}, 'id': 'luckycharms', 'src': '/static/foodstim60/luckycharms.jpg', 'key': 'u', 'origWidth': 410, 'origHeight': 409, 'width': 410, 'height': 409, 'widthPercent': 0.45, 'rescaleHeight': False, 'trialN': 40, 'loaded': True, 'loadedTime': 6424.900000002235, 'positionName': 'LEFT', 'positionCoords': [327.28, 227.5], 'bid': 7.81}, {'imgObject': {}, 'id': 'blackbeanswithrice', 'src': '/static/foodstim60/blackbeanswithrice.jpg', 'key': 'i', 'origWidth': 410, 'origHeight': 410, 'width': 410, 'height': 410, 'widthPercent': 0.45, 'rescaleHeight': False, 'trialN': 40, 'loaded': True, 'loadedTime': 6703.60000000149, 'positionName': 'RIGHT', 'positionCoords': [798.72, 227], 'bid': 7.78}]",36078.5,1669832528435,luckycharms,blackbeanswithrice,7.81,7.78,-0.02999999999999936,blackbeanswithrice,226.10000000149012,227,227.0,True,i,36813.20000000298,734.7000000029802,1669832529169,734,HRV,HRV_0184,2022-11-30 18:23:49
41,"[{'imgObject': {}, 'id': 'turkey sandwich', 'src': '/static/foodstim60/turkey sandwich.jpg', 'key': 'u', 'origWidth': 409, 'origHeight': 409, 'width': 409, 'height': 409, 'widthPercent': 0.45, 'rescaleHeight': False, 'trialN': 41, 'loaded': True, 'loadedTime': 6393.60000000149, 'positionName': 'LEFT', 'positionCoords': [328.28, 227.5], 'bid': 7.56}, {'imgObject': {}, 'id': 'banana', 'src': '/static/foodstim60/banana.jpg', 'key': 'i', 'origWidth': 410, 'origHeight': 410, 'width': 410, 'height': 410, 'widthPercent': 0.45, 'rescaleHeight': False, 'trialN': 41, 'loaded': True, 'loadedTime': 6037.900000002235, 'positionName': 'RIGHT', 'positionCoords': [798.72, 227], 'bid': 7.05}]",36813.800000000745,1669832529170,turkey sandwich,banana,7.56,7.05,-0.5099999999999998,turkey sandwich,105.0,106,106.0,True,u,37423.900000002235,610.1000000014901,1669832529780,610,HRV,HRV_0184,2022-11-30 18:23:49
42,"[{'imgObject': {}, 'id': 'burrito', 'src': '/static/foodstim60/burrito.jpg', 'key': 'u', 'origWidth': 410, 'origHeight': 410, 'width': 410, 'height': 410, 'widthPercent': 0.45, 'rescaleHeight': False, 'trialN': 42, 'loaded': True, 'loadedTime': 6617.60000000149, 'positionName': 'LEFT', 'positionCoords': [327.28, 227], 'bid': 7.61}, {'imgObject': {}, 'id': 'rigatoni', 'src': '/static/foodstim60/rigatoni.jpg', 'key': 'i', 'origWidth': 411, 'origHeight': 411, 'width': 411, 'height': 411, 'widthPercent': 0.45, 'rescaleHeight': False, 'trialN': 42, 'loaded': True, 'loadedTime': 6680.70000000298, 'positionName': 'RIGHT', 'positionCoords': [798.72, 226.5], 'bid': 7.63}]",37424.20000000298,1669832529780,burrito,rigatoni,7.61,7.63,0.019999999999999574,burrito,73.09999999776483,74,73.59999999776483,True,u,38014.0,589.7999999970198,1669832530370,590,HRV,HRV_0184,2022-11-30 18:23:49
43,"[{'imgObject': {}, 'id': 'salmon', 'src': '/static/foodstim60/salmon.jpg', 'key': 'u', 'origWidth': 410, 'origHeight': 409, 'width': 410, 'height': 409, 'widthPercent': 0.45, 'rescaleHeight': False, 'trialN': 43, 'loaded': True, 'loadedTime': 6158, 'positionName': 'LEFT', 'positionCoords': [327.28, 227.5], 'bid': 7.96}, {'imgObject': {}, 'id': 'corn cob', 'src': '/static/foodstim60/corn cob.jpg', 'key': 'i', 'origWidth': 411, 'origHeight': 411, 'width': 411, 'height': 411, 'widthPercent': 0.45, 'rescaleHeight': False, 'trialN': 43, 'loaded': True, 'loadedTime': 6761.60000000149, 'positionName': 'RIGHT', 'positionCoords': [798.72, 226.5], 'bid': 7.66}]",38014.20000000298,1669832530370,salmon,corn cob,7.96,7.66,-0.2999999999999998,corn cob,59.599999997764826,62,61.29999999701977,True,i,38580.300000000745,566.0999999977648,1669832530936,566,HRV,HRV_0184,2022-11-30 18:23:49
44,"[{'imgObject': {}, 'id': 'pear', 'src': '/static/foodstim60/pear.jpg', 'key': 'u', 'origWidth': 411, 'origHeight': 410, 'width': 411, 'height': 410, 'widthPercent': 0.45, 'rescaleHeight': False, 'trialN': 44, 'loaded': True, 'loadedTime': 6437, 'positionName': 'LEFT', 'positionCoords': [326.28, 227], 'bid': 7.82}, {'imgObject': {}, 'id': 'eggsalad', 'src': '/static/foodstim60/eggsalad.jpg', 'key': 'i', 'origWidth': 410, 'origHeight': 409, 'width': 410, 'height': 409, 'widthPercent': 0.45, 'rescaleHeight': False, 'trialN': 44, 'loaded': True, 'loadedTime': 6516.400000002235, 'positionName': 'RIGHT', 'positionCoords': [798.72, 227.5], 'bid': 7.72}]",38580.400000002235,1669832530937,pear,eggsalad,7.82,7.72,-0.10000000000000053,eggsalad,33.099999997764826,33,33.5,True,i,39130.800000000745,550.3999999985099,1669832531487,550,HRV,HRV_0184,2022-11-30 18:23:49
45,"[{'imgObject': {}, 'id': 'salad w chicken', 'src': '/static/foodstim60/salad w chicken.jpg', 'key': 'u', 'origWidth': 411, 'origHeight': 411, 'width': 411, 'height': 411, 'widthPercent': 0.45, 'rescaleHeight': False, 'trialN': 45, 'loaded': True, 'loadedTime': 6595.900000002235, 'positionName': 'LEFT', 'positionCoords': [326.28, 226.5], 'bid': 7.7}, {'imgObject': {}, 'id': 'yogurt no spoon', 'src': '/static/foodstim60/yogurt no spoon.jpg', 'key': 'i', 'origWidth': 411, 'origHeight': 410, 'width': 411, 'height': 410, 'widthPercent': 0.45, 'rescaleHeight': False, 'trialN': 45, 'loaded': True, 'loadedTime': 6355, 'positionName': 'RIGHT', 'positionCoords': [798.72, 227], 'bid': 7.26}]",39131.10000000149,1669832531487,salad w chicken,yogurt no spoon,7.7,7.26,-0.4400000000000004,salad w chicken,51.5,52,52.100000001490116,True,u,39696.800000000745,565.6999999992549,1669832532053,566,HRV,HRV_0184,2022-11-30 18:23:49
46,"[{'imgObject': {}, 'id': 'eggs', 'src': '/static/foodstim60/eggs.jpg', 'key': 'u', 'origWidth': 409, 'origHeight': 409, 'width': 409, 'height': 409, 'widthPercent': 0.45, 'rescaleHeight': False, 'trialN': 46, 'loaded': True, 'loadedTime': 6761.800000000745, 'positionName': 'LEFT', 'positionCoords': [328.28, 227.5], 'bid': 6.87}, {'imgObject': {}, 'id': 'lox', 'src': '/static/foodstim60/lox.jpg', 'key': 'i', 'origWidth': 410, 'origHeight': 411, 'width': 410, 'height': 411, 'widthPercent': 0.45, 'rescaleHeight': False, 'trialN': 46, 'loaded': True, 'loadedTime': 6373.400000002235, 'positionName': 'RIGHT', 'positionCoords': [798.72, 226.5], 'bid': 7.91}]",39697.400000002235,1669832532054,eggs,lox,6.87,7.91,1.04,lox,138.19999999925494,139,139.39999999850988,True,i,40355.10000000149,657.6999999992549,1669832532711,657,HRV,HRV_0184,2022-11-30 18:23:49
47,"[{'imgObject': {}, 'id': 'rigatoni and sauce', 'src': '/static/foodstim60/rigatoni and sauce.jpg', 'key': 'u', 'origWidth': 410, 'origHeight': 411, 'width': 410, 'height': 411, 'widthPercent': 0.45, 'rescaleHeight': False, 'trialN': 47, 'loaded': True, 'loadedTime': 6686.5, 'positionName': 'LEFT', 'positionCoords': [327.28, 226.5], 'bid': 3.82}, {'imgObject': {}, 'id': 'Tribe humus pita', 'src': '/static/foodstim60/Tribe humus pita.jpg', 'key': 'i', 'origWidth': 411, 'origHeight': 411, 'width': 411, 'height': 411, 'widthPercent': 0.45, 'rescaleHeight': False, 'trialN': 47, 'loaded': True, 'loadedTime': 6707.300000000745, 'positionName': 'RIGHT', 'positionCoords': [798.72, 226.5], 'bid': 3.95}]",40355.5,1669832532712,rigatoni and sauce,Tribe humus pita,3.82,3.95,0.13000000000000034,rigatoni and sauce,255.70000000298023,257,257.0,True,u,41125.70000000298,770.2000000029802,1669832533482,770,HRV,HRV_0184,2022-11-30 18:23:49
48,"[{'imgObject': {}, 'id': 'Grapes', 'src': '/static/foodstim60/Grapes.jpg', 'key': 'u', 'origWidth': 411, 'origHeight': 411, 'width': 411, 'height': 411, 'widthPercent': 0.45, 'rescaleHeight': False, 'trialN': 48, 'loaded': True, 'loadedTime': 6766.20000000298, 'positionName': 'LEFT', 'positionCoords': [326.28, 226.5], 'bid': 4.59}, {'imgObject': {}, 'id': 'edamame', 'src': '/static/foodstim60/edamame.jpg', 'key': 'i', 'origWidth': 409, 'origHeight': 410, 'width': 409, 'height': 410, 'widthPercent': 0.45, 'rescaleHeight': False, 'trialN': 48, 'loaded': True, 'loadedTime': 6602.10000000149, 'positionName': 'RIGHT', 'positionCoords': [798.72, 227], 'bid': 7.16}]",41126.10000000149,1669832533482,Grapes,edamame,4.59,7.16,2.5700000000000003,Grapes,7.0,8,8.0,True,u,41639.10000000149,513.0,1669832533995,513,HRV,HRV_0184,2022-11-30 18:23:49
49,"[{'imgObject': {}, 'id': 'grilled chicken strips', 'src': '/static/foodstim60/grilled chicken strips.jpg', 'key': 'u', 'origWidth': 410, 'origHeight': 411, 'width': 410, 'height': 411, 'widthPercent': 0.45, 'rescaleHeight': False, 'trialN': 49, 'loaded': True, 'loadedTime': 6283.20000000298, 'positionName': 'LEFT', 'positionCoords': [327.28, 226.5], 'bid': 2.81}, {'imgObject': {}, 'id': 'baked potato', 'src': '/static/foodstim60/baked potato.jpg', 'key': 'i', 'origWidth': 409, 'origHeight': 410, 'width': 409, 'height': 410, 'widthPercent': 0.45, 'rescaleHeight': False, 'trialN': 49, 'loaded': True, 'loadedTime': 6298.10000000149, 'positionName': 'RIGHT', 'positionCoords': [798.72, 227], 'bid': 3.22}]",41640.0,1669832533996,grilled chicken strips,baked potato,2.81,3.22,0.41000000000000014,grilled chicken strips,184.60000000149012,185,185.20000000298023,True,u,42329.70000000298,689.7000000029802,1669832534686,690,HRV,HRV_0184,2022-11-30 18:23:49
50,"[{'imgObject': {}, 'id': 'banana', 'src': '/static/foodstim60/banana.jpg', 'key': 'u', 'origWidth': 410, 'origHeight': 410, 'width': 410, 'height': 410, 'widthPercent': 0.45, 'rescaleHeight': False, 'trialN': 50, 'loaded': True, 'loadedTime': 6028.400000002235, 'positionName': 'LEFT', 'positionCoords': [327.28, 227], 'bid': 7.05}, {'imgObject': {}, 'id': 'cantaloupe', 'src': '/static/foodstim60/cantaloupe.jpg', 'key': 'i', 'origWidth': 409, 'origHeight': 409, 'width': 409, 'height': 409, 'widthPercent': 0.45, 'rescaleHeight': False, 'trialN': 50, 'loaded': True, 'loadedTime': 6573.60000000149, 'positionName': 'RIGHT', 'positionCoords': [798.72, 227.5], 'bid': 8.05}]",42330.300000000745,1669832534686,banana,cantaloupe,7.05,8.05,1.0000000000000009,banana,70.69999999925494,72,71.19999999925494,True,u,42926.10000000149,595.8000000007451,1669832535282,596,HRV,HRV_0184,2022-11-30 18:23:49
51,"[{'imgObject': {}, 'id': 'cheerios', 'src': '/static/foodstim60/cheerios.jpg', 'key': 'u', 'origWidth': 409, 'origHeight': 410, 'width': 409, 'height': 410, 'widthPercent': 0.45, 'rescaleHeight': False, 'trialN': 51, 'loaded': True, 'loadedTime': 6706.20000000298, 'positionName': 'LEFT', 'positionCoords': [328.28, 227], 'bid': 7.7}, {'imgObject': {}, 'id': 'avocado', 'src': '/static/foodstim60/avocado.jpg', 'key': 'i', 'origWidth': 409, 'origHeight': 409, 'width': 409, 'height': 409, 'widthPercent': 0.45, 'rescaleHeight': False, 'trialN': 51, 'loaded': True, 'loadedTime': 6789.20000000298, 'positionName': 'RIGHT', 'positionCoords': [798.72, 227.5], 'bid': 4.08}]",42926.300000000745,1669832535282,cheerios,avocado,7.7,4.08,-3.62,avocado,9.100000001490116,10,10.0,True,i,43443.5,517.1999999992549,1669832535800,518,HRV,HRV_0184,2022-11-30 18:23:49
52,"[{'imgObject': {}, 'id': 'bagel and cc', 'src': '/static/foodstim60/bagel and cc.jpg', 'key': 'u', 'origWidth': 410, 'origHeight': 410, 'width': 410, 'height': 410, 'widthPercent': 0.45, 'rescaleHeight': False, 'trialN': 52, 'loaded': True, 'loadedTime': 6791.400000002235, 'positionName': 'LEFT', 'positionCoords': [327.28, 227], 'bid': 6.86}, {'imgObject': {}, 'id': 'granola w milk', 'src': '/static/foodstim60/granola w milk.jpg', 'key': 'i', 'origWidth': 410, 'origHeight': 410, 'width': 410, 'height': 410, 'widthPercent': 0.45, 'rescaleHeight': False, 'trialN': 52, 'loaded': True, 'loadedTime': 6805.300000000745, 'positionName': 'RIGHT', 'positionCoords': [798.72, 227], 'bid': 3.81}]",43443.800000000745,1669832535800,bagel and cc,granola w milk,6.86,3.81,-3.0500000000000003,granola w milk,40.400000002235174,41,40.900000002235174,True,i,44003.5,559.6999999992549,1669832536360,560,HRV,HRV_0184,2022-11-30 18:23:49
53,"[{'imgObject': {}, 'id': 'fruitsalad', 'src': '/static/foodstim60/fruitsalad.jpg', 'key': 'u', 'origWidth': 410, 'origHeight': 410, 'width': 410, 'height': 410, 'widthPercent': 0.45, 'rescaleHeight': False, 'trialN': 53, 'loaded': True, 'loadedTime': 6810, 'positionName': 'LEFT', 'positionCoords': [327.28, 227], 'bid': 4.96}, {'imgObject': {}, 'id': 'grilled chicken strips', 'src': '/static/foodstim60/grilled chicken strips.jpg', 'key': 'i', 'origWidth': 410, 'origHeight': 411, 'width': 410, 'height': 411, 'widthPercent': 0.45, 'rescaleHeight': False, 'trialN': 53, 'loaded': True, 'loadedTime': 6292.60000000149, 'positionName': 'RIGHT', 'positionCoords': [798.72, 226.5], 'bid': 2.81}]",44004.20000000298,1669832536360,fruitsalad,grilled chicken strips,4.96,2.81,-2.15,fruitsalad,2.7999999970197678,10,9.399999998509884,True,u,44518.20000000298,514.0,1669832536874,514,HRV,HRV_0184,2022-11-30 18:23:49
54,"[{'imgObject': {}, 'id': 'cocktailshrimp', 'src': '/static/foodstim60/cocktailshrimp.jpg', 'key': 'u', 'origWidth': 410, 'origHeight': 410, 'width': 410, 'height': 410, 'widthPercent': 0.45, 'rescaleHeight': False, 'trialN': 54, 'loaded': True, 'loadedTime': 6815.70000000298, 'positionName': 'LEFT', 'positionCoords': [327.28, 227], 'bid': 9.17}, {'imgObject': {}, 'id': 'froot loops w milk', 'src': '/static/foodstim60/froot loops w milk.jpg', 'key': 'i', 'origWidth': 410, 'origHeight': 410, 'width': 410, 'height': 410, 'widthPercent': 0.45, 'rescaleHeight': False, 'trialN': 54, 'loaded': True, 'loadedTime': 6735.70000000298, 'positionName': 'RIGHT', 'positionCoords': [798.72, 227], 'bid': 8.540000000000001}]",44518.800000000745,1669832536875,cocktailshrimp,froot loops w milk,9.17,8.540000000000001,-0.629999999999999,froot loops w milk,110.60000000149012,112,111.90000000223517,True,i,45141.20000000298,622.4000000022352,1669832537497,622,HRV,HRV_0184,2022-11-30 18:23:49
55,"[{'imgObject': {}, 'id': 'hashbrowns', 'src': '/static/foodstim60/hashbrowns.jpg', 'key': 'u', 'origWidth': 411, 'origHeight': 410, 'width': 411, 'height': 410, 'widthPercent': 0.45, 'rescaleHeight': False, 'trialN': 55, 'loaded': True, 'loadedTime': 6619.900000002235, 'positionName': 'LEFT', 'positionCoords': [326.28, 227], 'bid': 7.65}, {'imgObject': {}, 'id': 'lox', 'src': '/static/foodstim60/lox.jpg', 'key': 'i', 'origWidth': 410, 'origHeight': 411, 'width': 410, 'height': 411, 'widthPercent': 0.45, 'rescaleHeight': False, 'trialN': 55, 'loaded': True, 'loadedTime': 6355.60000000149, 'positionName': 'RIGHT', 'positionCoords': [798.72, 226.5], 'bid': 7.91}]",45141.800000000745,1669832537498,hashbrowns,lox,7.65,7.91,0.2599999999999998,hashbrowns,241.30000000074506,242,242.19999999925494,True,u,45894.0,752.1999999992549,1669832538250,752,HRV,HRV_0184,2022-11-30 18:23:49
56,"[{'imgObject': {}, 'id': 'bagel plain', 'src': '/static/foodstim60/bagel plain.jpg', 'key': 'u', 'origWidth': 410, 'origHeight': 410, 'width': 410, 'height': 410, 'widthPercent': 0.45, 'rescaleHeight': False, 'trialN': 56, 'loaded': True, 'loadedTime': 6399.10000000149, 'positionName': 'LEFT', 'positionCoords': [327.28, 227], 'bid': 7.85}, {'imgObject': {}, 'id': 'roastedpotatoes', 'src': '/static/foodstim60/roastedpotatoes.jpg', 'key': 'i', 'origWidth': 409, 'origHeight': 410, 'width': 409, 'height': 410, 'widthPercent': 0.45, 'rescaleHeight': False, 'trialN': 56, 'loaded': True, 'loadedTime': 6817.900000002235, 'positionName': 'RIGHT', 'positionCoords': [798.72, 227], 'bid': 7.86}]",45894.300000000745,1669832538250,bagel plain,roastedpotatoes,7.85,7.86,0.010000000000000675,bagel plain,5.900000002235174,7,6.400000002235174,True,u,46410.10000000149,515.8000000007451,1669832538766,516,HRV,HRV_0184,2022-11-30 18:23:49
57,"[{'imgObject': {}, 'id': 'rigatoni and sauce', 'src': '/static/foodstim60/rigatoni and sauce.jpg', 'key': 'u', 'origWidth': 410, 'origHeight': 411, 'width': 410, 'height': 411, 'widthPercent': 0.45, 'rescaleHeight': False, 'trialN': 57, 'loaded': True, 'loadedTime': 6686.300000000745, 'positionName': 'LEFT', 'positionCoords': [327.28, 226.5], 'bid': 3.82}, {'imgObject': {}, 'id': 'eggs', 'src': '/static/foodstim60/eggs.jpg', 'key': 'i', 'origWidth': 409, 'origHeight': 409, 'width': 409, 'height': 409, 'widthPercent': 0.45, 'rescaleHeight': False, 'trialN': 57, 'loaded': True, 'loadedTime': 6765.800000000745, 'positionName': 'RIGHT', 'positionCoords': [798.72, 227.5], 'bid': 6.87}]",46410.5,1669832538767,rigatoni and sauce,eggs,3.82,6.87,3.0500000000000003,eggs,45.100000001490116,45,45.600000001490116,True,i,46968.400000002235,557.9000000022352,1669832539324,557,HRV,HRV_0184,2022-11-30 18:23:49
58,"[{'imgObject': {}, 'id': 'mashed potato', 'src': '/static/foodstim60/mashed potato.jpg', 'key': 'u', 'origWidth': 409, 'origHeight': 409, 'width': 409, 'height': 409, 'widthPercent': 0.45, 'rescaleHeight': False, 'trialN': 58, 'loaded': True, 'loadedTime': 6001.900000002235, 'positionName': 'LEFT', 'positionCoords': [328.28, 227.5], 'bid': 6.78}, {'imgObject': {}, 'id': 'raisin bran w milk', 'src': '/static/foodstim60/raisin bran w milk.jpg', 'key': 'i', 'origWidth': 411, 'origHeight': 411, 'width': 411, 'height': 411, 'widthPercent': 0.45, 'rescaleHeight': False, 'trialN': 58, 'loaded': True, 'loadedTime': 6821.300000000745, 'positionName': 'RIGHT', 'positionCoords': [798.72, 226.5], 'bid': 4.2}]",46969.0,1669832539325,mashed potato,raisin bran w milk,6.78,4.2,-2.58,mashed potato,85.20000000298023,86,85.80000000074506,True,u,47566.300000000745,597.3000000007451,1669832539922,597,HRV,HRV_0184,2022-11-30 18:23:49
59,"[{'imgObject': {}, 'id': 'granola w milk', 'src': '/static/foodstim60/granola w milk.jpg', 'key': 'u', 'origWidth': 410, 'origHeight': 410, 'width': 410, 'height': 410, 'widthPercent': 0.45, 'rescaleHeight': False, 'trialN': 59, 'loaded': True, 'loadedTime': 6805.900000002235, 'positionName': 'LEFT', 'positionCoords': [327.28, 227], 'bid': 3.81}, {'imgObject': {}, 'id': 'orange slices', 'src': '/static/foodstim60/orange slices.jpg', 'key': 'i', 'origWidth': 409, 'origHeight': 410, 'width': 409, 'height': 410, 'widthPercent': 0.45, 'rescaleHeight': False, 'trialN': 59, 'loaded': True, 'loadedTime': 6824.800000000745, 'positionName': 'RIGHT', 'positionCoords': [798.72, 227], 'bid': 5.46}]",47566.70000000298,1669832539923,granola w milk,orange slices,3.81,5.46,1.65,granola w milk,33.69999999925494,34,34.19999999925494,True,u,48114.0,547.2999999970198,1669832540470,547,HRV,HRV_0184,2022-11-30 18:23:49
60,"[{'imgObject': {}, 'id': 'eggsalad', 'src': '/static/foodstim60/eggsalad.jpg', 'key': 'u', 'origWidth': 410, 'origHeight': 409, 'width': 410, 'height': 409, 'widthPercent': 0.45, 'rescaleHeight': False, 'trialN': 60, 'loaded': True, 'loadedTime': 6516.20000000298, 'positionName': 'LEFT', 'positionCoords': [327.28, 227.5], 'bid': 7.72}, {'imgObject': {}, 'id': 'lox', 'src': '/static/foodstim60/lox.jpg', 'key': 'i', 'origWidth': 410, 'origHeight': 411, 'width': 410, 'height': 411, 'widthPercent': 0.45, 'rescaleHeight': False, 'trialN': 60, 'loaded': True, 'loadedTime': 6371.10000000149, 'positionName': 'RIGHT', 'positionCoords': [798.72, 226.5], 'bid': 7.91}]",48114.800000000745,1669832540471,eggsalad,lox,7.72,7.91,0.1900000000000004,lox,254.10000000149012,254,254.60000000149012,True,i,48878.5,763.6999999992549,1669832541235,764,HRV,HRV_0184,2022-11-30 18:23:49
61,"[{'imgObject': {}, 'id': 'fried eggs', 'src': '/static/foodstim60/fried eggs.jpg', 'key': 'u', 'origWidth': 410, 'origHeight': 410, 'width': 410, 'height': 410, 'widthPercent': 0.45, 'rescaleHeight': False, 'trialN': 61, 'loaded': True, 'loadedTime': 6828.20000000298, 'positionName': 'LEFT', 'positionCoords': [327.28, 227], 'bid': 5.1000000000000005}, {'imgObject': {}, 'id': 'orange slices', 'src': '/static/foodstim60/orange slices.jpg', 'key': 'i', 'origWidth': 409, 'origHeight': 410, 'width': 409, 'height': 410, 'widthPercent': 0.45, 'rescaleHeight': False, 'trialN': 61, 'loaded': True, 'loadedTime': 6825.400000002235, 'positionName': 'RIGHT', 'positionCoords': [798.72, 227], 'bid': 5.46}]",48879.0,1669832541235,fried eggs,orange slices,5.1000000000000005,5.46,0.35999999999999943,fried eggs,18.5,19,19.100000001490116,True,u,49408.10000000149,529.1000000014901,1669832541764,529,HRV,HRV_0184,2022-11-30 18:23:49
62,"[{'imgObject': {}, 'id': 'cherry tomato', 'src': '/static/foodstim60/cherry tomato.jpg', 'key': 'u', 'origWidth': 410, 'origHeight': 410, 'width': 410, 'height': 410, 'widthPercent': 0.45, 'rescaleHeight': False, 'trialN': 62, 'loaded': True, 'loadedTime': 6732.70000000298, 'positionName': 'LEFT', 'positionCoords': [327.28, 227], 'bid': 8.07}, {'imgObject': {}, 'id': 'salad w chicken', 'src': '/static/foodstim60/salad w chicken.jpg', 'key': 'i', 'origWidth': 411, 'origHeight': 411, 'width': 411, 'height': 411, 'widthPercent': 0.45, 'rescaleHeight': False, 'trialN': 62, 'loaded': True, 'loadedTime': 6596.5, 'positionName': 'RIGHT', 'positionCoords': [798.72, 226.5], 'bid': 7.7}]",49408.800000000745,1669832541765,cherry tomato,salad w chicken,8.07,7.7,-0.3700000000000001,salad w chicken,274.6000000014901,275,275.0,True,i,50195.400000002235,786.6000000014901,1669832542552,787,HRV,HRV_0184,2022-11-30 18:23:49
63,"[{'imgObject': {}, 'id': 'omelette', 'src': '/static/foodstim60/omelette.jpg', 'key': 'u', 'origWidth': 410, 'origHeight': 409, 'width': 410, 'height': 409, 'widthPercent': 0.45, 'rescaleHeight': False, 'trialN': 63, 'loaded': True, 'loadedTime': 6478.5, 'positionName': 'LEFT', 'positionCoords': [327.28, 227.5], 'bid': 7.12}, {'imgObject': {}, 'id': 'edamame', 'src': '/static/foodstim60/edamame.jpg', 'key': 'i', 'origWidth': 409, 'origHeight': 410, 'width': 409, 'height': 410, 'widthPercent': 0.45, 'rescaleHeight': False, 'trialN': 63, 'loaded': True, 'loadedTime': 6600.60000000149, 'positionName': 'RIGHT', 'positionCoords': [798.72, 227], 'bid': 7.16}]",50195.60000000149,1669832542552,omelette,edamame,7.12,7.16,0.040000000000000036,omelette,219.39999999850988,220,220.30000000074506,True,u,50931.0,735.3999999985099,1669832543287,735,HRV,HRV_0184,2022-11-30 18:23:49
64,"[{'imgObject': {}, 'id': 'cocktailshrimp', 'src': '/static/foodstim60/cocktailshrimp.jpg', 'key': 'u', 'origWidth': 410, 'origHeight': 410, 'width': 410, 'height': 410, 'widthPercent': 0.45, 'rescaleHeight': False, 'trialN': 64, 'loaded': True, 'loadedTime': 6814.60000000149, 'positionName': 'LEFT', 'positionCoords': [327.28, 227], 'bid': 9.17}, {'imgObject': {}, 'id': 'hotdog w must', 'src': '/static/foodstim60/hotdog w must.jpg', 'key': 'i', 'origWidth': 409, 'origHeight': 409, 'width': 409, 'height': 409, 'widthPercent': 0.45, 'rescaleHeight': False, 'trialN': 64, 'loaded': True, 'loadedTime': 6098, 'positionName': 'RIGHT', 'positionCoords': [798.72, 227.5], 'bid': 7.86}]",50931.800000000745,1669832543288,cocktailshrimp,hotdog w must,9.17,7.86,-1.3099999999999996,cocktailshrimp,245.0,246,246.60000000149012,True,u,51698.70000000298,766.9000000022352,1669832544055,767,HRV,HRV_0184,2022-11-30 18:23:49
65,"[{'imgObject': {}, 'id': 'sweetpotato', 'src': '/static/foodstim60/sweetpotato.jpg', 'key': 'u', 'origWidth': 410, 'origHeight': 410, 'width': 410, 'height': 410, 'widthPercent': 0.45, 'rescaleHeight': False, 'trialN': 65, 'loaded': True, 'loadedTime': 6243.800000000745, 'positionName': 'LEFT', 'positionCoords': [327.28, 227], 'bid': 2.81}, {'imgObject': {}, 'id': 'avocado', 'src': '/static/foodstim60/avocado.jpg', 'key': 'i', 'origWidth': 409, 'origHeight': 409, 'width': 409, 'height': 409, 'widthPercent': 0.45, 'rescaleHeight': False, 'trialN': 65, 'loaded': True, 'loadedTime': 6789, 'positionName': 'RIGHT', 'positionCoords': [798.72, 227.5], 'bid': 4.08}]",51699.300000000745,1669832544055,sweetpotato,avocado,2.81,4.08,1.27,sweetpotato,247.40000000223517,248,248.0,True,u,52449.10000000149,749.8000000007451,1669832544805,750,HRV,HRV_0184,2022-11-30 18:23:49
66,"[{'imgObject': {}, 'id': 'mango', 'src': '/static/foodstim60/mango.jpg', 'key': 'u', 'origWidth': 411, 'origHeight': 411, 'width': 411, 'height': 411, 'widthPercent': 0.45, 'rescaleHeight': False, 'trialN': 66, 'loaded': True, 'loadedTime': 6725.10000000149, 'positionName': 'LEFT', 'positionCoords': [326.28, 226.5], 'bid': 5.88}, {'imgObject': {}, 'id': 'pear', 'src': '/static/foodstim60/pear.jpg', 'key': 'i', 'origWidth': 411, 'origHeight': 410, 'width': 411, 'height': 410, 'widthPercent': 0.45, 'rescaleHeight': False, 'trialN': 66, 'loaded': True, 'loadedTime': 6438.900000002235, 'positionName': 'RIGHT', 'positionCoords': [798.72, 227], 'bid': 7.82}]",52449.70000000298,1669832544806,mango,pear,5.88,7.82,1.9400000000000004,pear,122.79999999701977,123,123.59999999776483,True,i,53081.0,631.2999999970198,1669832545437,631,HRV,HRV_0184,2022-11-30 18:23:49
67,"[{'imgObject': {}, 'id': 'cherry tomato', 'src': '/static/foodstim60/cherry tomato.jpg', 'key': 'u', 'origWidth': 410, 'origHeight': 410, 'width': 410, 'height': 410, 'widthPercent': 0.45, 'rescaleHeight': False, 'trialN': 67, 'loaded': True, 'loadedTime': 6728.400000002235, 'positionName': 'LEFT', 'positionCoords': [327.28, 227], 'bid': 8.07}, {'imgObject': {}, 'id': 'blackbeanswithrice', 'src': '/static/foodstim60/blackbeanswithrice.jpg', 'key': 'i', 'origWidth': 410, 'origHeight': 410, 'width': 410, 'height': 410, 'widthPercent': 0.45, 'rescaleHeight': False, 'trialN': 67, 'loaded': True, 'loadedTime': 6703.800000000745, 'positionName': 'RIGHT', 'positionCoords': [798.72, 227], 'bid': 7.78}]",53081.900000002235,1669832545438,cherry tomato,blackbeanswithrice,8.07,7.78,-0.29000000000000004,cherry tomato,179.30000000074506,180,180.0,True,u,53768.60000000149,686.6999999992549,1669832546125,687,HRV,HRV_0184,2022-11-30 18:23:49
68,"[{'imgObject': {}, 'id': 'chickenfingers', 'src': '/static/foodstim60/chickenfingers.jpg', 'key': 'u', 'origWidth': 410, 'origHeight': 410, 'width': 410, 'height': 410, 'widthPercent': 0.45, 'rescaleHeight': False, 'trialN': 68, 'loaded': True, 'loadedTime': 6664.800000000745, 'positionName': 'LEFT', 'positionCoords': [327.28, 227], 'bid': 7.22}, {'imgObject': {}, 'id': 'cheerios', 'src': '/static/foodstim60/cheerios.jpg', 'key': 'i', 'origWidth': 409, 'origHeight': 410, 'width': 409, 'height': 410, 'widthPercent': 0.45, 'rescaleHeight': False, 'trialN': 68, 'loaded': True, 'loadedTime': 6707, 'positionName': 'RIGHT', 'positionCoords': [798.72, 227], 'bid': 7.7}]",53768.900000002235,1669832546125,chickenfingers,cheerios,7.22,7.7,0.4800000000000004,chickenfingers,47.19999999925494,48,47.80000000074506,True,u,54330.0,561.0999999977648,1669832546686,561,HRV,HRV_0184,2022-11-30 18:23:49
69,"[{'imgObject': {}, 'id': 'veggieswithdip', 'src': '/static/foodstim60/veggieswithdip.jpg', 'key': 'u', 'origWidth': 409, 'origHeight': 409, 'width': 409, 'height': 409, 'widthPercent': 0.45, 'rescaleHeight': False, 'trialN': 69, 'loaded': True, 'loadedTime': 6575.70000000298, 'positionName': 'LEFT', 'positionCoords': [328.28, 227.5], 'bid': 7.78}, {'imgObject': {}, 'id': 'mac & cheese', 'src': '/static/foodstim60/mac & cheese.jpg', 'key': 'i', 'origWidth': 410, 'origHeight': 410, 'width': 410, 'height': 410, 'widthPercent': 0.45, 'rescaleHeight': False, 'trialN': 69, 'loaded': True, 'loadedTime': 6528.900000002235, 'positionName': 'RIGHT', 'positionCoords': [798.72, 227], 'bid': 8.15}]",54330.400000002235,1669832546686,veggieswithdip,mac & cheese,7.78,8.15,0.3700000000000001,mac & cheese,185.19999999925494,187,186.19999999925494,True,i,55036.300000000745,705.8999999985099,1669832547392,706,HRV,HRV_0184,2022-11-30 18:23:49
70,"[{'imgObject': {}, 'id': 'fried eggs', 'src': '/static/foodstim60/fried eggs.jpg', 'key': 'u', 'origWidth': 410, 'origHeight': 410, 'width': 410, 'height': 410, 'widthPercent': 0.45, 'rescaleHeight': False, 'trialN': 70, 'loaded': True, 'loadedTime': 6830.400000002235, 'positionName': 'LEFT', 'positionCoords': [327.28, 227], 'bid': 5.1000000000000005}, {'imgObject': {}, 'id': 'popsicles', 'src': '/static/foodstim60/popsicles.jpg', 'key': 'i', 'origWidth': 410, 'origHeight': 410, 'width': 410, 'height': 410, 'widthPercent': 0.45, 'rescaleHeight': False, 'trialN': 70, 'loaded': True, 'loadedTime': 6644.300000000745, 'positionName': 'RIGHT', 'positionCoords': [798.72, 227], 'bid': 5.05}]",55036.70000000298,1669832547393,fried eggs,popsicles,5.1000000000000005,5.05,-0.05000000000000071,fried eggs,234.0,234,234.59999999776483,True,u,55784.60000000149,747.8999999985099,1669832548141,748,HRV,HRV_0184,2022-11-30 18:23:49
71,"[{'imgObject': {}, 'id': 'raisin bran w milk', 'src': '/static/foodstim60/raisin bran w milk.jpg', 'key': 'u', 'origWidth': 411, 'origHeight': 411, 'width': 411, 'height': 411, 'widthPercent': 0.45, 'rescaleHeight': False, 'trialN': 71, 'loaded': True, 'loadedTime': 6821.60000000149, 'positionName': 'LEFT', 'positionCoords': [326.28, 226.5], 'bid': 4.2}, {'imgObject': {}, 'id': 'avocado', 'src': '/static/foodstim60/avocado.jpg', 'key': 'i', 'origWidth': 409, 'origHeight': 409, 'width': 409, 'height': 409, 'widthPercent': 0.45, 'rescaleHeight': False, 'trialN': 71, 'loaded': True, 'loadedTime': 6786.800000000745, 'positionName': 'RIGHT', 'positionCoords': [798.72, 227.5], 'bid': 4.08}]",55785.20000000298,1669832548141,raisin bran w milk,avocado,4.2,4.08,-0.1200000000000001,avocado,174.69999999925494,175,175.19999999925494,True,i,56475.800000000745,690.5999999977648,1669832548832,691,HRV,HRV_0184,2022-11-30 18:23:49
72,"[{'imgObject': {}, 'id': 'seaweed', 'src': '/static/foodstim60/seaweed.jpg', 'key': 'u', 'origWidth': 410, 'origHeight': 410, 'width': 410, 'height': 410, 'widthPercent': 0.45, 'rescaleHeight': False, 'trialN': 72, 'loaded': True, 'loadedTime': 6743.5, 'positionName': 'LEFT', 'positionCoords': [327.28, 227], 'bid': 2.79}, {'imgObject': {}, 'id': 'turkeysandwich', 'src': '/static/foodstim60/turkeysandwich.jpg', 'key': 'i', 'origWidth': 409, 'origHeight': 409, 'width': 409, 'height': 409, 'widthPercent': 0.45, 'rescaleHeight': False, 'trialN': 72, 'loaded': True, 'loadedTime': 6439.20000000298, 'positionName': 'RIGHT', 'positionCoords': [798.72, 227.5], 'bid': 7.31}]",56476.300000000745,1669832548832,seaweed,turkeysandwich,2.79,7.31,4.52,seaweed,224.40000000223517,226,225.30000000074506,True,u,57210.0,733.6999999992549,1669832549567,735,HRV,HRV_0184,2022-11-30 18:23:49
73,"[{'imgObject': {}, 'id': 'mashed potato', 'src': '/static/foodstim60/mashed potato.jpg', 'key': 'u', 'origWidth': 409, 'origHeight': 409, 'width': 409, 'height': 409, 'widthPercent': 0.45, 'rescaleHeight': False, 'trialN': 73, 'loaded': True, 'loadedTime': 5998.900000002235, 'positionName': 'LEFT', 'positionCoords': [328.28, 227.5], 'bid': 6.78}, {'imgObject': {}, 'id': 'fried eggs', 'src': '/static/foodstim60/fried eggs.jpg', 'key': 'i', 'origWidth': 410, 'origHeight': 410, 'width': 410, 'height': 410, 'widthPercent': 0.45, 'rescaleHeight': False, 'trialN': 73, 'loaded': True, 'loadedTime': 6830.70000000298, 'positionName': 'RIGHT', 'positionCoords': [798.72, 227], 'bid': 5.1000000000000005}]",57210.900000002235,1669832549567,mashed potato,fried eggs,6.78,5.1000000000000005,-1.6799999999999997,fried eggs,213.5,214,213.89999999850988,True,i,57926.5,715.5999999977648,1669832550283,716,HRV,HRV_0184,2022-11-30 18:23:49
74,"[{'imgObject': {}, 'id': 'edamame', 'src': '/static/foodstim60/edamame.jpg', 'key': 'u', 'origWidth': 409, 'origHeight': 410, 'width': 409, 'height': 410, 'widthPercent': 0.45, 'rescaleHeight': False, 'trialN': 74, 'loaded': True, 'loadedTime': 6601.400000002235, 'positionName': 'LEFT', 'positionCoords': [328.28, 227], 'bid': 7.16}, {'imgObject': {}, 'id': 'rigatoni', 'src': '/static/foodstim60/rigatoni.jpg', 'key': 'i', 'origWidth': 411, 'origHeight': 411, 'width': 411, 'height': 411, 'widthPercent': 0.45, 'rescaleHeight': False, 'trialN': 74, 'loaded': True, 'loadedTime': 6678.70000000298, 'positionName': 'RIGHT', 'positionCoords': [798.72, 226.5], 'bid': 7.63}]",57927.0,1669832550284,edamame,rigatoni,7.16,7.63,0.46999999999999975,edamame,241.0,241,241.5,True,u,58679.300000000745,752.3000000007451,1669832551036,752,HRV,HRV_0184,2022-11-30 18:23:49
75,"[{'imgObject': {}, 'id': 'burrito', 'src': '/static/foodstim60/burrito.jpg', 'key': 'u', 'origWidth': 410, 'origHeight': 410, 'width': 410, 'height': 410, 'widthPercent': 0.45, 'rescaleHeight': False, 'trialN': 75, 'loaded': True, 'loadedTime': 6615.60000000149, 'positionName': 'LEFT', 'positionCoords': [327.28, 227], 'bid': 7.61}, {'imgObject': {}, 'id': 'omelette', 'src': '/static/foodstim60/omelette.jpg', 'key': 'i', 'origWidth': 410, 'origHeight': 409, 'width': 410, 'height': 409, 'widthPercent': 0.45, 'rescaleHeight': False, 'trialN': 75, 'loaded': True, 'loadedTime': 6477.10000000149, 'positionName': 'RIGHT', 'positionCoords': [798.72, 227.5], 'bid': 7.12}]",58680.60000000149,1669832551037,burrito,omelette,7.61,7.12,-0.4900000000000002,omelette,212.89999999850988,213,213.30000000074506,True,i,59397.900000002235,717.3000000007451,1669832551754,717,HRV,HRV_0184,2022-11-30 18:23:49
76,"[{'imgObject': {}, 'id': 'raisin bran w milk', 'src': '/static/foodstim60/raisin bran w milk.jpg', 'key': 'u', 'origWidth': 411, 'origHeight': 411, 'width': 411, 'height': 411, 'widthPercent': 0.45, 'rescaleHeight': False, 'trialN': 76, 'loaded': True, 'loadedTime': 6821.400000002235, 'positionName': 'LEFT', 'positionCoords': [326.28, 226.5], 'bid': 4.2}, {'imgObject': {}, 'id': 'salad w chicken', 'src': '/static/foodstim60/salad w chicken.jpg', 'key': 'i', 'origWidth': 411, 'origHeight': 411, 'width': 411, 'height': 411, 'widthPercent': 0.45, 'rescaleHeight': False, 'trialN': 76, 'loaded': True, 'loadedTime': 6579.20000000298, 'positionName': 'RIGHT', 'positionCoords': [798.72, 226.5], 'bid': 7.7}]",59398.20000000298,1669832551755,raisin bran w milk,salad w chicken,4.2,7.7,3.5,salad w chicken,12.899999998509884,14,13.799999997019768,True,i,59926.0,527.7999999970198,1669832552283,528,HRV,HRV_0184,2022-11-30 18:23:49
77,"[{'imgObject': {}, 'id': 'kiwi', 'src': '/static/foodstim60/kiwi.jpg', 'key': 'u', 'origWidth': 410, 'origHeight': 410, 'width': 410, 'height': 410, 'widthPercent': 0.45, 'rescaleHeight': False, 'trialN': 77, 'loaded': True, 'loadedTime': 6642.10000000149, 'positionName': 'LEFT', 'positionCoords': [327.28, 227], 'bid': 7.73}, {'imgObject': {}, 'id': 'olives', 'src': '/static/foodstim60/olives.jpg', 'key': 'i', 'origWidth': 410, 'origHeight': 410, 'width': 410, 'height': 410, 'widthPercent': 0.45, 'rescaleHeight': False, 'trialN': 77, 'loaded': True, 'loadedTime': 6501.5, 'positionName': 'RIGHT', 'positionCoords': [798.72, 227], 'bid': 7.77}]",59926.400000002235,1669832552283,kiwi,olives,7.73,7.77,0.03999999999999915,kiwi,114.19999999925494,115,114.69999999925494,True,u,60553.300000000745,626.8999999985099,1669832552910,627,HRV,HRV_0184,2022-11-30 18:23:49
78,"[{'imgObject': {}, 'id': 'burrito', 'src': '/static/foodstim60/burrito.jpg', 'key': 'u', 'origWidth': 410, 'origHeight': 410, 'width': 410, 'height': 410, 'widthPercent': 0.45, 'rescaleHeight': False, 'trialN': 78, 'loaded': True, 'loadedTime': 6617, 'positionName': 'LEFT', 'positionCoords': [327.28, 227], 'bid': 7.61}, {'imgObject': {}, 'id': 'sushi w_condiments', 'src': '/static/foodstim60/sushi w_condiments.jpg', 'key': 'i', 'origWidth': 410, 'origHeight': 410, 'width': 410, 'height': 410, 'widthPercent': 0.45, 'rescaleHeight': False, 'trialN': 78, 'loaded': True, 'loadedTime': 6063.300000000745, 'positionName': 'RIGHT', 'positionCoords': [798.72, 227], 'bid': 3.26}]",60553.70000000298,1669832552910,burrito,sushi w_condiments,7.61,3.26,-4.3500000000000005,burrito,43.19999999925494,44,44.19999999925494,True,u,61116.0,562.2999999970198,1669832553472,562,HRV,HRV_0184,2022-11-30 18:23:49
79,"[{'imgObject': {}, 'id': 'bagel and cc', 'src': '/static/foodstim60/bagel and cc.jpg', 'key': 'u', 'origWidth': 410, 'origHeight': 410, 'width': 410, 'height': 410, 'widthPercent': 0.45, 'rescaleHeight': False, 'trialN': 79, 'loaded': True, 'loadedTime': 6789.400000002235, 'positionName': 'LEFT', 'positionCoords': [327.28, 227], 'bid': 6.86}, {'imgObject': {}, 'id': 'raspberries', 'src': '/static/foodstim60/raspberries.jpg', 'key': 'i', 'origWidth': 411, 'origHeight': 411, 'width': 411, 'height': 411, 'widthPercent': 0.45, 'rescaleHeight': False, 'trialN': 79, 'loaded': True, 'loadedTime': 6216.5, 'positionName': 'RIGHT', 'positionCoords': [798.72, 226.5], 'bid': 6.94}]",61116.20000000298,1669832553473,bagel and cc,raspberries,6.86,6.94,0.08000000000000007,bagel and cc,7.099999997764826,7,7.599999997764826,True,u,61630.20000000298,514.0,1669832553987,514,HRV,HRV_0184,2022-11-30 18:23:49
80,"[{'imgObject': {}, 'id': 'tacos', 'src': '/static/foodstim60/tacos.jpg', 'key': 'u', 'origWidth': 411, 'origHeight': 411, 'width': 411, 'height': 411, 'widthPercent': 0.45, 'rescaleHeight': False, 'trialN': 80, 'loaded': True, 'loadedTime': 6552.300000000745, 'positionName': 'LEFT', 'positionCoords': [326.28, 226.5], 'bid': 7.72}, {'imgObject': {}, 'id': 'eggsalad', 'src': '/static/foodstim60/eggsalad.jpg', 'key': 'i', 'origWidth': 410, 'origHeight': 409, 'width': 410, 'height': 409, 'widthPercent': 0.45, 'rescaleHeight': False, 'trialN': 80, 'loaded': True, 'loadedTime': 6516.60000000149, 'positionName': 'RIGHT', 'positionCoords': [798.72, 227.5], 'bid': 7.72}]",61630.800000000745,1669832553987,tacos,eggsalad,7.72,7.72,0.0,eggsalad,16.699999999254942,18,18.0,True,i,62158.300000000745,527.5,1669832554515,528,HRV,HRV_0184,2022-11-30 18:23:49
81,"[{'imgObject': {}, 'id': 'cherry tomato', 'src': '/static/foodstim60/cherry tomato.jpg', 'key': 'u', 'origWidth': 410, 'origHeight': 410, 'width': 410, 'height': 410, 'widthPercent': 0.45, 'rescaleHeight': False, 'trialN': 81, 'loaded': True, 'loadedTime': 6732.10000000149, 'positionName': 'LEFT', 'positionCoords': [327.28, 227], 'bid': 8.07}, {'imgObject': {}, 'id': 'bagel plain', 'src': '/static/foodstim60/bagel plain.jpg', 'key': 'i', 'origWidth': 410, 'origHeight': 410, 'width': 410, 'height': 410, 'widthPercent': 0.45, 'rescaleHeight': False, 'trialN': 81, 'loaded': True, 'loadedTime': 6399.5, 'positionName': 'RIGHT', 'positionCoords': [798.72, 227], 'bid': 7.85}]",62158.800000000745,1669832554515,cherry tomato,bagel plain,8.07,7.85,-0.22000000000000064,cherry tomato,92.69999999925494,94,93.40000000223517,True,u,62756.20000000298,597.4000000022352,1669832555113,598,HRV,HRV_0184,2022-11-30 18:23:49
82,"[{'imgObject': {}, 'id': 'blueberries', 'src': '/static/foodstim60/blueberries.jpg', 'key': 'u', 'origWidth': 411, 'origHeight': 411, 'width': 411, 'height': 411, 'widthPercent': 0.45, 'rescaleHeight': False, 'trialN': 82, 'loaded': True, 'loadedTime': 6831.20000000298, 'positionName': 'LEFT', 'positionCoords': [326.28, 226.5], 'bid': 7.34}, {'imgObject': {}, 'id': 'grilled chicken strips', 'src': '/static/foodstim60/grilled chicken strips.jpg', 'key': 'i', 'origWidth': 410, 'origHeight': 411, 'width': 410, 'height': 411, 'widthPercent': 0.45, 'rescaleHeight': False, 'trialN': 82, 'loaded': True, 'loadedTime': 6293.300000000745, 'positionName': 'RIGHT', 'positionCoords': [798.72, 226.5], 'bid': 2.81}]",62756.400000002235,1669832555113,blueberries,grilled chicken strips,7.34,2.81,-4.529999999999999,blueberries,63.19999999925494,64,64.19999999925494,True,u,63334.10000000149,577.6999999992549,1669832555691,578,HRV,HRV_0184,2022-11-30 18:23:49
83,"[{'imgObject': {}, 'id': 'cherry tomato', 'src': '/static/foodstim60/cherry tomato.jpg', 'key': 'u', 'origWidth': 410, 'origHeight': 410, 'width': 410, 'height': 410, 'widthPercent': 0.45, 'rescaleHeight': False, 'trialN': 83, 'loaded': True, 'loadedTime': 6733, 'positionName': 'LEFT', 'positionCoords': [327.28, 227], 'bid': 8.07}, {'imgObject': {}, 'id': 'omelette', 'src': '/static/foodstim60/omelette.jpg', 'key': 'i', 'origWidth': 410, 'origHeight': 409, 'width': 410, 'height': 409, 'widthPercent': 0.45, 'rescaleHeight': False, 'trialN': 83, 'loaded': True, 'loadedTime': 6466.20000000298, 'positionName': 'RIGHT', 'positionCoords': [798.72, 227.5], 'bid': 7.12}]",63334.70000000298,1669832555691,cherry tomato,omelette,8.07,7.12,-0.9500000000000002,omelette,28.599999997764826,30,29.5,True,i,63880.800000000745,546.0999999977648,1669832556237,546,HRV,HRV_0184,2022-11-30 18:23:49
84,"[{'imgObject': {}, 'id': 'chicken nuggets2', 'src': '/static/foodstim60/chicken nuggets2.jpg', 'key': 'u', 'origWidth': 410, 'origHeight': 409, 'width': 410, 'height': 409, 'widthPercent': 0.45, 'rescaleHeight': False, 'trialN': 84, 'loaded': True, 'loadedTime': 6052.5, 'positionName': 'LEFT', 'positionCoords': [327.28, 227.5], 'bid': 5.14}, {'imgObject': {}, 'id': 'bagel and cc', 'src': '/static/foodstim60/bagel and cc.jpg', 'key': 'i', 'origWidth': 410, 'origHeight': 410, 'width': 410, 'height': 410, 'widthPercent': 0.45, 'rescaleHeight': False, 'trialN': 84, 'loaded': True, 'loadedTime': 6792.20000000298, 'positionName': 'RIGHT', 'positionCoords': [798.72, 227], 'bid': 6.86}]",63881.20000000298,1669832556238,chicken nuggets2,bagel and cc,5.14,6.86,1.7200000000000006,bagel and cc,34.599999997764826,35,35.0,True,i,64428.70000000298,547.5,1669832556785,547,HRV,HRV_0184,2022-11-30 18:23:49
85,"[{'imgObject': {}, 'id': 'eggs', 'src': '/static/foodstim60/eggs.jpg', 'key': 'u', 'origWidth': 409, 'origHeight': 409, 'width': 409, 'height': 409, 'widthPercent': 0.45, 'rescaleHeight': False, 'trialN': 85, 'loaded': True, 'loadedTime': 6764.5, 'positionName': 'LEFT', 'positionCoords': [328.28, 227.5], 'bid': 6.87}, {'imgObject': {}, 'id': 'orange slices', 'src': '/static/foodstim60/orange slices.jpg', 'key': 'i', 'origWidth': 409, 'origHeight': 410, 'width': 409, 'height': 410, 'widthPercent': 0.45, 'rescaleHeight': False, 'trialN': 85, 'loaded': True, 'loadedTime': 6826.60000000149, 'positionName': 'RIGHT', 'positionCoords': [798.72, 227], 'bid': 5.46}]",64429.60000000149,1669832556786,eggs,orange slices,6.87,5.46,-1.4100000000000001,orange slices,94.80000000074506,96,95.69999999925494,True,i,65041.60000000149,612.0,1669832557398,612,HRV,HRV_0184,2022-11-30 18:23:49
86,"[{'imgObject': {}, 'id': 'banana', 'src': '/static/foodstim60/banana.jpg', 'key': 'u', 'origWidth': 410, 'origHeight': 410, 'width': 410, 'height': 410, 'widthPercent': 0.45, 'rescaleHeight': False, 'trialN': 86, 'loaded': True, 'loadedTime': 6032.10000000149, 'positionName': 'LEFT', 'positionCoords': [327.28, 227], 'bid': 7.05}, {'imgObject': {}, 'id': 'mango', 'src': '/static/foodstim60/mango.jpg', 'key': 'i', 'origWidth': 411, 'origHeight': 411, 'width': 411, 'height': 411, 'widthPercent': 0.45, 'rescaleHeight': False, 'trialN': 86, 'loaded': True, 'loadedTime': 6726.800000000745, 'positionName': 'RIGHT', 'positionCoords': [798.72, 226.5], 'bid': 5.88}]",65042.10000000149,1669832557399,banana,mango,7.05,5.88,-1.17,banana,117.69999999925494,118,118.30000000074506,True,u,65667.10000000149,625.0,1669832558024,625,HRV,HRV_0184,2022-11-30 18:23:49
87,"[{'imgObject': {}, 'id': 'banana', 'src': '/static/foodstim60/banana.jpg', 'key': 'u', 'origWidth': 410, 'origHeight': 410, 'width': 410, 'height': 410, 'widthPercent': 0.45, 'rescaleHeight': False, 'trialN': 87, 'loaded': True, 'loadedTime': 6035.300000000745, 'positionName': 'LEFT', 'positionCoords': [327.28, 227], 'bid': 7.05}, {'imgObject': {}, 'id': 'eggs', 'src': '/static/foodstim60/eggs.jpg', 'key': 'i', 'origWidth': 409, 'origHeight': 409, 'width': 409, 'height': 409, 'widthPercent': 0.45, 'rescaleHeight': False, 'trialN': 87, 'loaded': True, 'loadedTime': 6766, 'positionName': 'RIGHT', 'positionCoords': [798.72, 227.5], 'bid': 6.87}]",65667.40000000224,1669832558024,banana,eggs,7.05,6.87,-0.17999999999999972,banana,115.19999999925494,116,115.89999999850988,True,u,66294.40000000224,627.0,1669832558651,627,HRV,HRV_0184,2022-11-30 18:23:49
88,"[{'imgObject': {}, 'id': 'mac & cheese', 'src': '/static/foodstim60/mac & cheese.jpg', 'key': 'u', 'origWidth': 410, 'origHeight': 410, 'width': 410, 'height': 410, 'widthPercent': 0.45, 'rescaleHeight': False, 'trialN': 88, 'loaded': True, 'loadedTime': 6531.300000000745, 'positionName': 'LEFT', 'positionCoords': [327.28, 227], 'bid': 8.15}, {'imgObject': {}, 'id': 'hotdog w must', 'src': '/static/foodstim60/hotdog w must.jpg', 'key': 'i', 'origWidth': 409, 'origHeight': 409, 'width': 409, 'height': 409, 'widthPercent': 0.45, 'rescaleHeight': False, 'trialN': 88, 'loaded': True, 'loadedTime': 6096.300000000745, 'positionName': 'RIGHT', 'positionCoords': [798.72, 227.5], 'bid': 7.86}]",66294.90000000224,1669832558651,mac & cheese,hotdog w must,8.15,7.86,-0.29000000000000004,hotdog w must,79.69999999925494,81,80.19999999925494,True,i,66891.20000000298,596.3000000007451,1669832559248,597,HRV,HRV_0184,2022-11-30 18:23:49
89,"[{'imgObject': {}, 'id': 'blackbeanswithrice', 'src': '/static/foodstim60/blackbeanswithrice.jpg', 'key': 'u', 'origWidth': 410, 'origHeight': 410, 'width': 410, 'height': 410, 'widthPercent': 0.45, 'rescaleHeight': False, 'trialN': 89, 'loaded': True, 'loadedTime': 6704.20000000298, 'positionName': 'LEFT', 'positionCoords': [327.28, 227], 'bid': 7.78}, {'imgObject': {}, 'id': 'cocktailshrimp', 'src': '/static/foodstim60/cocktailshrimp.jpg', 'key': 'i', 'origWidth': 410, 'origHeight': 410, 'width': 410, 'height': 410, 'widthPercent': 0.45, 'rescaleHeight': False, 'trialN': 89, 'loaded': True, 'loadedTime': 6815.400000002235, 'positionName': 'RIGHT', 'positionCoords': [798.72, 227], 'bid': 9.17}]",66891.60000000149,1669832559248,blackbeanswithrice,cocktailshrimp,7.78,9.17,1.3899999999999997,blackbeanswithrice,230.89999999850988,231,231.39999999850988,True,u,67640.90000000224,749.3000000007451,1669832559997,749,HRV,HRV_0184,2022-11-30 18:23:49
90,"[{'imgObject': {}, 'id': 'avocado', 'src': '/static/foodstim60/avocado.jpg', 'key': 'u', 'origWidth': 409, 'origHeight': 409, 'width': 409, 'height': 409, 'widthPercent': 0.45, 'rescaleHeight': False, 'trialN': 90, 'loaded': True, 'loadedTime': 6788.400000002235, 'positionName': 'LEFT', 'positionCoords': [328.28, 227.5], 'bid': 4.08}, {'imgObject': {}, 'id': 'cherries', 'src': '/static/foodstim60/cherries.jpg', 'key': 'i', 'origWidth': 410, 'origHeight': 411, 'width': 410, 'height': 411, 'widthPercent': 0.45, 'rescaleHeight': False, 'trialN': 90, 'loaded': True, 'loadedTime': 6736.900000002235, 'positionName': 'RIGHT', 'positionCoords': [798.72, 226.5], 'bid': 6.48}]",73467.60000000149,1669832565824,avocado,cherries,4.08,6.48,2.4000000000000004,cherries,737.8000000007451,739,738.8999999985099,True,i,74711.20000000298,1243.6000000014901,1669832567068,1244,HRV,HRV_0184,2022-11-30 18:23:49
91,"[{'imgObject': {}, 'id': 'Grapes', 'src': '/static/foodstim60/Grapes.jpg', 'key': 'u', 'origWidth': 411, 'origHeight': 411, 'width': 411, 'height': 411, 'widthPercent': 0.45, 'rescaleHeight': False, 'trialN': 91, 'loaded': True, 'loadedTime': 6785.5, 'positionName': 'LEFT', 'positionCoords': [326.28, 226.5], 'bid': 4.59}, {'imgObject': {}, 'id': 'tacos', 'src': '/static/foodstim60/tacos.jpg', 'key': 'i', 'origWidth': 411, 'origHeight': 411, 'width': 411, 'height': 411, 'widthPercent': 0.45, 'rescaleHeight': False, 'trialN': 91, 'loaded': True, 'loadedTime': 6552.5, 'positionName': 'RIGHT', 'positionCoords': [798.72, 226.5], 'bid': 7.72}]",74711.80000000075,1669832567068,Grapes,tacos,4.59,7.72,3.13,Grapes,223.69999999925494,225,224.30000000074506,True,u,75439.30000000075,727.5,1669832567796,728,HRV,HRV_0184,2022-11-30 18:23:49
92,"[{'imgObject': {}, 'id': 'burger', 'src': '/static/foodstim60/burger.jpg', 'key': 'u', 'origWidth': 409, 'origHeight': 409, 'width': 409, 'height': 409, 'widthPercent': 0.45, 'rescaleHeight': False, 'trialN': 92, 'loaded': True, 'loadedTime': 6335.400000002235, 'positionName': 'LEFT', 'positionCoords': [328.28, 227.5], 'bid': 7.390000000000001}, {'imgObject': {}, 'id': 'pear', 'src': '/static/foodstim60/pear.jpg', 'key': 'i', 'origWidth': 411, 'origHeight': 410, 'width': 411, 'height': 410, 'widthPercent': 0.45, 'rescaleHeight': False, 'trialN': 92, 'loaded': True, 'loadedTime': 6438.70000000298, 'positionName': 'RIGHT', 'positionCoords': [798.72, 227], 'bid': 7.82}]",75439.60000000149,1669832567796,burger,pear,7.390000000000001,7.82,0.4299999999999997,pear,104.60000000149012,105,105.10000000149012,True,i,76057.30000000075,617.6999999992549,1669832568414,618,HRV,HRV_0184,2022-11-30 18:23:49
93,"[{'imgObject': {}, 'id': 'hotdog w must', 'src': '/static/foodstim60/hotdog w must.jpg', 'key': 'u', 'origWidth': 409, 'origHeight': 409, 'width': 409, 'height': 409, 'widthPercent': 0.45, 'rescaleHeight': False, 'trialN': 93, 'loaded': True, 'loadedTime': 6100.10000000149, 'positionName': 'LEFT', 'positionCoords': [328.28, 227.5], 'bid': 7.86}, {'imgObject': {}, 'id': 'burrito', 'src': '/static/foodstim60/burrito.jpg', 'key': 'i', 'origWidth': 410, 'origHeight': 410, 'width': 410, 'height': 410, 'widthPercent': 0.45, 'rescaleHeight': False, 'trialN': 93, 'loaded': True, 'loadedTime': 6617.800000000745, 'positionName': 'RIGHT', 'positionCoords': [798.72, 227], 'bid': 7.61}]",76057.90000000224,1669832568414,hotdog w must,burrito,7.86,7.61,-0.25,hotdog w must,29.5,32,31.599999997764826,True,u,76601.5,543.5999999977648,1669832568958,544,HRV,HRV_0184,2022-11-30 18:23:49
94,"[{'imgObject': {}, 'id': 'turkeysandwich', 'src': '/static/foodstim60/turkeysandwich.jpg', 'key': 'u', 'origWidth': 409, 'origHeight': 409, 'width': 409, 'height': 409, 'widthPercent': 0.45, 'rescaleHeight': False, 'trialN': 94, 'loaded': True, 'loadedTime': 6461.800000000745, 'positionName': 'LEFT', 'positionCoords': [328.28, 227.5], 'bid': 7.31}, {'imgObject': {}, 'id': 'chickenfingers', 'src': '/static/foodstim60/chickenfingers.jpg', 'key': 'i', 'origWidth': 410, 'origHeight': 410, 'width': 410, 'height': 410, 'widthPercent': 0.45, 'rescaleHeight': False, 'trialN': 94, 'loaded': True, 'loadedTime': 6664.400000002235, 'positionName': 'RIGHT', 'positionCoords': [798.72, 227], 'bid': 7.22}]",76602.10000000149,1669832568959,turkeysandwich,chickenfingers,7.31,7.22,-0.08999999999999986,turkeysandwich,46.30000000074506,46,46.80000000074506,True,u,77165.20000000298,563.1000000014901,1669832569522,563,HRV,HRV_0184,2022-11-30 18:23:49
95,"[{'imgObject': {}, 'id': 'cherries', 'src': '/static/foodstim60/cherries.jpg', 'key': 'u', 'origWidth': 410, 'origHeight': 411, 'width': 410, 'height': 411, 'widthPercent': 0.45, 'rescaleHeight': False, 'trialN': 95, 'loaded': True, 'loadedTime': 6740.5, 'positionName': 'LEFT', 'positionCoords': [327.28, 226.5], 'bid': 6.48}, {'imgObject': {}, 'id': 'mashed potato', 'src': '/static/foodstim60/mashed potato.jpg', 'key': 'i', 'origWidth': 409, 'origHeight': 409, 'width': 409, 'height': 409, 'widthPercent': 0.45, 'rescaleHeight': False, 'trialN': 95, 'loaded': True, 'loadedTime': 6006.800000000745, 'positionName': 'RIGHT', 'positionCoords': [798.72, 227.5], 'bid': 6.78}]",77165.80000000075,1669832569522,cherries,mashed potato,6.48,6.78,0.2999999999999998,cherries,90.5,91,91.10000000149012,True,u,77760.30000000075,594.5,1669832570117,595,HRV,HRV_0184,2022-11-30 18:23:49
96,"[{'imgObject': {}, 'id': 'Grapes', 'src': '/static/foodstim60/Grapes.jpg', 'key': 'u', 'origWidth': 411, 'origHeight': 411, 'width': 411, 'height': 411, 'widthPercent': 0.45, 'rescaleHeight': False, 'trialN': 96, 'loaded': True, 'loadedTime': 6768.70000000298, 'positionName': 'LEFT', 'positionCoords': [326.28, 226.5], 'bid': 4.59}, {'imgObject': {}, 'id': 'fruitsalad', 'src': '/static/foodstim60/fruitsalad.jpg', 'key': 'i', 'origWidth': 410, 'origHeight': 410, 'width': 410, 'height': 410, 'widthPercent': 0.45, 'rescaleHeight': False, 'trialN': 96, 'loaded': True, 'loadedTime': 6808.800000000745, 'positionName': 'RIGHT', 'positionCoords': [798.72, 227], 'bid': 4.96}]",77760.70000000298,1669832570117,Grapes,fruitsalad,4.59,4.96,0.3700000000000001,fruitsalad,122.59999999776483,123,123.19999999925494,True,i,78401.40000000224,640.6999999992549,1669832570758,641,HRV,HRV_0184,2022-11-30 18:23:49
97,"[{'imgObject': {}, 'id': 'hotdog w must', 'src': '/static/foodstim60/hotdog w must.jpg', 'key': 'u', 'origWidth': 409, 'origHeight': 409, 'width': 409, 'height': 409, 'widthPercent': 0.45, 'rescaleHeight': False, 'trialN': 97, 'loaded': True, 'loadedTime': 6101.10000000149, 'positionName': 'LEFT', 'positionCoords': [328.28, 227.5], 'bid': 7.86}, {'imgObject': {}, 'id': 'bagel plain', 'src': '/static/foodstim60/bagel plain.jpg', 'key': 'i', 'origWidth': 410, 'origHeight': 410, 'width': 410, 'height': 410, 'widthPercent': 0.45, 'rescaleHeight': False, 'trialN': 97, 'loaded': True, 'loadedTime': 6398.800000000745, 'positionName': 'RIGHT', 'positionCoords': [798.72, 227], 'bid': 7.85}]",78401.80000000075,1669832570758,hotdog w must,bagel plain,7.86,7.85,-0.010000000000000675,bagel plain,34.400000002235174,35,34.80000000074506,True,i,78947.5,545.6999999992549,1669832571304,546,HRV,HRV_0184,2022-11-30 18:23:49
98,"[{'imgObject': {}, 'id': 'corn cob', 'src': '/static/foodstim60/corn cob.jpg', 'key': 'u', 'origWidth': 411, 'origHeight': 411, 'width': 411, 'height': 411, 'widthPercent': 0.45, 'rescaleHeight': False, 'trialN': 98, 'loaded': True, 'loadedTime': 6761.20000000298, 'positionName': 'LEFT', 'positionCoords': [326.28, 226.5], 'bid': 7.66}, {'imgObject': {}, 'id': 'olives', 'src': '/static/foodstim60/olives.jpg', 'key': 'i', 'origWidth': 410, 'origHeight': 410, 'width': 410, 'height': 410, 'widthPercent': 0.45, 'rescaleHeight': False, 'trialN': 98, 'loaded': True, 'loadedTime': 6499.800000000745, 'positionName': 'RIGHT', 'positionCoords': [798.72, 227], 'bid': 7.77}]",78948.10000000149,1669832571305,corn cob,olives,7.66,7.77,0.10999999999999943,corn cob,66.89999999850988,67,67.39999999850988,True,u,79528.0,579.8999999985099,1669832571885,580,HRV,HRV_0184,2022-11-30 18:23:49
99,"[{'imgObject': {}, 'id': 'seaweed', 'src': '/static/foodstim60/seaweed.jpg', 'key': 'u', 'origWidth': 410, 'origHeight': 410, 'width': 410, 'height': 410, 'widthPercent': 0.45, 'rescaleHeight': False, 'trialN': 99, 'loaded': True, 'loadedTime': 6744.10000000149, 'positionName': 'LEFT', 'positionCoords': [327.28, 227], 'bid': 2.79}, {'imgObject': {}, 'id': 'rigatoni and sauce', 'src': '/static/foodstim60/rigatoni and sauce.jpg', 'key': 'i', 'origWidth': 410, 'origHeight': 411, 'width': 410, 'height': 411, 'widthPercent': 0.45, 'rescaleHeight': False, 'trialN': 99, 'loaded': True, 'loadedTime': 6685.900000002235, 'positionName': 'RIGHT', 'positionCoords': [798.72, 226.5], 'bid': 3.82}]",79528.60000000149,1669832571885,seaweed,rigatoni and sauce,2.79,3.82,1.0299999999999998,rigatoni and sauce,238.69999999925494,239,239.30000000074506,True,i,80274.40000000224,745.8000000007451,1669832572631,746,HRV,HRV_0184,2022-11-30 18:23:49
100,"[{'imgObject': {}, 'id': 'corn cob', 'src': '/static/foodstim60/corn cob.jpg', 'key': 'u', 'origWidth': 411, 'origHeight': 411, 'width': 411, 'height': 411, 'widthPercent': 0.45, 'rescaleHeight': False, 'trialN': 100, 'loaded': True, 'loadedTime': 6760.10000000149, 'positionName': 'LEFT', 'positionCoords': [326.28, 226.5], 'bid': 7.66}, {'imgObject': {}, 'id': 'salad w chicken', 'src': '/static/foodstim60/salad w chicken.jpg', 'key': 'i', 'origWidth': 411, 'origHeight': 411, 'width': 411, 'height': 411, 'widthPercent': 0.45, 'rescaleHeight': False, 'trialN': 100, 'loaded': True, 'loadedTime': 6576.70000000298, 'positionName': 'RIGHT', 'positionCoords': [798.72, 226.5], 'bid': 7.7}]",80275.0,1669832572631,corn cob,salad w chicken,7.66,7.7,0.040000000000000036,corn cob,295.70000000298023,297,296.30000000074506,True,u,81089.60000000149,814.6000000014901,1669832573446,815,HRV,HRV_0184,2022-11-30 18:23:49
101,"[{'imgObject': {}, 'id': 'apple slices', 'src': '/static/foodstim60/apple slices.jpg', 'key': 'u', 'origWidth': 409, 'origHeight': 410, 'width': 409, 'height': 410, 'widthPercent': 0.45, 'rescaleHeight': False, 'trialN': 101, 'loaded': True, 'loadedTime': 6678.5, 'positionName': 'LEFT', 'positionCoords': [328.28, 227], 'bid': 7.21}, {'imgObject': {}, 'id': 'turkey sandwich', 'src': '/static/foodstim60/turkey sandwich.jpg', 'key': 'i', 'origWidth': 409, 'origHeight': 409, 'width': 409, 'height': 409, 'widthPercent': 0.45, 'rescaleHeight': False, 'trialN': 101, 'loaded': True, 'loadedTime': 6393.10000000149, 'positionName': 'RIGHT', 'positionCoords': [798.72, 227.5], 'bid': 7.56}]",81089.80000000075,1669832573446,apple slices,turkey sandwich,7.21,7.56,0.34999999999999964,turkey sandwich,44.69999999925494,46,45.400000002235174,True,i,81653.70000000298,563.9000000022352,1669832574010,564,HRV,HRV_0184,2022-11-30 18:23:49
102,"[{'imgObject': {}, 'id': 'baked potato', 'src': '/static/foodstim60/baked potato.jpg', 'key': 'u', 'origWidth': 409, 'origHeight': 410, 'width': 409, 'height': 410, 'widthPercent': 0.45, 'rescaleHeight': False, 'trialN': 102, 'loaded': True, 'loadedTime': 6298.60000000149, 'positionName': 'LEFT', 'positionCoords': [328.28, 227], 'bid': 3.22}, {'imgObject': {}, 'id': 'raisin bran w milk', 'src': '/static/foodstim60/raisin bran w milk.jpg', 'key': 'i', 'origWidth': 411, 'origHeight': 411, 'width': 411, 'height': 411, 'widthPercent': 0.45, 'rescaleHeight': False, 'trialN': 102, 'loaded': True, 'loadedTime': 6819.60000000149, 'positionName': 'RIGHT', 'positionCoords': [798.72, 226.5], 'bid': 4.2}]",81654.30000000075,1669832574011,baked potato,raisin bran w milk,3.22,4.2,0.98,raisin bran w milk,7.900000002235174,10,10.199999999254942,True,i,82170.20000000298,515.9000000022352,1669832574527,516,HRV,HRV_0184,2022-11-30 18:23:49
103,"[{'imgObject': {}, 'id': 'banana', 'src': '/static/foodstim60/banana.jpg', 'key': 'u', 'origWidth': 410, 'origHeight': 410, 'width': 410, 'height': 410, 'widthPercent': 0.45, 'rescaleHeight': False, 'trialN': 103, 'loaded': True, 'loadedTime': 6037, 'positionName': 'LEFT', 'positionCoords': [327.28, 227], 'bid': 7.05}, {'imgObject': {}, 'id': 'avocado', 'src': '/static/foodstim60/avocado.jpg', 'key': 'i', 'origWidth': 409, 'origHeight': 409, 'width': 409, 'height': 409, 'widthPercent': 0.45, 'rescaleHeight': False, 'trialN': 103, 'loaded': True, 'loadedTime': 6788.70000000298, 'positionName': 'RIGHT', 'positionCoords': [798.72, 227.5], 'bid': 4.08}]",82170.80000000075,1669832574527,banana,avocado,7.05,4.08,-2.9699999999999998,banana,44.80000000074506,46,45.400000002235174,True,u,82719.30000000075,548.5,1669832575076,549,HRV,HRV_0184,2022-11-30 18:23:49
104,"[{'imgObject': {}, 'id': 'salad w chicken', 'src': '/static/foodstim60/salad w chicken.jpg', 'key': 'u', 'origWidth': 411, 'origHeight': 411, 'width': 411, 'height': 411, 'widthPercent': 0.45, 'rescaleHeight': False, 'trialN': 104, 'loaded': True, 'loadedTime': 6597, 'positionName': 'LEFT', 'positionCoords': [326.28, 226.5], 'bid': 7.7}, {'imgObject': {}, 'id': 'cheerios', 'src': '/static/foodstim60/cheerios.jpg', 'key': 'i', 'origWidth': 409, 'origHeight': 410, 'width': 409, 'height': 410, 'widthPercent': 0.45, 'rescaleHeight': False, 'trialN': 104, 'loaded': True, 'loadedTime': 6707.300000000745, 'positionName': 'RIGHT', 'positionCoords': [798.72, 227], 'bid': 7.7}]",82719.60000000149,1669832575076,salad w chicken,cheerios,7.7,7.7,0.0,salad w chicken,69.19999999925494,70,69.69999999925494,True,u,83296.70000000298,577.1000000014901,1669832575653,577,HRV,HRV_0184,2022-11-30 18:23:49
105,"[{'imgObject': {}, 'id': 'veggieswithdip', 'src': '/static/foodstim60/veggieswithdip.jpg', 'key': 'u', 'origWidth': 409, 'origHeight': 409, 'width': 409, 'height': 409, 'widthPercent': 0.45, 'rescaleHeight': False, 'trialN': 105, 'loaded': True, 'loadedTime': 6575.5, 'positionName': 'LEFT', 'positionCoords': [328.28, 227.5], 'bid': 7.78}, {'imgObject': {}, 'id': 'pear', 'src': '/static/foodstim60/pear.jpg', 'key': 'i', 'origWidth': 411, 'origHeight': 410, 'width': 411, 'height': 410, 'widthPercent': 0.45, 'rescaleHeight': False, 'trialN': 105, 'loaded': True, 'loadedTime': 6425.400000002235, 'positionName': 'RIGHT', 'positionCoords': [798.72, 227], 'bid': 7.82}]",83298.30000000075,1669832575655,veggieswithdip,pear,7.78,7.82,0.040000000000000036,pear,0.5,2,2.600000001490116,True,i,83811.90000000224,513.6000000014901,1669832576168,513,HRV,HRV_0184,2022-11-30 18:23:49
106,"[{'imgObject': {}, 'id': 'sweetpotato', 'src': '/static/foodstim60/sweetpotato.jpg', 'key': 'u', 'origWidth': 410, 'origHeight': 410, 'width': 410, 'height': 410, 'widthPercent': 0.45, 'rescaleHeight': False, 'trialN': 106, 'loaded': True, 'loadedTime': 6240.60000000149, 'positionName': 'LEFT', 'positionCoords': [327.28, 227], 'bid': 2.81}, {'imgObject': {}, 'id': 'mango', 'src': '/static/foodstim60/mango.jpg', 'key': 'i', 'origWidth': 411, 'origHeight': 411, 'width': 411, 'height': 411, 'widthPercent': 0.45, 'rescaleHeight': False, 'trialN': 106, 'loaded': True, 'loadedTime': 6728.20000000298, 'positionName': 'RIGHT', 'positionCoords': [798.72, 226.5], 'bid': 5.88}]",83812.5,1669832576169,sweetpotato,mango,2.81,5.88,3.07,sweetpotato,110.30000000074506,112,111.70000000298023,True,u,84432.10000000149,619.6000000014901,1669832576789,620,HRV,HRV_0184,2022-11-30 18:23:49
107,"[{'imgObject': {}, 'id': 'granola w milk', 'src': '/static/foodstim60/granola w milk.jpg', 'key': 'u', 'origWidth': 410, 'origHeight': 410, 'width': 410, 'height': 410, 'widthPercent': 0.45, 'rescaleHeight': False, 'trialN': 107, 'loaded': True, 'loadedTime': 6805.5, 'positionName': 'LEFT', 'positionCoords': [327.28, 227], 'bid': 3.81}, {'imgObject': {}, 'id': 'Tribe humus pita', 'src': '/static/foodstim60/Tribe humus pita.jpg', 'key': 'i', 'origWidth': 411, 'origHeight': 411, 'width': 411, 'height': 411, 'widthPercent': 0.45, 'rescaleHeight': False, 'trialN': 107, 'loaded': True, 'loadedTime': 6724.60000000149, 'positionName': 'RIGHT', 'positionCoords': [798.72, 226.5], 'bid': 3.95}]",84433.0,1669832576789,granola w milk,Tribe humus pita,3.81,3.95,0.14000000000000012,granola w milk,95.5,97,96.40000000223517,True,u,85041.70000000298,608.7000000029802,1669832577398,609,HRV,HRV_0184,2022-11-30 18:23:49
108,"[{'imgObject': {}, 'id': 'chickenfingers', 'src': '/static/foodstim60/chickenfingers.jpg', 'key': 'u', 'origWidth': 410, 'origHeight': 410, 'width': 410, 'height': 410, 'widthPercent': 0.45, 'rescaleHeight': False, 'trialN': 108, 'loaded': True, 'loadedTime': 6660.20000000298, 'positionName': 'LEFT', 'positionCoords': [327.28, 227], 'bid': 7.22}, {'imgObject': {}, 'id': 'froot loops w milk', 'src': '/static/foodstim60/froot loops w milk.jpg', 'key': 'i', 'origWidth': 410, 'origHeight': 410, 'width': 410, 'height': 410, 'widthPercent': 0.45, 'rescaleHeight': False, 'trialN': 108, 'loaded': True, 'loadedTime': 6736.60000000149, 'positionName': 'RIGHT', 'positionCoords': [798.72, 227], 'bid': 8.540000000000001}]",85042.20000000298,1669832577399,chickenfingers,froot loops w milk,7.22,8.540000000000001,1.3200000000000012,froot loops w milk,12.799999997019768,13,13.799999997019768,True,i,85560.60000000149,518.3999999985099,1669832577917,518,HRV,HRV_0184,2022-11-30 18:23:49
