trialN,stimuli,trialStartTime,trialStartTime_UNIX,stimulus1,stimulus2,stimulus1Bid,stimulus2Bid,delta,selected,rt,rt_UNIX,rt_perfnow,receivedResponse,rsp,trialEndTime,trialDuration,trialEndTime_UNIX,trialDuration_UNIX,exp,subjectId,date
0,"[{'imgObject': {}, 'id': 'mashed potato', 'src': '/static/foodstim60/mashed potato.jpg', 'key': 'u', 'origWidth': 409, 'origHeight': 409, 'width': 409, 'height': 409, 'widthPercent': 0.45, 'rescaleHeight': False, 'trialN': 0, 'loaded': True, 'loadedTime': 3680.3999999910593, 'positionName': 'LEFT', 'positionCoords': [328.28, 227.5], 'bid': 6.7700000000000005}, {'imgObject': {}, 'id': 'avocado', 'src': '/static/foodstim60/avocado.jpg', 'key': 'i', 'origWidth': 409, 'origHeight': 409, 'width': 409, 'height': 409, 'widthPercent': 0.45, 'rescaleHeight': False, 'trialN': 0, 'loaded': True, 'loadedTime': 5337.79999999702, 'positionName': 'RIGHT', 'positionCoords': [798.72, 227.5], 'bid': 5.65}]",6031.0999999940395,1669840640959,mashed potato,avocado,6.7700000000000005,5.65,-1.12,mashed potato,1068.7999999970198,1070,1070.0,True,u,7608.5,1577.4000000059605,1669840642536,1577,HRV,HRV_0296,2022-11-30 20:41:42
1,"[{'imgObject': {}, 'id': 'granola w milk', 'src': '/static/foodstim60/granola w milk.jpg', 'key': 'u', 'origWidth': 410, 'origHeight': 410, 'width': 410, 'height': 410, 'widthPercent': 0.45, 'rescaleHeight': False, 'trialN': 1, 'loaded': True, 'loadedTime': 5381.79999999702, 'positionName': 'LEFT', 'positionCoords': [327.28, 227], 'bid': 7.44}, {'imgObject': {}, 'id': 'kiwi', 'src': '/static/foodstim60/kiwi.jpg', 'key': 'i', 'origWidth': 410, 'origHeight': 410, 'width': 410, 'height': 410, 'widthPercent': 0.45, 'rescaleHeight': False, 'trialN': 1, 'loaded': True, 'loadedTime': 5386.79999999702, 'positionName': 'RIGHT', 'positionCoords': [798.72, 227], 'bid': 6.11}]",7609.29999999702,1669840642537,granola w milk,kiwi,7.44,6.11,-1.33,kiwi,1280.5,1281,1281.2000000029802,True,i,9394.09999999404,1784.7999999970198,1669840644322,1785,HRV,HRV_0296,2022-11-30 20:41:42
2,"[{'imgObject': {}, 'id': 'bagel plain', 'src': '/static/foodstim60/bagel plain.jpg', 'key': 'u', 'origWidth': 410, 'origHeight': 410, 'width': 410, 'height': 410, 'widthPercent': 0.45, 'rescaleHeight': False, 'trialN': 2, 'loaded': True, 'loadedTime': 5441.899999991059, 'positionName': 'LEFT', 'positionCoords': [327.28, 227], 'bid': 6.71}, {'imgObject': {}, 'id': 'cantaloupe', 'src': '/static/foodstim60/cantaloupe.jpg', 'key': 'i', 'origWidth': 409, 'origHeight': 409, 'width': 409, 'height': 409, 'widthPercent': 0.45, 'rescaleHeight': False, 'trialN': 2, 'loaded': True, 'loadedTime': 5518.399999991059, 'positionName': 'RIGHT', 'positionCoords': [798.72, 227.5], 'bid': 7.34}]",9394.5,1669840644322,bagel plain,cantaloupe,6.71,7.34,0.6299999999999999,cantaloupe,863.2000000029802,864,864.2000000029802,True,i,10763.29999999702,1368.7999999970198,1669840645691,1369,HRV,HRV_0296,2022-11-30 20:41:42
3,"[{'imgObject': {}, 'id': 'edamame', 'src': '/static/foodstim60/edamame.jpg', 'key': 'u', 'origWidth': 409, 'origHeight': 410, 'width': 409, 'height': 410, 'widthPercent': 0.45, 'rescaleHeight': False, 'trialN': 3, 'loaded': True, 'loadedTime': 5526.79999999702, 'positionName': 'LEFT', 'positionCoords': [328.28, 227], 'bid': 0.58}, {'imgObject': {}, 'id': 'sushi w_condiments', 'src': '/static/foodstim60/sushi w_condiments.jpg', 'key': 'i', 'origWidth': 410, 'origHeight': 410, 'width': 410, 'height': 410, 'widthPercent': 0.45, 'rescaleHeight': False, 'trialN': 3, 'loaded': True, 'loadedTime': 5619.5999999940395, 'positionName': 'RIGHT', 'positionCoords': [798.72, 227], 'bid': 0.5700000000000001}]",10763.79999999702,1669840645691,edamame,sushi w_condiments,0.58,0.5700000000000001,-0.009999999999999898,sushi w_condiments,728.2000000029802,729,728.7999999970198,True,i,12005.0,1241.2000000029802,1669840646933,1242,HRV,HRV_0296,2022-11-30 20:41:42
4,"[{'imgObject': {}, 'id': 'salad w chicken', 'src': '/static/foodstim60/salad w chicken.jpg', 'key': 'u', 'origWidth': 411, 'origHeight': 411, 'width': 411, 'height': 411, 'widthPercent': 0.45, 'rescaleHeight': False, 'trialN': 4, 'loaded': True, 'loadedTime': 5625.899999991059, 'positionName': 'LEFT', 'positionCoords': [326.28, 226.5], 'bid': 8.11}, {'imgObject': {}, 'id': 'hotdog w must', 'src': '/static/foodstim60/hotdog w must.jpg', 'key': 'i', 'origWidth': 409, 'origHeight': 409, 'width': 409, 'height': 409, 'widthPercent': 0.45, 'rescaleHeight': False, 'trialN': 4, 'loaded': True, 'loadedTime': 5638.0999999940395, 'positionName': 'RIGHT', 'positionCoords': [798.72, 227.5], 'bid': 4.88}]",12005.59999999404,1669840646933,salad w chicken,hotdog w must,8.11,4.88,-3.2299999999999995,salad w chicken,607.2999999970198,608,608.1000000089407,True,u,13133.79999999702,1128.2000000029802,1669840648061,1128,HRV,HRV_0296,2022-11-30 20:41:42
5,"[{'imgObject': {}, 'id': 'salmon', 'src': '/static/foodstim60/salmon.jpg', 'key': 'u', 'origWidth': 410, 'origHeight': 409, 'width': 410, 'height': 409, 'widthPercent': 0.45, 'rescaleHeight': False, 'trialN': 5, 'loaded': True, 'loadedTime': 5644.70000000298, 'positionName': 'LEFT', 'positionCoords': [327.28, 227.5], 'bid': 4.94}, {'imgObject': {}, 'id': 'kiwi', 'src': '/static/foodstim60/kiwi.jpg', 'key': 'i', 'origWidth': 410, 'origHeight': 410, 'width': 410, 'height': 410, 'widthPercent': 0.45, 'rescaleHeight': False, 'trialN': 5, 'loaded': True, 'loadedTime': 5427, 'positionName': 'RIGHT', 'positionCoords': [798.72, 227], 'bid': 6.11}]",13134.29999999702,1669840648062,salmon,kiwi,4.94,6.11,1.17,kiwi,897.2000000029802,898,897.7000000029802,True,i,14547.29999999702,1413.0,1669840649475,1413,HRV,HRV_0296,2022-11-30 20:41:42
6,"[{'imgObject': {}, 'id': 'orange slices', 'src': '/static/foodstim60/orange slices.jpg', 'key': 'u', 'origWidth': 409, 'origHeight': 410, 'width': 409, 'height': 410, 'widthPercent': 0.45, 'rescaleHeight': False, 'trialN': 6, 'loaded': True, 'loadedTime': 5727.899999991059, 'positionName': 'LEFT', 'positionCoords': [328.28, 227], 'bid': 7.44}, {'imgObject': {}, 'id': 'tacos', 'src': '/static/foodstim60/tacos.jpg', 'key': 'i', 'origWidth': 411, 'origHeight': 411, 'width': 411, 'height': 411, 'widthPercent': 0.45, 'rescaleHeight': False, 'trialN': 6, 'loaded': True, 'loadedTime': 5729.70000000298, 'positionName': 'RIGHT', 'positionCoords': [798.72, 226.5], 'bid': 7.08}]",14547.89999999106,1669840649475,orange slices,tacos,7.44,7.08,-0.3600000000000003,tacos,896.0,897,896.7000000029802,True,i,15955.09999999404,1407.2000000029802,1669840650883,1408,HRV,HRV_0296,2022-11-30 20:41:42
7,"[{'imgObject': {}, 'id': 'sweetpotato', 'src': '/static/foodstim60/sweetpotato.jpg', 'key': 'u', 'origWidth': 410, 'origHeight': 410, 'width': 410, 'height': 410, 'widthPercent': 0.45, 'rescaleHeight': False, 'trialN': 7, 'loaded': True, 'loadedTime': 5749.20000000298, 'positionName': 'LEFT', 'positionCoords': [327.28, 227], 'bid': 7.05}, {'imgObject': {}, 'id': 'steak', 'src': '/static/foodstim60/steak.jpg', 'key': 'i', 'origWidth': 410, 'origHeight': 410, 'width': 410, 'height': 410, 'widthPercent': 0.45, 'rescaleHeight': False, 'trialN': 7, 'loaded': True, 'loadedTime': 5862.5, 'positionName': 'RIGHT', 'positionCoords': [798.72, 227], 'bid': 7.03}]",15955.5,1669840650883,sweetpotato,steak,7.05,7.03,-0.019999999999999574,steak,865.7999999970198,867,866.5,True,i,17334.09999999404,1378.5999999940395,1669840652262,1379,HRV,HRV_0296,2022-11-30 20:41:42
8,"[{'imgObject': {}, 'id': 'steak', 'src': '/static/foodstim60/steak.jpg', 'key': 'u', 'origWidth': 410, 'origHeight': 410, 'width': 410, 'height': 410, 'widthPercent': 0.45, 'rescaleHeight': False, 'trialN': 8, 'loaded': True, 'loadedTime': 5863.5999999940395, 'positionName': 'LEFT', 'positionCoords': [327.28, 227], 'bid': 7.03}, {'imgObject': {}, 'id': 'turkeysandwich', 'src': '/static/foodstim60/turkeysandwich.jpg', 'key': 'i', 'origWidth': 409, 'origHeight': 409, 'width': 409, 'height': 409, 'widthPercent': 0.45, 'rescaleHeight': False, 'trialN': 8, 'loaded': True, 'loadedTime': 5873.70000000298, 'positionName': 'RIGHT', 'positionCoords': [798.72, 227.5], 'bid': 7.38}]",17334.59999999404,1669840652262,steak,turkeysandwich,7.03,7.38,0.34999999999999964,steak,773.2000000029802,774,774.0,True,u,18614.0,1279.4000000059605,1669840653542,1280,HRV,HRV_0296,2022-11-30 20:41:42
9,"[{'imgObject': {}, 'id': 'seaweed', 'src': '/static/foodstim60/seaweed.jpg', 'key': 'u', 'origWidth': 410, 'origHeight': 410, 'width': 410, 'height': 410, 'widthPercent': 0.45, 'rescaleHeight': False, 'trialN': 9, 'loaded': True, 'loadedTime': 5880.899999991059, 'positionName': 'LEFT', 'positionCoords': [327.28, 227], 'bid': 1.57}, {'imgObject': {}, 'id': 'blackbeanswithrice', 'src': '/static/foodstim60/blackbeanswithrice.jpg', 'key': 'i', 'origWidth': 410, 'origHeight': 410, 'width': 410, 'height': 410, 'widthPercent': 0.45, 'rescaleHeight': False, 'trialN': 9, 'loaded': True, 'loadedTime': 5904.20000000298, 'positionName': 'RIGHT', 'positionCoords': [798.72, 227], 'bid': 2.7}]",18614.5,1669840653542,seaweed,blackbeanswithrice,1.57,2.7,1.1300000000000001,blackbeanswithrice,1033.3999999910593,1034,1034.0999999940395,True,i,20164.79999999702,1550.2999999970198,1669840655092,1550,HRV,HRV_0296,2022-11-30 20:41:42
10,"[{'imgObject': {}, 'id': 'baked potato', 'src': '/static/foodstim60/baked potato.jpg', 'key': 'u', 'origWidth': 409, 'origHeight': 410, 'width': 409, 'height': 410, 'widthPercent': 0.45, 'rescaleHeight': False, 'trialN': 10, 'loaded': True, 'loadedTime': 5906.0999999940395, 'positionName': 'LEFT', 'positionCoords': [328.28, 227], 'bid': 7.21}, {'imgObject': {}, 'id': 'bagel and cc', 'src': '/static/foodstim60/bagel and cc.jpg', 'key': 'i', 'origWidth': 410, 'origHeight': 410, 'width': 410, 'height': 410, 'widthPercent': 0.45, 'rescaleHeight': False, 'trialN': 10, 'loaded': True, 'loadedTime': 5930.0999999940395, 'positionName': 'RIGHT', 'positionCoords': [798.72, 227], 'bid': 7.82}]",20165.29999999702,1669840655093,baked potato,bagel and cc,7.21,7.82,0.6100000000000003,baked potato,947.0999999940395,948,947.7000000029802,True,u,21631.5,1466.2000000029802,1669840656559,1466,HRV,HRV_0296,2022-11-30 20:41:42
11,"[{'imgObject': {}, 'id': 'grilled chicken strips', 'src': '/static/foodstim60/grilled chicken strips.jpg', 'key': 'u', 'origWidth': 410, 'origHeight': 411, 'width': 410, 'height': 411, 'widthPercent': 0.45, 'rescaleHeight': False, 'trialN': 11, 'loaded': True, 'loadedTime': 5938, 'positionName': 'LEFT', 'positionCoords': [327.28, 226.5], 'bid': 7.81}, {'imgObject': {}, 'id': 'burger', 'src': '/static/foodstim60/burger.jpg', 'key': 'i', 'origWidth': 409, 'origHeight': 409, 'width': 409, 'height': 409, 'widthPercent': 0.45, 'rescaleHeight': False, 'trialN': 11, 'loaded': True, 'loadedTime': 5947.899999991059, 'positionName': 'RIGHT', 'positionCoords': [798.72, 227.5], 'bid': 7.66}]",21632.20000000298,1669840656560,grilled chicken strips,burger,7.81,7.66,-0.14999999999999947,grilled chicken strips,648.6999999880791,649,649.3999999910593,True,u,22797.70000000298,1165.5,1669840657725,1165,HRV,HRV_0296,2022-11-30 20:41:42
12,"[{'imgObject': {}, 'id': 'hotdog w must', 'src': '/static/foodstim60/hotdog w must.jpg', 'key': 'u', 'origWidth': 409, 'origHeight': 409, 'width': 409, 'height': 409, 'widthPercent': 0.45, 'rescaleHeight': False, 'trialN': 12, 'loaded': True, 'loadedTime': 5631.79999999702, 'positionName': 'LEFT', 'positionCoords': [328.28, 227.5], 'bid': 4.88}, {'imgObject': {}, 'id': 'cheerios', 'src': '/static/foodstim60/cheerios.jpg', 'key': 'i', 'origWidth': 409, 'origHeight': 410, 'width': 409, 'height': 410, 'widthPercent': 0.45, 'rescaleHeight': False, 'trialN': 12, 'loaded': True, 'loadedTime': 5953.0999999940395, 'positionName': 'RIGHT', 'positionCoords': [798.72, 227], 'bid': 4.63}]",22798.0,1669840657726,hotdog w must,cheerios,4.88,4.63,-0.25,cheerios,736.3999999910593,737,737.3999999910593,True,i,24041.29999999702,1243.2999999970198,1669840658969,1243,HRV,HRV_0296,2022-11-30 20:41:42
13,"[{'imgObject': {}, 'id': 'granola w milk', 'src': '/static/foodstim60/granola w milk.jpg', 'key': 'u', 'origWidth': 410, 'origHeight': 410, 'width': 410, 'height': 410, 'widthPercent': 0.45, 'rescaleHeight': False, 'trialN': 13, 'loaded': True, 'loadedTime': 5375.0999999940395, 'positionName': 'LEFT', 'positionCoords': [327.28, 227], 'bid': 7.44}, {'imgObject': {}, 'id': 'raisin bran w milk', 'src': '/static/foodstim60/raisin bran w milk.jpg', 'key': 'i', 'origWidth': 411, 'origHeight': 411, 'width': 411, 'height': 411, 'widthPercent': 0.45, 'rescaleHeight': False, 'trialN': 13, 'loaded': True, 'loadedTime': 5961.79999999702, 'positionName': 'RIGHT', 'positionCoords': [798.72, 226.5], 'bid': 4.01}]",24041.59999999404,1669840658969,granola w milk,raisin bran w milk,7.44,4.01,-3.4300000000000006,granola w milk,866.0,867,866.7000000029802,True,u,25420.39999999106,1378.7999999970198,1669840660348,1379,HRV,HRV_0296,2022-11-30 20:41:42
14,"[{'imgObject': {}, 'id': 'eggsalad', 'src': '/static/foodstim60/eggsalad.jpg', 'key': 'u', 'origWidth': 410, 'origHeight': 409, 'width': 410, 'height': 409, 'widthPercent': 0.45, 'rescaleHeight': False, 'trialN': 14, 'loaded': True, 'loadedTime': 5964.899999991059, 'positionName': 'LEFT', 'positionCoords': [327.28, 227.5], 'bid': 4.54}, {'imgObject': {}, 'id': 'mac & cheese', 'src': '/static/foodstim60/mac & cheese.jpg', 'key': 'i', 'origWidth': 410, 'origHeight': 410, 'width': 410, 'height': 410, 'widthPercent': 0.45, 'rescaleHeight': False, 'trialN': 14, 'loaded': True, 'loadedTime': 5978.5, 'positionName': 'RIGHT', 'positionCoords': [798.72, 227], 'bid': 2.35}]",25420.79999999702,1669840660348,eggsalad,mac & cheese,4.54,2.35,-2.19,eggsalad,999.2000000029802,1000,999.9000000059605,True,u,26924.29999999702,1503.5,1669840661852,1504,HRV,HRV_0296,2022-11-30 20:41:42
15,"[{'imgObject': {}, 'id': 'rigatoni and sauce', 'src': '/static/foodstim60/rigatoni and sauce.jpg', 'key': 'u', 'origWidth': 410, 'origHeight': 411, 'width': 410, 'height': 411, 'widthPercent': 0.45, 'rescaleHeight': False, 'trialN': 15, 'loaded': True, 'loadedTime': 5986.399999991059, 'positionName': 'LEFT', 'positionCoords': [327.28, 226.5], 'bid': 6.6000000000000005}, {'imgObject': {}, 'id': 'turkey sandwich', 'src': '/static/foodstim60/turkey sandwich.jpg', 'key': 'i', 'origWidth': 409, 'origHeight': 409, 'width': 409, 'height': 409, 'widthPercent': 0.45, 'rescaleHeight': False, 'trialN': 15, 'loaded': True, 'loadedTime': 5989.79999999702, 'positionName': 'RIGHT', 'positionCoords': [798.72, 227.5], 'bid': 6.65}]",26924.59999999404,1669840661852,rigatoni and sauce,turkey sandwich,6.6000000000000005,6.65,0.04999999999999982,turkey sandwich,1355.9000000059605,1357,1356.7000000029802,True,i,28792.09999999404,1867.5,1669840663720,1868,HRV,HRV_0296,2022-11-30 20:41:42
16,"[{'imgObject': {}, 'id': 'bagel and cc', 'src': '/static/foodstim60/bagel and cc.jpg', 'key': 'u', 'origWidth': 410, 'origHeight': 410, 'width': 410, 'height': 410, 'widthPercent': 0.45, 'rescaleHeight': False, 'trialN': 16, 'loaded': True, 'loadedTime': 5922.399999991059, 'positionName': 'LEFT', 'positionCoords': [327.28, 227], 'bid': 7.82}, {'imgObject': {}, 'id': 'roastedpotatoes', 'src': '/static/foodstim60/roastedpotatoes.jpg', 'key': 'i', 'origWidth': 409, 'origHeight': 410, 'width': 409, 'height': 410, 'widthPercent': 0.45, 'rescaleHeight': False, 'trialN': 16, 'loaded': True, 'loadedTime': 4064.5, 'positionName': 'RIGHT', 'positionCoords': [798.72, 227], 'bid': 7.76}]",28792.39999999106,1669840663720,bagel and cc,roastedpotatoes,7.82,7.76,-0.0600000000000005,roastedpotatoes,918.6000000089407,919,919.4000000059605,True,i,30225.70000000298,1433.300000011921,1669840665153,1433,HRV,HRV_0296,2022-11-30 20:41:42
17,"[{'imgObject': {}, 'id': 'popsicles', 'src': '/static/foodstim60/popsicles.jpg', 'key': 'u', 'origWidth': 410, 'origHeight': 410, 'width': 410, 'height': 410, 'widthPercent': 0.45, 'rescaleHeight': False, 'trialN': 17, 'loaded': True, 'loadedTime': 6010.70000000298, 'positionName': 'LEFT', 'positionCoords': [327.28, 227], 'bid': 4.93}, {'imgObject': {}, 'id': 'mac & cheese', 'src': '/static/foodstim60/mac & cheese.jpg', 'key': 'i', 'origWidth': 410, 'origHeight': 410, 'width': 410, 'height': 410, 'widthPercent': 0.45, 'rescaleHeight': False, 'trialN': 17, 'loaded': True, 'loadedTime': 5978.899999991059, 'positionName': 'RIGHT', 'positionCoords': [798.72, 227], 'bid': 2.35}]",30226.09999999404,1669840665154,popsicles,mac & cheese,4.93,2.35,-2.5799999999999996,popsicles,874.7000000029802,875,875.2000000029802,True,u,31619.0,1392.9000000059605,1669840666547,1393,HRV,HRV_0296,2022-11-30 20:41:42
18,"[{'imgObject': {}, 'id': 'fruitsalad', 'src': '/static/foodstim60/fruitsalad.jpg', 'key': 'u', 'origWidth': 410, 'origHeight': 410, 'width': 410, 'height': 410, 'widthPercent': 0.45, 'rescaleHeight': False, 'trialN': 18, 'loaded': True, 'loadedTime': 4074.3999999910593, 'positionName': 'LEFT', 'positionCoords': [327.28, 227], 'bid': 8.82}, {'imgObject': {}, 'id': 'avocado', 'src': '/static/foodstim60/avocado.jpg', 'key': 'i', 'origWidth': 409, 'origHeight': 409, 'width': 409, 'height': 409, 'widthPercent': 0.45, 'rescaleHeight': False, 'trialN': 18, 'loaded': True, 'loadedTime': 5345.0999999940395, 'positionName': 'RIGHT', 'positionCoords': [798.72, 227.5], 'bid': 5.65}]",31619.5,1669840666547,fruitsalad,avocado,8.82,5.65,-3.17,fruitsalad,710.2999999970198,711,710.8999999910593,True,u,32838.59999999404,1219.0999999940395,1669840667766,1219,HRV,HRV_0296,2022-11-30 20:41:42
19,"[{'imgObject': {}, 'id': 'seaweed', 'src': '/static/foodstim60/seaweed.jpg', 'key': 'u', 'origWidth': 410, 'origHeight': 410, 'width': 410, 'height': 410, 'widthPercent': 0.45, 'rescaleHeight': False, 'trialN': 19, 'loaded': True, 'loadedTime': 5888.20000000298, 'positionName': 'LEFT', 'positionCoords': [327.28, 227], 'bid': 1.57}, {'imgObject': {}, 'id': 'luckycharms', 'src': '/static/foodstim60/luckycharms.jpg', 'key': 'i', 'origWidth': 410, 'origHeight': 409, 'width': 410, 'height': 409, 'widthPercent': 0.45, 'rescaleHeight': False, 'trialN': 19, 'loaded': True, 'loadedTime': 4258.20000000298, 'positionName': 'RIGHT', 'positionCoords': [798.72, 227.5], 'bid': 1.4}]",32838.89999999106,1669840667766,seaweed,luckycharms,1.57,1.4,-0.17000000000000015,luckycharms,868.7000000029802,870,869.4000000059605,True,i,34223.29999999702,1384.4000000059605,1669840669151,1385,HRV,HRV_0296,2022-11-30 20:41:42
20,"[{'imgObject': {}, 'id': 'olives', 'src': '/static/foodstim60/olives.jpg', 'key': 'u', 'origWidth': 410, 'origHeight': 410, 'width': 410, 'height': 410, 'widthPercent': 0.45, 'rescaleHeight': False, 'trialN': 20, 'loaded': True, 'loadedTime': 4289.5, 'positionName': 'LEFT', 'positionCoords': [327.28, 227], 'bid': 5.58}, {'imgObject': {}, 'id': 'avocado', 'src': '/static/foodstim60/avocado.jpg', 'key': 'i', 'origWidth': 409, 'origHeight': 409, 'width': 409, 'height': 409, 'widthPercent': 0.45, 'rescaleHeight': False, 'trialN': 20, 'loaded': True, 'loadedTime': 5346.20000000298, 'positionName': 'RIGHT', 'positionCoords': [798.72, 227.5], 'bid': 5.65}]",34223.59999999404,1669840669151,olives,avocado,5.58,5.65,0.07000000000000028,olives,740.4000000059605,741,741.0,True,u,35477.5,1253.9000000059605,1669840670405,1254,HRV,HRV_0296,2022-11-30 20:41:42
21,"[{'imgObject': {}, 'id': 'olives', 'src': '/static/foodstim60/olives.jpg', 'key': 'u', 'origWidth': 410, 'origHeight': 410, 'width': 410, 'height': 410, 'widthPercent': 0.45, 'rescaleHeight': False, 'trialN': 21, 'loaded': True, 'loadedTime': 4291.399999991059, 'positionName': 'LEFT', 'positionCoords': [327.28, 227], 'bid': 5.58}, {'imgObject': {}, 'id': 'yogurt no spoon', 'src': '/static/foodstim60/yogurt no spoon.jpg', 'key': 'i', 'origWidth': 411, 'origHeight': 410, 'width': 411, 'height': 410, 'widthPercent': 0.45, 'rescaleHeight': False, 'trialN': 21, 'loaded': True, 'loadedTime': 4304.29999999702, 'positionName': 'RIGHT', 'positionCoords': [798.72, 227], 'bid': 8.75}]",35477.79999999702,1669840670405,olives,yogurt no spoon,5.58,8.75,3.17,yogurt no spoon,854.9000000059605,856,855.7000000029802,True,i,36852.5,1374.7000000029802,1669840671780,1375,HRV,HRV_0296,2022-11-30 20:41:42
22,"[{'imgObject': {}, 'id': 'hotdog w must', 'src': '/static/foodstim60/hotdog w must.jpg', 'key': 'u', 'origWidth': 409, 'origHeight': 409, 'width': 409, 'height': 409, 'widthPercent': 0.45, 'rescaleHeight': False, 'trialN': 22, 'loaded': True, 'loadedTime': 5632.5999999940395, 'positionName': 'LEFT', 'positionCoords': [328.28, 227.5], 'bid': 4.88}, {'imgObject': {}, 'id': 'apple slices', 'src': '/static/foodstim60/apple slices.jpg', 'key': 'i', 'origWidth': 409, 'origHeight': 410, 'width': 409, 'height': 410, 'widthPercent': 0.45, 'rescaleHeight': False, 'trialN': 22, 'loaded': True, 'loadedTime': 4344.0999999940395, 'positionName': 'RIGHT', 'positionCoords': [798.72, 227], 'bid': 6.34}]",36852.70000000298,1669840671780,hotdog w must,apple slices,4.88,6.34,1.46,apple slices,827.5999999940395,829,828.3999999910593,True,i,38197.89999999106,1345.199999988079,1669840673125,1345,HRV,HRV_0296,2022-11-30 20:41:42
23,"[{'imgObject': {}, 'id': 'Grapes', 'src': '/static/foodstim60/Grapes.jpg', 'key': 'u', 'origWidth': 411, 'origHeight': 411, 'width': 411, 'height': 411, 'widthPercent': 0.45, 'rescaleHeight': False, 'trialN': 23, 'loaded': True, 'loadedTime': 4495.5, 'positionName': 'LEFT', 'positionCoords': [326.28, 226.5], 'bid': 8.540000000000001}, {'imgObject': {}, 'id': 'roastedpotatoes', 'src': '/static/foodstim60/roastedpotatoes.jpg', 'key': 'i', 'origWidth': 409, 'origHeight': 410, 'width': 409, 'height': 410, 'widthPercent': 0.45, 'rescaleHeight': False, 'trialN': 23, 'loaded': True, 'loadedTime': 3984.5999999940395, 'positionName': 'RIGHT', 'positionCoords': [798.72, 227], 'bid': 7.76}]",38198.20000000298,1669840673126,Grapes,roastedpotatoes,8.540000000000001,7.76,-0.7800000000000011,Grapes,569.0999999940395,570,569.7999999970198,True,u,39284.29999999702,1086.0999999940395,1669840674212,1086,HRV,HRV_0296,2022-11-30 20:41:42
24,"[{'imgObject': {}, 'id': 'omelette', 'src': '/static/foodstim60/omelette.jpg', 'key': 'u', 'origWidth': 410, 'origHeight': 409, 'width': 410, 'height': 409, 'widthPercent': 0.45, 'rescaleHeight': False, 'trialN': 24, 'loaded': True, 'loadedTime': 4512.899999991059, 'positionName': 'LEFT', 'positionCoords': [327.28, 227.5], 'bid': 3.64}, {'imgObject': {}, 'id': 'olives', 'src': '/static/foodstim60/olives.jpg', 'key': 'i', 'origWidth': 410, 'origHeight': 410, 'width': 410, 'height': 410, 'widthPercent': 0.45, 'rescaleHeight': False, 'trialN': 24, 'loaded': True, 'loadedTime': 4287.5999999940395, 'positionName': 'RIGHT', 'positionCoords': [798.72, 227], 'bid': 5.58}]",39284.59999999404,1669840674212,omelette,olives,3.64,5.58,1.94,olives,696.0,697,696.6000000089407,True,i,40499.79999999702,1215.2000000029802,1669840675427,1215,HRV,HRV_0296,2022-11-30 20:41:42
25,"[{'imgObject': {}, 'id': 'fruitsalad', 'src': '/static/foodstim60/fruitsalad.jpg', 'key': 'u', 'origWidth': 410, 'origHeight': 410, 'width': 410, 'height': 410, 'widthPercent': 0.45, 'rescaleHeight': False, 'trialN': 25, 'loaded': True, 'loadedTime': 4161.70000000298, 'positionName': 'LEFT', 'positionCoords': [327.28, 227], 'bid': 8.82}, {'imgObject': {}, 'id': 'chickenfingers', 'src': '/static/foodstim60/chickenfingers.jpg', 'key': 'i', 'origWidth': 410, 'origHeight': 410, 'width': 410, 'height': 410, 'widthPercent': 0.45, 'rescaleHeight': False, 'trialN': 25, 'loaded': True, 'loadedTime': 4533.0999999940395, 'positionName': 'RIGHT', 'positionCoords': [798.72, 227], 'bid': 9.17}]",40500.09999999404,1669840675428,fruitsalad,chickenfingers,8.82,9.17,0.34999999999999964,fruitsalad,544.1000000089407,544,544.7999999970198,True,u,41550.09999999404,1050.0,1669840676478,1050,HRV,HRV_0296,2022-11-30 20:41:42
26,"[{'imgObject': {}, 'id': 'burrito', 'src': '/static/foodstim60/burrito.jpg', 'key': 'u', 'origWidth': 410, 'origHeight': 410, 'width': 410, 'height': 410, 'widthPercent': 0.45, 'rescaleHeight': False, 'trialN': 26, 'loaded': True, 'loadedTime': 4584.70000000298, 'positionName': 'LEFT', 'positionCoords': [327.28, 227], 'bid': 5.88}, {'imgObject': {}, 'id': 'steak', 'src': '/static/foodstim60/steak.jpg', 'key': 'i', 'origWidth': 410, 'origHeight': 410, 'width': 410, 'height': 410, 'widthPercent': 0.45, 'rescaleHeight': False, 'trialN': 26, 'loaded': True, 'loadedTime': 5850.5999999940395, 'positionName': 'RIGHT', 'positionCoords': [798.72, 227], 'bid': 7.03}]",41550.39999999106,1669840676478,burrito,steak,5.88,7.03,1.1500000000000004,steak,1289.1000000089407,1290,1289.800000011921,True,i,43347.70000000298,1797.300000011921,1669840678275,1797,HRV,HRV_0296,2022-11-30 20:41:42
27,"[{'imgObject': {}, 'id': 'Grapes', 'src': '/static/foodstim60/Grapes.jpg', 'key': 'u', 'origWidth': 411, 'origHeight': 411, 'width': 411, 'height': 411, 'widthPercent': 0.45, 'rescaleHeight': False, 'trialN': 27, 'loaded': True, 'loadedTime': 4410.399999991059, 'positionName': 'LEFT', 'positionCoords': [326.28, 226.5], 'bid': 8.540000000000001}, {'imgObject': {}, 'id': 'granola w milk', 'src': '/static/foodstim60/granola w milk.jpg', 'key': 'i', 'origWidth': 410, 'origHeight': 410, 'width': 410, 'height': 410, 'widthPercent': 0.45, 'rescaleHeight': False, 'trialN': 27, 'loaded': True, 'loadedTime': 5361.5999999940395, 'positionName': 'RIGHT', 'positionCoords': [798.72, 227], 'bid': 7.44}]",43348.0,1669840678276,Grapes,granola w milk,8.540000000000001,7.44,-1.1000000000000005,Grapes,585.7999999970198,586,586.5,True,u,44456.09999999404,1108.0999999940395,1669840679384,1108,HRV,HRV_0296,2022-11-30 20:41:42
28,"[{'imgObject': {}, 'id': 'blackbeanswithrice', 'src': '/static/foodstim60/blackbeanswithrice.jpg', 'key': 'u', 'origWidth': 410, 'origHeight': 410, 'width': 410, 'height': 410, 'widthPercent': 0.45, 'rescaleHeight': False, 'trialN': 28, 'loaded': True, 'loadedTime': 5901.79999999702, 'positionName': 'LEFT', 'positionCoords': [327.28, 227], 'bid': 2.7}, {'imgObject': {}, 'id': 'sweetpotato', 'src': '/static/foodstim60/sweetpotato.jpg', 'key': 'i', 'origWidth': 410, 'origHeight': 410, 'width': 410, 'height': 410, 'widthPercent': 0.45, 'rescaleHeight': False, 'trialN': 28, 'loaded': True, 'loadedTime': 5833.20000000298, 'positionName': 'RIGHT', 'positionCoords': [798.72, 227], 'bid': 7.05}]",44456.59999999404,1669840679384,blackbeanswithrice,sweetpotato,2.7,7.05,4.35,sweetpotato,858.7000000029802,860,859.6000000089407,True,i,45823.09999999404,1366.5,1669840680751,1367,HRV,HRV_0296,2022-11-30 20:41:42
29,"[{'imgObject': {}, 'id': 'apple slices', 'src': '/static/foodstim60/apple slices.jpg', 'key': 'u', 'origWidth': 409, 'origHeight': 410, 'width': 409, 'height': 410, 'widthPercent': 0.45, 'rescaleHeight': False, 'trialN': 29, 'loaded': True, 'loadedTime': 4393.5999999940395, 'positionName': 'LEFT', 'positionCoords': [328.28, 227], 'bid': 6.34}, {'imgObject': {}, 'id': 'luckycharms', 'src': '/static/foodstim60/luckycharms.jpg', 'key': 'i', 'origWidth': 410, 'origHeight': 409, 'width': 410, 'height': 409, 'widthPercent': 0.45, 'rescaleHeight': False, 'trialN': 29, 'loaded': True, 'loadedTime': 4271.5, 'positionName': 'RIGHT', 'positionCoords': [798.72, 227.5], 'bid': 1.4}]",45823.39999999106,1669840680751,apple slices,luckycharms,6.34,1.4,-4.9399999999999995,apple slices,892.8000000119209,894,893.6000000089407,True,u,47221.70000000298,1398.300000011921,1669840682149,1398,HRV,HRV_0296,2022-11-30 20:41:42
30,"[{'imgObject': {}, 'id': 'rigatoni and sauce', 'src': '/static/foodstim60/rigatoni and sauce.jpg', 'key': 'u', 'origWidth': 410, 'origHeight': 411, 'width': 410, 'height': 411, 'widthPercent': 0.45, 'rescaleHeight': False, 'trialN': 30, 'loaded': True, 'loadedTime': 5988.899999991059, 'positionName': 'LEFT', 'positionCoords': [327.28, 226.5], 'bid': 6.6000000000000005}, {'imgObject': {}, 'id': 'salmon', 'src': '/static/foodstim60/salmon.jpg', 'key': 'i', 'origWidth': 410, 'origHeight': 409, 'width': 410, 'height': 409, 'widthPercent': 0.45, 'rescaleHeight': False, 'trialN': 30, 'loaded': True, 'loadedTime': 5645, 'positionName': 'RIGHT', 'positionCoords': [798.72, 227.5], 'bid': 4.94}]",47222.0,1669840682150,rigatoni and sauce,salmon,6.6000000000000005,4.94,-1.6600000000000001,rigatoni and sauce,902.0999999940395,902,902.8999999910593,True,u,48628.59999999404,1406.5999999940395,1669840683556,1406,HRV,HRV_0296,2022-11-30 20:41:42
31,"[{'imgObject': {}, 'id': 'orange slices', 'src': '/static/foodstim60/orange slices.jpg', 'key': 'u', 'origWidth': 409, 'origHeight': 410, 'width': 409, 'height': 410, 'widthPercent': 0.45, 'rescaleHeight': False, 'trialN': 31, 'loaded': True, 'loadedTime': 5727, 'positionName': 'LEFT', 'positionCoords': [328.28, 227], 'bid': 7.44}, {'imgObject': {}, 'id': 'shreddedwheatwithmilk', 'src': '/static/foodstim60/shreddedwheatwithmilk.jpg', 'key': 'i', 'origWidth': 410, 'origHeight': 410, 'width': 410, 'height': 410, 'widthPercent': 0.45, 'rescaleHeight': False, 'trialN': 31, 'loaded': True, 'loadedTime': 4588.29999999702, 'positionName': 'RIGHT', 'positionCoords': [798.72, 227], 'bid': 4.16}]",48628.89999999106,1669840683556,orange slices,shreddedwheatwithmilk,7.44,4.16,-3.2800000000000002,orange slices,733.2000000029802,734,734.0,True,u,49866.59999999404,1237.7000000029802,1669840684794,1238,HRV,HRV_0296,2022-11-30 20:41:42
32,"[{'imgObject': {}, 'id': 'grilled chicken strips', 'src': '/static/foodstim60/grilled chicken strips.jpg', 'key': 'u', 'origWidth': 410, 'origHeight': 411, 'width': 410, 'height': 411, 'widthPercent': 0.45, 'rescaleHeight': False, 'trialN': 32, 'loaded': True, 'loadedTime': 5939.5999999940395, 'positionName': 'LEFT', 'positionCoords': [327.28, 226.5], 'bid': 7.81}, {'imgObject': {}, 'id': 'cheerios', 'src': '/static/foodstim60/cheerios.jpg', 'key': 'i', 'origWidth': 409, 'origHeight': 410, 'width': 409, 'height': 410, 'widthPercent': 0.45, 'rescaleHeight': False, 'trialN': 32, 'loaded': True, 'loadedTime': 5954, 'positionName': 'RIGHT', 'positionCoords': [798.72, 227], 'bid': 4.63}]",49866.79999999702,1669840684794,grilled chicken strips,cheerios,7.81,4.63,-3.1799999999999997,grilled chicken strips,699.9000000059605,701,700.5999999940395,True,u,51088.09999999404,1221.2999999970198,1669840686016,1222,HRV,HRV_0296,2022-11-30 20:41:42
33,"[{'imgObject': {}, 'id': 'strawberries', 'src': '/static/foodstim60/strawberries.jpg', 'key': 'u', 'origWidth': 410, 'origHeight': 410, 'width': 410, 'height': 410, 'widthPercent': 0.45, 'rescaleHeight': False, 'trialN': 33, 'loaded': True, 'loadedTime': 4661.0999999940395, 'positionName': 'LEFT', 'positionCoords': [327.28, 227], 'bid': 9.08}, {'imgObject': {}, 'id': 'veggieswithdip', 'src': '/static/foodstim60/veggieswithdip.jpg', 'key': 'i', 'origWidth': 409, 'origHeight': 409, 'width': 409, 'height': 409, 'widthPercent': 0.45, 'rescaleHeight': False, 'trialN': 33, 'loaded': True, 'loadedTime': 4704.20000000298, 'positionName': 'RIGHT', 'positionCoords': [798.72, 227.5], 'bid': 7.36}]",51088.79999999702,1669840686016,strawberries,veggieswithdip,9.08,7.36,-1.7199999999999998,strawberries,617.0,618,617.5999999940395,True,u,52213.59999999404,1124.7999999970198,1669840687141,1125,HRV,HRV_0296,2022-11-30 20:41:42
34,"[{'imgObject': {}, 'id': 'popsicles', 'src': '/static/foodstim60/popsicles.jpg', 'key': 'u', 'origWidth': 410, 'origHeight': 410, 'width': 410, 'height': 410, 'widthPercent': 0.45, 'rescaleHeight': False, 'trialN': 34, 'loaded': True, 'loadedTime': 6022.79999999702, 'positionName': 'LEFT', 'positionCoords': [327.28, 227], 'bid': 4.93}, {'imgObject': {}, 'id': 'mango', 'src': '/static/foodstim60/mango.jpg', 'key': 'i', 'origWidth': 411, 'origHeight': 411, 'width': 411, 'height': 411, 'widthPercent': 0.45, 'rescaleHeight': False, 'trialN': 34, 'loaded': True, 'loadedTime': 4713.20000000298, 'positionName': 'RIGHT', 'positionCoords': [798.72, 226.5], 'bid': 8.48}]",52213.79999999702,1669840687141,popsicles,mango,4.93,8.48,3.5500000000000007,mango,1017.2000000029802,1018,1017.9000000059605,True,i,53738.20000000298,1524.4000000059605,1669840688666,1525,HRV,HRV_0296,2022-11-30 20:41:42
35,"[{'imgObject': {}, 'id': 'Tribe humus pita', 'src': '/static/foodstim60/Tribe humus pita.jpg', 'key': 'u', 'origWidth': 411, 'origHeight': 411, 'width': 411, 'height': 411, 'widthPercent': 0.45, 'rescaleHeight': False, 'trialN': 35, 'loaded': True, 'loadedTime': 4739.5999999940395, 'positionName': 'LEFT', 'positionCoords': [326.28, 226.5], 'bid': 4.33}, {'imgObject': {}, 'id': 'popsicles', 'src': '/static/foodstim60/popsicles.jpg', 'key': 'i', 'origWidth': 410, 'origHeight': 410, 'width': 410, 'height': 410, 'widthPercent': 0.45, 'rescaleHeight': False, 'trialN': 35, 'loaded': True, 'loadedTime': 6022.5, 'positionName': 'RIGHT', 'positionCoords': [798.72, 227], 'bid': 4.93}]",53738.89999999106,1669840688666,Tribe humus pita,popsicles,4.33,4.93,0.5999999999999996,popsicles,731.2000000029802,732,731.8000000119209,True,i,54987.89999999106,1249.0,1669840689915,1249,HRV,HRV_0296,2022-11-30 20:41:42
36,"[{'imgObject': {}, 'id': 'shreddedwheatwithmilk', 'src': '/static/foodstim60/shreddedwheatwithmilk.jpg', 'key': 'u', 'origWidth': 410, 'origHeight': 410, 'width': 410, 'height': 410, 'widthPercent': 0.45, 'rescaleHeight': False, 'trialN': 36, 'loaded': True, 'loadedTime': 4660.20000000298, 'positionName': 'LEFT', 'positionCoords': [327.28, 227], 'bid': 4.16}, {'imgObject': {}, 'id': 'cocktailshrimp', 'src': '/static/foodstim60/cocktailshrimp.jpg', 'key': 'i', 'origWidth': 410, 'origHeight': 410, 'width': 410, 'height': 410, 'widthPercent': 0.45, 'rescaleHeight': False, 'trialN': 36, 'loaded': True, 'loadedTime': 4752.5999999940395, 'positionName': 'RIGHT', 'positionCoords': [798.72, 227], 'bid': 2.03}]",54988.20000000298,1669840689916,shreddedwheatwithmilk,cocktailshrimp,4.16,2.03,-2.1300000000000003,shreddedwheatwithmilk,1042.8999999910593,1043,1043.5,True,u,56538.09999999404,1549.8999999910593,1669840691466,1550,HRV,HRV_0296,2022-11-30 20:41:42
37,"[{'imgObject': {}, 'id': 'tacos', 'src': '/static/foodstim60/tacos.jpg', 'key': 'u', 'origWidth': 411, 'origHeight': 411, 'width': 411, 'height': 411, 'widthPercent': 0.45, 'rescaleHeight': False, 'trialN': 37, 'loaded': True, 'loadedTime': 5742.5, 'positionName': 'LEFT', 'positionCoords': [326.28, 226.5], 'bid': 7.08}, {'imgObject': {}, 'id': 'baked potato', 'src': '/static/foodstim60/baked potato.jpg', 'key': 'i', 'origWidth': 409, 'origHeight': 410, 'width': 409, 'height': 410, 'widthPercent': 0.45, 'rescaleHeight': False, 'trialN': 37, 'loaded': True, 'loadedTime': 5920.0999999940395, 'positionName': 'RIGHT', 'positionCoords': [798.72, 227], 'bid': 7.21}]",56538.5,1669840691466,tacos,baked potato,7.08,7.21,0.1299999999999999,tacos,605.5,606,606.2999999970198,True,u,57658.59999999404,1120.0999999940395,1669840692586,1120,HRV,HRV_0296,2022-11-30 20:41:42
38,"[{'imgObject': {}, 'id': 'eggsalad', 'src': '/static/foodstim60/eggsalad.jpg', 'key': 'u', 'origWidth': 410, 'origHeight': 409, 'width': 410, 'height': 409, 'widthPercent': 0.45, 'rescaleHeight': False, 'trialN': 38, 'loaded': True, 'loadedTime': 5970.0999999940395, 'positionName': 'LEFT', 'positionCoords': [327.28, 227.5], 'bid': 4.54}, {'imgObject': {}, 'id': 'hashbrowns', 'src': '/static/foodstim60/hashbrowns.jpg', 'key': 'i', 'origWidth': 411, 'origHeight': 410, 'width': 411, 'height': 410, 'widthPercent': 0.45, 'rescaleHeight': False, 'trialN': 38, 'loaded': True, 'loadedTime': 4816.79999999702, 'positionName': 'RIGHT', 'positionCoords': [798.72, 227], 'bid': 4.62}]",57658.89999999106,1669840692586,eggsalad,hashbrowns,4.54,4.62,0.08000000000000007,eggsalad,751.5,753,752.3000000119209,True,u,58917.5,1258.6000000089407,1669840693845,1259,HRV,HRV_0296,2022-11-30 20:41:42
39,"[{'imgObject': {}, 'id': 'rigatoni', 'src': '/static/foodstim60/rigatoni.jpg', 'key': 'u', 'origWidth': 411, 'origHeight': 411, 'width': 411, 'height': 411, 'widthPercent': 0.45, 'rescaleHeight': False, 'trialN': 39, 'loaded': True, 'loadedTime': 4841.0999999940395, 'positionName': 'LEFT', 'positionCoords': [326.28, 226.5], 'bid': 3.95}, {'imgObject': {}, 'id': 'lox', 'src': '/static/foodstim60/lox.jpg', 'key': 'i', 'origWidth': 410, 'origHeight': 411, 'width': 410, 'height': 411, 'widthPercent': 0.45, 'rescaleHeight': False, 'trialN': 39, 'loaded': True, 'loadedTime': 4868.899999991059, 'positionName': 'RIGHT', 'positionCoords': [798.72, 226.5], 'bid': 1.58}]",58917.89999999106,1669840693845,rigatoni,lox,3.95,1.58,-2.37,rigatoni,2212.2000000029802,2213,2212.800000011921,True,u,61639.79999999702,2721.9000000059605,1669840696567,2722,HRV,HRV_0296,2022-11-30 20:41:42
40,"[{'imgObject': {}, 'id': 'hashbrowns', 'src': '/static/foodstim60/hashbrowns.jpg', 'key': 'u', 'origWidth': 411, 'origHeight': 410, 'width': 411, 'height': 410, 'widthPercent': 0.45, 'rescaleHeight': False, 'trialN': 40, 'loaded': True, 'loadedTime': 4812.399999991059, 'positionName': 'LEFT', 'positionCoords': [326.28, 227], 'bid': 4.62}, {'imgObject': {}, 'id': 'lox', 'src': '/static/foodstim60/lox.jpg', 'key': 'i', 'origWidth': 410, 'origHeight': 411, 'width': 410, 'height': 411, 'widthPercent': 0.45, 'rescaleHeight': False, 'trialN': 40, 'loaded': True, 'loadedTime': 4884.899999991059, 'positionName': 'RIGHT', 'positionCoords': [798.72, 226.5], 'bid': 1.58}]",61640.29999999702,1669840696568,hashbrowns,lox,4.62,1.58,-3.04,hashbrowns,1036.9000000059605,1036,1037.5,True,u,63188.0,1547.7000000029802,1669840698115,1547,HRV,HRV_0296,2022-11-30 20:41:42
41,"[{'imgObject': {}, 'id': 'mac & cheese', 'src': '/static/foodstim60/mac & cheese.jpg', 'key': 'u', 'origWidth': 410, 'origHeight': 410, 'width': 410, 'height': 410, 'widthPercent': 0.45, 'rescaleHeight': False, 'trialN': 41, 'loaded': True, 'loadedTime': 5972.20000000298, 'positionName': 'LEFT', 'positionCoords': [327.28, 227], 'bid': 2.35}, {'imgObject': {}, 'id': 'blackbeanswithrice', 'src': '/static/foodstim60/blackbeanswithrice.jpg', 'key': 'i', 'origWidth': 410, 'origHeight': 410, 'width': 410, 'height': 410, 'widthPercent': 0.45, 'rescaleHeight': False, 'trialN': 41, 'loaded': True, 'loadedTime': 5902.29999999702, 'positionName': 'RIGHT', 'positionCoords': [798.72, 227], 'bid': 2.7}]",63188.20000000298,1669840698115,mac & cheese,blackbeanswithrice,2.35,2.7,0.3500000000000001,blackbeanswithrice,784.1999999880791,785,784.7999999970198,True,i,64495.0,1306.7999999970198,1669840699422,1307,HRV,HRV_0296,2022-11-30 20:41:42
42,"[{'imgObject': {}, 'id': 'edamame', 'src': '/static/foodstim60/edamame.jpg', 'key': 'u', 'origWidth': 409, 'origHeight': 410, 'width': 409, 'height': 410, 'widthPercent': 0.45, 'rescaleHeight': False, 'trialN': 42, 'loaded': True, 'loadedTime': 5526.20000000298, 'positionName': 'LEFT', 'positionCoords': [328.28, 227], 'bid': 0.58}, {'imgObject': {}, 'id': 'omelette', 'src': '/static/foodstim60/omelette.jpg', 'key': 'i', 'origWidth': 410, 'origHeight': 409, 'width': 410, 'height': 409, 'widthPercent': 0.45, 'rescaleHeight': False, 'trialN': 42, 'loaded': True, 'loadedTime': 4495.899999991059, 'positionName': 'RIGHT', 'positionCoords': [798.72, 227.5], 'bid': 3.64}]",64495.39999999106,1669840699422,edamame,omelette,0.58,3.64,3.06,omelette,725.6000000089407,726,726.2000000029802,True,i,65730.29999999702,1234.9000000059605,1669840700657,1235,HRV,HRV_0296,2022-11-30 20:41:42
43,"[{'imgObject': {}, 'id': 'edamame', 'src': '/static/foodstim60/edamame.jpg', 'key': 'u', 'origWidth': 409, 'origHeight': 410, 'width': 409, 'height': 410, 'widthPercent': 0.45, 'rescaleHeight': False, 'trialN': 43, 'loaded': True, 'loadedTime': 5523.399999991059, 'positionName': 'LEFT', 'positionCoords': [328.28, 227], 'bid': 0.58}, {'imgObject': {}, 'id': 'seaweed', 'src': '/static/foodstim60/seaweed.jpg', 'key': 'i', 'origWidth': 410, 'origHeight': 410, 'width': 410, 'height': 410, 'widthPercent': 0.45, 'rescaleHeight': False, 'trialN': 43, 'loaded': True, 'loadedTime': 5888.70000000298, 'positionName': 'RIGHT', 'positionCoords': [798.72, 227], 'bid': 1.57}]",65730.89999999106,1669840700657,edamame,seaweed,0.58,1.57,0.9900000000000001,edamame,1582.2000000029802,1584,1583.0,True,u,67821.5,2090.6000000089407,1669840702748,2091,HRV,HRV_0296,2022-11-30 20:41:42
44,"[{'imgObject': {}, 'id': 'eggsalad', 'src': '/static/foodstim60/eggsalad.jpg', 'key': 'u', 'origWidth': 410, 'origHeight': 409, 'width': 410, 'height': 409, 'widthPercent': 0.45, 'rescaleHeight': False, 'trialN': 44, 'loaded': True, 'loadedTime': 5971.399999991059, 'positionName': 'LEFT', 'positionCoords': [327.28, 227.5], 'bid': 4.54}, {'imgObject': {}, 'id': 'seaweed', 'src': '/static/foodstim60/seaweed.jpg', 'key': 'i', 'origWidth': 410, 'origHeight': 410, 'width': 410, 'height': 410, 'widthPercent': 0.45, 'rescaleHeight': False, 'trialN': 44, 'loaded': True, 'loadedTime': 5890.29999999702, 'positionName': 'RIGHT', 'positionCoords': [798.72, 227], 'bid': 1.57}]",67821.79999999702,1669840702748,eggsalad,seaweed,4.54,1.57,-2.9699999999999998,eggsalad,803.2999999970198,804,804.0,True,u,69142.89999999106,1321.0999999940395,1669840704069,1321,HRV,HRV_0296,2022-11-30 20:41:42
45,"[{'imgObject': {}, 'id': 'hotdog w must', 'src': '/static/foodstim60/hotdog w must.jpg', 'key': 'u', 'origWidth': 409, 'origHeight': 409, 'width': 409, 'height': 409, 'widthPercent': 0.45, 'rescaleHeight': False, 'trialN': 45, 'loaded': True, 'loadedTime': 5627.5999999940395, 'positionName': 'LEFT', 'positionCoords': [328.28, 227.5], 'bid': 4.88}, {'imgObject': {}, 'id': 'popsicles', 'src': '/static/foodstim60/popsicles.jpg', 'key': 'i', 'origWidth': 410, 'origHeight': 410, 'width': 410, 'height': 410, 'widthPercent': 0.45, 'rescaleHeight': False, 'trialN': 45, 'loaded': True, 'loadedTime': 6016.899999991059, 'positionName': 'RIGHT', 'positionCoords': [798.72, 227], 'bid': 4.93}]",69143.20000000298,1669840704070,hotdog w must,popsicles,4.88,4.93,0.04999999999999982,hotdog w must,754.6999999880791,755,755.6999999880791,True,u,70408.89999999106,1265.699999988079,1669840705335,1265,HRV,HRV_0296,2022-11-30 20:41:42
46,"[{'imgObject': {}, 'id': 'turkey sandwich', 'src': '/static/foodstim60/turkey sandwich.jpg', 'key': 'u', 'origWidth': 409, 'origHeight': 409, 'width': 409, 'height': 409, 'widthPercent': 0.45, 'rescaleHeight': False, 'trialN': 46, 'loaded': True, 'loadedTime': 5996.899999991059, 'positionName': 'LEFT', 'positionCoords': [328.28, 227.5], 'bid': 6.65}, {'imgObject': {}, 'id': 'grilled chicken strips', 'src': '/static/foodstim60/grilled chicken strips.jpg', 'key': 'i', 'origWidth': 410, 'origHeight': 411, 'width': 410, 'height': 411, 'widthPercent': 0.45, 'rescaleHeight': False, 'trialN': 46, 'loaded': True, 'loadedTime': 5935.0999999940395, 'positionName': 'RIGHT', 'positionCoords': [798.72, 226.5], 'bid': 7.81}]",70409.39999999106,1669840705336,turkey sandwich,grilled chicken strips,6.65,7.81,1.1599999999999993,turkey sandwich,882.2000000029802,883,882.9000000059605,True,u,71802.70000000298,1393.300000011921,1669840706729,1393,HRV,HRV_0296,2022-11-30 20:41:42
47,"[{'imgObject': {}, 'id': 'hashbrowns', 'src': '/static/foodstim60/hashbrowns.jpg', 'key': 'u', 'origWidth': 411, 'origHeight': 410, 'width': 411, 'height': 410, 'widthPercent': 0.45, 'rescaleHeight': False, 'trialN': 47, 'loaded': True, 'loadedTime': 4821.399999991059, 'positionName': 'LEFT', 'positionCoords': [326.28, 227], 'bid': 4.62}, {'imgObject': {}, 'id': 'blackbeanswithrice', 'src': '/static/foodstim60/blackbeanswithrice.jpg', 'key': 'i', 'origWidth': 410, 'origHeight': 410, 'width': 410, 'height': 410, 'widthPercent': 0.45, 'rescaleHeight': False, 'trialN': 47, 'loaded': True, 'loadedTime': 5904.70000000298, 'positionName': 'RIGHT', 'positionCoords': [798.72, 227], 'bid': 2.7}]",71803.0,1669840706729,hashbrowns,blackbeanswithrice,4.62,2.7,-1.92,blackbeanswithrice,1291.7000000029802,1293,1292.3999999910593,True,i,73605.59999999404,1802.5999999940395,1669840708532,1803,HRV,HRV_0296,2022-11-30 20:41:42
48,"[{'imgObject': {}, 'id': 'tacos', 'src': '/static/foodstim60/tacos.jpg', 'key': 'u', 'origWidth': 411, 'origHeight': 411, 'width': 411, 'height': 411, 'widthPercent': 0.45, 'rescaleHeight': False, 'trialN': 48, 'loaded': True, 'loadedTime': 5740.20000000298, 'positionName': 'LEFT', 'positionCoords': [326.28, 226.5], 'bid': 7.08}, {'imgObject': {}, 'id': 'grilled chicken strips', 'src': '/static/foodstim60/grilled chicken strips.jpg', 'key': 'i', 'origWidth': 410, 'origHeight': 411, 'width': 410, 'height': 411, 'widthPercent': 0.45, 'rescaleHeight': False, 'trialN': 48, 'loaded': True, 'loadedTime': 5930.70000000298, 'positionName': 'RIGHT', 'positionCoords': [798.72, 226.5], 'bid': 7.81}]",73606.09999999404,1669840708533,tacos,grilled chicken strips,7.08,7.81,0.7299999999999995,tacos,998.2999999970198,999,999.0,True,u,75121.39999999106,1515.2999999970198,1669840710048,1515,HRV,HRV_0296,2022-11-30 20:41:42
49,"[{'imgObject': {}, 'id': 'luckycharms', 'src': '/static/foodstim60/luckycharms.jpg', 'key': 'u', 'origWidth': 410, 'origHeight': 409, 'width': 410, 'height': 409, 'widthPercent': 0.45, 'rescaleHeight': False, 'trialN': 49, 'loaded': True, 'loadedTime': 4262.399999991059, 'positionName': 'LEFT', 'positionCoords': [327.28, 227.5], 'bid': 1.4}, {'imgObject': {}, 'id': 'Tribe humus pita', 'src': '/static/foodstim60/Tribe humus pita.jpg', 'key': 'i', 'origWidth': 411, 'origHeight': 411, 'width': 411, 'height': 411, 'widthPercent': 0.45, 'rescaleHeight': False, 'trialN': 49, 'loaded': True, 'loadedTime': 4725.399999991059, 'positionName': 'RIGHT', 'positionCoords': [798.72, 226.5], 'bid': 4.33}]",75121.79999999702,1669840710048,luckycharms,Tribe humus pita,1.4,4.33,2.93,Tribe humus pita,643.5999999940395,645,644.4000000059605,True,i,76276.09999999404,1154.2999999970198,1669840711203,1155,HRV,HRV_0296,2022-11-30 20:41:42
50,"[{'imgObject': {}, 'id': 'lox', 'src': '/static/foodstim60/lox.jpg', 'key': 'u', 'origWidth': 410, 'origHeight': 411, 'width': 410, 'height': 411, 'widthPercent': 0.45, 'rescaleHeight': False, 'trialN': 50, 'loaded': True, 'loadedTime': 4865.5999999940395, 'positionName': 'LEFT', 'positionCoords': [327.28, 226.5], 'bid': 1.58}, {'imgObject': {}, 'id': 'froot loops w milk', 'src': '/static/foodstim60/froot loops w milk.jpg', 'key': 'i', 'origWidth': 410, 'origHeight': 410, 'width': 410, 'height': 410, 'widthPercent': 0.45, 'rescaleHeight': False, 'trialN': 50, 'loaded': True, 'loadedTime': 4891.899999991059, 'positionName': 'RIGHT', 'positionCoords': [798.72, 227], 'bid': 3.19}]",76276.39999999106,1669840711203,lox,froot loops w milk,1.58,3.19,1.6099999999999999,froot loops w milk,667.3000000119209,668,668.0,True,i,77460.29999999702,1183.9000000059605,1669840712387,1184,HRV,HRV_0296,2022-11-30 20:41:42
51,"[{'imgObject': {}, 'id': 'raspberries', 'src': '/static/foodstim60/raspberries.jpg', 'key': 'u', 'origWidth': 411, 'origHeight': 411, 'width': 411, 'height': 411, 'widthPercent': 0.45, 'rescaleHeight': False, 'trialN': 51, 'loaded': True, 'loadedTime': 4935.29999999702, 'positionName': 'LEFT', 'positionCoords': [326.28, 226.5], 'bid': 6.51}, {'imgObject': {}, 'id': 'avocado', 'src': '/static/foodstim60/avocado.jpg', 'key': 'i', 'origWidth': 409, 'origHeight': 409, 'width': 409, 'height': 409, 'widthPercent': 0.45, 'rescaleHeight': False, 'trialN': 51, 'loaded': True, 'loadedTime': 5345.70000000298, 'positionName': 'RIGHT', 'positionCoords': [798.72, 227.5], 'bid': 5.65}]",77460.59999999404,1669840712387,raspberries,avocado,6.51,5.65,-0.8599999999999994,raspberries,926.1000000089407,927,927.0,True,u,78901.70000000298,1441.1000000089407,1669840713828,1441,HRV,HRV_0296,2022-11-30 20:41:42
52,"[{'imgObject': {}, 'id': 'cherries', 'src': '/static/foodstim60/cherries.jpg', 'key': 'u', 'origWidth': 410, 'origHeight': 411, 'width': 410, 'height': 411, 'widthPercent': 0.45, 'rescaleHeight': False, 'trialN': 52, 'loaded': True, 'loadedTime': 4937.70000000298, 'positionName': 'LEFT', 'positionCoords': [327.28, 226.5], 'bid': 2.34}, {'imgObject': {}, 'id': 'Tribe humus pita', 'src': '/static/foodstim60/Tribe humus pita.jpg', 'key': 'i', 'origWidth': 411, 'origHeight': 411, 'width': 411, 'height': 411, 'widthPercent': 0.45, 'rescaleHeight': False, 'trialN': 52, 'loaded': True, 'loadedTime': 4736.79999999702, 'positionName': 'RIGHT', 'positionCoords': [798.72, 226.5], 'bid': 4.33}]",78901.89999999106,1669840713828,cherries,Tribe humus pita,2.34,4.33,1.9900000000000002,Tribe humus pita,1014.1000000089407,1015,1014.8000000119209,True,i,80424.20000000298,1522.300000011921,1669840715351,1523,HRV,HRV_0296,2022-11-30 20:41:42
53,"[{'imgObject': {}, 'id': 'sushi w_condiments', 'src': '/static/foodstim60/sushi w_condiments.jpg', 'key': 'u', 'origWidth': 410, 'origHeight': 410, 'width': 410, 'height': 410, 'widthPercent': 0.45, 'rescaleHeight': False, 'trialN': 53, 'loaded': True, 'loadedTime': 5618.70000000298, 'positionName': 'LEFT', 'positionCoords': [327.28, 227], 'bid': 0.5700000000000001}, {'imgObject': {}, 'id': 'luckycharms', 'src': '/static/foodstim60/luckycharms.jpg', 'key': 'i', 'origWidth': 410, 'origHeight': 409, 'width': 410, 'height': 409, 'widthPercent': 0.45, 'rescaleHeight': False, 'trialN': 53, 'loaded': True, 'loadedTime': 4168.20000000298, 'positionName': 'RIGHT', 'positionCoords': [798.72, 227.5], 'bid': 1.4}]",80424.39999999106,1669840715351,sushi w_condiments,luckycharms,0.5700000000000001,1.4,0.8299999999999998,luckycharms,726.1000000089407,727,726.8000000119209,True,i,81665.20000000298,1240.800000011921,1669840716592,1241,HRV,HRV_0296,2022-11-30 20:41:42
54,"[{'imgObject': {}, 'id': 'hotdog w must', 'src': '/static/foodstim60/hotdog w must.jpg', 'key': 'u', 'origWidth': 409, 'origHeight': 409, 'width': 409, 'height': 409, 'widthPercent': 0.45, 'rescaleHeight': False, 'trialN': 54, 'loaded': True, 'loadedTime': 5633, 'positionName': 'LEFT', 'positionCoords': [328.28, 227.5], 'bid': 4.88}, {'imgObject': {}, 'id': 'cherries', 'src': '/static/foodstim60/cherries.jpg', 'key': 'i', 'origWidth': 410, 'origHeight': 411, 'width': 410, 'height': 411, 'widthPercent': 0.45, 'rescaleHeight': False, 'trialN': 54, 'loaded': True, 'loadedTime': 4964.29999999702, 'positionName': 'RIGHT', 'positionCoords': [798.72, 226.5], 'bid': 2.34}]",81665.5,1669840716592,hotdog w must,cherries,4.88,2.34,-2.54,hotdog w must,1619.7999999970198,1621,1620.5,True,u,83794.0,2128.5,1669840718721,2129,HRV,HRV_0296,2022-11-30 20:41:42
55,"[{'imgObject': {}, 'id': 'granola w milk', 'src': '/static/foodstim60/granola w milk.jpg', 'key': 'u', 'origWidth': 410, 'origHeight': 410, 'width': 410, 'height': 410, 'widthPercent': 0.45, 'rescaleHeight': False, 'trialN': 55, 'loaded': True, 'loadedTime': 5381.20000000298, 'positionName': 'LEFT', 'positionCoords': [327.28, 227], 'bid': 7.44}, {'imgObject': {}, 'id': 'chicken nuggets2', 'src': '/static/foodstim60/chicken nuggets2.jpg', 'key': 'i', 'origWidth': 410, 'origHeight': 409, 'width': 410, 'height': 409, 'widthPercent': 0.45, 'rescaleHeight': False, 'trialN': 55, 'loaded': True, 'loadedTime': 4993.399999991059, 'positionName': 'RIGHT', 'positionCoords': [798.72, 227.5], 'bid': 7.56}]",83794.59999999404,1669840718721,granola w milk,chicken nuggets2,7.44,7.56,0.11999999999999922,chicken nuggets2,907.5,908,908.2999999970198,True,i,85217.89999999106,1423.2999999970198,1669840720144,1423,HRV,HRV_0296,2022-11-30 20:41:42
56,"[{'imgObject': {}, 'id': 'luckycharms', 'src': '/static/foodstim60/luckycharms.jpg', 'key': 'u', 'origWidth': 410, 'origHeight': 409, 'width': 410, 'height': 409, 'widthPercent': 0.45, 'rescaleHeight': False, 'trialN': 56, 'loaded': True, 'loadedTime': 4257.0999999940395, 'positionName': 'LEFT', 'positionCoords': [327.28, 227.5], 'bid': 1.4}, {'imgObject': {}, 'id': 'fried eggs', 'src': '/static/foodstim60/fried eggs.jpg', 'key': 'i', 'origWidth': 410, 'origHeight': 410, 'width': 410, 'height': 410, 'widthPercent': 0.45, 'rescaleHeight': False, 'trialN': 56, 'loaded': True, 'loadedTime': 5006.899999991059, 'positionName': 'RIGHT', 'positionCoords': [798.72, 227], 'bid': 3.76}]",85218.29999999702,1669840720145,luckycharms,fried eggs,1.4,3.76,2.36,fried eggs,978.5,979,979.4000000059605,True,i,86722.29999999702,1504.0,1669840721649,1504,HRV,HRV_0296,2022-11-30 20:41:42
57,"[{'imgObject': {}, 'id': 'turkeysandwich', 'src': '/static/foodstim60/turkeysandwich.jpg', 'key': 'u', 'origWidth': 409, 'origHeight': 409, 'width': 409, 'height': 409, 'widthPercent': 0.45, 'rescaleHeight': False, 'trialN': 57, 'loaded': True, 'loadedTime': 5869.899999991059, 'positionName': 'LEFT', 'positionCoords': [328.28, 227.5], 'bid': 7.38}, {'imgObject': {}, 'id': 'rigatoni', 'src': '/static/foodstim60/rigatoni.jpg', 'key': 'i', 'origWidth': 411, 'origHeight': 411, 'width': 411, 'height': 411, 'widthPercent': 0.45, 'rescaleHeight': False, 'trialN': 57, 'loaded': True, 'loadedTime': 4835.29999999702, 'positionName': 'RIGHT', 'positionCoords': [798.72, 226.5], 'bid': 3.95}]",86722.59999999404,1669840721649,turkeysandwich,rigatoni,7.38,3.95,-3.4299999999999997,turkeysandwich,690.5,691,691.2999999970198,True,u,87931.29999999702,1208.7000000029802,1669840722858,1209,HRV,HRV_0296,2022-11-30 20:41:42
58,"[{'imgObject': {}, 'id': 'burger', 'src': '/static/foodstim60/burger.jpg', 'key': 'u', 'origWidth': 409, 'origHeight': 409, 'width': 409, 'height': 409, 'widthPercent': 0.45, 'rescaleHeight': False, 'trialN': 58, 'loaded': True, 'loadedTime': 5946.0999999940395, 'positionName': 'LEFT', 'positionCoords': [328.28, 227.5], 'bid': 7.66}, {'imgObject': {}, 'id': 'eggsalad', 'src': '/static/foodstim60/eggsalad.jpg', 'key': 'i', 'origWidth': 410, 'origHeight': 409, 'width': 410, 'height': 409, 'widthPercent': 0.45, 'rescaleHeight': False, 'trialN': 58, 'loaded': True, 'loadedTime': 5971.899999991059, 'positionName': 'RIGHT', 'positionCoords': [798.72, 227.5], 'bid': 4.54}]",87931.89999999106,1669840722858,burger,eggsalad,7.66,4.54,-3.12,burger,715.3000000119209,717,716.2000000029802,True,u,89159.09999999404,1227.2000000029802,1669840724086,1228,HRV,HRV_0296,2022-11-30 20:41:42
59,"[{'imgObject': {}, 'id': 'shreddedwheatwithmilk', 'src': '/static/foodstim60/shreddedwheatwithmilk.jpg', 'key': 'u', 'origWidth': 410, 'origHeight': 410, 'width': 410, 'height': 410, 'widthPercent': 0.45, 'rescaleHeight': False, 'trialN': 59, 'loaded': True, 'loadedTime': 4641.0999999940395, 'positionName': 'LEFT', 'positionCoords': [327.28, 227], 'bid': 4.16}, {'imgObject': {}, 'id': 'Tribe humus pita', 'src': '/static/foodstim60/Tribe humus pita.jpg', 'key': 'i', 'origWidth': 411, 'origHeight': 411, 'width': 411, 'height': 411, 'widthPercent': 0.45, 'rescaleHeight': False, 'trialN': 59, 'loaded': True, 'loadedTime': 4736.20000000298, 'positionName': 'RIGHT', 'positionCoords': [798.72, 226.5], 'bid': 4.33}]",89159.39999999106,1669840724086,shreddedwheatwithmilk,Tribe humus pita,4.16,4.33,0.16999999999999993,Tribe humus pita,1323.5,1324,1324.300000011921,True,i,90991.0,1831.6000000089407,1669840725918,1832,HRV,HRV_0296,2022-11-30 20:41:42
60,"[{'imgObject': {}, 'id': 'strawberries', 'src': '/static/foodstim60/strawberries.jpg', 'key': 'u', 'origWidth': 410, 'origHeight': 410, 'width': 410, 'height': 410, 'widthPercent': 0.45, 'rescaleHeight': False, 'trialN': 60, 'loaded': True, 'loadedTime': 4676.70000000298, 'positionName': 'LEFT', 'positionCoords': [327.28, 227], 'bid': 9.08}, {'imgObject': {}, 'id': 'burger', 'src': '/static/foodstim60/burger.jpg', 'key': 'i', 'origWidth': 409, 'origHeight': 409, 'width': 409, 'height': 409, 'widthPercent': 0.45, 'rescaleHeight': False, 'trialN': 60, 'loaded': True, 'loadedTime': 5942, 'positionName': 'RIGHT', 'positionCoords': [798.72, 227.5], 'bid': 7.66}]",90991.39999999106,1669840725918,strawberries,burger,9.08,7.66,-1.42,strawberries,549.2000000029802,550,549.9000000059605,True,u,92052.0,1060.6000000089407,1669840726979,1061,HRV,HRV_0296,2022-11-30 20:41:42
61,"[{'imgObject': {}, 'id': 'corn cob', 'src': '/static/foodstim60/corn cob.jpg', 'key': 'u', 'origWidth': 411, 'origHeight': 411, 'width': 411, 'height': 411, 'widthPercent': 0.45, 'rescaleHeight': False, 'trialN': 61, 'loaded': True, 'loadedTime': 5041.399999991059, 'positionName': 'LEFT', 'positionCoords': [326.28, 226.5], 'bid': 5.36}, {'imgObject': {}, 'id': 'turkey sandwich', 'src': '/static/foodstim60/turkey sandwich.jpg', 'key': 'i', 'origWidth': 409, 'origHeight': 409, 'width': 409, 'height': 409, 'widthPercent': 0.45, 'rescaleHeight': False, 'trialN': 61, 'loaded': True, 'loadedTime': 5995.20000000298, 'positionName': 'RIGHT', 'positionCoords': [798.72, 227.5], 'bid': 6.65}]",92052.29999999702,1669840726979,corn cob,turkey sandwich,5.36,6.65,1.29,turkey sandwich,814.7000000029802,815,815.4000000059605,True,i,93374.29999999702,1322.0,1669840728301,1322,HRV,HRV_0296,2022-11-30 20:41:42
62,"[{'imgObject': {}, 'id': 'baked potato', 'src': '/static/foodstim60/baked potato.jpg', 'key': 'u', 'origWidth': 409, 'origHeight': 410, 'width': 409, 'height': 410, 'widthPercent': 0.45, 'rescaleHeight': False, 'trialN': 62, 'loaded': True, 'loadedTime': 5919.70000000298, 'positionName': 'LEFT', 'positionCoords': [328.28, 227], 'bid': 7.21}, {'imgObject': {}, 'id': 'veggieswithdip', 'src': '/static/foodstim60/veggieswithdip.jpg', 'key': 'i', 'origWidth': 409, 'origHeight': 409, 'width': 409, 'height': 409, 'widthPercent': 0.45, 'rescaleHeight': False, 'trialN': 62, 'loaded': True, 'loadedTime': 4701.79999999702, 'positionName': 'RIGHT', 'positionCoords': [798.72, 227.5], 'bid': 7.36}]",93374.59999999404,1669840728301,baked potato,veggieswithdip,7.21,7.36,0.15000000000000036,veggieswithdip,941.7999999970198,943,942.6000000089407,True,i,94840.39999999106,1465.7999999970198,1669840729767,1466,HRV,HRV_0296,2022-11-30 20:41:42
63,"[{'imgObject': {}, 'id': 'mashed potato', 'src': '/static/foodstim60/mashed potato.jpg', 'key': 'u', 'origWidth': 409, 'origHeight': 409, 'width': 409, 'height': 409, 'widthPercent': 0.45, 'rescaleHeight': False, 'trialN': 63, 'loaded': True, 'loadedTime': 3816.7000000029802, 'positionName': 'LEFT', 'positionCoords': [328.28, 227.5], 'bid': 6.7700000000000005}, {'imgObject': {}, 'id': 'veggieswithdip', 'src': '/static/foodstim60/veggieswithdip.jpg', 'key': 'i', 'origWidth': 409, 'origHeight': 409, 'width': 409, 'height': 409, 'widthPercent': 0.45, 'rescaleHeight': False, 'trialN': 63, 'loaded': True, 'loadedTime': 4682.79999999702, 'positionName': 'RIGHT', 'positionCoords': [798.72, 227.5], 'bid': 7.36}]",94841.0,1669840729767,mashed potato,veggieswithdip,6.7700000000000005,7.36,0.5899999999999999,veggieswithdip,1043.2999999970198,1044,1043.8999999910593,True,i,96397.89999999106,1556.8999999910593,1669840731324,1557,HRV,HRV_0296,2022-11-30 20:41:42
64,"[{'imgObject': {}, 'id': 'bagel plain', 'src': '/static/foodstim60/bagel plain.jpg', 'key': 'u', 'origWidth': 410, 'origHeight': 410, 'width': 410, 'height': 410, 'widthPercent': 0.45, 'rescaleHeight': False, 'trialN': 64, 'loaded': True, 'loadedTime': 5437.899999991059, 'positionName': 'LEFT', 'positionCoords': [327.28, 227], 'bid': 6.71}, {'imgObject': {}, 'id': 'mashed potato', 'src': '/static/foodstim60/mashed potato.jpg', 'key': 'i', 'origWidth': 409, 'origHeight': 409, 'width': 409, 'height': 409, 'widthPercent': 0.45, 'rescaleHeight': False, 'trialN': 64, 'loaded': True, 'loadedTime': 3812.0999999940395, 'positionName': 'RIGHT', 'positionCoords': [798.72, 227.5], 'bid': 6.7700000000000005}]",96398.59999999404,1669840731325,bagel plain,mashed potato,6.71,6.7700000000000005,0.0600000000000005,mashed potato,902.6000000089407,904,903.4000000059605,True,i,97813.79999999702,1415.2000000029802,1669840732740,1415,HRV,HRV_0296,2022-11-30 20:41:42
65,"[{'imgObject': {}, 'id': 'chicken nuggets2', 'src': '/static/foodstim60/chicken nuggets2.jpg', 'key': 'u', 'origWidth': 410, 'origHeight': 409, 'width': 410, 'height': 409, 'widthPercent': 0.45, 'rescaleHeight': False, 'trialN': 65, 'loaded': True, 'loadedTime': 4997.20000000298, 'positionName': 'LEFT', 'positionCoords': [327.28, 227.5], 'bid': 7.56}, {'imgObject': {}, 'id': 'Tribe humus pita', 'src': '/static/foodstim60/Tribe humus pita.jpg', 'key': 'i', 'origWidth': 411, 'origHeight': 411, 'width': 411, 'height': 411, 'widthPercent': 0.45, 'rescaleHeight': False, 'trialN': 65, 'loaded': True, 'loadedTime': 4742.0999999940395, 'positionName': 'RIGHT', 'positionCoords': [798.72, 226.5], 'bid': 4.33}]",97814.0,1669840732741,chicken nuggets2,Tribe humus pita,7.56,4.33,-3.2299999999999995,chicken nuggets2,874.7999999970198,875,875.3999999910593,True,u,99203.09999999404,1389.0999999940395,1669840734130,1389,HRV,HRV_0296,2022-11-30 20:41:42
66,"[{'imgObject': {}, 'id': 'cheerios', 'src': '/static/foodstim60/cheerios.jpg', 'key': 'u', 'origWidth': 409, 'origHeight': 410, 'width': 409, 'height': 410, 'widthPercent': 0.45, 'rescaleHeight': False, 'trialN': 66, 'loaded': True, 'loadedTime': 5953.5999999940395, 'positionName': 'LEFT', 'positionCoords': [328.28, 227], 'bid': 4.63}, {'imgObject': {}, 'id': 'kiwi', 'src': '/static/foodstim60/kiwi.jpg', 'key': 'i', 'origWidth': 410, 'origHeight': 410, 'width': 410, 'height': 410, 'widthPercent': 0.45, 'rescaleHeight': False, 'trialN': 66, 'loaded': True, 'loadedTime': 5387.399999991059, 'positionName': 'RIGHT', 'positionCoords': [798.72, 227], 'bid': 6.11}]",99203.29999999702,1669840734130,cheerios,kiwi,4.63,6.11,1.4800000000000004,kiwi,771.0,772,771.7000000029802,True,i,100483.09999999404,1279.7999999970198,1669840735410,1280,HRV,HRV_0296,2022-11-30 20:41:42
67,"[{'imgObject': {}, 'id': 'chickenfingers', 'src': '/static/foodstim60/chickenfingers.jpg', 'key': 'u', 'origWidth': 410, 'origHeight': 410, 'width': 410, 'height': 410, 'widthPercent': 0.45, 'rescaleHeight': False, 'trialN': 67, 'loaded': True, 'loadedTime': 4543.70000000298, 'positionName': 'LEFT', 'positionCoords': [327.28, 227], 'bid': 9.17}, {'imgObject': {}, 'id': 'pear', 'src': '/static/foodstim60/pear.jpg', 'key': 'i', 'origWidth': 411, 'origHeight': 410, 'width': 411, 'height': 410, 'widthPercent': 0.45, 'rescaleHeight': False, 'trialN': 67, 'loaded': True, 'loadedTime': 5100.0999999940395, 'positionName': 'RIGHT', 'positionCoords': [798.72, 227], 'bid': 5.91}]",100483.79999999702,1669840735410,chickenfingers,pear,9.17,5.91,-3.26,chickenfingers,683.0,684,683.5999999940395,True,u,101686.70000000298,1202.9000000059605,1669840736613,1203,HRV,HRV_0296,2022-11-30 20:41:42
68,"[{'imgObject': {}, 'id': 'mashed potato', 'src': '/static/foodstim60/mashed potato.jpg', 'key': 'u', 'origWidth': 409, 'origHeight': 409, 'width': 409, 'height': 409, 'widthPercent': 0.45, 'rescaleHeight': False, 'trialN': 68, 'loaded': True, 'loadedTime': 3814.5, 'positionName': 'LEFT', 'positionCoords': [328.28, 227.5], 'bid': 6.7700000000000005}, {'imgObject': {}, 'id': 'cherries', 'src': '/static/foodstim60/cherries.jpg', 'key': 'i', 'origWidth': 410, 'origHeight': 411, 'width': 410, 'height': 411, 'widthPercent': 0.45, 'rescaleHeight': False, 'trialN': 68, 'loaded': True, 'loadedTime': 4963.79999999702, 'positionName': 'RIGHT', 'positionCoords': [798.72, 226.5], 'bid': 2.34}]",101687.0,1669840736614,mashed potato,cherries,6.7700000000000005,2.34,-4.430000000000001,mashed potato,671.0999999940395,672,671.8999999910593,True,u,102871.29999999702,1184.2999999970198,1669840737798,1184,HRV,HRV_0296,2022-11-30 20:41:42
69,"[{'imgObject': {}, 'id': 'veggieswithdip', 'src': '/static/foodstim60/veggieswithdip.jpg', 'key': 'u', 'origWidth': 409, 'origHeight': 409, 'width': 409, 'height': 409, 'widthPercent': 0.45, 'rescaleHeight': False, 'trialN': 69, 'loaded': True, 'loadedTime': 4689.0999999940395, 'positionName': 'LEFT', 'positionCoords': [328.28, 227.5], 'bid': 7.36}, {'imgObject': {}, 'id': 'ice cream sundae 002', 'src': '/static/foodstim60/ice cream sundae 002.jpg', 'key': 'i', 'origWidth': 409, 'origHeight': 409, 'width': 409, 'height': 409, 'widthPercent': 0.45, 'rescaleHeight': False, 'trialN': 69, 'loaded': True, 'loadedTime': 5112.29999999702, 'positionName': 'RIGHT', 'positionCoords': [798.72, 227.5], 'bid': 3.91}]",102871.59999999404,1669840737798,veggieswithdip,ice cream sundae 002,7.36,3.91,-3.45,veggieswithdip,624.6000000089407,625,625.2999999970198,True,u,104013.0,1141.4000000059605,1669840738940,1142,HRV,HRV_0296,2022-11-30 20:41:42
70,"[{'imgObject': {}, 'id': 'corn cob', 'src': '/static/foodstim60/corn cob.jpg', 'key': 'u', 'origWidth': 411, 'origHeight': 411, 'width': 411, 'height': 411, 'widthPercent': 0.45, 'rescaleHeight': False, 'trialN': 70, 'loaded': True, 'loadedTime': 5038.20000000298, 'positionName': 'LEFT', 'positionCoords': [326.28, 226.5], 'bid': 5.36}, {'imgObject': {}, 'id': 'salmon', 'src': '/static/foodstim60/salmon.jpg', 'key': 'i', 'origWidth': 410, 'origHeight': 409, 'width': 410, 'height': 409, 'widthPercent': 0.45, 'rescaleHeight': False, 'trialN': 70, 'loaded': True, 'loadedTime': 5643.5999999940395, 'positionName': 'RIGHT', 'positionCoords': [798.72, 227.5], 'bid': 4.94}]",104013.20000000298,1669840738940,corn cob,salmon,5.36,4.94,-0.41999999999999993,corn cob,942.1999999880791,943,942.8999999910593,True,u,105468.09999999404,1454.8999999910593,1669840740395,1455,HRV,HRV_0296,2022-11-30 20:41:42
71,"[{'imgObject': {}, 'id': 'baked potato', 'src': '/static/foodstim60/baked potato.jpg', 'key': 'u', 'origWidth': 409, 'origHeight': 410, 'width': 409, 'height': 410, 'widthPercent': 0.45, 'rescaleHeight': False, 'trialN': 71, 'loaded': True, 'loadedTime': 5922, 'positionName': 'LEFT', 'positionCoords': [328.28, 227], 'bid': 7.21}, {'imgObject': {}, 'id': 'omelette', 'src': '/static/foodstim60/omelette.jpg', 'key': 'i', 'origWidth': 410, 'origHeight': 409, 'width': 410, 'height': 409, 'widthPercent': 0.45, 'rescaleHeight': False, 'trialN': 71, 'loaded': True, 'loadedTime': 4499.70000000298, 'positionName': 'RIGHT', 'positionCoords': [798.72, 227.5], 'bid': 3.64}]",105468.5,1669840740395,baked potato,omelette,7.21,3.64,-3.57,baked potato,866.3999999910593,867,867.0,True,u,106841.70000000298,1373.2000000029802,1669840741768,1373,HRV,HRV_0296,2022-11-30 20:41:42
72,"[{'imgObject': {}, 'id': 'turkey sandwich', 'src': '/static/foodstim60/turkey sandwich.jpg', 'key': 'u', 'origWidth': 409, 'origHeight': 409, 'width': 409, 'height': 409, 'widthPercent': 0.45, 'rescaleHeight': False, 'trialN': 72, 'loaded': True, 'loadedTime': 5996.0999999940395, 'positionName': 'LEFT', 'positionCoords': [328.28, 227.5], 'bid': 6.65}, {'imgObject': {}, 'id': 'pear', 'src': '/static/foodstim60/pear.jpg', 'key': 'i', 'origWidth': 411, 'origHeight': 410, 'width': 411, 'height': 410, 'widthPercent': 0.45, 'rescaleHeight': False, 'trialN': 72, 'loaded': True, 'loadedTime': 5106.5, 'positionName': 'RIGHT', 'positionCoords': [798.72, 227], 'bid': 5.91}]",106842.0,1669840741769,turkey sandwich,pear,6.65,5.91,-0.7400000000000002,turkey sandwich,788.7000000029802,789,789.5,True,u,108150.0,1308.0,1669840743077,1308,HRV,HRV_0296,2022-11-30 20:41:42
73,"[{'imgObject': {}, 'id': 'salmon', 'src': '/static/foodstim60/salmon.jpg', 'key': 'u', 'origWidth': 410, 'origHeight': 409, 'width': 410, 'height': 409, 'widthPercent': 0.45, 'rescaleHeight': False, 'trialN': 73, 'loaded': True, 'loadedTime': 5644, 'positionName': 'LEFT', 'positionCoords': [327.28, 227.5], 'bid': 4.94}, {'imgObject': {}, 'id': 'blackbeanswithrice', 'src': '/static/foodstim60/blackbeanswithrice.jpg', 'key': 'i', 'origWidth': 410, 'origHeight': 410, 'width': 410, 'height': 410, 'widthPercent': 0.45, 'rescaleHeight': False, 'trialN': 73, 'loaded': True, 'loadedTime': 5892.20000000298, 'positionName': 'RIGHT', 'positionCoords': [798.72, 227], 'bid': 2.7}]",108150.29999999702,1669840743077,salmon,blackbeanswithrice,4.94,2.7,-2.24,salmon,1197.7999999970198,1199,1198.9000000059605,True,u,109851.70000000298,1701.4000000059605,1669840744778,1701,HRV,HRV_0296,2022-11-30 20:41:42
74,"[{'imgObject': {}, 'id': 'raisin bran w milk', 'src': '/static/foodstim60/raisin bran w milk.jpg', 'key': 'u', 'origWidth': 411, 'origHeight': 411, 'width': 411, 'height': 411, 'widthPercent': 0.45, 'rescaleHeight': False, 'trialN': 74, 'loaded': True, 'loadedTime': 5963.70000000298, 'positionName': 'LEFT', 'positionCoords': [326.28, 226.5], 'bid': 4.01}, {'imgObject': {}, 'id': 'ice cream sundae 002', 'src': '/static/foodstim60/ice cream sundae 002.jpg', 'key': 'i', 'origWidth': 409, 'origHeight': 409, 'width': 409, 'height': 409, 'widthPercent': 0.45, 'rescaleHeight': False, 'trialN': 74, 'loaded': True, 'loadedTime': 5113.0999999940395, 'positionName': 'RIGHT', 'positionCoords': [798.72, 227.5], 'bid': 3.91}]",109852.0,1669840744779,raisin bran w milk,ice cream sundae 002,4.01,3.91,-0.09999999999999964,raisin bran w milk,1087.7999999970198,1088,1088.2999999970198,True,u,111442.79999999702,1590.7999999970198,1669840746369,1590,HRV,HRV_0296,2022-11-30 20:41:42
75,"[{'imgObject': {}, 'id': 'sushi w_condiments', 'src': '/static/foodstim60/sushi w_condiments.jpg', 'key': 'u', 'origWidth': 410, 'origHeight': 410, 'width': 410, 'height': 410, 'widthPercent': 0.45, 'rescaleHeight': False, 'trialN': 75, 'loaded': True, 'loadedTime': 5529.399999991059, 'positionName': 'LEFT', 'positionCoords': [327.28, 227], 'bid': 0.5700000000000001}, {'imgObject': {}, 'id': 'cocktailshrimp', 'src': '/static/foodstim60/cocktailshrimp.jpg', 'key': 'i', 'origWidth': 410, 'origHeight': 410, 'width': 410, 'height': 410, 'widthPercent': 0.45, 'rescaleHeight': False, 'trialN': 75, 'loaded': True, 'loadedTime': 4800.79999999702, 'positionName': 'RIGHT', 'positionCoords': [798.72, 227], 'bid': 2.03}]",111443.09999999404,1669840746370,sushi w_condiments,cocktailshrimp,0.5700000000000001,2.03,1.4599999999999997,cocktailshrimp,660.6000000089407,661,661.2000000029802,True,i,112612.5,1169.4000000059605,1669840747539,1169,HRV,HRV_0296,2022-11-30 20:41:42
76,"[{'imgObject': {}, 'id': 'cantaloupe', 'src': '/static/foodstim60/cantaloupe.jpg', 'key': 'u', 'origWidth': 409, 'origHeight': 409, 'width': 409, 'height': 409, 'widthPercent': 0.45, 'rescaleHeight': False, 'trialN': 76, 'loaded': True, 'loadedTime': 5517, 'positionName': 'LEFT', 'positionCoords': [328.28, 227.5], 'bid': 7.34}, {'imgObject': {}, 'id': 'fried eggs', 'src': '/static/foodstim60/fried eggs.jpg', 'key': 'i', 'origWidth': 410, 'origHeight': 410, 'width': 410, 'height': 410, 'widthPercent': 0.45, 'rescaleHeight': False, 'trialN': 76, 'loaded': True, 'loadedTime': 5011.29999999702, 'positionName': 'RIGHT', 'positionCoords': [798.72, 227], 'bid': 3.76}]",112613.09999999404,1669840747540,cantaloupe,fried eggs,7.34,3.76,-3.58,cantaloupe,757.7000000029802,758,758.4000000059605,True,u,113879.70000000298,1266.6000000089407,1669840748806,1266,HRV,HRV_0296,2022-11-30 20:41:42
77,"[{'imgObject': {}, 'id': 'eggs', 'src': '/static/foodstim60/eggs.jpg', 'key': 'u', 'origWidth': 409, 'origHeight': 409, 'width': 409, 'height': 409, 'widthPercent': 0.45, 'rescaleHeight': False, 'trialN': 77, 'loaded': True, 'loadedTime': 5192.0999999940395, 'positionName': 'LEFT', 'positionCoords': [328.28, 227.5], 'bid': 4.84}, {'imgObject': {}, 'id': 'cocktailshrimp', 'src': '/static/foodstim60/cocktailshrimp.jpg', 'key': 'i', 'origWidth': 410, 'origHeight': 410, 'width': 410, 'height': 410, 'widthPercent': 0.45, 'rescaleHeight': False, 'trialN': 77, 'loaded': True, 'loadedTime': 4800, 'positionName': 'RIGHT', 'positionCoords': [798.72, 227], 'bid': 2.03}]",113880.29999999702,1669840748807,eggs,cocktailshrimp,4.84,2.03,-2.81,eggs,914.5,915,915.0999999940395,True,u,115303.79999999702,1423.5,1669840750230,1423,HRV,HRV_0296,2022-11-30 20:41:42
78,"[{'imgObject': {}, 'id': 'raisin bran w milk', 'src': '/static/foodstim60/raisin bran w milk.jpg', 'key': 'u', 'origWidth': 411, 'origHeight': 411, 'width': 411, 'height': 411, 'widthPercent': 0.45, 'rescaleHeight': False, 'trialN': 78, 'loaded': True, 'loadedTime': 5960.29999999702, 'positionName': 'LEFT', 'positionCoords': [326.28, 226.5], 'bid': 4.01}, {'imgObject': {}, 'id': 'sushi w_condiments', 'src': '/static/foodstim60/sushi w_condiments.jpg', 'key': 'i', 'origWidth': 410, 'origHeight': 410, 'width': 410, 'height': 410, 'widthPercent': 0.45, 'rescaleHeight': False, 'trialN': 78, 'loaded': True, 'loadedTime': 5536, 'positionName': 'RIGHT', 'positionCoords': [798.72, 227], 'bid': 0.5700000000000001}]",115304.20000000298,1669840750231,raisin bran w milk,sushi w_condiments,4.01,0.5700000000000001,-3.4399999999999995,raisin bran w milk,849.0,849,849.5999999940395,True,u,116669.79999999702,1365.5999999940395,1669840751596,1365,HRV,HRV_0296,2022-11-30 20:41:42
79,"[{'imgObject': {}, 'id': 'fruitsalad', 'src': '/static/foodstim60/fruitsalad.jpg', 'key': 'u', 'origWidth': 410, 'origHeight': 410, 'width': 410, 'height': 410, 'widthPercent': 0.45, 'rescaleHeight': False, 'trialN': 79, 'loaded': True, 'loadedTime': 4073.5999999940395, 'positionName': 'LEFT', 'positionCoords': [327.28, 227], 'bid': 8.82}, {'imgObject': {}, 'id': 'cantaloupe', 'src': '/static/foodstim60/cantaloupe.jpg', 'key': 'i', 'origWidth': 409, 'origHeight': 409, 'width': 409, 'height': 409, 'widthPercent': 0.45, 'rescaleHeight': False, 'trialN': 79, 'loaded': True, 'loadedTime': 5517.399999991059, 'positionName': 'RIGHT', 'positionCoords': [798.72, 227.5], 'bid': 7.34}]",116670.09999999404,1669840751597,fruitsalad,cantaloupe,8.82,7.34,-1.4800000000000004,fruitsalad,669.6000000089407,670,670.2999999970198,True,u,117845.29999999702,1175.2000000029802,1669840752772,1175,HRV,HRV_0296,2022-11-30 20:41:42
80,"[{'imgObject': {}, 'id': 'yogurt no spoon', 'src': '/static/foodstim60/yogurt no spoon.jpg', 'key': 'u', 'origWidth': 411, 'origHeight': 410, 'width': 411, 'height': 410, 'widthPercent': 0.45, 'rescaleHeight': False, 'trialN': 80, 'loaded': True, 'loadedTime': 4300.5, 'positionName': 'LEFT', 'positionCoords': [326.28, 227], 'bid': 8.75}, {'imgObject': {}, 'id': 'grilled chicken strips', 'src': '/static/foodstim60/grilled chicken strips.jpg', 'key': 'i', 'origWidth': 410, 'origHeight': 411, 'width': 410, 'height': 411, 'widthPercent': 0.45, 'rescaleHeight': False, 'trialN': 80, 'loaded': True, 'loadedTime': 5936.79999999702, 'positionName': 'RIGHT', 'positionCoords': [798.72, 226.5], 'bid': 7.81}]",117845.59999999404,1669840752772,yogurt no spoon,grilled chicken strips,8.75,7.81,-0.9400000000000004,yogurt no spoon,724.4000000059605,725,725.2000000029802,True,u,119085.29999999702,1239.7000000029802,1669840754012,1240,HRV,HRV_0296,2022-11-30 20:41:42
81,"[{'imgObject': {}, 'id': 'apple slices', 'src': '/static/foodstim60/apple slices.jpg', 'key': 'u', 'origWidth': 409, 'origHeight': 410, 'width': 409, 'height': 410, 'widthPercent': 0.45, 'rescaleHeight': False, 'trialN': 81, 'loaded': True, 'loadedTime': 4387.399999991059, 'positionName': 'LEFT', 'positionCoords': [328.28, 227], 'bid': 6.34}, {'imgObject': {}, 'id': 'rigatoni and sauce', 'src': '/static/foodstim60/rigatoni and sauce.jpg', 'key': 'i', 'origWidth': 410, 'origHeight': 411, 'width': 410, 'height': 411, 'widthPercent': 0.45, 'rescaleHeight': False, 'trialN': 81, 'loaded': True, 'loadedTime': 5987.79999999702, 'positionName': 'RIGHT', 'positionCoords': [798.72, 226.5], 'bid': 6.6000000000000005}]",119085.59999999404,1669840754012,apple slices,rigatoni and sauce,6.34,6.6000000000000005,0.2600000000000007,rigatoni and sauce,760.4000000059605,761,761.1000000089407,True,i,120353.89999999106,1268.2999999970198,1669840755280,1268,HRV,HRV_0296,2022-11-30 20:41:42
82,"[{'imgObject': {}, 'id': 'bagel plain', 'src': '/static/foodstim60/bagel plain.jpg', 'key': 'u', 'origWidth': 410, 'origHeight': 410, 'width': 410, 'height': 410, 'widthPercent': 0.45, 'rescaleHeight': False, 'trialN': 82, 'loaded': True, 'loadedTime': 5442.70000000298, 'positionName': 'LEFT', 'positionCoords': [327.28, 227], 'bid': 6.71}, {'imgObject': {}, 'id': 'steak', 'src': '/static/foodstim60/steak.jpg', 'key': 'i', 'origWidth': 410, 'origHeight': 410, 'width': 410, 'height': 410, 'widthPercent': 0.45, 'rescaleHeight': False, 'trialN': 82, 'loaded': True, 'loadedTime': 5862, 'positionName': 'RIGHT', 'positionCoords': [798.72, 227], 'bid': 7.03}]",120354.29999999702,1669840755281,bagel plain,steak,6.71,7.03,0.3200000000000003,steak,1021.4000000059605,1022,1022.2000000029802,True,i,121889.70000000298,1535.4000000059605,1669840756816,1535,HRV,HRV_0296,2022-11-30 20:41:42
83,"[{'imgObject': {}, 'id': 'sweetpotato', 'src': '/static/foodstim60/sweetpotato.jpg', 'key': 'u', 'origWidth': 410, 'origHeight': 410, 'width': 410, 'height': 410, 'widthPercent': 0.45, 'rescaleHeight': False, 'trialN': 83, 'loaded': True, 'loadedTime': 5850.20000000298, 'positionName': 'LEFT', 'positionCoords': [327.28, 227], 'bid': 7.05}, {'imgObject': {}, 'id': 'pear', 'src': '/static/foodstim60/pear.jpg', 'key': 'i', 'origWidth': 411, 'origHeight': 410, 'width': 411, 'height': 410, 'widthPercent': 0.45, 'rescaleHeight': False, 'trialN': 83, 'loaded': True, 'loadedTime': 5105, 'positionName': 'RIGHT', 'positionCoords': [798.72, 227], 'bid': 5.91}]",121889.89999999106,1669840756817,sweetpotato,pear,7.05,5.91,-1.1399999999999997,sweetpotato,900.5,898,901.3000000119209,True,u,123298.09999999404,1408.2000000029802,1669840758221,1404,HRV,HRV_0296,2022-11-30 20:41:42
84,"[{'imgObject': {}, 'id': 'eggs', 'src': '/static/foodstim60/eggs.jpg', 'key': 'u', 'origWidth': 409, 'origHeight': 409, 'width': 409, 'height': 409, 'widthPercent': 0.45, 'rescaleHeight': False, 'trialN': 84, 'loaded': True, 'loadedTime': 5185.70000000298, 'positionName': 'LEFT', 'positionCoords': [328.28, 227.5], 'bid': 4.84}, {'imgObject': {}, 'id': 'cheerios', 'src': '/static/foodstim60/cheerios.jpg', 'key': 'i', 'origWidth': 409, 'origHeight': 410, 'width': 409, 'height': 410, 'widthPercent': 0.45, 'rescaleHeight': False, 'trialN': 84, 'loaded': True, 'loadedTime': 5954.399999991059, 'positionName': 'RIGHT', 'positionCoords': [798.72, 227], 'bid': 4.63}]",123298.39999999106,1669840758222,eggs,cheerios,4.84,4.63,-0.20999999999999996,eggs,2433.300000011921,2434,2434.1000000089407,True,u,126243.5,2945.1000000089407,1669840761167,2945,HRV,HRV_0296,2022-11-30 20:41:42
85,"[{'imgObject': {}, 'id': 'granola w milk', 'src': '/static/foodstim60/granola w milk.jpg', 'key': 'u', 'origWidth': 410, 'origHeight': 410, 'width': 410, 'height': 410, 'widthPercent': 0.45, 'rescaleHeight': False, 'trialN': 85, 'loaded': True, 'loadedTime': 5373.20000000298, 'positionName': 'LEFT', 'positionCoords': [327.28, 227], 'bid': 7.44}, {'imgObject': {}, 'id': 'sweetpotato', 'src': '/static/foodstim60/sweetpotato.jpg', 'key': 'i', 'origWidth': 410, 'origHeight': 410, 'width': 410, 'height': 410, 'widthPercent': 0.45, 'rescaleHeight': False, 'trialN': 85, 'loaded': True, 'loadedTime': 5849.29999999702, 'positionName': 'RIGHT', 'positionCoords': [798.72, 227], 'bid': 7.05}]",126243.89999999106,1669840761167,granola w milk,sweetpotato,7.44,7.05,-0.39000000000000057,sweetpotato,958.6000000089407,959,959.2000000029802,True,i,127710.09999999404,1466.2000000029802,1669840762633,1466,HRV,HRV_0296,2022-11-30 20:41:42
86,"[{'imgObject': {}, 'id': 'edamame', 'src': '/static/foodstim60/edamame.jpg', 'key': 'u', 'origWidth': 409, 'origHeight': 410, 'width': 409, 'height': 410, 'widthPercent': 0.45, 'rescaleHeight': False, 'trialN': 86, 'loaded': True, 'loadedTime': 5528.899999991059, 'positionName': 'LEFT', 'positionCoords': [328.28, 227], 'bid': 0.58}, {'imgObject': {}, 'id': 'cherries', 'src': '/static/foodstim60/cherries.jpg', 'key': 'i', 'origWidth': 410, 'origHeight': 411, 'width': 410, 'height': 411, 'widthPercent': 0.45, 'rescaleHeight': False, 'trialN': 86, 'loaded': True, 'loadedTime': 4941.899999991059, 'positionName': 'RIGHT', 'positionCoords': [798.72, 226.5], 'bid': 2.34}]",127710.59999999404,1669840762634,edamame,cherries,0.58,2.34,1.7599999999999998,edamame,837.7999999970198,839,838.6000000089407,True,u,129053.70000000298,1343.1000000089407,1669840763977,1343,HRV,HRV_0296,2022-11-30 20:41:42
87,"[{'imgObject': {}, 'id': 'roastedpotatoes', 'src': '/static/foodstim60/roastedpotatoes.jpg', 'key': 'u', 'origWidth': 409, 'origHeight': 410, 'width': 409, 'height': 410, 'widthPercent': 0.45, 'rescaleHeight': False, 'trialN': 87, 'loaded': True, 'loadedTime': 3983.7999999970198, 'positionName': 'LEFT', 'positionCoords': [328.28, 227], 'bid': 7.76}, {'imgObject': {}, 'id': 'chickenfingers', 'src': '/static/foodstim60/chickenfingers.jpg', 'key': 'i', 'origWidth': 410, 'origHeight': 410, 'width': 410, 'height': 410, 'widthPercent': 0.45, 'rescaleHeight': False, 'trialN': 87, 'loaded': True, 'loadedTime': 4521, 'positionName': 'RIGHT', 'positionCoords': [798.72, 227], 'bid': 9.17}]",129054.0,1669840763977,roastedpotatoes,chickenfingers,7.76,9.17,1.4100000000000001,chickenfingers,1065.0,1066,1065.5999999940395,True,i,130627.20000000298,1573.2000000029802,1669840765551,1574,HRV,HRV_0296,2022-11-30 20:41:42
88,"[{'imgObject': {}, 'id': 'blueberries', 'src': '/static/foodstim60/blueberries.jpg', 'key': 'u', 'origWidth': 411, 'origHeight': 411, 'width': 411, 'height': 411, 'widthPercent': 0.45, 'rescaleHeight': False, 'trialN': 88, 'loaded': True, 'loadedTime': 5288.20000000298, 'positionName': 'LEFT', 'positionCoords': [326.28, 226.5], 'bid': 6.19}, {'imgObject': {}, 'id': 'corn cob', 'src': '/static/foodstim60/corn cob.jpg', 'key': 'i', 'origWidth': 411, 'origHeight': 411, 'width': 411, 'height': 411, 'widthPercent': 0.45, 'rescaleHeight': False, 'trialN': 88, 'loaded': True, 'loadedTime': 5033.0999999940395, 'positionName': 'RIGHT', 'positionCoords': [798.72, 226.5], 'bid': 5.36}]",130627.5,1669840765551,blueberries,corn cob,6.19,5.36,-0.8300000000000001,blueberries,705.0,705,705.5999999940395,True,u,131850.5,1223.0,1669840766774,1223,HRV,HRV_0296,2022-11-30 20:41:42
89,"[{'imgObject': {}, 'id': 'chickenfingers', 'src': '/static/foodstim60/chickenfingers.jpg', 'key': 'u', 'origWidth': 410, 'origHeight': 410, 'width': 410, 'height': 410, 'widthPercent': 0.45, 'rescaleHeight': False, 'trialN': 89, 'loaded': True, 'loadedTime': 4534.399999991059, 'positionName': 'LEFT', 'positionCoords': [327.28, 227], 'bid': 9.17}, {'imgObject': {}, 'id': 'strawberries', 'src': '/static/foodstim60/strawberries.jpg', 'key': 'i', 'origWidth': 410, 'origHeight': 410, 'width': 410, 'height': 410, 'widthPercent': 0.45, 'rescaleHeight': False, 'trialN': 89, 'loaded': True, 'loadedTime': 4672, 'positionName': 'RIGHT', 'positionCoords': [798.72, 227], 'bid': 9.08}]",131851.20000000298,1669840766774,chickenfingers,strawberries,9.17,9.08,-0.08999999999999986,chickenfingers,531.1999999880791,532,531.8999999910593,True,u,132905.0,1053.7999999970198,1669840767828,1054,HRV,HRV_0296,2022-11-30 20:41:42
90,"[{'imgObject': {}, 'id': 'cocktailshrimp', 'src': '/static/foodstim60/cocktailshrimp.jpg', 'key': 'u', 'origWidth': 410, 'origHeight': 410, 'width': 410, 'height': 410, 'widthPercent': 0.45, 'rescaleHeight': False, 'trialN': 90, 'loaded': True, 'loadedTime': 4758.899999991059, 'positionName': 'LEFT', 'positionCoords': [327.28, 227], 'bid': 2.03}, {'imgObject': {}, 'id': 'lox', 'src': '/static/foodstim60/lox.jpg', 'key': 'i', 'origWidth': 410, 'origHeight': 411, 'width': 410, 'height': 411, 'widthPercent': 0.45, 'rescaleHeight': False, 'trialN': 90, 'loaded': True, 'loadedTime': 4870.399999991059, 'positionName': 'RIGHT', 'positionCoords': [798.72, 226.5], 'bid': 1.58}]",136039.89999999106,1669840770963,cocktailshrimp,lox,2.03,1.58,-0.44999999999999973,cocktailshrimp,1866.0,1867,1867.1000000089407,True,u,138418.89999999106,2379.0,1669840773342,2379,HRV,HRV_0296,2022-11-30 20:41:42
91,"[{'imgObject': {}, 'id': 'turkeysandwich', 'src': '/static/foodstim60/turkeysandwich.jpg', 'key': 'u', 'origWidth': 409, 'origHeight': 409, 'width': 409, 'height': 409, 'widthPercent': 0.45, 'rescaleHeight': False, 'trialN': 91, 'loaded': True, 'loadedTime': 5865.70000000298, 'positionName': 'LEFT', 'positionCoords': [328.28, 227.5], 'bid': 7.38}, {'imgObject': {}, 'id': 'orange slices', 'src': '/static/foodstim60/orange slices.jpg', 'key': 'i', 'origWidth': 409, 'origHeight': 410, 'width': 409, 'height': 410, 'widthPercent': 0.45, 'rescaleHeight': False, 'trialN': 91, 'loaded': True, 'loadedTime': 5725.29999999702, 'positionName': 'RIGHT', 'positionCoords': [798.72, 227], 'bid': 7.44}]",138419.09999999404,1669840773342,turkeysandwich,orange slices,7.38,7.44,0.0600000000000005,turkeysandwich,612.5,614,613.2999999970198,True,u,139544.70000000298,1125.6000000089407,1669840774468,1126,HRV,HRV_0296,2022-11-30 20:41:42
92,"[{'imgObject': {}, 'id': 'bagel plain', 'src': '/static/foodstim60/bagel plain.jpg', 'key': 'u', 'origWidth': 410, 'origHeight': 410, 'width': 410, 'height': 410, 'widthPercent': 0.45, 'rescaleHeight': False, 'trialN': 92, 'loaded': True, 'loadedTime': 5512.20000000298, 'positionName': 'LEFT', 'positionCoords': [327.28, 227], 'bid': 6.71}, {'imgObject': {}, 'id': 'olives', 'src': '/static/foodstim60/olives.jpg', 'key': 'i', 'origWidth': 410, 'origHeight': 410, 'width': 410, 'height': 410, 'widthPercent': 0.45, 'rescaleHeight': False, 'trialN': 92, 'loaded': True, 'loadedTime': 4283.5, 'positionName': 'RIGHT', 'positionCoords': [798.72, 227], 'bid': 5.58}]",139545.09999999404,1669840774468,bagel plain,olives,6.71,5.58,-1.13,olives,847.7000000029802,849,848.4000000059605,True,i,140911.0,1365.9000000059605,1669840775834,1366,HRV,HRV_0296,2022-11-30 20:41:42
93,"[{'imgObject': {}, 'id': 'chicken nuggets2', 'src': '/static/foodstim60/chicken nuggets2.jpg', 'key': 'u', 'origWidth': 410, 'origHeight': 409, 'width': 410, 'height': 409, 'widthPercent': 0.45, 'rescaleHeight': False, 'trialN': 93, 'loaded': True, 'loadedTime': 4990.899999991059, 'positionName': 'LEFT', 'positionCoords': [327.28, 227.5], 'bid': 7.56}, {'imgObject': {}, 'id': 'fruitsalad', 'src': '/static/foodstim60/fruitsalad.jpg', 'key': 'i', 'origWidth': 410, 'origHeight': 410, 'width': 410, 'height': 410, 'widthPercent': 0.45, 'rescaleHeight': False, 'trialN': 93, 'loaded': True, 'loadedTime': 4162.70000000298, 'positionName': 'RIGHT', 'positionCoords': [798.72, 227], 'bid': 8.82}]",140911.39999999106,1669840775835,chicken nuggets2,fruitsalad,7.56,8.82,1.2600000000000007,chicken nuggets2,597.5,598,598.2000000029802,True,u,142029.59999999404,1118.2000000029802,1669840776953,1118,HRV,HRV_0296,2022-11-30 20:41:42
94,"[{'imgObject': {}, 'id': 'omelette', 'src': '/static/foodstim60/omelette.jpg', 'key': 'u', 'origWidth': 410, 'origHeight': 409, 'width': 410, 'height': 409, 'widthPercent': 0.45, 'rescaleHeight': False, 'trialN': 94, 'loaded': True, 'loadedTime': 4500.399999991059, 'positionName': 'LEFT', 'positionCoords': [327.28, 227.5], 'bid': 3.64}, {'imgObject': {}, 'id': 'froot loops w milk', 'src': '/static/foodstim60/froot loops w milk.jpg', 'key': 'i', 'origWidth': 410, 'origHeight': 410, 'width': 410, 'height': 410, 'widthPercent': 0.45, 'rescaleHeight': False, 'trialN': 94, 'loaded': True, 'loadedTime': 4891.0999999940395, 'positionName': 'RIGHT', 'positionCoords': [798.72, 227], 'bid': 3.19}]",142029.89999999106,1669840776953,omelette,froot loops w milk,3.64,3.19,-0.4500000000000002,omelette,906.3000000119209,907,907.1000000089407,True,u,143455.29999999702,1425.4000000059605,1669840778379,1426,HRV,HRV_0296,2022-11-30 20:41:42
95,"[{'imgObject': {}, 'id': 'blueberries', 'src': '/static/foodstim60/blueberries.jpg', 'key': 'u', 'origWidth': 411, 'origHeight': 411, 'width': 411, 'height': 411, 'widthPercent': 0.45, 'rescaleHeight': False, 'trialN': 95, 'loaded': True, 'loadedTime': 5288.79999999702, 'positionName': 'LEFT', 'positionCoords': [326.28, 226.5], 'bid': 6.19}, {'imgObject': {}, 'id': 'pear', 'src': '/static/foodstim60/pear.jpg', 'key': 'i', 'origWidth': 411, 'origHeight': 410, 'width': 411, 'height': 410, 'widthPercent': 0.45, 'rescaleHeight': False, 'trialN': 95, 'loaded': True, 'loadedTime': 5107.20000000298, 'positionName': 'RIGHT', 'positionCoords': [798.72, 227], 'bid': 5.91}]",143455.59999999404,1669840778379,blueberries,pear,6.19,5.91,-0.28000000000000025,pear,1075.2999999970198,1076,1075.9000000059605,True,i,145046.39999999106,1590.7999999970198,1669840779970,1591,HRV,HRV_0296,2022-11-30 20:41:42
96,"[{'imgObject': {}, 'id': 'blueberries', 'src': '/static/foodstim60/blueberries.jpg', 'key': 'u', 'origWidth': 411, 'origHeight': 411, 'width': 411, 'height': 411, 'widthPercent': 0.45, 'rescaleHeight': False, 'trialN': 96, 'loaded': True, 'loadedTime': 5289.0999999940395, 'positionName': 'LEFT', 'positionCoords': [326.28, 226.5], 'bid': 6.19}, {'imgObject': {}, 'id': 'kiwi', 'src': '/static/foodstim60/kiwi.jpg', 'key': 'i', 'origWidth': 410, 'origHeight': 410, 'width': 410, 'height': 410, 'widthPercent': 0.45, 'rescaleHeight': False, 'trialN': 96, 'loaded': True, 'loadedTime': 5420.0999999940395, 'positionName': 'RIGHT', 'positionCoords': [798.72, 227], 'bid': 6.11}]",145047.0,1669840779970,blueberries,kiwi,6.19,6.11,-0.08000000000000007,kiwi,911.2000000029802,912,912.0,True,i,146480.79999999702,1433.7999999970198,1669840781404,1434,HRV,HRV_0296,2022-11-30 20:41:42
97,"[{'imgObject': {}, 'id': 'cocktailshrimp', 'src': '/static/foodstim60/cocktailshrimp.jpg', 'key': 'u', 'origWidth': 410, 'origHeight': 410, 'width': 410, 'height': 410, 'widthPercent': 0.45, 'rescaleHeight': False, 'trialN': 97, 'loaded': True, 'loadedTime': 4805.70000000298, 'positionName': 'LEFT', 'positionCoords': [327.28, 227], 'bid': 2.03}, {'imgObject': {}, 'id': 'bagel plain', 'src': '/static/foodstim60/bagel plain.jpg', 'key': 'i', 'origWidth': 410, 'origHeight': 410, 'width': 410, 'height': 410, 'widthPercent': 0.45, 'rescaleHeight': False, 'trialN': 97, 'loaded': True, 'loadedTime': 5441.399999991059, 'positionName': 'RIGHT', 'positionCoords': [798.72, 227], 'bid': 6.71}]",146481.0,1669840781404,cocktailshrimp,bagel plain,2.03,6.71,4.68,bagel plain,989.8999999910593,991,990.5,True,i,147978.0,1497.0,1669840782901,1497,HRV,HRV_0296,2022-11-30 20:41:42
98,"[{'imgObject': {}, 'id': 'turkeysandwich', 'src': '/static/foodstim60/turkeysandwich.jpg', 'key': 'u', 'origWidth': 409, 'origHeight': 409, 'width': 409, 'height': 409, 'widthPercent': 0.45, 'rescaleHeight': False, 'trialN': 98, 'loaded': True, 'loadedTime': 5870.399999991059, 'positionName': 'LEFT', 'positionCoords': [328.28, 227.5], 'bid': 7.38}, {'imgObject': {}, 'id': 'banana', 'src': '/static/foodstim60/banana.jpg', 'key': 'i', 'origWidth': 410, 'origHeight': 410, 'width': 410, 'height': 410, 'widthPercent': 0.45, 'rescaleHeight': False, 'trialN': 98, 'loaded': True, 'loadedTime': 5321.79999999702, 'positionName': 'RIGHT', 'positionCoords': [798.72, 227], 'bid': 8.52}]",147978.5,1669840782902,turkeysandwich,banana,7.38,8.52,1.1399999999999997,turkeysandwich,593.0999999940395,594,593.8999999910593,True,u,149078.0,1099.5,1669840784001,1099,HRV,HRV_0296,2022-11-30 20:41:42
99,"[{'imgObject': {}, 'id': 'shreddedwheatwithmilk', 'src': '/static/foodstim60/shreddedwheatwithmilk.jpg', 'key': 'u', 'origWidth': 410, 'origHeight': 410, 'width': 410, 'height': 410, 'widthPercent': 0.45, 'rescaleHeight': False, 'trialN': 99, 'loaded': True, 'loadedTime': 4651.20000000298, 'positionName': 'LEFT', 'positionCoords': [327.28, 227], 'bid': 4.16}, {'imgObject': {}, 'id': 'eggsalad', 'src': '/static/foodstim60/eggsalad.jpg', 'key': 'i', 'origWidth': 410, 'origHeight': 409, 'width': 410, 'height': 409, 'widthPercent': 0.45, 'rescaleHeight': False, 'trialN': 99, 'loaded': True, 'loadedTime': 5971.0999999940395, 'positionName': 'RIGHT', 'positionCoords': [798.72, 227.5], 'bid': 4.54}]",149078.20000000298,1669840784002,shreddedwheatwithmilk,eggsalad,4.16,4.54,0.3799999999999999,shreddedwheatwithmilk,1411.7999999970198,1412,1412.699999988079,True,u,150996.39999999106,1918.199999988079,1669840785920,1918,HRV,HRV_0296,2022-11-30 20:41:42
100,"[{'imgObject': {}, 'id': 'chicken nuggets2', 'src': '/static/foodstim60/chicken nuggets2.jpg', 'key': 'u', 'origWidth': 410, 'origHeight': 409, 'width': 410, 'height': 409, 'widthPercent': 0.45, 'rescaleHeight': False, 'trialN': 100, 'loaded': True, 'loadedTime': 4986.0999999940395, 'positionName': 'LEFT', 'positionCoords': [327.28, 227.5], 'bid': 7.56}, {'imgObject': {}, 'id': 'baked potato', 'src': '/static/foodstim60/baked potato.jpg', 'key': 'i', 'origWidth': 409, 'origHeight': 410, 'width': 409, 'height': 410, 'widthPercent': 0.45, 'rescaleHeight': False, 'trialN': 100, 'loaded': True, 'loadedTime': 5921.5999999940395, 'positionName': 'RIGHT', 'positionCoords': [798.72, 227], 'bid': 7.21}]",150996.70000000298,1669840785920,chicken nuggets2,baked potato,7.56,7.21,-0.34999999999999964,chicken nuggets2,581.0,582,581.7999999970198,True,u,152084.0,1087.2999999970198,1669840787007,1087,HRV,HRV_0296,2022-11-30 20:41:42
101,"[{'imgObject': {}, 'id': 'rigatoni', 'src': '/static/foodstim60/rigatoni.jpg', 'key': 'u', 'origWidth': 411, 'origHeight': 411, 'width': 411, 'height': 411, 'widthPercent': 0.45, 'rescaleHeight': False, 'trialN': 101, 'loaded': True, 'loadedTime': 4845.79999999702, 'positionName': 'LEFT', 'positionCoords': [326.28, 226.5], 'bid': 3.95}, {'imgObject': {}, 'id': 'fried eggs', 'src': '/static/foodstim60/fried eggs.jpg', 'key': 'i', 'origWidth': 410, 'origHeight': 410, 'width': 410, 'height': 410, 'widthPercent': 0.45, 'rescaleHeight': False, 'trialN': 101, 'loaded': True, 'loadedTime': 4998, 'positionName': 'RIGHT', 'positionCoords': [798.72, 227], 'bid': 3.76}]",152084.5,1669840787008,rigatoni,fried eggs,3.95,3.76,-0.1900000000000004,fried eggs,695.0999999940395,696,695.7999999970198,True,i,153290.0,1205.5,1669840788213,1205,HRV,HRV_0296,2022-11-30 20:41:42
102,"[{'imgObject': {}, 'id': 'yogurt no spoon', 'src': '/static/foodstim60/yogurt no spoon.jpg', 'key': 'u', 'origWidth': 411, 'origHeight': 410, 'width': 411, 'height': 410, 'widthPercent': 0.45, 'rescaleHeight': False, 'trialN': 102, 'loaded': True, 'loadedTime': 4293.5999999940395, 'positionName': 'LEFT', 'positionCoords': [326.28, 227], 'bid': 8.75}, {'imgObject': {}, 'id': 'strawberries', 'src': '/static/foodstim60/strawberries.jpg', 'key': 'i', 'origWidth': 410, 'origHeight': 410, 'width': 410, 'height': 410, 'widthPercent': 0.45, 'rescaleHeight': False, 'trialN': 102, 'loaded': True, 'loadedTime': 4682.399999991059, 'positionName': 'RIGHT', 'positionCoords': [798.72, 227], 'bid': 9.08}]",153290.20000000298,1669840788214,yogurt no spoon,strawberries,8.75,9.08,0.33000000000000007,yogurt no spoon,578.6999999880791,579,579.5,True,u,154389.79999999702,1099.5999999940395,1669840789313,1099,HRV,HRV_0296,2022-11-30 20:41:42
103,"[{'imgObject': {}, 'id': 'corn cob', 'src': '/static/foodstim60/corn cob.jpg', 'key': 'u', 'origWidth': 411, 'origHeight': 411, 'width': 411, 'height': 411, 'widthPercent': 0.45, 'rescaleHeight': False, 'trialN': 103, 'loaded': True, 'loadedTime': 5037.5999999940395, 'positionName': 'LEFT', 'positionCoords': [326.28, 226.5], 'bid': 5.36}, {'imgObject': {}, 'id': 'Grapes', 'src': '/static/foodstim60/Grapes.jpg', 'key': 'i', 'origWidth': 411, 'origHeight': 411, 'width': 411, 'height': 411, 'widthPercent': 0.45, 'rescaleHeight': False, 'trialN': 103, 'loaded': True, 'loadedTime': 4395, 'positionName': 'RIGHT', 'positionCoords': [798.72, 226.5], 'bid': 8.540000000000001}]",154390.09999999404,1669840789313,corn cob,Grapes,5.36,8.540000000000001,3.1800000000000006,Grapes,947.2000000029802,948,947.9000000059605,True,i,155847.5,1457.4000000059605,1669840790771,1458,HRV,HRV_0296,2022-11-30 20:41:42
104,"[{'imgObject': {}, 'id': 'yogurt no spoon', 'src': '/static/foodstim60/yogurt no spoon.jpg', 'key': 'u', 'origWidth': 411, 'origHeight': 410, 'width': 411, 'height': 410, 'widthPercent': 0.45, 'rescaleHeight': False, 'trialN': 104, 'loaded': True, 'loadedTime': 4298.5, 'positionName': 'LEFT', 'positionCoords': [326.28, 227], 'bid': 8.75}, {'imgObject': {}, 'id': 'orange slices', 'src': '/static/foodstim60/orange slices.jpg', 'key': 'i', 'origWidth': 409, 'origHeight': 410, 'width': 409, 'height': 410, 'widthPercent': 0.45, 'rescaleHeight': False, 'trialN': 104, 'loaded': True, 'loadedTime': 5727.5, 'positionName': 'RIGHT', 'positionCoords': [798.72, 227], 'bid': 7.44}]",155848.0,1669840790771,yogurt no spoon,orange slices,8.75,7.44,-1.3099999999999996,yogurt no spoon,619.8999999910593,621,620.7999999970198,True,u,156971.29999999702,1123.2999999970198,1669840791895,1124,HRV,HRV_0296,2022-11-30 20:41:42
105,"[{'imgObject': {}, 'id': 'mac & cheese', 'src': '/static/foodstim60/mac & cheese.jpg', 'key': 'u', 'origWidth': 410, 'origHeight': 410, 'width': 410, 'height': 410, 'widthPercent': 0.45, 'rescaleHeight': False, 'trialN': 105, 'loaded': True, 'loadedTime': 5978.0999999940395, 'positionName': 'LEFT', 'positionCoords': [327.28, 227], 'bid': 2.35}, {'imgObject': {}, 'id': 'froot loops w milk', 'src': '/static/foodstim60/froot loops w milk.jpg', 'key': 'i', 'origWidth': 410, 'origHeight': 410, 'width': 410, 'height': 410, 'widthPercent': 0.45, 'rescaleHeight': False, 'trialN': 105, 'loaded': True, 'loadedTime': 4896.0999999940395, 'positionName': 'RIGHT', 'positionCoords': [798.72, 227], 'bid': 3.19}]",156971.59999999404,1669840791895,mac & cheese,froot loops w milk,2.35,3.19,0.8399999999999999,froot loops w milk,699.4000000059605,700,700.1000000089407,True,i,158192.39999999106,1220.7999999970198,1669840793116,1221,HRV,HRV_0296,2022-11-30 20:41:42
106,"[{'imgObject': {}, 'id': 'cherry tomato', 'src': '/static/foodstim60/cherry tomato.jpg', 'key': 'u', 'origWidth': 410, 'origHeight': 410, 'width': 410, 'height': 410, 'widthPercent': 0.45, 'rescaleHeight': False, 'trialN': 106, 'loaded': True, 'loadedTime': 5358.5, 'positionName': 'LEFT', 'positionCoords': [327.28, 227], 'bid': 1.65}, {'imgObject': {}, 'id': 'turkey sandwich', 'src': '/static/foodstim60/turkey sandwich.jpg', 'key': 'i', 'origWidth': 409, 'origHeight': 409, 'width': 409, 'height': 409, 'widthPercent': 0.45, 'rescaleHeight': False, 'trialN': 106, 'loaded': True, 'loadedTime': 5997.29999999702, 'positionName': 'RIGHT', 'positionCoords': [798.72, 227.5], 'bid': 6.65}]",158193.0,1669840793116,cherry tomato,turkey sandwich,1.65,6.65,5.0,turkey sandwich,932.8999999910593,934,933.8999999910593,True,i,159634.79999999702,1441.7999999970198,1669840794558,1442,HRV,HRV_0296,2022-11-30 20:41:42
107,"[{'imgObject': {}, 'id': 'salad w chicken', 'src': '/static/foodstim60/salad w chicken.jpg', 'key': 'u', 'origWidth': 411, 'origHeight': 411, 'width': 411, 'height': 411, 'widthPercent': 0.45, 'rescaleHeight': False, 'trialN': 107, 'loaded': True, 'loadedTime': 5620.5, 'positionName': 'LEFT', 'positionCoords': [326.28, 226.5], 'bid': 8.11}, {'imgObject': {}, 'id': 'mashed potato', 'src': '/static/foodstim60/mashed potato.jpg', 'key': 'i', 'origWidth': 409, 'origHeight': 409, 'width': 409, 'height': 409, 'widthPercent': 0.45, 'rescaleHeight': False, 'trialN': 107, 'loaded': True, 'loadedTime': 3905.2999999970198, 'positionName': 'RIGHT', 'positionCoords': [798.72, 227.5], 'bid': 6.7700000000000005}]",159635.0,1669840794558,salad w chicken,mashed potato,8.11,6.7700000000000005,-1.339999999999999,salad w chicken,491.8999999910593,493,492.3999999910593,True,u,160645.0,1010.0,1669840795568,1010,HRV,HRV_0296,2022-11-30 20:41:42
108,"[{'imgObject': {}, 'id': 'cherry tomato', 'src': '/static/foodstim60/cherry tomato.jpg', 'key': 'u', 'origWidth': 410, 'origHeight': 410, 'width': 410, 'height': 410, 'widthPercent': 0.45, 'rescaleHeight': False, 'trialN': 108, 'loaded': True, 'loadedTime': 5360.5999999940395, 'positionName': 'LEFT', 'positionCoords': [327.28, 227], 'bid': 1.65}, {'imgObject': {}, 'id': 'lox', 'src': '/static/foodstim60/lox.jpg', 'key': 'i', 'origWidth': 410, 'origHeight': 411, 'width': 410, 'height': 411, 'widthPercent': 0.45, 'rescaleHeight': False, 'trialN': 108, 'loaded': True, 'loadedTime': 4847.5999999940395, 'positionName': 'RIGHT', 'positionCoords': [798.72, 226.5], 'bid': 1.58}]",160646.0,1669840795569,cherry tomato,lox,1.65,1.58,-0.06999999999999984,cherry tomato,1377.5,1378,1378.0,True,u,162540.39999999106,1894.3999999910593,1669840797464,1895,HRV,HRV_0296,2022-11-30 20:41:42
