trialN,stimuli,question,trialStartTime,trialStartTime_UNIX,stimulus1,trialEvents,rt,receivedResponse,rating,trialEndTime,trialDuration,stimulus1Loaded,exp,subjectId,date
0,"[{'imgObject': {}, 'id': 'apple slices', 'src': '/static/foodstim60/apple slices.jpg', 'key': 'NaN', 'origWidth': 409, 'origHeight': 410, 'width': 409, 'height': 410, 'widthPercent': 0.8, 'rescaleHeight': True, 'trialN': 0, 'loaded': True, 'loadedTime': 5069.0999999940395, 'positionName': 'CENTER', 'positionCoords': [563.5, 156]}]",Rate how much you want to eat this food from 0 (least) to 10 (most).,4994.399999991059,1669839981880,apple slices,"[{'event': 'fullscreenchange', 'details': 'fullscreenexit', 'performance time': 5037.79999999702, 'date time': 1669839981923}]",3840.6000000089407,True,6.75,8835.0,3840.6000000089407,True,HRV,HRV_0296,2022-11-30 20:28:51
1,"[{'imgObject': {}, 'id': 'orange slices', 'src': '/static/foodstim60/orange slices.jpg', 'key': 'NaN', 'origWidth': 409, 'origHeight': 410, 'width': 409, 'height': 410, 'widthPercent': 0.8, 'rescaleHeight': True, 'trialN': 1, 'loaded': True, 'loadedTime': 8856.5, 'positionName': 'CENTER', 'positionCoords': [563.5, 156]}]",Rate how much you want to eat this food from 0 (least) to 10 (most).,8844.39999999106,1669839985730,orange slices,,1969.9000000059605,True,7.36,10814.29999999702,1969.9000000059605,True,HRV,HRV_0296,2022-11-30 20:28:51
2,"[{'imgObject': {}, 'id': 'cherry tomato', 'src': '/static/foodstim60/cherry tomato.jpg', 'key': 'NaN', 'origWidth': 410, 'origHeight': 410, 'width': 410, 'height': 410, 'widthPercent': 0.8, 'rescaleHeight': True, 'trialN': 2, 'loaded': True, 'loadedTime': 10829.79999999702, 'positionName': 'CENTER', 'positionCoords': [563, 156]}]",Rate how much you want to eat this food from 0 (least) to 10 (most).,10817.699999988079,1669839987703,cherry tomato,,3191.300000011921,True,1.58,14009.0,3191.300000011921,True,HRV,HRV_0296,2022-11-30 20:28:51
3,"[{'imgObject': {}, 'id': 'ice cream sundae 002', 'src': '/static/foodstim60/ice cream sundae 002.jpg', 'key': 'NaN', 'origWidth': 409, 'origHeight': 409, 'width': 409, 'height': 409, 'widthPercent': 0.8, 'rescaleHeight': True, 'trialN': 3, 'loaded': True, 'loadedTime': 14023.5, 'positionName': 'CENTER', 'positionCoords': [563.5, 156.5]}]",Rate how much you want to eat this food from 0 (least) to 10 (most).,14012.09999999404,1669839990898,ice cream sundae 002,,2116.7000000029802,True,4.1,16128.79999999702,2116.7000000029802,True,HRV,HRV_0296,2022-11-30 20:28:51
4,"[{'imgObject': {}, 'id': 'raspberries', 'src': '/static/foodstim60/raspberries.jpg', 'key': 'NaN', 'origWidth': 411, 'origHeight': 411, 'width': 411, 'height': 411, 'widthPercent': 0.8, 'rescaleHeight': True, 'trialN': 4, 'loaded': True, 'loadedTime': 16143.199999988079, 'positionName': 'CENTER', 'positionCoords': [562.5, 155.5]}]",Rate how much you want to eat this food from 0 (least) to 10 (most).,16132.59999999404,1669839993018,raspberries,,1945.2999999970198,True,5.44,18077.89999999106,1945.2999999970198,True,HRV,HRV_0296,2022-11-30 20:28:51
5,"[{'imgObject': {}, 'id': 'granola w milk', 'src': '/static/foodstim60/granola w milk.jpg', 'key': 'NaN', 'origWidth': 410, 'origHeight': 410, 'width': 410, 'height': 410, 'widthPercent': 0.8, 'rescaleHeight': True, 'trialN': 5, 'loaded': True, 'loadedTime': 18089.89999999106, 'positionName': 'CENTER', 'positionCoords': [563, 156]}]",Rate how much you want to eat this food from 0 (least) to 10 (most).,18081.09999999404,1669839994967,granola w milk,,1995.5,True,6.0600000000000005,20076.59999999404,1995.5,True,HRV,HRV_0296,2022-11-30 20:28:51
6,"[{'imgObject': {}, 'id': 'eggs', 'src': '/static/foodstim60/eggs.jpg', 'key': 'NaN', 'origWidth': 409, 'origHeight': 409, 'width': 409, 'height': 409, 'widthPercent': 0.8, 'rescaleHeight': True, 'trialN': 6, 'loaded': True, 'loadedTime': 20090.89999999106, 'positionName': 'CENTER', 'positionCoords': [563.5, 156.5]}]",Rate how much you want to eat this food from 0 (least) to 10 (most).,20080.19999998808,1669839996966,eggs,,2387.1000000089407,True,4.63,22467.29999999702,2387.1000000089407,True,HRV,HRV_0296,2022-11-30 20:28:51
7,"[{'imgObject': {}, 'id': 'popsicles', 'src': '/static/foodstim60/popsicles.jpg', 'key': 'NaN', 'origWidth': 410, 'origHeight': 410, 'width': 410, 'height': 410, 'widthPercent': 0.8, 'rescaleHeight': True, 'trialN': 7, 'loaded': True, 'loadedTime': 22482.89999999106, 'positionName': 'CENTER', 'positionCoords': [563, 156]}]",Rate how much you want to eat this food from 0 (least) to 10 (most).,22470.59999999404,1669839999357,popsicles,,2096.4000000059605,True,4.28,24567.0,2096.4000000059605,True,HRV,HRV_0296,2022-11-30 20:28:51
8,"[{'imgObject': {}, 'id': 'roastedpotatoes', 'src': '/static/foodstim60/roastedpotatoes.jpg', 'key': 'NaN', 'origWidth': 409, 'origHeight': 410, 'width': 409, 'height': 410, 'widthPercent': 0.8, 'rescaleHeight': True, 'trialN': 8, 'loaded': True, 'loadedTime': 24587, 'positionName': 'CENTER', 'positionCoords': [563.5, 156]}]",Rate how much you want to eat this food from 0 (least) to 10 (most).,24571.09999999404,1669840001457,roastedpotatoes,,2075.2999999970198,True,7.34,26646.39999999106,2075.2999999970198,True,HRV,HRV_0296,2022-11-30 20:28:51
9,"[{'imgObject': {}, 'id': 'raisin bran w milk', 'src': '/static/foodstim60/raisin bran w milk.jpg', 'key': 'NaN', 'origWidth': 411, 'origHeight': 411, 'width': 411, 'height': 411, 'widthPercent': 0.8, 'rescaleHeight': True, 'trialN': 9, 'loaded': True, 'loadedTime': 26662.39999999106, 'positionName': 'CENTER', 'positionCoords': [562.5, 155.5]}]",Rate how much you want to eat this food from 0 (least) to 10 (most).,26650.19999998808,1669840003536,raisin bran w milk,,2156.0,True,6.32,28806.19999998808,2156.0,True,HRV,HRV_0296,2022-11-30 20:28:51
10,"[{'imgObject': {}, 'id': 'Tribe humus pita', 'src': '/static/foodstim60/Tribe humus pita.jpg', 'key': 'NaN', 'origWidth': 411, 'origHeight': 411, 'width': 411, 'height': 411, 'widthPercent': 0.8, 'rescaleHeight': True, 'trialN': 10, 'loaded': True, 'loadedTime': 28822.69999998808, 'positionName': 'CENTER', 'positionCoords': [562.5, 155.5]}]",Rate how much you want to eat this food from 0 (least) to 10 (most).,28810.29999999702,1669840005696,Tribe humus pita,,3380.2999999970198,True,5.57,32190.59999999404,3380.2999999970198,True,HRV,HRV_0296,2022-11-30 20:28:51
11,"[{'imgObject': {}, 'id': 'shreddedwheatwithmilk', 'src': '/static/foodstim60/shreddedwheatwithmilk.jpg', 'key': 'NaN', 'origWidth': 410, 'origHeight': 410, 'width': 410, 'height': 410, 'widthPercent': 0.8, 'rescaleHeight': True, 'trialN': 11, 'loaded': True, 'loadedTime': 32205.89999999106, 'positionName': 'CENTER', 'positionCoords': [563, 156]}]",Rate how much you want to eat this food from 0 (least) to 10 (most).,32194.39999999106,1669840009080,shreddedwheatwithmilk,,2839.2000000029802,True,4.17,35033.59999999404,2839.2000000029802,True,HRV,HRV_0296,2022-11-30 20:28:51
12,"[{'imgObject': {}, 'id': 'veggieswithdip', 'src': '/static/foodstim60/veggieswithdip.jpg', 'key': 'NaN', 'origWidth': 409, 'origHeight': 409, 'width': 409, 'height': 409, 'widthPercent': 0.8, 'rescaleHeight': True, 'trialN': 12, 'loaded': True, 'loadedTime': 35048.39999999106, 'positionName': 'CENTER', 'positionCoords': [563.5, 156.5]}]",Rate how much you want to eat this food from 0 (least) to 10 (most).,35037.19999998808,1669840011923,veggieswithdip,,1774.1000000089407,True,8.59,36811.29999999702,1774.1000000089407,True,HRV,HRV_0296,2022-11-30 20:28:51
13,"[{'imgObject': {}, 'id': 'turkeysandwich', 'src': '/static/foodstim60/turkeysandwich.jpg', 'key': 'NaN', 'origWidth': 409, 'origHeight': 409, 'width': 409, 'height': 409, 'widthPercent': 0.8, 'rescaleHeight': True, 'trialN': 13, 'loaded': True, 'loadedTime': 36826.69999998808, 'positionName': 'CENTER', 'positionCoords': [563.5, 156.5]}]",Rate how much you want to eat this food from 0 (least) to 10 (most).,36815.19999998808,1669840013701,turkeysandwich,,1673.5,True,7.2,38488.69999998808,1673.5,True,HRV,HRV_0296,2022-11-30 20:28:51
14,"[{'imgObject': {}, 'id': 'baked potato', 'src': '/static/foodstim60/baked potato.jpg', 'key': 'NaN', 'origWidth': 409, 'origHeight': 410, 'width': 409, 'height': 410, 'widthPercent': 0.8, 'rescaleHeight': True, 'trialN': 14, 'loaded': True, 'loadedTime': 38504.89999999106, 'positionName': 'CENTER', 'positionCoords': [563.5, 156]}]",Rate how much you want to eat this food from 0 (least) to 10 (most).,38492.29999999702,1669840015378,baked potato,,1804.5999999940395,True,5.84,40296.89999999106,1804.5999999940395,True,HRV,HRV_0296,2022-11-30 20:28:51
15,"[{'imgObject': {}, 'id': 'grilled chicken strips', 'src': '/static/foodstim60/grilled chicken strips.jpg', 'key': 'NaN', 'origWidth': 410, 'origHeight': 411, 'width': 410, 'height': 411, 'widthPercent': 0.8, 'rescaleHeight': True, 'trialN': 15, 'loaded': True, 'loadedTime': 40313, 'positionName': 'CENTER', 'positionCoords': [563, 155.5]}]",Rate how much you want to eat this food from 0 (least) to 10 (most).,40300.79999999702,1669840017187,grilled chicken strips,,1572.5999999940395,True,6.51,41873.39999999106,1572.5999999940395,True,HRV,HRV_0296,2022-11-30 20:28:51
16,"[{'imgObject': {}, 'id': 'yogurt no spoon', 'src': '/static/foodstim60/yogurt no spoon.jpg', 'key': 'NaN', 'origWidth': 411, 'origHeight': 410, 'width': 411, 'height': 410, 'widthPercent': 0.8, 'rescaleHeight': True, 'trialN': 16, 'loaded': True, 'loadedTime': 41888.89999999106, 'positionName': 'CENTER', 'positionCoords': [562.5, 156]}]",Rate how much you want to eat this food from 0 (least) to 10 (most).,41877.69999998808,1669840018764,yogurt no spoon,,1763.5,True,8.02,43641.19999998808,1763.5,True,HRV,HRV_0296,2022-11-30 20:28:51
17,"[{'imgObject': {}, 'id': 'eggsalad', 'src': '/static/foodstim60/eggsalad.jpg', 'key': 'NaN', 'origWidth': 410, 'origHeight': 409, 'width': 410, 'height': 409, 'widthPercent': 0.8, 'rescaleHeight': True, 'trialN': 17, 'loaded': True, 'loadedTime': 43656.79999999702, 'positionName': 'CENTER', 'positionCoords': [563, 156.5]}]",Rate how much you want to eat this food from 0 (least) to 10 (most).,43645.29999999702,1669840020531,eggsalad,,2064.7999999970198,True,4.62,45710.09999999404,2064.7999999970198,True,HRV,HRV_0296,2022-11-30 20:28:51
18,"[{'imgObject': {}, 'id': 'chickenfingers', 'src': '/static/foodstim60/chickenfingers.jpg', 'key': 'NaN', 'origWidth': 410, 'origHeight': 410, 'width': 410, 'height': 410, 'widthPercent': 0.8, 'rescaleHeight': True, 'trialN': 18, 'loaded': True, 'loadedTime': 45726.09999999404, 'positionName': 'CENTER', 'positionCoords': [563, 156]}]",Rate how much you want to eat this food from 0 (least) to 10 (most).,45713.79999999702,1669840022600,chickenfingers,,2326.0999999940395,True,8.05,48039.89999999106,2326.0999999940395,True,HRV,HRV_0296,2022-11-30 20:28:51
19,"[{'imgObject': {}, 'id': 'pear', 'src': '/static/foodstim60/pear.jpg', 'key': 'NaN', 'origWidth': 411, 'origHeight': 410, 'width': 411, 'height': 410, 'widthPercent': 0.8, 'rescaleHeight': True, 'trialN': 19, 'loaded': True, 'loadedTime': 48060.79999999702, 'positionName': 'CENTER', 'positionCoords': [562.5, 156]}]",Rate how much you want to eat this food from 0 (least) to 10 (most).,48044.39999999106,1669840024930,pear,,2446.4000000059605,True,5.72,50490.79999999702,2446.4000000059605,True,HRV,HRV_0296,2022-11-30 20:28:51
20,"[{'imgObject': {}, 'id': 'burger', 'src': '/static/foodstim60/burger.jpg', 'key': 'NaN', 'origWidth': 409, 'origHeight': 409, 'width': 409, 'height': 409, 'widthPercent': 0.8, 'rescaleHeight': True, 'trialN': 20, 'loaded': True, 'loadedTime': 50507.19999998808, 'positionName': 'CENTER', 'positionCoords': [563.5, 156.5]}]",Rate how much you want to eat this food from 0 (least) to 10 (most).,50494.89999999106,1669840027381,burger,,2125.1000000089407,True,6.94,52620.0,2125.1000000089407,True,HRV,HRV_0296,2022-11-30 20:28:51
21,"[{'imgObject': {}, 'id': 'rigatoni', 'src': '/static/foodstim60/rigatoni.jpg', 'key': 'NaN', 'origWidth': 411, 'origHeight': 411, 'width': 411, 'height': 411, 'widthPercent': 0.8, 'rescaleHeight': True, 'trialN': 21, 'loaded': True, 'loadedTime': 52636.59999999404, 'positionName': 'CENTER', 'positionCoords': [562.5, 155.5]}]",Rate how much you want to eat this food from 0 (least) to 10 (most).,52624.19999998808,1669840029510,rigatoni,,2044.6000000089407,True,2.7600000000000002,54668.79999999702,2044.6000000089407,True,HRV,HRV_0296,2022-11-30 20:28:51
22,"[{'imgObject': {}, 'id': 'fruitsalad', 'src': '/static/foodstim60/fruitsalad.jpg', 'key': 'NaN', 'origWidth': 410, 'origHeight': 410, 'width': 410, 'height': 410, 'widthPercent': 0.8, 'rescaleHeight': True, 'trialN': 22, 'loaded': True, 'loadedTime': 54686.19999998808, 'positionName': 'CENTER', 'positionCoords': [563, 156]}]",Rate how much you want to eat this food from 0 (least) to 10 (most).,54673.29999999702,1669840031559,fruitsalad,,2305.0,True,8.540000000000001,56978.29999999702,2305.0,True,HRV,HRV_0296,2022-11-30 20:28:51
23,"[{'imgObject': {}, 'id': 'chicken nuggets2', 'src': '/static/foodstim60/chicken nuggets2.jpg', 'key': 'NaN', 'origWidth': 410, 'origHeight': 409, 'width': 410, 'height': 409, 'widthPercent': 0.8, 'rescaleHeight': True, 'trialN': 23, 'loaded': True, 'loadedTime': 56995.5, 'positionName': 'CENTER', 'positionCoords': [563, 156.5]}]",Rate how much you want to eat this food from 0 (least) to 10 (most).,56983.29999999702,1669840033869,chicken nuggets2,,4976.399999991059,True,6.83,61959.69999998808,4976.399999991059,True,HRV,HRV_0296,2022-11-30 20:28:51
24,"[{'imgObject': {}, 'id': 'rigatoni and sauce', 'src': '/static/foodstim60/rigatoni and sauce.jpg', 'key': 'NaN', 'origWidth': 410, 'origHeight': 411, 'width': 410, 'height': 411, 'widthPercent': 0.8, 'rescaleHeight': True, 'trialN': 24, 'loaded': True, 'loadedTime': 61983, 'positionName': 'CENTER', 'positionCoords': [563, 155.5]}]",Rate how much you want to eat this food from 0 (least) to 10 (most).,61965.19999998808,1669840038851,rigatoni and sauce,,17226.30000001192,True,6.94,79191.5,17226.30000001192,True,HRV,HRV_0296,2022-11-30 20:28:51
25,"[{'imgObject': {}, 'id': 'cheerios', 'src': '/static/foodstim60/cheerios.jpg', 'key': 'NaN', 'origWidth': 409, 'origHeight': 410, 'width': 409, 'height': 410, 'widthPercent': 0.8, 'rescaleHeight': True, 'trialN': 25, 'loaded': True, 'loadedTime': 5420.79999999702, 'positionName': 'CENTER', 'positionCoords': [563.5, 156]}]",Rate how much you want to eat this food from 0 (least) to 10 (most).,79196.09999999404,1669840056081,cheerios,,1663.2000000029802,True,4.66,80859.29999999702,1663.2000000029802,True,HRV,HRV_0296,2022-11-30 20:28:51
26,"[{'imgObject': {}, 'id': 'hashbrowns', 'src': '/static/foodstim60/hashbrowns.jpg', 'key': 'NaN', 'origWidth': 411, 'origHeight': 410, 'width': 411, 'height': 410, 'widthPercent': 0.8, 'rescaleHeight': True, 'trialN': 26, 'loaded': True, 'loadedTime': 5426, 'positionName': 'CENTER', 'positionCoords': [562.5, 156]}]",Rate how much you want to eat this food from 0 (least) to 10 (most).,80862.39999999106,1669840057747,hashbrowns,,1483.7999999970198,True,4.16,82346.19999998808,1483.7999999970198,True,HRV,HRV_0296,2022-11-30 20:28:51
27,"[{'imgObject': {}, 'id': 'strawberries', 'src': '/static/foodstim60/strawberries.jpg', 'key': 'NaN', 'origWidth': 410, 'origHeight': 410, 'width': 410, 'height': 410, 'widthPercent': 0.8, 'rescaleHeight': True, 'trialN': 27, 'loaded': True, 'loadedTime': 5430.699999988079, 'positionName': 'CENTER', 'positionCoords': [563, 156]}]",Rate how much you want to eat this food from 0 (least) to 10 (most).,82348.5,1669840059234,strawberries,,1796.0,True,8.97,84144.5,1796.0,True,HRV,HRV_0296,2022-11-30 20:28:51
28,"[{'imgObject': {}, 'id': 'tacos', 'src': '/static/foodstim60/tacos.jpg', 'key': 'NaN', 'origWidth': 411, 'origHeight': 411, 'width': 411, 'height': 411, 'widthPercent': 0.8, 'rescaleHeight': True, 'trialN': 28, 'loaded': True, 'loadedTime': 5435.29999999702, 'positionName': 'CENTER', 'positionCoords': [562.5, 155.5]}]",Rate how much you want to eat this food from 0 (least) to 10 (most).,84146.79999999702,1669840061032,tacos,,2076.7999999970198,True,5.62,86223.59999999404,2076.7999999970198,True,HRV,HRV_0296,2022-11-30 20:28:51
29,"[{'imgObject': {}, 'id': 'seaweed', 'src': '/static/foodstim60/seaweed.jpg', 'key': 'NaN', 'origWidth': 410, 'origHeight': 410, 'width': 410, 'height': 410, 'widthPercent': 0.8, 'rescaleHeight': True, 'trialN': 29, 'loaded': True, 'loadedTime': 5513.199999988079, 'positionName': 'CENTER', 'positionCoords': [563, 156]}]",Rate how much you want to eat this food from 0 (least) to 10 (most).,86226.59999999404,1669840063112,seaweed,,2638.7000000029802,True,3.2600000000000002,88865.29999999702,2638.7000000029802,True,HRV,HRV_0296,2022-11-30 20:28:51
30,"[{'imgObject': {}, 'id': 'froot loops w milk', 'src': '/static/foodstim60/froot loops w milk.jpg', 'key': 'NaN', 'origWidth': 410, 'origHeight': 410, 'width': 410, 'height': 410, 'widthPercent': 0.8, 'rescaleHeight': True, 'trialN': 30, 'loaded': True, 'loadedTime': 5519.399999991059, 'positionName': 'CENTER', 'positionCoords': [563, 156]}]",Rate how much you want to eat this food from 0 (least) to 10 (most).,88868.0,1669840065753,froot loops w milk,,1423.5999999940395,True,4.4,90291.59999999404,1423.5999999940395,True,HRV,HRV_0296,2022-11-30 20:28:51
31,"[{'imgObject': {}, 'id': 'bagel plain', 'src': '/static/foodstim60/bagel plain.jpg', 'key': 'NaN', 'origWidth': 410, 'origHeight': 410, 'width': 410, 'height': 410, 'widthPercent': 0.8, 'rescaleHeight': True, 'trialN': 31, 'loaded': True, 'loadedTime': 5524.899999991059, 'positionName': 'CENTER', 'positionCoords': [563, 156]}]",Rate how much you want to eat this food from 0 (least) to 10 (most).,90294.59999999404,1669840067180,bagel plain,,1764.5,True,5.55,92059.09999999404,1764.5,True,HRV,HRV_0296,2022-11-30 20:28:51
32,"[{'imgObject': {}, 'id': 'blueberries', 'src': '/static/foodstim60/blueberries.jpg', 'key': 'NaN', 'origWidth': 411, 'origHeight': 411, 'width': 411, 'height': 411, 'widthPercent': 0.8, 'rescaleHeight': True, 'trialN': 32, 'loaded': True, 'loadedTime': 5532.199999988079, 'positionName': 'CENTER', 'positionCoords': [562.5, 155.5]}]",Rate how much you want to eat this food from 0 (least) to 10 (most).,92061.89999999106,1669840068947,blueberries,,1634.2999999970198,True,5.5200000000000005,93696.19999998808,1634.2999999970198,True,HRV,HRV_0296,2022-11-30 20:28:51
33,"[{'imgObject': {}, 'id': 'omelette', 'src': '/static/foodstim60/omelette.jpg', 'key': 'NaN', 'origWidth': 410, 'origHeight': 409, 'width': 410, 'height': 409, 'widthPercent': 0.8, 'rescaleHeight': True, 'trialN': 33, 'loaded': True, 'loadedTime': 5592.29999999702, 'positionName': 'CENTER', 'positionCoords': [563, 156.5]}]",Rate how much you want to eat this food from 0 (least) to 10 (most).,93699.0,1669840070584,omelette,,1603.8999999910593,True,4.0600000000000005,95302.89999999106,1603.8999999910593,True,HRV,HRV_0296,2022-11-30 20:28:51
34,"[{'imgObject': {}, 'id': 'luckycharms', 'src': '/static/foodstim60/luckycharms.jpg', 'key': 'NaN', 'origWidth': 410, 'origHeight': 409, 'width': 410, 'height': 409, 'widthPercent': 0.8, 'rescaleHeight': True, 'trialN': 34, 'loaded': True, 'loadedTime': 5618, 'positionName': 'CENTER', 'positionCoords': [563, 156.5]}]",Rate how much you want to eat this food from 0 (least) to 10 (most).,95305.79999999702,1669840072191,luckycharms,,1885.2000000029802,True,1.83,97191.0,1885.2000000029802,True,HRV,HRV_0296,2022-11-30 20:28:51
35,"[{'imgObject': {}, 'id': 'edamame', 'src': '/static/foodstim60/edamame.jpg', 'key': 'NaN', 'origWidth': 409, 'origHeight': 410, 'width': 409, 'height': 410, 'widthPercent': 0.8, 'rescaleHeight': True, 'trialN': 35, 'loaded': True, 'loadedTime': 5623.5999999940395, 'positionName': 'CENTER', 'positionCoords': [563.5, 156]}]",Rate how much you want to eat this food from 0 (least) to 10 (most).,97193.89999999106,1669840074079,edamame,,1313.0,True,2.65,98506.89999999106,1313.0,True,HRV,HRV_0296,2022-11-30 20:28:51
36,"[{'imgObject': {}, 'id': 'turkey sandwich', 'src': '/static/foodstim60/turkey sandwich.jpg', 'key': 'NaN', 'origWidth': 409, 'origHeight': 409, 'width': 409, 'height': 409, 'widthPercent': 0.8, 'rescaleHeight': True, 'trialN': 36, 'loaded': True, 'loadedTime': 5650.899999991059, 'positionName': 'CENTER', 'positionCoords': [563.5, 156.5]}]",Rate how much you want to eat this food from 0 (least) to 10 (most).,98510.0,1669840075395,turkey sandwich,,2065.5,True,5.41,100575.5,2065.5,True,HRV,HRV_0296,2022-11-30 20:28:51
37,"[{'imgObject': {}, 'id': 'salad w chicken', 'src': '/static/foodstim60/salad w chicken.jpg', 'key': 'NaN', 'origWidth': 411, 'origHeight': 411, 'width': 411, 'height': 411, 'widthPercent': 0.8, 'rescaleHeight': True, 'trialN': 37, 'loaded': True, 'loadedTime': 5708.899999991059, 'positionName': 'CENTER', 'positionCoords': [562.5, 155.5]}]",Rate how much you want to eat this food from 0 (least) to 10 (most).,100581.0,1669840077466,salad w chicken,,2525.3999999910593,True,7.390000000000001,103106.39999999106,2525.3999999910593,True,HRV,HRV_0296,2022-11-30 20:28:51
38,"[{'imgObject': {}, 'id': 'cherries', 'src': '/static/foodstim60/cherries.jpg', 'key': 'NaN', 'origWidth': 410, 'origHeight': 411, 'width': 410, 'height': 411, 'widthPercent': 0.8, 'rescaleHeight': True, 'trialN': 38, 'loaded': True, 'loadedTime': 5714.199999988079, 'positionName': 'CENTER', 'positionCoords': [563, 155.5]}]",Rate how much you want to eat this food from 0 (least) to 10 (most).,103111.59999999404,1669840079997,cherries,,2826.7000000029802,True,4.0600000000000005,105938.29999999702,2826.7000000029802,True,HRV,HRV_0296,2022-11-30 20:28:51
39,"[{'imgObject': {}, 'id': 'burrito', 'src': '/static/foodstim60/burrito.jpg', 'key': 'NaN', 'origWidth': 410, 'origHeight': 410, 'width': 410, 'height': 410, 'widthPercent': 0.8, 'rescaleHeight': True, 'trialN': 39, 'loaded': True, 'loadedTime': 5719.699999988079, 'positionName': 'CENTER', 'positionCoords': [563, 156]}]",Rate how much you want to eat this food from 0 (least) to 10 (most).,105942.19999998808,1669840082827,burrito,,2637.5,True,5.83,108579.69999998808,2637.5,True,HRV,HRV_0296,2022-11-30 20:28:51
40,"[{'imgObject': {}, 'id': 'mac & cheese', 'src': '/static/foodstim60/mac & cheese.jpg', 'key': 'NaN', 'origWidth': 410, 'origHeight': 410, 'width': 410, 'height': 410, 'widthPercent': 0.8, 'rescaleHeight': True, 'trialN': 40, 'loaded': True, 'loadedTime': 5743.199999988079, 'positionName': 'CENTER', 'positionCoords': [563, 156]}]",Rate how much you want to eat this food from 0 (least) to 10 (most).,108584.59999999404,1669840085470,mac & cheese,,2365.2000000029802,True,3.33,110949.79999999702,2365.2000000029802,True,HRV,HRV_0296,2022-11-30 20:28:51
41,"[{'imgObject': {}, 'id': 'mashed potato', 'src': '/static/foodstim60/mashed potato.jpg', 'key': 'NaN', 'origWidth': 409, 'origHeight': 409, 'width': 409, 'height': 409, 'widthPercent': 0.8, 'rescaleHeight': True, 'trialN': 41, 'loaded': True, 'loadedTime': 5750.79999999702, 'positionName': 'CENTER', 'positionCoords': [563.5, 156.5]}]",Rate how much you want to eat this food from 0 (least) to 10 (most).,110953.39999999106,1669840087839,mashed potato,,2055.1000000089407,True,6.47,113008.5,2055.1000000089407,True,HRV,HRV_0296,2022-11-30 20:28:51
42,"[{'imgObject': {}, 'id': 'sushi w_condiments', 'src': '/static/foodstim60/sushi w_condiments.jpg', 'key': 'NaN', 'origWidth': 410, 'origHeight': 410, 'width': 410, 'height': 410, 'widthPercent': 0.8, 'rescaleHeight': True, 'trialN': 42, 'loaded': True, 'loadedTime': 5853.399999991059, 'positionName': 'CENTER', 'positionCoords': [563, 156]}]",Rate how much you want to eat this food from 0 (least) to 10 (most).,113012.5,1669840089898,sushi w_condiments,,2265.699999988079,True,0.16,115278.19999998808,2265.699999988079,True,HRV,HRV_0296,2022-11-30 20:28:51
43,"[{'imgObject': {}, 'id': 'corn cob', 'src': '/static/foodstim60/corn cob.jpg', 'key': 'NaN', 'origWidth': 411, 'origHeight': 411, 'width': 411, 'height': 411, 'widthPercent': 0.8, 'rescaleHeight': True, 'trialN': 43, 'loaded': True, 'loadedTime': 5862, 'positionName': 'CENTER', 'positionCoords': [562.5, 155.5]}]",Rate how much you want to eat this food from 0 (least) to 10 (most).,115282.29999999702,1669840092167,corn cob,,2405.7999999970198,True,4.24,117688.09999999404,2405.7999999970198,True,HRV,HRV_0296,2022-11-30 20:28:51
44,"[{'imgObject': {}, 'id': 'hotdog w must', 'src': '/static/foodstim60/hotdog w must.jpg', 'key': 'NaN', 'origWidth': 409, 'origHeight': 409, 'width': 409, 'height': 409, 'widthPercent': 0.8, 'rescaleHeight': True, 'trialN': 44, 'loaded': True, 'loadedTime': 5871.699999988079, 'positionName': 'CENTER', 'positionCoords': [563.5, 156.5]}]",Rate how much you want to eat this food from 0 (least) to 10 (most).,117692.59999999404,1669840094578,hotdog w must,,4072.7000000029802,True,4.67,121765.29999999702,4072.7000000029802,True,HRV,HRV_0296,2022-11-30 20:28:51
45,"[{'imgObject': {}, 'id': 'cocktailshrimp', 'src': '/static/foodstim60/cocktailshrimp.jpg', 'key': 'NaN', 'origWidth': 410, 'origHeight': 410, 'width': 410, 'height': 410, 'widthPercent': 0.8, 'rescaleHeight': True, 'trialN': 45, 'loaded': True, 'loadedTime': 5878.0999999940395, 'positionName': 'CENTER', 'positionCoords': [563, 156]}]",Rate how much you want to eat this food from 0 (least) to 10 (most).,121770.0,1669840098655,cocktailshrimp,,1722.5999999940395,True,3.48,123492.59999999404,1722.5999999940395,True,HRV,HRV_0296,2022-11-30 20:28:51
46,"[{'imgObject': {}, 'id': 'steak', 'src': '/static/foodstim60/steak.jpg', 'key': 'NaN', 'origWidth': 410, 'origHeight': 410, 'width': 410, 'height': 410, 'widthPercent': 0.8, 'rescaleHeight': True, 'trialN': 46, 'loaded': True, 'loadedTime': 5901.199999988079, 'positionName': 'CENTER', 'positionCoords': [563, 156]}]",Rate how much you want to eat this food from 0 (least) to 10 (most).,123497.0,1669840100382,steak,,2656.8999999910593,True,5.97,126153.89999999106,2656.8999999910593,True,HRV,HRV_0296,2022-11-30 20:28:51
47,"[{'imgObject': {}, 'id': 'fried eggs', 'src': '/static/foodstim60/fried eggs.jpg', 'key': 'NaN', 'origWidth': 410, 'origHeight': 410, 'width': 410, 'height': 410, 'widthPercent': 0.8, 'rescaleHeight': True, 'trialN': 47, 'loaded': True, 'loadedTime': 6034, 'positionName': 'CENTER', 'positionCoords': [563, 156]}]",Rate how much you want to eat this food from 0 (least) to 10 (most).,126156.19999998808,1669840103041,fried eggs,,1514.1000000089407,True,3.89,127670.29999999702,1514.1000000089407,True,HRV,HRV_0296,2022-11-30 20:28:51
48,"[{'imgObject': {}, 'id': 'sweetpotato', 'src': '/static/foodstim60/sweetpotato.jpg', 'key': 'NaN', 'origWidth': 410, 'origHeight': 410, 'width': 410, 'height': 410, 'widthPercent': 0.8, 'rescaleHeight': True, 'trialN': 48, 'loaded': True, 'loadedTime': 6030.0999999940395, 'positionName': 'CENTER', 'positionCoords': [563, 156]}]",Rate how much you want to eat this food from 0 (least) to 10 (most).,127672.69999998808,1669840104558,sweetpotato,,1413.4000000059605,True,6.11,129086.09999999404,1413.4000000059605,True,HRV,HRV_0296,2022-11-30 20:28:51
49,"[{'imgObject': {}, 'id': 'kiwi', 'src': '/static/foodstim60/kiwi.jpg', 'key': 'NaN', 'origWidth': 410, 'origHeight': 410, 'width': 410, 'height': 410, 'widthPercent': 0.8, 'rescaleHeight': True, 'trialN': 49, 'loaded': True, 'loadedTime': 6045.699999988079, 'positionName': 'CENTER', 'positionCoords': [563, 156]}]",Rate how much you want to eat this food from 0 (least) to 10 (most).,129088.39999999106,1669840105974,kiwi,,2227.5,True,6.28,131315.89999999106,2227.5,True,HRV,HRV_0296,2022-11-30 20:28:51
50,"[{'imgObject': {}, 'id': 'mango', 'src': '/static/foodstim60/mango.jpg', 'key': 'NaN', 'origWidth': 411, 'origHeight': 411, 'width': 411, 'height': 411, 'widthPercent': 0.8, 'rescaleHeight': True, 'trialN': 50, 'loaded': True, 'loadedTime': 6038.899999991059, 'positionName': 'CENTER', 'positionCoords': [562.5, 155.5]}]",Rate how much you want to eat this food from 0 (least) to 10 (most).,131318.89999999106,1669840108204,mango,,3511.2000000029802,True,9.06,134830.09999999404,3511.2000000029802,True,HRV,HRV_0296,2022-11-30 20:28:51
51,"[{'imgObject': {}, 'id': 'bagel and cc', 'src': '/static/foodstim60/bagel and cc.jpg', 'key': 'NaN', 'origWidth': 410, 'origHeight': 410, 'width': 410, 'height': 410, 'widthPercent': 0.8, 'rescaleHeight': True, 'trialN': 51, 'loaded': True, 'loadedTime': 6050.79999999702, 'positionName': 'CENTER', 'positionCoords': [563, 156]}]",Rate how much you want to eat this food from 0 (least) to 10 (most).,134833.0,1669840111718,bagel and cc,,1543.5,True,7.5,136376.5,1543.5,True,HRV,HRV_0296,2022-11-30 20:28:51
52,"[{'imgObject': {}, 'id': 'Grapes', 'src': '/static/foodstim60/Grapes.jpg', 'key': 'NaN', 'origWidth': 411, 'origHeight': 411, 'width': 411, 'height': 411, 'widthPercent': 0.8, 'rescaleHeight': True, 'trialN': 52, 'loaded': True, 'loadedTime': 6124.79999999702, 'positionName': 'CENTER', 'positionCoords': [562.5, 155.5]}]",Rate how much you want to eat this food from 0 (least) to 10 (most).,136379.79999999702,1669840113265,Grapes,,1784.3999999910593,True,8.16,138164.19999998808,1784.3999999910593,True,HRV,HRV_0296,2022-11-30 20:28:51
53,"[{'imgObject': {}, 'id': 'avocado', 'src': '/static/foodstim60/avocado.jpg', 'key': 'NaN', 'origWidth': 409, 'origHeight': 409, 'width': 409, 'height': 409, 'widthPercent': 0.8, 'rescaleHeight': True, 'trialN': 53, 'loaded': True, 'loadedTime': 6131.199999988079, 'positionName': 'CENTER', 'positionCoords': [563.5, 156.5]}]",Rate how much you want to eat this food from 0 (least) to 10 (most).,138167.29999999702,1669840115052,avocado,,1804.5999999940395,True,5.75,139971.89999999106,1804.5999999940395,True,HRV,HRV_0296,2022-11-30 20:28:51
54,"[{'imgObject': {}, 'id': 'blackbeanswithrice', 'src': '/static/foodstim60/blackbeanswithrice.jpg', 'key': 'NaN', 'origWidth': 410, 'origHeight': 410, 'width': 410, 'height': 410, 'widthPercent': 0.8, 'rescaleHeight': True, 'trialN': 54, 'loaded': True, 'loadedTime': 6138.0999999940395, 'positionName': 'CENTER', 'positionCoords': [563, 156]}]",Rate how much you want to eat this food from 0 (least) to 10 (most).,139974.69999998808,1669840116860,blackbeanswithrice,,2065.9000000059605,True,3.54,142040.59999999404,2065.9000000059605,True,HRV,HRV_0296,2022-11-30 20:28:51
55,"[{'imgObject': {}, 'id': 'olives', 'src': '/static/foodstim60/olives.jpg', 'key': 'NaN', 'origWidth': 410, 'origHeight': 410, 'width': 410, 'height': 410, 'widthPercent': 0.8, 'rescaleHeight': True, 'trialN': 55, 'loaded': True, 'loadedTime': 6158, 'positionName': 'CENTER', 'positionCoords': [563, 156]}]",Rate how much you want to eat this food from 0 (least) to 10 (most).,142043.89999999106,1669840118929,olives,,1864.7000000029802,True,5.44,143908.59999999404,1864.7000000029802,True,HRV,HRV_0296,2022-11-30 20:28:51
56,"[{'imgObject': {}, 'id': 'lox', 'src': '/static/foodstim60/lox.jpg', 'key': 'NaN', 'origWidth': 410, 'origHeight': 411, 'width': 410, 'height': 411, 'widthPercent': 0.8, 'rescaleHeight': True, 'trialN': 56, 'loaded': True, 'loadedTime': 6163.899999991059, 'positionName': 'CENTER', 'positionCoords': [563, 155.5]}]",Rate how much you want to eat this food from 0 (least) to 10 (most).,143912.19999998808,1669840120797,lox,,2095.2000000029802,True,2.17,146007.39999999106,2095.2000000029802,True,HRV,HRV_0296,2022-11-30 20:28:51
57,"[{'imgObject': {}, 'id': 'banana', 'src': '/static/foodstim60/banana.jpg', 'key': 'NaN', 'origWidth': 410, 'origHeight': 410, 'width': 410, 'height': 410, 'widthPercent': 0.8, 'rescaleHeight': True, 'trialN': 57, 'loaded': True, 'loadedTime': 6232.399999991059, 'positionName': 'CENTER', 'positionCoords': [563, 156]}]",Rate how much you want to eat this food from 0 (least) to 10 (most).,146010.89999999106,1669840122896,banana,,2446.6000000089407,True,7.33,148457.5,2446.6000000089407,True,HRV,HRV_0296,2022-11-30 20:28:51
58,"[{'imgObject': {}, 'id': 'salmon', 'src': '/static/foodstim60/salmon.jpg', 'key': 'NaN', 'origWidth': 410, 'origHeight': 409, 'width': 410, 'height': 409, 'widthPercent': 0.8, 'rescaleHeight': True, 'trialN': 58, 'loaded': True, 'loadedTime': 6236.5, 'positionName': 'CENTER', 'positionCoords': [563, 156.5]}]",Rate how much you want to eat this food from 0 (least) to 10 (most).,148460.89999999106,1669840125346,salmon,,2657.9000000059605,True,1.92,151118.79999999702,2657.9000000059605,True,HRV,HRV_0296,2022-11-30 20:28:51
59,"[{'imgObject': {}, 'id': 'cantaloupe', 'src': '/static/foodstim60/cantaloupe.jpg', 'key': 'NaN', 'origWidth': 409, 'origHeight': 409, 'width': 409, 'height': 409, 'widthPercent': 0.8, 'rescaleHeight': True, 'trialN': 59, 'loaded': True, 'loadedTime': 6308.79999999702, 'positionName': 'CENTER', 'positionCoords': [563.5, 156.5]}]",Rate how much you want to eat this food from 0 (least) to 10 (most).,151122.59999999404,1669840128008,cantaloupe,,2125.7000000029802,True,5.91,153248.29999999702,2125.7000000029802,True,HRV,HRV_0296,2022-11-30 20:28:51
