success,trial_type,trial_index,time_elapsed,internal_node_id,Block,TrialNumber,TrialTime,trialTimeDiff,FPS_avg,FPS_med,FPS_mode,TrialDur,winResizeTime,rt,block,button_pressed,MotCoh,MotDir,ColCoh,Color,ChoiceKey,Choice,Accuracy,RT,nFrames,FPS,PPD,missTrial,missTrialMsg,onsetDelay,fullScreenExitTime,canvCenter,TrialType,Score,BlockTrial,stimulus,button_labels,exp,subjectId,date
True,fullscreen,0,5792,0.0-0.0,0.0,1.0,,,,,,,,,,,,,,,,,,,,,,,,,,,,,,,,HRV,HRV_0296,2022-11-30 21:07:15
,wl-check-fps,1,10789,0.0-1.0,0.0,2.0,"[6683.9, 6690.7, 6723.4, 6727.9, 6742.9, 6759.3, 6774.2, 6792.8, 6808, 6823.6, 6840, 6856.8, 6873.7, 6889.5, 6906.4, 6923.7, 6939.5, 6956.2, 6972.9, 6989.4, 7006.3, 7022.8, 7039.5, 7057, 7072.8, 7089.5, 7106.5, 7122.7, 7139.3, 7156.2, 7172.7, 7189.4, 7206.1, 7222.7, 7239.3, 7256.1, 7272.6, 7289.3, 7306, 7322.9, 7339.3, 7355.9, 7374.7, 7390.2, 7408.1, 7423.1, 7439.5, 7458.2, 7472.7, 7489.2, 7505.9, 7522.4, 7539.1, 7556, 7572.4, 7589.3, 7608.3, 7622.7, 7639.1, 7656.4, 7672.3, 7689, 7707.7, 7722.7, 7740.7, 7758.6, 7772.8, 7789.2, 7808.1, 7822.4, 7839.1, 7858.5, 7872.2, 7888.8, 7906.4, 7922.3, 7938.8, 7957.8, 7972.1, 7988.7, 8007.5, 8022, 8038.6, 8057.4, 8072, 8088.6, 8105.3, 8122, 8138.7, 8155.3, 8171.9, 8188.5, 8205.3, 8221.9, 8238.4, 8255.4, 8271.8, 8288.5, 8305.2, 8321.8, 8338.8, 8355, 8371.7, 8388.9, 8405.1, 8421.7, 8438.3, 8455, 8472, 8489.4, 8505.4, 8521.9, 8539, 8556.9, 8571.5, 8590.6, 8605.2, 8621.8, 8640.3, 8657.2, 8671.4, 8688.3, 8704.9, 8721.4, 8738.4, 8754.6, 8771.4, 8788.2, 8804.9, 8821.2, 8838.3, 8854.7, 8871.3, 8888.7, 8904.6, 8921.5, 8938.3, 8954.6, 8971.3, 8987.8, 9004.6, 9021.2, 9038.3, 9054.6, 9071.2, 9087.8, 9104.4, 9121.1, 9137.9, 9154.4, 9171.1, 9187.7, 9204.4, 9221, 9237.9, 9254.4, 9270.9, 9287.8, 9304.5, 9320.9, 9337.6, 9354.2, 9371.1, 9388, 9404.3, 9420.9, 9437.6, 9454.2, 9470.9, 9487.5, 9504.1, 9520.8, 9537.6, 9554.1, 9570.8, 9587.5, 9604.1, 9620.9, 9637.5, 9653.9, 9671.2, 9687.5, 9704.1, 9720.7, 9737.3, 9753.9, 9772.9, 9787.3, 9803.9, 9821.3, 9837.5, 9853.8, 9870.5, 9887.3, 9903.8, 9920.7, 9937.2, 9953.8, 9970.4, 9987.2, 10004, 10020.4, 10038, 10053.7, 10070.5, 10088.1, 10103.7, 10120.3, 10137.3, 10153.7, 10170.6, 10188.6, 10203.8, 10220.6, 10238, 10254.1, 10271.3, 10286.9, 10304, 10320.4, 10337.8, 10355.7, 10370.2, 10389.3, 10403.6, 10420.1, 10438.2, 10454, 10470.5, 10487.2, 10504.3, 10520.4, 10537.4, 10554.9, 10570, 10589.2, 10604.8, 10620, 10638.7, 10654.6, 10670.2, 10686.9, 10704.1, 10720.3, 10737.4, 10753.2, 10769.9, 10788.7, 10803.2, 10819.8, 10838, 10853.1, 10869.9, 10887.3, 10903.6, 10920.6, 10938, 10953, 10969.7, 10987, 11003.2, 11019.6, 11036.4, 11052.8, 11069.5, 11086.3, 11102.8, 11119.6, 11136.2, 11153, 11169.6, 11186.3, 11202.8, 11219.6, 11236.3, 11252.8, 11269.5, 11286.2, 11302.7, 11319.4, 11336.1, 11352.8, 11369.7, 11386.4, 11402.9, 11419.3, 11436.1, 11452.6, 11469.2, 11486.1, 11502.5, 11519.4, 11536, 11552.4, 11569.1, 11586.1, 11602.4, 11619.9, 11638.9, 11652.9]","[3.1, 6.8, 32.7, 4.5, 15, 16.4, 14.9, 18.6, 15.2, 15.6, 16.4, 16.8, 16.9, 15.8, 16.9, 17.3, 15.8, 16.7, 16.7, 16.5, 16.9, 16.5, 16.7, 17.5, 15.8, 16.7, 17, 16.2, 16.6, 16.9, 16.5, 16.7, 16.7, 16.6, 16.6, 16.8, 16.5, 16.7, 16.7, 16.9, 16.4, 16.6, 18.8, 15.5, 17.9, 15, 16.4, 18.7, 14.5, 16.5, 16.7, 16.5, 16.7, 16.9, 16.4, 16.9, 19, 14.4, 16.4, 17.3, 15.9, 16.7, 18.7, 15, 18, 17.9, 14.2, 16.4, 18.9, 14.3, 16.7, 19.4, 13.7, 16.6, 17.6, 15.9, 16.5, 19, 14.3, 16.6, 18.8, 14.5, 16.6, 18.8, 14.6, 16.6, 16.7, 16.7, 16.7, 16.6, 16.6, 16.6, 16.8, 16.6, 16.5, 17, 16.4, 16.7, 16.7, 16.6, 17, 16.2, 16.7, 17.2, 16.2, 16.6, 16.6, 16.7, 17, 17.4, 16, 16.5, 17.1, 17.9, 14.6, 19.1, 14.6, 16.6, 18.5, 16.9, 14.2, 16.9, 16.6, 16.5, 17, 16.2, 16.8, 16.8, 16.7, 16.3, 17.1, 16.4, 16.6, 17.4, 15.9, 16.9, 16.8, 16.3, 16.7, 16.5, 16.8, 16.6, 17.1, 16.3, 16.6, 16.6, 16.6, 16.7, 16.8, 16.5, 16.7, 16.6, 16.7, 16.6, 16.9, 16.5, 16.5, 16.9, 16.7, 16.4, 16.7, 16.6, 16.9, 16.9, 16.3, 16.6, 16.7, 16.6, 16.7, 16.6, 16.6, 16.7, 16.8, 16.5, 16.7, 16.7, 16.6, 16.8, 16.6, 16.4, 17.3, 16.3, 16.6, 16.6, 16.6, 16.6, 19, 14.4, 16.6, 17.4, 16.2, 16.3, 16.7, 16.8, 16.5, 16.9, 16.5, 16.6, 16.6, 16.8, 16.8, 16.4, 17.6, 15.7, 16.8, 17.6, 15.6, 16.6, 17, 16.4, 16.9, 18, 15.2, 16.8, 17.4, 16.1, 17.2, 15.6, 17.1, 16.4, 17.4, 17.9, 14.5, 19.1, 14.3, 16.5, 18.1, 15.8, 16.5, 16.7, 17.1, 16.1, 17, 17.5, 15.1, 19.2, 15.6, 15.2, 18.7, 15.9, 15.6, 16.7, 17.2, 16.2, 17.1, 15.8, 16.7, 18.8, 14.5, 16.6, 18.2, 15.1, 16.8, 17.4, 16.3, 17, 17.4, 15, 16.7, 17.3, 16.2, 16.4, 16.8, 16.4, 16.7, 16.8, 16.5, 16.8, 16.6, 16.8, 16.6, 16.7, 16.5, 16.8, 16.7, 16.5, 16.7, 16.7, 16.5, 16.7, 16.7, 16.7, 16.9, 16.7, 16.5, 16.4, 16.8, 16.5, 16.6, 16.9, 16.4, 16.9, 16.6, 16.4, 16.7, 17, 16.3, 17.5, 19, 14]",60.0,60.0,60.0,4988.6,[],,,,,,,,,,,,,,,,,,,,,,,,,HRV,HRV_0296,2022-11-30 21:07:15
,wl-html-keyboard-response,2,27150,0.0-2.0-0.0,0.0,3.0,,,,,,,,14338.20000000298,0.0,0,,,,,,,,,,,,,,,,,,,,,,HRV,HRV_0296,2022-11-30 21:07:15
,wl-rdm,3,34167,0.0-3.0-0.0,0.0,4.0,,,,,,,[],,,,0.0,0.0,87.9,0.0,u,0.0,True,1403.7000000029802,85.0,60.0,40.0,False,,3000.0,[],"[768, 432]",ColorTask_Demo,,,,,HRV,HRV_0296,2022-11-30 21:07:15
,wl-rdm,4,39379,0.0-3.0-1.0,0.0,5.0,,,,,,,[],,,,0.0,0.0,87.9,1.0,i,1.0,True,1120.9000000059605,68.0,60.0,40.0,False,,2000.0,[],"[768, 432]",ColorTask_Demo,,,,,HRV,HRV_0296,2022-11-30 21:07:15
,wl-html-keyboard-response,5,46183,0.0-3.0-2.0,0.0,6.0,,,,,,,,4798.0,0.0,1,,,,,,,,,,,,,,,,,,,,,,HRV,HRV_0296,2022-11-30 21:07:15
,wl-html-keyboard-response,6,58103,0.0-4.0-0.0,0.0,7.0,,,,,,,,9907.300000011921,0.0,0,,,,,,,,,,,,,,,,,,,,,,HRV,HRV_0296,2022-11-30 21:07:15
,wl-html-keyboard-response,7,72103,0.0-5.0-0.0,0.0,8.0,,,,,,,,11993.79999999702,0.0,0,,,,,,,,,,,,,,,,,,,,,,HRV,HRV_0296,2022-11-30 21:07:15
,wl-rdm,8,74433,0.0-6.0-0.0,0.0,9.0,,,,,,,[],,,,,,62.5,0.0,i,1.0,False,1035.5000000149012,63.0,60.0,40.0,False,,215.9903406963886,[],"[768, 432]",ColorTask,-1.0,1.0,,,HRV,HRV_0296,2022-11-30 21:07:15
,wl-rdm,9,76898,0.0-6.1-0.1,0.0,10.0,,,,,,,[],,,,,,56.4,0.0,u,0.0,True,1015.9999999850988,61.0,60.0,40.0,False,,376.04420926861275,[],"[768, 432]",ColorTask,0.0,2.0,,,HRV,HRV_0296,2022-11-30 21:07:15
,wl-rdm,10,78763,0.0-6.2-0.2,0.0,11.0,,,,,,,[],,,,,,87.9,0.0,u,0.0,True,581.7999999970198,35.0,60.0,40.0,False,,207.82275478433692,[],"[768, 432]",ColorTask,1.0,3.0,,,HRV,HRV_0296,2022-11-30 21:07:15
,wl-rdm,11,80795,0.0-6.3-0.3,0.0,12.0,,,,,,,[],,,,,,62.5,1.0,i,1.0,True,719.1000000089407,44.0,60.0,40.0,False,,231.3741271543019,[],"[768, 432]",ColorTask,2.0,4.0,,,HRV,HRV_0296,2022-11-30 21:07:15
,wl-rdm,12,83093,0.0-6.4-0.4,0.0,13.0,,,,,,,[],,,,,,50.0,1.0,u,0.0,False,991.7000000029802,60.0,60.0,40.0,False,,207.7192275109401,[],"[768, 432]",ColorTask,1.0,5.0,,,HRV,HRV_0296,2022-11-30 21:07:15
,wl-rdm,13,85058,0.0-6.5-0.5,0.0,14.0,,,,,,,[],,,,,,87.9,1.0,i,1.0,True,620.2000000029802,38.0,60.0,40.0,False,,250.3038171926376,[],"[768, 432]",ColorTask,2.0,6.0,,,HRV,HRV_0296,2022-11-30 21:07:15
,wl-rdm,14,87139,0.0-6.6-0.6,0.0,15.0,,,,,,,[],,,,,,73.6,0.0,u,0.0,True,689.7000000029802,42.0,60.0,40.0,False,,312.09885281775735,[],"[768, 432]",ColorTask,3.0,7.0,,,HRV,HRV_0296,2022-11-30 21:07:15
,wl-rdm,15,89238,0.0-6.7-0.7,0.0,16.0,,,,,,,[],,,,,,53.2,1.0,i,1.0,True,757.8000000119209,46.0,60.0,40.0,False,,253.049596598907,[],"[768, 432]",ColorTask,4.0,8.0,,,HRV,HRV_0296,2022-11-30 21:07:15
,wl-rdm,16,91453,0.0-6.8-0.8,0.0,17.0,,,,,,,[],,,,,,73.6,1.0,u,0.0,False,895.0999999940395,54.0,60.0,40.0,False,,241.27727253559934,[],"[768, 432]",ColorTask,3.0,9.0,,,HRV,HRV_0296,2022-11-30 21:07:15
,wl-rdm,17,93617,0.0-6.9-0.9,0.0,18.0,,,,,,,[],,,,,,73.6,1.0,i,1.0,True,826.9000000059605,50.0,60.0,40.0,False,,262.8494851420817,[],"[768, 432]",ColorTask,4.0,10.0,,,HRV,HRV_0296,2022-11-30 21:07:15
,wl-rdm,18,96382,0.0-6.10-0.10,0.0,19.0,,,,,,,[],,,,,,56.4,1.0,i,1.0,True,1326.4999999850988,80.0,60.0,40.0,False,,364.85568115645674,[],"[768, 432]",ColorTask,5.0,11.0,,,HRV,HRV_0296,2022-11-30 21:07:15
,wl-rdm,19,98747,0.0-6.11-0.11,0.0,20.0,,,,,,,[],,,,,,56.4,1.0,u,0.0,False,1072.7000000178814,65.0,60.0,40.0,False,,200.85817770049485,[],"[768, 432]",ColorTask,4.0,12.0,,,HRV,HRV_0296,2022-11-30 21:07:15
,wl-rdm,20,100911,0.0-6.12-0.12,0.0,21.0,,,,,,,[],,,,,,50.0,0.0,i,1.0,False,802.8999999910593,49.0,60.0,40.0,False,,270.2029340656185,[],"[768, 432]",ColorTask,3.0,13.0,,,HRV,HRV_0296,2022-11-30 21:07:15
,wl-rdm,21,103193,0.0-6.13-0.13,0.0,22.0,,,,,,,[],,,,,,53.2,0.0,u,0.0,True,973.0000000149012,59.0,60.0,40.0,False,,224.69121424267195,[],"[768, 432]",ColorTask,4.0,14.0,,,HRV,HRV_0296,2022-11-30 21:07:15
,wl-rdm,22,105807,0.0-6.14-0.14,0.0,23.0,,,,,,,[],,,,,,62.5,1.0,i,1.0,True,1327.1000000089407,80.0,60.0,40.0,False,,212.88339180870523,[],"[768, 432]",ColorTask,5.0,15.0,,,HRV,HRV_0296,2022-11-30 21:07:15
,wl-rdm,23,108272,0.0-6.15-0.15,0.0,24.0,,,,,,,[],,,,,,53.2,1.0,i,1.0,True,1159.9000000059605,70.0,60.0,40.0,False,,228.54542767447887,[],"[768, 432]",ColorTask,6.0,16.0,,,HRV,HRV_0296,2022-11-30 21:07:15
,wl-rdm,24,111103,0.0-6.16-0.16,0.0,25.0,,,,,,,[],,,,,,56.4,0.0,i,1.0,False,1454.8999999910593,88.0,60.0,40.0,False,,291.5048334744794,[],"[768, 432]",ColorTask,5.0,17.0,,,HRV,HRV_0296,2022-11-30 21:07:15
,wl-rdm,25,113751,0.0-6.17-0.17,0.0,26.0,,,,,,,[],,,,,,73.6,1.0,i,1.0,True,1353.2999999970198,82.0,60.0,40.0,False,,207.03900624732813,[],"[768, 432]",ColorTask,6.0,18.0,,,HRV,HRV_0296,2022-11-30 21:07:15
,wl-rdm,26,116249,0.0-6.18-0.18,0.0,27.0,,,,,,,[],,,,,,50.0,1.0,i,1.0,True,1203.0999999940395,73.0,60.0,40.0,False,,206.93264808649613,[],"[768, 432]",ColorTask,7.0,19.0,,,HRV,HRV_0296,2022-11-30 21:07:15
,wl-rdm,27,118797,0.0-6.19-0.19,0.0,28.0,,,,,,,[],,,,,,62.5,1.0,i,1.0,True,1252.7999999821186,76.0,60.0,40.0,False,,209.84112262614258,[],"[768, 432]",ColorTask,8.0,20.0,,,HRV,HRV_0296,2022-11-30 21:07:15
,wl-rdm,28,121611,0.0-6.20-0.20,0.0,29.0,,,,,,,[],,,,,,53.2,0.0,i,1.0,False,1489.800000011921,90.0,60.0,40.0,False,,242.97877619341432,[],"[768, 432]",ColorTask,7.0,21.0,,,HRV,HRV_0296,2022-11-30 21:07:15
,wl-rdm,29,124292,0.0-6.21-0.21,0.0,30.0,,,,,,,[],,,,,,62.5,1.0,u,0.0,False,1360.5999999940395,82.0,60.0,40.0,False,,233.50626741842058,[],"[768, 432]",ColorTask,6.0,22.0,,,HRV,HRV_0296,2022-11-30 21:07:15
,wl-rdm,30,126474,0.0-6.22-0.22,0.0,31.0,,,,,,,[],,,,,,53.2,1.0,i,1.0,True,895.6999999880791,54.0,60.0,40.0,False,,203.84373186883744,[],"[768, 432]",ColorTask,7.0,23.0,,,HRV,HRV_0296,2022-11-30 21:07:15
,wl-rdm,31,129038,0.0-6.23-0.23,0.0,32.0,,,,,,,[],,,,,,62.5,1.0,i,1.0,True,1136.2000000029802,69.0,60.0,40.0,False,,349.85594157313085,[],"[768, 432]",ColorTask,8.0,24.0,,,HRV,HRV_0296,2022-11-30 21:07:15
,wl-rdm,32,131386,0.0-6.24-0.24,0.0,33.0,,,,,,,[],,,,,,50.0,1.0,u,0.0,False,1009.6999999880791,61.0,60.0,40.0,False,,266.07602574538663,[],"[768, 432]",ColorTask,7.0,25.0,,,HRV,HRV_0296,2022-11-30 21:07:15
,wl-rdm,33,133684,0.0-6.25-0.25,0.0,34.0,,,,,,,[],,,,,,50.0,1.0,i,1.0,True,836.5000000149012,51.0,60.0,40.0,False,,382.3634737328367,[],"[768, 432]",ColorTask,8.0,26.0,,,HRV,HRV_0296,2022-11-30 21:07:15
,wl-rdm,34,136199,0.0-6.26-0.26,0.0,35.0,,,,,,,[],,,,,,87.9,0.0,u,0.0,True,1221.6000000089407,74.0,60.0,40.0,False,,205.13655504913305,[],"[768, 432]",ColorTask,9.0,27.0,,,HRV,HRV_0296,2022-11-30 21:07:15
,wl-rdm,35,138697,0.0-6.27-0.27,0.0,36.0,,,,,,,[],,,,,,56.4,0.0,i,1.0,False,1097.800000011921,66.0,60.0,40.0,False,,324.35244883840375,[],"[768, 432]",ColorTask,8.0,28.0,,,HRV,HRV_0296,2022-11-30 21:07:15
,wl-rdm,36,141295,0.0-6.28-0.28,0.0,37.0,,,,,,,[],,,,,,50.0,1.0,i,1.0,True,1252.6000000089407,75.0,60.0,40.0,False,,259.55191742024147,[],"[768, 432]",ColorTask,9.0,29.0,,,HRV,HRV_0296,2022-11-30 21:07:15
,wl-rdm,37,143593,0.0-6.29-0.29,0.0,38.0,,,,,,,[],,,,,,50.0,1.0,i,1.0,True,1015.1000000089407,61.0,60.0,40.0,False,,211.45481025728932,[],"[768, 432]",ColorTask,10.0,30.0,,,HRV,HRV_0296,2022-11-30 21:07:15
,wl-rdm,38,145841,0.0-6.30-0.30,0.0,39.0,,,,,,,[],,,,,,73.6,1.0,i,1.0,True,820.0999999940395,50.0,60.0,40.0,False,,330.27946578719116,[],"[768, 432]",ColorTask,11.0,31.0,,,HRV,HRV_0296,2022-11-30 21:07:15
,wl-rdm,39,148305,0.0-6.31-0.31,0.0,40.0,,,,,,,[],,,,,,56.4,1.0,i,1.0,True,1095.8999999910593,66.0,60.0,40.0,False,,285.94128915315804,[],"[768, 432]",ColorTask,12.0,32.0,,,HRV,HRV_0296,2022-11-30 21:07:15
,wl-rdm,40,150620,0.0-6.32-0.32,0.0,41.0,,,,,,,[],,,,,,62.5,1.0,i,1.0,True,954.9999999850988,58.0,60.0,40.0,False,,269.32504855029276,[],"[768, 432]",ColorTask,13.0,33.0,,,HRV,HRV_0296,2022-11-30 21:07:15
,wl-rdm,41,153001,0.0-6.33-0.33,0.0,42.0,,,,,,,[],,,,,,73.6,0.0,i,1.0,False,906.6000000089407,55.0,60.0,40.0,False,,388.3364357782357,[],"[768, 432]",ColorTask,12.0,34.0,,,HRV,HRV_0296,2022-11-30 21:07:15
,wl-rdm,42,155250,0.0-6.34-0.34,0.0,43.0,,,,,,,[],,,,,,62.5,0.0,i,1.0,False,886.7000000029802,54.0,60.0,40.0,False,,275.1188600137973,[],"[768, 432]",ColorTask,11.0,35.0,,,HRV,HRV_0296,2022-11-30 21:07:15
,wl-rdm,43,157548,0.0-6.35-0.35,0.0,44.0,,,,,,,[],,,,,,53.2,0.0,u,0.0,True,929.7000000029802,56.0,60.0,40.0,False,,292.58305123527276,[],"[768, 432]",ColorTask,12.0,36.0,,,HRV,HRV_0296,2022-11-30 21:07:15
,wl-rdm,44,159962,0.0-6.36-0.36,0.0,45.0,,,,,,,[],,,,,,62.5,1.0,u,0.0,False,1074.800000011921,65.0,60.0,40.0,False,,259.995491822869,[],"[768, 432]",ColorTask,11.0,37.0,,,HRV,HRV_0296,2022-11-30 21:07:15
,wl-rdm,45,162144,0.0-6.37-0.37,0.0,46.0,,,,,,,[],,,,,,56.4,0.0,i,1.0,False,896.7999999970198,54.0,60.0,40.0,False,,209.88992259775858,[],"[768, 432]",ColorTask,10.0,38.0,,,HRV,HRV_0296,2022-11-30 21:07:15
,wl-rdm,46,164192,0.0-6.38-0.38,0.0,47.0,,,,,,,[],,,,,,87.9,0.0,u,0.0,True,746.3999999910593,45.0,60.0,40.0,False,,231.9741014389816,[],"[768, 432]",ColorTask,11.0,39.0,,,HRV,HRV_0296,2022-11-30 21:07:15
,wl-rdm,47,166374,0.0-6.39-0.39,0.0,48.0,,,,,,,[],,,,,,56.4,0.0,u,0.0,True,898.0,54.0,60.0,40.0,False,,201.30606356297648,[],"[768, 432]",ColorTask,12.0,40.0,,,HRV,HRV_0296,2022-11-30 21:07:15
,wl-rdm,48,168555,0.0-6.40-0.40,0.0,49.0,,,,,,,[],,,,,,87.9,0.0,u,0.0,True,803.2000000029802,49.0,60.0,40.0,False,,289.76171142458384,[],"[768, 432]",ColorTask,13.0,41.0,,,HRV,HRV_0296,2022-11-30 21:07:15
,wl-rdm,49,171020,0.0-6.41-0.41,0.0,50.0,,,,,,,[],,,,,,56.4,1.0,i,1.0,True,1165.6000000089407,70.0,60.0,40.0,False,,230.46545837452013,[],"[768, 432]",ColorTask,14.0,42.0,,,HRV,HRV_0296,2022-11-30 21:07:15
,wl-rdm,50,173252,0.0-6.42-0.42,0.0,51.0,,,,,,,[],,,,,,87.9,0.0,u,0.0,True,849.0,51.0,60.0,40.0,False,,311.14645171576154,[],"[768, 432]",ColorTask,15.0,43.0,,,HRV,HRV_0296,2022-11-30 21:07:15
,wl-rdm,51,175483,0.0-6.43-0.43,0.0,52.0,,,,,,,[],,,,,,53.2,0.0,i,1.0,False,899.1999999880791,54.0,60.0,40.0,False,,251.32047455760593,[],"[768, 432]",ColorTask,14.0,44.0,,,HRV,HRV_0296,2022-11-30 21:07:15
,wl-rdm,52,177864,0.0-6.44-0.44,0.0,53.0,,,,,,,[],,,,,,73.6,0.0,u,0.0,True,1089.5,66.0,60.0,40.0,False,,209.1431131308169,[],"[768, 432]",ColorTask,15.0,45.0,,,HRV,HRV_0296,2022-11-30 21:07:15
,wl-rdm,53,180313,0.0-6.45-0.45,0.0,54.0,,,,,,,[],,,,,,50.0,0.0,u,0.0,True,1096.0999999791384,66.0,60.0,40.0,False,,280.53117020236584,[],"[768, 432]",ColorTask,16.0,46.0,,,HRV,HRV_0296,2022-11-30 21:07:15
,wl-rdm,54,182894,0.0-6.46-0.46,0.0,55.0,,,,,,,[],,,,,,62.5,0.0,u,0.0,True,1152.7000000029802,70.0,60.0,40.0,False,,335.21293074009554,[],"[768, 432]",ColorTask,17.0,47.0,,,HRV,HRV_0296,2022-11-30 21:07:15
,wl-rdm,55,185225,0.0-6.47-0.47,0.0,56.0,,,,,,,[],,,,,,50.0,0.0,u,0.0,True,1037.5,63.0,60.0,40.0,False,,209.03075306619792,[],"[768, 432]",ColorTask,18.0,48.0,,,HRV,HRV_0296,2022-11-30 21:07:15
,wl-rdm,56,187340,0.0-6.48-0.48,0.0,57.0,,,,,,,[],,,,,,87.9,1.0,i,1.0,True,779.7999999970198,47.0,60.0,40.0,False,,258.7040178977634,[],"[768, 432]",ColorTask,19.0,49.0,,,HRV,HRV_0296,2022-11-30 21:07:15
,wl-rdm,57,190071,0.0-6.49-0.49,0.0,58.0,,,,,,,[],,,,,,73.6,0.0,u,0.0,True,1430.2000000029802,86.0,60.0,40.0,False,,231.141227162339,[],"[768, 432]",ColorTask,20.0,50.0,,,HRV,HRV_0296,2022-11-30 21:07:15
,wl-rdm,58,192286,0.0-6.50-0.50,0.0,59.0,,,,,,,[],,,,,,73.6,1.0,i,1.0,True,894.3000000119209,54.0,60.0,40.0,False,,238.64703859374487,[],"[768, 432]",ColorTask,21.0,51.0,,,HRV,HRV_0296,2022-11-30 21:07:15
,wl-rdm,59,194734,0.0-6.51-0.51,0.0,60.0,,,,,,,[],,,,,,73.6,0.0,u,0.0,True,1136.5000000149012,69.0,60.0,40.0,False,,229.85147310709414,[],"[768, 432]",ColorTask,22.0,52.0,,,HRV,HRV_0296,2022-11-30 21:07:15
,wl-rdm,60,197748,0.0-6.52-0.52,0.0,61.0,,,,,,,[],,,,,,56.4,1.0,i,1.0,True,1544.8999999910593,93.0,60.0,40.0,False,,386.69965292633026,[],"[768, 432]",ColorTask,23.0,53.0,,,HRV,HRV_0296,2022-11-30 21:07:15
,wl-rdm,61,199780,0.0-6.53-0.53,0.0,62.0,,,,,,,[],,,,,,87.9,0.0,u,0.0,True,739.5999999940395,45.0,60.0,40.0,False,,209.56691255308777,[],"[768, 432]",ColorTask,24.0,54.0,,,HRV,HRV_0296,2022-11-30 21:07:15
,wl-rdm,62,202644,0.0-6.54-0.54,0.0,63.0,,,,,,,[],,,,,,53.2,1.0,u,0.0,False,1494.9999999850988,90.0,60.0,40.0,False,,298.42618704435495,[],"[768, 432]",ColorTask,23.0,55.0,,,HRV,HRV_0296,2022-11-30 21:07:15
,wl-rdm,63,204992,0.0-6.55-0.55,0.0,64.0,,,,,,,[],,,,,,53.2,1.0,i,1.0,True,1039.300000011921,63.0,60.0,40.0,False,,216.72125190833913,[],"[768, 432]",ColorTask,24.0,56.0,,,HRV,HRV_0296,2022-11-30 21:07:15
,wl-rdm,64,207457,0.0-6.56-0.56,0.0,65.0,,,,,,,[],,,,,,53.2,1.0,i,1.0,True,1112.9000000059605,67.0,60.0,40.0,False,,278.87960508338193,[],"[768, 432]",ColorTask,25.0,57.0,,,HRV,HRV_0296,2022-11-30 21:07:15
,wl-rdm,65,210038,0.0-6.57-0.57,0.0,66.0,,,,,,,[],,,,,,87.9,1.0,i,1.0,True,1187.0,72.0,60.0,40.0,False,,315.2385024313479,[],"[768, 432]",ColorTask,26.0,58.0,,,HRV,HRV_0296,2022-11-30 21:07:15
,wl-rdm,66,213152,0.0-6.58-0.58,0.0,67.0,,,,,,,[],,,,,,56.4,1.0,i,1.0,True,1710.9000000059605,103.0,60.0,40.0,False,,320.13140791860326,[],"[768, 432]",ColorTask,27.0,59.0,,,HRV,HRV_0296,2022-11-30 21:07:15
,wl-rdm,67,216067,0.0-6.59-0.59,0.0,68.0,,,,,,,[],,,,,,62.5,0.0,i,1.0,False,1627.8999999910593,98.0,60.0,40.0,False,,208.64377048194177,[],"[768, 432]",ColorTask,26.0,60.0,,,HRV,HRV_0296,2022-11-30 21:07:15
,wl-rdm,68,219347,0.0-6.60-0.60,0.0,69.0,,,,,,,[],,,,,,50.0,0.0,u,0.0,True,1830.7000000029802,110.0,60.0,40.0,False,,379.0201186974757,[],"[768, 432]",ColorTask,27.0,61.0,,,HRV,HRV_0296,2022-11-30 21:07:15
,wl-rdm,69,222311,0.0-6.61-0.61,0.0,70.0,,,,,,,[],,,,,,50.0,1.0,i,1.0,True,1652.4000000208616,100.0,60.0,40.0,False,,222.50661305804275,[],"[768, 432]",ColorTask,28.0,62.0,,,HRV,HRV_0296,2022-11-30 21:07:15
,wl-rdm,70,225126,0.0-6.62-0.62,0.0,71.0,,,,,,,[],,,,,,62.5,0.0,u,0.0,True,1502.7000000029802,91.0,60.0,40.0,False,,225.18675901616342,[],"[768, 432]",ColorTask,29.0,63.0,,,HRV,HRV_0296,2022-11-30 21:07:15
,wl-rdm,71,227507,0.0-6.63-0.63,0.0,72.0,,,,,,,[],,,,,,73.6,0.0,u,0.0,True,1038.3999999910593,63.0,60.0,40.0,False,,254.25462843564014,[],"[768, 432]",ColorTask,30.0,64.0,,,HRV,HRV_0296,2022-11-30 21:07:15
,wl-rdm,72,229922,0.0-6.64-0.64,0.0,73.0,,,,,,,[],,,,,,73.6,1.0,i,1.0,True,1030.9000000059605,62.0,60.0,40.0,False,,315.5984667572925,[],"[768, 432]",ColorTask,31.0,65.0,,,HRV,HRV_0296,2022-11-30 21:07:15
,wl-rdm,73,232287,0.0-6.65-0.65,0.0,74.0,,,,,,,[],,,,,,56.4,1.0,i,1.0,True,1069.699999988079,65.0,60.0,40.0,False,,205.88614842623485,[],"[768, 432]",ColorTask,32.0,66.0,,,HRV,HRV_0296,2022-11-30 21:07:15
,wl-rdm,74,235384,0.0-6.66-0.66,0.0,75.0,,,,,,,[],,,,,,56.4,1.0,u,0.0,False,1798.3999999910593,108.0,60.0,40.0,False,,217.9717086862692,[],"[768, 432]",ColorTask,31.0,67.0,,,HRV,HRV_0296,2022-11-30 21:07:15
,wl-rdm,75,237765,0.0-6.67-0.67,0.0,76.0,,,,,,,[],,,,,,56.4,0.0,i,1.0,False,998.2000000029802,60.0,60.0,40.0,False,,303.12533807057343,[],"[768, 432]",ColorTask,30.0,68.0,,,HRV,HRV_0296,2022-11-30 21:07:15
,wl-rdm,76,240930,0.0-6.68-0.68,0.0,77.0,,,,,,,[],,,,,,62.5,0.0,i,1.0,False,1676.2000000029802,101.0,60.0,40.0,False,,392.5239594484383,[],"[768, 432]",ColorTask,29.0,69.0,,,HRV,HRV_0296,2022-11-30 21:07:15
,wl-rdm,77,243960,0.0-6.69-0.69,0.0,78.0,,,,,,,[],,,,,,53.2,0.0,i,1.0,False,1745.9000000208616,105.0,60.0,40.0,False,,202.6669210133083,[],"[768, 432]",ColorTask,28.0,70.0,,,HRV,HRV_0296,2022-11-30 21:07:15
,wl-rdm,78,246808,0.0-6.70-0.70,0.0,79.0,,,,,,,[],,,,,,53.2,0.0,u,0.0,True,1377.6000000089407,83.0,60.0,40.0,False,,385.51932501465905,[],"[768, 432]",ColorTask,29.0,71.0,,,HRV,HRV_0296,2022-11-30 21:07:15
,wl-rdm,79,249805,0.0-6.71-0.71,0.0,80.0,,,,,,,[],,,,,,50.0,0.0,i,1.0,False,1554.199999988079,94.0,60.0,40.0,False,,361.28948574882185,[],"[768, 432]",ColorTask,28.0,72.0,,,HRV,HRV_0296,2022-11-30 21:07:15
,wl-rdm,80,252786,0.0-6.72-0.72,0.0,81.0,,,,,,,[],,,,,,53.2,0.0,u,0.0,True,1669.6000000089407,101.0,60.0,40.0,False,,217.6974825699381,[],"[768, 432]",ColorTask,29.0,73.0,,,HRV,HRV_0296,2022-11-30 21:07:15
,wl-rdm,81,254984,0.0-6.73-0.73,0.0,82.0,,,,,,,[],,,,,,87.9,0.0,u,0.0,True,869.7000000029802,53.0,60.0,40.0,False,,242.8074756180772,[],"[768, 432]",ColorTask,30.0,74.0,,,HRV,HRV_0296,2022-11-30 21:07:15
,wl-rdm,82,257665,0.0-6.74-0.74,0.0,83.0,,,,,,,[],,,,,,50.0,1.0,i,1.0,True,1343.3999999910593,81.0,60.0,40.0,False,,252.22851849098637,[],"[768, 432]",ColorTask,31.0,75.0,,,HRV,HRV_0296,2022-11-30 21:07:15
,wl-rdm,83,260063,0.0-6.75-0.75,0.0,84.0,,,,,,,[],,,,,,56.4,0.0,u,0.0,True,952.8999999910593,58.0,60.0,40.0,False,,364.8248740431372,[],"[768, 432]",ColorTask,32.0,76.0,,,HRV,HRV_0296,2022-11-30 21:07:15
,wl-rdm,84,262462,0.0-6.76-0.76,0.0,85.0,,,,,,,[],,,,,,87.9,1.0,i,1.0,True,958.2000000029802,58.0,60.0,40.0,False,,353.3378184959003,[],"[768, 432]",ColorTask,33.0,77.0,,,HRV,HRV_0296,2022-11-30 21:07:15
,wl-rdm,85,264743,0.0-6.77-0.77,0.0,86.0,,,,,,,[],,,,,,73.6,0.0,u,0.0,True,812.6999999880791,49.0,60.0,40.0,False,,387.21365515053975,[],"[768, 432]",ColorTask,34.0,78.0,,,HRV,HRV_0296,2022-11-30 21:07:15
,wl-rdm,86,267607,0.0-6.78-0.78,0.0,87.0,,,,,,,[],,,,,,50.0,0.0,i,1.0,False,1471.8999999910593,89.0,60.0,40.0,False,,300.16817127580174,[],"[768, 432]",ColorTask,33.0,79.0,,,HRV,HRV_0296,2022-11-30 21:07:15
,wl-rdm,87,269889,0.0-6.79-0.79,0.0,88.0,,,,,,,[],,,,,,73.6,0.0,u,0.0,True,910.4999999850988,55.0,60.0,40.0,False,,286.0283356010318,[],"[768, 432]",ColorTask,34.0,80.0,,,HRV,HRV_0296,2022-11-30 21:07:15
,wl-rdm,88,272320,0.0-6.80-0.80,0.0,89.0,,,,,,,[],,,,,,87.9,1.0,i,1.0,True,1011.8999999910593,61.0,60.0,40.0,False,,345.03916034438555,[],"[768, 432]",ColorTask,35.0,81.0,,,HRV,HRV_0296,2022-11-30 21:07:15
,wl-rdm,89,274585,0.0-6.81-0.81,0.0,90.0,,,,,,,[],,,,,,62.5,0.0,u,0.0,True,881.0,53.0,60.0,40.0,False,,303.41682928377395,[],"[768, 432]",ColorTask,36.0,82.0,,,HRV,HRV_0296,2022-11-30 21:07:15
,wl-rdm,90,277200,0.0-6.82-0.82,0.0,91.0,,,,,,,[],,,,,,56.4,0.0,u,0.0,True,1232.5999999940395,74.0,60.0,40.0,False,,312.9819003760285,[],"[768, 432]",ColorTask,37.0,83.0,,,HRV,HRV_0296,2022-11-30 21:07:15
,wl-rdm,91,279581,0.0-6.83-0.83,0.0,92.0,,,,,,,[],,,,,,87.9,1.0,i,1.0,True,920.4999999850988,56.0,60.0,40.0,False,,381.9398840957639,[],"[768, 432]",ColorTask,38.0,84.0,,,HRV,HRV_0296,2022-11-30 21:07:15
,wl-rdm,92,281896,0.0-6.84-0.84,0.0,93.0,,,,,,,[],,,,,,87.9,1.0,i,1.0,True,961.0999999940395,58.0,60.0,40.0,False,,265.3762064453379,[],"[768, 432]",ColorTask,39.0,85.0,,,HRV,HRV_0296,2022-11-30 21:07:15
,wl-rdm,93,284160,0.0-6.85-0.85,0.0,94.0,,,,,,,[],,,,,,87.9,1.0,i,1.0,True,829.7000000029802,50.0,60.0,40.0,False,,356.23367454452705,[],"[768, 432]",ColorTask,40.0,86.0,,,HRV,HRV_0296,2022-11-30 21:07:15
,wl-rdm,94,286825,0.0-6.86-0.86,0.0,95.0,,,,,,,[],,,,,,62.5,1.0,i,1.0,True,1302.9999999850988,79.0,60.0,40.0,False,,281.50922056672863,[],"[768, 432]",ColorTask,41.0,87.0,,,HRV,HRV_0296,2022-11-30 21:07:15
,wl-rdm,95,289373,0.0-6.87-0.87,0.0,96.0,,,,,,,[],,,,,,53.2,1.0,i,1.0,True,1170.0000000149012,71.0,60.0,40.0,False,,291.8703185516438,[],"[768, 432]",ColorTask,42.0,88.0,,,HRV,HRV_0296,2022-11-30 21:07:15
,wl-rdm,96,291505,0.0-6.88-0.88,0.0,97.0,,,,,,,[],,,,,,73.6,0.0,u,0.0,True,738.6000000089407,45.0,60.0,40.0,False,,300.05409131449704,[],"[768, 432]",ColorTask,43.0,89.0,,,HRV,HRV_0296,2022-11-30 21:07:15
,wl-rdm,97,294136,0.0-6.89-0.89,0.0,98.0,,,,,,,[],,,,,,56.4,1.0,i,1.0,True,1262.0999999940395,76.0,60.0,40.0,False,,298.64498151997446,[],"[768, 432]",ColorTask,44.0,90.0,,,HRV,HRV_0296,2022-11-30 21:07:15
,wl-rdm,98,296750,0.0-6.90-0.90,0.0,99.0,,,,,,,[],,,,,,56.4,0.0,i,1.0,False,1302.9000000059605,79.0,60.0,40.0,False,,229.13418509174218,[],"[768, 432]",ColorTask,43.0,91.0,,,HRV,HRV_0296,2022-11-30 21:07:15
,wl-rdm,99,298948,0.0-6.91-0.91,0.0,100.0,,,,,,,[],,,,,,62.5,1.0,i,1.0,True,729.0,44.0,60.0,40.0,False,,395.13806393286904,[],"[768, 432]",ColorTask,44.0,92.0,,,HRV,HRV_0296,2022-11-30 21:07:15
,wl-rdm,100,301646,0.0-6.92-0.92,0.0,101.0,,,,,,,[],,,,,,50.0,0.0,u,0.0,True,1221.5999999940395,74.0,60.0,40.0,False,,389.66047608845264,[],"[768, 432]",ColorTask,45.0,93.0,,,HRV,HRV_0296,2022-11-30 21:07:15
,wl-rdm,101,304044,0.0-6.93-0.93,0.0,102.0,,,,,,,[],,,,,,53.2,1.0,i,1.0,True,958.1999999880791,58.0,60.0,40.0,False,,358.8650577022663,[],"[768, 432]",ColorTask,46.0,94.0,,,HRV,HRV_0296,2022-11-30 21:07:15
,wl-rdm,102,306442,0.0-6.94-0.94,0.0,103.0,,,,,,,[],,,,,,73.6,1.0,i,1.0,True,922.7000000029802,56.0,60.0,40.0,False,,397.84595804161097,[],"[768, 432]",ColorTask,47.0,95.0,,,HRV,HRV_0296,2022-11-30 21:07:15
,wl-rdm,103,308757,0.0-6.95-0.95,0.0,104.0,,,,,,,[],,,,,,87.9,0.0,u,0.0,True,936.1000000089407,57.0,60.0,40.0,False,,291.76470033508565,[],"[768, 432]",ColorTask,48.0,96.0,,,HRV,HRV_0296,2022-11-30 21:07:15
,wl-rdm,104,310872,0.0-6.96-0.96,0.0,105.0,,,,,,,[],,,,,,87.9,1.0,i,1.0,True,823.9000000059605,50.0,60.0,40.0,False,,205.5587102162283,[],"[768, 432]",ColorTask,49.0,97.0,,,HRV,HRV_0296,2022-11-30 21:07:15
,wl-rdm,105,313320,0.0-6.97-0.97,0.0,106.0,,,,,,,[],,,,,,53.2,1.0,u,0.0,False,1087.0999999940395,66.0,60.0,40.0,False,,299.4354228289577,[],"[768, 432]",ColorTask,48.0,98.0,,,HRV,HRV_0296,2022-11-30 21:07:15
,wl-rdm,106,315385,0.0-6.98-0.98,0.0,107.0,,,,,,,[],,,,,,73.6,1.0,i,1.0,True,730.2000000029802,44.0,60.0,40.0,False,,266.24285201709756,[],"[768, 432]",ColorTask,49.0,99.0,,,HRV,HRV_0296,2022-11-30 21:07:15
,wl-rdm,107,317650,0.0-6.99-0.99,0.0,108.0,,,,,,,[],,,,,,73.6,1.0,i,1.0,True,914.5,55.0,60.0,40.0,False,,269.29605044215185,[],"[768, 432]",ColorTask,50.0,100.0,,,HRV,HRV_0296,2022-11-30 21:07:15
,wl-rdm,108,320131,0.0-6.100-0.100,0.0,109.0,,,,,,,[],,,,,,62.5,0.0,u,0.0,True,1090.800000011921,66.0,60.0,40.0,False,,300.4021026492903,[],"[768, 432]",ColorTask,51.0,101.0,,,HRV,HRV_0296,2022-11-30 21:07:15
,wl-rdm,109,322196,0.0-6.101-0.101,0.0,110.0,,,,,,,[],,,,,,87.9,0.0,u,0.0,True,703.7000000029802,43.0,60.0,40.0,False,,276.8745016767853,[],"[768, 432]",ColorTask,52.0,102.0,,,HRV,HRV_0296,2022-11-30 21:07:15
,wl-rdm,110,325094,0.0-6.102-0.102,0.0,111.0,,,,,,,[],,,,,,53.2,0.0,u,0.0,True,1608.2999999970198,97.0,60.0,40.0,False,,210.2983645797594,[],"[768, 432]",ColorTask,53.0,103.0,,,HRV,HRV_0296,2022-11-30 21:07:15
,wl-rdm,111,327992,0.0-6.103-0.103,0.0,112.0,,,,,,,[],,,,,,50.0,1.0,u,0.0,False,1518.9000000059605,92.0,60.0,40.0,False,,285.1476325647524,[],"[768, 432]",ColorTask,52.0,104.0,,,HRV,HRV_0296,2022-11-30 21:07:15
,wl-rdm,112,331056,0.0-6.104-0.104,0.0,113.0,,,,,,,[],,,,,,50.0,0.0,i,1.0,False,1708.1000000089407,103.0,60.0,40.0,False,,267.3622784300918,[],"[768, 432]",ColorTask,51.0,105.0,,,HRV,HRV_0296,2022-11-30 21:07:15
,wl-rdm,113,333737,0.0-6.105-0.105,0.0,114.0,,,,,,,[],,,,,,53.2,0.0,i,1.0,False,1352.5999999940395,82.0,60.0,40.0,False,,239.67293448766122,[],"[768, 432]",ColorTask,50.0,106.0,,,HRV,HRV_0296,2022-11-30 21:07:15
,wl-rdm,114,336668,0.0-6.106-0.106,0.0,115.0,,,,,,,[],,,,,,62.5,0.0,u,0.0,True,1539.4999999850988,93.0,60.0,40.0,False,,315.97632292911806,[],"[768, 432]",ColorTask,51.0,107.0,,,HRV,HRV_0296,2022-11-30 21:07:15
,wl-rdm,115,339266,0.0-6.107-0.107,0.0,116.0,,,,,,,[],,,,,,50.0,0.0,i,1.0,False,1271.9000000059605,77.0,60.0,40.0,False,,246.52803916476637,[],"[768, 432]",ColorTask,50.0,108.0,,,HRV,HRV_0296,2022-11-30 21:07:15
,wl-html-keyboard-response,116,346912,0.0-7.0-0.0,1.0,117.0,,,,,,,,5627.29999999702,1.0,0,,,,,,,,,,,,,,,,,,,,,,HRV,HRV_0296,2022-11-30 21:07:15
,wl-rdm,117,349191,0.0-8.0-0.0,1.0,118.0,,,,,,,[],,,,,,87.9,1.0,i,1.0,True,995.0,60.0,60.0,40.0,False,,214.0707800600381,[],"[768, 432]",ColorTask,51.0,1.0,,,HRV,HRV_0296,2022-11-30 21:07:15
,wl-rdm,118,351655,0.0-8.1-0.1,1.0,119.0,,,,,,,[],,,,,,53.2,0.0,i,1.0,False,998.0000000149012,60.0,60.0,40.0,False,,391.2803259641003,[],"[768, 432]",ColorTask,50.0,2.0,,,HRV,HRV_0296,2022-11-30 21:07:15
,wl-rdm,119,354087,0.0-8.2-0.2,1.0,120.0,,,,,,,[],,,,,,56.4,1.0,i,1.0,True,1120.5999999940395,68.0,60.0,40.0,False,,220.100728828331,[],"[768, 432]",ColorTask,51.0,3.0,,,HRV,HRV_0296,2022-11-30 21:07:15
,wl-rdm,120,356302,0.0-8.3-0.3,1.0,121.0,,,,,,,[],,,,,,62.5,0.0,u,0.0,True,846.0999999940395,51.0,60.0,40.0,False,,293.62188061231234,[],"[768, 432]",ColorTask,52.0,4.0,,,HRV,HRV_0296,2022-11-30 21:07:15
,wl-rdm,121,358333,0.0-8.4-0.4,1.0,122.0,,,,,,,[],,,,,,87.9,1.0,i,1.0,True,736.7000000029802,45.0,60.0,40.0,False,,212.2173647056994,[],"[768, 432]",ColorTask,53.0,5.0,,,HRV,HRV_0296,2022-11-30 21:07:15
,wl-rdm,122,360881,0.0-8.5-0.5,1.0,123.0,,,,,,,[],,,,,,62.5,1.0,i,1.0,True,1152.7999999970198,70.0,60.0,40.0,False,,306.19246356854626,[],"[768, 432]",ColorTask,54.0,6.0,,,HRV,HRV_0296,2022-11-30 21:07:15
,wl-rdm,123,363830,0.0-8.6-0.6,1.0,124.0,,,,,,,[],,,,,,50.0,1.0,i,1.0,True,1554.5999999940395,94.0,60.0,40.0,False,,306.05980894898653,[],"[768, 432]",ColorTask,55.0,7.0,,,HRV,HRV_0296,2022-11-30 21:07:15
,wl-rdm,124,365944,0.0-8.7-0.7,1.0,125.0,,,,,,,[],,,,,,73.6,0.0,u,0.0,True,647.9000000059605,39.0,60.0,40.0,False,,386.2220297662842,[],"[768, 432]",ColorTask,56.0,8.0,,,HRV,HRV_0296,2022-11-30 21:07:15
,wl-rdm,125,368075,0.0-8.8-0.8,1.0,126.0,,,,,,,[],,,,,,73.6,0.0,u,0.0,True,691.5000000149012,42.0,60.0,40.0,False,,360.05551910068533,[],"[768, 432]",ColorTask,57.0,9.0,,,HRV,HRV_0296,2022-11-30 21:07:15
,wl-rdm,126,370540,0.0-8.9-0.9,1.0,127.0,,,,,,,[],,,,,,50.0,0.0,u,0.0,True,986.5,60.0,60.0,40.0,False,,378.30250803317983,[],"[768, 432]",ColorTask,58.0,10.0,,,HRV,HRV_0296,2022-11-30 21:07:15
,wl-rdm,127,373038,0.0-8.10-0.10,1.0,128.0,,,,,,,[],,,,,,50.0,1.0,u,0.0,False,1199.1000000089407,72.0,60.0,40.0,False,,227.437941691526,[],"[768, 432]",ColorTask,57.0,11.0,,,HRV,HRV_0296,2022-11-30 21:07:15
,wl-rdm,128,375503,0.0-8.11-0.11,1.0,129.0,,,,,,,[],,,,,,53.2,0.0,u,0.0,True,1119.800000011921,68.0,60.0,40.0,False,,269.76384789125285,[],"[768, 432]",ColorTask,58.0,12.0,,,HRV,HRV_0296,2022-11-30 21:07:15
,wl-rdm,129,377518,0.0-8.12-0.12,1.0,130.0,,,,,,,[],,,,,,62.5,1.0,i,1.0,True,705.8999999910593,43.0,60.0,40.0,False,,231.40392584209337,[],"[768, 432]",ColorTask,59.0,13.0,,,HRV,HRV_0296,2022-11-30 21:07:15
,wl-rdm,130,380216,0.0-8.13-0.13,1.0,131.0,,,,,,,[],,,,,,62.5,0.0,u,0.0,True,1341.7000000029802,81.0,60.0,40.0,False,,282.94913178301476,[],"[768, 432]",ColorTask,60.0,14.0,,,HRV,HRV_0296,2022-11-30 21:07:15
,wl-rdm,131,382197,0.0-8.14-0.14,1.0,132.0,,,,,,,[],,,,,,73.6,0.0,u,0.0,True,654.4999999850988,40.0,60.0,40.0,False,,248.50688143482344,[],"[768, 432]",ColorTask,61.0,15.0,,,HRV,HRV_0296,2022-11-30 21:07:15
,wl-rdm,132,385311,0.0-8.15-0.15,1.0,133.0,,,,,,,[],,,,,,50.0,1.0,i,1.0,True,1785.9000000059605,108.0,60.0,40.0,False,,241.828602228318,[],"[768, 432]",ColorTask,62.0,16.0,,,HRV,HRV_0296,2022-11-30 21:07:15
,wl-rdm,133,387876,0.0-8.16-0.16,1.0,134.0,,,,,,,[],,,,,,62.5,0.0,i,1.0,False,1269.5999999940395,77.0,60.0,40.0,False,,208.84060660093613,[],"[768, 432]",ColorTask,61.0,17.0,,,HRV,HRV_0296,2022-11-30 21:07:15
,wl-rdm,134,390474,0.0-8.17-0.17,1.0,135.0,,,,,,,[],,,,,,50.0,1.0,u,0.0,False,1193.7999999970198,72.0,60.0,40.0,False,,330.87003595929156,[],"[768, 432]",ColorTask,60.0,18.0,,,HRV,HRV_0296,2022-11-30 21:07:15
,wl-rdm,135,393255,0.0-8.18-0.18,1.0,136.0,,,,,,,[],,,,,,50.0,0.0,u,0.0,True,1430.5999999940395,86.0,60.0,40.0,False,,277.6911141812459,[],"[768, 432]",ColorTask,61.0,19.0,,,HRV,HRV_0296,2022-11-30 21:07:15
,wl-rdm,136,395453,0.0-8.19-0.19,1.0,137.0,,,,,,,[],,,,,,53.2,1.0,i,1.0,True,764.6999999880791,46.0,60.0,40.0,False,,378.99627113335976,[],"[768, 432]",ColorTask,62.0,20.0,,,HRV,HRV_0296,2022-11-30 21:07:15
,wl-rdm,137,397535,0.0-8.20-0.20,1.0,138.0,,,,,,,[],,,,,,62.5,1.0,i,1.0,True,711.5999999940395,43.0,60.0,40.0,False,,313.4281106204524,[],"[768, 432]",ColorTask,63.0,21.0,,,HRV,HRV_0296,2022-11-30 21:07:15
,wl-rdm,138,399933,0.0-8.21-0.21,1.0,139.0,,,,,,,[],,,,,,50.0,0.0,i,1.0,False,953.1999999880791,58.0,60.0,40.0,False,,359.89615962700975,[],"[768, 432]",ColorTask,62.0,22.0,,,HRV,HRV_0296,2022-11-30 21:07:15
,wl-rdm,139,402647,0.0-8.22-0.22,1.0,140.0,,,,,,,[],,,,,,53.2,1.0,u,0.0,False,1382.0999999940395,83.0,60.0,40.0,False,,261.5981482504474,[],"[768, 432]",ColorTask,61.0,23.0,,,HRV,HRV_0296,2022-11-30 21:07:15
,wl-rdm,140,404696,0.0-8.23-0.23,1.0,141.0,,,,,,,[],,,,,,56.4,1.0,i,1.0,True,749.5,45.0,60.0,40.0,False,,230.51078416048483,[],"[768, 432]",ColorTask,62.0,24.0,,,HRV,HRV_0296,2022-11-30 21:07:15
,wl-rdm,141,406661,0.0-8.24-0.24,1.0,142.0,,,,,,,[],,,,,,87.9,0.0,u,0.0,True,653.5,40.0,60.0,40.0,False,,226.31311113448396,[],"[768, 432]",ColorTask,63.0,25.0,,,HRV,HRV_0296,2022-11-30 21:07:15
,wl-rdm,142,408726,0.0-8.25-0.25,1.0,143.0,,,,,,,[],,,,,,73.6,0.0,u,0.0,True,595.9000000059605,36.0,60.0,40.0,False,,372.6929879967463,[],"[768, 432]",ColorTask,64.0,26.0,,,HRV,HRV_0296,2022-11-30 21:07:15
,wl-rdm,143,411257,0.0-8.26-0.26,1.0,144.0,,,,,,,[],,,,,,56.4,0.0,u,0.0,True,1093.0000000149012,66.0,60.0,40.0,False,,353.4469546627123,[],"[768, 432]",ColorTask,65.0,27.0,,,HRV,HRV_0296,2022-11-30 21:07:15
,wl-rdm,144,413339,0.0-8.27-0.27,1.0,145.0,,,,,,,[],,,,,,87.9,1.0,i,1.0,True,713.8999999910593,43.0,60.0,40.0,False,,284.14786328695675,[],"[768, 432]",ColorTask,66.0,28.0,,,HRV,HRV_0296,2022-11-30 21:07:15
,wl-rdm,145,415453,0.0-8.28-0.28,1.0,146.0,,,,,,,[],,,,,,50.0,1.0,i,1.0,True,742.3999999910593,45.0,60.0,40.0,False,,287.84147693087107,[],"[768, 432]",ColorTask,67.0,29.0,,,HRV,HRV_0296,2022-11-30 21:07:15
,wl-rdm,146,417518,0.0-8.29-0.29,1.0,147.0,,,,,,,[],,,,,,53.2,0.0,u,0.0,True,776.6000000089407,47.0,60.0,40.0,False,,224.68934093582786,[],"[768, 432]",ColorTask,68.0,30.0,,,HRV,HRV_0296,2022-11-30 21:07:15
,wl-rdm,147,420449,0.0-8.30-0.30,1.0,148.0,,,,,,,[],,,,,,56.4,1.0,i,1.0,True,1644.0,99.0,60.0,40.0,False,,202.16506880149942,[],"[768, 432]",ColorTask,69.0,31.0,,,HRV,HRV_0296,2022-11-30 21:07:15
,wl-rdm,148,423214,0.0-8.31-0.31,1.0,149.0,,,,,,,[],,,,,,62.5,0.0,u,0.0,True,1421.5000000149012,86.0,60.0,40.0,False,,262.3058877410219,[],"[768, 432]",ColorTask,70.0,32.0,,,HRV,HRV_0296,2022-11-30 21:07:15
,wl-rdm,149,425845,0.0-8.32-0.32,1.0,150.0,,,,,,,[],,,,,,50.0,1.0,u,0.0,False,1279.300000011921,77.0,60.0,40.0,False,,274.08821096367035,[],"[768, 432]",ColorTask,69.0,33.0,,,HRV,HRV_0296,2022-11-30 21:07:15
,wl-rdm,150,427943,0.0-8.33-0.33,1.0,151.0,,,,,,,[],,,,,,87.9,0.0,u,0.0,True,810.2999999821186,49.0,60.0,40.0,False,,201.05423934852064,[],"[768, 432]",ColorTask,70.0,34.0,,,HRV,HRV_0296,2022-11-30 21:07:15
,wl-rdm,151,430574,0.0-8.34-0.34,1.0,152.0,,,,,,,[],,,,,,53.2,0.0,i,1.0,False,1169.7999999821186,71.0,60.0,40.0,False,,367.8446313001082,[],"[768, 432]",ColorTask,69.0,35.0,,,HRV,HRV_0296,2022-11-30 21:07:15
,wl-rdm,152,432906,0.0-8.35-0.35,1.0,153.0,,,,,,,[],,,,,,87.9,1.0,i,1.0,True,862.5999999940395,52.0,60.0,40.0,False,,393.3150692197323,[],"[768, 432]",ColorTask,70.0,36.0,,,HRV,HRV_0296,2022-11-30 21:07:15
,wl-rdm,153,435853,0.0-8.36-0.36,1.0,154.0,,,,,,,[],,,,,,50.0,0.0,u,0.0,True,1569.6000000089407,95.0,60.0,40.0,False,,295.38452267942307,[],"[768, 432]",ColorTask,71.0,37.0,,,HRV,HRV_0296,2022-11-30 21:07:15
,wl-rdm,154,438601,0.0-8.37-0.37,1.0,155.0,,,,,,,[],,,,,,50.0,1.0,i,1.0,True,1440.199999988079,87.0,60.0,40.0,False,,221.98509279082538,[],"[768, 432]",ColorTask,72.0,38.0,,,HRV,HRV_0296,2022-11-30 21:07:15
,wl-rdm,155,441299,0.0-8.38-0.38,1.0,156.0,,,,,,,[],,,,,,56.4,1.0,u,0.0,False,1316.4999999850988,79.0,60.0,40.0,False,,305.78091512995525,[],"[768, 432]",ColorTask,71.0,39.0,,,HRV,HRV_0296,2022-11-30 21:07:15
,wl-rdm,156,443730,0.0-8.39-0.39,1.0,157.0,,,,,,,[],,,,,,73.6,1.0,i,1.0,True,986.3000000119209,60.0,60.0,40.0,False,,363.70765328968014,[],"[768, 432]",ColorTask,72.0,40.0,,,HRV,HRV_0296,2022-11-30 21:07:15
,wl-rdm,157,446178,0.0-8.40-0.40,1.0,158.0,,,,,,,[],,,,,,73.6,1.0,i,1.0,True,1046.4000000059605,63.0,60.0,40.0,False,,318.1965827874746,[],"[768, 432]",ColorTask,73.0,41.0,,,HRV,HRV_0296,2022-11-30 21:07:15
,wl-rdm,158,448326,0.0-8.41-0.41,1.0,159.0,,,,,,,[],,,,,,87.9,1.0,i,1.0,True,853.5000000149012,52.0,60.0,40.0,False,,202.3645581294121,[],"[768, 432]",ColorTask,74.0,42.0,,,HRV,HRV_0296,2022-11-30 21:07:15
,wl-rdm,159,451191,0.0-8.42-0.42,1.0,160.0,,,,,,,[],,,,,,50.0,1.0,i,1.0,True,1479.8999999910593,89.0,60.0,40.0,False,,307.71707658956507,[],"[768, 432]",ColorTask,75.0,43.0,,,HRV,HRV_0296,2022-11-30 21:07:15
,wl-rdm,160,453273,0.0-8.43-0.43,1.0,161.0,,,,,,,[],,,,,,73.6,1.0,i,1.0,True,787.9000000059605,48.0,60.0,40.0,False,,207.77802774638965,[],"[768, 432]",ColorTask,76.0,44.0,,,HRV,HRV_0296,2022-11-30 21:07:15
,wl-rdm,161,455554,0.0-8.44-0.44,1.0,162.0,,,,,,,[],,,,,,53.2,0.0,u,0.0,True,890.7999999970198,54.0,60.0,40.0,False,,307.2803314391274,[],"[768, 432]",ColorTask,77.0,45.0,,,HRV,HRV_0296,2022-11-30 21:07:15
,wl-rdm,162,458501,0.0-8.45-0.45,1.0,163.0,,,,,,,[],,,,,,56.4,1.0,u,0.0,False,1597.2000000029802,96.0,60.0,40.0,False,,273.9794521350607,[],"[768, 432]",ColorTask,76.0,46.0,,,HRV,HRV_0296,2022-11-30 21:07:15
,wl-rdm,163,460733,0.0-8.46-0.46,1.0,164.0,,,,,,,[],,,,,,87.9,0.0,u,0.0,True,773.0999999940395,47.0,60.0,40.0,False,,374.5035700561515,[],"[768, 432]",ColorTask,77.0,47.0,,,HRV,HRV_0296,2022-11-30 21:07:15
,wl-rdm,164,463381,0.0-8.47-0.47,1.0,165.0,,,,,,,[],,,,,,56.4,1.0,i,1.0,True,1202.5999999940395,73.0,60.0,40.0,False,,363.569769062928,[],"[768, 432]",ColorTask,78.0,48.0,,,HRV,HRV_0296,2022-11-30 21:07:15
,wl-rdm,165,466078,0.0-8.48-0.48,1.0,166.0,,,,,,,[],,,,,,56.4,0.0,i,1.0,False,1404.300000011921,85.0,60.0,40.0,False,,216.25082669808353,[],"[768, 432]",ColorTask,77.0,49.0,,,HRV,HRV_0296,2022-11-30 21:07:15
,wl-rdm,166,468510,0.0-8.49-0.49,1.0,167.0,,,,,,,[],,,,,,50.0,0.0,i,1.0,False,1002.7000000029802,61.0,60.0,40.0,False,,339.2203755861939,[],"[768, 432]",ColorTask,76.0,50.0,,,HRV,HRV_0296,2022-11-30 21:07:15
,wl-rdm,167,470508,0.0-8.50-0.50,1.0,168.0,,,,,,,[],,,,,,62.5,0.0,u,0.0,True,681.0,41.0,60.0,40.0,False,,238.65268893004375,[],"[768, 432]",ColorTask,77.0,51.0,,,HRV,HRV_0296,2022-11-30 21:07:15
,wl-rdm,168,472823,0.0-8.51-0.51,1.0,169.0,,,,,,,[],,,,,,73.6,1.0,i,1.0,True,1029.0000000149012,62.0,60.0,40.0,False,,209.56145476402037,[],"[768, 432]",ColorTask,78.0,52.0,,,HRV,HRV_0296,2022-11-30 21:07:15
,wl-rdm,169,474988,0.0-8.52-0.52,1.0,170.0,,,,,,,[],,,,,,62.5,1.0,i,1.0,True,753.7999999970198,46.0,60.0,40.0,False,,328.5797982111267,[],"[768, 432]",ColorTask,79.0,53.0,,,HRV,HRV_0296,2022-11-30 21:07:15
,wl-rdm,170,477236,0.0-8.53-0.53,1.0,171.0,,,,,,,[],,,,,,50.0,0.0,u,0.0,True,947.0,57.0,60.0,40.0,False,,229.28449679921178,[],"[768, 432]",ColorTask,80.0,54.0,,,HRV,HRV_0296,2022-11-30 21:07:15
,wl-rdm,171,479401,0.0-8.54-0.54,1.0,172.0,,,,,,,[],,,,,,73.6,0.0,u,0.0,True,762.3000000119209,46.0,60.0,40.0,False,,330.8543575310881,[],"[768, 432]",ColorTask,81.0,55.0,,,HRV,HRV_0296,2022-11-30 21:07:15
,wl-rdm,172,481766,0.0-8.55-0.55,1.0,173.0,,,,,,,[],,,,,,56.4,0.0,u,0.0,True,1043.2000000029802,63.0,60.0,40.0,False,,239.02780159815345,[],"[768, 432]",ColorTask,82.0,56.0,,,HRV,HRV_0296,2022-11-30 21:07:15
,wl-rdm,173,484081,0.0-8.56-0.56,1.0,174.0,,,,,,,[],,,,,,87.9,0.0,u,0.0,True,920.5999999940395,56.0,60.0,40.0,False,,311.2235342197512,[],"[768, 432]",ColorTask,83.0,57.0,,,HRV,HRV_0296,2022-11-30 21:07:15
,wl-rdm,174,486445,0.0-8.57-0.57,1.0,175.0,,,,,,,[],,,,,,73.6,0.0,u,0.0,True,923.0999999940395,56.0,60.0,40.0,False,,361.3741215957167,[],"[768, 432]",ColorTask,84.0,58.0,,,HRV,HRV_0296,2022-11-30 21:07:15
,wl-rdm,175,488760,0.0-8.58-0.58,1.0,176.0,,,,,,,[],,,,,,62.5,1.0,i,1.0,True,1029.6000000089407,62.0,60.0,40.0,False,,210.05995736564014,[],"[768, 432]",ColorTask,85.0,59.0,,,HRV,HRV_0296,2022-11-30 21:07:15
,wl-rdm,176,491191,0.0-8.59-0.59,1.0,177.0,,,,,,,[],,,,,,87.9,1.0,i,1.0,True,1047.2000000029802,63.0,60.0,40.0,False,,309.75943987205585,[],"[768, 432]",ColorTask,86.0,60.0,,,HRV,HRV_0296,2022-11-30 21:07:15
,wl-rdm,177,493822,0.0-8.60-0.60,1.0,178.0,,,,,,,[],,,,,,62.5,1.0,i,1.0,True,1220.5,74.0,60.0,40.0,False,,318.2278131963904,[],"[768, 432]",ColorTask,87.0,61.0,,,HRV,HRV_0296,2022-11-30 21:07:15
,wl-rdm,178,496437,0.0-8.61-0.61,1.0,179.0,,,,,,,[],,,,,,50.0,0.0,u,0.0,True,1153.0,70.0,60.0,40.0,False,,376.81431860065095,[],"[768, 432]",ColorTask,88.0,62.0,,,HRV,HRV_0296,2022-11-30 21:07:15
,wl-rdm,179,499185,0.0-8.62-0.62,1.0,180.0,,,,,,,[],,,,,,62.5,1.0,i,1.0,True,1365.8999999910593,82.0,60.0,40.0,False,,305.04028983217563,[],"[768, 432]",ColorTask,89.0,63.0,,,HRV,HRV_0296,2022-11-30 21:07:15
,wl-rdm,180,501666,0.0-8.63-0.63,1.0,181.0,,,,,,,[],,,,,,87.9,0.0,u,0.0,True,1121.0000000149012,68.0,60.0,40.0,False,,276.7434667721025,[],"[768, 432]",ColorTask,90.0,64.0,,,HRV,HRV_0296,2022-11-30 21:07:15
,wl-rdm,181,504031,0.0-8.64-0.64,1.0,182.0,,,,,,,[],,,,,,87.9,1.0,i,1.0,True,1030.5,62.0,60.0,40.0,False,,259.9840836075021,[],"[768, 432]",ColorTask,91.0,65.0,,,HRV,HRV_0296,2022-11-30 21:07:15
,wl-rdm,182,506279,0.0-8.65-0.65,1.0,183.0,,,,,,,[],,,,,,73.6,0.0,u,0.0,True,787.6000000089407,48.0,60.0,40.0,False,,369.7352350509449,[],"[768, 432]",ColorTask,92.0,66.0,,,HRV,HRV_0296,2022-11-30 21:07:15
,wl-rdm,183,508943,0.0-8.66-0.66,1.0,184.0,,,,,,,[],,,,,,56.4,0.0,u,0.0,True,1219.7999999970198,74.0,60.0,40.0,False,,364.2624327560461,[],"[768, 432]",ColorTask,93.0,67.0,,,HRV,HRV_0296,2022-11-30 21:07:15
,wl-rdm,184,511375,0.0-8.67-0.67,1.0,185.0,,,,,,,[],,,,,,56.4,1.0,i,1.0,True,1011.7999999970198,61.0,60.0,40.0,False,,343.17576141601194,[],"[768, 432]",ColorTask,94.0,68.0,,,HRV,HRV_0296,2022-11-30 21:07:15
,wl-rdm,185,513639,0.0-8.68-0.68,1.0,186.0,,,,,,,[],,,,,,56.4,0.0,u,0.0,True,936.5,57.0,60.0,40.0,False,,238.36280753065392,[],"[768, 432]",ColorTask,95.0,69.0,,,HRV,HRV_0296,2022-11-30 21:07:15
,wl-rdm,186,516104,0.0-8.69-0.69,1.0,187.0,,,,,,,[],,,,,,62.5,0.0,u,0.0,True,1152.300000011921,70.0,60.0,40.0,False,,226.5838805615041,[],"[768, 432]",ColorTask,96.0,70.0,,,HRV,HRV_0296,2022-11-30 21:07:15
,wl-rdm,187,518402,0.0-8.70-0.70,1.0,188.0,,,,,,,[],,,,,,73.6,1.0,i,1.0,True,1006.0999999940395,61.0,60.0,40.0,False,,202.07578436445357,[],"[768, 432]",ColorTask,97.0,71.0,,,HRV,HRV_0296,2022-11-30 21:07:15
,wl-rdm,188,520650,0.0-8.71-0.71,1.0,189.0,,,,,,,[],,,,,,87.9,0.0,u,0.0,True,932.2999999970198,56.0,60.0,40.0,False,,235.80544801112455,[],"[768, 432]",ColorTask,98.0,72.0,,,HRV,HRV_0296,2022-11-30 21:07:15
,wl-rdm,189,522982,0.0-8.72-0.72,1.0,190.0,,,,,,,[],,,,,,73.6,0.0,u,0.0,True,962.0999999940395,58.0,60.0,40.0,False,,289.310702892668,[],"[768, 432]",ColorTask,99.0,73.0,,,HRV,HRV_0296,2022-11-30 21:07:15
,wl-rdm,190,525763,0.0-8.73-0.73,1.0,191.0,,,,,,,[],,,,,,56.4,1.0,i,1.0,True,1369.2000000029802,83.0,60.0,40.0,False,,324.0508563841505,[],"[768, 432]",ColorTask,100.0,74.0,,,HRV,HRV_0296,2022-11-30 21:07:15
,wl-rdm,191,528327,0.0-8.74-0.74,1.0,192.0,,,,,,,[],,,,,,73.6,1.0,i,1.0,True,1227.800000011921,74.0,60.0,40.0,False,,255.09469645328056,[],"[768, 432]",ColorTask,101.0,75.0,,,HRV,HRV_0296,2022-11-30 21:07:15
,wl-rdm,192,530908,0.0-8.75-0.75,1.0,193.0,,,,,,,[],,,,,,62.5,0.0,u,0.0,True,1102.2999999821186,67.0,60.0,40.0,False,,389.17578441794717,[],"[768, 432]",ColorTask,102.0,76.0,,,HRV,HRV_0296,2022-11-30 21:07:15
,wl-rdm,193,533723,0.0-8.76-0.76,1.0,194.0,,,,,,,[],,,,,,62.5,1.0,i,1.0,True,1475.7999999970198,89.0,60.0,40.0,False,,261.95625623682656,[],"[768, 432]",ColorTask,103.0,77.0,,,HRV,HRV_0296,2022-11-30 21:07:15
,wl-rdm,194,536204,0.0-8.77-0.77,1.0,195.0,,,,,,,[],,,,,,62.5,1.0,i,1.0,True,1154.6000000089407,70.0,60.0,40.0,False,,239.07400403676354,[],"[768, 432]",ColorTask,104.0,78.0,,,HRV,HRV_0296,2022-11-30 21:07:15
,wl-rdm,195,538569,0.0-8.78-0.78,1.0,196.0,,,,,,,[],,,,,,73.6,1.0,i,1.0,True,1080.300000011921,65.0,60.0,40.0,False,,213.7412245425114,[],"[768, 432]",ColorTask,105.0,79.0,,,HRV,HRV_0296,2022-11-30 21:07:15
,wl-rdm,196,541067,0.0-8.79-0.79,1.0,197.0,,,,,,,[],,,,,,53.2,1.0,i,1.0,True,1177.0999999940395,71.0,60.0,40.0,False,,238.73687053619005,[],"[768, 432]",ColorTask,106.0,80.0,,,HRV,HRV_0296,2022-11-30 21:07:15
,wl-rdm,197,543298,0.0-8.80-0.80,1.0,198.0,,,,,,,[],,,,,,87.9,1.0,i,1.0,True,836.4999999850988,51.0,60.0,40.0,False,,310.73441089644916,[],"[768, 432]",ColorTask,107.0,81.0,,,HRV,HRV_0296,2022-11-30 21:07:15
,wl-rdm,198,545629,0.0-8.81-0.81,1.0,199.0,,,,,,,[],,,,,,53.2,1.0,i,1.0,True,864.8999999761581,53.0,60.0,40.0,False,,373.3302400893712,[],"[768, 432]",ColorTask,108.0,82.0,,,HRV,HRV_0296,2022-11-30 21:07:15
,wl-rdm,199,548061,0.0-8.82-0.82,1.0,200.0,,,,,,,[],,,,,,56.4,0.0,u,0.0,True,970.0999999940395,59.0,60.0,40.0,False,,381.87775898594396,[],"[768, 432]",ColorTask,109.0,83.0,,,HRV,HRV_0296,2022-11-30 21:07:15
,wl-rdm,200,550442,0.0-8.83-0.83,1.0,201.0,,,,,,,[],,,,,,53.2,0.0,u,0.0,True,994.2999999970198,60.0,60.0,40.0,False,,307.05109743606255,[],"[768, 432]",ColorTask,110.0,84.0,,,HRV,HRV_0296,2022-11-30 21:07:15
,wl-rdm,201,552757,0.0-8.84-0.84,1.0,202.0,,,,,,,[],,,,,,50.0,1.0,i,1.0,True,955.0999999940395,58.0,60.0,40.0,False,,275.8564202689918,[],"[768, 432]",ColorTask,111.0,85.0,,,HRV,HRV_0296,2022-11-30 21:07:15
,wl-rdm,202,555388,0.0-8.85-0.85,1.0,203.0,,,,,,,[],,,,,,53.2,0.0,u,0.0,True,1236.199999988079,75.0,60.0,40.0,False,,307.2819599157509,[],"[768, 432]",ColorTask,112.0,86.0,,,HRV,HRV_0296,2022-11-30 21:07:15
,wl-rdm,203,557503,0.0-8.86-0.86,1.0,204.0,,,,,,,[],,,,,,87.9,0.0,u,0.0,True,776.6999999880791,47.0,60.0,40.0,False,,250.07842129337027,[],"[768, 432]",ColorTask,113.0,87.0,,,HRV,HRV_0296,2022-11-30 21:07:15
,wl-rdm,204,560484,0.0-8.87-0.87,1.0,205.0,,,,,,,[],,,,,,50.0,0.0,u,0.0,True,1508.4000000059605,90.0,60.0,40.0,False,,396.73707550393294,[],"[768, 432]",ColorTask,114.0,88.0,,,HRV,HRV_0296,2022-11-30 21:07:15
,wl-rdm,205,562732,0.0-8.88-0.88,1.0,206.0,,,,,,,[],,,,,,53.2,1.0,i,1.0,True,948.7000000029802,57.0,60.0,40.0,False,,221.29382660628923,[],"[768, 432]",ColorTask,115.0,89.0,,,HRV,HRV_0296,2022-11-30 21:07:15
,wl-rdm,206,564997,0.0-8.89-0.89,1.0,207.0,,,,,,,[],,,,,,56.4,1.0,i,1.0,True,841.4000000059605,51.0,60.0,40.0,False,,339.3930556016471,[],"[768, 432]",ColorTask,116.0,90.0,,,HRV,HRV_0296,2022-11-30 21:07:15
,wl-rdm,207,567245,0.0-8.90-0.90,1.0,208.0,,,,,,,[],,,,,,62.5,0.0,i,1.0,False,786.2999999970198,48.0,60.0,40.0,False,,369.3795652339154,[],"[768, 432]",ColorTask,115.0,91.0,,,HRV,HRV_0296,2022-11-30 21:07:15
,wl-rdm,208,569376,0.0-8.91-0.91,1.0,209.0,,,,,,,[],,,,,,87.9,0.0,u,0.0,True,737.0999999940395,45.0,60.0,40.0,False,,299.8252449275975,[],"[768, 432]",ColorTask,116.0,92.0,,,HRV,HRV_0296,2022-11-30 21:07:15
,wl-rdm,209,571774,0.0-8.92-0.92,1.0,210.0,,,,,,,[],,,,,,53.2,0.0,u,0.0,True,1037.5,63.0,60.0,40.0,False,,282.1229742886207,[],"[768, 432]",ColorTask,117.0,93.0,,,HRV,HRV_0296,2022-11-30 21:07:15
,wl-rdm,210,574089,0.0-8.93-0.93,1.0,211.0,,,,,,,[],,,,,,62.5,0.0,u,0.0,True,925.6000000089407,56.0,60.0,40.0,False,,300.80648586426776,[],"[768, 432]",ColorTask,118.0,94.0,,,HRV,HRV_0296,2022-11-30 21:07:15
,wl-rdm,211,576371,0.0-8.94-0.94,1.0,212.0,,,,,,,[],,,,,,56.4,0.0,u,0.0,True,924.6999999880791,56.0,60.0,40.0,False,,267.6205898813783,[],"[768, 432]",ColorTask,119.0,95.0,,,HRV,HRV_0296,2022-11-30 21:07:15
,wl-rdm,212,578552,0.0-8.95-0.95,1.0,213.0,,,,,,,[],,,,,,73.6,0.0,u,0.0,True,853.0999999940395,52.0,60.0,40.0,False,,236.5696910022878,[],"[768, 432]",ColorTask,120.0,96.0,,,HRV,HRV_0296,2022-11-30 21:07:15
,wl-rdm,213,581450,0.0-8.96-0.96,1.0,214.0,,,,,,,[],,,,,,53.2,1.0,i,1.0,True,1486.7000000029802,90.0,60.0,40.0,False,,328.39755406965065,[],"[768, 432]",ColorTask,121.0,97.0,,,HRV,HRV_0296,2022-11-30 21:07:15
,wl-rdm,214,583881,0.0-8.97-0.97,1.0,215.0,,,,,,,[],,,,,,53.2,0.0,i,1.0,False,1042.2000000178814,63.0,60.0,40.0,False,,309.0278313681017,[],"[768, 432]",ColorTask,120.0,98.0,,,HRV,HRV_0296,2022-11-30 21:07:15
,wl-rdm,215,586479,0.0-8.98-0.98,1.0,216.0,,,,,,,[],,,,,,56.4,0.0,i,1.0,False,1136.300000011921,69.0,60.0,40.0,False,,368.72179007536135,[],"[768, 432]",ColorTask,119.0,99.0,,,HRV,HRV_0296,2022-11-30 21:07:15
,wl-rdm,216,589027,0.0-8.99-0.99,1.0,217.0,,,,,,,[],,,,,,73.6,1.0,i,1.0,True,1193.8999999910593,72.0,60.0,40.0,False,,276.67371105158963,[],"[768, 432]",ColorTask,120.0,100.0,,,HRV,HRV_0296,2022-11-30 21:07:15
,wl-rdm,217,591592,0.0-8.100-0.100,1.0,218.0,,,,,,,[],,,,,,73.6,1.0,i,1.0,True,1120.699999988079,68.0,60.0,40.0,False,,357.9346358060746,[],"[768, 432]",ColorTask,121.0,101.0,,,HRV,HRV_0296,2022-11-30 21:07:15
,wl-rdm,218,593790,0.0-8.101-0.101,1.0,219.0,,,,,,,[],,,,,,87.9,0.0,u,0.0,True,893.1000000089407,54.0,60.0,40.0,False,,220.74167053852602,[],"[768, 432]",ColorTask,122.0,102.0,,,HRV,HRV_0296,2022-11-30 21:07:15
,wl-rdm,219,596954,0.0-8.102-0.102,1.0,220.0,,,,,,,[],,,,,,50.0,0.0,i,1.0,False,1729.9000000059605,104.0,60.0,40.0,False,,354.70793100928336,[],"[768, 432]",ColorTask,121.0,103.0,,,HRV,HRV_0296,2022-11-30 21:07:15
,wl-rdm,220,599169,0.0-8.103-0.103,1.0,221.0,,,,,,,[],,,,,,56.4,0.0,u,0.0,True,932.2999999970198,56.0,60.0,40.0,False,,211.55435556712814,[],"[768, 432]",ColorTask,122.0,104.0,,,HRV,HRV_0296,2022-11-30 21:07:15
,wl-rdm,221,601684,0.0-8.104-0.104,1.0,222.0,,,,,,,[],,,,,,53.2,1.0,u,0.0,False,1052.9999999850988,64.0,60.0,40.0,False,,366.82095867754947,[],"[768, 432]",ColorTask,121.0,105.0,,,HRV,HRV_0296,2022-11-30 21:07:15
,wl-rdm,222,603715,0.0-8.105-0.105,1.0,223.0,,,,,,,[],,,,,,87.9,1.0,i,1.0,True,663.7000000029802,40.0,60.0,40.0,False,,294.4748461564753,[],"[768, 432]",ColorTask,122.0,106.0,,,HRV,HRV_0296,2022-11-30 21:07:15
,wl-rdm,223,606313,0.0-8.106-0.106,1.0,224.0,,,,,,,[],,,,,,53.2,1.0,i,1.0,True,1239.300000011921,75.0,60.0,40.0,False,,268.89221625126424,[],"[768, 432]",ColorTask,123.0,107.0,,,HRV,HRV_0296,2022-11-30 21:07:15
,wl-rdm,224,608962,0.0-8.107-0.107,1.0,225.0,,,,,,,[],,,,,,53.2,1.0,u,0.0,False,1297.3999999910593,78.0,60.0,40.0,False,,270.4622402281402,[],"[768, 432]",ColorTask,122.0,108.0,,,HRV,HRV_0296,2022-11-30 21:07:15
,wl-html-button-response,225,613347,0.0-9.0-0.0,,,,,,,,,,4376.9000000059605,,0,,,,,,,,,,,,,,,,,,,,<h3>End of this session. Thank you!</h3><br>,['Close window'],HRV,HRV_0296,2022-11-30 21:07:15
