success,trial_type,trial_index,time_elapsed,internal_node_id,Block,TrialNumber,TrialTime,trialTimeDiff,FPS_avg,FPS_med,FPS_mode,TrialDur,winResizeTime,rt,block,button_pressed,MotCoh,MotDir,ColCoh,Color,ChoiceKey,Choice,Accuracy,RT,nFrames,FPS,PPD,missTrial,missTrialMsg,onsetDelay,fullScreenExitTime,canvCenter,TrialType,Score,BlockTrial,stimulus,button_labels,exp,subjectId,date
True,fullscreen,0,1740,0.0-0.0,0.0,1.0,,,,,,,,,,,,,,,,,,,,,,,,,,,,,,,,HRV,HRV_0305,2022-11-30 21:44:24
,wl-check-fps,1,6742,0.0-1.0,0.0,2.0,"[2031.8, 2047.4, 2064.4, 2080.3, 2098.3, 2115, 2130.2, 2147.2, 2164.3, 2180.1, 2197.4, 2214.4, 2230.2, 2248.6, 2264, 2281, 2300.2, 2313.7, 2330.9, 2348.8, 2363.9, 2381.8, 2397.8, 2413.9, 2431.8, 2447.8, 2463.5, 2480.5, 2496.6, 2514.7, 2530.5, 2546.5, 2564.8, 2581.6, 2596.7, 2613.6, 2630.6, 2646.7, 2663.6, 2680.8, 2697.9, 2714.8, 2729.8, 2746.8, 2763.7, 2780.2, 2796.8, 2813.7, 2831, 2848, 2864.9, 2881.1, 2897.3, 2913.4, 2931.3, 2948.3, 2963.4, 2980.8, 2998.3, 3013.4, 3031.5, 3046.9, 3064.5, 3080.5, 3096.6, 3114.5, 3130.7, 3146.1, 3163.1, 3180.2, 3195.9, 3213.1, 3230, 3246.1, 3263.1, 3280.1, 3296.2, 3313.1, 3329.3, 3346.1, 3363.1, 3379.3, 3396.3, 3414.4, 3429.3, 3446.2, 3463.2, 3479.3, 3496.3, 3513.2, 3530.4, 3547.4, 3562.4, 3579.4, 3596.4, 3612.3, 3629.5, 3647.4, 3662.4, 3680.5, 3697.4, 3712.4, 3730.5, 3745.6, 3762.5, 3779.6, 3795.5, 3812.5, 3829.5, 3845.5, 3862.5, 3880.5, 3895.5, 3912.5, 3929.6, 3946.7, 3963.7, 3978.7, 3995.6, 4013.7, 4028.7, 4045.7, 4063.7, 4078.7, 4095.7, 4112.6, 4128.9, 4146.9, 4162, 4178.8, 4195.8, 4211.9, 4229.2, 4246.9, 4261.8, 4278.9, 4296.9, 4311.8, 4330.1, 4346.9, 4361.9, 4378.9, 4395, 4412, 4428.9, 4444.9, 4463.1, 4479, 4495, 4513.1, 4530.1, 4545, 4562, 4578.2, 4595, 4612.3, 4628.1, 4645.4, 4663.2, 4678.1, 4695.1, 4712.1, 4729.6, 4745.2, 4763.2, 4778.2, 4796.3, 4811.2, 4828.2, 4845.2, 4861.3, 4878.3, 4895.2, 4911.2, 4929.5, 4946.3, 4961.3, 4979.5, 4994.5, 5011.3, 5028.4, 5044.4, 5061.3, 5079.5, 5094.4, 5111.4, 5128.4, 5145.5, 5161.4, 5179.6, 5194.5, 5212.7, 5229.7, 5244.5, 5261.4, 5277.6, 5294.5, 5311.6, 5327.6, 5344.5, 5361.6, 5378.8, 5395.8, 5410.8, 5427.6, 5444.6, 5460.7, 5478.8, 5495.8, 5510.7, 5527.7, 5545.8, 5560.7, 5578.9, 5593.9, 5610.7, 5627.8, 5643.8, 5661, 5677.4, 5695.1, 5710.5, 5728.4, 5744, 5761.1, 5779.1, 5794.3, 5811.2, 5828.6, 5844.1, 5861.2, 5877.2, 5895.3, 5911.1, 5927.1, 5945.3, 5961.3, 5977.1, 5995.2, 6012.2, 6028.5, 6044.4, 6060.3, 6077.5, 6095.4, 6110.3, 6127.3, 6145.3, 6160.4, 6177.3, 6195.3, 6210.4, 6227.6, 6243.7, 6260.4, 6278.6, 6293.5, 6311.6, 6327, 6344, 6360.3, 6378.2, 6394.3, 6411.3, 6426.5, 6443.3, 6460.8, 6477.5, 6494.4, 6511.3, 6526.5, 6543.4, 6561.5, 6576.4, 6593.6, 6611.5, 6626.4, 6643.7, 6661, 6677.5, 6694.5, 6709.7, 6726.5, 6743.7, 6760.7, 6777.5, 6794.6, 6810.7, 6827.6, 6844.6, 6860.7, 6876.9, 6892.8, 6910.7, 6927.6, 6942.8, 6959.8, 6976.9, 6992.7, 7009.8]","[2.4, 15.6, 17, 15.9, 18, 16.7, 15.2, 17, 17.1, 15.8, 17.3, 17, 15.8, 18.4, 15.4, 17, 19.2, 13.5, 17.2, 17.9, 15.1, 17.9, 16, 16.1, 17.9, 16, 15.7, 17, 16.1, 18.1, 15.8, 16, 18.3, 16.8, 15.1, 16.9, 17, 16.1, 16.9, 17.2, 17.1, 16.9, 15, 17, 16.9, 16.5, 16.6, 16.9, 17.3, 17, 16.9, 16.2, 16.2, 16.1, 17.9, 17, 15.1, 17.4, 17.5, 15.1, 18.1, 15.4, 17.6, 16, 16.1, 17.9, 16.2, 15.4, 17, 17.1, 15.7, 17.2, 16.9, 16.1, 17, 17, 16.1, 16.9, 16.2, 16.8, 17, 16.2, 17, 18.1, 14.9, 16.9, 17, 16.1, 17, 16.9, 17.2, 17, 15, 17, 17, 15.9, 17.2, 17.9, 15, 18.1, 16.9, 15, 18.1, 15.1, 16.9, 17.1, 15.9, 17, 17, 16, 17, 18, 15, 17, 17.1, 17.1, 17, 15, 16.9, 18.1, 15, 17, 18, 15, 17, 16.9, 16.3, 18, 15.1, 16.8, 17, 16.1, 17.3, 17.7, 14.9, 17.1, 18, 14.9, 18.3, 16.8, 15, 17, 16.1, 17, 16.9, 16, 18.2, 15.9, 16, 18.1, 17, 14.9, 17, 16.2, 16.8, 17.3, 15.8, 17.3, 17.8, 14.9, 17, 17, 17.5, 15.6, 18, 15, 18.1, 14.9, 17, 17, 16.1, 17, 16.9, 16, 18.3, 16.8, 15, 18.2, 15, 16.8, 17.1, 16, 16.9, 18.2, 14.9, 17, 17, 17.1, 15.9, 18.2, 14.9, 18.2, 17, 14.8, 16.9, 16.2, 16.9, 17.1, 16, 16.9, 17.1, 17.2, 17, 15, 16.8, 17, 16.1, 18.1, 17, 14.9, 17, 18.1, 14.9, 18.2, 15, 16.8, 17.1, 16, 17.2, 16.4, 17.7, 15.4, 17.9, 15.6, 17.1, 18, 15.2, 16.9, 17.4, 15.5, 17.1, 16, 18.1, 15.8, 16, 18.2, 16, 15.8, 18.1, 17, 16.3, 15.9, 15.9, 17.2, 17.9, 14.9, 17, 18, 15.1, 16.9, 18, 15.1, 17.2, 16.1, 16.7, 18.2, 14.9, 18.1, 15.4, 17, 16.3, 17.9, 16.1, 17, 15.2, 16.8, 17.5, 16.7, 16.9, 16.9, 15.2, 16.9, 18.1, 14.9, 17.2, 17.9, 14.9, 17.3, 17.3, 16.5, 17, 15.2, 16.8, 17.2, 17, 16.8, 17.1, 16.1, 16.9, 17, 16.1, 16.2, 15.9, 17.9, 16.9, 15.2, 17, 17.1, 15.8, 17.1]",60.0,57.0,59.0,4998.4,[],,,,,,,,,,,,,,,,,,,,,,,,,HRV,HRV_0305,2022-11-30 21:44:24
,wl-html-keyboard-response,2,40068,0.0-2.0-0.0,0.0,3.0,,,,,,,,31311.69999998808,0.0,0,,,,,,,,,,,,,,,,,,,,,,HRV,HRV_0305,2022-11-30 21:44:24
,wl-rdm,3,46972,0.0-3.0-0.0,0.0,4.0,,,,,,,[],,,,0.0,0.0,87.9,0.0,u,0.0,True,1285.800000011921,78.0,59.0,40.0,False,,3000.0,[],"[640, 400]",ColorTask_Demo,,,,,HRV,HRV_0305,2022-11-30 21:44:24
,wl-rdm,4,51784,0.0-3.0-1.0,0.0,5.0,,,,,,,[],,,,0.0,0.0,87.9,1.0,i,1.0,True,703.6000000238419,43.0,59.0,40.0,False,,2000.0,[],"[640, 400]",ColorTask_Demo,,,,,HRV,HRV_0305,2022-11-30 21:44:24
,wl-html-keyboard-response,5,62084,0.0-3.0-2.0,0.0,6.0,,,,,,,,8293.300000011921,0.0,1,,,,,,,,,,,,,,,,,,,,,,HRV,HRV_0305,2022-11-30 21:44:24
,wl-html-keyboard-response,6,71582,0.0-4.0-0.0,0.0,7.0,,,,,,,,7486.0,0.0,0,,,,,,,,,,,,,,,,,,,,,,HRV,HRV_0305,2022-11-30 21:44:24
,wl-html-keyboard-response,7,80950,0.0-5.0-0.0,0.0,8.0,,,,,,,,7359.9000000059605,0.0,0,,,,,,,,,,,,,,,,,,,,,,HRV,HRV_0305,2022-11-30 21:44:24
,wl-rdm,8,83207,0.0-6.0-0.0,0.0,9.0,,,,,,,[],,,,,,50.0,0.0,u,0.0,True,926.0,56.0,59.0,40.0,False,,245.8680681893241,[],"[640, 400]",ColorTask,1.0,1.0,,,HRV,HRV_0305,2022-11-30 21:44:24
,wl-rdm,9,85456,0.0-6.1-0.1,0.0,10.0,,,,,,,[],,,,,,73.6,1.0,i,1.0,True,838.5999999940395,51.0,59.0,40.0,False,,325.031857641058,[],"[640, 400]",ColorTask,2.0,2.0,,,HRV,HRV_0305,2022-11-30 21:44:24
,wl-rdm,10,88004,0.0-6.2-0.2,0.0,11.0,,,,,,,[],,,,,,62.5,1.0,i,1.0,True,1135.5000000298023,69.0,59.0,40.0,False,,330.5978586661033,[],"[640, 400]",ColorTask,3.0,3.0,,,HRV,HRV_0305,2022-11-30 21:44:24
,wl-rdm,11,90301,0.0-6.3-0.3,0.0,12.0,,,,,,,[],,,,,,73.6,0.0,u,0.0,True,886.1999999880791,54.0,59.0,40.0,False,,327.71775258893285,[],"[640, 400]",ColorTask,4.0,4.0,,,HRV,HRV_0305,2022-11-30 21:44:24
,wl-rdm,12,92700,0.0-6.4-0.4,0.0,13.0,,,,,,,[],,,,,,50.0,1.0,u,0.0,False,1061.2000000178814,63.0,59.0,40.0,False,,271.316992017598,[],"[640, 400]",ColorTask,3.0,5.0,,,HRV,HRV_0305,2022-11-30 21:44:24
,wl-rdm,13,95181,0.0-6.5-0.5,0.0,14.0,,,,,,,[],,,,,,53.2,1.0,i,1.0,True,1178.699999988079,71.0,59.0,40.0,False,,227.37587831161332,[],"[640, 400]",ColorTask,4.0,6.0,,,HRV,HRV_0305,2022-11-30 21:44:24
,wl-rdm,14,97596,0.0-6.6-0.6,0.0,15.0,,,,,,,[],,,,,,62.5,0.0,u,0.0,True,1029.4000000357628,62.0,59.0,40.0,False,,301.9392732526427,[],"[640, 400]",ColorTask,5.0,7.0,,,HRV,HRV_0305,2022-11-30 21:44:24
,wl-rdm,15,99230,0.0-6.7-0.7,0.0,15.0,,,,,,,[1632.0999999940395],,,,,,53.2,0.0,,,,,51.0,59.0,40.0,True,exitFullScreen exitFullScreen blurEvent ,233.06184785413103,[],"[640, 400]",ColorTask,4.0,8.0,,,HRV,HRV_0305,2022-11-30 21:44:24
,wl-rdm,16,102646,0.0-6.8-0.8,0.0,15.0,,,,,,,[],,,,,,87.9,0.0,,,,,0.0,59.0,40.0,True,enterFullScreen ,302.5406211247358,[],"[None, None]",ColorTask,3.0,9.0,,,HRV,HRV_0305,2022-11-30 21:44:24
,wl-rdm,17,104971,0.0-6.9-0.9,0.0,16.0,,,,,,,[],,,,,,62.5,0.0,u,0.0,True,988.2999999821186,60.0,59.0,40.0,False,,238.14136683562504,[],"[640, 400]",ColorTask,4.0,10.0,,,HRV,HRV_0305,2022-11-30 21:44:24
,wl-rdm,18,106953,0.0-6.10-0.10,0.0,17.0,,,,,,,[],,,,,,73.6,1.0,i,1.0,True,660.7000000178814,40.0,59.0,40.0,False,,261.5456266991853,[],"[640, 400]",ColorTask,5.0,11.0,,,HRV,HRV_0305,2022-11-30 21:44:24
,wl-rdm,19,109135,0.0-6.11-0.11,0.0,18.0,,,,,,,[],,,,,,56.4,0.0,u,0.0,True,896.2000000178814,54.0,59.0,40.0,False,,225.2404869401659,[],"[640, 400]",ColorTask,6.0,12.0,,,HRV,HRV_0305,2022-11-30 21:44:24
,wl-rdm,20,111582,0.0-6.12-0.12,0.0,19.0,,,,,,,[],,,,,,50.0,0.0,u,0.0,True,1035.0999999940395,63.0,59.0,40.0,False,,329.38291834473944,[],"[640, 400]",ColorTask,7.0,13.0,,,HRV,HRV_0305,2022-11-30 21:44:24
,wl-rdm,21,113882,0.0-6.13-0.13,0.0,20.0,,,,,,,[],,,,,,56.4,0.0,u,0.0,True,989.7000000178814,60.0,59.0,40.0,False,,218.40016503748978,[],"[640, 400]",ColorTask,8.0,14.0,,,HRV,HRV_0305,2022-11-30 21:44:24
,wl-rdm,22,116211,0.0-6.14-0.14,0.0,21.0,,,,,,,[],,,,,,56.4,0.0,u,0.0,True,979.4000000059605,58.0,59.0,40.0,False,,268.84235523533295,[],"[640, 400]",ColorTask,9.0,15.0,,,HRV,HRV_0305,2022-11-30 21:44:24
,wl-rdm,23,118210,0.0-6.15-0.15,0.0,22.0,,,,,,,[],,,,,,62.5,1.0,i,1.0,True,707.0999999940395,43.0,59.0,40.0,False,,208.59373182673525,[],"[640, 400]",ColorTask,10.0,16.0,,,HRV,HRV_0305,2022-11-30 21:44:24
,wl-rdm,24,120609,0.0-6.16-0.16,0.0,23.0,,,,,,,[],,,,,,56.4,1.0,u,0.0,False,1008.7999999821186,61.0,59.0,40.0,False,,310.94018678809636,[],"[640, 400]",ColorTask,9.0,17.0,,,HRV,HRV_0305,2022-11-30 21:44:24
,wl-rdm,25,122874,0.0-6.17-0.17,0.0,24.0,,,,,,,[],,,,,,56.4,1.0,i,1.0,True,953.0999999940395,58.0,59.0,40.0,False,,225.663127707785,[],"[640, 400]",ColorTask,10.0,18.0,,,HRV,HRV_0305,2022-11-30 21:44:24
,wl-rdm,26,125387,0.0-6.18-0.18,0.0,25.0,,,,,,,[],,,,,,56.4,1.0,i,1.0,True,1161.7000000178814,70.0,59.0,40.0,False,,271.99488334123845,[],"[640, 400]",ColorTask,11.0,19.0,,,HRV,HRV_0305,2022-11-30 21:44:24
,wl-rdm,27,127652,0.0-6.19-0.19,0.0,26.0,,,,,,,[],,,,,,73.6,0.0,u,0.0,True,805.1999999880791,49.0,59.0,40.0,False,,378.0990791126998,[],"[640, 400]",ColorTask,12.0,20.0,,,HRV,HRV_0305,2022-11-30 21:44:24
,wl-rdm,28,129951,0.0-6.20-0.20,0.0,27.0,,,,,,,[],,,,,,73.6,0.0,u,0.0,True,853.8999999761581,52.0,59.0,40.0,False,,374.33121779087514,[],"[640, 400]",ColorTask,13.0,21.0,,,HRV,HRV_0305,2022-11-30 21:44:24
,wl-rdm,29,132381,0.0-6.21-0.21,0.0,28.0,,,,,,,[],,,,,,50.0,0.0,u,0.0,True,1022.0,62.0,59.0,40.0,False,,325.6908328160198,[],"[640, 400]",ColorTask,14.0,22.0,,,HRV,HRV_0305,2022-11-30 21:44:24
,wl-rdm,30,134497,0.0-6.22-0.22,0.0,29.0,,,,,,,[],,,,,,62.5,1.0,i,1.0,True,830.0999999642372,50.0,59.0,40.0,False,,209.43855046059997,[],"[640, 400]",ColorTask,15.0,23.0,,,HRV,HRV_0305,2022-11-30 21:44:24
,wl-rdm,31,136545,0.0-6.23-0.23,0.0,30.0,,,,,,,[],,,,,,87.9,1.0,i,1.0,True,738.8999999761581,45.0,59.0,40.0,False,,222.21165823813206,[],"[640, 400]",ColorTask,16.0,24.0,,,HRV,HRV_0305,2022-11-30 21:44:24
,wl-rdm,32,138826,0.0-6.24-0.24,0.0,31.0,,,,,,,[],,,,,,50.0,0.0,i,1.0,False,986.2000000178814,60.0,59.0,40.0,False,,206.72006274826066,[],"[640, 400]",ColorTask,15.0,25.0,,,HRV,HRV_0305,2022-11-30 21:44:24
,wl-rdm,33,141324,0.0-6.25-0.25,0.0,32.0,,,,,,,[],,,,,,50.0,1.0,u,0.0,False,1198.0999999940395,72.0,59.0,40.0,False,,232.14201936904308,[],"[640, 400]",ColorTask,14.0,26.0,,,HRV,HRV_0305,2022-11-30 21:44:24
,wl-rdm,34,143771,0.0-6.26-0.26,0.0,33.0,,,,,,,[],,,,,,56.4,1.0,i,1.0,True,1035.7999999821186,62.0,59.0,40.0,False,,332.2132570078485,[],"[640, 400]",ColorTask,15.0,27.0,,,HRV,HRV_0305,2022-11-30 21:44:24
,wl-rdm,35,145952,0.0-6.27-0.27,0.0,34.0,,,,,,,[],,,,,,53.2,0.0,i,1.0,False,793.6000000238419,48.0,59.0,40.0,False,,317.5390101421206,[],"[640, 400]",ColorTask,14.0,28.0,,,HRV,HRV_0305,2022-11-30 21:44:24
,wl-rdm,36,148317,0.0-6.28-0.28,0.0,35.0,,,,,,,[],,,,,,56.4,0.0,u,0.0,True,987.3000000119209,60.0,59.0,40.0,False,,308.3230654988778,[],"[640, 400]",ColorTask,15.0,29.0,,,HRV,HRV_0305,2022-11-30 21:44:24
,wl-rdm,37,150599,0.0-6.29-0.29,0.0,36.0,,,,,,,[],,,,,,73.6,1.0,i,1.0,True,836.4000000059605,51.0,59.0,40.0,False,,356.2256185332752,[],"[640, 400]",ColorTask,16.0,30.0,,,HRV,HRV_0305,2022-11-30 21:44:24
,wl-rdm,38,152615,0.0-6.30-0.30,0.0,37.0,,,,,,,[],,,,,,87.9,1.0,i,1.0,True,746.0,44.0,59.0,40.0,False,,208.31554919009628,[],"[640, 400]",ColorTask,17.0,31.0,,,HRV,HRV_0305,2022-11-30 21:44:24
,wl-rdm,39,154845,0.0-6.31-0.31,0.0,38.0,,,,,,,[],,,,,,62.5,0.0,u,0.0,True,965.0,58.0,59.0,40.0,False,,212.2711121637274,[],"[640, 400]",ColorTask,18.0,32.0,,,HRV,HRV_0305,2022-11-30 21:44:24
,wl-rdm,40,157360,0.0-6.32-0.32,0.0,39.0,,,,,,,[],,,,,,53.2,1.0,u,0.0,False,1158.4999999701977,70.0,59.0,40.0,False,,293.5538092445512,[],"[640, 400]",ColorTask,17.0,33.0,,,HRV,HRV_0305,2022-11-30 21:44:24
,wl-rdm,41,160025,0.0-6.33-0.33,0.0,40.0,,,,,,,[],,,,,,50.0,1.0,u,0.0,False,1304.300000011921,79.0,59.0,40.0,False,,270.818586105329,[],"[640, 400]",ColorTask,16.0,34.0,,,HRV,HRV_0305,2022-11-30 21:44:24
,wl-rdm,42,162522,0.0-6.34-0.34,0.0,41.0,,,,,,,[],,,,,,56.4,0.0,i,1.0,False,1147.0999999940395,69.0,59.0,40.0,False,,268.5722062690161,[],"[640, 400]",ColorTask,15.0,35.0,,,HRV,HRV_0305,2022-11-30 21:44:24
,wl-rdm,43,164986,0.0-6.35-0.35,0.0,42.0,,,,,,,[],,,,,,62.5,0.0,u,0.0,True,1088.2999999821186,66.0,59.0,40.0,False,,290.8588836866917,[],"[640, 400]",ColorTask,16.0,36.0,,,HRV,HRV_0305,2022-11-30 21:44:24
,wl-rdm,44,167268,0.0-6.36-0.36,0.0,43.0,,,,,,,[],,,,,,50.0,1.0,i,1.0,True,962.5000000298023,58.0,59.0,40.0,False,,235.08081134580087,[],"[640, 400]",ColorTask,17.0,37.0,,,HRV,HRV_0305,2022-11-30 21:44:24
,wl-rdm,45,169715,0.0-6.37-0.37,0.0,44.0,,,,,,,[],,,,,,53.2,0.0,i,1.0,False,1001.1999999880791,61.0,59.0,40.0,False,,354.0198504776756,[],"[640, 400]",ColorTask,16.0,38.0,,,HRV,HRV_0305,2022-11-30 21:44:24
,wl-rdm,46,172263,0.0-6.38-0.38,0.0,45.0,,,,,,,[],,,,,,50.0,0.0,u,0.0,True,1269.2999999821186,77.0,59.0,40.0,False,,213.53705209140355,[],"[640, 400]",ColorTask,17.0,39.0,,,HRV,HRV_0305,2022-11-30 21:44:24
,wl-rdm,47,174578,0.0-6.39-0.39,0.0,46.0,,,,,,,[],,,,,,87.9,0.0,u,0.0,True,970.9000000357628,59.0,59.0,40.0,False,,264.3741372154187,[],"[640, 400]",ColorTask,18.0,40.0,,,HRV,HRV_0305,2022-11-30 21:44:24
,wl-rdm,48,177275,0.0-6.40-0.40,0.0,47.0,,,,,,,[],,,,,,50.0,0.0,i,1.0,False,1376.699999988079,83.0,59.0,40.0,False,,248.82459199107254,[],"[640, 400]",ColorTask,17.0,41.0,,,HRV,HRV_0305,2022-11-30 21:44:24
,wl-rdm,49,179540,0.0-6.41-0.41,0.0,48.0,,,,,,,[],,,,,,50.0,1.0,u,0.0,False,942.5,57.0,59.0,40.0,False,,239.70003204727607,[],"[640, 400]",ColorTask,16.0,42.0,,,HRV,HRV_0305,2022-11-30 21:44:24
,wl-rdm,50,181673,0.0-6.42-0.42,0.0,49.0,,,,,,,[],,,,,,53.2,1.0,i,1.0,True,808.2000000178814,49.0,59.0,40.0,False,,242.97848891244257,[],"[640, 400]",ColorTask,17.0,43.0,,,HRV,HRV_0305,2022-11-30 21:44:24
,wl-rdm,51,183921,0.0-6.43-0.43,0.0,50.0,,,,,,,[],,,,,,73.6,0.0,u,0.0,True,955.1000000238419,58.0,59.0,40.0,False,,212.40776021138296,[],"[640, 400]",ColorTask,18.0,44.0,,,HRV,HRV_0305,2022-11-30 21:44:24
,wl-rdm,52,186667,0.0-6.44-0.44,0.0,51.0,,,,,,,[],,,,,,53.2,1.0,i,1.0,True,1316.8000000417233,80.0,59.0,40.0,False,,340.75838840972733,[],"[640, 400]",ColorTask,19.0,45.0,,,HRV,HRV_0305,2022-11-30 21:44:24
,wl-rdm,53,189082,0.0-6.45-0.45,0.0,52.0,,,,,,,[],,,,,,56.4,0.0,u,0.0,True,1012.3999999761581,61.0,59.0,40.0,False,,317.123652398919,[],"[640, 400]",ColorTask,20.0,46.0,,,HRV,HRV_0305,2022-11-30 21:44:24
,wl-rdm,54,191263,0.0-6.46-0.46,0.0,53.0,,,,,,,[],,,,,,87.9,1.0,i,1.0,True,864.6000000238419,52.0,59.0,40.0,False,,237.00900689595275,[],"[640, 400]",ColorTask,21.0,47.0,,,HRV,HRV_0305,2022-11-30 21:44:24
,wl-rdm,55,194078,0.0-6.47-0.47,0.0,54.0,,,,,,,[],,,,,,50.0,1.0,u,0.0,False,1352.7000000178814,82.0,59.0,40.0,False,,389.52320952751097,[],"[640, 400]",ColorTask,20.0,48.0,,,HRV,HRV_0305,2022-11-30 21:44:24
,wl-rdm,56,196309,0.0-6.48-0.48,0.0,55.0,,,,,,,[],,,,,,87.9,0.0,u,0.0,True,856.2000000178814,52.0,59.0,40.0,False,,301.1336186720166,[],"[640, 400]",ColorTask,21.0,49.0,,,HRV,HRV_0305,2022-11-30 21:44:24
,wl-rdm,57,199041,0.0-6.49-0.49,0.0,56.0,,,,,,,[],,,,,,53.2,1.0,u,0.0,False,1284.9000000357628,78.0,59.0,40.0,False,,362.2202959338596,[],"[640, 400]",ColorTask,20.0,50.0,,,HRV,HRV_0305,2022-11-30 21:44:24
,wl-rdm,58,201771,0.0-6.50-0.50,0.0,57.0,,,,,,,[],,,,,,53.2,0.0,u,0.0,True,1312.800000011921,79.0,59.0,40.0,False,,347.56419673338127,[],"[640, 400]",ColorTask,21.0,51.0,,,HRV,HRV_0305,2022-11-30 21:44:24
,wl-rdm,59,204203,0.0-6.51-0.51,0.0,58.0,,,,,,,[],,,,,,53.2,1.0,u,0.0,False,1078.0,65.0,59.0,40.0,False,,269.8845383294064,[],"[640, 400]",ColorTask,20.0,52.0,,,HRV,HRV_0305,2022-11-30 21:44:24
,wl-rdm,60,206783,0.0-6.52-0.52,0.0,59.0,,,,,,,[],,,,,,53.2,0.0,u,0.0,True,1253.800000011921,75.0,59.0,40.0,False,,240.3494872786142,[],"[640, 400]",ColorTask,21.0,53.0,,,HRV,HRV_0305,2022-11-30 21:44:24
,wl-rdm,61,208932,0.0-6.53-0.53,0.0,60.0,,,,,,,[],,,,,,87.9,0.0,u,0.0,True,716.0,43.0,59.0,40.0,False,,371.4080004371293,[],"[640, 400]",ColorTask,22.0,54.0,,,HRV,HRV_0305,2022-11-30 21:44:24
,wl-rdm,62,211263,0.0-6.54-0.54,0.0,61.0,,,,,,,[],,,,,,56.4,1.0,i,1.0,True,939.6000000238419,57.0,59.0,40.0,False,,321.5129094138952,[],"[640, 400]",ColorTask,23.0,55.0,,,HRV,HRV_0305,2022-11-30 21:44:24
,wl-rdm,63,213394,0.0-6.55-0.55,0.0,62.0,,,,,,,[],,,,,,56.4,1.0,i,1.0,True,841.0999999940395,51.0,59.0,40.0,False,,215.50472182007758,[],"[640, 400]",ColorTask,24.0,56.0,,,HRV,HRV_0305,2022-11-30 21:44:24
,wl-rdm,64,215759,0.0-6.56-0.56,0.0,63.0,,,,,,,[],,,,,,73.6,0.0,u,0.0,True,895.7000000178814,54.0,59.0,40.0,False,,398.1538738618169,[],"[640, 400]",ColorTask,25.0,57.0,,,HRV,HRV_0305,2022-11-30 21:44:24
,wl-rdm,65,217924,0.0-6.57-0.57,0.0,64.0,,,,,,,[],,,,,,56.4,1.0,i,1.0,True,869.2999999821186,53.0,59.0,40.0,False,,232.38989016299166,[],"[640, 400]",ColorTask,26.0,58.0,,,HRV,HRV_0305,2022-11-30 21:44:24
,wl-rdm,66,220438,0.0-6.58-0.58,0.0,65.0,,,,,,,[],,,,,,73.6,0.0,u,0.0,True,1086.800000011921,66.0,59.0,40.0,False,,339.72992999323446,[],"[640, 400]",ColorTask,27.0,59.0,,,HRV,HRV_0305,2022-11-30 21:44:24
,wl-rdm,67,222504,0.0-6.59-0.59,0.0,66.0,,,,,,,[],,,,,,87.9,1.0,i,1.0,True,781.6999999880791,47.0,59.0,40.0,False,,212.84203854014368,[],"[640, 400]",ColorTask,28.0,60.0,,,HRV,HRV_0305,2022-11-30 21:44:24
,wl-rdm,68,224801,0.0-6.60-0.60,0.0,67.0,,,,,,,[],,,,,,87.9,0.0,u,0.0,True,820.5,50.0,59.0,40.0,False,,397.1364394660442,[],"[640, 400]",ColorTask,29.0,61.0,,,HRV,HRV_0305,2022-11-30 21:44:24
,wl-rdm,69,227117,0.0-6.61-0.61,0.0,68.0,,,,,,,[],,,,,,53.2,0.0,i,1.0,False,906.6000000238419,55.0,59.0,40.0,False,,320.93820510872564,[],"[640, 400]",ColorTask,28.0,62.0,,,HRV,HRV_0305,2022-11-30 21:44:24
,wl-rdm,70,229265,0.0-6.62-0.62,0.0,69.0,,,,,,,[],,,,,,87.9,1.0,i,1.0,True,801.4000000059605,49.0,59.0,40.0,False,,264.6330871467919,[],"[640, 400]",ColorTask,29.0,63.0,,,HRV,HRV_0305,2022-11-30 21:44:24
,wl-rdm,71,231513,0.0-6.63-0.63,0.0,70.0,,,,,,,[],,,,,,53.2,0.0,u,0.0,True,885.4999999701977,54.0,59.0,40.0,False,,280.91613674707014,[],"[640, 400]",ColorTask,30.0,64.0,,,HRV,HRV_0305,2022-11-30 21:44:24
,wl-rdm,72,233827,0.0-6.64-0.64,0.0,71.0,,,,,,,[],,,,,,62.5,0.0,i,1.0,False,947.0999999940395,57.0,59.0,40.0,False,,295.904430144869,[],"[640, 400]",ColorTask,29.0,65.0,,,HRV,HRV_0305,2022-11-30 21:44:24
,wl-rdm,73,236359,0.0-6.65-0.65,0.0,72.0,,,,,,,[],,,,,,53.2,1.0,i,1.0,True,1082.0999999940395,65.0,59.0,40.0,False,,375.6029278944353,[],"[640, 400]",ColorTask,30.0,66.0,,,HRV,HRV_0305,2022-11-30 21:44:24
,wl-rdm,74,238689,0.0-6.66-0.66,0.0,73.0,,,,,,,[],,,,,,73.6,1.0,i,1.0,True,920.6999999880791,56.0,59.0,40.0,False,,345.87336608929024,[],"[640, 400]",ColorTask,31.0,67.0,,,HRV,HRV_0305,2022-11-30 21:44:24
,wl-rdm,75,240770,0.0-6.67-0.67,0.0,74.0,,,,,,,[],,,,,,62.5,0.0,u,0.0,True,770.4999999701977,47.0,59.0,40.0,False,,244.80315954046702,[],"[640, 400]",ColorTask,32.0,68.0,,,HRV,HRV_0305,2022-11-30 21:44:24
,wl-rdm,76,243235,0.0-6.68-0.68,0.0,75.0,,,,,,,[],,,,,,62.5,1.0,i,1.0,True,995.6999999880791,60.0,59.0,40.0,False,,383.0083351831497,[],"[640, 400]",ColorTask,33.0,69.0,,,HRV,HRV_0305,2022-11-30 21:44:24
,wl-rdm,77,245716,0.0-6.69-0.69,0.0,76.0,,,,,,,[],,,,,,50.0,0.0,i,1.0,False,1019.0999999940395,61.0,59.0,40.0,False,,378.9365729069213,[],"[640, 400]",ColorTask,32.0,70.0,,,HRV,HRV_0305,2022-11-30 21:44:24
,wl-rdm,78,248048,0.0-6.70-0.70,0.0,77.0,,,,,,,[],,,,,,56.4,0.0,u,0.0,True,1009.0000000298023,61.0,59.0,40.0,False,,253.50900691618364,[],"[640, 400]",ColorTask,33.0,71.0,,,HRV,HRV_0305,2022-11-30 21:44:24
,wl-rdm,79,250395,0.0-6.71-0.71,0.0,78.0,,,,,,,[],,,,,,53.2,0.0,u,0.0,True,1046.800000011921,63.0,59.0,40.0,False,,222.41830999859255,[],"[640, 400]",ColorTask,34.0,72.0,,,HRV,HRV_0305,2022-11-30 21:44:24
,wl-rdm,80,252745,0.0-6.72-0.72,0.0,79.0,,,,,,,[],,,,,,50.0,1.0,u,0.0,False,1036.7999999821186,63.0,59.0,40.0,False,,227.59659601898113,[],"[640, 400]",ColorTask,33.0,73.0,,,HRV,HRV_0305,2022-11-30 21:44:24
,wl-rdm,81,254991,0.0-6.73-0.73,0.0,80.0,,,,,,,[],,,,,,87.9,1.0,i,1.0,True,896.0,53.0,59.0,40.0,False,,285.5073018012924,[],"[640, 400]",ColorTask,34.0,74.0,,,HRV,HRV_0305,2022-11-30 21:44:24
,wl-rdm,82,257206,0.0-6.74-0.74,0.0,81.0,,,,,,,[],,,,,,73.6,0.0,u,0.0,True,871.0999999940395,53.0,59.0,40.0,False,,256.03281185807543,[],"[640, 400]",ColorTask,35.0,75.0,,,HRV,HRV_0305,2022-11-30 21:44:24
,wl-rdm,83,259488,0.0-6.75-0.75,0.0,82.0,,,,,,,[],,,,,,50.0,1.0,i,1.0,True,1015.7999999821186,61.0,59.0,40.0,False,,209.11785941645618,[],"[640, 400]",ColorTask,36.0,76.0,,,HRV,HRV_0305,2022-11-30 21:44:24
,wl-rdm,84,261602,0.0-6.76-0.76,0.0,83.0,,,,,,,[],,,,,,73.6,1.0,i,1.0,True,757.1000000238419,46.0,59.0,40.0,False,,270.4074833384761,[],"[640, 400]",ColorTask,37.0,77.0,,,HRV,HRV_0305,2022-11-30 21:44:24
,wl-rdm,85,263967,0.0-6.77-0.77,0.0,84.0,,,,,,,[],,,,,,62.5,1.0,u,0.0,False,946.5999999940395,56.0,59.0,40.0,False,,342.9027226037932,[],"[640, 400]",ColorTask,36.0,78.0,,,HRV,HRV_0305,2022-11-30 21:44:24
,wl-rdm,86,266382,0.0-6.78-0.78,0.0,85.0,,,,,,,[],,,,,,62.5,1.0,i,1.0,True,1099.0999999940395,66.0,59.0,40.0,False,,236.2626242093968,[],"[640, 400]",ColorTask,37.0,79.0,,,HRV,HRV_0305,2022-11-30 21:44:24
,wl-rdm,87,268596,0.0-6.79-0.79,0.0,86.0,,,,,,,[],,,,,,56.4,0.0,u,0.0,True,890.0999999940395,54.0,59.0,40.0,False,,248.06750486050788,[],"[640, 400]",ColorTask,38.0,80.0,,,HRV,HRV_0305,2022-11-30 21:44:24
,wl-rdm,88,270978,0.0-6.80-0.80,0.0,87.0,,,,,,,[],,,,,,87.9,0.0,u,0.0,True,983.5999999940395,60.0,59.0,40.0,False,,313.0858562227124,[],"[640, 400]",ColorTask,39.0,81.0,,,HRV,HRV_0305,2022-11-30 21:44:24
,wl-rdm,89,273193,0.0-6.81-0.81,0.0,88.0,,,,,,,[],,,,,,62.5,0.0,u,0.0,True,853.0999999940395,52.0,59.0,40.0,False,,271.8788149405724,[],"[640, 400]",ColorTask,40.0,82.0,,,HRV,HRV_0305,2022-11-30 21:44:24
,wl-rdm,90,275492,0.0-6.82-0.82,0.0,89.0,,,,,,,[],,,,,,53.2,1.0,u,0.0,False,1005.0999999940395,61.0,59.0,40.0,False,,205.56236952435185,[],"[640, 400]",ColorTask,39.0,83.0,,,HRV,HRV_0305,2022-11-30 21:44:24
,wl-rdm,91,277639,0.0-6.83-0.83,0.0,90.0,,,,,,,[],,,,,,50.0,1.0,i,1.0,True,773.2000000178814,47.0,59.0,40.0,False,,299.9956723025971,[],"[640, 400]",ColorTask,40.0,84.0,,,HRV,HRV_0305,2022-11-30 21:44:24
,wl-rdm,92,279888,0.0-6.84-0.84,0.0,91.0,,,,,,,[],,,,,,62.5,1.0,i,1.0,True,771.3000000417233,47.0,59.0,40.0,False,,388.97220461563256,[],"[640, 400]",ColorTask,41.0,85.0,,,HRV,HRV_0305,2022-11-30 21:44:24
,wl-rdm,93,281935,0.0-6.85-0.85,0.0,92.0,,,,,,,[],,,,,,87.9,1.0,i,1.0,True,652.8000000119209,40.0,59.0,40.0,False,,307.5689402338795,[],"[640, 400]",ColorTask,42.0,86.0,,,HRV,HRV_0305,2022-11-30 21:44:24
,wl-rdm,94,284151,0.0-6.86-0.86,0.0,93.0,,,,,,,[],,,,,,56.4,1.0,i,1.0,True,770.3000000119209,47.0,59.0,40.0,False,,358.5616825007539,[],"[640, 400]",ColorTask,43.0,87.0,,,HRV,HRV_0305,2022-11-30 21:44:24
,wl-rdm,95,286398,0.0-6.87-0.87,0.0,94.0,,,,,,,[],,,,,,87.9,1.0,i,1.0,True,845.8000000119209,51.0,59.0,40.0,False,,332.0456067528258,[],"[640, 400]",ColorTask,44.0,88.0,,,HRV,HRV_0305,2022-11-30 21:44:24
,wl-rdm,96,288647,0.0-6.88-0.88,0.0,95.0,,,,,,,[],,,,,,73.6,1.0,i,1.0,True,886.0999999940395,54.0,59.0,40.0,False,,270.7081278458763,[],"[640, 400]",ColorTask,45.0,89.0,,,HRV,HRV_0305,2022-11-30 21:44:24
,wl-rdm,97,290794,0.0-6.89-0.89,0.0,96.0,,,,,,,[],,,,,,87.9,0.0,u,0.0,True,753.4999999701977,46.0,59.0,40.0,False,,315.21389367131883,[],"[640, 400]",ColorTask,46.0,90.0,,,HRV,HRV_0305,2022-11-30 21:44:24
,wl-rdm,98,293059,0.0-6.90-0.90,0.0,97.0,,,,,,,[],,,,,,87.9,1.0,i,1.0,True,941.5000000298023,57.0,59.0,40.0,False,,237.40460155054123,[],"[640, 400]",ColorTask,47.0,91.0,,,HRV,HRV_0305,2022-11-30 21:44:24
,wl-rdm,99,295273,0.0-6.91-0.91,0.0,98.0,,,,,,,[],,,,,,87.9,0.0,u,0.0,True,770.9000000059605,46.0,59.0,40.0,False,,361.659095195242,[],"[640, 400]",ColorTask,48.0,92.0,,,HRV,HRV_0305,2022-11-30 21:44:24
,wl-rdm,100,297371,0.0-6.92-0.92,0.0,99.0,,,,,,,[],,,,,,56.4,1.0,i,1.0,True,811.9000000059605,49.0,59.0,40.0,False,,224.91258492388516,[],"[640, 400]",ColorTask,49.0,93.0,,,HRV,HRV_0305,2022-11-30 21:44:24
,wl-rdm,101,299686,0.0-6.93-0.93,0.0,100.0,,,,,,,[],,,,,,62.5,1.0,i,1.0,True,986.5000000298023,60.0,59.0,40.0,False,,245.4299664642992,[],"[640, 400]",ColorTask,50.0,94.0,,,HRV,HRV_0305,2022-11-30 21:44:24
,wl-rdm,102,301802,0.0-6.94-0.94,0.0,101.0,,,,,,,[],,,,,,53.2,0.0,i,1.0,False,814.4000000059605,49.0,59.0,40.0,False,,228.80159652111735,[],"[640, 400]",ColorTask,49.0,95.0,,,HRV,HRV_0305,2022-11-30 21:44:24
,wl-rdm,103,304082,0.0-6.95-0.95,0.0,102.0,,,,,,,[],,,,,,73.6,1.0,i,1.0,True,969.0999999940395,59.0,59.0,40.0,False,,241.22134090121173,[],"[640, 400]",ColorTask,50.0,96.0,,,HRV,HRV_0305,2022-11-30 21:44:24
,wl-rdm,104,306397,0.0-6.96-0.96,0.0,103.0,,,,,,,[],,,,,,62.5,0.0,u,0.0,True,968.5,59.0,59.0,40.0,False,,282.4496927790451,[],"[640, 400]",ColorTask,51.0,97.0,,,HRV,HRV_0305,2022-11-30 21:44:24
,wl-rdm,105,308463,0.0-6.97-0.97,0.0,104.0,,,,,,,[],,,,,,73.6,0.0,u,0.0,True,660.9000000059605,40.0,59.0,40.0,False,,319.25009700034144,[],"[640, 400]",ColorTask,52.0,98.0,,,HRV,HRV_0305,2022-11-30 21:44:24
,wl-rdm,106,310427,0.0-6.98-0.98,0.0,105.0,,,,,,,[],,,,,,87.9,0.0,u,0.0,True,577.6999999880791,35.0,59.0,40.0,False,,303.503221936092,[],"[640, 400]",ColorTask,53.0,99.0,,,HRV,HRV_0305,2022-11-30 21:44:24
,wl-rdm,107,312558,0.0-6.99-0.99,0.0,106.0,,,,,,,[],,,,,,73.6,1.0,i,1.0,True,763.9000000059605,46.0,59.0,40.0,False,,310.0640215000857,[],"[640, 400]",ColorTask,54.0,100.0,,,HRV,HRV_0305,2022-11-30 21:44:24
,wl-rdm,108,314790,0.0-6.100-0.100,0.0,107.0,,,,,,,[],,,,,,62.5,0.0,u,0.0,True,886.8999999761581,54.0,59.0,40.0,False,,253.64058380135552,[],"[640, 400]",ColorTask,55.0,101.0,,,HRV,HRV_0305,2022-11-30 21:44:24
,wl-rdm,109,317172,0.0-6.101-0.101,0.0,108.0,,,,,,,[],,,,,,53.2,0.0,u,0.0,True,1038.1000000238419,63.0,59.0,40.0,False,,260.5213623245241,[],"[640, 400]",ColorTask,56.0,102.0,,,HRV,HRV_0305,2022-11-30 21:44:24
,wl-rdm,110,319669,0.0-6.102-0.102,0.0,109.0,,,,,,,[],,,,,,56.4,0.0,u,0.0,True,1090.0999999940395,66.0,59.0,40.0,False,,325.51995589748424,[],"[640, 400]",ColorTask,57.0,103.0,,,HRV,HRV_0305,2022-11-30 21:44:24
,wl-rdm,111,322085,0.0-6.103-0.103,0.0,110.0,,,,,,,[],,,,,,50.0,0.0,u,0.0,True,1079.0000000298023,65.0,59.0,40.0,False,,250.61550059855506,[],"[640, 400]",ColorTask,58.0,104.0,,,HRV,HRV_0305,2022-11-30 21:44:24
,wl-rdm,112,324314,0.0-6.104-0.104,0.0,111.0,,,,,,,[],,,,,,73.6,1.0,i,1.0,True,758.0999999940395,46.0,59.0,40.0,False,,390.0804088030522,[],"[640, 400]",ColorTask,59.0,105.0,,,HRV,HRV_0305,2022-11-30 21:44:24
,wl-rdm,113,326546,0.0-6.105-0.105,0.0,112.0,,,,,,,[],,,,,,73.6,0.0,u,0.0,True,919.1000000238419,56.0,59.0,40.0,False,,223.5734085861712,[],"[640, 400]",ColorTask,60.0,106.0,,,HRV,HRV_0305,2022-11-30 21:44:24
,wl-rdm,114,328911,0.0-6.106-0.106,0.0,113.0,,,,,,,[],,,,,,53.2,1.0,u,0.0,False,1036.9000000059605,63.0,59.0,40.0,False,,240.39964465947332,[],"[640, 400]",ColorTask,59.0,107.0,,,HRV,HRV_0305,2022-11-30 21:44:24
,wl-rdm,115,330992,0.0-6.107-0.107,0.0,114.0,,,,,,,[],,,,,,50.0,0.0,i,1.0,False,687.1999999880791,42.0,59.0,40.0,False,,321.4812547850511,[],"[640, 400]",ColorTask,58.0,108.0,,,HRV,HRV_0305,2022-11-30 21:44:24
,wl-rdm,116,333108,0.0-6.108-0.108,0.0,115.0,,,,,,,[],,,,,,87.9,0.0,u,0.0,True,771.6000000238419,47.0,59.0,40.0,False,,262.81782899568907,[],"[640, 400]",ColorTask,59.0,109.0,,,HRV,HRV_0305,2022-11-30 21:44:24
,wl-rdm,117,335240,0.0-6.109-0.109,0.0,116.0,,,,,,,[],,,,,,62.5,1.0,i,1.0,True,779.5999999940395,47.0,59.0,40.0,False,,275.3047957038834,[],"[640, 400]",ColorTask,60.0,110.0,,,HRV,HRV_0305,2022-11-30 21:44:24
,wl-html-keyboard-response,118,344958,0.0-7.0-0.0,1.0,117.0,,,,,,,,7705.0,1.0,0,,,,,,,,,,,,,,,,,,,,,,HRV,HRV_0305,2022-11-30 21:44:24
,wl-rdm,119,347129,0.0-8.0-0.0,1.0,118.0,,,,,,,[],,,,,,87.9,1.0,i,1.0,True,742.6000000238419,45.0,59.0,40.0,False,,374.13129779794843,[],"[640, 400]",ColorTask,61.0,1.0,,,HRV,HRV_0305,2022-11-30 21:44:24
,wl-rdm,120,349210,0.0-8.1-0.1,1.0,119.0,,,,,,,[],,,,,,73.6,0.0,u,0.0,True,796.0999999940395,48.0,59.0,40.0,False,,205.34839199196847,[],"[640, 400]",ColorTask,62.0,2.0,,,HRV,HRV_0305,2022-11-30 21:44:24
,wl-rdm,121,351424,0.0-8.2-0.2,1.0,120.0,,,,,,,[],,,,,,56.4,1.0,u,0.0,False,899.2000000178814,54.0,59.0,40.0,False,,247.15003289977912,[],"[640, 400]",ColorTask,61.0,3.0,,,HRV,HRV_0305,2022-11-30 21:44:24
,wl-rdm,122,353556,0.0-8.3-0.3,1.0,121.0,,,,,,,[],,,,,,62.5,0.0,u,0.0,True,781.8000000119209,47.0,59.0,40.0,False,,267.1837058969695,[],"[640, 400]",ColorTask,62.0,4.0,,,HRV,HRV_0305,2022-11-30 21:44:24
,wl-rdm,123,355772,0.0-8.4-0.4,1.0,122.0,,,,,,,[],,,,,,50.0,0.0,i,1.0,False,752.0999999940395,46.0,59.0,40.0,False,,383.3210160938307,[],"[640, 400]",ColorTask,61.0,5.0,,,HRV,HRV_0305,2022-11-30 21:44:24
,wl-rdm,124,358202,0.0-8.5-0.5,1.0,123.0,,,,,,,[],,,,,,53.2,1.0,u,0.0,False,1072.5999999940395,65.0,59.0,40.0,False,,273.0033666043955,[],"[640, 400]",ColorTask,60.0,6.0,,,HRV,HRV_0305,2022-11-30 21:44:24
,wl-rdm,125,360218,0.0-8.6-0.6,1.0,124.0,,,,,,,[],,,,,,56.4,0.0,i,1.0,False,701.3000000119209,43.0,59.0,40.0,False,,222.96876583915036,[],"[640, 400]",ColorTask,59.0,7.0,,,HRV,HRV_0305,2022-11-30 21:44:24
,wl-rdm,126,362315,0.0-8.7-0.7,1.0,125.0,,,,,,,[],,,,,,73.6,0.0,u,0.0,True,752.9000000059605,46.0,59.0,40.0,False,,272.7380014816649,[],"[640, 400]",ColorTask,60.0,8.0,,,HRV,HRV_0305,2022-11-30 21:44:24
,wl-rdm,127,364482,0.0-8.8-0.8,1.0,126.0,,,,,,,[],,,,,,73.6,1.0,i,1.0,True,829.8000000119209,50.0,59.0,40.0,False,,248.39300114235974,[],"[640, 400]",ColorTask,61.0,9.0,,,HRV,HRV_0305,2022-11-30 21:44:24
,wl-rdm,128,366862,0.0-8.9-0.9,1.0,127.0,,,,,,,[],,,,,,50.0,0.0,u,0.0,True,992.0999999940395,60.0,59.0,40.0,False,,304.5269589135427,[],"[640, 400]",ColorTask,62.0,10.0,,,HRV,HRV_0305,2022-11-30 21:44:24
,wl-rdm,129,369111,0.0-8.10-0.10,1.0,128.0,,,,,,,[],,,,,,87.9,1.0,i,1.0,True,787.3999999761581,48.0,59.0,40.0,False,,373.96430841972114,[],"[640, 400]",ColorTask,63.0,11.0,,,HRV,HRV_0305,2022-11-30 21:44:24
,wl-rdm,130,371242,0.0-8.11-0.11,1.0,129.0,,,,,,,[],,,,,,73.6,0.0,u,0.0,True,738.8999999761581,45.0,59.0,40.0,False,,307.2606189997472,[],"[640, 400]",ColorTask,64.0,12.0,,,HRV,HRV_0305,2022-11-30 21:44:24
,wl-rdm,131,373422,0.0-8.12-0.12,1.0,130.0,,,,,,,[],,,,,,73.6,1.0,i,1.0,True,755.1000000238419,46.0,59.0,40.0,False,,342.65750662511954,[],"[640, 400]",ColorTask,65.0,13.0,,,HRV,HRV_0305,2022-11-30 21:44:24
,wl-rdm,132,375588,0.0-8.13-0.13,1.0,131.0,,,,,,,[],,,,,,53.2,0.0,u,0.0,True,835.5,51.0,59.0,40.0,False,,243.02926470657872,[],"[640, 400]",ColorTask,66.0,14.0,,,HRV,HRV_0305,2022-11-30 21:44:24
,wl-rdm,133,377785,0.0-8.14-0.14,1.0,132.0,,,,,,,[],,,,,,56.4,0.0,u,0.0,True,798.7000000178814,48.0,59.0,40.0,False,,346.79819262712897,[],"[640, 400]",ColorTask,67.0,15.0,,,HRV,HRV_0305,2022-11-30 21:44:24
,wl-rdm,134,380101,0.0-8.15-0.15,1.0,133.0,,,,,,,[],,,,,,56.4,0.0,u,0.0,True,879.1000000238419,53.0,59.0,40.0,False,,382.35547475126805,[],"[640, 400]",ColorTask,68.0,16.0,,,HRV,HRV_0305,2022-11-30 21:44:24
,wl-rdm,135,382281,0.0-8.16-0.16,1.0,134.0,,,,,,,[],,,,,,73.6,1.0,i,1.0,True,787.0999999940395,48.0,59.0,40.0,False,,305.61572483786347,[],"[640, 400]",ColorTask,69.0,17.0,,,HRV,HRV_0305,2022-11-30 21:44:24
,wl-rdm,136,384413,0.0-8.17-0.17,1.0,135.0,,,,,,,[],,,,,,87.9,1.0,i,1.0,True,702.6999999880791,43.0,59.0,40.0,False,,357.4666188285806,[],"[640, 400]",ColorTask,70.0,18.0,,,HRV,HRV_0305,2022-11-30 21:44:24
,wl-rdm,137,386595,0.0-8.18-0.18,1.0,136.0,,,,,,,[],,,,,,62.5,0.0,u,0.0,True,822.0999999940395,50.0,59.0,40.0,False,,282.7416641042695,[],"[640, 400]",ColorTask,71.0,19.0,,,HRV,HRV_0305,2022-11-30 21:44:24
,wl-rdm,138,388809,0.0-8.19-0.19,1.0,137.0,,,,,,,[],,,,,,53.2,1.0,u,0.0,False,785.2000000178814,48.0,59.0,40.0,False,,359.60539282138,[],"[640, 400]",ColorTask,70.0,20.0,,,HRV,HRV_0305,2022-11-30 21:44:24
,wl-rdm,139,391174,0.0-8.20-0.20,1.0,138.0,,,,,,,[],,,,,,50.0,0.0,i,1.0,False,998.7000000476837,60.0,59.0,40.0,False,,303.8742381837597,[],"[640, 400]",ColorTask,69.0,21.0,,,HRV,HRV_0305,2022-11-30 21:44:24
,wl-rdm,140,393488,0.0-8.21-0.21,1.0,139.0,,,,,,,[],,,,,,56.4,1.0,i,1.0,True,1026.1000000238419,61.0,59.0,40.0,False,,226.41053433442917,[],"[640, 400]",ColorTask,70.0,22.0,,,HRV,HRV_0305,2022-11-30 21:44:24
,wl-rdm,141,395520,0.0-8.22-0.22,1.0,140.0,,,,,,,[],,,,,,73.6,1.0,i,1.0,True,748.8999999761581,45.0,59.0,40.0,False,,201.9247876984779,[],"[640, 400]",ColorTask,71.0,23.0,,,HRV,HRV_0305,2022-11-30 21:44:24
,wl-rdm,142,397669,0.0-8.23-0.23,1.0,141.0,,,,,,,[],,,,,,73.6,0.0,u,0.0,True,727.4000000059605,44.0,59.0,40.0,False,,337.6453894609822,[],"[640, 400]",ColorTask,72.0,24.0,,,HRV,HRV_0305,2022-11-30 21:44:24
,wl-rdm,143,400016,0.0-8.24-0.24,1.0,142.0,,,,,,,[],,,,,,73.6,1.0,i,1.0,True,886.2999999821186,54.0,59.0,40.0,False,,382.6330855147793,[],"[640, 400]",ColorTask,73.0,25.0,,,HRV,HRV_0305,2022-11-30 21:44:24
,wl-rdm,144,402197,0.0-8.25-0.25,1.0,143.0,,,,,,,[],,,,,,73.6,1.0,i,1.0,True,836.7999999821186,51.0,59.0,40.0,False,,261.481458659514,[],"[640, 400]",ColorTask,74.0,26.0,,,HRV,HRV_0305,2022-11-30 21:44:24
,wl-rdm,145,404279,0.0-8.26-0.26,1.0,144.0,,,,,,,[],,,,,,56.4,1.0,i,1.0,True,770.5999999940395,47.0,59.0,40.0,False,,238.15235166831968,[],"[640, 400]",ColorTask,75.0,27.0,,,HRV,HRV_0305,2022-11-30 21:44:24
,wl-rdm,146,406528,0.0-8.27-0.27,1.0,145.0,,,,,,,[],,,,,,50.0,1.0,i,1.0,True,873.3999999761581,53.0,59.0,40.0,False,,292.8038086949809,[],"[640, 400]",ColorTask,76.0,28.0,,,HRV,HRV_0305,2022-11-30 21:44:24
,wl-rdm,147,408642,0.0-8.28-0.28,1.0,146.0,,,,,,,[],,,,,,87.9,1.0,i,1.0,True,831.9000000059605,50.0,59.0,40.0,False,,212.35452054563066,[],"[640, 400]",ColorTask,77.0,29.0,,,HRV,HRV_0305,2022-11-30 21:44:24
,wl-rdm,148,410807,0.0-8.29-0.29,1.0,147.0,,,,,,,[],,,,,,56.4,0.0,u,0.0,True,818.9000000059605,50.0,59.0,40.0,False,,252.10388202274117,[],"[640, 400]",ColorTask,78.0,30.0,,,HRV,HRV_0305,2022-11-30 21:44:24
,wl-rdm,149,413038,0.0-8.30-0.30,1.0,148.0,,,,,,,[],,,,,,62.5,1.0,u,0.0,False,855.4999999701977,52.0,59.0,40.0,False,,285.3357412052816,[],"[640, 400]",ColorTask,77.0,31.0,,,HRV,HRV_0305,2022-11-30 21:44:24
,wl-rdm,150,415404,0.0-8.31-0.31,1.0,149.0,,,,,,,[],,,,,,53.2,0.0,i,1.0,False,986.5999999940395,60.0,59.0,40.0,False,,296.639876588475,[],"[640, 400]",ColorTask,76.0,32.0,,,HRV,HRV_0305,2022-11-30 21:44:24
,wl-rdm,151,417585,0.0-8.32-0.32,1.0,150.0,,,,,,,[],,,,,,53.2,0.0,i,1.0,False,749.3999999761581,45.0,59.0,40.0,False,,352.73078795856145,[],"[640, 400]",ColorTask,75.0,33.0,,,HRV,HRV_0305,2022-11-30 21:44:24
,wl-rdm,152,419849,0.0-8.33-0.33,1.0,151.0,,,,,,,[],,,,,,73.6,1.0,i,1.0,True,821.0000000298023,50.0,59.0,40.0,False,,358.5724659927704,[],"[640, 400]",ColorTask,76.0,34.0,,,HRV,HRV_0305,2022-11-30 21:44:24
,wl-rdm,153,422114,0.0-8.34-0.34,1.0,152.0,,,,,,,[],,,,,,53.2,1.0,u,0.0,False,935.2999999821186,57.0,59.0,40.0,False,,259.9595495447827,[],"[640, 400]",ColorTask,75.0,35.0,,,HRV,HRV_0305,2022-11-30 21:44:24
,wl-rdm,154,424429,0.0-8.35-0.35,1.0,153.0,,,,,,,[],,,,,,53.2,1.0,i,1.0,True,871.7999999821186,53.0,59.0,40.0,False,,381.3923969243292,[],"[640, 400]",ColorTask,76.0,36.0,,,HRV,HRV_0305,2022-11-30 21:44:24
,wl-rdm,155,426977,0.0-8.36-0.36,1.0,154.0,,,,,,,[],,,,,,56.4,1.0,u,0.0,False,1201.9000000357628,73.0,59.0,40.0,False,,265.4124744266122,[],"[640, 400]",ColorTask,75.0,37.0,,,HRV,HRV_0305,2022-11-30 21:44:24
,wl-rdm,156,429424,0.0-8.37-0.37,1.0,155.0,,,,,,,[],,,,,,53.2,1.0,i,1.0,True,1078.8999999761581,65.0,59.0,40.0,False,,292.4619185640125,[],"[640, 400]",ColorTask,76.0,38.0,,,HRV,HRV_0305,2022-11-30 21:44:24
,wl-rdm,157,431657,0.0-8.38-0.38,1.0,156.0,,,,,,,[],,,,,,73.6,0.0,u,0.0,True,880.0999999940395,53.0,59.0,40.0,False,,275.83849260684894,[],"[640, 400]",ColorTask,77.0,39.0,,,HRV,HRV_0305,2022-11-30 21:44:24
,wl-rdm,158,434105,0.0-8.39-0.39,1.0,157.0,,,,,,,[],,,,,,56.4,1.0,i,1.0,True,1096.9000000059605,66.0,59.0,40.0,False,,274.84842123137634,[],"[640, 400]",ColorTask,78.0,40.0,,,HRV,HRV_0305,2022-11-30 21:44:24
,wl-rdm,159,436220,0.0-8.40-0.40,1.0,158.0,,,,,,,[],,,,,,62.5,1.0,i,1.0,True,779.4000000059605,47.0,59.0,40.0,False,,258.0614888076784,[],"[640, 400]",ColorTask,79.0,41.0,,,HRV,HRV_0305,2022-11-30 21:44:24
,wl-rdm,160,438352,0.0-8.41-0.41,1.0,159.0,,,,,,,[],,,,,,87.9,0.0,u,0.0,True,769.2000000178814,47.0,59.0,40.0,False,,270.83418344400695,[],"[640, 400]",ColorTask,80.0,42.0,,,HRV,HRV_0305,2022-11-30 21:44:24
,wl-rdm,161,440499,0.0-8.42-0.42,1.0,160.0,,,,,,,[],,,,,,62.5,1.0,i,1.0,True,740.6000000238419,45.0,59.0,40.0,False,,330.7469461056095,[],"[640, 400]",ColorTask,81.0,43.0,,,HRV,HRV_0305,2022-11-30 21:44:24
,wl-rdm,162,442548,0.0-8.43-0.43,1.0,161.0,,,,,,,[],,,,,,50.0,0.0,i,1.0,False,755.5,46.0,59.0,40.0,False,,211.93313977738399,[],"[640, 400]",ColorTask,80.0,44.0,,,HRV,HRV_0305,2022-11-30 21:44:24
,wl-rdm,163,444663,0.0-8.44-0.44,1.0,162.0,,,,,,,[],,,,,,50.0,1.0,u,0.0,False,829.7999999821186,50.0,59.0,40.0,False,,201.8064560161104,[],"[640, 400]",ColorTask,79.0,45.0,,,HRV,HRV_0305,2022-11-30 21:44:24
,wl-rdm,164,446828,0.0-8.45-0.45,1.0,163.0,,,,,,,[],,,,,,62.5,0.0,i,1.0,False,852.0999999940395,52.0,59.0,40.0,False,,218.39171409882456,[],"[640, 400]",ColorTask,78.0,46.0,,,HRV,HRV_0305,2022-11-30 21:44:24
,wl-rdm,165,449142,0.0-8.46-0.46,1.0,164.0,,,,,,,[],,,,,,50.0,1.0,u,0.0,False,862.5,52.0,59.0,40.0,False,,374.64929638121157,[],"[640, 400]",ColorTask,77.0,47.0,,,HRV,HRV_0305,2022-11-30 21:44:24
,wl-rdm,166,451374,0.0-8.47-0.47,1.0,165.0,,,,,,,[],,,,,,87.9,0.0,u,0.0,True,787.9000000357628,48.0,59.0,40.0,False,,356.2440647991024,[],"[640, 400]",ColorTask,78.0,48.0,,,HRV,HRV_0305,2022-11-30 21:44:24
,wl-rdm,167,453755,0.0-8.48-0.48,1.0,166.0,,,,,,,[],,,,,,56.4,1.0,u,0.0,False,1022.6999999880791,62.0,59.0,40.0,False,,274.6029495682974,[],"[640, 400]",ColorTask,77.0,49.0,,,HRV,HRV_0305,2022-11-30 21:44:24
,wl-rdm,168,455886,0.0-8.49-0.49,1.0,167.0,,,,,,,[],,,,,,62.5,1.0,i,1.0,True,850.2999999821186,51.0,59.0,40.0,False,,208.4213556322776,[],"[640, 400]",ColorTask,78.0,50.0,,,HRV,HRV_0305,2022-11-30 21:44:24
,wl-rdm,169,458201,0.0-8.50-0.50,1.0,168.0,,,,,,,[],,,,,,53.2,1.0,i,1.0,True,1033.5,62.0,59.0,40.0,False,,214.05353253068628,[],"[640, 400]",ColorTask,79.0,51.0,,,HRV,HRV_0305,2022-11-30 21:44:24
,wl-rdm,170,460316,0.0-8.51-0.51,1.0,169.0,,,,,,,[],,,,,,56.4,1.0,i,1.0,True,769.3000000119209,47.0,59.0,40.0,False,,252.98964560976742,[],"[640, 400]",ColorTask,80.0,52.0,,,HRV,HRV_0305,2022-11-30 21:44:24
,wl-rdm,171,462481,0.0-8.52-0.52,1.0,170.0,,,,,,,[],,,,,,62.5,0.0,u,0.0,True,825.1999999880791,50.0,59.0,40.0,False,,265.74989490099335,[],"[640, 400]",ColorTask,81.0,53.0,,,HRV,HRV_0305,2022-11-30 21:44:24
,wl-rdm,172,464812,0.0-8.53-0.53,1.0,171.0,,,,,,,[],,,,,,53.2,0.0,u,0.0,True,976.4999999701977,59.0,59.0,40.0,False,,267.63519295051367,[],"[640, 400]",ColorTask,82.0,54.0,,,HRV,HRV_0305,2022-11-30 21:44:24
,wl-rdm,173,467176,0.0-8.54-0.54,1.0,172.0,,,,,,,[],,,,,,62.5,1.0,u,0.0,False,952.4999999701977,58.0,59.0,40.0,False,,321.9872280907056,[],"[640, 400]",ColorTask,81.0,55.0,,,HRV,HRV_0305,2022-11-30 21:44:24
,wl-rdm,174,469408,0.0-8.55-0.55,1.0,173.0,,,,,,,[],,,,,,73.6,1.0,i,1.0,True,844.3000000119209,51.0,59.0,40.0,False,,305.9750071835963,[],"[640, 400]",ColorTask,82.0,56.0,,,HRV,HRV_0305,2022-11-30 21:44:24
,wl-rdm,175,471757,0.0-8.56-0.56,1.0,174.0,,,,,,,[],,,,,,50.0,0.0,u,0.0,True,1049.2999999821186,63.0,59.0,40.0,False,,217.93445538523352,[],"[640, 400]",ColorTask,83.0,57.0,,,HRV,HRV_0305,2022-11-30 21:44:24
,wl-rdm,176,473904,0.0-8.57-0.57,1.0,175.0,,,,,,,[],,,,,,87.9,1.0,i,1.0,True,711.9000000059605,43.0,59.0,40.0,False,,351.930076228002,[],"[640, 400]",ColorTask,84.0,58.0,,,HRV,HRV_0305,2022-11-30 21:44:24
,wl-rdm,177,476068,0.0-8.58-0.58,1.0,176.0,,,,,,,[],,,,,,87.9,0.0,u,0.0,True,760.7000000178814,45.0,59.0,40.0,False,,319.89619990119945,[],"[640, 400]",ColorTask,85.0,59.0,,,HRV,HRV_0305,2022-11-30 21:44:24
,wl-rdm,178,478234,0.0-8.59-0.59,1.0,177.0,,,,,,,[],,,,,,73.6,0.0,u,0.0,True,786.5999999940395,48.0,59.0,40.0,False,,285.1420073539939,[],"[640, 400]",ColorTask,86.0,60.0,,,HRV,HRV_0305,2022-11-30 21:44:24
,wl-rdm,179,480431,0.0-8.60-0.60,1.0,178.0,,,,,,,[],,,,,,62.5,0.0,u,0.0,True,863.6000000238419,52.0,59.0,40.0,False,,255.26021953657676,[],"[640, 400]",ColorTask,87.0,61.0,,,HRV,HRV_0305,2022-11-30 21:44:24
,wl-rdm,180,482430,0.0-8.61-0.61,1.0,179.0,,,,,,,[],,,,,,87.9,1.0,i,1.0,True,649.6000000238419,39.0,59.0,40.0,False,,276.1501891054541,[],"[640, 400]",ColorTask,88.0,62.0,,,HRV,HRV_0305,2022-11-30 21:44:24
,wl-rdm,181,484628,0.0-8.62-0.62,1.0,180.0,,,,,,,[],,,,,,53.2,0.0,u,0.0,True,785.8000000119209,48.0,59.0,40.0,False,,325.8884874888883,[],"[640, 400]",ColorTask,89.0,63.0,,,HRV,HRV_0305,2022-11-30 21:44:24
,wl-rdm,182,486810,0.0-8.63-0.63,1.0,181.0,,,,,,,[],,,,,,56.4,0.0,u,0.0,True,845.3000000119209,51.0,59.0,40.0,False,,253.76712896982175,[],"[640, 400]",ColorTask,90.0,64.0,,,HRV,HRV_0305,2022-11-30 21:44:24
,wl-rdm,183,488958,0.0-8.64-0.64,1.0,182.0,,,,,,,[],,,,,,87.9,1.0,i,1.0,True,726.0000000298023,44.0,59.0,40.0,False,,336.6772127184924,[],"[640, 400]",ColorTask,91.0,65.0,,,HRV,HRV_0305,2022-11-30 21:44:24
,wl-rdm,184,491272,0.0-8.65-0.65,1.0,183.0,,,,,,,[],,,,,,50.0,1.0,i,1.0,True,868.5999999940395,53.0,59.0,40.0,False,,358.4946346426194,[],"[640, 400]",ColorTask,92.0,66.0,,,HRV,HRV_0305,2022-11-30 21:44:24
,wl-rdm,185,493404,0.0-8.66-0.66,1.0,184.0,,,,,,,[],,,,,,53.2,1.0,u,0.0,False,861.9000000059605,51.0,59.0,40.0,False,,215.72300036160033,[],"[640, 400]",ColorTask,91.0,67.0,,,HRV,HRV_0305,2022-11-30 21:44:24
,wl-rdm,186,495618,0.0-8.67-0.67,1.0,185.0,,,,,,,[],,,,,,50.0,1.0,u,0.0,False,835.9000000059605,51.0,59.0,40.0,False,,302.37705937949033,[],"[640, 400]",ColorTask,90.0,68.0,,,HRV,HRV_0305,2022-11-30 21:44:24
,wl-rdm,187,497834,0.0-8.68-0.68,1.0,186.0,,,,,,,[],,,,,,87.9,0.0,u,0.0,True,891.0999999940395,54.0,59.0,40.0,False,,237.04478453810088,[],"[640, 400]",ColorTask,91.0,69.0,,,HRV,HRV_0305,2022-11-30 21:44:24
,wl-rdm,188,500164,0.0-8.69-0.69,1.0,187.0,,,,,,,[],,,,,,56.4,1.0,i,1.0,True,888.2000000178814,54.0,59.0,40.0,False,,362.89555673435126,[],"[640, 400]",ColorTask,92.0,70.0,,,HRV,HRV_0305,2022-11-30 21:44:24
,wl-rdm,189,502379,0.0-8.70-0.70,1.0,188.0,,,,,,,[],,,,,,62.5,0.0,u,0.0,True,912.9000000059605,55.0,59.0,40.0,False,,219.35394485115336,[],"[640, 400]",ColorTask,93.0,71.0,,,HRV,HRV_0305,2022-11-30 21:44:24
,wl-rdm,190,504827,0.0-8.71-0.71,1.0,189.0,,,,,,,[],,,,,,53.2,0.0,i,1.0,False,968.9000000059605,59.0,59.0,40.0,False,,356.86245292770684,[],"[640, 400]",ColorTask,92.0,72.0,,,HRV,HRV_0305,2022-11-30 21:44:24
,wl-rdm,191,507208,0.0-8.72-0.72,1.0,190.0,,,,,,,[],,,,,,50.0,1.0,u,0.0,False,1082.9000000059605,65.0,59.0,40.0,False,,218.76212091189038,[],"[640, 400]",ColorTask,91.0,73.0,,,HRV,HRV_0305,2022-11-30 21:44:24
,wl-rdm,192,509739,0.0-8.73-0.73,1.0,191.0,,,,,,,[],,,,,,56.4,0.0,u,0.0,True,1212.5999999642372,73.0,59.0,40.0,False,,233.7579614024334,[],"[640, 400]",ColorTask,92.0,74.0,,,HRV,HRV_0305,2022-11-30 21:44:24
,wl-rdm,193,511955,0.0-8.74-0.74,1.0,192.0,,,,,,,[],,,,,,87.9,0.0,u,0.0,True,862.6999999880791,52.0,59.0,40.0,False,,267.22216518533855,[],"[640, 400]",ColorTask,93.0,75.0,,,HRV,HRV_0305,2022-11-30 21:44:24
,wl-rdm,194,514019,0.0-8.75-0.75,1.0,193.0,,,,,,,[],,,,,,62.5,1.0,i,1.0,True,732.8000000119209,44.0,59.0,40.0,False,,257.43223810418795,[],"[640, 400]",ColorTask,94.0,76.0,,,HRV,HRV_0305,2022-11-30 21:44:24
,wl-rdm,195,516184,0.0-8.76-0.76,1.0,194.0,,,,,,,[],,,,,,62.5,0.0,i,1.0,False,851.3999999761581,52.0,59.0,40.0,False,,216.22363881075583,[],"[640, 400]",ColorTask,93.0,77.0,,,HRV,HRV_0305,2022-11-30 21:44:24
,wl-rdm,196,518498,0.0-8.77-0.77,1.0,195.0,,,,,,,[],,,,,,53.2,0.0,u,0.0,True,903.6999999880791,55.0,59.0,40.0,False,,318.16163195777386,[],"[640, 400]",ColorTask,94.0,78.0,,,HRV,HRV_0305,2022-11-30 21:44:24
,wl-rdm,197,520863,0.0-8.78-0.78,1.0,196.0,,,,,,,[],,,,,,62.5,0.0,i,1.0,False,1068.0999999940395,65.0,59.0,40.0,False,,221.3607127005803,[],"[640, 400]",ColorTask,93.0,79.0,,,HRV,HRV_0305,2022-11-30 21:44:24
,wl-rdm,198,522994,0.0-8.79-0.79,1.0,197.0,,,,,,,[],,,,,,56.4,0.0,u,0.0,True,796.0,48.0,59.0,40.0,False,,253.45719914750566,[],"[640, 400]",ColorTask,94.0,80.0,,,HRV,HRV_0305,2022-11-30 21:44:24
,wl-rdm,199,525026,0.0-8.80-0.80,1.0,198.0,,,,,,,[],,,,,,73.6,0.0,u,0.0,True,738.0999999940395,45.0,59.0,40.0,False,,205.86133895092075,[],"[640, 400]",ColorTask,95.0,81.0,,,HRV,HRV_0305,2022-11-30 21:44:24
,wl-rdm,200,527207,0.0-8.81-0.81,1.0,199.0,,,,,,,[],,,,,,50.0,1.0,u,0.0,False,869.7000000178814,53.0,59.0,40.0,False,,225.75673393933906,[],"[640, 400]",ColorTask,94.0,82.0,,,HRV,HRV_0305,2022-11-30 21:44:24
,wl-rdm,201,529274,0.0-8.82-0.82,1.0,200.0,,,,,,,[],,,,,,62.5,0.0,i,1.0,False,715.1999999880791,43.0,59.0,40.0,False,,276.1596017146799,[],"[640, 400]",ColorTask,93.0,83.0,,,HRV,HRV_0305,2022-11-30 21:44:24
,wl-rdm,202,531654,0.0-8.83-0.83,1.0,201.0,,,,,,,[],,,,,,56.4,0.0,u,0.0,True,1087.800000011921,66.0,59.0,40.0,False,,203.96463184049085,[],"[640, 400]",ColorTask,94.0,84.0,,,HRV,HRV_0305,2022-11-30 21:44:24
,wl-rdm,203,534018,0.0-8.84-0.84,1.0,202.0,,,,,,,[],,,,,,53.2,1.0,i,1.0,True,953.2999999821186,58.0,59.0,40.0,False,,303.7421303117818,[],"[640, 400]",ColorTask,95.0,85.0,,,HRV,HRV_0305,2022-11-30 21:44:24
,wl-rdm,204,536099,0.0-8.85-0.85,1.0,203.0,,,,,,,[],,,,,,87.9,0.0,u,0.0,True,775.9999999701977,47.0,59.0,40.0,False,,217.71078855695535,[],"[640, 400]",ColorTask,96.0,86.0,,,HRV,HRV_0305,2022-11-30 21:44:24
,wl-rdm,205,538165,0.0-8.86-0.86,1.0,204.0,,,,,,,[],,,,,,87.9,1.0,i,1.0,True,740.2999999821186,45.0,59.0,40.0,False,,236.6081896113448,[],"[640, 400]",ColorTask,97.0,87.0,,,HRV,HRV_0305,2022-11-30 21:44:24
,wl-rdm,206,540412,0.0-8.87-0.87,1.0,205.0,,,,,,,[],,,,,,62.5,1.0,u,0.0,False,867.0,52.0,59.0,40.0,False,,285.7906532969738,[],"[640, 400]",ColorTask,96.0,88.0,,,HRV,HRV_0305,2022-11-30 21:44:24
,wl-rdm,207,542727,0.0-8.88-0.88,1.0,206.0,,,,,,,[],,,,,,53.2,0.0,u,0.0,True,927.6999999880791,56.0,59.0,40.0,False,,308.6540360262452,[],"[640, 400]",ColorTask,97.0,89.0,,,HRV,HRV_0305,2022-11-30 21:44:24
,wl-rdm,208,544808,0.0-8.89-0.89,1.0,207.0,,,,,,,[],,,,,,73.6,0.0,u,0.0,True,752.5000000298023,46.0,59.0,40.0,False,,234.94014487034087,[],"[640, 400]",ColorTask,98.0,90.0,,,HRV,HRV_0305,2022-11-30 21:44:24
,wl-rdm,209,546757,0.0-8.90-0.90,1.0,208.0,,,,,,,[],,,,,,87.9,0.0,u,0.0,True,640.8000000119209,39.0,59.0,40.0,False,,217.51249218352996,[],"[640, 400]",ColorTask,99.0,91.0,,,HRV,HRV_0305,2022-11-30 21:44:24
,wl-rdm,210,548839,0.0-8.91-0.91,1.0,209.0,,,,,,,[],,,,,,62.5,1.0,i,1.0,True,755.7999999821186,46.0,59.0,40.0,False,,253.7812257905763,[],"[640, 400]",ColorTask,100.0,92.0,,,HRV,HRV_0305,2022-11-30 21:44:24
,wl-rdm,211,551020,0.0-8.92-0.92,1.0,210.0,,,,,,,[],,,,,,56.4,0.0,u,0.0,True,875.8999999761581,53.0,59.0,40.0,False,,202.56939401053916,[],"[640, 400]",ColorTask,101.0,93.0,,,HRV,HRV_0305,2022-11-30 21:44:24
,wl-rdm,212,553385,0.0-8.93-0.93,1.0,211.0,,,,,,,[],,,,,,53.2,1.0,u,0.0,False,1093.699999988079,66.0,59.0,40.0,False,,204.92679792351385,[],"[640, 400]",ColorTask,100.0,94.0,,,HRV,HRV_0305,2022-11-30 21:44:24
,wl-rdm,213,555466,0.0-8.94-0.94,1.0,212.0,,,,,,,[],,,,,,56.4,1.0,i,1.0,True,656.0,40.0,59.0,40.0,False,,352.70737796875153,[],"[640, 400]",ColorTask,101.0,95.0,,,HRV,HRV_0305,2022-11-30 21:44:24
,wl-rdm,214,557914,0.0-8.95-0.95,1.0,213.0,,,,,,,[],,,,,,50.0,0.0,u,0.0,True,1118.9000000059605,68.0,59.0,40.0,False,,243.28933446126211,[],"[640, 400]",ColorTask,102.0,96.0,,,HRV,HRV_0305,2022-11-30 21:44:24
,wl-rdm,215,560095,0.0-8.96-0.96,1.0,214.0,,,,,,,[],,,,,,50.0,0.0,u,0.0,True,884.5999999642372,54.0,59.0,40.0,False,,228.76284097985481,[],"[640, 400]",ColorTask,103.0,97.0,,,HRV,HRV_0305,2022-11-30 21:44:24
,wl-rdm,216,562278,0.0-8.97-0.97,1.0,215.0,,,,,,,[],,,,,,62.5,1.0,i,1.0,True,759.1999999880791,46.0,59.0,40.0,False,,354.00659344838584,[],"[640, 400]",ColorTask,104.0,98.0,,,HRV,HRV_0305,2022-11-30 21:44:24
,wl-rdm,217,564358,0.0-8.98-0.98,1.0,216.0,,,,,,,[],,,,,,87.9,1.0,i,1.0,True,674.2000000178814,41.0,59.0,40.0,False,,334.09454045812595,[],"[640, 400]",ColorTask,105.0,99.0,,,HRV,HRV_0305,2022-11-30 21:44:24
,wl-rdm,218,566440,0.0-8.99-0.99,1.0,217.0,,,,,,,[],,,,,,50.0,1.0,u,0.0,False,761.5999999940395,46.0,59.0,40.0,False,,248.6249161323409,[],"[640, 400]",ColorTask,104.0,100.0,,,HRV,HRV_0305,2022-11-30 21:44:24
,wl-rdm,219,568789,0.0-8.100-0.100,1.0,218.0,,,,,,,[],,,,,,73.6,0.0,u,0.0,True,984.4000000059605,60.0,59.0,40.0,False,,275.20493506162995,[],"[640, 400]",ColorTask,105.0,101.0,,,HRV,HRV_0305,2022-11-30 21:44:24
,wl-rdm,220,571036,0.0-8.101-0.101,1.0,219.0,,,,,,,[],,,,,,53.2,0.0,u,0.0,True,897.5999999940395,54.0,59.0,40.0,False,,279.12150830199937,[],"[640, 400]",ColorTask,106.0,102.0,,,HRV,HRV_0305,2022-11-30 21:44:24
,wl-rdm,221,573201,0.0-8.102-0.102,1.0,220.0,,,,,,,[],,,,,,50.0,1.0,i,1.0,True,674.0000000298023,41.0,59.0,40.0,False,,398.86607976844556,[],"[640, 400]",ColorTask,107.0,103.0,,,HRV,HRV_0305,2022-11-30 21:44:24
,wl-rdm,222,575383,0.0-8.103-0.103,1.0,221.0,,,,,,,[],,,,,,87.9,0.0,u,0.0,True,743.8000000119209,45.0,59.0,40.0,False,,364.209883138946,[],"[640, 400]",ColorTask,108.0,104.0,,,HRV,HRV_0305,2022-11-30 21:44:24
,wl-rdm,223,577448,0.0-8.104-0.104,1.0,222.0,,,,,,,[],,,,,,50.0,0.0,i,1.0,False,781.0999999940395,46.0,59.0,40.0,False,,206.8578177969597,[],"[640, 400]",ColorTask,107.0,105.0,,,HRV,HRV_0305,2022-11-30 21:44:24
,wl-rdm,224,579580,0.0-8.105-0.105,1.0,223.0,,,,,,,[],,,,,,50.0,0.0,u,0.0,True,751.1999999880791,46.0,59.0,40.0,False,,291.09615458538394,[],"[640, 400]",ColorTask,108.0,106.0,,,HRV,HRV_0305,2022-11-30 21:44:24
,wl-rdm,225,581827,0.0-8.106-0.106,1.0,224.0,,,,,,,[],,,,,,87.9,0.0,u,0.0,True,794.0999999940395,48.0,59.0,40.0,False,,372.65645588584914,[],"[640, 400]",ColorTask,109.0,107.0,,,HRV,HRV_0305,2022-11-30 21:44:24
,wl-rdm,226,584008,0.0-8.107-0.107,1.0,225.0,,,,,,,[],,,,,,73.6,1.0,i,1.0,True,836.1000000238419,51.0,59.0,40.0,False,,265.7002572865505,[],"[640, 400]",ColorTask,110.0,108.0,,,HRV,HRV_0305,2022-11-30 21:44:24
,wl-html-button-response,227,587552,0.0-9.0-0.0,,,,,,,,,,3534.699999988079,,0,,,,,,,,,,,,,,,,,,,,<h3>End of this session. Thank you!</h3><br>,['Close window'],HRV,HRV_0305,2022-11-30 21:44:24
