trialN,stimuli,question,trialStartTime,trialStartTime_UNIX,stimulus1,rt,receivedResponse,rating,trialEndTime,trialDuration,stimulus1Loaded,exp,subjectId,date
0,"[{'imgObject': {}, 'id': 'eggs', 'src': '/static/foodstim60/eggs.jpg', 'key': 'NaN', 'origWidth': 409, 'origHeight': 409, 'width': 409, 'height': 409, 'widthPercent': 0.8, 'rescaleHeight': True, 'trialN': 0, 'loaded': True, 'loadedTime': 1751.5, 'positionName': 'CENTER', 'positionCoords': [435.5, 195.5]}]",Rate how much you want to eat this food from 0 (least) to 10 (most).,2253.2000000178814,1669843352745,eggs,2193.199999988079,True,0.0,4446.4000000059605,2193.199999988079,True,HRV,HRV_0305,2022-11-30 21:24:53
1,"[{'imgObject': {}, 'id': 'Grapes', 'src': '/static/foodstim60/Grapes.jpg', 'key': 'NaN', 'origWidth': 411, 'origHeight': 411, 'width': 411, 'height': 411, 'widthPercent': 0.8, 'rescaleHeight': True, 'trialN': 1, 'loaded': True, 'loadedTime': 1761.4000000059605, 'positionName': 'CENTER', 'positionCoords': [434.5, 194.5]}]",Rate how much you want to eat this food from 0 (least) to 10 (most).,4449.200000017881,1669843354941,Grapes,2125.199999988079,True,1.6500000000000001,6574.4000000059605,2125.199999988079,True,HRV,HRV_0305,2022-11-30 21:24:53
2,"[{'imgObject': {}, 'id': 'grilled chicken strips', 'src': '/static/foodstim60/grilled chicken strips.jpg', 'key': 'NaN', 'origWidth': 410, 'origHeight': 411, 'width': 410, 'height': 411, 'widthPercent': 0.8, 'rescaleHeight': True, 'trialN': 2, 'loaded': True, 'loadedTime': 1776.4000000059605, 'positionName': 'CENTER', 'positionCoords': [435, 194.5]}]",Rate how much you want to eat this food from 0 (least) to 10 (most).,6575.4000000059605,1669843357067,grilled chicken strips,3263.0,True,1.85,9838.40000000596,3263.0,True,HRV,HRV_0305,2022-11-30 21:24:53
3,"[{'imgObject': {}, 'id': 'bagel plain', 'src': '/static/foodstim60/bagel plain.jpg', 'key': 'NaN', 'origWidth': 410, 'origHeight': 410, 'width': 410, 'height': 410, 'widthPercent': 0.8, 'rescaleHeight': True, 'trialN': 3, 'loaded': True, 'loadedTime': 1780.1000000238419, 'positionName': 'CENTER', 'positionCoords': [435, 195]}]",Rate how much you want to eat this food from 0 (least) to 10 (most).,9839.300000011921,1669843360331,bagel plain,1951.199999988079,True,3.34,11790.5,1951.199999988079,True,HRV,HRV_0305,2022-11-30 21:24:53
4,"[{'imgObject': {}, 'id': 'roastedpotatoes', 'src': '/static/foodstim60/roastedpotatoes.jpg', 'key': 'NaN', 'origWidth': 409, 'origHeight': 410, 'width': 409, 'height': 410, 'widthPercent': 0.8, 'rescaleHeight': True, 'trialN': 4, 'loaded': True, 'loadedTime': 1777.800000011921, 'positionName': 'CENTER', 'positionCoords': [435.5, 195]}]",Rate how much you want to eat this food from 0 (least) to 10 (most).,11791.300000011921,1669843362283,roastedpotatoes,3334.800000011921,True,2.81,15126.100000023842,3334.800000011921,True,HRV,HRV_0305,2022-11-30 21:24:53
5,"[{'imgObject': {}, 'id': 'fried eggs', 'src': '/static/foodstim60/fried eggs.jpg', 'key': 'NaN', 'origWidth': 410, 'origHeight': 410, 'width': 410, 'height': 410, 'widthPercent': 0.8, 'rescaleHeight': True, 'trialN': 5, 'loaded': True, 'loadedTime': 1772.7000000178814, 'positionName': 'CENTER', 'positionCoords': [435, 195]}]",Rate how much you want to eat this food from 0 (least) to 10 (most).,15126.90000000596,1669843365619,fried eggs,2551.4000000059605,True,0.26,17678.30000001192,2551.4000000059605,True,HRV,HRV_0305,2022-11-30 21:24:53
6,"[{'imgObject': {}, 'id': 'tacos', 'src': '/static/foodstim60/tacos.jpg', 'key': 'NaN', 'origWidth': 411, 'origHeight': 411, 'width': 411, 'height': 411, 'widthPercent': 0.8, 'rescaleHeight': True, 'trialN': 6, 'loaded': True, 'loadedTime': 1817.800000011921, 'positionName': 'CENTER', 'positionCoords': [434.5, 194.5]}]",Rate how much you want to eat this food from 0 (least) to 10 (most).,17679.100000023842,1669843368171,tacos,2887.0999999940395,True,1.04,20566.20000001788,2887.0999999940395,True,HRV,HRV_0305,2022-11-30 21:24:53
7,"[{'imgObject': {}, 'id': 'blueberries', 'src': '/static/foodstim60/blueberries.jpg', 'key': 'NaN', 'origWidth': 411, 'origHeight': 411, 'width': 411, 'height': 411, 'widthPercent': 0.8, 'rescaleHeight': True, 'trialN': 7, 'loaded': True, 'loadedTime': 1800.800000011921, 'positionName': 'CENTER', 'positionCoords': [434.5, 194.5]}]",Rate how much you want to eat this food from 0 (least) to 10 (most).,20567.0,1669843371059,blueberries,2071.600000023842,True,2.09,22638.600000023842,2071.600000023842,True,HRV,HRV_0305,2022-11-30 21:24:53
8,"[{'imgObject': {}, 'id': 'salmon', 'src': '/static/foodstim60/salmon.jpg', 'key': 'NaN', 'origWidth': 410, 'origHeight': 409, 'width': 410, 'height': 409, 'widthPercent': 0.8, 'rescaleHeight': True, 'trialN': 8, 'loaded': True, 'loadedTime': 1814.6000000238419, 'positionName': 'CENTER', 'positionCoords': [435, 195.5]}]",Rate how much you want to eat this food from 0 (least) to 10 (most).,22639.5,1669843373131,salmon,3910.600000023842,True,1.6,26550.100000023842,3910.600000023842,True,HRV,HRV_0305,2022-11-30 21:24:53
9,"[{'imgObject': {}, 'id': 'froot loops w milk', 'src': '/static/foodstim60/froot loops w milk.jpg', 'key': 'NaN', 'origWidth': 410, 'origHeight': 410, 'width': 410, 'height': 410, 'widthPercent': 0.8, 'rescaleHeight': True, 'trialN': 9, 'loaded': True, 'loadedTime': 1853.9000000059605, 'positionName': 'CENTER', 'positionCoords': [435, 195]}]",Rate how much you want to eat this food from 0 (least) to 10 (most).,26551.100000023842,1669843377043,froot loops w milk,1871.199999988079,True,0.07,28422.30000001192,1871.199999988079,True,HRV,HRV_0305,2022-11-30 21:24:53
10,"[{'imgObject': {}, 'id': 'rigatoni', 'src': '/static/foodstim60/rigatoni.jpg', 'key': 'NaN', 'origWidth': 411, 'origHeight': 411, 'width': 411, 'height': 411, 'widthPercent': 0.8, 'rescaleHeight': True, 'trialN': 10, 'loaded': True, 'loadedTime': 1834, 'positionName': 'CENTER', 'positionCoords': [434.5, 194.5]}]",Rate how much you want to eat this food from 0 (least) to 10 (most).,28423.30000001192,1669843378915,rigatoni,1559.4000000059605,True,0.01,29982.70000001788,1559.4000000059605,True,HRV,HRV_0305,2022-11-30 21:24:53
11,"[{'imgObject': {}, 'id': 'chickenfingers', 'src': '/static/foodstim60/chickenfingers.jpg', 'key': 'NaN', 'origWidth': 410, 'origHeight': 410, 'width': 410, 'height': 410, 'widthPercent': 0.8, 'rescaleHeight': True, 'trialN': 11, 'loaded': True, 'loadedTime': 1842.6000000238419, 'positionName': 'CENTER', 'positionCoords': [435, 195]}]",Rate how much you want to eat this food from 0 (least) to 10 (most).,29983.70000001788,1669843380476,chickenfingers,2910.699999988079,True,0.25,32894.40000000596,2910.699999988079,True,HRV,HRV_0305,2022-11-30 21:24:53
12,"[{'imgObject': {}, 'id': 'salad w chicken', 'src': '/static/foodstim60/salad w chicken.jpg', 'key': 'NaN', 'origWidth': 411, 'origHeight': 411, 'width': 411, 'height': 411, 'widthPercent': 0.8, 'rescaleHeight': True, 'trialN': 12, 'loaded': True, 'loadedTime': 1846.800000011921, 'positionName': 'CENTER', 'positionCoords': [434.5, 194.5]}]",Rate how much you want to eat this food from 0 (least) to 10 (most).,32895.5,1669843383387,salad w chicken,1655.300000011921,True,1.56,34550.80000001192,1655.300000011921,True,HRV,HRV_0305,2022-11-30 21:24:53
13,"[{'imgObject': {}, 'id': 'corn cob', 'src': '/static/foodstim60/corn cob.jpg', 'key': 'NaN', 'origWidth': 411, 'origHeight': 411, 'width': 411, 'height': 411, 'widthPercent': 0.8, 'rescaleHeight': True, 'trialN': 13, 'loaded': True, 'loadedTime': 1850, 'positionName': 'CENTER', 'positionCoords': [434.5, 194.5]}]",Rate how much you want to eat this food from 0 (least) to 10 (most).,34551.80000001192,1669843385044,corn cob,1607.0,True,0.0,36158.80000001192,1607.0,True,HRV,HRV_0305,2022-11-30 21:24:53
14,"[{'imgObject': {}, 'id': 'bagel and cc', 'src': '/static/foodstim60/bagel and cc.jpg', 'key': 'NaN', 'origWidth': 410, 'origHeight': 410, 'width': 410, 'height': 410, 'widthPercent': 0.8, 'rescaleHeight': True, 'trialN': 14, 'loaded': True, 'loadedTime': 1865.1000000238419, 'positionName': 'CENTER', 'positionCoords': [435, 195]}]",Rate how much you want to eat this food from 0 (least) to 10 (most).,36159.80000001192,1669843386652,bagel and cc,1478.699999988079,True,2.57,37638.5,1478.699999988079,True,HRV,HRV_0305,2022-11-30 21:24:53
15,"[{'imgObject': {}, 'id': 'ice cream sundae 002', 'src': '/static/foodstim60/ice cream sundae 002.jpg', 'key': 'NaN', 'origWidth': 409, 'origHeight': 409, 'width': 409, 'height': 409, 'widthPercent': 0.8, 'rescaleHeight': True, 'trialN': 15, 'loaded': True, 'loadedTime': 1899.300000011921, 'positionName': 'CENTER', 'positionCoords': [435.5, 195.5]}]",Rate how much you want to eat this food from 0 (least) to 10 (most).,37639.60000002384,1669843388132,ice cream sundae 002,3366.7999999821186,True,0.53,41006.40000000596,3366.7999999821186,True,HRV,HRV_0305,2022-11-30 21:24:53
16,"[{'imgObject': {}, 'id': 'mashed potato', 'src': '/static/foodstim60/mashed potato.jpg', 'key': 'NaN', 'origWidth': 409, 'origHeight': 409, 'width': 409, 'height': 409, 'widthPercent': 0.8, 'rescaleHeight': True, 'trialN': 16, 'loaded': True, 'loadedTime': 1905.1000000238419, 'positionName': 'CENTER', 'positionCoords': [435.5, 195.5]}]",Rate how much you want to eat this food from 0 (least) to 10 (most).,41007.5,1669843391499,mashed potato,3151.100000023842,True,0.06,44158.60000002384,3151.100000023842,True,HRV,HRV_0305,2022-11-30 21:24:53
17,"[{'imgObject': {}, 'id': 'blackbeanswithrice', 'src': '/static/foodstim60/blackbeanswithrice.jpg', 'key': 'NaN', 'origWidth': 410, 'origHeight': 410, 'width': 410, 'height': 410, 'widthPercent': 0.8, 'rescaleHeight': True, 'trialN': 17, 'loaded': True, 'loadedTime': 1915, 'positionName': 'CENTER', 'positionCoords': [435, 195]}]",Rate how much you want to eat this food from 0 (least) to 10 (most).,44159.70000001788,1669843394651,blackbeanswithrice,2119.2999999821186,True,0.56,46279.0,2119.2999999821186,True,HRV,HRV_0305,2022-11-30 21:24:53
18,"[{'imgObject': {}, 'id': 'hashbrowns', 'src': '/static/foodstim60/hashbrowns.jpg', 'key': 'NaN', 'origWidth': 411, 'origHeight': 410, 'width': 411, 'height': 410, 'widthPercent': 0.8, 'rescaleHeight': True, 'trialN': 18, 'loaded': True, 'loadedTime': 1909, 'positionName': 'CENTER', 'positionCoords': [434.5, 195]}]",Rate how much you want to eat this food from 0 (least) to 10 (most).,46280.10000002384,1669843396772,hashbrowns,3086.7999999821186,True,0.0,49366.90000000596,3086.7999999821186,True,HRV,HRV_0305,2022-11-30 21:24:53
19,"[{'imgObject': {}, 'id': 'baked potato', 'src': '/static/foodstim60/baked potato.jpg', 'key': 'NaN', 'origWidth': 409, 'origHeight': 410, 'width': 409, 'height': 410, 'widthPercent': 0.8, 'rescaleHeight': True, 'trialN': 19, 'loaded': True, 'loadedTime': 1918.7000000178814, 'positionName': 'CENTER', 'positionCoords': [435.5, 195]}]",Rate how much you want to eat this food from 0 (least) to 10 (most).,49368.20000001788,1669843399860,baked potato,2230.699999988079,True,2.21,51598.90000000596,2230.699999988079,True,HRV,HRV_0305,2022-11-30 21:24:53
20,"[{'imgObject': {}, 'id': 'sushi w_condiments', 'src': '/static/foodstim60/sushi w_condiments.jpg', 'key': 'NaN', 'origWidth': 410, 'origHeight': 410, 'width': 410, 'height': 410, 'widthPercent': 0.8, 'rescaleHeight': True, 'trialN': 20, 'loaded': True, 'loadedTime': 1920.4000000059605, 'positionName': 'CENTER', 'positionCoords': [435, 195]}]",Rate how much you want to eat this food from 0 (least) to 10 (most).,51600.10000002384,1669843402092,sushi w_condiments,2222.5999999940395,True,0.12,53822.70000001788,2222.5999999940395,True,HRV,HRV_0305,2022-11-30 21:24:53
21,"[{'imgObject': {}, 'id': 'omelette', 'src': '/static/foodstim60/omelette.jpg', 'key': 'NaN', 'origWidth': 410, 'origHeight': 409, 'width': 410, 'height': 409, 'widthPercent': 0.8, 'rescaleHeight': True, 'trialN': 21, 'loaded': True, 'loadedTime': 1941.300000011921, 'positionName': 'CENTER', 'positionCoords': [435, 195.5]}]",Rate how much you want to eat this food from 0 (least) to 10 (most).,53823.90000000596,1669843404316,omelette,3063.2000000178814,True,0.1,56887.10000002384,3063.2000000178814,True,HRV,HRV_0305,2022-11-30 21:24:53
22,"[{'imgObject': {}, 'id': 'fruitsalad', 'src': '/static/foodstim60/fruitsalad.jpg', 'key': 'NaN', 'origWidth': 410, 'origHeight': 410, 'width': 410, 'height': 410, 'widthPercent': 0.8, 'rescaleHeight': True, 'trialN': 22, 'loaded': True, 'loadedTime': 1944, 'positionName': 'CENTER', 'positionCoords': [435, 195]}]",Rate how much you want to eat this food from 0 (least) to 10 (most).,56888.30000001192,1669843407380,fruitsalad,2190.800000011921,True,2.43,59079.10000002384,2190.800000011921,True,HRV,HRV_0305,2022-11-30 21:24:53
23,"[{'imgObject': {}, 'id': 'avocado', 'src': '/static/foodstim60/avocado.jpg', 'key': 'NaN', 'origWidth': 409, 'origHeight': 409, 'width': 409, 'height': 409, 'widthPercent': 0.8, 'rescaleHeight': True, 'trialN': 23, 'loaded': True, 'loadedTime': 1951.2000000178814, 'positionName': 'CENTER', 'positionCoords': [435.5, 195.5]}]",Rate how much you want to eat this food from 0 (least) to 10 (most).,59080.30000001192,1669843409572,avocado,1814.800000011921,True,0.01,60895.10000002384,1814.800000011921,True,HRV,HRV_0305,2022-11-30 21:24:53
24,"[{'imgObject': {}, 'id': 'shreddedwheatwithmilk', 'src': '/static/foodstim60/shreddedwheatwithmilk.jpg', 'key': 'NaN', 'origWidth': 410, 'origHeight': 410, 'width': 410, 'height': 410, 'widthPercent': 0.8, 'rescaleHeight': True, 'trialN': 24, 'loaded': True, 'loadedTime': 1954.6000000238419, 'positionName': 'CENTER', 'positionCoords': [435, 195]}]",Rate how much you want to eat this food from 0 (least) to 10 (most).,60896.30000001192,1669843411388,shreddedwheatwithmilk,2022.5,True,0.0,62918.80000001192,2022.5,True,HRV,HRV_0305,2022-11-30 21:24:53
25,"[{'imgObject': {}, 'id': 'yogurt no spoon', 'src': '/static/foodstim60/yogurt no spoon.jpg', 'key': 'NaN', 'origWidth': 411, 'origHeight': 410, 'width': 411, 'height': 410, 'widthPercent': 0.8, 'rescaleHeight': True, 'trialN': 25, 'loaded': True, 'loadedTime': 1957.9000000059605, 'positionName': 'CENTER', 'positionCoords': [434.5, 195]}]",Rate how much you want to eat this food from 0 (least) to 10 (most).,62920.20000001788,1669843413412,yogurt no spoon,1838.699999988079,True,0.75,64758.90000000596,1838.699999988079,True,HRV,HRV_0305,2022-11-30 21:24:53
26,"[{'imgObject': {}, 'id': 'edamame', 'src': '/static/foodstim60/edamame.jpg', 'key': 'NaN', 'origWidth': 409, 'origHeight': 410, 'width': 409, 'height': 410, 'widthPercent': 0.8, 'rescaleHeight': True, 'trialN': 26, 'loaded': True, 'loadedTime': 1961.800000011921, 'positionName': 'CENTER', 'positionCoords': [435.5, 195]}]",Rate how much you want to eat this food from 0 (least) to 10 (most).,64760.20000001788,1669843415252,edamame,2854.9000000059605,True,0.25,67615.10000002384,2854.9000000059605,True,HRV,HRV_0305,2022-11-30 21:24:53
27,"[{'imgObject': {}, 'id': 'lox', 'src': '/static/foodstim60/lox.jpg', 'key': 'NaN', 'origWidth': 410, 'origHeight': 411, 'width': 410, 'height': 411, 'widthPercent': 0.8, 'rescaleHeight': True, 'trialN': 27, 'loaded': True, 'loadedTime': 1989.4000000059605, 'positionName': 'CENTER', 'positionCoords': [435, 194.5]}]",Rate how much you want to eat this food from 0 (least) to 10 (most).,67616.5,1669843418108,lox,2062.800000011921,True,0.07,69679.30000001192,2062.800000011921,True,HRV,HRV_0305,2022-11-30 21:24:53
28,"[{'imgObject': {}, 'id': 'luckycharms', 'src': '/static/foodstim60/luckycharms.jpg', 'key': 'NaN', 'origWidth': 410, 'origHeight': 409, 'width': 410, 'height': 409, 'widthPercent': 0.8, 'rescaleHeight': True, 'trialN': 28, 'loaded': True, 'loadedTime': 1992.300000011921, 'positionName': 'CENTER', 'positionCoords': [435, 195.5]}]",Rate how much you want to eat this food from 0 (least) to 10 (most).,69680.60000002384,1669843420172,luckycharms,2590.399999976158,True,0.0,72271.0,2590.399999976158,True,HRV,HRV_0305,2022-11-30 21:24:53
29,"[{'imgObject': {}, 'id': 'cherries', 'src': '/static/foodstim60/cherries.jpg', 'key': 'NaN', 'origWidth': 410, 'origHeight': 411, 'width': 410, 'height': 411, 'widthPercent': 0.8, 'rescaleHeight': True, 'trialN': 29, 'loaded': True, 'loadedTime': 1999.800000011921, 'positionName': 'CENTER', 'positionCoords': [435, 194.5]}]",Rate how much you want to eat this food from 0 (least) to 10 (most).,72272.30000001192,1669843422764,cherries,1903.0999999940395,True,1.07,74175.40000000596,1903.0999999940395,True,HRV,HRV_0305,2022-11-30 21:24:53
30,"[{'imgObject': {}, 'id': 'olives', 'src': '/static/foodstim60/olives.jpg', 'key': 'NaN', 'origWidth': 410, 'origHeight': 410, 'width': 410, 'height': 410, 'widthPercent': 0.8, 'rescaleHeight': True, 'trialN': 30, 'loaded': True, 'loadedTime': 2002.6000000238419, 'positionName': 'CENTER', 'positionCoords': [435, 195]}]",Rate how much you want to eat this food from 0 (least) to 10 (most).,74176.60000002384,1669843424668,olives,2390.2999999821186,True,0.04,76566.90000000596,2390.2999999821186,True,HRV,HRV_0305,2022-11-30 21:24:53
31,"[{'imgObject': {}, 'id': 'turkey sandwich', 'src': '/static/foodstim60/turkey sandwich.jpg', 'key': 'NaN', 'origWidth': 409, 'origHeight': 409, 'width': 409, 'height': 409, 'widthPercent': 0.8, 'rescaleHeight': True, 'trialN': 31, 'loaded': True, 'loadedTime': 1998, 'positionName': 'CENTER', 'positionCoords': [435.5, 195.5]}]",Rate how much you want to eat this food from 0 (least) to 10 (most).,76567.70000001788,1669843427060,turkey sandwich,1727.199999988079,True,0.75,78294.90000000596,1727.199999988079,True,HRV,HRV_0305,2022-11-30 21:24:53
32,"[{'imgObject': {}, 'id': 'hotdog w must', 'src': '/static/foodstim60/hotdog w must.jpg', 'key': 'NaN', 'origWidth': 409, 'origHeight': 409, 'width': 409, 'height': 409, 'widthPercent': 0.8, 'rescaleHeight': True, 'trialN': 32, 'loaded': True, 'loadedTime': 2021.4000000059605, 'positionName': 'CENTER', 'positionCoords': [435.5, 195.5]}]",Rate how much you want to eat this food from 0 (least) to 10 (most).,78295.70000001788,1669843428788,hotdog w must,2031.4000000059605,True,0.1,80327.10000002384,2031.4000000059605,True,HRV,HRV_0305,2022-11-30 21:24:53
33,"[{'imgObject': {}, 'id': 'pear', 'src': '/static/foodstim60/pear.jpg', 'key': 'NaN', 'origWidth': 411, 'origHeight': 410, 'width': 411, 'height': 410, 'widthPercent': 0.8, 'rescaleHeight': True, 'trialN': 33, 'loaded': True, 'loadedTime': 2036.1000000238419, 'positionName': 'CENTER', 'positionCoords': [434.5, 195]}]",Rate how much you want to eat this food from 0 (least) to 10 (most).,80327.80000001192,1669843430820,pear,1559.699999988079,True,1.75,81887.5,1559.699999988079,True,HRV,HRV_0305,2022-11-30 21:24:53
34,"[{'imgObject': {}, 'id': 'veggieswithdip', 'src': '/static/foodstim60/veggieswithdip.jpg', 'key': 'NaN', 'origWidth': 409, 'origHeight': 409, 'width': 409, 'height': 409, 'widthPercent': 0.8, 'rescaleHeight': True, 'trialN': 34, 'loaded': True, 'loadedTime': 2045.1000000238419, 'positionName': 'CENTER', 'positionCoords': [435.5, 195.5]}]",Rate how much you want to eat this food from 0 (least) to 10 (most).,81888.30000001192,1669843432380,veggieswithdip,2158.5999999940395,True,0.67,84046.90000000596,2158.5999999940395,True,HRV,HRV_0305,2022-11-30 21:24:53
35,"[{'imgObject': {}, 'id': 'burrito', 'src': '/static/foodstim60/burrito.jpg', 'key': 'NaN', 'origWidth': 410, 'origHeight': 410, 'width': 410, 'height': 410, 'widthPercent': 0.8, 'rescaleHeight': True, 'trialN': 35, 'loaded': True, 'loadedTime': 2043.1000000238419, 'positionName': 'CENTER', 'positionCoords': [435, 195]}]",Rate how much you want to eat this food from 0 (least) to 10 (most).,84047.80000001192,1669843434540,burrito,1967.4000000059605,True,1.09,86015.20000001788,1967.4000000059605,True,HRV,HRV_0305,2022-11-30 21:24:53
36,"[{'imgObject': {}, 'id': 'steak', 'src': '/static/foodstim60/steak.jpg', 'key': 'NaN', 'origWidth': 410, 'origHeight': 410, 'width': 410, 'height': 410, 'widthPercent': 0.8, 'rescaleHeight': True, 'trialN': 36, 'loaded': True, 'loadedTime': 2049.7000000178814, 'positionName': 'CENTER', 'positionCoords': [435, 195]}]",Rate how much you want to eat this food from 0 (least) to 10 (most).,86016.0,1669843436508,steak,4631.4000000059605,True,1.07,90647.40000000596,4631.4000000059605,True,HRV,HRV_0305,2022-11-30 21:24:53
37,"[{'imgObject': {}, 'id': 'cherry tomato', 'src': '/static/foodstim60/cherry tomato.jpg', 'key': 'NaN', 'origWidth': 410, 'origHeight': 410, 'width': 410, 'height': 410, 'widthPercent': 0.8, 'rescaleHeight': True, 'trialN': 37, 'loaded': True, 'loadedTime': 2047.800000011921, 'positionName': 'CENTER', 'positionCoords': [435, 195]}]",Rate how much you want to eat this food from 0 (least) to 10 (most).,90648.20000001788,1669843441140,cherry tomato,2567.2999999821186,True,0.73,93215.5,2567.2999999821186,True,HRV,HRV_0305,2022-11-30 21:24:53
38,"[{'imgObject': {}, 'id': 'cheerios', 'src': '/static/foodstim60/cheerios.jpg', 'key': 'NaN', 'origWidth': 409, 'origHeight': 410, 'width': 409, 'height': 410, 'widthPercent': 0.8, 'rescaleHeight': True, 'trialN': 38, 'loaded': True, 'loadedTime': 2074.800000011921, 'positionName': 'CENTER', 'positionCoords': [435.5, 195]}]",Rate how much you want to eat this food from 0 (least) to 10 (most).,93216.40000000596,1669843443708,cheerios,1846.800000011921,True,0.12,95063.20000001788,1846.800000011921,True,HRV,HRV_0305,2022-11-30 21:24:53
39,"[{'imgObject': {}, 'id': 'banana', 'src': '/static/foodstim60/banana.jpg', 'key': 'NaN', 'origWidth': 410, 'origHeight': 410, 'width': 410, 'height': 410, 'widthPercent': 0.8, 'rescaleHeight': True, 'trialN': 39, 'loaded': True, 'loadedTime': 2097, 'positionName': 'CENTER', 'positionCoords': [435, 195]}]",Rate how much you want to eat this food from 0 (least) to 10 (most).,95064.20000001788,1669843445556,banana,2015.0999999940395,True,0.12,97079.30000001192,2015.0999999940395,True,HRV,HRV_0305,2022-11-30 21:24:53
40,"[{'imgObject': {}, 'id': 'strawberries', 'src': '/static/foodstim60/strawberries.jpg', 'key': 'NaN', 'origWidth': 410, 'origHeight': 410, 'width': 410, 'height': 410, 'widthPercent': 0.8, 'rescaleHeight': True, 'trialN': 40, 'loaded': True, 'loadedTime': 2101.9000000059605, 'positionName': 'CENTER', 'positionCoords': [435, 195]}]",Rate how much you want to eat this food from 0 (least) to 10 (most).,97080.20000001788,1669843447572,strawberries,1415.4000000059605,True,1.59,98495.60000002384,1415.4000000059605,True,HRV,HRV_0305,2022-11-30 21:24:53
41,"[{'imgObject': {}, 'id': 'orange slices', 'src': '/static/foodstim60/orange slices.jpg', 'key': 'NaN', 'origWidth': 409, 'origHeight': 410, 'width': 409, 'height': 410, 'widthPercent': 0.8, 'rescaleHeight': True, 'trialN': 41, 'loaded': True, 'loadedTime': 2094.600000023842, 'positionName': 'CENTER', 'positionCoords': [435.5, 195]}]",Rate how much you want to eat this food from 0 (least) to 10 (most).,98496.5,1669843448988,orange slices,2175.2000000178814,True,1.87,100671.70000001788,2175.2000000178814,True,HRV,HRV_0305,2022-11-30 21:24:53
42,"[{'imgObject': {}, 'id': 'eggsalad', 'src': '/static/foodstim60/eggsalad.jpg', 'key': 'NaN', 'origWidth': 410, 'origHeight': 409, 'width': 410, 'height': 409, 'widthPercent': 0.8, 'rescaleHeight': True, 'trialN': 42, 'loaded': True, 'loadedTime': 2103.7000000178814, 'positionName': 'CENTER', 'positionCoords': [435, 195.5]}]",Rate how much you want to eat this food from 0 (least) to 10 (most).,100672.60000002384,1669843451164,eggsalad,3638.7999999821186,True,0.07,104311.40000000596,3638.7999999821186,True,HRV,HRV_0305,2022-11-30 21:24:53
43,"[{'imgObject': {}, 'id': 'Tribe humus pita', 'src': '/static/foodstim60/Tribe humus pita.jpg', 'key': 'NaN', 'origWidth': 411, 'origHeight': 411, 'width': 411, 'height': 411, 'widthPercent': 0.8, 'rescaleHeight': True, 'trialN': 43, 'loaded': True, 'loadedTime': 2092, 'positionName': 'CENTER', 'positionCoords': [434.5, 194.5]}]",Rate how much you want to eat this food from 0 (least) to 10 (most).,104312.40000000596,1669843454804,Tribe humus pita,2374.800000011921,True,0.09,106687.20000001788,2374.800000011921,True,HRV,HRV_0305,2022-11-30 21:24:53
44,"[{'imgObject': {}, 'id': 'mac & cheese', 'src': '/static/foodstim60/mac & cheese.jpg', 'key': 'NaN', 'origWidth': 410, 'origHeight': 410, 'width': 410, 'height': 410, 'widthPercent': 0.8, 'rescaleHeight': True, 'trialN': 44, 'loaded': True, 'loadedTime': 2120.600000023842, 'positionName': 'CENTER', 'positionCoords': [435, 195]}]",Rate how much you want to eat this food from 0 (least) to 10 (most).,106688.20000001788,1669843457180,mac & cheese,2255.199999988079,True,0.04,108943.40000000596,2255.199999988079,True,HRV,HRV_0305,2022-11-30 21:24:53
45,"[{'imgObject': {}, 'id': 'mango', 'src': '/static/foodstim60/mango.jpg', 'key': 'NaN', 'origWidth': 411, 'origHeight': 411, 'width': 411, 'height': 411, 'widthPercent': 0.8, 'rescaleHeight': True, 'trialN': 45, 'loaded': True, 'loadedTime': 2148.2000000178814, 'positionName': 'CENTER', 'positionCoords': [434.5, 194.5]}]",Rate how much you want to eat this food from 0 (least) to 10 (most).,108944.40000000596,1669843459436,mango,3591.4000000059605,True,0.56,112535.80000001192,3591.4000000059605,True,HRV,HRV_0305,2022-11-30 21:24:53
46,"[{'imgObject': {}, 'id': 'raisin bran w milk', 'src': '/static/foodstim60/raisin bran w milk.jpg', 'key': 'NaN', 'origWidth': 411, 'origHeight': 411, 'width': 411, 'height': 411, 'widthPercent': 0.8, 'rescaleHeight': True, 'trialN': 46, 'loaded': True, 'loadedTime': 2151.100000023842, 'positionName': 'CENTER', 'positionCoords': [434.5, 194.5]}]",Rate how much you want to eat this food from 0 (least) to 10 (most).,112536.90000000596,1669843463029,raisin bran w milk,1966.7000000178814,True,0.12,114503.60000002384,1966.7000000178814,True,HRV,HRV_0305,2022-11-30 21:24:53
47,"[{'imgObject': {}, 'id': 'raspberries', 'src': '/static/foodstim60/raspberries.jpg', 'key': 'NaN', 'origWidth': 411, 'origHeight': 411, 'width': 411, 'height': 411, 'widthPercent': 0.8, 'rescaleHeight': True, 'trialN': 47, 'loaded': True, 'loadedTime': 2152.800000011921, 'positionName': 'CENTER', 'positionCoords': [434.5, 194.5]}]",Rate how much you want to eat this food from 0 (least) to 10 (most).,114504.60000002384,1669843464996,raspberries,2502.5999999940395,True,0.04,117007.20000001788,2502.5999999940395,True,HRV,HRV_0305,2022-11-30 21:24:53
48,"[{'imgObject': {}, 'id': 'chicken nuggets2', 'src': '/static/foodstim60/chicken nuggets2.jpg', 'key': 'NaN', 'origWidth': 410, 'origHeight': 409, 'width': 410, 'height': 409, 'widthPercent': 0.8, 'rescaleHeight': True, 'trialN': 48, 'loaded': True, 'loadedTime': 2156.9000000059605, 'positionName': 'CENTER', 'positionCoords': [435, 195.5]}]",Rate how much you want to eat this food from 0 (least) to 10 (most).,117008.70000001788,1669843467500,chicken nuggets2,1943.199999988079,True,0.07,118951.90000000596,1943.199999988079,True,HRV,HRV_0305,2022-11-30 21:24:53
49,"[{'imgObject': {}, 'id': 'apple slices', 'src': '/static/foodstim60/apple slices.jpg', 'key': 'NaN', 'origWidth': 409, 'origHeight': 410, 'width': 409, 'height': 410, 'widthPercent': 0.8, 'rescaleHeight': True, 'trialN': 49, 'loaded': True, 'loadedTime': 2155.2000000178814, 'positionName': 'CENTER', 'positionCoords': [435.5, 195]}]",Rate how much you want to eat this food from 0 (least) to 10 (most).,118953.20000001788,1669843469445,apple slices,2230.7999999821186,True,1.03,121184.0,2230.7999999821186,True,HRV,HRV_0305,2022-11-30 21:24:53
50,"[{'imgObject': {}, 'id': 'seaweed', 'src': '/static/foodstim60/seaweed.jpg', 'key': 'NaN', 'origWidth': 410, 'origHeight': 410, 'width': 410, 'height': 410, 'widthPercent': 0.8, 'rescaleHeight': True, 'trialN': 50, 'loaded': True, 'loadedTime': 2174.5, 'positionName': 'CENTER', 'positionCoords': [435, 195]}]",Rate how much you want to eat this food from 0 (least) to 10 (most).,121185.30000001192,1669843471677,seaweed,2310.800000011921,True,0.07,123496.10000002384,2310.800000011921,True,HRV,HRV_0305,2022-11-30 21:24:53
51,"[{'imgObject': {}, 'id': 'kiwi', 'src': '/static/foodstim60/kiwi.jpg', 'key': 'NaN', 'origWidth': 410, 'origHeight': 410, 'width': 410, 'height': 410, 'widthPercent': 0.8, 'rescaleHeight': True, 'trialN': 51, 'loaded': True, 'loadedTime': 2189.100000023842, 'positionName': 'CENTER', 'positionCoords': [435, 195]}]",Rate how much you want to eat this food from 0 (least) to 10 (most).,123497.30000001192,1669843473989,kiwi,1870.5,True,0.8200000000000001,125367.80000001192,1870.5,True,HRV,HRV_0305,2022-11-30 21:24:53
52,"[{'imgObject': {}, 'id': 'rigatoni and sauce', 'src': '/static/foodstim60/rigatoni and sauce.jpg', 'key': 'NaN', 'origWidth': 410, 'origHeight': 411, 'width': 410, 'height': 411, 'widthPercent': 0.8, 'rescaleHeight': True, 'trialN': 52, 'loaded': True, 'loadedTime': 2194, 'positionName': 'CENTER', 'positionCoords': [435, 194.5]}]",Rate how much you want to eat this food from 0 (least) to 10 (most).,125369.0,1669843475861,rigatoni and sauce,1855.1000000238419,True,0.09,127224.10000002384,1855.1000000238419,True,HRV,HRV_0305,2022-11-30 21:24:53
53,"[{'imgObject': {}, 'id': 'burger', 'src': '/static/foodstim60/burger.jpg', 'key': 'NaN', 'origWidth': 409, 'origHeight': 409, 'width': 409, 'height': 409, 'widthPercent': 0.8, 'rescaleHeight': True, 'trialN': 53, 'loaded': True, 'loadedTime': 2205.7000000178814, 'positionName': 'CENTER', 'positionCoords': [435.5, 195.5]}]",Rate how much you want to eat this food from 0 (least) to 10 (most).,127225.40000000596,1669843477717,burger,2110.7000000178814,True,0.06,129336.10000002384,2110.7000000178814,True,HRV,HRV_0305,2022-11-30 21:24:53
54,"[{'imgObject': {}, 'id': 'cocktailshrimp', 'src': '/static/foodstim60/cocktailshrimp.jpg', 'key': 'NaN', 'origWidth': 410, 'origHeight': 410, 'width': 410, 'height': 410, 'widthPercent': 0.8, 'rescaleHeight': True, 'trialN': 54, 'loaded': True, 'loadedTime': 2198.5, 'positionName': 'CENTER', 'positionCoords': [435, 195]}]",Rate how much you want to eat this food from 0 (least) to 10 (most).,129337.40000000596,1669843479829,cocktailshrimp,3150.800000011921,True,0.04,132488.20000001788,3150.800000011921,True,HRV,HRV_0305,2022-11-30 21:24:53
55,"[{'imgObject': {}, 'id': 'popsicles', 'src': '/static/foodstim60/popsicles.jpg', 'key': 'NaN', 'origWidth': 410, 'origHeight': 410, 'width': 410, 'height': 410, 'widthPercent': 0.8, 'rescaleHeight': True, 'trialN': 55, 'loaded': True, 'loadedTime': 2203.2000000178814, 'positionName': 'CENTER', 'positionCoords': [435, 195]}]",Rate how much you want to eat this food from 0 (least) to 10 (most).,132489.60000002384,1669843482981,popsicles,2150.5999999940395,True,0.09,134640.20000001788,2150.5999999940395,True,HRV,HRV_0305,2022-11-30 21:24:53
56,"[{'imgObject': {}, 'id': 'sweetpotato', 'src': '/static/foodstim60/sweetpotato.jpg', 'key': 'NaN', 'origWidth': 410, 'origHeight': 410, 'width': 410, 'height': 410, 'widthPercent': 0.8, 'rescaleHeight': True, 'trialN': 56, 'loaded': True, 'loadedTime': 2225.5, 'positionName': 'CENTER', 'positionCoords': [435, 195]}]",Rate how much you want to eat this food from 0 (least) to 10 (most).,134641.5,1669843485133,sweetpotato,1710.2000000178814,True,1.81,136351.70000001788,1710.2000000178814,True,HRV,HRV_0305,2022-11-30 21:24:53
57,"[{'imgObject': {}, 'id': 'granola w milk', 'src': '/static/foodstim60/granola w milk.jpg', 'key': 'NaN', 'origWidth': 410, 'origHeight': 410, 'width': 410, 'height': 410, 'widthPercent': 0.8, 'rescaleHeight': True, 'trialN': 57, 'loaded': True, 'loadedTime': 2250.600000023842, 'positionName': 'CENTER', 'positionCoords': [435, 195]}]",Rate how much you want to eat this food from 0 (least) to 10 (most).,136352.5,1669843486844,granola w milk,1647.6000000238419,True,0.07,138000.10000002384,1647.6000000238419,True,HRV,HRV_0305,2022-11-30 21:24:53
58,"[{'imgObject': {}, 'id': 'turkeysandwich', 'src': '/static/foodstim60/turkeysandwich.jpg', 'key': 'NaN', 'origWidth': 409, 'origHeight': 409, 'width': 409, 'height': 409, 'widthPercent': 0.8, 'rescaleHeight': True, 'trialN': 58, 'loaded': True, 'loadedTime': 2252.4000000059605, 'positionName': 'CENTER', 'positionCoords': [435.5, 195.5]}]",Rate how much you want to eat this food from 0 (least) to 10 (most).,138000.90000000596,1669843488493,turkeysandwich,1647.0999999940395,True,0.7000000000000001,139648.0,1647.0999999940395,True,HRV,HRV_0305,2022-11-30 21:24:53
59,"[{'imgObject': {}, 'id': 'cantaloupe', 'src': '/static/foodstim60/cantaloupe.jpg', 'key': 'NaN', 'origWidth': 409, 'origHeight': 409, 'width': 409, 'height': 409, 'widthPercent': 0.8, 'rescaleHeight': True, 'trialN': 59, 'loaded': True, 'loadedTime': 2248, 'positionName': 'CENTER', 'positionCoords': [435.5, 195.5]}]",Rate how much you want to eat this food from 0 (least) to 10 (most).,139648.70000001788,1669843490140,cantaloupe,3775.199999988079,True,0.78,143423.90000000596,3775.199999988079,True,HRV,HRV_0305,2022-11-30 21:24:53
