trialN,stimuli,trialStartTime,trialStartTime_UNIX,stimulus1,stimulus2,stimulus1Bid,stimulus2Bid,delta,selected,rt,rt_UNIX,rt_perfnow,receivedResponse,rsp,trialEndTime,trialDuration,trialEndTime_UNIX,trialDuration_UNIX,exp,subjectId,date
0,"[{'imgObject': {}, 'id': 'raspberries', 'src': '/static/foodstim60/raspberries.jpg', 'key': 'u', 'origWidth': 411, 'origHeight': 411, 'width': 411, 'height': 411, 'widthPercent': 0.45, 'rescaleHeight': False, 'trialN': 0, 'loaded': True, 'loadedTime': 2448.300000011921, 'positionName': 'LEFT', 'positionCoords': [203.4, 194.5], 'bid': 0.07}, {'imgObject': {}, 'id': 'sushi w_condiments', 'src': '/static/foodstim60/sushi w_condiments.jpg', 'key': 'i', 'origWidth': 410, 'origHeight': 410, 'width': 410, 'height': 410, 'widthPercent': 0.45, 'rescaleHeight': False, 'trialN': 0, 'loaded': True, 'loadedTime': 2561.600000023842, 'positionName': 'RIGHT', 'positionCoords': [665.6, 195], 'bid': 0.12}]",3296.300000011921,1669843750633,raspberries,sushi w_condiments,0.07,0.12,0.04999999999999999,raspberries,1723.300000011921,1725,1724.5,True,u,5532.9000000059605,2236.5999999940395,1669843752870,2237,HRV,HRV_0305,2022-11-30 21:34:33
1,"[{'imgObject': {}, 'id': 'cantaloupe', 'src': '/static/foodstim60/cantaloupe.jpg', 'key': 'u', 'origWidth': 409, 'origHeight': 409, 'width': 409, 'height': 409, 'widthPercent': 0.45, 'rescaleHeight': False, 'trialN': 1, 'loaded': True, 'loadedTime': 2579.300000011921, 'positionName': 'LEFT', 'positionCoords': [205.4, 195.5], 'bid': 1.12}, {'imgObject': {}, 'id': 'roastedpotatoes', 'src': '/static/foodstim60/roastedpotatoes.jpg', 'key': 'i', 'origWidth': 409, 'origHeight': 410, 'width': 409, 'height': 410, 'widthPercent': 0.45, 'rescaleHeight': False, 'trialN': 1, 'loaded': True, 'loadedTime': 2594.4000000059605, 'positionName': 'RIGHT', 'positionCoords': [665.6, 195], 'bid': 2.06}]",5533.5,1669843752871,cantaloupe,roastedpotatoes,1.12,2.06,0.94,cantaloupe,1160.300000011921,1160,1160.800000011921,True,u,7213.300000011921,1679.800000011921,1669843754550,1679,HRV,HRV_0305,2022-11-30 21:34:33
2,"[{'imgObject': {}, 'id': 'olives', 'src': '/static/foodstim60/olives.jpg', 'key': 'u', 'origWidth': 410, 'origHeight': 410, 'width': 410, 'height': 410, 'widthPercent': 0.45, 'rescaleHeight': False, 'trialN': 2, 'loaded': True, 'loadedTime': 2595.600000023842, 'positionName': 'LEFT', 'positionCoords': [204.4, 195], 'bid': 0}, {'imgObject': {}, 'id': 'mac & cheese', 'src': '/static/foodstim60/mac & cheese.jpg', 'key': 'i', 'origWidth': 410, 'origHeight': 410, 'width': 410, 'height': 410, 'widthPercent': 0.45, 'rescaleHeight': False, 'trialN': 2, 'loaded': True, 'loadedTime': 2650.4000000059605, 'positionName': 'RIGHT', 'positionCoords': [665.6, 195], 'bid': 0.01}]",7213.9000000059605,1669843754551,olives,mac & cheese,0.0,0.01,0.01,mac & cheese,1445.9000000059605,1446,1446.4000000059605,True,i,9180.5,1966.5999999940395,1669843756518,1967,HRV,HRV_0305,2022-11-30 21:34:33
3,"[{'imgObject': {}, 'id': 'chickenfingers', 'src': '/static/foodstim60/chickenfingers.jpg', 'key': 'u', 'origWidth': 410, 'origHeight': 410, 'width': 410, 'height': 410, 'widthPercent': 0.45, 'rescaleHeight': False, 'trialN': 3, 'loaded': True, 'loadedTime': 2677.5, 'positionName': 'LEFT', 'positionCoords': [204.4, 195], 'bid': 0.64}, {'imgObject': {}, 'id': 'burrito', 'src': '/static/foodstim60/burrito.jpg', 'key': 'i', 'origWidth': 410, 'origHeight': 410, 'width': 410, 'height': 410, 'widthPercent': 0.45, 'rescaleHeight': False, 'trialN': 3, 'loaded': True, 'loadedTime': 2719.7000000178814, 'positionName': 'RIGHT', 'positionCoords': [665.6, 195], 'bid': 1.14}]",9180.90000000596,1669843756518,chickenfingers,burrito,0.64,1.14,0.4999999999999999,burrito,1324.9000000059605,1325,1325.4000000059605,True,i,11008.300000011921,1827.4000000059605,1669843758345,1827,HRV,HRV_0305,2022-11-30 21:34:33
4,"[{'imgObject': {}, 'id': 'orange slices', 'src': '/static/foodstim60/orange slices.jpg', 'key': 'u', 'origWidth': 409, 'origHeight': 410, 'width': 409, 'height': 410, 'widthPercent': 0.45, 'rescaleHeight': False, 'trialN': 4, 'loaded': True, 'loadedTime': 2770, 'positionName': 'LEFT', 'positionCoords': [205.4, 195], 'bid': 1.21}, {'imgObject': {}, 'id': 'turkey sandwich', 'src': '/static/foodstim60/turkey sandwich.jpg', 'key': 'i', 'origWidth': 409, 'origHeight': 409, 'width': 409, 'height': 409, 'widthPercent': 0.45, 'rescaleHeight': False, 'trialN': 4, 'loaded': True, 'loadedTime': 2792.7000000178814, 'positionName': 'RIGHT', 'positionCoords': [665.6, 195.5], 'bid': 0.85}]",11008.600000023842,1669843758346,orange slices,turkey sandwich,1.21,0.85,-0.36,orange slices,1097.7999999821186,1098,1098.0,True,u,12608.600000023842,1600.0,1669843759946,1600,HRV,HRV_0305,2022-11-30 21:34:33
5,"[{'imgObject': {}, 'id': 'eggs', 'src': '/static/foodstim60/eggs.jpg', 'key': 'u', 'origWidth': 409, 'origHeight': 409, 'width': 409, 'height': 409, 'widthPercent': 0.45, 'rescaleHeight': False, 'trialN': 5, 'loaded': True, 'loadedTime': 2840.100000023842, 'positionName': 'LEFT', 'positionCoords': [205.4, 195.5], 'bid': 0.01}, {'imgObject': {}, 'id': 'veggieswithdip', 'src': '/static/foodstim60/veggieswithdip.jpg', 'key': 'i', 'origWidth': 409, 'origHeight': 409, 'width': 409, 'height': 409, 'widthPercent': 0.45, 'rescaleHeight': False, 'trialN': 5, 'loaded': True, 'loadedTime': 2842.9000000059605, 'positionName': 'RIGHT', 'positionCoords': [665.6, 195.5], 'bid': 0.07}]",12609.0,1669843759946,eggs,veggieswithdip,0.01,0.07,0.060000000000000005,veggieswithdip,1305.9000000059605,1306,1306.300000011921,True,i,14429.5,1820.5,1669843761767,1821,HRV,HRV_0305,2022-11-30 21:34:33
6,"[{'imgObject': {}, 'id': 'grilled chicken strips', 'src': '/static/foodstim60/grilled chicken strips.jpg', 'key': 'u', 'origWidth': 410, 'origHeight': 411, 'width': 410, 'height': 411, 'widthPercent': 0.45, 'rescaleHeight': False, 'trialN': 6, 'loaded': True, 'loadedTime': 2867.100000023842, 'positionName': 'LEFT', 'positionCoords': [204.4, 194.5], 'bid': 0.85}, {'imgObject': {}, 'id': 'hashbrowns', 'src': '/static/foodstim60/hashbrowns.jpg', 'key': 'i', 'origWidth': 411, 'origHeight': 410, 'width': 411, 'height': 410, 'widthPercent': 0.45, 'rescaleHeight': False, 'trialN': 6, 'loaded': True, 'loadedTime': 2892.9000000059605, 'positionName': 'RIGHT', 'positionCoords': [665.6, 195], 'bid': 0.04}]",14430.0,1669843761767,grilled chicken strips,hashbrowns,0.85,0.04,-0.8099999999999999,grilled chicken strips,1227.2000000178814,1228,1227.800000011921,True,u,16171.40000000596,1741.4000000059605,1669843763509,1742,HRV,HRV_0305,2022-11-30 21:34:33
7,"[{'imgObject': {}, 'id': 'salmon', 'src': '/static/foodstim60/salmon.jpg', 'key': 'u', 'origWidth': 410, 'origHeight': 409, 'width': 410, 'height': 409, 'widthPercent': 0.45, 'rescaleHeight': False, 'trialN': 7, 'loaded': True, 'loadedTime': 2938.800000011921, 'positionName': 'LEFT', 'positionCoords': [204.4, 195.5], 'bid': 0.79}, {'imgObject': {}, 'id': 'turkeysandwich', 'src': '/static/foodstim60/turkeysandwich.jpg', 'key': 'i', 'origWidth': 409, 'origHeight': 409, 'width': 409, 'height': 409, 'widthPercent': 0.45, 'rescaleHeight': False, 'trialN': 7, 'loaded': True, 'loadedTime': 2942.800000011921, 'positionName': 'RIGHT', 'positionCoords': [665.6, 195.5], 'bid': 0.84}]",16171.90000000596,1669843763509,salmon,turkeysandwich,0.79,0.84,0.04999999999999993,salmon,1244.7000000178814,1246,1245.5,True,u,17921.90000000596,1750.0,1669843765259,1750,HRV,HRV_0305,2022-11-30 21:34:33
8,"[{'imgObject': {}, 'id': 'edamame', 'src': '/static/foodstim60/edamame.jpg', 'key': 'u', 'origWidth': 409, 'origHeight': 410, 'width': 409, 'height': 410, 'widthPercent': 0.45, 'rescaleHeight': False, 'trialN': 8, 'loaded': True, 'loadedTime': 2969, 'positionName': 'LEFT', 'positionCoords': [205.4, 195], 'bid': 0.31}, {'imgObject': {}, 'id': 'veggieswithdip', 'src': '/static/foodstim60/veggieswithdip.jpg', 'key': 'i', 'origWidth': 409, 'origHeight': 409, 'width': 409, 'height': 409, 'widthPercent': 0.45, 'rescaleHeight': False, 'trialN': 8, 'loaded': True, 'loadedTime': 2843.300000011921, 'positionName': 'RIGHT', 'positionCoords': [665.6, 195.5], 'bid': 0.07}]",17922.30000001192,1669843765259,edamame,veggieswithdip,0.31,0.07,-0.24,edamame,1343.5,1344,1344.0,True,u,19775.5,1853.199999988079,1669843767113,1854,HRV,HRV_0305,2022-11-30 21:34:33
9,"[{'imgObject': {}, 'id': 'chickenfingers', 'src': '/static/foodstim60/chickenfingers.jpg', 'key': 'u', 'origWidth': 410, 'origHeight': 410, 'width': 410, 'height': 410, 'widthPercent': 0.45, 'rescaleHeight': False, 'trialN': 9, 'loaded': True, 'loadedTime': 2677.300000011921, 'positionName': 'LEFT', 'positionCoords': [204.4, 195], 'bid': 0.64}, {'imgObject': {}, 'id': 'cocktailshrimp', 'src': '/static/foodstim60/cocktailshrimp.jpg', 'key': 'i', 'origWidth': 410, 'origHeight': 410, 'width': 410, 'height': 410, 'widthPercent': 0.45, 'rescaleHeight': False, 'trialN': 9, 'loaded': True, 'loadedTime': 2991.9000000059605, 'positionName': 'RIGHT', 'positionCoords': [665.6, 195], 'bid': 0.12}]",19776.100000023842,1669843767113,chickenfingers,cocktailshrimp,0.64,0.12,-0.52,chickenfingers,1496.699999988079,1488,1497.199999988079,True,u,21783.20000001788,2007.0999999940395,1669843769111,1998,HRV,HRV_0305,2022-11-30 21:34:33
10,"[{'imgObject': {}, 'id': 'blueberries', 'src': '/static/foodstim60/blueberries.jpg', 'key': 'u', 'origWidth': 411, 'origHeight': 411, 'width': 411, 'height': 411, 'widthPercent': 0.45, 'rescaleHeight': False, 'trialN': 10, 'loaded': True, 'loadedTime': 3014.7000000178814, 'positionName': 'LEFT', 'positionCoords': [203.4, 194.5], 'bid': 0.06}, {'imgObject': {}, 'id': 'raisin bran w milk', 'src': '/static/foodstim60/raisin bran w milk.jpg', 'key': 'i', 'origWidth': 411, 'origHeight': 411, 'width': 411, 'height': 411, 'widthPercent': 0.45, 'rescaleHeight': False, 'trialN': 10, 'loaded': True, 'loadedTime': 2652.2000000178814, 'positionName': 'RIGHT', 'positionCoords': [665.6, 194.5], 'bid': 0.06}]",21783.80000001192,1669843769112,blueberries,raisin bran w milk,0.06,0.06,0.0,blueberries,1364.800000011921,1365,1365.300000011921,True,u,23659.100000023842,1875.300000011921,1669843770987,1875,HRV,HRV_0305,2022-11-30 21:34:33
11,"[{'imgObject': {}, 'id': 'lox', 'src': '/static/foodstim60/lox.jpg', 'key': 'u', 'origWidth': 410, 'origHeight': 411, 'width': 410, 'height': 411, 'widthPercent': 0.45, 'rescaleHeight': False, 'trialN': 11, 'loaded': True, 'loadedTime': 2696.600000023842, 'positionName': 'LEFT', 'positionCoords': [204.4, 194.5], 'bid': 0}, {'imgObject': {}, 'id': 'ice cream sundae 002', 'src': '/static/foodstim60/ice cream sundae 002.jpg', 'key': 'i', 'origWidth': 409, 'origHeight': 409, 'width': 409, 'height': 409, 'widthPercent': 0.45, 'rescaleHeight': False, 'trialN': 11, 'loaded': True, 'loadedTime': 2746.4000000059605, 'positionName': 'RIGHT', 'positionCoords': [665.6, 195.5], 'bid': 0}]",23659.5,1669843770987,lox,ice cream sundae 002,0.0,0.0,0.0,ice cream sundae 002,1252.9000000059605,1254,1253.4000000059605,True,i,25430.70000001788,1771.2000000178814,1669843772758,1771,HRV,HRV_0305,2022-11-30 21:34:33
12,"[{'imgObject': {}, 'id': 'baked potato', 'src': '/static/foodstim60/baked potato.jpg', 'key': 'u', 'origWidth': 409, 'origHeight': 410, 'width': 409, 'height': 410, 'widthPercent': 0.45, 'rescaleHeight': False, 'trialN': 12, 'loaded': True, 'loadedTime': 2790.800000011921, 'positionName': 'LEFT', 'positionCoords': [205.4, 195], 'bid': 1.48}, {'imgObject': {}, 'id': 'bagel plain', 'src': '/static/foodstim60/bagel plain.jpg', 'key': 'i', 'origWidth': 410, 'origHeight': 410, 'width': 410, 'height': 410, 'widthPercent': 0.45, 'rescaleHeight': False, 'trialN': 12, 'loaded': True, 'loadedTime': 2813.5, 'positionName': 'RIGHT', 'positionCoords': [665.6, 195], 'bid': 2.07}]",25431.100000023842,1669843772759,baked potato,bagel plain,1.48,2.07,0.5899999999999999,bagel plain,1528.5,1529,1529.0,True,i,27463.600000023842,2032.5,1669843774791,2032,HRV,HRV_0305,2022-11-30 21:34:33
13,"[{'imgObject': {}, 'id': 'omelette', 'src': '/static/foodstim60/omelette.jpg', 'key': 'u', 'origWidth': 410, 'origHeight': 409, 'width': 410, 'height': 409, 'widthPercent': 0.45, 'rescaleHeight': False, 'trialN': 13, 'loaded': True, 'loadedTime': 2889.9000000059605, 'positionName': 'LEFT', 'positionCoords': [204.4, 195.5], 'bid': 0.07}, {'imgObject': {}, 'id': 'rigatoni', 'src': '/static/foodstim60/rigatoni.jpg', 'key': 'i', 'origWidth': 411, 'origHeight': 411, 'width': 411, 'height': 411, 'widthPercent': 0.45, 'rescaleHeight': False, 'trialN': 13, 'loaded': True, 'loadedTime': 2915.2000000178814, 'positionName': 'RIGHT', 'positionCoords': [665.6, 194.5], 'bid': 0.06}]",27463.90000000596,1669843774792,omelette,rigatoni,0.07,0.06,-0.010000000000000009,omelette,1433.5999999940395,1434,1434.0999999940395,True,u,29409.80000001192,1945.9000000059605,1669843776738,1946,HRV,HRV_0305,2022-11-30 21:34:33
14,"[{'imgObject': {}, 'id': 'eggs', 'src': '/static/foodstim60/eggs.jpg', 'key': 'u', 'origWidth': 409, 'origHeight': 409, 'width': 409, 'height': 409, 'widthPercent': 0.45, 'rescaleHeight': False, 'trialN': 14, 'loaded': True, 'loadedTime': 2816.9000000059605, 'positionName': 'LEFT', 'positionCoords': [205.4, 195.5], 'bid': 0.01}, {'imgObject': {}, 'id': 'eggsalad', 'src': '/static/foodstim60/eggsalad.jpg', 'key': 'i', 'origWidth': 410, 'origHeight': 409, 'width': 410, 'height': 409, 'widthPercent': 0.45, 'rescaleHeight': False, 'trialN': 14, 'loaded': True, 'loadedTime': 2964.300000011921, 'positionName': 'RIGHT', 'positionCoords': [665.6, 195.5], 'bid': 0}]",29410.20000001788,1669843776738,eggs,eggsalad,0.01,0.0,-0.01,eggs,1587.5999999940395,1588,1588.0999999940395,True,u,31508.30000001192,2098.0999999940395,1669843778836,2098,HRV,HRV_0305,2022-11-30 21:34:33
15,"[{'imgObject': {}, 'id': 'cherry tomato', 'src': '/static/foodstim60/cherry tomato.jpg', 'key': 'u', 'origWidth': 410, 'origHeight': 410, 'width': 410, 'height': 410, 'widthPercent': 0.45, 'rescaleHeight': False, 'trialN': 15, 'loaded': True, 'loadedTime': 3011.800000011921, 'positionName': 'LEFT', 'positionCoords': [204.4, 195], 'bid': 0.76}, {'imgObject': {}, 'id': 'chicken nuggets2', 'src': '/static/foodstim60/chicken nuggets2.jpg', 'key': 'i', 'origWidth': 410, 'origHeight': 409, 'width': 410, 'height': 409, 'widthPercent': 0.45, 'rescaleHeight': False, 'trialN': 15, 'loaded': True, 'loadedTime': 3038.600000023842, 'positionName': 'RIGHT', 'positionCoords': [665.6, 195.5], 'bid': 0.01}]",31508.600000023842,1669843778836,cherry tomato,chicken nuggets2,0.76,0.01,-0.75,cherry tomato,1301.699999988079,1303,1302.199999988079,True,u,33323.5,1814.8999999761581,1669843780651,1815,HRV,HRV_0305,2022-11-30 21:34:33
16,"[{'imgObject': {}, 'id': 'granola w milk', 'src': '/static/foodstim60/granola w milk.jpg', 'key': 'u', 'origWidth': 410, 'origHeight': 410, 'width': 410, 'height': 410, 'widthPercent': 0.45, 'rescaleHeight': False, 'trialN': 16, 'loaded': True, 'loadedTime': 3041, 'positionName': 'LEFT', 'positionCoords': [204.4, 195], 'bid': 0.06}, {'imgObject': {}, 'id': 'fruitsalad', 'src': '/static/foodstim60/fruitsalad.jpg', 'key': 'i', 'origWidth': 410, 'origHeight': 410, 'width': 410, 'height': 410, 'widthPercent': 0.45, 'rescaleHeight': False, 'trialN': 16, 'loaded': True, 'loadedTime': 3066.600000023842, 'positionName': 'RIGHT', 'positionCoords': [665.6, 195], 'bid': 1}]",33323.90000000596,1669843780652,granola w milk,fruitsalad,0.06,1.0,0.94,fruitsalad,1128.0999999940395,1128,1128.5,True,i,34961.5,1637.5999999940395,1669843782289,1637,HRV,HRV_0305,2022-11-30 21:34:33
17,"[{'imgObject': {}, 'id': 'pear', 'src': '/static/foodstim60/pear.jpg', 'key': 'u', 'origWidth': 411, 'origHeight': 410, 'width': 411, 'height': 410, 'widthPercent': 0.45, 'rescaleHeight': False, 'trialN': 17, 'loaded': True, 'loadedTime': 3066.800000011921, 'positionName': 'LEFT', 'positionCoords': [203.4, 195], 'bid': 0.9}, {'imgObject': {}, 'id': 'Tribe humus pita', 'src': '/static/foodstim60/Tribe humus pita.jpg', 'key': 'i', 'origWidth': 411, 'origHeight': 411, 'width': 411, 'height': 411, 'widthPercent': 0.45, 'rescaleHeight': False, 'trialN': 17, 'loaded': True, 'loadedTime': 3090.300000011921, 'positionName': 'RIGHT', 'positionCoords': [665.6, 194.5], 'bid': 0.2}]",34961.80000001192,1669843782290,pear,Tribe humus pita,0.9,0.2,-0.7,pear,1213.800000011921,1214,1214.5,True,u,36688.40000000596,1726.5999999940395,1669843784016,1726,HRV,HRV_0305,2022-11-30 21:34:33
18,"[{'imgObject': {}, 'id': 'Tribe humus pita', 'src': '/static/foodstim60/Tribe humus pita.jpg', 'key': 'u', 'origWidth': 411, 'origHeight': 411, 'width': 411, 'height': 411, 'widthPercent': 0.45, 'rescaleHeight': False, 'trialN': 18, 'loaded': True, 'loadedTime': 3092.600000023842, 'positionName': 'LEFT', 'positionCoords': [203.4, 194.5], 'bid': 0.2}, {'imgObject': {}, 'id': 'froot loops w milk', 'src': '/static/foodstim60/froot loops w milk.jpg', 'key': 'i', 'origWidth': 410, 'origHeight': 410, 'width': 410, 'height': 410, 'widthPercent': 0.45, 'rescaleHeight': False, 'trialN': 18, 'loaded': True, 'loadedTime': 3093.2000000178814, 'positionName': 'RIGHT', 'positionCoords': [665.6, 195], 'bid': 0.1}]",36688.80000001192,1669843784017,Tribe humus pita,froot loops w milk,0.2,0.1,-0.1,Tribe humus pita,1398.300000011921,1398,1398.9000000059605,True,u,38593.5,1904.699999988079,1669843785921,1904,HRV,HRV_0305,2022-11-30 21:34:33
19,"[{'imgObject': {}, 'id': 'baked potato', 'src': '/static/foodstim60/baked potato.jpg', 'key': 'u', 'origWidth': 409, 'origHeight': 410, 'width': 409, 'height': 410, 'widthPercent': 0.45, 'rescaleHeight': False, 'trialN': 19, 'loaded': True, 'loadedTime': 2772.9000000059605, 'positionName': 'LEFT', 'positionCoords': [205.4, 195], 'bid': 1.48}, {'imgObject': {}, 'id': 'roastedpotatoes', 'src': '/static/foodstim60/roastedpotatoes.jpg', 'key': 'i', 'origWidth': 409, 'origHeight': 410, 'width': 409, 'height': 410, 'widthPercent': 0.45, 'rescaleHeight': False, 'trialN': 19, 'loaded': True, 'loadedTime': 2594.7000000178814, 'positionName': 'RIGHT', 'positionCoords': [665.6, 195], 'bid': 2.06}]",38593.90000000596,1669843785922,baked potato,roastedpotatoes,1.48,2.06,0.5800000000000001,roastedpotatoes,1430.0999999940395,1430,1430.5999999940395,True,i,40539.80000001192,1945.9000000059605,1669843787868,1946,HRV,HRV_0305,2022-11-30 21:34:33
20,"[{'imgObject': {}, 'id': 'banana', 'src': '/static/foodstim60/banana.jpg', 'key': 'u', 'origWidth': 410, 'origHeight': 410, 'width': 410, 'height': 410, 'widthPercent': 0.45, 'rescaleHeight': False, 'trialN': 20, 'loaded': True, 'loadedTime': 3115.100000023842, 'positionName': 'LEFT', 'positionCoords': [204.4, 195], 'bid': 0.07}, {'imgObject': {}, 'id': 'chicken nuggets2', 'src': '/static/foodstim60/chicken nuggets2.jpg', 'key': 'i', 'origWidth': 410, 'origHeight': 409, 'width': 410, 'height': 409, 'widthPercent': 0.45, 'rescaleHeight': False, 'trialN': 20, 'loaded': True, 'loadedTime': 3038.2000000178814, 'positionName': 'RIGHT', 'positionCoords': [665.6, 195.5], 'bid': 0.01}]",40540.20000001788,1669843787868,banana,chicken nuggets2,0.07,0.01,-0.060000000000000005,chicken nuggets2,1295.0,1295,1295.5,True,i,42352.0,1811.7999999821186,1669843789680,1812,HRV,HRV_0305,2022-11-30 21:34:33
21,"[{'imgObject': {}, 'id': 'cheerios', 'src': '/static/foodstim60/cheerios.jpg', 'key': 'u', 'origWidth': 409, 'origHeight': 410, 'width': 409, 'height': 410, 'widthPercent': 0.45, 'rescaleHeight': False, 'trialN': 21, 'loaded': True, 'loadedTime': 3118.300000011921, 'positionName': 'LEFT', 'positionCoords': [205.4, 195], 'bid': 0.03}, {'imgObject': {}, 'id': 'avocado', 'src': '/static/foodstim60/avocado.jpg', 'key': 'i', 'origWidth': 409, 'origHeight': 409, 'width': 409, 'height': 409, 'widthPercent': 0.45, 'rescaleHeight': False, 'trialN': 21, 'loaded': True, 'loadedTime': 3143.9000000059605, 'positionName': 'RIGHT', 'positionCoords': [665.6, 195.5], 'bid': 0}]",42352.30000001192,1669843789680,cheerios,avocado,0.03,0.0,-0.03,cheerios,1221.300000011921,1222,1221.9000000059605,True,u,44081.90000000596,1729.5999999940395,1669843791410,1730,HRV,HRV_0305,2022-11-30 21:34:33
22,"[{'imgObject': {}, 'id': 'veggieswithdip', 'src': '/static/foodstim60/veggieswithdip.jpg', 'key': 'u', 'origWidth': 409, 'origHeight': 409, 'width': 409, 'height': 409, 'widthPercent': 0.45, 'rescaleHeight': False, 'trialN': 22, 'loaded': True, 'loadedTime': 2843.100000023842, 'positionName': 'LEFT', 'positionCoords': [205.4, 195.5], 'bid': 0.07}, {'imgObject': {}, 'id': 'banana', 'src': '/static/foodstim60/banana.jpg', 'key': 'i', 'origWidth': 410, 'origHeight': 410, 'width': 410, 'height': 410, 'widthPercent': 0.45, 'rescaleHeight': False, 'trialN': 22, 'loaded': True, 'loadedTime': 3115.300000011921, 'positionName': 'RIGHT', 'positionCoords': [665.6, 195], 'bid': 0.07}]",44082.30000001192,1669843791410,veggieswithdip,banana,0.07,0.07,0.0,veggieswithdip,1292.4000000059605,1293,1292.9000000059605,True,u,45887.20000001788,1804.9000000059605,1669843793215,1805,HRV,HRV_0305,2022-11-30 21:34:33
23,"[{'imgObject': {}, 'id': 'tacos', 'src': '/static/foodstim60/tacos.jpg', 'key': 'u', 'origWidth': 411, 'origHeight': 411, 'width': 411, 'height': 411, 'widthPercent': 0.45, 'rescaleHeight': False, 'trialN': 23, 'loaded': True, 'loadedTime': 3146.2000000178814, 'positionName': 'LEFT', 'positionCoords': [203.4, 194.5], 'bid': 1.04}, {'imgObject': {}, 'id': 'fruitsalad', 'src': '/static/foodstim60/fruitsalad.jpg', 'key': 'i', 'origWidth': 410, 'origHeight': 410, 'width': 410, 'height': 410, 'widthPercent': 0.45, 'rescaleHeight': False, 'trialN': 23, 'loaded': True, 'loadedTime': 3066.300000011921, 'positionName': 'RIGHT', 'positionCoords': [665.6, 195], 'bid': 1}]",45887.5,1669843793215,tacos,fruitsalad,1.04,1.0,-0.040000000000000036,fruitsalad,1480.7000000178814,1482,1481.300000011921,True,i,47883.60000002384,1996.1000000238419,1669843795211,1996,HRV,HRV_0305,2022-11-30 21:34:33
24,"[{'imgObject': {}, 'id': 'salad w chicken', 'src': '/static/foodstim60/salad w chicken.jpg', 'key': 'u', 'origWidth': 411, 'origHeight': 411, 'width': 411, 'height': 411, 'widthPercent': 0.45, 'rescaleHeight': False, 'trialN': 24, 'loaded': True, 'loadedTime': 3169.300000011921, 'positionName': 'LEFT', 'positionCoords': [203.4, 194.5], 'bid': 1.23}, {'imgObject': {}, 'id': 'burrito', 'src': '/static/foodstim60/burrito.jpg', 'key': 'i', 'origWidth': 410, 'origHeight': 410, 'width': 410, 'height': 410, 'widthPercent': 0.45, 'rescaleHeight': False, 'trialN': 24, 'loaded': True, 'loadedTime': 2719.300000011921, 'positionName': 'RIGHT', 'positionCoords': [665.6, 195], 'bid': 1.14}]",47883.90000000596,1669843795212,salad w chicken,burrito,1.23,1.14,-0.09000000000000008,salad w chicken,1141.0,1141,1141.4000000059605,True,u,49529.0,1645.0999999940395,1669843796857,1645,HRV,HRV_0305,2022-11-30 21:34:33
25,"[{'imgObject': {}, 'id': 'orange slices', 'src': '/static/foodstim60/orange slices.jpg', 'key': 'u', 'origWidth': 409, 'origHeight': 410, 'width': 409, 'height': 410, 'widthPercent': 0.45, 'rescaleHeight': False, 'trialN': 25, 'loaded': True, 'loadedTime': 2769.300000011921, 'positionName': 'LEFT', 'positionCoords': [205.4, 195], 'bid': 1.21}, {'imgObject': {}, 'id': 'banana', 'src': '/static/foodstim60/banana.jpg', 'key': 'i', 'origWidth': 410, 'origHeight': 410, 'width': 410, 'height': 410, 'widthPercent': 0.45, 'rescaleHeight': False, 'trialN': 25, 'loaded': True, 'loadedTime': 3116.2000000178814, 'positionName': 'RIGHT', 'positionCoords': [665.6, 195], 'bid': 0.07}]",49529.30000001192,1669843796857,orange slices,banana,1.21,0.07,-1.14,orange slices,1251.699999988079,1252,1252.199999988079,True,u,51293.10000002384,1763.800000011921,1669843798621,1764,HRV,HRV_0305,2022-11-30 21:34:33
26,"[{'imgObject': {}, 'id': 'rigatoni', 'src': '/static/foodstim60/rigatoni.jpg', 'key': 'u', 'origWidth': 411, 'origHeight': 411, 'width': 411, 'height': 411, 'widthPercent': 0.45, 'rescaleHeight': False, 'trialN': 26, 'loaded': True, 'loadedTime': 2914.300000011921, 'positionName': 'LEFT', 'positionCoords': [203.4, 194.5], 'bid': 0.06}, {'imgObject': {}, 'id': 'luckycharms', 'src': '/static/foodstim60/luckycharms.jpg', 'key': 'i', 'origWidth': 410, 'origHeight': 409, 'width': 410, 'height': 409, 'widthPercent': 0.45, 'rescaleHeight': False, 'trialN': 26, 'loaded': True, 'loadedTime': 3169.9000000059605, 'positionName': 'RIGHT', 'positionCoords': [665.6, 195.5], 'bid': 0.04}]",51293.5,1669843798621,rigatoni,luckycharms,0.06,0.04,-0.019999999999999997,luckycharms,1029.7000000178814,1030,1030.300000011921,True,i,52835.30000001192,1541.800000011921,1669843800163,1542,HRV,HRV_0305,2022-11-30 21:34:33
27,"[{'imgObject': {}, 'id': 'grilled chicken strips', 'src': '/static/foodstim60/grilled chicken strips.jpg', 'key': 'u', 'origWidth': 410, 'origHeight': 411, 'width': 410, 'height': 411, 'widthPercent': 0.45, 'rescaleHeight': False, 'trialN': 27, 'loaded': True, 'loadedTime': 2867.800000011921, 'positionName': 'LEFT', 'positionCoords': [204.4, 194.5], 'bid': 0.85}, {'imgObject': {}, 'id': 'pear', 'src': '/static/foodstim60/pear.jpg', 'key': 'i', 'origWidth': 411, 'origHeight': 410, 'width': 411, 'height': 410, 'widthPercent': 0.45, 'rescaleHeight': False, 'trialN': 27, 'loaded': True, 'loadedTime': 3089.7000000178814, 'positionName': 'RIGHT', 'positionCoords': [665.6, 195], 'bid': 0.9}]",52835.70000001788,1669843800163,grilled chicken strips,pear,0.85,0.9,0.050000000000000044,pear,1574.4000000059605,1575,1575.0,True,i,54923.40000000596,2087.699999988079,1669843802251,2088,HRV,HRV_0305,2022-11-30 21:34:33
28,"[{'imgObject': {}, 'id': 'cherries', 'src': '/static/foodstim60/cherries.jpg', 'key': 'u', 'origWidth': 410, 'origHeight': 411, 'width': 410, 'height': 411, 'widthPercent': 0.45, 'rescaleHeight': False, 'trialN': 28, 'loaded': True, 'loadedTime': 3191.2000000178814, 'positionName': 'LEFT', 'positionCoords': [204.4, 194.5], 'bid': 0.95}, {'imgObject': {}, 'id': 'edamame', 'src': '/static/foodstim60/edamame.jpg', 'key': 'i', 'origWidth': 409, 'origHeight': 410, 'width': 409, 'height': 410, 'widthPercent': 0.45, 'rescaleHeight': False, 'trialN': 28, 'loaded': True, 'loadedTime': 2968.7000000178814, 'positionName': 'RIGHT', 'positionCoords': [665.6, 195], 'bid': 0.31}]",54923.80000001192,1669843802252,cherries,edamame,0.95,0.31,-0.6399999999999999,cherries,1798.4000000059605,1799,1799.0999999940395,True,u,57237.60000002384,2313.800000011921,1669843804565,2313,HRV,HRV_0305,2022-11-30 21:34:33
29,"[{'imgObject': {}, 'id': 'granola w milk', 'src': '/static/foodstim60/granola w milk.jpg', 'key': 'u', 'origWidth': 410, 'origHeight': 410, 'width': 410, 'height': 410, 'widthPercent': 0.45, 'rescaleHeight': False, 'trialN': 29, 'loaded': True, 'loadedTime': 3062, 'positionName': 'LEFT', 'positionCoords': [204.4, 195], 'bid': 0.06}, {'imgObject': {}, 'id': 'raisin bran w milk', 'src': '/static/foodstim60/raisin bran w milk.jpg', 'key': 'i', 'origWidth': 411, 'origHeight': 411, 'width': 411, 'height': 411, 'widthPercent': 0.45, 'rescaleHeight': False, 'trialN': 29, 'loaded': True, 'loadedTime': 2675, 'positionName': 'RIGHT', 'positionCoords': [665.6, 194.5], 'bid': 0.06}]",57238.0,1669843804566,granola w milk,raisin bran w milk,0.06,0.06,0.0,raisin bran w milk,1440.300000011921,1441,1440.800000011921,True,i,59189.5,1951.5,1669843806517,1951,HRV,HRV_0305,2022-11-30 21:34:33
30,"[{'imgObject': {}, 'id': 'strawberries', 'src': '/static/foodstim60/strawberries.jpg', 'key': 'u', 'origWidth': 410, 'origHeight': 410, 'width': 410, 'height': 410, 'widthPercent': 0.45, 'rescaleHeight': False, 'trialN': 30, 'loaded': True, 'loadedTime': 3191.600000023842, 'positionName': 'LEFT', 'positionCoords': [204.4, 195], 'bid': 1.46}, {'imgObject': {}, 'id': 'froot loops w milk', 'src': '/static/foodstim60/froot loops w milk.jpg', 'key': 'i', 'origWidth': 410, 'origHeight': 410, 'width': 410, 'height': 410, 'widthPercent': 0.45, 'rescaleHeight': False, 'trialN': 30, 'loaded': True, 'loadedTime': 3112.100000023842, 'positionName': 'RIGHT', 'positionCoords': [665.6, 195], 'bid': 0.1}]",59189.90000000596,1669843806518,strawberries,froot loops w milk,1.46,0.1,-1.3599999999999999,strawberries,941.0999999940395,941,941.5999999940395,True,u,60639.20000001788,1449.300000011921,1669843807967,1449,HRV,HRV_0305,2022-11-30 21:34:33
31,"[{'imgObject': {}, 'id': 'raisin bran w milk', 'src': '/static/foodstim60/raisin bran w milk.jpg', 'key': 'u', 'origWidth': 411, 'origHeight': 411, 'width': 411, 'height': 411, 'widthPercent': 0.45, 'rescaleHeight': False, 'trialN': 31, 'loaded': True, 'loadedTime': 2652.600000023842, 'positionName': 'LEFT', 'positionCoords': [203.4, 194.5], 'bid': 0.06}, {'imgObject': {}, 'id': 'luckycharms', 'src': '/static/foodstim60/luckycharms.jpg', 'key': 'i', 'origWidth': 410, 'origHeight': 409, 'width': 410, 'height': 409, 'widthPercent': 0.45, 'rescaleHeight': False, 'trialN': 31, 'loaded': True, 'loadedTime': 3172.4000000059605, 'positionName': 'RIGHT', 'positionCoords': [665.6, 195.5], 'bid': 0.04}]",60639.70000001788,1669843807967,raisin bran w milk,luckycharms,0.06,0.04,-0.019999999999999997,raisin bran w milk,1225.0999999940395,1226,1225.5999999940395,True,u,62376.90000000596,1737.199999988079,1669843809705,1738,HRV,HRV_0305,2022-11-30 21:34:33
32,"[{'imgObject': {}, 'id': 'rigatoni', 'src': '/static/foodstim60/rigatoni.jpg', 'key': 'u', 'origWidth': 411, 'origHeight': 411, 'width': 411, 'height': 411, 'widthPercent': 0.45, 'rescaleHeight': False, 'trialN': 32, 'loaded': True, 'loadedTime': 2914.800000011921, 'positionName': 'LEFT', 'positionCoords': [203.4, 194.5], 'bid': 0.06}, {'imgObject': {}, 'id': 'popsicles', 'src': '/static/foodstim60/popsicles.jpg', 'key': 'i', 'origWidth': 410, 'origHeight': 410, 'width': 410, 'height': 410, 'widthPercent': 0.45, 'rescaleHeight': False, 'trialN': 32, 'loaded': True, 'loadedTime': 3295.5, 'positionName': 'RIGHT', 'positionCoords': [665.6, 195], 'bid': 0}]",62377.30000001192,1669843809705,rigatoni,popsicles,0.06,0.0,-0.06,rigatoni,1549.9000000059605,1550,1550.5,True,u,64446.5,2069.199999988079,1669843811774,2069,HRV,HRV_0305,2022-11-30 21:34:33
33,"[{'imgObject': {}, 'id': 'sushi w_condiments', 'src': '/static/foodstim60/sushi w_condiments.jpg', 'key': 'u', 'origWidth': 410, 'origHeight': 410, 'width': 410, 'height': 410, 'widthPercent': 0.45, 'rescaleHeight': False, 'trialN': 33, 'loaded': True, 'loadedTime': 2561.300000011921, 'positionName': 'LEFT', 'positionCoords': [204.4, 195], 'bid': 0.12}, {'imgObject': {}, 'id': 'shreddedwheatwithmilk', 'src': '/static/foodstim60/shreddedwheatwithmilk.jpg', 'key': 'i', 'origWidth': 410, 'origHeight': 410, 'width': 410, 'height': 410, 'widthPercent': 0.45, 'rescaleHeight': False, 'trialN': 33, 'loaded': True, 'loadedTime': 3196.800000011921, 'positionName': 'RIGHT', 'positionCoords': [665.6, 195], 'bid': 0.12}]",64447.0,1669843811775,sushi w_condiments,shreddedwheatwithmilk,0.12,0.12,0.0,shreddedwheatwithmilk,1021.1000000238419,1021,1021.6000000238419,True,i,65978.30000001192,1531.300000011921,1669843813306,1531,HRV,HRV_0305,2022-11-30 21:34:33
34,"[{'imgObject': {}, 'id': 'hotdog w must', 'src': '/static/foodstim60/hotdog w must.jpg', 'key': 'u', 'origWidth': 409, 'origHeight': 409, 'width': 409, 'height': 409, 'widthPercent': 0.45, 'rescaleHeight': False, 'trialN': 34, 'loaded': True, 'loadedTime': 3198.7000000178814, 'positionName': 'LEFT', 'positionCoords': [205.4, 195.5], 'bid': 0.06}, {'imgObject': {}, 'id': 'blueberries', 'src': '/static/foodstim60/blueberries.jpg', 'key': 'i', 'origWidth': 411, 'origHeight': 411, 'width': 411, 'height': 411, 'widthPercent': 0.45, 'rescaleHeight': False, 'trialN': 34, 'loaded': True, 'loadedTime': 3012.800000011921, 'positionName': 'RIGHT', 'positionCoords': [665.6, 194.5], 'bid': 0.06}]",65978.80000001192,1669843813307,hotdog w must,blueberries,0.06,0.06,0.0,blueberries,1042.300000011921,1042,1042.800000011921,True,i,67532.30000001192,1553.5,1669843814860,1553,HRV,HRV_0305,2022-11-30 21:34:33
35,"[{'imgObject': {}, 'id': 'mango', 'src': '/static/foodstim60/mango.jpg', 'key': 'u', 'origWidth': 411, 'origHeight': 411, 'width': 411, 'height': 411, 'widthPercent': 0.45, 'rescaleHeight': False, 'trialN': 35, 'loaded': True, 'loadedTime': 3200.4000000059605, 'positionName': 'LEFT', 'positionCoords': [203.4, 194.5], 'bid': 0.34}, {'imgObject': {}, 'id': 'yogurt no spoon', 'src': '/static/foodstim60/yogurt no spoon.jpg', 'key': 'i', 'origWidth': 411, 'origHeight': 410, 'width': 411, 'height': 410, 'widthPercent': 0.45, 'rescaleHeight': False, 'trialN': 35, 'loaded': True, 'loadedTime': 3222.9000000059605, 'positionName': 'RIGHT', 'positionCoords': [665.6, 195], 'bid': 1.03}]",67532.5,1669843814860,mango,yogurt no spoon,0.34,1.03,0.69,yogurt no spoon,1190.9000000059605,1192,1191.5,True,i,69231.70000001788,1699.2000000178814,1669843816559,1699,HRV,HRV_0305,2022-11-30 21:34:33
36,"[{'imgObject': {}, 'id': 'sweetpotato', 'src': '/static/foodstim60/sweetpotato.jpg', 'key': 'u', 'origWidth': 410, 'origHeight': 410, 'width': 410, 'height': 410, 'widthPercent': 0.45, 'rescaleHeight': False, 'trialN': 36, 'loaded': True, 'loadedTime': 3223.4000000059605, 'positionName': 'LEFT', 'positionCoords': [204.4, 195], 'bid': 0.84}, {'imgObject': {}, 'id': 'salmon', 'src': '/static/foodstim60/salmon.jpg', 'key': 'i', 'origWidth': 410, 'origHeight': 409, 'width': 410, 'height': 409, 'widthPercent': 0.45, 'rescaleHeight': False, 'trialN': 36, 'loaded': True, 'loadedTime': 2915.800000011921, 'positionName': 'RIGHT', 'positionCoords': [665.6, 195.5], 'bid': 0.79}]",69232.10000002384,1669843816560,sweetpotato,salmon,0.84,0.79,-0.04999999999999993,sweetpotato,1005.1999999880791,1006,1005.5999999940395,True,u,70744.5,1512.3999999761581,1669843818072,1512,HRV,HRV_0305,2022-11-30 21:34:33
37,"[{'imgObject': {}, 'id': 'eggs', 'src': '/static/foodstim60/eggs.jpg', 'key': 'u', 'origWidth': 409, 'origHeight': 409, 'width': 409, 'height': 409, 'widthPercent': 0.45, 'rescaleHeight': False, 'trialN': 37, 'loaded': True, 'loadedTime': 2839, 'positionName': 'LEFT', 'positionCoords': [205.4, 195.5], 'bid': 0.01}, {'imgObject': {}, 'id': 'chickenfingers', 'src': '/static/foodstim60/chickenfingers.jpg', 'key': 'i', 'origWidth': 410, 'origHeight': 410, 'width': 410, 'height': 410, 'widthPercent': 0.45, 'rescaleHeight': False, 'trialN': 37, 'loaded': True, 'loadedTime': 2675.5, 'positionName': 'RIGHT', 'positionCoords': [665.6, 195], 'bid': 0.64}]",70744.90000000596,1669843818073,eggs,chickenfingers,0.01,0.64,0.63,chickenfingers,1300.5999999940395,1301,1301.2000000178814,True,i,72557.80000001192,1812.9000000059605,1669843819886,1813,HRV,HRV_0305,2022-11-30 21:34:33
38,"[{'imgObject': {}, 'id': 'fried eggs', 'src': '/static/foodstim60/fried eggs.jpg', 'key': 'u', 'origWidth': 410, 'origHeight': 410, 'width': 410, 'height': 410, 'widthPercent': 0.45, 'rescaleHeight': False, 'trialN': 38, 'loaded': True, 'loadedTime': 3225.9000000059605, 'positionName': 'LEFT', 'positionCoords': [204.4, 195], 'bid': 0.09}, {'imgObject': {}, 'id': 'burger', 'src': '/static/foodstim60/burger.jpg', 'key': 'i', 'origWidth': 409, 'origHeight': 409, 'width': 409, 'height': 409, 'widthPercent': 0.45, 'rescaleHeight': False, 'trialN': 38, 'loaded': True, 'loadedTime': 3230.100000023842, 'positionName': 'RIGHT', 'positionCoords': [665.6, 195.5], 'bid': 0.1}]",72558.20000001788,1669843819886,fried eggs,burger,0.09,0.1,0.010000000000000009,burger,1464.699999988079,1465,1465.199999988079,True,i,74542.20000001788,1984.0,1669843821870,1984,HRV,HRV_0305,2022-11-30 21:34:33
39,"[{'imgObject': {}, 'id': 'eggs', 'src': '/static/foodstim60/eggs.jpg', 'key': 'u', 'origWidth': 409, 'origHeight': 409, 'width': 409, 'height': 409, 'widthPercent': 0.45, 'rescaleHeight': False, 'trialN': 39, 'loaded': True, 'loadedTime': 2818.800000011921, 'positionName': 'LEFT', 'positionCoords': [205.4, 195.5], 'bid': 0.01}, {'imgObject': {}, 'id': 'avocado', 'src': '/static/foodstim60/avocado.jpg', 'key': 'i', 'origWidth': 409, 'origHeight': 409, 'width': 409, 'height': 409, 'widthPercent': 0.45, 'rescaleHeight': False, 'trialN': 39, 'loaded': True, 'loadedTime': 3143.4000000059605, 'positionName': 'RIGHT', 'positionCoords': [665.6, 195.5], 'bid': 0}]",74542.5,1669843821870,eggs,avocado,0.01,0.0,-0.01,eggs,1067.0,1068,1067.7000000178814,True,u,76121.90000000596,1579.4000000059605,1669843823450,1580,HRV,HRV_0305,2022-11-30 21:34:33
40,"[{'imgObject': {}, 'id': 'mango', 'src': '/static/foodstim60/mango.jpg', 'key': 'u', 'origWidth': 411, 'origHeight': 411, 'width': 411, 'height': 411, 'widthPercent': 0.45, 'rescaleHeight': False, 'trialN': 40, 'loaded': True, 'loadedTime': 3200.800000011921, 'positionName': 'LEFT', 'positionCoords': [203.4, 194.5], 'bid': 0.34}, {'imgObject': {}, 'id': 'blackbeanswithrice', 'src': '/static/foodstim60/blackbeanswithrice.jpg', 'key': 'i', 'origWidth': 410, 'origHeight': 410, 'width': 410, 'height': 410, 'widthPercent': 0.45, 'rescaleHeight': False, 'trialN': 40, 'loaded': True, 'loadedTime': 3232.300000011921, 'positionName': 'RIGHT', 'positionCoords': [665.6, 195], 'bid': 0.54}]",76122.20000001788,1669843823450,mango,blackbeanswithrice,0.34,0.54,0.2,blackbeanswithrice,1074.0999999940395,1075,1074.699999988079,True,i,77719.60000002384,1597.4000000059605,1669843825047,1597,HRV,HRV_0305,2022-11-30 21:34:33
41,"[{'imgObject': {}, 'id': 'blueberries', 'src': '/static/foodstim60/blueberries.jpg', 'key': 'u', 'origWidth': 411, 'origHeight': 411, 'width': 411, 'height': 411, 'widthPercent': 0.45, 'rescaleHeight': False, 'trialN': 41, 'loaded': True, 'loadedTime': 3014.4000000059605, 'positionName': 'LEFT', 'positionCoords': [203.4, 194.5], 'bid': 0.06}, {'imgObject': {}, 'id': 'corn cob', 'src': '/static/foodstim60/corn cob.jpg', 'key': 'i', 'origWidth': 411, 'origHeight': 411, 'width': 411, 'height': 411, 'widthPercent': 0.45, 'rescaleHeight': False, 'trialN': 41, 'loaded': True, 'loadedTime': 3256.7000000178814, 'positionName': 'RIGHT', 'positionCoords': [665.6, 194.5], 'bid': 0}]",77719.90000000596,1669843825048,blueberries,corn cob,0.06,0.0,-0.06,blueberries,1116.5999999940395,1117,1117.300000011921,True,u,79350.80000001192,1630.9000000059605,1669843826679,1631,HRV,HRV_0305,2022-11-30 21:34:33
42,"[{'imgObject': {}, 'id': 'salad w chicken', 'src': '/static/foodstim60/salad w chicken.jpg', 'key': 'u', 'origWidth': 411, 'origHeight': 411, 'width': 411, 'height': 411, 'widthPercent': 0.45, 'rescaleHeight': False, 'trialN': 42, 'loaded': True, 'loadedTime': 3168.2000000178814, 'positionName': 'LEFT', 'positionCoords': [203.4, 194.5], 'bid': 1.23}, {'imgObject': {}, 'id': 'fried eggs', 'src': '/static/foodstim60/fried eggs.jpg', 'key': 'i', 'origWidth': 410, 'origHeight': 410, 'width': 410, 'height': 410, 'widthPercent': 0.45, 'rescaleHeight': False, 'trialN': 42, 'loaded': True, 'loadedTime': 3228, 'positionName': 'RIGHT', 'positionCoords': [665.6, 195], 'bid': 0.09}]",79351.20000001788,1669843826679,salad w chicken,fried eggs,1.23,0.09,-1.14,salad w chicken,1007.5,1008,1007.9000000059605,True,u,80873.5,1522.2999999821186,1669843828201,1522,HRV,HRV_0305,2022-11-30 21:34:33
43,"[{'imgObject': {}, 'id': 'blackbeanswithrice', 'src': '/static/foodstim60/blackbeanswithrice.jpg', 'key': 'u', 'origWidth': 410, 'origHeight': 410, 'width': 410, 'height': 410, 'widthPercent': 0.45, 'rescaleHeight': False, 'trialN': 43, 'loaded': True, 'loadedTime': 3232.7000000178814, 'positionName': 'LEFT', 'positionCoords': [204.4, 195], 'bid': 0.54}, {'imgObject': {}, 'id': 'mashed potato', 'src': '/static/foodstim60/mashed potato.jpg', 'key': 'i', 'origWidth': 409, 'origHeight': 409, 'width': 409, 'height': 409, 'widthPercent': 0.45, 'rescaleHeight': False, 'trialN': 43, 'loaded': True, 'loadedTime': 3258.9000000059605, 'positionName': 'RIGHT', 'positionCoords': [665.6, 195.5], 'bid': 0.12}]",80874.0,1669843828202,blackbeanswithrice,mashed potato,0.54,0.12,-0.42000000000000004,blackbeanswithrice,1038.1000000238419,1035,1038.5,True,u,82417.80000001192,1543.800000011921,1669843829743,1541,HRV,HRV_0305,2022-11-30 21:34:33
44,"[{'imgObject': {}, 'id': 'rigatoni and sauce', 'src': '/static/foodstim60/rigatoni and sauce.jpg', 'key': 'u', 'origWidth': 410, 'origHeight': 411, 'width': 410, 'height': 411, 'widthPercent': 0.45, 'rescaleHeight': False, 'trialN': 44, 'loaded': True, 'loadedTime': 3261.800000011921, 'positionName': 'LEFT', 'positionCoords': [204.4, 194.5], 'bid': 0.03}, {'imgObject': {}, 'id': 'luckycharms', 'src': '/static/foodstim60/luckycharms.jpg', 'key': 'i', 'origWidth': 410, 'origHeight': 409, 'width': 410, 'height': 409, 'widthPercent': 0.45, 'rescaleHeight': False, 'trialN': 44, 'loaded': True, 'loadedTime': 3171.5, 'positionName': 'RIGHT', 'positionCoords': [665.6, 195.5], 'bid': 0.04}]",82418.30000001192,1669843829743,rigatoni and sauce,luckycharms,0.03,0.04,0.010000000000000002,luckycharms,1336.0,1337,1336.5,True,i,84263.80000001192,1845.5,1669843831589,1846,HRV,HRV_0305,2022-11-30 21:34:33
45,"[{'imgObject': {}, 'id': 'avocado', 'src': '/static/foodstim60/avocado.jpg', 'key': 'u', 'origWidth': 409, 'origHeight': 409, 'width': 409, 'height': 409, 'widthPercent': 0.45, 'rescaleHeight': False, 'trialN': 45, 'loaded': True, 'loadedTime': 3142.800000011921, 'positionName': 'LEFT', 'positionCoords': [205.4, 195.5], 'bid': 0}, {'imgObject': {}, 'id': 'popsicles', 'src': '/static/foodstim60/popsicles.jpg', 'key': 'i', 'origWidth': 410, 'origHeight': 410, 'width': 410, 'height': 410, 'widthPercent': 0.45, 'rescaleHeight': False, 'trialN': 45, 'loaded': True, 'loadedTime': 3293.800000011921, 'positionName': 'RIGHT', 'positionCoords': [665.6, 195], 'bid': 0}]",84264.20000001788,1669843831589,avocado,popsicles,0.0,0.0,0.0,avocado,1379.9000000059605,1381,1380.4000000059605,True,u,86162.5,1898.2999999821186,1669843833487,1898,HRV,HRV_0305,2022-11-30 21:34:33
46,"[{'imgObject': {}, 'id': 'fried eggs', 'src': '/static/foodstim60/fried eggs.jpg', 'key': 'u', 'origWidth': 410, 'origHeight': 410, 'width': 410, 'height': 410, 'widthPercent': 0.45, 'rescaleHeight': False, 'trialN': 46, 'loaded': True, 'loadedTime': 3227.600000023842, 'positionName': 'LEFT', 'positionCoords': [204.4, 195], 'bid': 0.09}, {'imgObject': {}, 'id': 'mac & cheese', 'src': '/static/foodstim60/mac & cheese.jpg', 'key': 'i', 'origWidth': 410, 'origHeight': 410, 'width': 410, 'height': 410, 'widthPercent': 0.45, 'rescaleHeight': False, 'trialN': 46, 'loaded': True, 'loadedTime': 2649.300000011921, 'positionName': 'RIGHT', 'positionCoords': [665.6, 195], 'bid': 0.01}]",86162.90000000596,1669843833488,fried eggs,mac & cheese,0.09,0.01,-0.08,mac & cheese,1535.4000000059605,1536,1535.9000000059605,True,i,88213.70000001788,2050.800000011921,1669843835539,2051,HRV,HRV_0305,2022-11-30 21:34:33
47,"[{'imgObject': {}, 'id': 'roastedpotatoes', 'src': '/static/foodstim60/roastedpotatoes.jpg', 'key': 'u', 'origWidth': 409, 'origHeight': 410, 'width': 409, 'height': 410, 'widthPercent': 0.45, 'rescaleHeight': False, 'trialN': 47, 'loaded': True, 'loadedTime': 2595.2000000178814, 'positionName': 'LEFT', 'positionCoords': [205.4, 195], 'bid': 2.06}, {'imgObject': {}, 'id': 'bagel and cc', 'src': '/static/foodstim60/bagel and cc.jpg', 'key': 'i', 'origWidth': 410, 'origHeight': 410, 'width': 410, 'height': 410, 'widthPercent': 0.45, 'rescaleHeight': False, 'trialN': 47, 'loaded': True, 'loadedTime': 3263.7000000178814, 'positionName': 'RIGHT', 'positionCoords': [665.6, 195], 'bid': 2.56}]",88214.20000001788,1669843835539,roastedpotatoes,bagel and cc,2.06,2.56,0.5,bagel and cc,980.2999999821186,981,980.7999999821186,True,i,89708.70000001788,1494.5,1669843837034,1495,HRV,HRV_0305,2022-11-30 21:34:33
48,"[{'imgObject': {}, 'id': 'Grapes', 'src': '/static/foodstim60/Grapes.jpg', 'key': 'u', 'origWidth': 411, 'origHeight': 411, 'width': 411, 'height': 411, 'widthPercent': 0.45, 'rescaleHeight': False, 'trialN': 48, 'loaded': True, 'loadedTime': 3264.2000000178814, 'positionName': 'LEFT', 'positionCoords': [203.4, 194.5], 'bid': 0.76}, {'imgObject': {}, 'id': 'kiwi', 'src': '/static/foodstim60/kiwi.jpg', 'key': 'i', 'origWidth': 410, 'origHeight': 410, 'width': 410, 'height': 410, 'widthPercent': 0.45, 'rescaleHeight': False, 'trialN': 48, 'loaded': True, 'loadedTime': 3268.4000000059605, 'positionName': 'RIGHT', 'positionCoords': [665.6, 195], 'bid': 0.87}]",89709.0,1669843837034,Grapes,kiwi,0.76,0.87,0.10999999999999999,kiwi,1331.800000011921,1332,1332.4000000059605,True,i,91557.20000001788,1848.2000000178814,1669843838882,1848,HRV,HRV_0305,2022-11-30 21:34:33
49,"[{'imgObject': {}, 'id': 'omelette', 'src': '/static/foodstim60/omelette.jpg', 'key': 'u', 'origWidth': 410, 'origHeight': 409, 'width': 410, 'height': 409, 'widthPercent': 0.45, 'rescaleHeight': False, 'trialN': 49, 'loaded': True, 'loadedTime': 2888.4000000059605, 'positionName': 'LEFT', 'positionCoords': [204.4, 195.5], 'bid': 0.07}, {'imgObject': {}, 'id': 'lox', 'src': '/static/foodstim60/lox.jpg', 'key': 'i', 'origWidth': 410, 'origHeight': 411, 'width': 410, 'height': 411, 'widthPercent': 0.45, 'rescaleHeight': False, 'trialN': 49, 'loaded': True, 'loadedTime': 2716.4000000059605, 'positionName': 'RIGHT', 'positionCoords': [665.6, 194.5], 'bid': 0}]",91557.5,1669843838882,omelette,lox,0.07,0.0,-0.07,omelette,1215.300000011921,1216,1215.9000000059605,True,u,93289.10000002384,1731.6000000238419,1669843840614,1732,HRV,HRV_0305,2022-11-30 21:34:33
50,"[{'imgObject': {}, 'id': 'hotdog w must', 'src': '/static/foodstim60/hotdog w must.jpg', 'key': 'u', 'origWidth': 409, 'origHeight': 409, 'width': 409, 'height': 409, 'widthPercent': 0.45, 'rescaleHeight': False, 'trialN': 50, 'loaded': True, 'loadedTime': 3198.2000000178814, 'positionName': 'LEFT', 'positionCoords': [205.4, 195.5], 'bid': 0.06}, {'imgObject': {}, 'id': 'avocado', 'src': '/static/foodstim60/avocado.jpg', 'key': 'i', 'origWidth': 409, 'origHeight': 409, 'width': 409, 'height': 409, 'widthPercent': 0.45, 'rescaleHeight': False, 'trialN': 50, 'loaded': True, 'loadedTime': 3143.600000023842, 'positionName': 'RIGHT', 'positionCoords': [665.6, 195.5], 'bid': 0}]",93289.5,1669843840614,hotdog w must,avocado,0.06,0.0,-0.06,hotdog w must,940.5,941,941.0,True,u,94736.60000002384,1447.1000000238419,1669843842062,1448,HRV,HRV_0305,2022-11-30 21:34:33
51,"[{'imgObject': {}, 'id': 'mashed potato', 'src': '/static/foodstim60/mashed potato.jpg', 'key': 'u', 'origWidth': 409, 'origHeight': 409, 'width': 409, 'height': 409, 'widthPercent': 0.45, 'rescaleHeight': False, 'trialN': 51, 'loaded': True, 'loadedTime': 3259.300000011921, 'positionName': 'LEFT', 'positionCoords': [205.4, 195.5], 'bid': 0.12}, {'imgObject': {}, 'id': 'Grapes', 'src': '/static/foodstim60/Grapes.jpg', 'key': 'i', 'origWidth': 411, 'origHeight': 411, 'width': 411, 'height': 411, 'widthPercent': 0.45, 'rescaleHeight': False, 'trialN': 51, 'loaded': True, 'loadedTime': 3266.2000000178814, 'positionName': 'RIGHT', 'positionCoords': [665.6, 194.5], 'bid': 0.76}]",94736.90000000596,1669843842062,mashed potato,Grapes,0.12,0.76,0.64,Grapes,1317.300000011921,1318,1317.9000000059605,True,i,96570.5,1833.5999999940395,1669843843895,1833,HRV,HRV_0305,2022-11-30 21:34:33
52,"[{'imgObject': {}, 'id': 'hashbrowns', 'src': '/static/foodstim60/hashbrowns.jpg', 'key': 'u', 'origWidth': 411, 'origHeight': 410, 'width': 411, 'height': 410, 'widthPercent': 0.45, 'rescaleHeight': False, 'trialN': 52, 'loaded': True, 'loadedTime': 2892.600000023842, 'positionName': 'LEFT', 'positionCoords': [203.4, 195], 'bid': 0.04}, {'imgObject': {}, 'id': 'rigatoni', 'src': '/static/foodstim60/rigatoni.jpg', 'key': 'i', 'origWidth': 411, 'origHeight': 411, 'width': 411, 'height': 411, 'widthPercent': 0.45, 'rescaleHeight': False, 'trialN': 52, 'loaded': True, 'loadedTime': 2915.4000000059605, 'positionName': 'RIGHT', 'positionCoords': [665.6, 194.5], 'bid': 0.06}]",96570.80000001192,1669843843896,hashbrowns,rigatoni,0.04,0.06,0.019999999999999997,rigatoni,1546.4000000059605,1547,1546.9000000059605,True,i,98625.60000002384,2054.800000011921,1669843845951,2055,HRV,HRV_0305,2022-11-30 21:34:33
53,"[{'imgObject': {}, 'id': 'ice cream sundae 002', 'src': '/static/foodstim60/ice cream sundae 002.jpg', 'key': 'u', 'origWidth': 409, 'origHeight': 409, 'width': 409, 'height': 409, 'widthPercent': 0.45, 'rescaleHeight': False, 'trialN': 53, 'loaded': True, 'loadedTime': 2746, 'positionName': 'LEFT', 'positionCoords': [205.4, 195.5], 'bid': 0}, {'imgObject': {}, 'id': 'raisin bran w milk', 'src': '/static/foodstim60/raisin bran w milk.jpg', 'key': 'i', 'origWidth': 411, 'origHeight': 411, 'width': 411, 'height': 411, 'widthPercent': 0.45, 'rescaleHeight': False, 'trialN': 53, 'loaded': True, 'loadedTime': 2674.4000000059605, 'positionName': 'RIGHT', 'positionCoords': [665.6, 194.5], 'bid': 0.06}]",98625.90000000596,1669843845951,ice cream sundae 002,raisin bran w milk,0.0,0.06,0.06,raisin bran w milk,1661.0,1661,1661.5,True,i,100794.40000000596,2168.5,1669843848119,2168,HRV,HRV_0305,2022-11-30 21:34:33
54,"[{'imgObject': {}, 'id': 'apple slices', 'src': '/static/foodstim60/apple slices.jpg', 'key': 'u', 'origWidth': 409, 'origHeight': 410, 'width': 409, 'height': 410, 'widthPercent': 0.45, 'rescaleHeight': False, 'trialN': 54, 'loaded': True, 'loadedTime': 3270.5, 'positionName': 'LEFT', 'positionCoords': [205.4, 195], 'bid': 0.56}, {'imgObject': {}, 'id': 'cantaloupe', 'src': '/static/foodstim60/cantaloupe.jpg', 'key': 'i', 'origWidth': 409, 'origHeight': 409, 'width': 409, 'height': 409, 'widthPercent': 0.45, 'rescaleHeight': False, 'trialN': 54, 'loaded': True, 'loadedTime': 2578.4000000059605, 'positionName': 'RIGHT', 'positionCoords': [665.6, 195.5], 'bid': 1.12}]",100794.90000000596,1669843848120,apple slices,cantaloupe,0.56,1.12,0.56,cantaloupe,1270.800000011921,1271,1271.300000011921,True,i,102577.90000000596,1783.0,1669843849903,1783,HRV,HRV_0305,2022-11-30 21:34:33
55,"[{'imgObject': {}, 'id': 'tacos', 'src': '/static/foodstim60/tacos.jpg', 'key': 'u', 'origWidth': 411, 'origHeight': 411, 'width': 411, 'height': 411, 'widthPercent': 0.45, 'rescaleHeight': False, 'trialN': 55, 'loaded': True, 'loadedTime': 3144.2000000178814, 'positionName': 'LEFT', 'positionCoords': [203.4, 194.5], 'bid': 1.04}, {'imgObject': {}, 'id': 'baked potato', 'src': '/static/foodstim60/baked potato.jpg', 'key': 'i', 'origWidth': 409, 'origHeight': 410, 'width': 409, 'height': 410, 'widthPercent': 0.45, 'rescaleHeight': False, 'trialN': 55, 'loaded': True, 'loadedTime': 2791.7000000178814, 'positionName': 'RIGHT', 'positionCoords': [665.6, 195], 'bid': 1.48}]",102578.20000001788,1669843849903,tacos,baked potato,1.04,1.48,0.43999999999999995,baked potato,1211.5999999940395,1212,1212.0,True,i,104299.0,1720.7999999821186,1669843851624,1721,HRV,HRV_0305,2022-11-30 21:34:33
56,"[{'imgObject': {}, 'id': 'rigatoni and sauce', 'src': '/static/foodstim60/rigatoni and sauce.jpg', 'key': 'u', 'origWidth': 410, 'origHeight': 411, 'width': 410, 'height': 411, 'widthPercent': 0.45, 'rescaleHeight': False, 'trialN': 56, 'loaded': True, 'loadedTime': 3261.7000000178814, 'positionName': 'LEFT', 'positionCoords': [204.4, 194.5], 'bid': 0.03}, {'imgObject': {}, 'id': 'hashbrowns', 'src': '/static/foodstim60/hashbrowns.jpg', 'key': 'i', 'origWidth': 411, 'origHeight': 410, 'width': 411, 'height': 410, 'widthPercent': 0.45, 'rescaleHeight': False, 'trialN': 56, 'loaded': True, 'loadedTime': 2892.300000011921, 'positionName': 'RIGHT', 'positionCoords': [665.6, 195], 'bid': 0.04}]",104299.30000001192,1669843851624,rigatoni and sauce,hashbrowns,0.03,0.04,0.010000000000000002,rigatoni and sauce,1873.300000011921,1874,1873.9000000059605,True,u,106680.80000001192,2381.5,1669843854006,2382,HRV,HRV_0305,2022-11-30 21:34:33
57,"[{'imgObject': {}, 'id': 'cherries', 'src': '/static/foodstim60/cherries.jpg', 'key': 'u', 'origWidth': 410, 'origHeight': 411, 'width': 410, 'height': 411, 'widthPercent': 0.45, 'rescaleHeight': False, 'trialN': 57, 'loaded': True, 'loadedTime': 3174.7000000178814, 'positionName': 'LEFT', 'positionCoords': [204.4, 194.5], 'bid': 0.95}, {'imgObject': {}, 'id': 'kiwi', 'src': '/static/foodstim60/kiwi.jpg', 'key': 'i', 'origWidth': 410, 'origHeight': 410, 'width': 410, 'height': 410, 'widthPercent': 0.45, 'rescaleHeight': False, 'trialN': 57, 'loaded': True, 'loadedTime': 3268.300000011921, 'positionName': 'RIGHT', 'positionCoords': [665.6, 195], 'bid': 0.87}]",106681.10000002384,1669843854006,cherries,kiwi,0.95,0.87,-0.07999999999999996,cherries,1475.7999999821186,1476,1476.2999999821186,True,u,108674.0,1992.8999999761581,1669843855999,1993,HRV,HRV_0305,2022-11-30 21:34:33
58,"[{'imgObject': {}, 'id': 'lox', 'src': '/static/foodstim60/lox.jpg', 'key': 'u', 'origWidth': 410, 'origHeight': 411, 'width': 410, 'height': 411, 'widthPercent': 0.45, 'rescaleHeight': False, 'trialN': 58, 'loaded': True, 'loadedTime': 2696, 'positionName': 'LEFT', 'positionCoords': [204.4, 194.5], 'bid': 0}, {'imgObject': {}, 'id': 'hotdog w must', 'src': '/static/foodstim60/hotdog w must.jpg', 'key': 'i', 'origWidth': 409, 'origHeight': 409, 'width': 409, 'height': 409, 'widthPercent': 0.45, 'rescaleHeight': False, 'trialN': 58, 'loaded': True, 'loadedTime': 3197, 'positionName': 'RIGHT', 'positionCoords': [665.6, 195.5], 'bid': 0.06}]",108674.5,1669843855999,lox,hotdog w must,0.0,0.06,0.06,hotdog w must,1176.300000011921,1177,1176.9000000059605,True,i,110360.10000002384,1685.6000000238419,1669843857685,1686,HRV,HRV_0305,2022-11-30 21:34:33
59,"[{'imgObject': {}, 'id': 'Tribe humus pita', 'src': '/static/foodstim60/Tribe humus pita.jpg', 'key': 'u', 'origWidth': 411, 'origHeight': 411, 'width': 411, 'height': 411, 'widthPercent': 0.45, 'rescaleHeight': False, 'trialN': 59, 'loaded': True, 'loadedTime': 3092.5, 'positionName': 'LEFT', 'positionCoords': [203.4, 194.5], 'bid': 0.2}, {'imgObject': {}, 'id': 'omelette', 'src': '/static/foodstim60/omelette.jpg', 'key': 'i', 'origWidth': 410, 'origHeight': 409, 'width': 410, 'height': 409, 'widthPercent': 0.45, 'rescaleHeight': False, 'trialN': 59, 'loaded': True, 'loadedTime': 2889.300000011921, 'positionName': 'RIGHT', 'positionCoords': [665.6, 195.5], 'bid': 0.07}]",110360.5,1669843857685,Tribe humus pita,omelette,0.2,0.07,-0.13,omelette,1214.4000000059605,1215,1214.9000000059605,True,i,112081.60000002384,1721.1000000238419,1669843859407,1722,HRV,HRV_0305,2022-11-30 21:34:33
60,"[{'imgObject': {}, 'id': 'olives', 'src': '/static/foodstim60/olives.jpg', 'key': 'u', 'origWidth': 410, 'origHeight': 410, 'width': 410, 'height': 410, 'widthPercent': 0.45, 'rescaleHeight': False, 'trialN': 60, 'loaded': True, 'loadedTime': 2619.300000011921, 'positionName': 'LEFT', 'positionCoords': [204.4, 195], 'bid': 0}, {'imgObject': {}, 'id': 'granola w milk', 'src': '/static/foodstim60/granola w milk.jpg', 'key': 'i', 'origWidth': 410, 'origHeight': 410, 'width': 410, 'height': 410, 'widthPercent': 0.45, 'rescaleHeight': False, 'trialN': 60, 'loaded': True, 'loadedTime': 3039.300000011921, 'positionName': 'RIGHT', 'positionCoords': [665.6, 195], 'bid': 0.06}]",112082.0,1669843859407,olives,granola w milk,0.0,0.06,0.06,granola w milk,1287.800000011921,1288,1288.300000011921,True,i,113877.5,1795.5,1669843861202,1795,HRV,HRV_0305,2022-11-30 21:34:33
61,"[{'imgObject': {}, 'id': 'apple slices', 'src': '/static/foodstim60/apple slices.jpg', 'key': 'u', 'origWidth': 409, 'origHeight': 410, 'width': 409, 'height': 410, 'widthPercent': 0.45, 'rescaleHeight': False, 'trialN': 61, 'loaded': True, 'loadedTime': 3270.5, 'positionName': 'LEFT', 'positionCoords': [205.4, 195], 'bid': 0.56}, {'imgObject': {}, 'id': 'turkeysandwich', 'src': '/static/foodstim60/turkeysandwich.jpg', 'key': 'i', 'origWidth': 409, 'origHeight': 409, 'width': 409, 'height': 409, 'widthPercent': 0.45, 'rescaleHeight': False, 'trialN': 61, 'loaded': True, 'loadedTime': 2942.9000000059605, 'positionName': 'RIGHT', 'positionCoords': [665.6, 195.5], 'bid': 0.84}]",113877.80000001192,1669843861203,apple slices,turkeysandwich,0.56,0.84,0.2799999999999999,apple slices,1520.800000011921,1521,1521.300000011921,True,u,115911.80000001192,2034.0,1669843863237,2034,HRV,HRV_0305,2022-11-30 21:34:33
62,"[{'imgObject': {}, 'id': 'eggs', 'src': '/static/foodstim60/eggs.jpg', 'key': 'u', 'origWidth': 409, 'origHeight': 409, 'width': 409, 'height': 409, 'widthPercent': 0.45, 'rescaleHeight': False, 'trialN': 62, 'loaded': True, 'loadedTime': 2839.9000000059605, 'positionName': 'LEFT', 'positionCoords': [205.4, 195.5], 'bid': 0.01}, {'imgObject': {}, 'id': 'lox', 'src': '/static/foodstim60/lox.jpg', 'key': 'i', 'origWidth': 410, 'origHeight': 411, 'width': 410, 'height': 411, 'widthPercent': 0.45, 'rescaleHeight': False, 'trialN': 62, 'loaded': True, 'loadedTime': 2696.300000011921, 'positionName': 'RIGHT', 'positionCoords': [665.6, 194.5], 'bid': 0}]",115912.10000002384,1669843863237,eggs,lox,0.01,0.0,-0.01,eggs,1625.0999999940395,1626,1625.5999999940395,True,u,118048.40000000596,2136.2999999821186,1669843865373,2136,HRV,HRV_0305,2022-11-30 21:34:33
63,"[{'imgObject': {}, 'id': 'roastedpotatoes', 'src': '/static/foodstim60/roastedpotatoes.jpg', 'key': 'u', 'origWidth': 409, 'origHeight': 410, 'width': 409, 'height': 410, 'widthPercent': 0.45, 'rescaleHeight': False, 'trialN': 63, 'loaded': True, 'loadedTime': 2595.4000000059605, 'positionName': 'LEFT', 'positionCoords': [205.4, 195], 'bid': 2.06}, {'imgObject': {}, 'id': 'cherries', 'src': '/static/foodstim60/cherries.jpg', 'key': 'i', 'origWidth': 410, 'origHeight': 411, 'width': 410, 'height': 411, 'widthPercent': 0.45, 'rescaleHeight': False, 'trialN': 63, 'loaded': True, 'loadedTime': 3174.5, 'positionName': 'RIGHT', 'positionCoords': [665.6, 194.5], 'bid': 0.95}]",118048.80000001192,1669843865374,roastedpotatoes,cherries,2.06,0.95,-1.11,roastedpotatoes,1148.699999988079,1149,1149.199999988079,True,u,119715.70000001788,1666.9000000059605,1669843867041,1667,HRV,HRV_0305,2022-11-30 21:34:33
64,"[{'imgObject': {}, 'id': 'corn cob', 'src': '/static/foodstim60/corn cob.jpg', 'key': 'u', 'origWidth': 411, 'origHeight': 411, 'width': 411, 'height': 411, 'widthPercent': 0.45, 'rescaleHeight': False, 'trialN': 64, 'loaded': True, 'loadedTime': 3256.100000023842, 'positionName': 'LEFT', 'positionCoords': [203.4, 194.5], 'bid': 0}, {'imgObject': {}, 'id': 'popsicles', 'src': '/static/foodstim60/popsicles.jpg', 'key': 'i', 'origWidth': 410, 'origHeight': 410, 'width': 410, 'height': 410, 'widthPercent': 0.45, 'rescaleHeight': False, 'trialN': 64, 'loaded': True, 'loadedTime': 3295.2000000178814, 'positionName': 'RIGHT', 'positionCoords': [665.6, 195], 'bid': 0}]",119716.0,1669843867041,corn cob,popsicles,0.0,0.0,0.0,popsicles,1733.1000000238419,1734,1733.6000000238419,True,i,121965.70000001788,2249.7000000178814,1669843869291,2250,HRV,HRV_0305,2022-11-30 21:34:33
65,"[{'imgObject': {}, 'id': 'raisin bran w milk', 'src': '/static/foodstim60/raisin bran w milk.jpg', 'key': 'u', 'origWidth': 411, 'origHeight': 411, 'width': 411, 'height': 411, 'widthPercent': 0.45, 'rescaleHeight': False, 'trialN': 65, 'loaded': True, 'loadedTime': 2650.9000000059605, 'positionName': 'LEFT', 'positionCoords': [203.4, 194.5], 'bid': 0.06}, {'imgObject': {}, 'id': 'mac & cheese', 'src': '/static/foodstim60/mac & cheese.jpg', 'key': 'i', 'origWidth': 410, 'origHeight': 410, 'width': 410, 'height': 410, 'widthPercent': 0.45, 'rescaleHeight': False, 'trialN': 65, 'loaded': True, 'loadedTime': 2620.300000011921, 'positionName': 'RIGHT', 'positionCoords': [665.6, 195], 'bid': 0.01}]",121966.0,1669843869291,raisin bran w milk,mac & cheese,0.06,0.01,-0.049999999999999996,mac & cheese,1383.5,1384,1384.0,True,i,123856.5,1890.5,1669843871181,1890,HRV,HRV_0305,2022-11-30 21:34:33
66,"[{'imgObject': {}, 'id': 'hotdog w must', 'src': '/static/foodstim60/hotdog w must.jpg', 'key': 'u', 'origWidth': 409, 'origHeight': 409, 'width': 409, 'height': 409, 'widthPercent': 0.45, 'rescaleHeight': False, 'trialN': 66, 'loaded': True, 'loadedTime': 3198.600000023842, 'positionName': 'LEFT', 'positionCoords': [205.4, 195.5], 'bid': 0.06}, {'imgObject': {}, 'id': 'veggieswithdip', 'src': '/static/foodstim60/veggieswithdip.jpg', 'key': 'i', 'origWidth': 409, 'origHeight': 409, 'width': 409, 'height': 409, 'widthPercent': 0.45, 'rescaleHeight': False, 'trialN': 66, 'loaded': True, 'loadedTime': 2843.600000023842, 'positionName': 'RIGHT', 'positionCoords': [665.6, 195.5], 'bid': 0.07}]",123856.80000001192,1669843871182,hotdog w must,veggieswithdip,0.06,0.07,0.010000000000000009,veggieswithdip,1507.699999988079,1508,1508.199999988079,True,i,125884.80000001192,2028.0,1669843873210,2028,HRV,HRV_0305,2022-11-30 21:34:33
67,"[{'imgObject': {}, 'id': 'chicken nuggets2', 'src': '/static/foodstim60/chicken nuggets2.jpg', 'key': 'u', 'origWidth': 410, 'origHeight': 409, 'width': 410, 'height': 409, 'widthPercent': 0.45, 'rescaleHeight': False, 'trialN': 67, 'loaded': True, 'loadedTime': 3038.9000000059605, 'positionName': 'LEFT', 'positionCoords': [204.4, 195.5], 'bid': 0.01}, {'imgObject': {}, 'id': 'seaweed', 'src': '/static/foodstim60/seaweed.jpg', 'key': 'i', 'origWidth': 410, 'origHeight': 410, 'width': 410, 'height': 410, 'widthPercent': 0.45, 'rescaleHeight': False, 'trialN': 67, 'loaded': True, 'loadedTime': 3272.800000011921, 'positionName': 'RIGHT', 'positionCoords': [665.6, 195], 'bid': 0.03}]",125885.30000001192,1669843873210,chicken nuggets2,seaweed,0.01,0.03,0.019999999999999997,chicken nuggets2,1294.4000000059605,1295,1295.0,True,u,127699.10000002384,1813.800000011921,1669843875024,1814,HRV,HRV_0305,2022-11-30 21:34:33
68,"[{'imgObject': {}, 'id': 'avocado', 'src': '/static/foodstim60/avocado.jpg', 'key': 'u', 'origWidth': 409, 'origHeight': 409, 'width': 409, 'height': 409, 'widthPercent': 0.45, 'rescaleHeight': False, 'trialN': 68, 'loaded': True, 'loadedTime': 3141.2000000178814, 'positionName': 'LEFT', 'positionCoords': [205.4, 195.5], 'bid': 0}, {'imgObject': {}, 'id': 'olives', 'src': '/static/foodstim60/olives.jpg', 'key': 'i', 'origWidth': 410, 'origHeight': 410, 'width': 410, 'height': 410, 'widthPercent': 0.45, 'rescaleHeight': False, 'trialN': 68, 'loaded': True, 'loadedTime': 2619.800000011921, 'positionName': 'RIGHT', 'positionCoords': [665.6, 195], 'bid': 0}]",127699.30000001192,1669843875024,avocado,olives,0.0,0.0,0.0,olives,1169.699999988079,1170,1170.199999988079,True,i,129379.0,1679.699999988079,1669843876704,1680,HRV,HRV_0305,2022-11-30 21:34:33
69,"[{'imgObject': {}, 'id': 'edamame', 'src': '/static/foodstim60/edamame.jpg', 'key': 'u', 'origWidth': 409, 'origHeight': 410, 'width': 409, 'height': 410, 'widthPercent': 0.45, 'rescaleHeight': False, 'trialN': 69, 'loaded': True, 'loadedTime': 2969.300000011921, 'positionName': 'LEFT', 'positionCoords': [205.4, 195], 'bid': 0.31}, {'imgObject': {}, 'id': 'steak', 'src': '/static/foodstim60/steak.jpg', 'key': 'i', 'origWidth': 410, 'origHeight': 410, 'width': 410, 'height': 410, 'widthPercent': 0.45, 'rescaleHeight': False, 'trialN': 69, 'loaded': True, 'loadedTime': 3291.800000011921, 'positionName': 'RIGHT', 'positionCoords': [665.6, 195], 'bid': 0.32}]",129379.30000001192,1669843876704,edamame,steak,0.31,0.32,0.010000000000000009,steak,1182.0,1183,1182.5,True,i,131069.5,1690.199999988079,1669843878394,1690,HRV,HRV_0305,2022-11-30 21:34:33
70,"[{'imgObject': {}, 'id': 'apple slices', 'src': '/static/foodstim60/apple slices.jpg', 'key': 'u', 'origWidth': 409, 'origHeight': 410, 'width': 409, 'height': 410, 'widthPercent': 0.45, 'rescaleHeight': False, 'trialN': 70, 'loaded': True, 'loadedTime': 3268.7000000178814, 'positionName': 'LEFT', 'positionCoords': [205.4, 195], 'bid': 0.56}, {'imgObject': {}, 'id': 'lox', 'src': '/static/foodstim60/lox.jpg', 'key': 'i', 'origWidth': 410, 'origHeight': 411, 'width': 410, 'height': 411, 'widthPercent': 0.45, 'rescaleHeight': False, 'trialN': 70, 'loaded': True, 'loadedTime': 2694.5, 'positionName': 'RIGHT', 'positionCoords': [665.6, 194.5], 'bid': 0}]",131069.90000000596,1669843878395,apple slices,lox,0.56,0.0,-0.56,apple slices,1240.5999999940395,1241,1241.2000000178814,True,u,132830.90000000596,1761.0,1669843880156,1761,HRV,HRV_0305,2022-11-30 21:34:33
71,"[{'imgObject': {}, 'id': 'burrito', 'src': '/static/foodstim60/burrito.jpg', 'key': 'u', 'origWidth': 410, 'origHeight': 410, 'width': 410, 'height': 410, 'widthPercent': 0.45, 'rescaleHeight': False, 'trialN': 71, 'loaded': True, 'loadedTime': 2719.9000000059605, 'positionName': 'LEFT', 'positionCoords': [204.4, 195], 'bid': 1.14}, {'imgObject': {}, 'id': 'bagel plain', 'src': '/static/foodstim60/bagel plain.jpg', 'key': 'i', 'origWidth': 410, 'origHeight': 410, 'width': 410, 'height': 410, 'widthPercent': 0.45, 'rescaleHeight': False, 'trialN': 71, 'loaded': True, 'loadedTime': 2815.4000000059605, 'positionName': 'RIGHT', 'positionCoords': [665.6, 195], 'bid': 2.07}]",132831.40000000596,1669843880156,burrito,bagel plain,1.14,2.07,0.9299999999999999,bagel plain,1172.4000000059605,1173,1172.800000011921,True,i,134521.30000001192,1689.9000000059605,1669843881846,1690,HRV,HRV_0305,2022-11-30 21:34:33
72,"[{'imgObject': {}, 'id': 'hotdog w must', 'src': '/static/foodstim60/hotdog w must.jpg', 'key': 'u', 'origWidth': 409, 'origHeight': 409, 'width': 409, 'height': 409, 'widthPercent': 0.45, 'rescaleHeight': False, 'trialN': 72, 'loaded': True, 'loadedTime': 3198.4000000059605, 'positionName': 'LEFT', 'positionCoords': [205.4, 195.5], 'bid': 0.06}, {'imgObject': {}, 'id': 'granola w milk', 'src': '/static/foodstim60/granola w milk.jpg', 'key': 'i', 'origWidth': 410, 'origHeight': 410, 'width': 410, 'height': 410, 'widthPercent': 0.45, 'rescaleHeight': False, 'trialN': 72, 'loaded': True, 'loadedTime': 3062.4000000059605, 'positionName': 'RIGHT', 'positionCoords': [665.6, 195], 'bid': 0.06}]",134521.60000002384,1669843881847,hotdog w must,granola w milk,0.06,0.06,0.0,granola w milk,1094.5999999940395,1095,1095.0999999940395,True,i,136131.5,1609.8999999761581,1669843883456,1609,HRV,HRV_0305,2022-11-30 21:34:33
73,"[{'imgObject': {}, 'id': 'blueberries', 'src': '/static/foodstim60/blueberries.jpg', 'key': 'u', 'origWidth': 411, 'origHeight': 411, 'width': 411, 'height': 411, 'widthPercent': 0.45, 'rescaleHeight': False, 'trialN': 73, 'loaded': True, 'loadedTime': 3015.2000000178814, 'positionName': 'LEFT', 'positionCoords': [203.4, 194.5], 'bid': 0.06}, {'imgObject': {}, 'id': 'cherries', 'src': '/static/foodstim60/cherries.jpg', 'key': 'i', 'origWidth': 410, 'origHeight': 411, 'width': 410, 'height': 411, 'widthPercent': 0.45, 'rescaleHeight': False, 'trialN': 73, 'loaded': True, 'loadedTime': 3172.800000011921, 'positionName': 'RIGHT', 'positionCoords': [665.6, 194.5], 'bid': 0.95}]",136131.80000001192,1669843883457,blueberries,cherries,0.06,0.95,0.8899999999999999,cherries,1426.300000011921,1427,1426.800000011921,True,i,138067.20000001788,1935.4000000059605,1669843885392,1935,HRV,HRV_0305,2022-11-30 21:34:33
74,"[{'imgObject': {}, 'id': 'hotdog w must', 'src': '/static/foodstim60/hotdog w must.jpg', 'key': 'u', 'origWidth': 409, 'origHeight': 409, 'width': 409, 'height': 409, 'widthPercent': 0.45, 'rescaleHeight': False, 'trialN': 74, 'loaded': True, 'loadedTime': 3198.9000000059605, 'positionName': 'LEFT', 'positionCoords': [205.4, 195.5], 'bid': 0.06}, {'imgObject': {}, 'id': 'pear', 'src': '/static/foodstim60/pear.jpg', 'key': 'i', 'origWidth': 411, 'origHeight': 410, 'width': 411, 'height': 410, 'widthPercent': 0.45, 'rescaleHeight': False, 'trialN': 74, 'loaded': True, 'loadedTime': 3089.300000011921, 'positionName': 'RIGHT', 'positionCoords': [665.6, 195], 'bid': 0.9}]",138067.60000002384,1669843885393,hotdog w must,pear,0.06,0.9,0.8400000000000001,pear,1289.199999988079,1289,1289.699999988079,True,i,139873.10000002384,1805.5,1669843887198,1805,HRV,HRV_0305,2022-11-30 21:34:33
75,"[{'imgObject': {}, 'id': 'omelette', 'src': '/static/foodstim60/omelette.jpg', 'key': 'u', 'origWidth': 410, 'origHeight': 409, 'width': 410, 'height': 409, 'widthPercent': 0.45, 'rescaleHeight': False, 'trialN': 75, 'loaded': True, 'loadedTime': 2868.4000000059605, 'positionName': 'LEFT', 'positionCoords': [204.4, 195.5], 'bid': 0.07}, {'imgObject': {}, 'id': 'banana', 'src': '/static/foodstim60/banana.jpg', 'key': 'i', 'origWidth': 410, 'origHeight': 410, 'width': 410, 'height': 410, 'widthPercent': 0.45, 'rescaleHeight': False, 'trialN': 75, 'loaded': True, 'loadedTime': 3113.5, 'positionName': 'RIGHT', 'positionCoords': [665.6, 195], 'bid': 0.07}]",139873.30000001192,1669843887198,omelette,banana,0.07,0.07,0.0,omelette,1036.5,1037,1037.0999999940395,True,u,141424.20000001788,1550.9000000059605,1669843888749,1551,HRV,HRV_0305,2022-11-30 21:34:33
76,"[{'imgObject': {}, 'id': 'blackbeanswithrice', 'src': '/static/foodstim60/blackbeanswithrice.jpg', 'key': 'u', 'origWidth': 410, 'origHeight': 410, 'width': 410, 'height': 410, 'widthPercent': 0.45, 'rescaleHeight': False, 'trialN': 76, 'loaded': True, 'loadedTime': 3230.7000000178814, 'positionName': 'LEFT', 'positionCoords': [204.4, 195], 'bid': 0.54}, {'imgObject': {}, 'id': 'steak', 'src': '/static/foodstim60/steak.jpg', 'key': 'i', 'origWidth': 410, 'origHeight': 410, 'width': 410, 'height': 410, 'widthPercent': 0.45, 'rescaleHeight': False, 'trialN': 76, 'loaded': True, 'loadedTime': 3292.100000023842, 'positionName': 'RIGHT', 'positionCoords': [665.6, 195], 'bid': 0.32}]",141424.5,1669843888749,blackbeanswithrice,steak,0.54,0.32,-0.22000000000000003,steak,1200.0,1210,1200.5,True,i,143135.80000001192,1711.300000011921,1669843890470,1721,HRV,HRV_0305,2022-11-30 21:34:33
77,"[{'imgObject': {}, 'id': 'grilled chicken strips', 'src': '/static/foodstim60/grilled chicken strips.jpg', 'key': 'u', 'origWidth': 410, 'origHeight': 411, 'width': 410, 'height': 411, 'widthPercent': 0.45, 'rescaleHeight': False, 'trialN': 77, 'loaded': True, 'loadedTime': 2866.2000000178814, 'positionName': 'LEFT', 'positionCoords': [204.4, 194.5], 'bid': 0.85}, {'imgObject': {}, 'id': 'bagel and cc', 'src': '/static/foodstim60/bagel and cc.jpg', 'key': 'i', 'origWidth': 410, 'origHeight': 410, 'width': 410, 'height': 410, 'widthPercent': 0.45, 'rescaleHeight': False, 'trialN': 77, 'loaded': True, 'loadedTime': 3263.800000011921, 'positionName': 'RIGHT', 'positionCoords': [665.6, 195], 'bid': 2.56}]",143136.10000002384,1669843890470,grilled chicken strips,bagel and cc,0.85,2.56,1.71,bagel and cc,1224.0999999940395,1225,1224.5999999940395,True,i,144870.30000001192,1734.199999988079,1669843892204,1734,HRV,HRV_0305,2022-11-30 21:34:33
78,"[{'imgObject': {}, 'id': 'strawberries', 'src': '/static/foodstim60/strawberries.jpg', 'key': 'u', 'origWidth': 410, 'origHeight': 410, 'width': 410, 'height': 410, 'widthPercent': 0.45, 'rescaleHeight': False, 'trialN': 78, 'loaded': True, 'loadedTime': 3194.2000000178814, 'positionName': 'LEFT', 'positionCoords': [204.4, 195], 'bid': 1.46}, {'imgObject': {}, 'id': 'yogurt no spoon', 'src': '/static/foodstim60/yogurt no spoon.jpg', 'key': 'i', 'origWidth': 411, 'origHeight': 410, 'width': 411, 'height': 410, 'widthPercent': 0.45, 'rescaleHeight': False, 'trialN': 78, 'loaded': True, 'loadedTime': 3222.2000000178814, 'positionName': 'RIGHT', 'positionCoords': [665.6, 195], 'bid': 1.03}]",144870.70000001788,1669843892205,strawberries,yogurt no spoon,1.46,1.03,-0.42999999999999994,strawberries,855.5999999940395,856,856.1999999880791,True,u,146243.70000001788,1373.0,1669843893578,1373,HRV,HRV_0305,2022-11-30 21:34:33
79,"[{'imgObject': {}, 'id': 'apple slices', 'src': '/static/foodstim60/apple slices.jpg', 'key': 'u', 'origWidth': 409, 'origHeight': 410, 'width': 409, 'height': 410, 'widthPercent': 0.45, 'rescaleHeight': False, 'trialN': 79, 'loaded': True, 'loadedTime': 3270.7000000178814, 'positionName': 'LEFT', 'positionCoords': [205.4, 195], 'bid': 0.56}, {'imgObject': {}, 'id': 'cherry tomato', 'src': '/static/foodstim60/cherry tomato.jpg', 'key': 'i', 'origWidth': 410, 'origHeight': 410, 'width': 410, 'height': 410, 'widthPercent': 0.45, 'rescaleHeight': False, 'trialN': 79, 'loaded': True, 'loadedTime': 2992.600000023842, 'positionName': 'RIGHT', 'positionCoords': [665.6, 195], 'bid': 0.76}]",146244.0,1669843893578,apple slices,cherry tomato,0.56,0.76,0.19999999999999996,cherry tomato,1614.7000000178814,1615,1615.2000000178814,True,i,148360.30000001192,2116.300000011921,1669843895694,2116,HRV,HRV_0305,2022-11-30 21:34:33
80,"[{'imgObject': {}, 'id': 'tacos', 'src': '/static/foodstim60/tacos.jpg', 'key': 'u', 'origWidth': 411, 'origHeight': 411, 'width': 411, 'height': 411, 'widthPercent': 0.45, 'rescaleHeight': False, 'trialN': 80, 'loaded': True, 'loadedTime': 3146.300000011921, 'positionName': 'LEFT', 'positionCoords': [203.4, 194.5], 'bid': 1.04}, {'imgObject': {}, 'id': 'salmon', 'src': '/static/foodstim60/salmon.jpg', 'key': 'i', 'origWidth': 410, 'origHeight': 409, 'width': 410, 'height': 409, 'widthPercent': 0.45, 'rescaleHeight': False, 'trialN': 80, 'loaded': True, 'loadedTime': 2917.4000000059605, 'positionName': 'RIGHT', 'positionCoords': [665.6, 195.5], 'bid': 0.79}]",148360.5,1669843895694,tacos,salmon,1.04,0.79,-0.25,salmon,1468.300000011921,1469,1468.9000000059605,True,i,150340.0,1979.5,1669843897674,1980,HRV,HRV_0305,2022-11-30 21:34:33
81,"[{'imgObject': {}, 'id': 'turkey sandwich', 'src': '/static/foodstim60/turkey sandwich.jpg', 'key': 'u', 'origWidth': 409, 'origHeight': 409, 'width': 409, 'height': 409, 'widthPercent': 0.45, 'rescaleHeight': False, 'trialN': 81, 'loaded': True, 'loadedTime': 2795, 'positionName': 'LEFT', 'positionCoords': [205.4, 195.5], 'bid': 0.85}, {'imgObject': {}, 'id': 'bagel plain', 'src': '/static/foodstim60/bagel plain.jpg', 'key': 'i', 'origWidth': 410, 'origHeight': 410, 'width': 410, 'height': 410, 'widthPercent': 0.45, 'rescaleHeight': False, 'trialN': 81, 'loaded': True, 'loadedTime': 2816.4000000059605, 'positionName': 'RIGHT', 'positionCoords': [665.6, 195], 'bid': 2.07}]",150340.40000000596,1669843897674,turkey sandwich,bagel plain,0.85,2.07,1.2199999999999998,bagel plain,1059.4000000059605,1060,1059.800000011921,True,i,151910.0,1569.5999999940395,1669843899244,1570,HRV,HRV_0305,2022-11-30 21:34:33
82,"[{'imgObject': {}, 'id': 'kiwi', 'src': '/static/foodstim60/kiwi.jpg', 'key': 'u', 'origWidth': 410, 'origHeight': 410, 'width': 410, 'height': 410, 'widthPercent': 0.45, 'rescaleHeight': False, 'trialN': 82, 'loaded': True, 'loadedTime': 3268.2000000178814, 'positionName': 'LEFT', 'positionCoords': [204.4, 195], 'bid': 0.87}, {'imgObject': {}, 'id': 'grilled chicken strips', 'src': '/static/foodstim60/grilled chicken strips.jpg', 'key': 'i', 'origWidth': 410, 'origHeight': 411, 'width': 410, 'height': 411, 'widthPercent': 0.45, 'rescaleHeight': False, 'trialN': 82, 'loaded': True, 'loadedTime': 2844.100000023842, 'positionName': 'RIGHT', 'positionCoords': [665.6, 194.5], 'bid': 0.85}]",151910.30000001192,1669843899244,kiwi,grilled chicken strips,0.87,0.85,-0.020000000000000018,grilled chicken strips,1343.5,1344,1344.0,True,i,153775.10000002384,1864.800000011921,1669843901109,1865,HRV,HRV_0305,2022-11-30 21:34:33
83,"[{'imgObject': {}, 'id': 'burrito', 'src': '/static/foodstim60/burrito.jpg', 'key': 'u', 'origWidth': 410, 'origHeight': 410, 'width': 410, 'height': 410, 'widthPercent': 0.45, 'rescaleHeight': False, 'trialN': 83, 'loaded': True, 'loadedTime': 2717.300000011921, 'positionName': 'LEFT', 'positionCoords': [204.4, 195], 'bid': 1.14}, {'imgObject': {}, 'id': 'turkeysandwich', 'src': '/static/foodstim60/turkeysandwich.jpg', 'key': 'i', 'origWidth': 409, 'origHeight': 409, 'width': 409, 'height': 409, 'widthPercent': 0.45, 'rescaleHeight': False, 'trialN': 83, 'loaded': True, 'loadedTime': 2940, 'positionName': 'RIGHT', 'positionCoords': [665.6, 195.5], 'bid': 0.84}]",153775.5,1669843901109,burrito,turkeysandwich,1.14,0.84,-0.29999999999999993,burrito,1827.4000000059605,1828,1828.0,True,u,156106.5,2331.0,1669843903440,2331,HRV,HRV_0305,2022-11-30 21:34:33
84,"[{'imgObject': {}, 'id': 'seaweed', 'src': '/static/foodstim60/seaweed.jpg', 'key': 'u', 'origWidth': 410, 'origHeight': 410, 'width': 410, 'height': 410, 'widthPercent': 0.45, 'rescaleHeight': False, 'trialN': 84, 'loaded': True, 'loadedTime': 3270.9000000059605, 'positionName': 'LEFT', 'positionCoords': [204.4, 195], 'bid': 0.03}, {'imgObject': {}, 'id': 'cheerios', 'src': '/static/foodstim60/cheerios.jpg', 'key': 'i', 'origWidth': 409, 'origHeight': 410, 'width': 409, 'height': 410, 'widthPercent': 0.45, 'rescaleHeight': False, 'trialN': 84, 'loaded': True, 'loadedTime': 3140.300000011921, 'positionName': 'RIGHT', 'positionCoords': [665.6, 195], 'bid': 0.03}]",156106.80000001192,1669843903441,seaweed,cheerios,0.03,0.03,0.0,cheerios,1070.800000011921,1071,1071.300000011921,True,i,157686.90000000596,1580.0999999940395,1669843905021,1580,HRV,HRV_0305,2022-11-30 21:34:33
85,"[{'imgObject': {}, 'id': 'popsicles', 'src': '/static/foodstim60/popsicles.jpg', 'key': 'u', 'origWidth': 410, 'origHeight': 410, 'width': 410, 'height': 410, 'widthPercent': 0.45, 'rescaleHeight': False, 'trialN': 85, 'loaded': True, 'loadedTime': 3295.600000023842, 'positionName': 'LEFT', 'positionCoords': [204.4, 195], 'bid': 0}, {'imgObject': {}, 'id': 'seaweed', 'src': '/static/foodstim60/seaweed.jpg', 'key': 'i', 'origWidth': 410, 'origHeight': 410, 'width': 410, 'height': 410, 'widthPercent': 0.45, 'rescaleHeight': False, 'trialN': 85, 'loaded': True, 'loadedTime': 3273, 'positionName': 'RIGHT', 'positionCoords': [665.6, 195], 'bid': 0.03}]",157687.20000001788,1669843905021,popsicles,seaweed,0.0,0.03,0.03,popsicles,1327.5,1328,1328.0999999940395,True,u,159532.10000002384,1844.9000000059605,1669843906866,1845,HRV,HRV_0305,2022-11-30 21:34:33
86,"[{'imgObject': {}, 'id': 'rigatoni and sauce', 'src': '/static/foodstim60/rigatoni and sauce.jpg', 'key': 'u', 'origWidth': 410, 'origHeight': 411, 'width': 410, 'height': 411, 'widthPercent': 0.45, 'rescaleHeight': False, 'trialN': 86, 'loaded': True, 'loadedTime': 3262, 'positionName': 'LEFT', 'positionCoords': [204.4, 194.5], 'bid': 0.03}, {'imgObject': {}, 'id': 'turkeysandwich', 'src': '/static/foodstim60/turkeysandwich.jpg', 'key': 'i', 'origWidth': 409, 'origHeight': 409, 'width': 409, 'height': 409, 'widthPercent': 0.45, 'rescaleHeight': False, 'trialN': 86, 'loaded': True, 'loadedTime': 2942, 'positionName': 'RIGHT', 'positionCoords': [665.6, 195.5], 'bid': 0.84}]",159532.40000000596,1669843906866,rigatoni and sauce,turkeysandwich,0.03,0.84,0.8099999999999999,turkeysandwich,1189.300000011921,1190,1189.9000000059605,True,i,161232.70000001788,1700.300000011921,1669843908567,1701,HRV,HRV_0305,2022-11-30 21:34:33
87,"[{'imgObject': {}, 'id': 'mango', 'src': '/static/foodstim60/mango.jpg', 'key': 'u', 'origWidth': 411, 'origHeight': 411, 'width': 411, 'height': 411, 'widthPercent': 0.45, 'rescaleHeight': False, 'trialN': 87, 'loaded': True, 'loadedTime': 3200.600000023842, 'positionName': 'LEFT', 'positionCoords': [203.4, 194.5], 'bid': 0.34}, {'imgObject': {}, 'id': 'ice cream sundae 002', 'src': '/static/foodstim60/ice cream sundae 002.jpg', 'key': 'i', 'origWidth': 409, 'origHeight': 409, 'width': 409, 'height': 409, 'widthPercent': 0.45, 'rescaleHeight': False, 'trialN': 87, 'loaded': True, 'loadedTime': 2746.5, 'positionName': 'RIGHT', 'positionCoords': [665.6, 195.5], 'bid': 0}]",161233.0,1669843908567,mango,ice cream sundae 002,0.34,0.0,-0.34,ice cream sundae 002,1522.4000000059605,1523,1522.9000000059605,True,i,163266.5,2033.5,1669843910600,2033,HRV,HRV_0305,2022-11-30 21:34:33
88,"[{'imgObject': {}, 'id': 'tacos', 'src': '/static/foodstim60/tacos.jpg', 'key': 'u', 'origWidth': 411, 'origHeight': 411, 'width': 411, 'height': 411, 'widthPercent': 0.45, 'rescaleHeight': False, 'trialN': 88, 'loaded': True, 'loadedTime': 3146.4000000059605, 'positionName': 'LEFT', 'positionCoords': [203.4, 194.5], 'bid': 1.04}, {'imgObject': {}, 'id': 'blackbeanswithrice', 'src': '/static/foodstim60/blackbeanswithrice.jpg', 'key': 'i', 'origWidth': 410, 'origHeight': 410, 'width': 410, 'height': 410, 'widthPercent': 0.45, 'rescaleHeight': False, 'trialN': 88, 'loaded': True, 'loadedTime': 3232.300000011921, 'positionName': 'RIGHT', 'positionCoords': [665.6, 195], 'bid': 0.54}]",163266.90000000596,1669843910601,tacos,blackbeanswithrice,1.04,0.54,-0.5,blackbeanswithrice,1446.0,1446,1446.5999999940395,True,i,165229.90000000596,1963.0,1669843912564,1963,HRV,HRV_0305,2022-11-30 21:34:33
89,"[{'imgObject': {}, 'id': 'cantaloupe', 'src': '/static/foodstim60/cantaloupe.jpg', 'key': 'u', 'origWidth': 409, 'origHeight': 409, 'width': 409, 'height': 409, 'widthPercent': 0.45, 'rescaleHeight': False, 'trialN': 89, 'loaded': True, 'loadedTime': 2579.7000000178814, 'positionName': 'LEFT', 'positionCoords': [205.4, 195.5], 'bid': 1.12}, {'imgObject': {}, 'id': 'tacos', 'src': '/static/foodstim60/tacos.jpg', 'key': 'i', 'origWidth': 411, 'origHeight': 411, 'width': 411, 'height': 411, 'widthPercent': 0.45, 'rescaleHeight': False, 'trialN': 89, 'loaded': True, 'loadedTime': 3146, 'positionName': 'RIGHT', 'positionCoords': [665.6, 194.5], 'bid': 1.04}]",165230.30000001192,1669843912564,cantaloupe,tacos,1.12,1.04,-0.08000000000000007,tacos,1746.199999988079,1747,1746.699999988079,True,i,167494.80000001192,2264.5,1669843914829,2265,HRV,HRV_0305,2022-11-30 21:34:33
90,"[{'imgObject': {}, 'id': 'bagel plain', 'src': '/static/foodstim60/bagel plain.jpg', 'key': 'u', 'origWidth': 410, 'origHeight': 410, 'width': 410, 'height': 410, 'widthPercent': 0.45, 'rescaleHeight': False, 'trialN': 90, 'loaded': True, 'loadedTime': 2815.7000000178814, 'positionName': 'LEFT', 'positionCoords': [204.4, 195], 'bid': 2.07}, {'imgObject': {}, 'id': 'fruitsalad', 'src': '/static/foodstim60/fruitsalad.jpg', 'key': 'i', 'origWidth': 410, 'origHeight': 410, 'width': 410, 'height': 410, 'widthPercent': 0.45, 'rescaleHeight': False, 'trialN': 90, 'loaded': True, 'loadedTime': 3063, 'positionName': 'RIGHT', 'positionCoords': [665.6, 195], 'bid': 1}]",174239.0,1669843921573,bagel plain,fruitsalad,2.07,1.0,-1.0699999999999998,bagel plain,912.3000000119209,913,913.0,True,u,175661.70000001788,1422.7000000178814,1669843922996,1423,HRV,HRV_0305,2022-11-30 21:34:33
91,"[{'imgObject': {}, 'id': 'cantaloupe', 'src': '/static/foodstim60/cantaloupe.jpg', 'key': 'u', 'origWidth': 409, 'origHeight': 409, 'width': 409, 'height': 409, 'widthPercent': 0.45, 'rescaleHeight': False, 'trialN': 91, 'loaded': True, 'loadedTime': 2579, 'positionName': 'LEFT', 'positionCoords': [205.4, 195.5], 'bid': 1.12}, {'imgObject': {}, 'id': 'yogurt no spoon', 'src': '/static/foodstim60/yogurt no spoon.jpg', 'key': 'i', 'origWidth': 411, 'origHeight': 410, 'width': 411, 'height': 410, 'widthPercent': 0.45, 'rescaleHeight': False, 'trialN': 91, 'loaded': True, 'loadedTime': 3222.7000000178814, 'positionName': 'RIGHT', 'positionCoords': [665.6, 195], 'bid': 1.03}]",175662.10000002384,1669843922996,cantaloupe,yogurt no spoon,1.12,1.03,-0.09000000000000008,yogurt no spoon,1239.8999999761581,1240,1240.3999999761581,True,i,177412.5,1750.3999999761581,1669843924746,1750,HRV,HRV_0305,2022-11-30 21:34:33
92,"[{'imgObject': {}, 'id': 'pear', 'src': '/static/foodstim60/pear.jpg', 'key': 'u', 'origWidth': 411, 'origHeight': 410, 'width': 411, 'height': 410, 'widthPercent': 0.45, 'rescaleHeight': False, 'trialN': 92, 'loaded': True, 'loadedTime': 3089, 'positionName': 'LEFT', 'positionCoords': [203.4, 195], 'bid': 0.9}, {'imgObject': {}, 'id': 'baked potato', 'src': '/static/foodstim60/baked potato.jpg', 'key': 'i', 'origWidth': 409, 'origHeight': 410, 'width': 409, 'height': 410, 'widthPercent': 0.45, 'rescaleHeight': False, 'trialN': 92, 'loaded': True, 'loadedTime': 2792.2000000178814, 'positionName': 'RIGHT', 'positionCoords': [665.6, 195], 'bid': 1.48}]",177412.80000001192,1669843924747,pear,baked potato,0.9,1.48,0.58,baked potato,951.9000000059605,952,952.4000000059605,True,i,178871.90000000596,1459.0999999940395,1669843926206,1459,HRV,HRV_0305,2022-11-30 21:34:33
93,"[{'imgObject': {}, 'id': 'cherry tomato', 'src': '/static/foodstim60/cherry tomato.jpg', 'key': 'u', 'origWidth': 410, 'origHeight': 410, 'width': 410, 'height': 410, 'widthPercent': 0.45, 'rescaleHeight': False, 'trialN': 93, 'loaded': True, 'loadedTime': 3012.4000000059605, 'positionName': 'LEFT', 'positionCoords': [204.4, 195], 'bid': 0.76}, {'imgObject': {}, 'id': 'shreddedwheatwithmilk', 'src': '/static/foodstim60/shreddedwheatwithmilk.jpg', 'key': 'i', 'origWidth': 410, 'origHeight': 410, 'width': 410, 'height': 410, 'widthPercent': 0.45, 'rescaleHeight': False, 'trialN': 93, 'loaded': True, 'loadedTime': 3194.7000000178814, 'positionName': 'RIGHT', 'positionCoords': [665.6, 195], 'bid': 0.12}]",178872.20000001788,1669843926206,cherry tomato,shreddedwheatwithmilk,0.76,0.12,-0.64,cherry tomato,1235.7999999821186,1237,1236.699999988079,True,u,180630.70000001788,1758.5,1669843927965,1759,HRV,HRV_0305,2022-11-30 21:34:33
94,"[{'imgObject': {}, 'id': 'yogurt no spoon', 'src': '/static/foodstim60/yogurt no spoon.jpg', 'key': 'u', 'origWidth': 411, 'origHeight': 410, 'width': 411, 'height': 410, 'widthPercent': 0.45, 'rescaleHeight': False, 'trialN': 94, 'loaded': True, 'loadedTime': 3220.4000000059605, 'positionName': 'LEFT', 'positionCoords': [203.4, 195], 'bid': 1.03}, {'imgObject': {}, 'id': 'fruitsalad', 'src': '/static/foodstim60/fruitsalad.jpg', 'key': 'i', 'origWidth': 410, 'origHeight': 410, 'width': 410, 'height': 410, 'widthPercent': 0.45, 'rescaleHeight': False, 'trialN': 94, 'loaded': True, 'loadedTime': 3065.300000011921, 'positionName': 'RIGHT', 'positionCoords': [665.6, 195], 'bid': 1}]",180631.0,1669843927965,yogurt no spoon,fruitsalad,1.03,1.0,-0.030000000000000027,fruitsalad,1192.300000011921,1193,1193.0,True,i,182330.20000001788,1699.2000000178814,1669843929664,1699,HRV,HRV_0305,2022-11-30 21:34:33
95,"[{'imgObject': {}, 'id': 'kiwi', 'src': '/static/foodstim60/kiwi.jpg', 'key': 'u', 'origWidth': 410, 'origHeight': 410, 'width': 410, 'height': 410, 'widthPercent': 0.45, 'rescaleHeight': False, 'trialN': 95, 'loaded': True, 'loadedTime': 3266.600000023842, 'positionName': 'LEFT', 'positionCoords': [204.4, 195], 'bid': 0.87}, {'imgObject': {}, 'id': 'strawberries', 'src': '/static/foodstim60/strawberries.jpg', 'key': 'i', 'origWidth': 410, 'origHeight': 410, 'width': 410, 'height': 410, 'widthPercent': 0.45, 'rescaleHeight': False, 'trialN': 95, 'loaded': True, 'loadedTime': 3193.600000023842, 'positionName': 'RIGHT', 'positionCoords': [665.6, 195], 'bid': 1.46}]",182330.60000002384,1669843929665,kiwi,strawberries,0.87,1.46,0.59,strawberries,1378.0,1378,1378.3999999761581,True,i,184227.80000001192,1897.199999988079,1669843931562,1897,HRV,HRV_0305,2022-11-30 21:34:33
96,"[{'imgObject': {}, 'id': 'blackbeanswithrice', 'src': '/static/foodstim60/blackbeanswithrice.jpg', 'key': 'u', 'origWidth': 410, 'origHeight': 410, 'width': 410, 'height': 410, 'widthPercent': 0.45, 'rescaleHeight': False, 'trialN': 96, 'loaded': True, 'loadedTime': 3232.5, 'positionName': 'LEFT', 'positionCoords': [204.4, 195], 'bid': 0.54}, {'imgObject': {}, 'id': 'eggsalad', 'src': '/static/foodstim60/eggsalad.jpg', 'key': 'i', 'origWidth': 410, 'origHeight': 409, 'width': 410, 'height': 409, 'widthPercent': 0.45, 'rescaleHeight': False, 'trialN': 96, 'loaded': True, 'loadedTime': 2965.300000011921, 'positionName': 'RIGHT', 'positionCoords': [665.6, 195.5], 'bid': 0}]",184228.10000002384,1669843931562,blackbeanswithrice,eggsalad,0.54,0.0,-0.54,blackbeanswithrice,1487.7999999821186,1488,1488.3999999761581,True,u,186226.10000002384,1998.0,1669843933560,1998,HRV,HRV_0305,2022-11-30 21:34:33
97,"[{'imgObject': {}, 'id': 'shreddedwheatwithmilk', 'src': '/static/foodstim60/shreddedwheatwithmilk.jpg', 'key': 'u', 'origWidth': 410, 'origHeight': 410, 'width': 410, 'height': 410, 'widthPercent': 0.45, 'rescaleHeight': False, 'trialN': 97, 'loaded': True, 'loadedTime': 3196.600000023842, 'positionName': 'LEFT', 'positionCoords': [204.4, 195], 'bid': 0.12}, {'imgObject': {}, 'id': 'mashed potato', 'src': '/static/foodstim60/mashed potato.jpg', 'key': 'i', 'origWidth': 409, 'origHeight': 409, 'width': 409, 'height': 409, 'widthPercent': 0.45, 'rescaleHeight': False, 'trialN': 97, 'loaded': True, 'loadedTime': 3259.5, 'positionName': 'RIGHT', 'positionCoords': [665.6, 195.5], 'bid': 0.12}]",186226.5,1669843933560,shreddedwheatwithmilk,mashed potato,0.12,0.12,0.0,shreddedwheatwithmilk,1329.300000011921,1330,1329.9000000059605,True,u,188075.20000001788,1848.7000000178814,1669843935409,1849,HRV,HRV_0305,2022-11-30 21:34:33
98,"[{'imgObject': {}, 'id': 'Grapes', 'src': '/static/foodstim60/Grapes.jpg', 'key': 'u', 'origWidth': 411, 'origHeight': 411, 'width': 411, 'height': 411, 'widthPercent': 0.45, 'rescaleHeight': False, 'trialN': 98, 'loaded': True, 'loadedTime': 3266.100000023842, 'positionName': 'LEFT', 'positionCoords': [203.4, 194.5], 'bid': 0.76}, {'imgObject': {}, 'id': 'cherry tomato', 'src': '/static/foodstim60/cherry tomato.jpg', 'key': 'i', 'origWidth': 410, 'origHeight': 410, 'width': 410, 'height': 410, 'widthPercent': 0.45, 'rescaleHeight': False, 'trialN': 98, 'loaded': True, 'loadedTime': 2994.2000000178814, 'positionName': 'RIGHT', 'positionCoords': [665.6, 195], 'bid': 0.76}]",188075.5,1669843935409,Grapes,cherry tomato,0.76,0.76,0.0,cherry tomato,1064.7000000178814,1066,1065.1000000238419,True,i,189656.5,1581.0,1669843936990,1581,HRV,HRV_0305,2022-11-30 21:34:33
99,"[{'imgObject': {}, 'id': 'roastedpotatoes', 'src': '/static/foodstim60/roastedpotatoes.jpg', 'key': 'u', 'origWidth': 409, 'origHeight': 410, 'width': 409, 'height': 410, 'widthPercent': 0.45, 'rescaleHeight': False, 'trialN': 99, 'loaded': True, 'loadedTime': 2579.9000000059605, 'positionName': 'LEFT', 'positionCoords': [205.4, 195], 'bid': 2.06}, {'imgObject': {}, 'id': 'cocktailshrimp', 'src': '/static/foodstim60/cocktailshrimp.jpg', 'key': 'i', 'origWidth': 410, 'origHeight': 410, 'width': 410, 'height': 410, 'widthPercent': 0.45, 'rescaleHeight': False, 'trialN': 99, 'loaded': True, 'loadedTime': 2992.2000000178814, 'positionName': 'RIGHT', 'positionCoords': [665.6, 195], 'bid': 0.12}]",189656.90000000596,1669843936991,roastedpotatoes,cocktailshrimp,2.06,0.12,-1.94,roastedpotatoes,1277.0999999940395,1277,1277.5999999940395,True,u,191439.70000001788,1782.800000011921,1669843938774,1783,HRV,HRV_0305,2022-11-30 21:34:33
100,"[{'imgObject': {}, 'id': 'froot loops w milk', 'src': '/static/foodstim60/froot loops w milk.jpg', 'key': 'u', 'origWidth': 410, 'origHeight': 410, 'width': 410, 'height': 410, 'widthPercent': 0.45, 'rescaleHeight': False, 'trialN': 100, 'loaded': True, 'loadedTime': 3112.7000000178814, 'positionName': 'LEFT', 'positionCoords': [204.4, 195], 'bid': 0.1}, {'imgObject': {}, 'id': 'fried eggs', 'src': '/static/foodstim60/fried eggs.jpg', 'key': 'i', 'origWidth': 410, 'origHeight': 410, 'width': 410, 'height': 410, 'widthPercent': 0.45, 'rescaleHeight': False, 'trialN': 100, 'loaded': True, 'loadedTime': 3227.4000000059605, 'positionName': 'RIGHT', 'positionCoords': [665.6, 195], 'bid': 0.09}]",191440.0,1669843938774,froot loops w milk,fried eggs,0.1,0.09,-0.010000000000000009,froot loops w milk,1517.300000011921,1518,1517.9000000059605,True,u,193469.70000001788,2029.7000000178814,1669843940804,2030,HRV,HRV_0305,2022-11-30 21:34:33
101,"[{'imgObject': {}, 'id': 'hashbrowns', 'src': '/static/foodstim60/hashbrowns.jpg', 'key': 'u', 'origWidth': 411, 'origHeight': 410, 'width': 411, 'height': 410, 'widthPercent': 0.45, 'rescaleHeight': False, 'trialN': 101, 'loaded': True, 'loadedTime': 2892.800000011921, 'positionName': 'LEFT', 'positionCoords': [203.4, 195], 'bid': 0.04}, {'imgObject': {}, 'id': 'raspberries', 'src': '/static/foodstim60/raspberries.jpg', 'key': 'i', 'origWidth': 411, 'origHeight': 411, 'width': 411, 'height': 411, 'widthPercent': 0.45, 'rescaleHeight': False, 'trialN': 101, 'loaded': True, 'loadedTime': 2524.9000000059605, 'positionName': 'RIGHT', 'positionCoords': [665.6, 194.5], 'bid': 0.07}]",193470.0,1669843940804,hashbrowns,raspberries,0.04,0.07,0.030000000000000006,raspberries,1112.0,1112,1112.5,True,i,195094.30000001192,1624.300000011921,1669843942428,1624,HRV,HRV_0305,2022-11-30 21:34:33
102,"[{'imgObject': {}, 'id': 'rigatoni', 'src': '/static/foodstim60/rigatoni.jpg', 'key': 'u', 'origWidth': 411, 'origHeight': 411, 'width': 411, 'height': 411, 'widthPercent': 0.45, 'rescaleHeight': False, 'trialN': 102, 'loaded': True, 'loadedTime': 2893.100000023842, 'positionName': 'LEFT', 'positionCoords': [203.4, 194.5], 'bid': 0.06}, {'imgObject': {}, 'id': 'eggsalad', 'src': '/static/foodstim60/eggsalad.jpg', 'key': 'i', 'origWidth': 410, 'origHeight': 409, 'width': 410, 'height': 409, 'widthPercent': 0.45, 'rescaleHeight': False, 'trialN': 102, 'loaded': True, 'loadedTime': 2965.100000023842, 'positionName': 'RIGHT', 'positionCoords': [665.6, 195.5], 'bid': 0}]",195094.60000002384,1669843942429,rigatoni,eggsalad,0.06,0.0,-0.06,rigatoni,1113.0,1113,1113.3999999761581,True,u,196717.80000001192,1623.199999988079,1669843944052,1623,HRV,HRV_0305,2022-11-30 21:34:33
103,"[{'imgObject': {}, 'id': 'mango', 'src': '/static/foodstim60/mango.jpg', 'key': 'u', 'origWidth': 411, 'origHeight': 411, 'width': 411, 'height': 411, 'widthPercent': 0.45, 'rescaleHeight': False, 'trialN': 103, 'loaded': True, 'loadedTime': 3199, 'positionName': 'LEFT', 'positionCoords': [203.4, 194.5], 'bid': 0.34}, {'imgObject': {}, 'id': 'edamame', 'src': '/static/foodstim60/edamame.jpg', 'key': 'i', 'origWidth': 409, 'origHeight': 410, 'width': 409, 'height': 410, 'widthPercent': 0.45, 'rescaleHeight': False, 'trialN': 103, 'loaded': True, 'loadedTime': 2968.300000011921, 'positionName': 'RIGHT', 'positionCoords': [665.6, 195], 'bid': 0.31}]",196718.40000000596,1669843944052,mango,edamame,0.34,0.31,-0.030000000000000027,edamame,1310.0,1311,1310.5,True,i,198548.90000000596,1830.5,1669843945883,1831,HRV,HRV_0305,2022-11-30 21:34:33
104,"[{'imgObject': {}, 'id': 'roastedpotatoes', 'src': '/static/foodstim60/roastedpotatoes.jpg', 'key': 'u', 'origWidth': 409, 'origHeight': 410, 'width': 409, 'height': 410, 'widthPercent': 0.45, 'rescaleHeight': False, 'trialN': 104, 'loaded': True, 'loadedTime': 2595, 'positionName': 'LEFT', 'positionCoords': [205.4, 195], 'bid': 2.06}, {'imgObject': {}, 'id': 'turkeysandwich', 'src': '/static/foodstim60/turkeysandwich.jpg', 'key': 'i', 'origWidth': 409, 'origHeight': 409, 'width': 409, 'height': 409, 'widthPercent': 0.45, 'rescaleHeight': False, 'trialN': 104, 'loaded': True, 'loadedTime': 2943.100000023842, 'positionName': 'RIGHT', 'positionCoords': [665.6, 195.5], 'bid': 0.84}]",198549.20000001788,1669843945883,roastedpotatoes,turkeysandwich,2.06,0.84,-1.2200000000000002,roastedpotatoes,1212.199999988079,1213,1212.699999988079,True,u,200266.0,1716.7999999821186,1669843947600,1717,HRV,HRV_0305,2022-11-30 21:34:33
105,"[{'imgObject': {}, 'id': 'grilled chicken strips', 'src': '/static/foodstim60/grilled chicken strips.jpg', 'key': 'u', 'origWidth': 410, 'origHeight': 411, 'width': 410, 'height': 411, 'widthPercent': 0.45, 'rescaleHeight': False, 'trialN': 105, 'loaded': True, 'loadedTime': 2868.100000023842, 'positionName': 'LEFT', 'positionCoords': [204.4, 194.5], 'bid': 0.85}, {'imgObject': {}, 'id': 'salad w chicken', 'src': '/static/foodstim60/salad w chicken.jpg', 'key': 'i', 'origWidth': 411, 'origHeight': 411, 'width': 411, 'height': 411, 'widthPercent': 0.45, 'rescaleHeight': False, 'trialN': 105, 'loaded': True, 'loadedTime': 3169.4000000059605, 'positionName': 'RIGHT', 'positionCoords': [665.6, 194.5], 'bid': 1.23}]",200266.30000001192,1669843947600,grilled chicken strips,salad w chicken,0.85,1.23,0.38,salad w chicken,1156.199999988079,1157,1156.699999988079,True,i,201930.10000002384,1663.800000011921,1669843949264,1664,HRV,HRV_0305,2022-11-30 21:34:33
106,"[{'imgObject': {}, 'id': 'bagel and cc', 'src': '/static/foodstim60/bagel and cc.jpg', 'key': 'u', 'origWidth': 410, 'origHeight': 410, 'width': 410, 'height': 410, 'widthPercent': 0.45, 'rescaleHeight': False, 'trialN': 106, 'loaded': True, 'loadedTime': 3264.100000023842, 'positionName': 'LEFT', 'positionCoords': [204.4, 195], 'bid': 2.56}, {'imgObject': {}, 'id': 'bagel plain', 'src': '/static/foodstim60/bagel plain.jpg', 'key': 'i', 'origWidth': 410, 'origHeight': 410, 'width': 410, 'height': 410, 'widthPercent': 0.45, 'rescaleHeight': False, 'trialN': 106, 'loaded': True, 'loadedTime': 2816, 'positionName': 'RIGHT', 'positionCoords': [665.6, 195], 'bid': 2.07}]",201930.60000002384,1669843949265,bagel and cc,bagel plain,2.56,2.07,-0.4900000000000002,bagel plain,1521.8999999761581,1520,1522.5,True,i,203962.60000002384,2032.0,1669843951295,2030,HRV,HRV_0305,2022-11-30 21:34:33
107,"[{'imgObject': {}, 'id': 'orange slices', 'src': '/static/foodstim60/orange slices.jpg', 'key': 'u', 'origWidth': 409, 'origHeight': 410, 'width': 409, 'height': 410, 'widthPercent': 0.45, 'rescaleHeight': False, 'trialN': 107, 'loaded': True, 'loadedTime': 2747.2000000178814, 'positionName': 'LEFT', 'positionCoords': [205.4, 195], 'bid': 1.21}, {'imgObject': {}, 'id': 'burrito', 'src': '/static/foodstim60/burrito.jpg', 'key': 'i', 'origWidth': 410, 'origHeight': 410, 'width': 410, 'height': 410, 'widthPercent': 0.45, 'rescaleHeight': False, 'trialN': 107, 'loaded': True, 'loadedTime': 2720.100000023842, 'positionName': 'RIGHT', 'positionCoords': [665.6, 195], 'bid': 1.14}]",203962.90000000596,1669843951295,orange slices,burrito,1.21,1.14,-0.07000000000000006,orange slices,1216.0999999940395,1216,1216.5999999940395,True,u,205693.60000002384,1730.7000000178814,1669843953026,1731,HRV,HRV_0305,2022-11-30 21:34:33
108,"[{'imgObject': {}, 'id': 'shreddedwheatwithmilk', 'src': '/static/foodstim60/shreddedwheatwithmilk.jpg', 'key': 'u', 'origWidth': 410, 'origHeight': 410, 'width': 410, 'height': 410, 'widthPercent': 0.45, 'rescaleHeight': False, 'trialN': 108, 'loaded': True, 'loadedTime': 3196.5, 'positionName': 'LEFT', 'positionCoords': [204.4, 195], 'bid': 0.12}, {'imgObject': {}, 'id': 'luckycharms', 'src': '/static/foodstim60/luckycharms.jpg', 'key': 'i', 'origWidth': 410, 'origHeight': 409, 'width': 410, 'height': 409, 'widthPercent': 0.45, 'rescaleHeight': False, 'trialN': 108, 'loaded': True, 'loadedTime': 3171.9000000059605, 'positionName': 'RIGHT', 'positionCoords': [665.6, 195.5], 'bid': 0.04}]",205693.90000000596,1669843953026,shreddedwheatwithmilk,luckycharms,0.12,0.04,-0.07999999999999999,shreddedwheatwithmilk,982.3000000119209,983,982.9000000059605,True,u,207193.20000001788,1499.300000011921,1669843954525,1499,HRV,HRV_0305,2022-11-30 21:34:33
109,"[{'imgObject': {}, 'id': 'tacos', 'src': '/static/foodstim60/tacos.jpg', 'key': 'u', 'origWidth': 411, 'origHeight': 411, 'width': 411, 'height': 411, 'widthPercent': 0.45, 'rescaleHeight': False, 'trialN': 109, 'loaded': True, 'loadedTime': 3146.300000011921, 'positionName': 'LEFT', 'positionCoords': [203.4, 194.5], 'bid': 1.04}, {'imgObject': {}, 'id': 'raspberries', 'src': '/static/foodstim60/raspberries.jpg', 'key': 'i', 'origWidth': 411, 'origHeight': 411, 'width': 411, 'height': 411, 'widthPercent': 0.45, 'rescaleHeight': False, 'trialN': 109, 'loaded': True, 'loadedTime': 2525.2000000178814, 'positionName': 'RIGHT', 'positionCoords': [665.6, 194.5], 'bid': 0.07}]",207193.60000002384,1669843954526,tacos,raspberries,1.04,0.07,-0.97,raspberries,963.6999999880791,964,964.0999999940395,True,i,208673.60000002384,1480.0,1669843956005,1479,HRV,HRV_0305,2022-11-30 21:34:33
