trialN,stimuli,question,trialStartTime,trialStartTime_UNIX,stimulus1,rt,receivedResponse,rating,trialEndTime,trialDuration,stimulus1Loaded,exp,subjectId,date
0,"[{'imgObject': {}, 'id': 'blueberries', 'src': '/static/foodstim60/blueberries.jpg', 'key': 'NaN', 'origWidth': 411, 'origHeight': 411, 'width': 411, 'height': 411, 'widthPercent': 0.8, 'rescaleHeight': True, 'trialN': 0, 'loaded': True, 'loadedTime': 3095.89999999851, 'positionName': 'CENTER', 'positionCoords': [648, 274.5]}]",Rate how much you want to eat this food from 0 (least) to 10 (most).,3898.39999999851,1669839837210,blueberries,4441.60000000149,True,2.87,8340.0,4441.60000000149,True,HRV,HRV_0290,2022-11-30 20:25:57
1,"[{'imgObject': {}, 'id': 'kiwi', 'src': '/static/foodstim60/kiwi.jpg', 'key': 'NaN', 'origWidth': 410, 'origHeight': 410, 'width': 410, 'height': 410, 'widthPercent': 0.8, 'rescaleHeight': True, 'trialN': 1, 'loaded': True, 'loadedTime': 3103.5, 'positionName': 'CENTER', 'positionCoords': [648.5, 275]}]",Rate how much you want to eat this food from 0 (least) to 10 (most).,8343.799999998882,1669839841655,kiwi,1859.4000000003725,True,4.05,10203.199999999255,1859.4000000003725,True,HRV,HRV_0290,2022-11-30 20:25:57
2,"[{'imgObject': {}, 'id': 'luckycharms', 'src': '/static/foodstim60/luckycharms.jpg', 'key': 'NaN', 'origWidth': 410, 'origHeight': 409, 'width': 410, 'height': 409, 'widthPercent': 0.8, 'rescaleHeight': True, 'trialN': 2, 'loaded': True, 'loadedTime': 3121.2999999988824, 'positionName': 'CENTER', 'positionCoords': [648.5, 275.5]}]",Rate how much you want to eat this food from 0 (least) to 10 (most).,10204.89999999851,1669839843516,luckycharms,1904.0,True,7.8500000000000005,12108.89999999851,1904.0,True,HRV,HRV_0290,2022-11-30 20:25:57
3,"[{'imgObject': {}, 'id': 'mashed potato', 'src': '/static/foodstim60/mashed potato.jpg', 'key': 'NaN', 'origWidth': 409, 'origHeight': 409, 'width': 409, 'height': 409, 'widthPercent': 0.8, 'rescaleHeight': True, 'trialN': 3, 'loaded': True, 'loadedTime': 3154.7999999988824, 'positionName': 'CENTER', 'positionCoords': [649, 275.5]}]",Rate how much you want to eat this food from 0 (least) to 10 (most).,12110.599999999627,1669839845422,mashed potato,2583.0999999996275,True,6.09,14693.699999999255,2583.0999999996275,True,HRV,HRV_0290,2022-11-30 20:25:57
4,"[{'imgObject': {}, 'id': 'raspberries', 'src': '/static/foodstim60/raspberries.jpg', 'key': 'NaN', 'origWidth': 411, 'origHeight': 411, 'width': 411, 'height': 411, 'widthPercent': 0.8, 'rescaleHeight': True, 'trialN': 4, 'loaded': True, 'loadedTime': 3157, 'positionName': 'CENTER', 'positionCoords': [648, 274.5]}]",Rate how much you want to eat this food from 0 (least) to 10 (most).,14695.299999998882,1669839848007,raspberries,1848.5999999996275,True,3.77,16543.89999999851,1848.5999999996275,True,HRV,HRV_0290,2022-11-30 20:25:57
5,"[{'imgObject': {}, 'id': 'salad w chicken', 'src': '/static/foodstim60/salad w chicken.jpg', 'key': 'NaN', 'origWidth': 411, 'origHeight': 411, 'width': 411, 'height': 411, 'widthPercent': 0.8, 'rescaleHeight': True, 'trialN': 5, 'loaded': True, 'loadedTime': 3192.2999999988824, 'positionName': 'CENTER', 'positionCoords': [648, 274.5]}]",Rate how much you want to eat this food from 0 (least) to 10 (most).,16545.599999999627,1669839849857,salad w chicken,2010.5,True,8.13,18556.099999999627,2010.5,True,HRV,HRV_0290,2022-11-30 20:25:57
6,"[{'imgObject': {}, 'id': 'mango', 'src': '/static/foodstim60/mango.jpg', 'key': 'NaN', 'origWidth': 411, 'origHeight': 411, 'width': 411, 'height': 411, 'widthPercent': 0.8, 'rescaleHeight': True, 'trialN': 6, 'loaded': True, 'loadedTime': 3183.0999999996275, 'positionName': 'CENTER', 'positionCoords': [648, 274.5]}]",Rate how much you want to eat this food from 0 (least) to 10 (most).,18558.599999999627,1669839851870,mango,2435.9000000003725,True,4.11,20994.5,2435.9000000003725,True,HRV,HRV_0290,2022-11-30 20:25:57
7,"[{'imgObject': {}, 'id': 'chicken nuggets2', 'src': '/static/foodstim60/chicken nuggets2.jpg', 'key': 'NaN', 'origWidth': 410, 'origHeight': 409, 'width': 410, 'height': 409, 'widthPercent': 0.8, 'rescaleHeight': True, 'trialN': 7, 'loaded': True, 'loadedTime': 3231, 'positionName': 'CENTER', 'positionCoords': [648.5, 275.5]}]",Rate how much you want to eat this food from 0 (least) to 10 (most).,20996.0,1669839854307,chicken nuggets2,1846.699999999255,True,8.27,22842.699999999255,1846.699999999255,True,HRV,HRV_0290,2022-11-30 20:25:57
8,"[{'imgObject': {}, 'id': 'orange slices', 'src': '/static/foodstim60/orange slices.jpg', 'key': 'NaN', 'origWidth': 409, 'origHeight': 410, 'width': 409, 'height': 410, 'widthPercent': 0.8, 'rescaleHeight': True, 'trialN': 8, 'loaded': True, 'loadedTime': 3202.0999999996275, 'positionName': 'CENTER', 'positionCoords': [649, 275]}]",Rate how much you want to eat this food from 0 (least) to 10 (most).,22844.5,1669839856156,orange slices,1511.0,True,3.42,24355.5,1511.0,True,HRV,HRV_0290,2022-11-30 20:25:57
9,"[{'imgObject': {}, 'id': 'sushi w_condiments', 'src': '/static/foodstim60/sushi w_condiments.jpg', 'key': 'NaN', 'origWidth': 410, 'origHeight': 410, 'width': 410, 'height': 410, 'widthPercent': 0.8, 'rescaleHeight': True, 'trialN': 9, 'loaded': True, 'loadedTime': 3233.0999999996275, 'positionName': 'CENTER', 'positionCoords': [648.5, 275]}]",Rate how much you want to eat this food from 0 (least) to 10 (most).,24358.199999999255,1669839857670,sushi w_condiments,1640.199999999255,True,5.01,25998.39999999851,1640.199999999255,True,HRV,HRV_0290,2022-11-30 20:25:57
10,"[{'imgObject': {}, 'id': 'turkeysandwich', 'src': '/static/foodstim60/turkeysandwich.jpg', 'key': 'NaN', 'origWidth': 409, 'origHeight': 409, 'width': 409, 'height': 409, 'widthPercent': 0.8, 'rescaleHeight': True, 'trialN': 10, 'loaded': True, 'loadedTime': 3252.5999999996275, 'positionName': 'CENTER', 'positionCoords': [649, 275.5]}]",Rate how much you want to eat this food from 0 (least) to 10 (most).,26000.5,1669839859312,turkeysandwich,2126.0,True,7.140000000000001,28126.5,2126.0,True,HRV,HRV_0290,2022-11-30 20:25:57
11,"[{'imgObject': {}, 'id': 'blackbeanswithrice', 'src': '/static/foodstim60/blackbeanswithrice.jpg', 'key': 'NaN', 'origWidth': 410, 'origHeight': 410, 'width': 410, 'height': 410, 'widthPercent': 0.8, 'rescaleHeight': True, 'trialN': 11, 'loaded': True, 'loadedTime': 3237.199999999255, 'positionName': 'CENTER', 'positionCoords': [648.5, 275]}]",Rate how much you want to eat this food from 0 (least) to 10 (most).,28129.0,1669839861440,blackbeanswithrice,1730.7999999988824,True,6.25,29859.799999998882,1730.7999999988824,True,HRV,HRV_0290,2022-11-30 20:25:57
12,"[{'imgObject': {}, 'id': 'eggs', 'src': '/static/foodstim60/eggs.jpg', 'key': 'NaN', 'origWidth': 409, 'origHeight': 409, 'width': 409, 'height': 409, 'widthPercent': 0.8, 'rescaleHeight': True, 'trialN': 12, 'loaded': True, 'loadedTime': 3273.89999999851, 'positionName': 'CENTER', 'positionCoords': [649, 275.5]}]",Rate how much you want to eat this food from 0 (least) to 10 (most).,29862.0,1669839863173,eggs,2665.39999999851,True,8.43,32527.39999999851,2665.39999999851,True,HRV,HRV_0290,2022-11-30 20:25:57
13,"[{'imgObject': {}, 'id': 'seaweed', 'src': '/static/foodstim60/seaweed.jpg', 'key': 'NaN', 'origWidth': 410, 'origHeight': 410, 'width': 410, 'height': 410, 'widthPercent': 0.8, 'rescaleHeight': True, 'trialN': 13, 'loaded': True, 'loadedTime': 3281.89999999851, 'positionName': 'CENTER', 'positionCoords': [648.5, 275]}]",Rate how much you want to eat this food from 0 (least) to 10 (most).,32529.0,1669839865840,seaweed,1978.5999999996275,True,2.42,34507.59999999963,1978.5999999996275,True,HRV,HRV_0290,2022-11-30 20:25:57
14,"[{'imgObject': {}, 'id': 'Tribe humus pita', 'src': '/static/foodstim60/Tribe humus pita.jpg', 'key': 'NaN', 'origWidth': 411, 'origHeight': 411, 'width': 411, 'height': 411, 'widthPercent': 0.8, 'rescaleHeight': True, 'trialN': 14, 'loaded': True, 'loadedTime': 3293.199999999255, 'positionName': 'CENTER', 'positionCoords': [648, 274.5]}]",Rate how much you want to eat this food from 0 (least) to 10 (most).,34509.59999999963,1669839867821,Tribe humus pita,2688.5999999996275,True,8.2,37198.199999999255,2688.5999999996275,True,HRV,HRV_0290,2022-11-30 20:25:57
15,"[{'imgObject': {}, 'id': 'eggsalad', 'src': '/static/foodstim60/eggsalad.jpg', 'key': 'NaN', 'origWidth': 410, 'origHeight': 409, 'width': 410, 'height': 409, 'widthPercent': 0.8, 'rescaleHeight': True, 'trialN': 15, 'loaded': True, 'loadedTime': 3319, 'positionName': 'CENTER', 'positionCoords': [648.5, 275.5]}]",Rate how much you want to eat this food from 0 (least) to 10 (most).,37200.0,1669839870511,eggsalad,2883.199999999255,True,5.75,40083.199999999255,2883.199999999255,True,HRV,HRV_0290,2022-11-30 20:25:57
16,"[{'imgObject': {}, 'id': 'turkey sandwich', 'src': '/static/foodstim60/turkey sandwich.jpg', 'key': 'NaN', 'origWidth': 409, 'origHeight': 409, 'width': 409, 'height': 409, 'widthPercent': 0.8, 'rescaleHeight': True, 'trialN': 16, 'loaded': True, 'loadedTime': 3321.7999999988824, 'positionName': 'CENTER', 'positionCoords': [649, 275.5]}]",Rate how much you want to eat this food from 0 (least) to 10 (most).,40085.09999999963,1669839873396,turkey sandwich,1817.0999999996275,True,8.3,41902.199999999255,1817.0999999996275,True,HRV,HRV_0290,2022-11-30 20:25:57
17,"[{'imgObject': {}, 'id': 'olives', 'src': '/static/foodstim60/olives.jpg', 'key': 'NaN', 'origWidth': 410, 'origHeight': 410, 'width': 410, 'height': 410, 'widthPercent': 0.8, 'rescaleHeight': True, 'trialN': 17, 'loaded': True, 'loadedTime': 3328.39999999851, 'positionName': 'CENTER', 'positionCoords': [648.5, 275]}]",Rate how much you want to eat this food from 0 (least) to 10 (most).,41904.0,1669839875215,olives,1622.0999999996275,True,6.47,43526.09999999963,1622.0999999996275,True,HRV,HRV_0290,2022-11-30 20:25:57
18,"[{'imgObject': {}, 'id': 'corn cob', 'src': '/static/foodstim60/corn cob.jpg', 'key': 'NaN', 'origWidth': 411, 'origHeight': 411, 'width': 411, 'height': 411, 'widthPercent': 0.8, 'rescaleHeight': True, 'trialN': 18, 'loaded': True, 'loadedTime': 3362.5, 'positionName': 'CENTER', 'positionCoords': [648, 274.5]}]",Rate how much you want to eat this food from 0 (least) to 10 (most).,43527.89999999851,1669839876839,corn cob,1736.2000000011176,True,5.2700000000000005,45264.09999999963,1736.2000000011176,True,HRV,HRV_0290,2022-11-30 20:25:57
19,"[{'imgObject': {}, 'id': 'bagel plain', 'src': '/static/foodstim60/bagel plain.jpg', 'key': 'NaN', 'origWidth': 410, 'origHeight': 410, 'width': 410, 'height': 410, 'widthPercent': 0.8, 'rescaleHeight': True, 'trialN': 19, 'loaded': True, 'loadedTime': 3364.7999999988824, 'positionName': 'CENTER', 'positionCoords': [648.5, 275]}]",Rate how much you want to eat this food from 0 (least) to 10 (most).,45265.59999999963,1669839878577,bagel plain,1477.5,True,7.84,46743.09999999963,1477.5,True,HRV,HRV_0290,2022-11-30 20:25:57
20,"[{'imgObject': {}, 'id': 'bagel and cc', 'src': '/static/foodstim60/bagel and cc.jpg', 'key': 'NaN', 'origWidth': 410, 'origHeight': 410, 'width': 410, 'height': 410, 'widthPercent': 0.8, 'rescaleHeight': True, 'trialN': 20, 'loaded': True, 'loadedTime': 3372.199999999255, 'positionName': 'CENTER', 'positionCoords': [648.5, 275]}]",Rate how much you want to eat this food from 0 (least) to 10 (most).,46744.89999999851,1669839880056,bagel and cc,1772.1000000014901,True,8.93,48517.0,1772.1000000014901,True,HRV,HRV_0290,2022-11-30 20:25:57
21,"[{'imgObject': {}, 'id': 'hotdog w must', 'src': '/static/foodstim60/hotdog w must.jpg', 'key': 'NaN', 'origWidth': 409, 'origHeight': 409, 'width': 409, 'height': 409, 'widthPercent': 0.8, 'rescaleHeight': True, 'trialN': 21, 'loaded': True, 'loadedTime': 3374.5, 'positionName': 'CENTER', 'positionCoords': [649, 275.5]}]",Rate how much you want to eat this food from 0 (least) to 10 (most).,48519.29999999888,1669839881830,hotdog w must,1729.5999999996275,True,3.93,50248.89999999851,1729.5999999996275,True,HRV,HRV_0290,2022-11-30 20:25:57
22,"[{'imgObject': {}, 'id': 'avocado', 'src': '/static/foodstim60/avocado.jpg', 'key': 'NaN', 'origWidth': 409, 'origHeight': 409, 'width': 409, 'height': 409, 'widthPercent': 0.8, 'rescaleHeight': True, 'trialN': 22, 'loaded': True, 'loadedTime': 3398.0999999996275, 'positionName': 'CENTER', 'positionCoords': [649, 275.5]}]",Rate how much you want to eat this food from 0 (least) to 10 (most).,50250.699999999255,1669839883562,avocado,1582.5999999996275,True,3.21,51833.29999999888,1582.5999999996275,True,HRV,HRV_0290,2022-11-30 20:25:57
23,"[{'imgObject': {}, 'id': 'fruitsalad', 'src': '/static/foodstim60/fruitsalad.jpg', 'key': 'NaN', 'origWidth': 410, 'origHeight': 410, 'width': 410, 'height': 410, 'widthPercent': 0.8, 'rescaleHeight': True, 'trialN': 23, 'loaded': True, 'loadedTime': 3404.7999999988824, 'positionName': 'CENTER', 'positionCoords': [648.5, 275]}]",Rate how much you want to eat this food from 0 (least) to 10 (most).,51835.0,1669839885146,fruitsalad,2123.39999999851,True,4.57,53958.39999999851,2123.39999999851,True,HRV,HRV_0290,2022-11-30 20:25:57
24,"[{'imgObject': {}, 'id': 'pear', 'src': '/static/foodstim60/pear.jpg', 'key': 'NaN', 'origWidth': 411, 'origHeight': 410, 'width': 411, 'height': 410, 'widthPercent': 0.8, 'rescaleHeight': True, 'trialN': 24, 'loaded': True, 'loadedTime': 3501.199999999255, 'positionName': 'CENTER', 'positionCoords': [648, 275]}]",Rate how much you want to eat this food from 0 (least) to 10 (most).,53960.0,1669839887271,pear,1527.8999999985099,True,3.7600000000000002,55487.89999999851,1527.8999999985099,True,HRV,HRV_0290,2022-11-30 20:25:57
25,"[{'imgObject': {}, 'id': 'roastedpotatoes', 'src': '/static/foodstim60/roastedpotatoes.jpg', 'key': 'NaN', 'origWidth': 409, 'origHeight': 410, 'width': 409, 'height': 410, 'widthPercent': 0.8, 'rescaleHeight': True, 'trialN': 25, 'loaded': True, 'loadedTime': 3439.5, 'positionName': 'CENTER', 'positionCoords': [649, 275]}]",Rate how much you want to eat this food from 0 (least) to 10 (most).,55489.5,1669839888801,roastedpotatoes,3517.699999999255,True,8.67,59007.199999999255,3517.699999999255,True,HRV,HRV_0290,2022-11-30 20:25:57
26,"[{'imgObject': {}, 'id': 'rigatoni', 'src': '/static/foodstim60/rigatoni.jpg', 'key': 'NaN', 'origWidth': 411, 'origHeight': 411, 'width': 411, 'height': 411, 'widthPercent': 0.8, 'rescaleHeight': True, 'trialN': 26, 'loaded': True, 'loadedTime': 3505.699999999255, 'positionName': 'CENTER', 'positionCoords': [648, 274.5]}]",Rate how much you want to eat this food from 0 (least) to 10 (most).,59009.39999999851,1669839892321,rigatoni,1968.4000000003725,True,8.83,60977.79999999888,1968.4000000003725,True,HRV,HRV_0290,2022-11-30 20:25:57
27,"[{'imgObject': {}, 'id': 'tacos', 'src': '/static/foodstim60/tacos.jpg', 'key': 'NaN', 'origWidth': 411, 'origHeight': 411, 'width': 411, 'height': 411, 'widthPercent': 0.8, 'rescaleHeight': True, 'trialN': 27, 'loaded': True, 'loadedTime': 3503.39999999851, 'positionName': 'CENTER', 'positionCoords': [648, 274.5]}]",Rate how much you want to eat this food from 0 (least) to 10 (most).,60979.5,1669839894291,tacos,1781.2999999988824,True,9.08,62760.79999999888,1781.2999999988824,True,HRV,HRV_0290,2022-11-30 20:25:57
28,"[{'imgObject': {}, 'id': 'popsicles', 'src': '/static/foodstim60/popsicles.jpg', 'key': 'NaN', 'origWidth': 410, 'origHeight': 410, 'width': 410, 'height': 410, 'widthPercent': 0.8, 'rescaleHeight': True, 'trialN': 28, 'loaded': True, 'loadedTime': 3507.2999999988824, 'positionName': 'CENTER', 'positionCoords': [648.5, 275]}]",Rate how much you want to eat this food from 0 (least) to 10 (most).,62762.79999999888,1669839896074,popsicles,2244.800000000745,True,3.67,65007.59999999963,2244.800000000745,True,HRV,HRV_0290,2022-11-30 20:25:57
29,"[{'imgObject': {}, 'id': 'fried eggs', 'src': '/static/foodstim60/fried eggs.jpg', 'key': 'NaN', 'origWidth': 410, 'origHeight': 410, 'width': 410, 'height': 410, 'widthPercent': 0.8, 'rescaleHeight': True, 'trialN': 29, 'loaded': True, 'loadedTime': 3530.5999999996275, 'positionName': 'CENTER', 'positionCoords': [648.5, 275]}]",Rate how much you want to eat this food from 0 (least) to 10 (most).,65009.199999999255,1669839898320,fried eggs,2078.5,True,7.75,67087.69999999925,2078.5,True,HRV,HRV_0290,2022-11-30 20:25:57
30,"[{'imgObject': {}, 'id': 'cantaloupe', 'src': '/static/foodstim60/cantaloupe.jpg', 'key': 'NaN', 'origWidth': 409, 'origHeight': 409, 'width': 409, 'height': 409, 'widthPercent': 0.8, 'rescaleHeight': True, 'trialN': 30, 'loaded': True, 'loadedTime': 3533.89999999851, 'positionName': 'CENTER', 'positionCoords': [649, 275.5]}]",Rate how much you want to eat this food from 0 (least) to 10 (most).,67090.29999999888,1669839900401,cantaloupe,2045.5999999996275,True,0.78,69135.89999999851,2045.5999999996275,True,HRV,HRV_0290,2022-11-30 20:25:57
31,"[{'imgObject': {}, 'id': 'cocktailshrimp', 'src': '/static/foodstim60/cocktailshrimp.jpg', 'key': 'NaN', 'origWidth': 410, 'origHeight': 410, 'width': 410, 'height': 410, 'widthPercent': 0.8, 'rescaleHeight': True, 'trialN': 31, 'loaded': True, 'loadedTime': 3548.89999999851, 'positionName': 'CENTER', 'positionCoords': [648.5, 275]}]",Rate how much you want to eat this food from 0 (least) to 10 (most).,69137.59999999963,1669839902449,cocktailshrimp,1863.0999999996275,True,0.6900000000000001,71000.69999999925,1863.0999999996275,True,HRV,HRV_0290,2022-11-30 20:25:57
32,"[{'imgObject': {}, 'id': 'banana', 'src': '/static/foodstim60/banana.jpg', 'key': 'NaN', 'origWidth': 410, 'origHeight': 410, 'width': 410, 'height': 410, 'widthPercent': 0.8, 'rescaleHeight': True, 'trialN': 32, 'loaded': True, 'loadedTime': 3562.199999999255, 'positionName': 'CENTER', 'positionCoords': [648.5, 275]}]",Rate how much you want to eat this food from 0 (least) to 10 (most).,71002.29999999888,1669839904314,banana,2392.4000000003725,True,4.36,73394.69999999925,2392.4000000003725,True,HRV,HRV_0290,2022-11-30 20:25:57
33,"[{'imgObject': {}, 'id': 'cherry tomato', 'src': '/static/foodstim60/cherry tomato.jpg', 'key': 'NaN', 'origWidth': 410, 'origHeight': 410, 'width': 410, 'height': 410, 'widthPercent': 0.8, 'rescaleHeight': True, 'trialN': 33, 'loaded': True, 'loadedTime': 3596.2999999988824, 'positionName': 'CENTER', 'positionCoords': [648.5, 275]}]",Rate how much you want to eat this food from 0 (least) to 10 (most).,73396.5,1669839906708,cherry tomato,1697.0,True,3.2,75093.5,1697.0,True,HRV,HRV_0290,2022-11-30 20:25:57
34,"[{'imgObject': {}, 'id': 'baked potato', 'src': '/static/foodstim60/baked potato.jpg', 'key': 'NaN', 'origWidth': 409, 'origHeight': 410, 'width': 409, 'height': 410, 'widthPercent': 0.8, 'rescaleHeight': True, 'trialN': 34, 'loaded': True, 'loadedTime': 3613.5999999996275, 'positionName': 'CENTER', 'positionCoords': [649, 275]}]",Rate how much you want to eat this food from 0 (least) to 10 (most).,75094.89999999851,1669839908406,baked potato,1624.6000000014901,True,5.5600000000000005,76719.5,1624.6000000014901,True,HRV,HRV_0290,2022-11-30 20:25:57
35,"[{'imgObject': {}, 'id': 'granola w milk', 'src': '/static/foodstim60/granola w milk.jpg', 'key': 'NaN', 'origWidth': 410, 'origHeight': 410, 'width': 410, 'height': 410, 'widthPercent': 0.8, 'rescaleHeight': True, 'trialN': 35, 'loaded': True, 'loadedTime': 3599.5, 'positionName': 'CENTER', 'positionCoords': [648.5, 275]}]",Rate how much you want to eat this food from 0 (least) to 10 (most).,76721.19999999925,1669839910032,granola w milk,2187.199999999255,True,6.2700000000000005,78908.39999999851,2187.199999999255,True,HRV,HRV_0290,2022-11-30 20:25:57
36,"[{'imgObject': {}, 'id': 'steak', 'src': '/static/foodstim60/steak.jpg', 'key': 'NaN', 'origWidth': 410, 'origHeight': 410, 'width': 410, 'height': 410, 'widthPercent': 0.8, 'rescaleHeight': True, 'trialN': 36, 'loaded': True, 'loadedTime': 3607, 'positionName': 'CENTER', 'positionCoords': [648.5, 275]}]",Rate how much you want to eat this food from 0 (least) to 10 (most).,78910.29999999888,1669839912222,steak,1617.0999999996275,True,9.13,80527.39999999851,1617.0999999996275,True,HRV,HRV_0290,2022-11-30 20:25:57
37,"[{'imgObject': {}, 'id': 'veggieswithdip', 'src': '/static/foodstim60/veggieswithdip.jpg', 'key': 'NaN', 'origWidth': 409, 'origHeight': 409, 'width': 409, 'height': 409, 'widthPercent': 0.8, 'rescaleHeight': True, 'trialN': 37, 'loaded': True, 'loadedTime': 3648, 'positionName': 'CENTER', 'positionCoords': [649, 275.5]}]",Rate how much you want to eat this food from 0 (least) to 10 (most).,80528.89999999851,1669839913840,veggieswithdip,1966.4000000003725,True,8.71,82495.29999999888,1966.4000000003725,True,HRV,HRV_0290,2022-11-30 20:25:57
38,"[{'imgObject': {}, 'id': 'hashbrowns', 'src': '/static/foodstim60/hashbrowns.jpg', 'key': 'NaN', 'origWidth': 411, 'origHeight': 410, 'width': 411, 'height': 410, 'widthPercent': 0.8, 'rescaleHeight': True, 'trialN': 38, 'loaded': True, 'loadedTime': 3649.699999999255, 'positionName': 'CENTER', 'positionCoords': [648, 275]}]",Rate how much you want to eat this food from 0 (least) to 10 (most).,82497.19999999925,1669839915808,hashbrowns,3024.199999999255,True,4.0,85521.39999999851,3024.199999999255,True,HRV,HRV_0290,2022-11-30 20:25:57
39,"[{'imgObject': {}, 'id': 'burrito', 'src': '/static/foodstim60/burrito.jpg', 'key': 'NaN', 'origWidth': 410, 'origHeight': 410, 'width': 410, 'height': 410, 'widthPercent': 0.8, 'rescaleHeight': True, 'trialN': 39, 'loaded': True, 'loadedTime': 3664.2999999988824, 'positionName': 'CENTER', 'positionCoords': [648.5, 275]}]",Rate how much you want to eat this food from 0 (least) to 10 (most).,85523.09999999963,1669839918834,burrito,2273.4000000003725,True,9.18,87796.5,2273.4000000003725,True,HRV,HRV_0290,2022-11-30 20:25:57
40,"[{'imgObject': {}, 'id': 'shreddedwheatwithmilk', 'src': '/static/foodstim60/shreddedwheatwithmilk.jpg', 'key': 'NaN', 'origWidth': 410, 'origHeight': 410, 'width': 410, 'height': 410, 'widthPercent': 0.8, 'rescaleHeight': True, 'trialN': 40, 'loaded': True, 'loadedTime': 3659.89999999851, 'positionName': 'CENTER', 'positionCoords': [648.5, 275]}]",Rate how much you want to eat this food from 0 (least) to 10 (most).,87798.39999999851,1669839921110,shreddedwheatwithmilk,1406.9000000003725,True,6.82,89205.29999999888,1406.9000000003725,True,HRV,HRV_0290,2022-11-30 20:25:57
41,"[{'imgObject': {}, 'id': 'froot loops w milk', 'src': '/static/foodstim60/froot loops w milk.jpg', 'key': 'NaN', 'origWidth': 410, 'origHeight': 410, 'width': 410, 'height': 410, 'widthPercent': 0.8, 'rescaleHeight': True, 'trialN': 41, 'loaded': True, 'loadedTime': 3703.5999999996275, 'positionName': 'CENTER', 'positionCoords': [648.5, 275]}]",Rate how much you want to eat this food from 0 (least) to 10 (most).,89207.19999999925,1669839922518,froot loops w milk,1785.0999999996275,True,7.390000000000001,90992.29999999888,1785.0999999996275,True,HRV,HRV_0290,2022-11-30 20:25:57
42,"[{'imgObject': {}, 'id': 'rigatoni and sauce', 'src': '/static/foodstim60/rigatoni and sauce.jpg', 'key': 'NaN', 'origWidth': 410, 'origHeight': 411, 'width': 410, 'height': 411, 'widthPercent': 0.8, 'rescaleHeight': True, 'trialN': 42, 'loaded': True, 'loadedTime': 3701.5999999996275, 'positionName': 'CENTER', 'positionCoords': [648.5, 274.5]}]",Rate how much you want to eat this food from 0 (least) to 10 (most).,90994.19999999925,1669839924305,rigatoni and sauce,1646.0,True,8.83,92640.19999999925,1646.0,True,HRV,HRV_0290,2022-11-30 20:25:57
43,"[{'imgObject': {}, 'id': 'sweetpotato', 'src': '/static/foodstim60/sweetpotato.jpg', 'key': 'NaN', 'origWidth': 410, 'origHeight': 410, 'width': 410, 'height': 410, 'widthPercent': 0.8, 'rescaleHeight': True, 'trialN': 43, 'loaded': True, 'loadedTime': 3704.5999999996275, 'positionName': 'CENTER', 'positionCoords': [648.5, 275]}]",Rate how much you want to eat this food from 0 (least) to 10 (most).,92642.29999999888,1669839925954,sweetpotato,2494.7000000011176,True,0.6,95137.0,2494.7000000011176,True,HRV,HRV_0290,2022-11-30 20:25:57
44,"[{'imgObject': {}, 'id': 'cherries', 'src': '/static/foodstim60/cherries.jpg', 'key': 'NaN', 'origWidth': 410, 'origHeight': 411, 'width': 410, 'height': 411, 'widthPercent': 0.8, 'rescaleHeight': True, 'trialN': 44, 'loaded': True, 'loadedTime': 3705.5, 'positionName': 'CENTER', 'positionCoords': [648.5, 274.5]}]",Rate how much you want to eat this food from 0 (least) to 10 (most).,95138.79999999888,1669839928450,cherries,1545.300000000745,True,1.9000000000000001,96684.09999999963,1545.300000000745,True,HRV,HRV_0290,2022-11-30 20:25:57
45,"[{'imgObject': {}, 'id': 'burger', 'src': '/static/foodstim60/burger.jpg', 'key': 'NaN', 'origWidth': 409, 'origHeight': 409, 'width': 409, 'height': 409, 'widthPercent': 0.8, 'rescaleHeight': True, 'trialN': 45, 'loaded': True, 'loadedTime': 3735, 'positionName': 'CENTER', 'positionCoords': [649, 275.5]}]",Rate how much you want to eat this food from 0 (least) to 10 (most).,96685.79999999888,1669839929997,burger,2131.300000000745,True,7.640000000000001,98817.09999999963,2131.300000000745,True,HRV,HRV_0290,2022-11-30 20:25:57
46,"[{'imgObject': {}, 'id': 'edamame', 'src': '/static/foodstim60/edamame.jpg', 'key': 'NaN', 'origWidth': 409, 'origHeight': 410, 'width': 409, 'height': 410, 'widthPercent': 0.8, 'rescaleHeight': True, 'trialN': 46, 'loaded': True, 'loadedTime': 3732.7999999988824, 'positionName': 'CENTER', 'positionCoords': [649, 275]}]",Rate how much you want to eat this food from 0 (least) to 10 (most).,98819.39999999851,1669839932131,edamame,2153.60000000149,True,5.0,100973.0,2153.60000000149,True,HRV,HRV_0290,2022-11-30 20:25:57
47,"[{'imgObject': {}, 'id': 'mac & cheese', 'src': '/static/foodstim60/mac & cheese.jpg', 'key': 'NaN', 'origWidth': 410, 'origHeight': 410, 'width': 410, 'height': 410, 'widthPercent': 0.8, 'rescaleHeight': True, 'trialN': 47, 'loaded': True, 'loadedTime': 3743, 'positionName': 'CENTER', 'positionCoords': [648.5, 275]}]",Rate how much you want to eat this food from 0 (least) to 10 (most).,100974.5,1669839934286,mac & cheese,1546.2999999988824,True,8.71,102520.79999999888,1546.2999999988824,True,HRV,HRV_0290,2022-11-30 20:25:57
48,"[{'imgObject': {}, 'id': 'Grapes', 'src': '/static/foodstim60/Grapes.jpg', 'key': 'NaN', 'origWidth': 411, 'origHeight': 411, 'width': 411, 'height': 411, 'widthPercent': 0.8, 'rescaleHeight': True, 'trialN': 48, 'loaded': True, 'loadedTime': 3753.199999999255, 'positionName': 'CENTER', 'positionCoords': [648, 274.5]}]",Rate how much you want to eat this food from 0 (least) to 10 (most).,102522.69999999925,1669839935834,Grapes,2736.300000000745,True,4.98,105259.0,2736.300000000745,True,HRV,HRV_0290,2022-11-30 20:25:57
49,"[{'imgObject': {}, 'id': 'grilled chicken strips', 'src': '/static/foodstim60/grilled chicken strips.jpg', 'key': 'NaN', 'origWidth': 410, 'origHeight': 411, 'width': 410, 'height': 411, 'widthPercent': 0.8, 'rescaleHeight': True, 'trialN': 49, 'loaded': True, 'loadedTime': 3775.5999999996275, 'positionName': 'CENTER', 'positionCoords': [648.5, 274.5]}]",Rate how much you want to eat this food from 0 (least) to 10 (most).,105260.29999999888,1669839938572,grilled chicken strips,1540.5999999996275,True,9.09,106800.89999999851,1540.5999999996275,True,HRV,HRV_0290,2022-11-30 20:25:57
50,"[{'imgObject': {}, 'id': 'omelette', 'src': '/static/foodstim60/omelette.jpg', 'key': 'NaN', 'origWidth': 410, 'origHeight': 409, 'width': 410, 'height': 409, 'widthPercent': 0.8, 'rescaleHeight': True, 'trialN': 50, 'loaded': True, 'loadedTime': 3780, 'positionName': 'CENTER', 'positionCoords': [648.5, 275.5]}]",Rate how much you want to eat this food from 0 (least) to 10 (most).,106802.39999999851,1669839940114,omelette,3636.300000000745,True,6.15,110438.69999999925,3636.300000000745,True,HRV,HRV_0290,2022-11-30 20:25:57
51,"[{'imgObject': {}, 'id': 'raisin bran w milk', 'src': '/static/foodstim60/raisin bran w milk.jpg', 'key': 'NaN', 'origWidth': 411, 'origHeight': 411, 'width': 411, 'height': 411, 'widthPercent': 0.8, 'rescaleHeight': True, 'trialN': 51, 'loaded': True, 'loadedTime': 3803.199999999255, 'positionName': 'CENTER', 'positionCoords': [648, 274.5]}]",Rate how much you want to eat this food from 0 (least) to 10 (most).,110440.39999999851,1669839943752,raisin bran w milk,1504.4000000003725,True,6.890000000000001,111944.79999999888,1504.4000000003725,True,HRV,HRV_0290,2022-11-30 20:25:57
52,"[{'imgObject': {}, 'id': 'ice cream sundae 002', 'src': '/static/foodstim60/ice cream sundae 002.jpg', 'key': 'NaN', 'origWidth': 409, 'origHeight': 409, 'width': 409, 'height': 409, 'widthPercent': 0.8, 'rescaleHeight': True, 'trialN': 52, 'loaded': True, 'loadedTime': 3805.39999999851, 'positionName': 'CENTER', 'positionCoords': [649, 275.5]}]",Rate how much you want to eat this food from 0 (least) to 10 (most).,111946.29999999888,1669839945258,ice cream sundae 002,1545.7000000011176,True,8.21,113492.0,1545.7000000011176,True,HRV,HRV_0290,2022-11-30 20:25:57
53,"[{'imgObject': {}, 'id': 'salmon', 'src': '/static/foodstim60/salmon.jpg', 'key': 'NaN', 'origWidth': 410, 'origHeight': 409, 'width': 410, 'height': 409, 'widthPercent': 0.8, 'rescaleHeight': True, 'trialN': 53, 'loaded': True, 'loadedTime': 3815.39999999851, 'positionName': 'CENTER', 'positionCoords': [648.5, 275.5]}]",Rate how much you want to eat this food from 0 (least) to 10 (most).,113493.69999999925,1669839946805,salmon,1676.0999999996275,True,5.82,115169.79999999888,1676.0999999996275,True,HRV,HRV_0290,2022-11-30 20:25:57
54,"[{'imgObject': {}, 'id': 'lox', 'src': '/static/foodstim60/lox.jpg', 'key': 'NaN', 'origWidth': 410, 'origHeight': 411, 'width': 410, 'height': 411, 'widthPercent': 0.8, 'rescaleHeight': True, 'trialN': 54, 'loaded': True, 'loadedTime': 3824.0999999996275, 'positionName': 'CENTER', 'positionCoords': [648.5, 274.5]}]",Rate how much you want to eat this food from 0 (least) to 10 (most).,115171.79999999888,1669839948483,lox,1421.0999999996275,True,4.0200000000000005,116592.89999999851,1421.0999999996275,True,HRV,HRV_0290,2022-11-30 20:25:57
55,"[{'imgObject': {}, 'id': 'cheerios', 'src': '/static/foodstim60/cheerios.jpg', 'key': 'NaN', 'origWidth': 409, 'origHeight': 410, 'width': 409, 'height': 410, 'widthPercent': 0.8, 'rescaleHeight': True, 'trialN': 55, 'loaded': True, 'loadedTime': 3830.699999999255, 'positionName': 'CENTER', 'positionCoords': [649, 275]}]",Rate how much you want to eat this food from 0 (least) to 10 (most).,116594.89999999851,1669839949906,cheerios,1311.800000000745,True,7.33,117906.69999999925,1311.800000000745,True,HRV,HRV_0290,2022-11-30 20:25:57
56,"[{'imgObject': {}, 'id': 'chickenfingers', 'src': '/static/foodstim60/chickenfingers.jpg', 'key': 'NaN', 'origWidth': 410, 'origHeight': 410, 'width': 410, 'height': 410, 'widthPercent': 0.8, 'rescaleHeight': True, 'trialN': 56, 'loaded': True, 'loadedTime': 3836.89999999851, 'positionName': 'CENTER', 'positionCoords': [648.5, 275]}]",Rate how much you want to eat this food from 0 (least) to 10 (most).,117908.29999999888,1669839951220,chickenfingers,1623.4000000003725,True,9.0,119531.69999999925,1623.4000000003725,True,HRV,HRV_0290,2022-11-30 20:25:57
57,"[{'imgObject': {}, 'id': 'apple slices', 'src': '/static/foodstim60/apple slices.jpg', 'key': 'NaN', 'origWidth': 409, 'origHeight': 410, 'width': 409, 'height': 410, 'widthPercent': 0.8, 'rescaleHeight': True, 'trialN': 57, 'loaded': True, 'loadedTime': 3863.0999999996275, 'positionName': 'CENTER', 'positionCoords': [649, 275]}]",Rate how much you want to eat this food from 0 (least) to 10 (most).,119533.09999999963,1669839952844,apple slices,2101.699999999255,True,2.68,121634.79999999888,2101.699999999255,True,HRV,HRV_0290,2022-11-30 20:25:57
58,"[{'imgObject': {}, 'id': 'strawberries', 'src': '/static/foodstim60/strawberries.jpg', 'key': 'NaN', 'origWidth': 410, 'origHeight': 410, 'width': 410, 'height': 410, 'widthPercent': 0.8, 'rescaleHeight': True, 'trialN': 58, 'loaded': True, 'loadedTime': 3866.199999999255, 'positionName': 'CENTER', 'positionCoords': [648.5, 275]}]",Rate how much you want to eat this food from 0 (least) to 10 (most).,121636.59999999963,1669839954948,strawberries,1226.9000000003725,True,3.2800000000000002,122863.5,1226.9000000003725,True,HRV,HRV_0290,2022-11-30 20:25:57
59,"[{'imgObject': {}, 'id': 'yogurt no spoon', 'src': '/static/foodstim60/yogurt no spoon.jpg', 'key': 'NaN', 'origWidth': 411, 'origHeight': 410, 'width': 411, 'height': 410, 'widthPercent': 0.8, 'rescaleHeight': True, 'trialN': 59, 'loaded': True, 'loadedTime': 3870.5999999996275, 'positionName': 'CENTER', 'positionCoords': [648, 275]}]",Rate how much you want to eat this food from 0 (least) to 10 (most).,122865.0,1669839956176,yogurt no spoon,1487.5999999996275,True,3.99,124352.59999999963,1487.5999999996275,True,HRV,HRV_0290,2022-11-30 20:25:57
