trialN,stimuli,question,trialStartTime,trialStartTime_UNIX,stimulus1,rt,receivedResponse,rating,trialEndTime,trialDuration,stimulus1Loaded,exp,subjectId,date
0,"[{'imgObject': {}, 'id': 'olives', 'src': '/static/foodstim60/olives.jpg', 'key': 'NaN', 'origWidth': 410, 'origHeight': 410, 'width': 410, 'height': 410, 'widthPercent': 0.8, 'rescaleHeight': True, 'trialN': 0, 'loaded': True, 'loadedTime': 2491.800000000745, 'positionName': 'CENTER', 'positionCoords': [648.5, 275]}]",Rate how much you want to eat this food from 0 (least) to 10 (most).,2927.4000000003725,1669839965714,olives,2829.5999999996275,True,5.75,5757.0,2829.5999999996275,True,HRV,HRV_0290,2022-11-30 20:27:47
1,"[{'imgObject': {}, 'id': 'bagel plain', 'src': '/static/foodstim60/bagel plain.jpg', 'key': 'NaN', 'origWidth': 410, 'origHeight': 410, 'width': 410, 'height': 410, 'widthPercent': 0.8, 'rescaleHeight': True, 'trialN': 1, 'loaded': True, 'loadedTime': 2495.4000000003725, 'positionName': 'CENTER', 'positionCoords': [648.5, 275]}]",Rate how much you want to eat this food from 0 (least) to 10 (most).,5760.700000001118,1669839968548,bagel plain,1818.699999999255,True,7.92,7579.4000000003725,1818.699999999255,True,HRV,HRV_0290,2022-11-30 20:27:47
2,"[{'imgObject': {}, 'id': 'pear', 'src': '/static/foodstim60/pear.jpg', 'key': 'NaN', 'origWidth': 411, 'origHeight': 410, 'width': 411, 'height': 410, 'widthPercent': 0.8, 'rescaleHeight': True, 'trialN': 2, 'loaded': True, 'loadedTime': 2511.5, 'positionName': 'CENTER', 'positionCoords': [648, 275]}]",Rate how much you want to eat this food from 0 (least) to 10 (most).,7580.9000000003725,1669839970368,pear,1685.9000000003725,True,2.5500000000000003,9266.800000000745,1685.9000000003725,True,HRV,HRV_0290,2022-11-30 20:27:47
3,"[{'imgObject': {}, 'id': 'apple slices', 'src': '/static/foodstim60/apple slices.jpg', 'key': 'NaN', 'origWidth': 409, 'origHeight': 410, 'width': 409, 'height': 410, 'widthPercent': 0.8, 'rescaleHeight': True, 'trialN': 3, 'loaded': True, 'loadedTime': 2521, 'positionName': 'CENTER', 'positionCoords': [649, 275]}]",Rate how much you want to eat this food from 0 (least) to 10 (most).,9268.5,1669839972055,apple slices,1624.7000000011176,True,1.54,10893.200000001118,1624.7000000011176,True,HRV,HRV_0290,2022-11-30 20:27:47
4,"[{'imgObject': {}, 'id': 'fried eggs', 'src': '/static/foodstim60/fried eggs.jpg', 'key': 'NaN', 'origWidth': 410, 'origHeight': 410, 'width': 410, 'height': 410, 'widthPercent': 0.8, 'rescaleHeight': True, 'trialN': 4, 'loaded': True, 'loadedTime': 2522.9000000003725, 'positionName': 'CENTER', 'positionCoords': [648.5, 275]}]",Rate how much you want to eat this food from 0 (least) to 10 (most).,10895.0,1669839973682,fried eggs,1898.9000000003725,True,6.63,12793.900000000373,1898.9000000003725,True,HRV,HRV_0290,2022-11-30 20:27:47
5,"[{'imgObject': {}, 'id': 'turkey sandwich', 'src': '/static/foodstim60/turkey sandwich.jpg', 'key': 'NaN', 'origWidth': 409, 'origHeight': 409, 'width': 409, 'height': 409, 'widthPercent': 0.8, 'rescaleHeight': True, 'trialN': 5, 'loaded': True, 'loadedTime': 2524.7000000011176, 'positionName': 'CENTER', 'positionCoords': [649, 275.5]}]",Rate how much you want to eat this food from 0 (least) to 10 (most).,12795.5,1669839975582,turkey sandwich,1439.2000000011176,True,8.61,14234.700000001118,1439.2000000011176,True,HRV,HRV_0290,2022-11-30 20:27:47
6,"[{'imgObject': {}, 'id': 'Tribe humus pita', 'src': '/static/foodstim60/Tribe humus pita.jpg', 'key': 'NaN', 'origWidth': 411, 'origHeight': 411, 'width': 411, 'height': 411, 'widthPercent': 0.8, 'rescaleHeight': True, 'trialN': 6, 'loaded': True, 'loadedTime': 2555.60000000149, 'positionName': 'CENTER', 'positionCoords': [648, 274.5]}]",Rate how much you want to eat this food from 0 (least) to 10 (most).,14236.5,1669839977023,Tribe humus pita,2464.4000000003725,True,8.32,16700.900000000373,2464.4000000003725,True,HRV,HRV_0290,2022-11-30 20:27:47
7,"[{'imgObject': {}, 'id': 'burger', 'src': '/static/foodstim60/burger.jpg', 'key': 'NaN', 'origWidth': 409, 'origHeight': 409, 'width': 409, 'height': 409, 'widthPercent': 0.8, 'rescaleHeight': True, 'trialN': 7, 'loaded': True, 'loadedTime': 2557.9000000003725, 'positionName': 'CENTER', 'positionCoords': [649, 275.5]}]",Rate how much you want to eat this food from 0 (least) to 10 (most).,16702.5,1669839979489,burger,2123.2000000011176,True,8.02,18825.700000001118,2123.2000000011176,True,HRV,HRV_0290,2022-11-30 20:27:47
8,"[{'imgObject': {}, 'id': 'roastedpotatoes', 'src': '/static/foodstim60/roastedpotatoes.jpg', 'key': 'NaN', 'origWidth': 409, 'origHeight': 410, 'width': 409, 'height': 410, 'widthPercent': 0.8, 'rescaleHeight': True, 'trialN': 8, 'loaded': True, 'loadedTime': 2559.7000000011176, 'positionName': 'CENTER', 'positionCoords': [649, 275]}]",Rate how much you want to eat this food from 0 (least) to 10 (most).,18827.300000000745,1669839981614,roastedpotatoes,1520.300000000745,True,9.21,20347.60000000149,1520.300000000745,True,HRV,HRV_0290,2022-11-30 20:27:47
9,"[{'imgObject': {}, 'id': 'cheerios', 'src': '/static/foodstim60/cheerios.jpg', 'key': 'NaN', 'origWidth': 409, 'origHeight': 410, 'width': 409, 'height': 410, 'widthPercent': 0.8, 'rescaleHeight': True, 'trialN': 9, 'loaded': True, 'loadedTime': 2561.7000000011176, 'positionName': 'CENTER', 'positionCoords': [649, 275]}]",Rate how much you want to eat this food from 0 (least) to 10 (most).,20349.5,1669839983136,cheerios,1628.4000000003725,True,6.69,21977.900000000373,1628.4000000003725,True,HRV,HRV_0290,2022-11-30 20:27:47
10,"[{'imgObject': {}, 'id': 'mac & cheese', 'src': '/static/foodstim60/mac & cheese.jpg', 'key': 'NaN', 'origWidth': 410, 'origHeight': 410, 'width': 410, 'height': 410, 'widthPercent': 0.8, 'rescaleHeight': True, 'trialN': 10, 'loaded': True, 'loadedTime': 2583.2000000011176, 'positionName': 'CENTER', 'positionCoords': [648.5, 275]}]",Rate how much you want to eat this food from 0 (least) to 10 (most).,21979.400000000373,1669839984766,mac & cheese,1662.4000000003725,True,9.14,23641.800000000745,1662.4000000003725,True,HRV,HRV_0290,2022-11-30 20:27:47
11,"[{'imgObject': {}, 'id': 'chicken nuggets2', 'src': '/static/foodstim60/chicken nuggets2.jpg', 'key': 'NaN', 'origWidth': 410, 'origHeight': 409, 'width': 410, 'height': 409, 'widthPercent': 0.8, 'rescaleHeight': True, 'trialN': 11, 'loaded': True, 'loadedTime': 2588.800000000745, 'positionName': 'CENTER', 'positionCoords': [648.5, 275.5]}]",Rate how much you want to eat this food from 0 (least) to 10 (most).,23643.700000001118,1669839986430,chicken nuggets2,1591.9000000003725,True,9.03,25235.60000000149,1591.9000000003725,True,HRV,HRV_0290,2022-11-30 20:27:47
12,"[{'imgObject': {}, 'id': 'rigatoni and sauce', 'src': '/static/foodstim60/rigatoni and sauce.jpg', 'key': 'NaN', 'origWidth': 410, 'origHeight': 411, 'width': 410, 'height': 411, 'widthPercent': 0.8, 'rescaleHeight': True, 'trialN': 12, 'loaded': True, 'loadedTime': 2628.9000000003725, 'positionName': 'CENTER', 'positionCoords': [648.5, 274.5]}]",Rate how much you want to eat this food from 0 (least) to 10 (most).,25237.800000000745,1669839988025,rigatoni and sauce,1452.800000000745,True,8.94,26690.60000000149,1452.800000000745,True,HRV,HRV_0290,2022-11-30 20:27:47
13,"[{'imgObject': {}, 'id': 'lox', 'src': '/static/foodstim60/lox.jpg', 'key': 'NaN', 'origWidth': 410, 'origHeight': 411, 'width': 410, 'height': 411, 'widthPercent': 0.8, 'rescaleHeight': True, 'trialN': 13, 'loaded': True, 'loadedTime': 2630.5, 'positionName': 'CENTER', 'positionCoords': [648.5, 274.5]}]",Rate how much you want to eat this food from 0 (least) to 10 (most).,26692.10000000149,1669839989479,lox,2071.5999999996275,True,2.89,28763.700000001118,2071.5999999996275,True,HRV,HRV_0290,2022-11-30 20:27:47
14,"[{'imgObject': {}, 'id': 'sweetpotato', 'src': '/static/foodstim60/sweetpotato.jpg', 'key': 'NaN', 'origWidth': 410, 'origHeight': 410, 'width': 410, 'height': 410, 'widthPercent': 0.8, 'rescaleHeight': True, 'trialN': 14, 'loaded': True, 'loadedTime': 2632.2000000011176, 'positionName': 'CENTER', 'positionCoords': [648.5, 275]}]",Rate how much you want to eat this food from 0 (least) to 10 (most).,28767.900000000373,1669839991555,sweetpotato,1571.5999999996275,True,0.62,30339.5,1571.5999999996275,True,HRV,HRV_0290,2022-11-30 20:27:47
15,"[{'imgObject': {}, 'id': 'veggieswithdip', 'src': '/static/foodstim60/veggieswithdip.jpg', 'key': 'NaN', 'origWidth': 409, 'origHeight': 409, 'width': 409, 'height': 409, 'widthPercent': 0.8, 'rescaleHeight': True, 'trialN': 15, 'loaded': True, 'loadedTime': 2633.60000000149, 'positionName': 'CENTER', 'positionCoords': [649, 275.5]}]",Rate how much you want to eat this food from 0 (least) to 10 (most).,30341.60000000149,1669839993128,veggieswithdip,2908.7999999988824,True,8.790000000000001,33250.40000000037,2908.7999999988824,True,HRV,HRV_0290,2022-11-30 20:27:47
16,"[{'imgObject': {}, 'id': 'salmon', 'src': '/static/foodstim60/salmon.jpg', 'key': 'NaN', 'origWidth': 410, 'origHeight': 409, 'width': 410, 'height': 409, 'widthPercent': 0.8, 'rescaleHeight': True, 'trialN': 16, 'loaded': True, 'loadedTime': 2670.800000000745, 'positionName': 'CENTER', 'positionCoords': [648.5, 275.5]}]",Rate how much you want to eat this food from 0 (least) to 10 (most).,33252.20000000112,1669839996039,salmon,2002.5,True,2.75,35254.70000000112,2002.5,True,HRV,HRV_0290,2022-11-30 20:27:47
17,"[{'imgObject': {}, 'id': 'hotdog w must', 'src': '/static/foodstim60/hotdog w must.jpg', 'key': 'NaN', 'origWidth': 409, 'origHeight': 409, 'width': 409, 'height': 409, 'widthPercent': 0.8, 'rescaleHeight': True, 'trialN': 17, 'loaded': True, 'loadedTime': 2672.800000000745, 'positionName': 'CENTER', 'positionCoords': [649, 275.5]}]",Rate how much you want to eat this food from 0 (least) to 10 (most).,35257.0,1669839998044,hotdog w must,1692.300000000745,True,3.63,36949.300000000745,1692.300000000745,True,HRV,HRV_0290,2022-11-30 20:27:47
18,"[{'imgObject': {}, 'id': 'rigatoni', 'src': '/static/foodstim60/rigatoni.jpg', 'key': 'NaN', 'origWidth': 411, 'origHeight': 411, 'width': 411, 'height': 411, 'widthPercent': 0.8, 'rescaleHeight': True, 'trialN': 18, 'loaded': True, 'loadedTime': 2677.300000000745, 'positionName': 'CENTER', 'positionCoords': [648, 274.5]}]",Rate how much you want to eat this food from 0 (least) to 10 (most).,36950.800000000745,1669839999738,rigatoni,1445.4000000003725,True,8.74,38396.20000000112,1445.4000000003725,True,HRV,HRV_0290,2022-11-30 20:27:47
19,"[{'imgObject': {}, 'id': 'popsicles', 'src': '/static/foodstim60/popsicles.jpg', 'key': 'NaN', 'origWidth': 410, 'origHeight': 410, 'width': 410, 'height': 410, 'widthPercent': 0.8, 'rescaleHeight': True, 'trialN': 19, 'loaded': True, 'loadedTime': 2682.5, 'positionName': 'CENTER', 'positionCoords': [648.5, 275]}]",Rate how much you want to eat this food from 0 (least) to 10 (most).,38397.800000000745,1669840001184,popsicles,2013.5,True,4.24,40411.300000000745,2013.5,True,HRV,HRV_0290,2022-11-30 20:27:47
20,"[{'imgObject': {}, 'id': 'tacos', 'src': '/static/foodstim60/tacos.jpg', 'key': 'NaN', 'origWidth': 411, 'origHeight': 411, 'width': 411, 'height': 411, 'widthPercent': 0.8, 'rescaleHeight': True, 'trialN': 20, 'loaded': True, 'loadedTime': 2688.800000000745, 'positionName': 'CENTER', 'positionCoords': [648, 274.5]}]",Rate how much you want to eat this food from 0 (least) to 10 (most).,40413.10000000149,1669840003200,tacos,1421.199999999255,True,9.42,41834.300000000745,1421.199999999255,True,HRV,HRV_0290,2022-11-30 20:27:47
21,"[{'imgObject': {}, 'id': 'blackbeanswithrice', 'src': '/static/foodstim60/blackbeanswithrice.jpg', 'key': 'NaN', 'origWidth': 410, 'origHeight': 410, 'width': 410, 'height': 410, 'widthPercent': 0.8, 'rescaleHeight': True, 'trialN': 21, 'loaded': True, 'loadedTime': 2691.10000000149, 'positionName': 'CENTER', 'positionCoords': [648.5, 275]}]",Rate how much you want to eat this food from 0 (least) to 10 (most).,41836.0,1669840004622,blackbeanswithrice,1216.5,True,6.01,43052.5,1216.5,True,HRV,HRV_0290,2022-11-30 20:27:47
22,"[{'imgObject': {}, 'id': 'fruitsalad', 'src': '/static/foodstim60/fruitsalad.jpg', 'key': 'NaN', 'origWidth': 410, 'origHeight': 410, 'width': 410, 'height': 410, 'widthPercent': 0.8, 'rescaleHeight': True, 'trialN': 22, 'loaded': True, 'loadedTime': 2694.5, 'positionName': 'CENTER', 'positionCoords': [648.5, 275]}]",Rate how much you want to eat this food from 0 (least) to 10 (most).,43054.40000000037,1669840005841,fruitsalad,1985.7000000011176,True,4.19,45040.10000000149,1985.7000000011176,True,HRV,HRV_0290,2022-11-30 20:27:47
23,"[{'imgObject': {}, 'id': 'omelette', 'src': '/static/foodstim60/omelette.jpg', 'key': 'NaN', 'origWidth': 410, 'origHeight': 409, 'width': 410, 'height': 409, 'widthPercent': 0.8, 'rescaleHeight': True, 'trialN': 23, 'loaded': True, 'loadedTime': 2700.4000000003725, 'positionName': 'CENTER', 'positionCoords': [648.5, 275.5]}]",Rate how much you want to eat this food from 0 (least) to 10 (most).,45041.800000000745,1669840007828,omelette,1660.4000000003725,True,5.7700000000000005,46702.20000000112,1660.4000000003725,True,HRV,HRV_0290,2022-11-30 20:27:47
24,"[{'imgObject': {}, 'id': 'froot loops w milk', 'src': '/static/foodstim60/froot loops w milk.jpg', 'key': 'NaN', 'origWidth': 410, 'origHeight': 410, 'width': 410, 'height': 410, 'widthPercent': 0.8, 'rescaleHeight': True, 'trialN': 24, 'loaded': True, 'loadedTime': 2708.60000000149, 'positionName': 'CENTER', 'positionCoords': [648.5, 275]}]",Rate how much you want to eat this food from 0 (least) to 10 (most).,46703.90000000037,1669840009490,froot loops w milk,1717.2000000011176,True,7.2,48421.10000000149,1717.2000000011176,True,HRV,HRV_0290,2022-11-30 20:27:47
25,"[{'imgObject': {}, 'id': 'edamame', 'src': '/static/foodstim60/edamame.jpg', 'key': 'NaN', 'origWidth': 409, 'origHeight': 410, 'width': 409, 'height': 410, 'widthPercent': 0.8, 'rescaleHeight': True, 'trialN': 25, 'loaded': True, 'loadedTime': 2711.9000000003725, 'positionName': 'CENTER', 'positionCoords': [649, 275]}]",Rate how much you want to eat this food from 0 (least) to 10 (most).,48422.60000000149,1669840011209,edamame,2033.5,True,5.88,50456.10000000149,2033.5,True,HRV,HRV_0290,2022-11-30 20:27:47
26,"[{'imgObject': {}, 'id': 'bagel and cc', 'src': '/static/foodstim60/bagel and cc.jpg', 'key': 'NaN', 'origWidth': 410, 'origHeight': 410, 'width': 410, 'height': 410, 'widthPercent': 0.8, 'rescaleHeight': True, 'trialN': 26, 'loaded': True, 'loadedTime': 2763.5, 'positionName': 'CENTER', 'positionCoords': [648.5, 275]}]",Rate how much you want to eat this food from 0 (least) to 10 (most).,50457.60000000149,1669840013244,bagel and cc,1449.699999999255,True,8.6,51907.300000000745,1449.699999999255,True,HRV,HRV_0290,2022-11-30 20:27:47
27,"[{'imgObject': {}, 'id': 'burrito', 'src': '/static/foodstim60/burrito.jpg', 'key': 'NaN', 'origWidth': 410, 'origHeight': 410, 'width': 410, 'height': 410, 'widthPercent': 0.8, 'rescaleHeight': True, 'trialN': 27, 'loaded': True, 'loadedTime': 2767.10000000149, 'positionName': 'CENTER', 'positionCoords': [648.5, 275]}]",Rate how much you want to eat this food from 0 (least) to 10 (most).,51909.40000000037,1669840014696,burrito,1230.800000000745,True,9.42,53140.20000000112,1230.800000000745,True,HRV,HRV_0290,2022-11-30 20:27:47
28,"[{'imgObject': {}, 'id': 'salad w chicken', 'src': '/static/foodstim60/salad w chicken.jpg', 'key': 'NaN', 'origWidth': 411, 'origHeight': 411, 'width': 411, 'height': 411, 'widthPercent': 0.8, 'rescaleHeight': True, 'trialN': 28, 'loaded': True, 'loadedTime': 2770.10000000149, 'positionName': 'CENTER', 'positionCoords': [648, 274.5]}]",Rate how much you want to eat this food from 0 (least) to 10 (most).,53141.800000000745,1669840015928,salad w chicken,1346.4000000003725,True,9.09,54488.20000000112,1346.4000000003725,True,HRV,HRV_0290,2022-11-30 20:27:47
29,"[{'imgObject': {}, 'id': 'steak', 'src': '/static/foodstim60/steak.jpg', 'key': 'NaN', 'origWidth': 410, 'origHeight': 410, 'width': 410, 'height': 410, 'widthPercent': 0.8, 'rescaleHeight': True, 'trialN': 29, 'loaded': True, 'loadedTime': 2772.7000000011176, 'positionName': 'CENTER', 'positionCoords': [648.5, 275]}]",Rate how much you want to eat this food from 0 (least) to 10 (most).,54490.300000000745,1669840017277,steak,1418.800000000745,True,9.48,55909.10000000149,1418.800000000745,True,HRV,HRV_0290,2022-11-30 20:27:47
30,"[{'imgObject': {}, 'id': 'grilled chicken strips', 'src': '/static/foodstim60/grilled chicken strips.jpg', 'key': 'NaN', 'origWidth': 410, 'origHeight': 411, 'width': 410, 'height': 411, 'widthPercent': 0.8, 'rescaleHeight': True, 'trialN': 30, 'loaded': True, 'loadedTime': 2791.2000000011176, 'positionName': 'CENTER', 'positionCoords': [648.5, 274.5]}]",Rate how much you want to eat this food from 0 (least) to 10 (most).,55910.60000000149,1669840018697,grilled chicken strips,1239.5,True,9.13,57150.10000000149,1239.5,True,HRV,HRV_0290,2022-11-30 20:27:47
31,"[{'imgObject': {}, 'id': 'turkeysandwich', 'src': '/static/foodstim60/turkeysandwich.jpg', 'key': 'NaN', 'origWidth': 409, 'origHeight': 409, 'width': 409, 'height': 409, 'widthPercent': 0.8, 'rescaleHeight': True, 'trialN': 31, 'loaded': True, 'loadedTime': 2797.10000000149, 'positionName': 'CENTER', 'positionCoords': [649, 275.5]}]",Rate how much you want to eat this food from 0 (least) to 10 (most).,57152.0,1669840019938,turkeysandwich,1582.6000000014901,True,8.4,58734.60000000149,1582.6000000014901,True,HRV,HRV_0290,2022-11-30 20:27:47
32,"[{'imgObject': {}, 'id': 'cherry tomato', 'src': '/static/foodstim60/cherry tomato.jpg', 'key': 'NaN', 'origWidth': 410, 'origHeight': 410, 'width': 410, 'height': 410, 'widthPercent': 0.8, 'rescaleHeight': True, 'trialN': 32, 'loaded': True, 'loadedTime': 2802, 'positionName': 'CENTER', 'positionCoords': [648.5, 275]}]",Rate how much you want to eat this food from 0 (least) to 10 (most).,58736.60000000149,1669840021523,cherry tomato,2168.2999999988824,True,2.22,60904.90000000037,2168.2999999988824,True,HRV,HRV_0290,2022-11-30 20:27:47
33,"[{'imgObject': {}, 'id': 'granola w milk', 'src': '/static/foodstim60/granola w milk.jpg', 'key': 'NaN', 'origWidth': 410, 'origHeight': 410, 'width': 410, 'height': 410, 'widthPercent': 0.8, 'rescaleHeight': True, 'trialN': 33, 'loaded': True, 'loadedTime': 2804.800000000745, 'positionName': 'CENTER', 'positionCoords': [648.5, 275]}]",Rate how much you want to eat this food from 0 (least) to 10 (most).,60907.0,1669840023694,granola w milk,2171.0,True,6.7700000000000005,63078.0,2171.0,True,HRV,HRV_0290,2022-11-30 20:27:47
34,"[{'imgObject': {}, 'id': 'seaweed', 'src': '/static/foodstim60/seaweed.jpg', 'key': 'NaN', 'origWidth': 410, 'origHeight': 410, 'width': 410, 'height': 410, 'widthPercent': 0.8, 'rescaleHeight': True, 'trialN': 34, 'loaded': True, 'loadedTime': 2808.60000000149, 'positionName': 'CENTER', 'positionCoords': [648.5, 275]}]",Rate how much you want to eat this food from 0 (least) to 10 (most).,63080.10000000149,1669840025867,seaweed,1943.699999999255,True,1.36,65023.800000000745,1943.699999999255,True,HRV,HRV_0290,2022-11-30 20:27:47
35,"[{'imgObject': {}, 'id': 'mashed potato', 'src': '/static/foodstim60/mashed potato.jpg', 'key': 'NaN', 'origWidth': 409, 'origHeight': 409, 'width': 409, 'height': 409, 'widthPercent': 0.8, 'rescaleHeight': True, 'trialN': 35, 'loaded': True, 'loadedTime': 2812.300000000745, 'positionName': 'CENTER', 'positionCoords': [649, 275.5]}]",Rate how much you want to eat this food from 0 (least) to 10 (most).,65026.20000000112,1669840027813,mashed potato,1793.5999999996275,True,6.0600000000000005,66819.80000000075,1793.5999999996275,True,HRV,HRV_0290,2022-11-30 20:27:47
36,"[{'imgObject': {}, 'id': 'banana', 'src': '/static/foodstim60/banana.jpg', 'key': 'NaN', 'origWidth': 410, 'origHeight': 410, 'width': 410, 'height': 410, 'widthPercent': 0.8, 'rescaleHeight': True, 'trialN': 36, 'loaded': True, 'loadedTime': 2814.5, 'positionName': 'CENTER', 'positionCoords': [648.5, 275]}]",Rate how much you want to eat this food from 0 (least) to 10 (most).,66821.40000000037,1669840029608,banana,1400.4000000003725,True,2.85,68221.80000000075,1400.4000000003725,True,HRV,HRV_0290,2022-11-30 20:27:47
37,"[{'imgObject': {}, 'id': 'luckycharms', 'src': '/static/foodstim60/luckycharms.jpg', 'key': 'NaN', 'origWidth': 410, 'origHeight': 409, 'width': 410, 'height': 409, 'widthPercent': 0.8, 'rescaleHeight': True, 'trialN': 37, 'loaded': True, 'loadedTime': 2816, 'positionName': 'CENTER', 'positionCoords': [648.5, 275.5]}]",Rate how much you want to eat this food from 0 (least) to 10 (most).,68223.80000000075,1669840031010,luckycharms,1239.300000000745,True,7.5,69463.10000000149,1239.300000000745,True,HRV,HRV_0290,2022-11-30 20:27:47
38,"[{'imgObject': {}, 'id': 'chickenfingers', 'src': '/static/foodstim60/chickenfingers.jpg', 'key': 'NaN', 'origWidth': 410, 'origHeight': 410, 'width': 410, 'height': 410, 'widthPercent': 0.8, 'rescaleHeight': True, 'trialN': 38, 'loaded': True, 'loadedTime': 2826.7000000011176, 'positionName': 'CENTER', 'positionCoords': [648.5, 275]}]",Rate how much you want to eat this food from 0 (least) to 10 (most).,69465.0,1669840032252,chickenfingers,1354.2000000011176,True,8.96,70819.20000000112,1354.2000000011176,True,HRV,HRV_0290,2022-11-30 20:27:47
39,"[{'imgObject': {}, 'id': 'Grapes', 'src': '/static/foodstim60/Grapes.jpg', 'key': 'NaN', 'origWidth': 411, 'origHeight': 411, 'width': 411, 'height': 411, 'widthPercent': 0.8, 'rescaleHeight': True, 'trialN': 39, 'loaded': True, 'loadedTime': 2828.2000000011176, 'positionName': 'CENTER', 'positionCoords': [648, 274.5]}]",Rate how much you want to eat this food from 0 (least) to 10 (most).,70820.90000000037,1669840033607,Grapes,1290.7000000011176,True,3.54,72111.60000000149,1290.7000000011176,True,HRV,HRV_0290,2022-11-30 20:27:47
40,"[{'imgObject': {}, 'id': 'raisin bran w milk', 'src': '/static/foodstim60/raisin bran w milk.jpg', 'key': 'NaN', 'origWidth': 411, 'origHeight': 411, 'width': 411, 'height': 411, 'widthPercent': 0.8, 'rescaleHeight': True, 'trialN': 40, 'loaded': True, 'loadedTime': 2829.60000000149, 'positionName': 'CENTER', 'positionCoords': [648, 274.5]}]",Rate how much you want to eat this food from 0 (least) to 10 (most).,72113.0,1669840034899,raisin bran w milk,2439.800000000745,True,6.16,74552.80000000075,2439.800000000745,True,HRV,HRV_0290,2022-11-30 20:27:47
41,"[{'imgObject': {}, 'id': 'shreddedwheatwithmilk', 'src': '/static/foodstim60/shreddedwheatwithmilk.jpg', 'key': 'NaN', 'origWidth': 410, 'origHeight': 410, 'width': 410, 'height': 410, 'widthPercent': 0.8, 'rescaleHeight': True, 'trialN': 41, 'loaded': True, 'loadedTime': 2830.800000000745, 'positionName': 'CENTER', 'positionCoords': [648.5, 275]}]",Rate how much you want to eat this food from 0 (least) to 10 (most).,74554.60000000149,1669840037341,shreddedwheatwithmilk,1240.0,True,6.95,75794.60000000149,1240.0,True,HRV,HRV_0290,2022-11-30 20:27:47
42,"[{'imgObject': {}, 'id': 'cantaloupe', 'src': '/static/foodstim60/cantaloupe.jpg', 'key': 'NaN', 'origWidth': 409, 'origHeight': 409, 'width': 409, 'height': 409, 'widthPercent': 0.8, 'rescaleHeight': True, 'trialN': 42, 'loaded': True, 'loadedTime': 2838.800000000745, 'positionName': 'CENTER', 'positionCoords': [649, 275.5]}]",Rate how much you want to eat this food from 0 (least) to 10 (most).,75796.30000000075,1669840038583,cantaloupe,2110.4000000003725,True,0.62,77906.70000000112,2110.4000000003725,True,HRV,HRV_0290,2022-11-30 20:27:47
43,"[{'imgObject': {}, 'id': 'orange slices', 'src': '/static/foodstim60/orange slices.jpg', 'key': 'NaN', 'origWidth': 409, 'origHeight': 410, 'width': 409, 'height': 410, 'widthPercent': 0.8, 'rescaleHeight': True, 'trialN': 43, 'loaded': True, 'loadedTime': 2855.2000000011176, 'positionName': 'CENTER', 'positionCoords': [649, 275]}]",Rate how much you want to eat this food from 0 (least) to 10 (most).,77908.80000000075,1669840040695,orange slices,1702.9000000003725,True,2.49,79611.70000000112,1702.9000000003725,True,HRV,HRV_0290,2022-11-30 20:27:47
44,"[{'imgObject': {}, 'id': 'strawberries', 'src': '/static/foodstim60/strawberries.jpg', 'key': 'NaN', 'origWidth': 410, 'origHeight': 410, 'width': 410, 'height': 410, 'widthPercent': 0.8, 'rescaleHeight': True, 'trialN': 44, 'loaded': True, 'loadedTime': 2857.60000000149, 'positionName': 'CENTER', 'positionCoords': [648.5, 275]}]",Rate how much you want to eat this food from 0 (least) to 10 (most).,79613.30000000075,1669840042400,strawberries,1257.300000000745,True,3.34,80870.60000000149,1257.300000000745,True,HRV,HRV_0290,2022-11-30 20:27:47
45,"[{'imgObject': {}, 'id': 'eggs', 'src': '/static/foodstim60/eggs.jpg', 'key': 'NaN', 'origWidth': 409, 'origHeight': 409, 'width': 409, 'height': 409, 'widthPercent': 0.8, 'rescaleHeight': True, 'trialN': 45, 'loaded': True, 'loadedTime': 2866.300000000745, 'positionName': 'CENTER', 'positionCoords': [649, 275.5]}]",Rate how much you want to eat this food from 0 (least) to 10 (most).,80872.20000000112,1669840043659,eggs,1611.2999999988824,True,9.09,82483.5,1611.2999999988824,True,HRV,HRV_0290,2022-11-30 20:27:47
46,"[{'imgObject': {}, 'id': 'yogurt no spoon', 'src': '/static/foodstim60/yogurt no spoon.jpg', 'key': 'NaN', 'origWidth': 411, 'origHeight': 410, 'width': 411, 'height': 410, 'widthPercent': 0.8, 'rescaleHeight': True, 'trialN': 46, 'loaded': True, 'loadedTime': 2867.7000000011176, 'positionName': 'CENTER', 'positionCoords': [648, 275]}]",Rate how much you want to eat this food from 0 (least) to 10 (most).,82484.90000000037,1669840045271,yogurt no spoon,1725.5999999996275,True,4.34,84210.5,1725.5999999996275,True,HRV,HRV_0290,2022-11-30 20:27:47
47,"[{'imgObject': {}, 'id': 'corn cob', 'src': '/static/foodstim60/corn cob.jpg', 'key': 'NaN', 'origWidth': 411, 'origHeight': 411, 'width': 411, 'height': 411, 'widthPercent': 0.8, 'rescaleHeight': True, 'trialN': 47, 'loaded': True, 'loadedTime': 2869.5, 'positionName': 'CENTER', 'positionCoords': [648, 274.5]}]",Rate how much you want to eat this food from 0 (least) to 10 (most).,84212.40000000037,1669840046999,corn cob,1414.5999999996275,True,5.9,85627.0,1414.5999999996275,True,HRV,HRV_0290,2022-11-30 20:27:47
48,"[{'imgObject': {}, 'id': 'eggsalad', 'src': '/static/foodstim60/eggsalad.jpg', 'key': 'NaN', 'origWidth': 410, 'origHeight': 409, 'width': 410, 'height': 409, 'widthPercent': 0.8, 'rescaleHeight': True, 'trialN': 48, 'loaded': True, 'loadedTime': 2871.9000000003725, 'positionName': 'CENTER', 'positionCoords': [648.5, 275.5]}]",Rate how much you want to eat this food from 0 (least) to 10 (most).,85628.70000000112,1669840048415,eggsalad,1698.7999999988824,True,5.69,87327.5,1698.7999999988824,True,HRV,HRV_0290,2022-11-30 20:27:47
49,"[{'imgObject': {}, 'id': 'cocktailshrimp', 'src': '/static/foodstim60/cocktailshrimp.jpg', 'key': 'NaN', 'origWidth': 410, 'origHeight': 410, 'width': 410, 'height': 410, 'widthPercent': 0.8, 'rescaleHeight': True, 'trialN': 49, 'loaded': True, 'loadedTime': 2874.5, 'positionName': 'CENTER', 'positionCoords': [648.5, 275]}]",Rate how much you want to eat this food from 0 (least) to 10 (most).,87329.20000000112,1669840050116,cocktailshrimp,1637.0999999996275,True,1.77,88966.30000000075,1637.0999999996275,True,HRV,HRV_0290,2022-11-30 20:27:47
50,"[{'imgObject': {}, 'id': 'ice cream sundae 002', 'src': '/static/foodstim60/ice cream sundae 002.jpg', 'key': 'NaN', 'origWidth': 409, 'origHeight': 409, 'width': 409, 'height': 409, 'widthPercent': 0.8, 'rescaleHeight': True, 'trialN': 50, 'loaded': True, 'loadedTime': 2876.9000000003725, 'positionName': 'CENTER', 'positionCoords': [649, 275.5]}]",Rate how much you want to eat this food from 0 (least) to 10 (most).,88968.0,1669840051754,ice cream sundae 002,1682.300000000745,True,8.35,90650.30000000075,1682.300000000745,True,HRV,HRV_0290,2022-11-30 20:27:47
51,"[{'imgObject': {}, 'id': 'kiwi', 'src': '/static/foodstim60/kiwi.jpg', 'key': 'NaN', 'origWidth': 410, 'origHeight': 410, 'width': 410, 'height': 410, 'widthPercent': 0.8, 'rescaleHeight': True, 'trialN': 51, 'loaded': True, 'loadedTime': 2879.5, 'positionName': 'CENTER', 'positionCoords': [648.5, 275]}]",Rate how much you want to eat this food from 0 (least) to 10 (most).,90651.70000000112,1669840053438,kiwi,1941.699999999255,True,3.5700000000000003,92593.40000000037,1941.699999999255,True,HRV,HRV_0290,2022-11-30 20:27:47
52,"[{'imgObject': {}, 'id': 'mango', 'src': '/static/foodstim60/mango.jpg', 'key': 'NaN', 'origWidth': 411, 'origHeight': 411, 'width': 411, 'height': 411, 'widthPercent': 0.8, 'rescaleHeight': True, 'trialN': 52, 'loaded': True, 'loadedTime': 2881.60000000149, 'positionName': 'CENTER', 'positionCoords': [648, 274.5]}]",Rate how much you want to eat this food from 0 (least) to 10 (most).,92595.10000000149,1669840055382,mango,1454.199999999255,True,2.47,94049.30000000075,1454.199999999255,True,HRV,HRV_0290,2022-11-30 20:27:47
53,"[{'imgObject': {}, 'id': 'sushi w_condiments', 'src': '/static/foodstim60/sushi w_condiments.jpg', 'key': 'NaN', 'origWidth': 410, 'origHeight': 410, 'width': 410, 'height': 410, 'widthPercent': 0.8, 'rescaleHeight': True, 'trialN': 53, 'loaded': True, 'loadedTime': 2889.800000000745, 'positionName': 'CENTER', 'positionCoords': [648.5, 275]}]",Rate how much you want to eat this food from 0 (least) to 10 (most).,94050.60000000149,1669840056837,sushi w_condiments,1435.7999999988824,True,5.0,95486.40000000037,1435.7999999988824,True,HRV,HRV_0290,2022-11-30 20:27:47
54,"[{'imgObject': {}, 'id': 'raspberries', 'src': '/static/foodstim60/raspberries.jpg', 'key': 'NaN', 'origWidth': 411, 'origHeight': 411, 'width': 411, 'height': 411, 'widthPercent': 0.8, 'rescaleHeight': True, 'trialN': 54, 'loaded': True, 'loadedTime': 2891.10000000149, 'positionName': 'CENTER', 'positionCoords': [648, 274.5]}]",Rate how much you want to eat this food from 0 (least) to 10 (most).,95488.20000000112,1669840058275,raspberries,1316.199999999255,True,3.56,96804.40000000037,1316.199999999255,True,HRV,HRV_0290,2022-11-30 20:27:47
55,"[{'imgObject': {}, 'id': 'blueberries', 'src': '/static/foodstim60/blueberries.jpg', 'key': 'NaN', 'origWidth': 411, 'origHeight': 411, 'width': 411, 'height': 411, 'widthPercent': 0.8, 'rescaleHeight': True, 'trialN': 55, 'loaded': True, 'loadedTime': 2892.5, 'positionName': 'CENTER', 'positionCoords': [648, 274.5]}]",Rate how much you want to eat this food from 0 (least) to 10 (most).,96805.80000000075,1669840059592,blueberries,1107.4000000003725,True,2.7,97913.20000000112,1107.4000000003725,True,HRV,HRV_0290,2022-11-30 20:27:47
56,"[{'imgObject': {}, 'id': 'avocado', 'src': '/static/foodstim60/avocado.jpg', 'key': 'NaN', 'origWidth': 409, 'origHeight': 409, 'width': 409, 'height': 409, 'widthPercent': 0.8, 'rescaleHeight': True, 'trialN': 56, 'loaded': True, 'loadedTime': 2894.10000000149, 'positionName': 'CENTER', 'positionCoords': [649, 275.5]}]",Rate how much you want to eat this food from 0 (least) to 10 (most).,97914.80000000075,1669840060701,avocado,1273.4000000003725,True,2.94,99188.20000000112,1273.4000000003725,True,HRV,HRV_0290,2022-11-30 20:27:47
57,"[{'imgObject': {}, 'id': 'cherries', 'src': '/static/foodstim60/cherries.jpg', 'key': 'NaN', 'origWidth': 410, 'origHeight': 411, 'width': 410, 'height': 411, 'widthPercent': 0.8, 'rescaleHeight': True, 'trialN': 57, 'loaded': True, 'loadedTime': 2914.800000000745, 'positionName': 'CENTER', 'positionCoords': [648.5, 274.5]}]",Rate how much you want to eat this food from 0 (least) to 10 (most).,99190.10000000149,1669840061977,cherries,1391.0,True,2.14,100581.10000000149,1391.0,True,HRV,HRV_0290,2022-11-30 20:27:47
58,"[{'imgObject': {}, 'id': 'baked potato', 'src': '/static/foodstim60/baked potato.jpg', 'key': 'NaN', 'origWidth': 409, 'origHeight': 410, 'width': 409, 'height': 410, 'widthPercent': 0.8, 'rescaleHeight': True, 'trialN': 58, 'loaded': True, 'loadedTime': 2916.800000000745, 'positionName': 'CENTER', 'positionCoords': [649, 275]}]",Rate how much you want to eat this food from 0 (least) to 10 (most).,100583.10000000149,1669840063370,baked potato,2101.0,True,6.0,102684.10000000149,2101.0,True,HRV,HRV_0290,2022-11-30 20:27:47
59,"[{'imgObject': {}, 'id': 'hashbrowns', 'src': '/static/foodstim60/hashbrowns.jpg', 'key': 'NaN', 'origWidth': 411, 'origHeight': 410, 'width': 411, 'height': 410, 'widthPercent': 0.8, 'rescaleHeight': True, 'trialN': 59, 'loaded': True, 'loadedTime': 2918.4000000003725, 'positionName': 'CENTER', 'positionCoords': [648, 275]}]",Rate how much you want to eat this food from 0 (least) to 10 (most).,102686.20000000112,1669840065473,hashbrowns,1963.0999999996275,True,4.11,104649.30000000075,1963.0999999996275,True,HRV,HRV_0290,2022-11-30 20:27:47
