trialN,stimuli,trialStartTime,trialStartTime_UNIX,stimulus1,stimulus2,stimulus1Bid,stimulus2Bid,delta,selected,rt,rt_UNIX,rt_perfnow,receivedResponse,rsp,trialEndTime,trialDuration,trialEndTime_UNIX,trialDuration_UNIX,exp,subjectId,date
0,"[{'imgObject': {}, 'id': 'hashbrowns', 'src': '/static/foodstim60/hashbrowns.jpg', 'key': 'u', 'origWidth': 411, 'origHeight': 410, 'width': 411, 'height': 410, 'widthPercent': 0.45, 'rescaleHeight': False, 'trialN': 0, 'loaded': True, 'loadedTime': 3220.4000000003725, 'positionName': 'LEFT', 'positionCoords': [408.36, 275], 'bid': 4.11}, {'imgObject': {}, 'id': 'popsicles', 'src': '/static/foodstim60/popsicles.jpg', 'key': 'i', 'origWidth': 410, 'origHeight': 410, 'width': 410, 'height': 410, 'widthPercent': 0.45, 'rescaleHeight': False, 'trialN': 0, 'loaded': True, 'loadedTime': 3311.199999999255, 'positionName': 'RIGHT', 'positionCoords': [887.64, 275], 'bid': 4.24}]",4302.699999999255,1669840127671,hashbrowns,popsicles,4.11,4.24,0.1299999999999999,hashbrowns,1070.4000000003725,1071,1071.2000000011176,True,u,5875.0999999996275,1572.4000000003725,1669840129243,1572,HRV,HRV_0290,2022-11-30 20:34:23
1,"[{'imgObject': {}, 'id': 'sweetpotato', 'src': '/static/foodstim60/sweetpotato.jpg', 'key': 'u', 'origWidth': 410, 'origHeight': 410, 'width': 410, 'height': 410, 'widthPercent': 0.45, 'rescaleHeight': False, 'trialN': 1, 'loaded': True, 'loadedTime': 3390.800000000745, 'positionName': 'LEFT', 'positionCoords': [409.36, 275], 'bid': 0.62}, {'imgObject': {}, 'id': 'apple slices', 'src': '/static/foodstim60/apple slices.jpg', 'key': 'i', 'origWidth': 409, 'origHeight': 410, 'width': 409, 'height': 410, 'widthPercent': 0.45, 'rescaleHeight': False, 'trialN': 1, 'loaded': True, 'loadedTime': 3428.199999999255, 'positionName': 'RIGHT', 'positionCoords': [887.64, 275], 'bid': 1.54}]",5875.5,1669840129244,sweetpotato,apple slices,0.62,1.54,0.92,apple slices,1187.5,1188,1187.800000000745,True,i,7570.300000000745,1694.800000000745,1669840130939,1695,HRV,HRV_0290,2022-11-30 20:34:23
2,"[{'imgObject': {}, 'id': 'lox', 'src': '/static/foodstim60/lox.jpg', 'key': 'u', 'origWidth': 410, 'origHeight': 411, 'width': 410, 'height': 411, 'widthPercent': 0.45, 'rescaleHeight': False, 'trialN': 2, 'loaded': True, 'loadedTime': 3458.300000000745, 'positionName': 'LEFT', 'positionCoords': [409.36, 274.5], 'bid': 2.89}, {'imgObject': {}, 'id': 'banana', 'src': '/static/foodstim60/banana.jpg', 'key': 'i', 'origWidth': 410, 'origHeight': 410, 'width': 410, 'height': 410, 'widthPercent': 0.45, 'rescaleHeight': False, 'trialN': 2, 'loaded': True, 'loadedTime': 3530.5, 'positionName': 'RIGHT', 'positionCoords': [887.64, 275], 'bid': 2.85}]",7570.5999999996275,1669840130939,lox,banana,2.89,2.85,-0.040000000000000036,banana,1084.5,1085,1085.0,True,i,9162.699999999255,1592.0999999996275,1669840132531,1592,HRV,HRV_0290,2022-11-30 20:34:23
3,"[{'imgObject': {}, 'id': 'salad w chicken', 'src': '/static/foodstim60/salad w chicken.jpg', 'key': 'u', 'origWidth': 411, 'origHeight': 411, 'width': 411, 'height': 411, 'widthPercent': 0.45, 'rescaleHeight': False, 'trialN': 3, 'loaded': True, 'loadedTime': 3585, 'positionName': 'LEFT', 'positionCoords': [408.36, 274.5], 'bid': 9.09}, {'imgObject': {}, 'id': 'tacos', 'src': '/static/foodstim60/tacos.jpg', 'key': 'i', 'origWidth': 411, 'origHeight': 411, 'width': 411, 'height': 411, 'widthPercent': 0.45, 'rescaleHeight': False, 'trialN': 3, 'loaded': True, 'loadedTime': 3643.199999999255, 'positionName': 'RIGHT', 'positionCoords': [887.64, 274.5], 'bid': 9.42}]",9162.800000000745,1669840132531,salad w chicken,tacos,9.09,9.42,0.33000000000000007,salad w chicken,1062.0999999996275,1063,1062.5999999996275,True,u,10731.199999999255,1568.3999999985099,1669840134099,1568,HRV,HRV_0290,2022-11-30 20:34:23
4,"[{'imgObject': {}, 'id': 'blueberries', 'src': '/static/foodstim60/blueberries.jpg', 'key': 'u', 'origWidth': 411, 'origHeight': 411, 'width': 411, 'height': 411, 'widthPercent': 0.45, 'rescaleHeight': False, 'trialN': 4, 'loaded': True, 'loadedTime': 3644.5, 'positionName': 'LEFT', 'positionCoords': [408.36, 274.5], 'bid': 2.7}, {'imgObject': {}, 'id': 'eggsalad', 'src': '/static/foodstim60/eggsalad.jpg', 'key': 'i', 'origWidth': 410, 'origHeight': 409, 'width': 410, 'height': 409, 'widthPercent': 0.45, 'rescaleHeight': False, 'trialN': 4, 'loaded': True, 'loadedTime': 3717.699999999255, 'positionName': 'RIGHT', 'positionCoords': [887.64, 275.5], 'bid': 5.69}]",10731.300000000745,1669840134100,blueberries,eggsalad,2.7,5.69,2.99,eggsalad,973.1999999992549,973,973.5,True,i,12211.199999999255,1479.8999999985099,1669840135580,1480,HRV,HRV_0290,2022-11-30 20:34:23
5,"[{'imgObject': {}, 'id': 'apple slices', 'src': '/static/foodstim60/apple slices.jpg', 'key': 'u', 'origWidth': 409, 'origHeight': 410, 'width': 409, 'height': 410, 'widthPercent': 0.45, 'rescaleHeight': False, 'trialN': 5, 'loaded': True, 'loadedTime': 3425.300000000745, 'positionName': 'LEFT', 'positionCoords': [410.36, 275], 'bid': 1.54}, {'imgObject': {}, 'id': 'lox', 'src': '/static/foodstim60/lox.jpg', 'key': 'i', 'origWidth': 410, 'origHeight': 411, 'width': 410, 'height': 411, 'widthPercent': 0.45, 'rescaleHeight': False, 'trialN': 5, 'loaded': True, 'loadedTime': 3491, 'positionName': 'RIGHT', 'positionCoords': [887.64, 274.5], 'bid': 2.89}]",12211.599999999627,1669840135580,apple slices,lox,1.54,2.89,1.35,apple slices,850.2000000011176,862,861.9000000003725,True,u,13578.900000000373,1367.300000000745,1669840136947,1367,HRV,HRV_0290,2022-11-30 20:34:23
6,"[{'imgObject': {}, 'id': 'corn cob', 'src': '/static/foodstim60/corn cob.jpg', 'key': 'u', 'origWidth': 411, 'origHeight': 411, 'width': 411, 'height': 411, 'widthPercent': 0.45, 'rescaleHeight': False, 'trialN': 6, 'loaded': True, 'loadedTime': 3745, 'positionName': 'LEFT', 'positionCoords': [408.36, 274.5], 'bid': 5.9}, {'imgObject': {}, 'id': 'avocado', 'src': '/static/foodstim60/avocado.jpg', 'key': 'i', 'origWidth': 409, 'origHeight': 409, 'width': 409, 'height': 409, 'widthPercent': 0.45, 'rescaleHeight': False, 'trialN': 6, 'loaded': True, 'loadedTime': 3756.699999999255, 'positionName': 'RIGHT', 'positionCoords': [887.64, 275.5], 'bid': 2.94}]",13579.300000000745,1669840136948,corn cob,avocado,5.9,2.94,-2.9600000000000004,corn cob,1111.8999999985099,1113,1113.2999999988824,True,u,15194.699999999255,1615.3999999985099,1669840138563,1615,HRV,HRV_0290,2022-11-30 20:34:23
7,"[{'imgObject': {}, 'id': 'froot loops w milk', 'src': '/static/foodstim60/froot loops w milk.jpg', 'key': 'u', 'origWidth': 410, 'origHeight': 410, 'width': 410, 'height': 410, 'widthPercent': 0.45, 'rescaleHeight': False, 'trialN': 7, 'loaded': True, 'loadedTime': 3785.800000000745, 'positionName': 'LEFT', 'positionCoords': [409.36, 275], 'bid': 7.2}, {'imgObject': {}, 'id': 'orange slices', 'src': '/static/foodstim60/orange slices.jpg', 'key': 'i', 'origWidth': 409, 'origHeight': 410, 'width': 409, 'height': 410, 'widthPercent': 0.45, 'rescaleHeight': False, 'trialN': 7, 'loaded': True, 'loadedTime': 3798.0999999996275, 'positionName': 'RIGHT', 'positionCoords': [887.64, 275], 'bid': 2.49}]",15195.0,1669840138563,froot loops w milk,orange slices,7.2,2.49,-4.71,froot loops w milk,1240.9000000003725,1242,1241.699999999255,True,u,16938.900000000373,1743.9000000003725,1669840140307,1744,HRV,HRV_0290,2022-11-30 20:34:23
8,"[{'imgObject': {}, 'id': 'sweetpotato', 'src': '/static/foodstim60/sweetpotato.jpg', 'key': 'u', 'origWidth': 410, 'origHeight': 410, 'width': 410, 'height': 410, 'widthPercent': 0.45, 'rescaleHeight': False, 'trialN': 8, 'loaded': True, 'loadedTime': 3355.0999999996275, 'positionName': 'LEFT', 'positionCoords': [409.36, 275], 'bid': 0.62}, {'imgObject': {}, 'id': 'Grapes', 'src': '/static/foodstim60/Grapes.jpg', 'key': 'i', 'origWidth': 411, 'origHeight': 411, 'width': 411, 'height': 411, 'widthPercent': 0.45, 'rescaleHeight': False, 'trialN': 8, 'loaded': True, 'loadedTime': 3823.4000000003725, 'positionName': 'RIGHT', 'positionCoords': [887.64, 274.5], 'bid': 3.54}]",16939.400000000373,1669840140308,sweetpotato,Grapes,0.62,3.54,2.92,Grapes,1213.5999999996275,1214,1214.0999999996275,True,i,18658.699999999255,1719.2999999988824,1669840142027,1719,HRV,HRV_0290,2022-11-30 20:34:23
9,"[{'imgObject': {}, 'id': 'blackbeanswithrice', 'src': '/static/foodstim60/blackbeanswithrice.jpg', 'key': 'u', 'origWidth': 410, 'origHeight': 410, 'width': 410, 'height': 410, 'widthPercent': 0.45, 'rescaleHeight': False, 'trialN': 9, 'loaded': True, 'loadedTime': 3844.4000000003725, 'positionName': 'LEFT', 'positionCoords': [409.36, 275], 'bid': 6.01}, {'imgObject': {}, 'id': 'baked potato', 'src': '/static/foodstim60/baked potato.jpg', 'key': 'i', 'origWidth': 409, 'origHeight': 410, 'width': 409, 'height': 410, 'widthPercent': 0.45, 'rescaleHeight': False, 'trialN': 9, 'loaded': True, 'loadedTime': 3861.5999999996275, 'positionName': 'RIGHT', 'positionCoords': [887.64, 275], 'bid': 6}]",18659.0,1669840142027,blackbeanswithrice,baked potato,6.01,6.0,-0.009999999999999787,baked potato,1413.199999999255,1414,1414.0,True,i,20578.800000000745,1919.800000000745,1669840143947,1920,HRV,HRV_0290,2022-11-30 20:34:23
10,"[{'imgObject': {}, 'id': 'shreddedwheatwithmilk', 'src': '/static/foodstim60/shreddedwheatwithmilk.jpg', 'key': 'u', 'origWidth': 410, 'origHeight': 410, 'width': 410, 'height': 410, 'widthPercent': 0.45, 'rescaleHeight': False, 'trialN': 10, 'loaded': True, 'loadedTime': 3893.199999999255, 'positionName': 'LEFT', 'positionCoords': [409.36, 275], 'bid': 6.95}, {'imgObject': {}, 'id': 'omelette', 'src': '/static/foodstim60/omelette.jpg', 'key': 'i', 'origWidth': 410, 'origHeight': 409, 'width': 410, 'height': 409, 'widthPercent': 0.45, 'rescaleHeight': False, 'trialN': 10, 'loaded': True, 'loadedTime': 3925.199999999255, 'positionName': 'RIGHT', 'positionCoords': [887.64, 275.5], 'bid': 5.7700000000000005}]",20579.099999999627,1669840143947,shreddedwheatwithmilk,omelette,6.95,5.7700000000000005,-1.1799999999999997,shreddedwheatwithmilk,1655.2000000011176,1656,1655.5999999996275,True,u,22739.099999999627,2160.0,1669840146107,2160,HRV,HRV_0290,2022-11-30 20:34:23
11,"[{'imgObject': {}, 'id': 'blueberries', 'src': '/static/foodstim60/blueberries.jpg', 'key': 'u', 'origWidth': 411, 'origHeight': 411, 'width': 411, 'height': 411, 'widthPercent': 0.45, 'rescaleHeight': False, 'trialN': 11, 'loaded': True, 'loadedTime': 3669.4000000003725, 'positionName': 'LEFT', 'positionCoords': [408.36, 274.5], 'bid': 2.7}, {'imgObject': {}, 'id': 'orange slices', 'src': '/static/foodstim60/orange slices.jpg', 'key': 'i', 'origWidth': 409, 'origHeight': 410, 'width': 409, 'height': 410, 'widthPercent': 0.45, 'rescaleHeight': False, 'trialN': 11, 'loaded': True, 'loadedTime': 3802, 'positionName': 'RIGHT', 'positionCoords': [887.64, 275], 'bid': 2.49}]",22739.5,1669840146108,blueberries,orange slices,2.7,2.49,-0.20999999999999996,orange slices,1401.199999999255,1401,1401.5,True,i,24642.5,1903.0,1669840148011,1903,HRV,HRV_0290,2022-11-30 20:34:23
12,"[{'imgObject': {}, 'id': 'burger', 'src': '/static/foodstim60/burger.jpg', 'key': 'u', 'origWidth': 409, 'origHeight': 409, 'width': 409, 'height': 409, 'widthPercent': 0.45, 'rescaleHeight': False, 'trialN': 12, 'loaded': True, 'loadedTime': 3949.199999999255, 'positionName': 'LEFT', 'positionCoords': [410.36, 275.5], 'bid': 8.02}, {'imgObject': {}, 'id': 'salmon', 'src': '/static/foodstim60/salmon.jpg', 'key': 'i', 'origWidth': 410, 'origHeight': 409, 'width': 410, 'height': 409, 'widthPercent': 0.45, 'rescaleHeight': False, 'trialN': 12, 'loaded': True, 'loadedTime': 3956.0999999996275, 'positionName': 'RIGHT', 'positionCoords': [887.64, 275.5], 'bid': 2.75}]",24642.699999999255,1669840148011,burger,salmon,8.02,2.75,-5.27,burger,1111.0,1111,1111.4000000003725,True,u,26258.699999999255,1616.0,1669840149627,1616,HRV,HRV_0290,2022-11-30 20:34:23
13,"[{'imgObject': {}, 'id': 'tacos', 'src': '/static/foodstim60/tacos.jpg', 'key': 'u', 'origWidth': 411, 'origHeight': 411, 'width': 411, 'height': 411, 'widthPercent': 0.45, 'rescaleHeight': False, 'trialN': 13, 'loaded': True, 'loadedTime': 3643.9000000003725, 'positionName': 'LEFT', 'positionCoords': [408.36, 274.5], 'bid': 9.42}, {'imgObject': {}, 'id': 'steak', 'src': '/static/foodstim60/steak.jpg', 'key': 'i', 'origWidth': 410, 'origHeight': 410, 'width': 410, 'height': 410, 'widthPercent': 0.45, 'rescaleHeight': False, 'trialN': 13, 'loaded': True, 'loadedTime': 3963.4000000003725, 'positionName': 'RIGHT', 'positionCoords': [887.64, 275], 'bid': 9.48}]",26258.900000000373,1669840149627,tacos,steak,9.42,9.48,0.0600000000000005,tacos,1538.5,1540,1539.5,True,u,28298.900000000373,2040.0,1669840151667,2040,HRV,HRV_0290,2022-11-30 20:34:23
14,"[{'imgObject': {}, 'id': 'sweetpotato', 'src': '/static/foodstim60/sweetpotato.jpg', 'key': 'u', 'origWidth': 410, 'origHeight': 410, 'width': 410, 'height': 410, 'widthPercent': 0.45, 'rescaleHeight': False, 'trialN': 14, 'loaded': True, 'loadedTime': 3389.800000000745, 'positionName': 'LEFT', 'positionCoords': [409.36, 275], 'bid': 0.62}, {'imgObject': {}, 'id': 'cantaloupe', 'src': '/static/foodstim60/cantaloupe.jpg', 'key': 'i', 'origWidth': 409, 'origHeight': 409, 'width': 409, 'height': 409, 'widthPercent': 0.45, 'rescaleHeight': False, 'trialN': 14, 'loaded': True, 'loadedTime': 3965.9000000003725, 'positionName': 'RIGHT', 'positionCoords': [887.64, 275.5], 'bid': 0.62}]",28299.300000000745,1669840151668,sweetpotato,cantaloupe,0.62,0.62,0.0,cantaloupe,1211.5,1212,1212.7999999988824,True,i,30019.199999999255,1719.8999999985099,1669840153388,1720,HRV,HRV_0290,2022-11-30 20:34:23
15,"[{'imgObject': {}, 'id': 'mango', 'src': '/static/foodstim60/mango.jpg', 'key': 'u', 'origWidth': 411, 'origHeight': 411, 'width': 411, 'height': 411, 'widthPercent': 0.45, 'rescaleHeight': False, 'trialN': 15, 'loaded': True, 'loadedTime': 3992.699999999255, 'positionName': 'LEFT', 'positionCoords': [408.36, 274.5], 'bid': 2.47}, {'imgObject': {}, 'id': 'shreddedwheatwithmilk', 'src': '/static/foodstim60/shreddedwheatwithmilk.jpg', 'key': 'i', 'origWidth': 410, 'origHeight': 410, 'width': 410, 'height': 410, 'widthPercent': 0.45, 'rescaleHeight': False, 'trialN': 15, 'loaded': True, 'loadedTime': 3891.199999999255, 'positionName': 'RIGHT', 'positionCoords': [887.64, 275], 'bid': 6.95}]",30019.5,1669840153388,mango,shreddedwheatwithmilk,2.47,6.95,4.48,shreddedwheatwithmilk,1427.0,1427,1427.300000000745,True,i,31954.900000000373,1935.4000000003725,1669840155323,1935,HRV,HRV_0290,2022-11-30 20:34:23
16,"[{'imgObject': {}, 'id': 'bagel plain', 'src': '/static/foodstim60/bagel plain.jpg', 'key': 'u', 'origWidth': 410, 'origHeight': 410, 'width': 410, 'height': 410, 'widthPercent': 0.45, 'rescaleHeight': False, 'trialN': 16, 'loaded': True, 'loadedTime': 3994.5999999996275, 'positionName': 'LEFT', 'positionCoords': [409.36, 275], 'bid': 7.92}, {'imgObject': {}, 'id': 'chickenfingers', 'src': '/static/foodstim60/chickenfingers.jpg', 'key': 'i', 'origWidth': 410, 'origHeight': 410, 'width': 410, 'height': 410, 'widthPercent': 0.45, 'rescaleHeight': False, 'trialN': 16, 'loaded': True, 'loadedTime': 4016.5999999996275, 'positionName': 'RIGHT', 'positionCoords': [887.64, 275], 'bid': 8.96}]",31955.199999999255,1669840155324,bagel plain,chickenfingers,7.92,8.96,1.040000000000001,chickenfingers,1264.1000000014901,1265,1265.0,True,i,33723.0,1767.800000000745,1669840157091,1767,HRV,HRV_0290,2022-11-30 20:34:23
17,"[{'imgObject': {}, 'id': 'raisin bran w milk', 'src': '/static/foodstim60/raisin bran w milk.jpg', 'key': 'u', 'origWidth': 411, 'origHeight': 411, 'width': 411, 'height': 411, 'widthPercent': 0.45, 'rescaleHeight': False, 'trialN': 17, 'loaded': True, 'loadedTime': 4031.800000000745, 'positionName': 'LEFT', 'positionCoords': [408.36, 274.5], 'bid': 6.16}, {'imgObject': {}, 'id': 'omelette', 'src': '/static/foodstim60/omelette.jpg', 'key': 'i', 'origWidth': 410, 'origHeight': 409, 'width': 410, 'height': 409, 'widthPercent': 0.45, 'rescaleHeight': False, 'trialN': 17, 'loaded': True, 'loadedTime': 3925.4000000003725, 'positionName': 'RIGHT', 'positionCoords': [887.64, 275.5], 'bid': 5.7700000000000005}]",33723.5,1669840157092,raisin bran w milk,omelette,6.16,5.7700000000000005,-0.3899999999999997,omelette,1445.800000000745,1446,1446.5,True,i,35674.90000000037,1951.4000000003725,1669840159043,1951,HRV,HRV_0290,2022-11-30 20:34:23
18,"[{'imgObject': {}, 'id': 'ice cream sundae 002', 'src': '/static/foodstim60/ice cream sundae 002.jpg', 'key': 'u', 'origWidth': 409, 'origHeight': 409, 'width': 409, 'height': 409, 'widthPercent': 0.45, 'rescaleHeight': False, 'trialN': 18, 'loaded': True, 'loadedTime': 4057.699999999255, 'positionName': 'LEFT', 'positionCoords': [410.36, 275.5], 'bid': 8.35}, {'imgObject': {}, 'id': 'burger', 'src': '/static/foodstim60/burger.jpg', 'key': 'i', 'origWidth': 409, 'origHeight': 409, 'width': 409, 'height': 409, 'widthPercent': 0.45, 'rescaleHeight': False, 'trialN': 18, 'loaded': True, 'loadedTime': 3945, 'positionName': 'RIGHT', 'positionCoords': [887.64, 275.5], 'bid': 8.02}]",35675.40000000037,1669840159044,ice cream sundae 002,burger,8.35,8.02,-0.33000000000000007,ice cream sundae 002,1474.0,1474,1474.5,True,u,37650.5,1975.0999999996275,1669840161019,1975,HRV,HRV_0290,2022-11-30 20:34:23
19,"[{'imgObject': {}, 'id': 'olives', 'src': '/static/foodstim60/olives.jpg', 'key': 'u', 'origWidth': 410, 'origHeight': 410, 'width': 410, 'height': 410, 'widthPercent': 0.45, 'rescaleHeight': False, 'trialN': 19, 'loaded': True, 'loadedTime': 4085.699999999255, 'positionName': 'LEFT', 'positionCoords': [409.36, 275], 'bid': 5.75}, {'imgObject': {}, 'id': 'salmon', 'src': '/static/foodstim60/salmon.jpg', 'key': 'i', 'origWidth': 410, 'origHeight': 409, 'width': 410, 'height': 409, 'widthPercent': 0.45, 'rescaleHeight': False, 'trialN': 19, 'loaded': True, 'loadedTime': 3957, 'positionName': 'RIGHT', 'positionCoords': [887.64, 275.5], 'bid': 2.75}]",37650.800000000745,1669840161019,olives,salmon,5.75,2.75,-3.0,olives,1434.5,1435,1434.8999999985099,True,u,39586.59999999963,1935.7999999988824,1669840162955,1936,HRV,HRV_0290,2022-11-30 20:34:23
20,"[{'imgObject': {}, 'id': 'banana', 'src': '/static/foodstim60/banana.jpg', 'key': 'u', 'origWidth': 410, 'origHeight': 410, 'width': 410, 'height': 410, 'widthPercent': 0.45, 'rescaleHeight': False, 'trialN': 20, 'loaded': True, 'loadedTime': 3530.800000000745, 'positionName': 'LEFT', 'positionCoords': [409.36, 275], 'bid': 2.85}, {'imgObject': {}, 'id': 'seaweed', 'src': '/static/foodstim60/seaweed.jpg', 'key': 'i', 'origWidth': 410, 'origHeight': 410, 'width': 410, 'height': 410, 'widthPercent': 0.45, 'rescaleHeight': False, 'trialN': 20, 'loaded': True, 'loadedTime': 4090.5999999996275, 'positionName': 'RIGHT', 'positionCoords': [887.64, 275], 'bid': 1.36}]",39587.199999999255,1669840162956,banana,seaweed,2.85,1.36,-1.49,banana,1093.1000000014901,1093,1093.5,True,u,41187.199999999255,1600.0,1669840164556,1600,HRV,HRV_0290,2022-11-30 20:34:23
21,"[{'imgObject': {}, 'id': 'popsicles', 'src': '/static/foodstim60/popsicles.jpg', 'key': 'u', 'origWidth': 410, 'origHeight': 410, 'width': 410, 'height': 410, 'widthPercent': 0.45, 'rescaleHeight': False, 'trialN': 21, 'loaded': True, 'loadedTime': 3310, 'positionName': 'LEFT', 'positionCoords': [409.36, 275], 'bid': 4.24}, {'imgObject': {}, 'id': 'salad w chicken', 'src': '/static/foodstim60/salad w chicken.jpg', 'key': 'i', 'origWidth': 411, 'origHeight': 411, 'width': 411, 'height': 411, 'widthPercent': 0.45, 'rescaleHeight': False, 'trialN': 21, 'loaded': True, 'loadedTime': 3534.699999999255, 'positionName': 'RIGHT', 'positionCoords': [887.64, 274.5], 'bid': 9.09}]",41187.59999999963,1669840164556,popsicles,salad w chicken,4.24,9.09,4.85,salad w chicken,1044.0999999996275,1045,1044.800000000745,True,i,42738.59999999963,1551.0,1669840166107,1551,HRV,HRV_0290,2022-11-30 20:34:23
22,"[{'imgObject': {}, 'id': 'Grapes', 'src': '/static/foodstim60/Grapes.jpg', 'key': 'u', 'origWidth': 411, 'origHeight': 411, 'width': 411, 'height': 411, 'widthPercent': 0.45, 'rescaleHeight': False, 'trialN': 22, 'loaded': True, 'loadedTime': 3838.5999999996275, 'positionName': 'LEFT', 'positionCoords': [408.36, 274.5], 'bid': 3.54}, {'imgObject': {}, 'id': 'raspberries', 'src': '/static/foodstim60/raspberries.jpg', 'key': 'i', 'origWidth': 411, 'origHeight': 411, 'width': 411, 'height': 411, 'widthPercent': 0.45, 'rescaleHeight': False, 'trialN': 22, 'loaded': True, 'loadedTime': 4093.300000000745, 'positionName': 'RIGHT', 'positionCoords': [887.64, 274.5], 'bid': 3.56}]",42739.0,1669840166107,Grapes,raspberries,3.54,3.56,0.020000000000000018,Grapes,1683.9000000003725,1685,1684.4000000003725,True,u,44931.09999999963,2192.0999999996275,1669840168299,2192,HRV,HRV_0290,2022-11-30 20:34:23
23,"[{'imgObject': {}, 'id': 'eggs', 'src': '/static/foodstim60/eggs.jpg', 'key': 'u', 'origWidth': 409, 'origHeight': 409, 'width': 409, 'height': 409, 'widthPercent': 0.45, 'rescaleHeight': False, 'trialN': 23, 'loaded': True, 'loadedTime': 4098.0999999996275, 'positionName': 'LEFT', 'positionCoords': [410.36, 275.5], 'bid': 9.09}, {'imgObject': {}, 'id': 'yogurt no spoon', 'src': '/static/foodstim60/yogurt no spoon.jpg', 'key': 'i', 'origWidth': 411, 'origHeight': 410, 'width': 411, 'height': 410, 'widthPercent': 0.45, 'rescaleHeight': False, 'trialN': 23, 'loaded': True, 'loadedTime': 4100.5999999996275, 'positionName': 'RIGHT', 'positionCoords': [887.64, 275], 'bid': 4.34}]",44931.199999999255,1669840168300,eggs,yogurt no spoon,9.09,4.34,-4.75,eggs,1102.2000000011176,1103,1103.2000000011176,True,u,46538.699999999255,1607.5,1669840169907,1607,HRV,HRV_0290,2022-11-30 20:34:23
24,"[{'imgObject': {}, 'id': 'ice cream sundae 002', 'src': '/static/foodstim60/ice cream sundae 002.jpg', 'key': 'u', 'origWidth': 409, 'origHeight': 409, 'width': 409, 'height': 409, 'widthPercent': 0.45, 'rescaleHeight': False, 'trialN': 24, 'loaded': True, 'loadedTime': 4059.0999999996275, 'positionName': 'LEFT', 'positionCoords': [410.36, 275.5], 'bid': 8.35}, {'imgObject': {}, 'id': 'eggs', 'src': '/static/foodstim60/eggs.jpg', 'key': 'i', 'origWidth': 409, 'origHeight': 409, 'width': 409, 'height': 409, 'widthPercent': 0.45, 'rescaleHeight': False, 'trialN': 24, 'loaded': True, 'loadedTime': 4095.4000000003725, 'positionName': 'RIGHT', 'positionCoords': [887.64, 275.5], 'bid': 9.09}]",46539.199999999255,1669840169908,ice cream sundae 002,eggs,8.35,9.09,0.7400000000000002,eggs,1067.300000000745,1067,1067.7000000011176,True,i,48114.90000000037,1575.7000000011176,1669840171483,1575,HRV,HRV_0290,2022-11-30 20:34:23
25,"[{'imgObject': {}, 'id': 'rigatoni and sauce', 'src': '/static/foodstim60/rigatoni and sauce.jpg', 'key': 'u', 'origWidth': 410, 'origHeight': 411, 'width': 410, 'height': 411, 'widthPercent': 0.45, 'rescaleHeight': False, 'trialN': 25, 'loaded': True, 'loadedTime': 4101.800000000745, 'positionName': 'LEFT', 'positionCoords': [409.36, 274.5], 'bid': 8.94}, {'imgObject': {}, 'id': 'veggieswithdip', 'src': '/static/foodstim60/veggieswithdip.jpg', 'key': 'i', 'origWidth': 409, 'origHeight': 409, 'width': 409, 'height': 409, 'widthPercent': 0.45, 'rescaleHeight': False, 'trialN': 25, 'loaded': True, 'loadedTime': 4133.5, 'positionName': 'RIGHT', 'positionCoords': [887.64, 275.5], 'bid': 8.790000000000001}]",48115.0,1669840171483,rigatoni and sauce,veggieswithdip,8.94,8.790000000000001,-0.14999999999999858,rigatoni and sauce,1257.199999999255,1259,1259.0,True,u,49875.40000000037,1760.4000000003725,1669840173244,1761,HRV,HRV_0290,2022-11-30 20:34:23
26,"[{'imgObject': {}, 'id': 'eggs', 'src': '/static/foodstim60/eggs.jpg', 'key': 'u', 'origWidth': 409, 'origHeight': 409, 'width': 409, 'height': 409, 'widthPercent': 0.45, 'rescaleHeight': False, 'trialN': 26, 'loaded': True, 'loadedTime': 4098.699999999255, 'positionName': 'LEFT', 'positionCoords': [410.36, 275.5], 'bid': 9.09}, {'imgObject': {}, 'id': 'froot loops w milk', 'src': '/static/foodstim60/froot loops w milk.jpg', 'key': 'i', 'origWidth': 410, 'origHeight': 410, 'width': 410, 'height': 410, 'widthPercent': 0.45, 'rescaleHeight': False, 'trialN': 26, 'loaded': True, 'loadedTime': 3785.199999999255, 'positionName': 'RIGHT', 'positionCoords': [887.64, 275], 'bid': 7.2}]",49875.699999999255,1669840173244,eggs,froot loops w milk,9.09,7.2,-1.8899999999999997,eggs,1169.7000000011176,1170,1170.1000000014901,True,u,51546.699999999255,1671.0,1669840174915,1671,HRV,HRV_0290,2022-11-30 20:34:23
27,"[{'imgObject': {}, 'id': 'kiwi', 'src': '/static/foodstim60/kiwi.jpg', 'key': 'u', 'origWidth': 410, 'origHeight': 410, 'width': 410, 'height': 410, 'widthPercent': 0.45, 'rescaleHeight': False, 'trialN': 27, 'loaded': True, 'loadedTime': 4135.699999999255, 'positionName': 'LEFT', 'positionCoords': [409.36, 275], 'bid': 3.5700000000000003}, {'imgObject': {}, 'id': 'Grapes', 'src': '/static/foodstim60/Grapes.jpg', 'key': 'i', 'origWidth': 411, 'origHeight': 411, 'width': 411, 'height': 411, 'widthPercent': 0.45, 'rescaleHeight': False, 'trialN': 27, 'loaded': True, 'loadedTime': 3802.5999999996275, 'positionName': 'RIGHT', 'positionCoords': [887.64, 274.5], 'bid': 3.54}]",51546.800000000745,1669840174915,kiwi,Grapes,3.5700000000000003,3.54,-0.03000000000000025,Grapes,1230.0,1231,1230.699999999255,True,i,53282.59999999963,1735.7999999988824,1669840176651,1736,HRV,HRV_0290,2022-11-30 20:34:23
28,"[{'imgObject': {}, 'id': 'salad w chicken', 'src': '/static/foodstim60/salad w chicken.jpg', 'key': 'u', 'origWidth': 411, 'origHeight': 411, 'width': 411, 'height': 411, 'widthPercent': 0.45, 'rescaleHeight': False, 'trialN': 28, 'loaded': True, 'loadedTime': 3531.199999999255, 'positionName': 'LEFT', 'positionCoords': [408.36, 274.5], 'bid': 9.09}, {'imgObject': {}, 'id': 'grilled chicken strips', 'src': '/static/foodstim60/grilled chicken strips.jpg', 'key': 'i', 'origWidth': 410, 'origHeight': 411, 'width': 410, 'height': 411, 'widthPercent': 0.45, 'rescaleHeight': False, 'trialN': 28, 'loaded': True, 'loadedTime': 4154.699999999255, 'positionName': 'RIGHT', 'positionCoords': [887.64, 274.5], 'bid': 9.13}]",53282.699999999255,1669840176651,salad w chicken,grilled chicken strips,9.09,9.13,0.040000000000000924,salad w chicken,1590.2000000011176,1591,1590.5,True,u,55378.40000000037,2095.7000000011176,1669840178747,2096,HRV,HRV_0290,2022-11-30 20:34:23
29,"[{'imgObject': {}, 'id': 'roastedpotatoes', 'src': '/static/foodstim60/roastedpotatoes.jpg', 'key': 'u', 'origWidth': 409, 'origHeight': 410, 'width': 409, 'height': 410, 'widthPercent': 0.45, 'rescaleHeight': False, 'trialN': 29, 'loaded': True, 'loadedTime': 4157, 'positionName': 'LEFT', 'positionCoords': [410.36, 275], 'bid': 9.21}, {'imgObject': {}, 'id': 'burrito', 'src': '/static/foodstim60/burrito.jpg', 'key': 'i', 'origWidth': 410, 'origHeight': 410, 'width': 410, 'height': 410, 'widthPercent': 0.45, 'rescaleHeight': False, 'trialN': 29, 'loaded': True, 'loadedTime': 4179.199999999255, 'positionName': 'RIGHT', 'positionCoords': [887.64, 275], 'bid': 9.42}]",55378.699999999255,1669840178747,roastedpotatoes,burrito,9.21,9.42,0.20999999999999908,burrito,1475.5,1477,1476.5,True,i,57362.90000000037,1984.2000000011176,1669840180731,1984,HRV,HRV_0290,2022-11-30 20:34:23
30,"[{'imgObject': {}, 'id': 'rigatoni', 'src': '/static/foodstim60/rigatoni.jpg', 'key': 'u', 'origWidth': 411, 'origHeight': 411, 'width': 411, 'height': 411, 'widthPercent': 0.45, 'rescaleHeight': False, 'trialN': 30, 'loaded': True, 'loadedTime': 4186.0999999996275, 'positionName': 'LEFT', 'positionCoords': [408.36, 274.5], 'bid': 8.74}, {'imgObject': {}, 'id': 'mashed potato', 'src': '/static/foodstim60/mashed potato.jpg', 'key': 'i', 'origWidth': 409, 'origHeight': 409, 'width': 409, 'height': 409, 'widthPercent': 0.45, 'rescaleHeight': False, 'trialN': 30, 'loaded': True, 'loadedTime': 4188.300000000745, 'positionName': 'RIGHT', 'positionCoords': [887.64, 275.5], 'bid': 6.0600000000000005}]",57363.09999999963,1669840180731,rigatoni,mashed potato,8.74,6.0600000000000005,-2.6799999999999997,rigatoni,1039.800000000745,1041,1040.5,True,u,58906.90000000037,1543.800000000745,1669840182275,1544,HRV,HRV_0290,2022-11-30 20:34:23
31,"[{'imgObject': {}, 'id': 'cocktailshrimp', 'src': '/static/foodstim60/cocktailshrimp.jpg', 'key': 'u', 'origWidth': 410, 'origHeight': 410, 'width': 410, 'height': 410, 'widthPercent': 0.45, 'rescaleHeight': False, 'trialN': 31, 'loaded': True, 'loadedTime': 4194.699999999255, 'positionName': 'LEFT', 'positionCoords': [409.36, 275], 'bid': 1.77}, {'imgObject': {}, 'id': 'blueberries', 'src': '/static/foodstim60/blueberries.jpg', 'key': 'i', 'origWidth': 411, 'origHeight': 411, 'width': 411, 'height': 411, 'widthPercent': 0.45, 'rescaleHeight': False, 'trialN': 31, 'loaded': True, 'loadedTime': 3670.9000000003725, 'positionName': 'RIGHT', 'positionCoords': [887.64, 274.5], 'bid': 2.7}]",58907.300000000745,1669840182276,cocktailshrimp,blueberries,1.77,2.7,0.9300000000000002,blueberries,1339.5999999996275,1340,1340.0999999996275,True,i,60754.699999999255,1847.3999999985099,1669840184123,1847,HRV,HRV_0290,2022-11-30 20:34:23
32,"[{'imgObject': {}, 'id': 'hashbrowns', 'src': '/static/foodstim60/hashbrowns.jpg', 'key': 'u', 'origWidth': 411, 'origHeight': 410, 'width': 411, 'height': 410, 'widthPercent': 0.45, 'rescaleHeight': False, 'trialN': 32, 'loaded': True, 'loadedTime': 3221.5, 'positionName': 'LEFT', 'positionCoords': [408.36, 275], 'bid': 4.11}, {'imgObject': {}, 'id': 'chickenfingers', 'src': '/static/foodstim60/chickenfingers.jpg', 'key': 'i', 'origWidth': 410, 'origHeight': 410, 'width': 410, 'height': 410, 'widthPercent': 0.45, 'rescaleHeight': False, 'trialN': 32, 'loaded': True, 'loadedTime': 4031.300000000745, 'positionName': 'RIGHT', 'positionCoords': [887.64, 275], 'bid': 8.96}]",60754.90000000037,1669840184123,hashbrowns,chickenfingers,4.11,8.96,4.8500000000000005,chickenfingers,919.0,920,919.4000000003725,True,i,62178.59999999963,1423.699999999255,1669840185547,1424,HRV,HRV_0290,2022-11-30 20:34:23
33,"[{'imgObject': {}, 'id': 'cherry tomato', 'src': '/static/foodstim60/cherry tomato.jpg', 'key': 'u', 'origWidth': 410, 'origHeight': 410, 'width': 410, 'height': 410, 'widthPercent': 0.45, 'rescaleHeight': False, 'trialN': 33, 'loaded': True, 'loadedTime': 4207.5, 'positionName': 'LEFT', 'positionCoords': [409.36, 275], 'bid': 2.22}, {'imgObject': {}, 'id': 'mango', 'src': '/static/foodstim60/mango.jpg', 'key': 'i', 'origWidth': 411, 'origHeight': 411, 'width': 411, 'height': 411, 'widthPercent': 0.45, 'rescaleHeight': False, 'trialN': 33, 'loaded': True, 'loadedTime': 3974.5, 'positionName': 'RIGHT', 'positionCoords': [887.64, 274.5], 'bid': 2.47}]",62178.699999999255,1669840185547,cherry tomato,mango,2.22,2.47,0.25,cherry tomato,1000.1000000014901,1000,1000.5,True,u,63683.09999999963,1504.4000000003725,1669840187051,1504,HRV,HRV_0290,2022-11-30 20:34:23
34,"[{'imgObject': {}, 'id': 'burger', 'src': '/static/foodstim60/burger.jpg', 'key': 'u', 'origWidth': 409, 'origHeight': 409, 'width': 409, 'height': 409, 'widthPercent': 0.45, 'rescaleHeight': False, 'trialN': 34, 'loaded': True, 'loadedTime': 3942.5999999996275, 'positionName': 'LEFT', 'positionCoords': [410.36, 275.5], 'bid': 8.02}, {'imgObject': {}, 'id': 'bagel plain', 'src': '/static/foodstim60/bagel plain.jpg', 'key': 'i', 'origWidth': 410, 'origHeight': 410, 'width': 410, 'height': 410, 'widthPercent': 0.45, 'rescaleHeight': False, 'trialN': 34, 'loaded': True, 'loadedTime': 3993, 'positionName': 'RIGHT', 'positionCoords': [887.64, 275], 'bid': 7.92}]",63683.300000000745,1669840187052,burger,bagel plain,8.02,7.92,-0.09999999999999964,burger,1379.8999999985099,1380,1380.3999999985099,True,u,65570.30000000075,1887.0,1669840188939,1887,HRV,HRV_0290,2022-11-30 20:34:23
35,"[{'imgObject': {}, 'id': 'sweetpotato', 'src': '/static/foodstim60/sweetpotato.jpg', 'key': 'u', 'origWidth': 410, 'origHeight': 410, 'width': 410, 'height': 410, 'widthPercent': 0.45, 'rescaleHeight': False, 'trialN': 35, 'loaded': True, 'loadedTime': 3352, 'positionName': 'LEFT', 'positionCoords': [409.36, 275], 'bid': 0.62}, {'imgObject': {}, 'id': 'salmon', 'src': '/static/foodstim60/salmon.jpg', 'key': 'i', 'origWidth': 410, 'origHeight': 409, 'width': 410, 'height': 409, 'widthPercent': 0.45, 'rescaleHeight': False, 'trialN': 35, 'loaded': True, 'loadedTime': 3958, 'positionName': 'RIGHT', 'positionCoords': [887.64, 275.5], 'bid': 2.75}]",65570.5,1669840188939,sweetpotato,salmon,0.62,2.75,2.13,salmon,942.5999999996275,943,943.1999999992549,True,i,67018.09999999963,1447.5999999996275,1669840190386,1447,HRV,HRV_0290,2022-11-30 20:34:23
36,"[{'imgObject': {}, 'id': 'sweetpotato', 'src': '/static/foodstim60/sweetpotato.jpg', 'key': 'u', 'origWidth': 410, 'origHeight': 410, 'width': 410, 'height': 410, 'widthPercent': 0.45, 'rescaleHeight': False, 'trialN': 36, 'loaded': True, 'loadedTime': 3353.9000000003725, 'positionName': 'LEFT', 'positionCoords': [409.36, 275], 'bid': 0.62}, {'imgObject': {}, 'id': 'mango', 'src': '/static/foodstim60/mango.jpg', 'key': 'i', 'origWidth': 411, 'origHeight': 411, 'width': 411, 'height': 411, 'widthPercent': 0.45, 'rescaleHeight': False, 'trialN': 36, 'loaded': True, 'loadedTime': 3992.300000000745, 'positionName': 'RIGHT', 'positionCoords': [887.64, 274.5], 'bid': 2.47}]",67018.30000000075,1669840190387,sweetpotato,mango,0.62,2.47,1.85,mango,1046.699999999255,1047,1047.8999999985099,True,i,68570.69999999925,1552.3999999985099,1669840191939,1552,HRV,HRV_0290,2022-11-30 20:34:23
37,"[{'imgObject': {}, 'id': 'lox', 'src': '/static/foodstim60/lox.jpg', 'key': 'u', 'origWidth': 410, 'origHeight': 411, 'width': 410, 'height': 411, 'widthPercent': 0.45, 'rescaleHeight': False, 'trialN': 37, 'loaded': True, 'loadedTime': 3457, 'positionName': 'LEFT', 'positionCoords': [409.36, 274.5], 'bid': 2.89}, {'imgObject': {}, 'id': 'hotdog w must', 'src': '/static/foodstim60/hotdog w must.jpg', 'key': 'i', 'origWidth': 409, 'origHeight': 409, 'width': 409, 'height': 409, 'widthPercent': 0.45, 'rescaleHeight': False, 'trialN': 37, 'loaded': True, 'loadedTime': 4208.699999999255, 'positionName': 'RIGHT', 'positionCoords': [887.64, 275.5], 'bid': 3.63}]",68570.90000000037,1669840191939,lox,hotdog w must,2.89,3.63,0.7399999999999998,hotdog w must,1380.9000000003725,1382,1381.4000000003725,True,i,70459.30000000075,1888.4000000003725,1669840193828,1889,HRV,HRV_0290,2022-11-30 20:34:23
38,"[{'imgObject': {}, 'id': 'cheerios', 'src': '/static/foodstim60/cheerios.jpg', 'key': 'u', 'origWidth': 409, 'origHeight': 410, 'width': 409, 'height': 410, 'widthPercent': 0.45, 'rescaleHeight': False, 'trialN': 38, 'loaded': True, 'loadedTime': 4232.5, 'positionName': 'LEFT', 'positionCoords': [410.36, 275], 'bid': 6.69}, {'imgObject': {}, 'id': 'chickenfingers', 'src': '/static/foodstim60/chickenfingers.jpg', 'key': 'i', 'origWidth': 410, 'origHeight': 410, 'width': 410, 'height': 410, 'widthPercent': 0.45, 'rescaleHeight': False, 'trialN': 38, 'loaded': True, 'loadedTime': 4011.800000000745, 'positionName': 'RIGHT', 'positionCoords': [887.64, 275], 'bid': 8.96}]",70459.59999999963,1669840193828,cheerios,chickenfingers,6.69,8.96,2.2700000000000005,chickenfingers,1055.4000000003725,1056,1056.0999999996275,True,i,72019.40000000037,1559.800000000745,1669840195388,1560,HRV,HRV_0290,2022-11-30 20:34:23
39,"[{'imgObject': {}, 'id': 'roastedpotatoes', 'src': '/static/foodstim60/roastedpotatoes.jpg', 'key': 'u', 'origWidth': 409, 'origHeight': 410, 'width': 409, 'height': 410, 'widthPercent': 0.45, 'rescaleHeight': False, 'trialN': 39, 'loaded': True, 'loadedTime': 4173, 'positionName': 'LEFT', 'positionCoords': [410.36, 275], 'bid': 9.21}, {'imgObject': {}, 'id': 'turkey sandwich', 'src': '/static/foodstim60/turkey sandwich.jpg', 'key': 'i', 'origWidth': 409, 'origHeight': 409, 'width': 409, 'height': 409, 'widthPercent': 0.45, 'rescaleHeight': False, 'trialN': 39, 'loaded': True, 'loadedTime': 4232.699999999255, 'positionName': 'RIGHT', 'positionCoords': [887.64, 275.5], 'bid': 8.61}]",72019.5,1669840195388,roastedpotatoes,turkey sandwich,9.21,8.61,-0.6000000000000014,roastedpotatoes,1487.5,1488,1488.0,True,u,74011.30000000075,1991.800000000745,1669840197380,1992,HRV,HRV_0290,2022-11-30 20:34:23
40,"[{'imgObject': {}, 'id': 'cantaloupe', 'src': '/static/foodstim60/cantaloupe.jpg', 'key': 'u', 'origWidth': 409, 'origHeight': 409, 'width': 409, 'height': 409, 'widthPercent': 0.45, 'rescaleHeight': False, 'trialN': 40, 'loaded': True, 'loadedTime': 3972.5999999996275, 'positionName': 'LEFT', 'positionCoords': [410.36, 275.5], 'bid': 0.62}, {'imgObject': {}, 'id': 'cherry tomato', 'src': '/static/foodstim60/cherry tomato.jpg', 'key': 'i', 'origWidth': 410, 'origHeight': 410, 'width': 410, 'height': 410, 'widthPercent': 0.45, 'rescaleHeight': False, 'trialN': 40, 'loaded': True, 'loadedTime': 4208, 'positionName': 'RIGHT', 'positionCoords': [887.64, 275], 'bid': 2.22}]",74011.59999999963,1669840197380,cantaloupe,cherry tomato,0.62,2.22,1.6,cherry tomato,1467.0999999996275,1468,1468.4000000003725,True,i,75987.40000000037,1975.800000000745,1669840199356,1976,HRV,HRV_0290,2022-11-30 20:34:23
41,"[{'imgObject': {}, 'id': 'fruitsalad', 'src': '/static/foodstim60/fruitsalad.jpg', 'key': 'u', 'origWidth': 410, 'origHeight': 410, 'width': 410, 'height': 410, 'widthPercent': 0.45, 'rescaleHeight': False, 'trialN': 41, 'loaded': True, 'loadedTime': 4234.5, 'positionName': 'LEFT', 'positionCoords': [409.36, 275], 'bid': 4.19}, {'imgObject': {}, 'id': 'cherry tomato', 'src': '/static/foodstim60/cherry tomato.jpg', 'key': 'i', 'origWidth': 410, 'origHeight': 410, 'width': 410, 'height': 410, 'widthPercent': 0.45, 'rescaleHeight': False, 'trialN': 41, 'loaded': True, 'loadedTime': 4201.300000000745, 'positionName': 'RIGHT', 'positionCoords': [887.64, 275], 'bid': 2.22}]",75987.69999999925,1669840199356,fruitsalad,cherry tomato,4.19,2.22,-1.9700000000000002,fruitsalad,1220.9000000003725,1221,1221.300000000745,True,u,77714.5,1726.800000000745,1669840201083,1727,HRV,HRV_0290,2022-11-30 20:34:23
42,"[{'imgObject': {}, 'id': 'fried eggs', 'src': '/static/foodstim60/fried eggs.jpg', 'key': 'u', 'origWidth': 410, 'origHeight': 410, 'width': 410, 'height': 410, 'widthPercent': 0.45, 'rescaleHeight': False, 'trialN': 42, 'loaded': True, 'loadedTime': 4262.300000000745, 'positionName': 'LEFT', 'positionCoords': [409.36, 275], 'bid': 6.63}, {'imgObject': {}, 'id': 'cheerios', 'src': '/static/foodstim60/cheerios.jpg', 'key': 'i', 'origWidth': 409, 'origHeight': 410, 'width': 409, 'height': 410, 'widthPercent': 0.45, 'rescaleHeight': False, 'trialN': 42, 'loaded': True, 'loadedTime': 4213.699999999255, 'positionName': 'RIGHT', 'positionCoords': [887.64, 275], 'bid': 6.69}]",77714.59999999963,1669840201083,fried eggs,cheerios,6.63,6.69,0.0600000000000005,fried eggs,1543.9000000003725,1544,1544.4000000003725,True,u,79762.5,2047.9000000003725,1669840203131,2048,HRV,HRV_0290,2022-11-30 20:34:23
43,"[{'imgObject': {}, 'id': 'rigatoni and sauce', 'src': '/static/foodstim60/rigatoni and sauce.jpg', 'key': 'u', 'origWidth': 410, 'origHeight': 411, 'width': 410, 'height': 411, 'widthPercent': 0.45, 'rescaleHeight': False, 'trialN': 43, 'loaded': True, 'loadedTime': 4109.0999999996275, 'positionName': 'LEFT', 'positionCoords': [409.36, 274.5], 'bid': 8.94}, {'imgObject': {}, 'id': 'fried eggs', 'src': '/static/foodstim60/fried eggs.jpg', 'key': 'i', 'origWidth': 410, 'origHeight': 410, 'width': 410, 'height': 410, 'widthPercent': 0.45, 'rescaleHeight': False, 'trialN': 43, 'loaded': True, 'loadedTime': 4237.300000000745, 'positionName': 'RIGHT', 'positionCoords': [887.64, 275], 'bid': 6.63}]",79762.69999999925,1669840203131,rigatoni and sauce,fried eggs,8.94,6.63,-2.3099999999999996,rigatoni and sauce,1142.5,1143,1143.0,True,u,81411.0,1648.300000000745,1669840204779,1648,HRV,HRV_0290,2022-11-30 20:34:23
44,"[{'imgObject': {}, 'id': 'rigatoni', 'src': '/static/foodstim60/rigatoni.jpg', 'key': 'u', 'origWidth': 411, 'origHeight': 411, 'width': 411, 'height': 411, 'widthPercent': 0.45, 'rescaleHeight': False, 'trialN': 44, 'loaded': True, 'loadedTime': 4181.9000000003725, 'positionName': 'LEFT', 'positionCoords': [408.36, 274.5], 'bid': 8.74}, {'imgObject': {}, 'id': 'bagel and cc', 'src': '/static/foodstim60/bagel and cc.jpg', 'key': 'i', 'origWidth': 410, 'origHeight': 410, 'width': 410, 'height': 410, 'widthPercent': 0.45, 'rescaleHeight': False, 'trialN': 44, 'loaded': True, 'loadedTime': 4272.300000000745, 'positionName': 'RIGHT', 'positionCoords': [887.64, 275], 'bid': 8.6}]",81411.19999999925,1669840204779,rigatoni,bagel and cc,8.74,8.6,-0.14000000000000057,rigatoni,1344.1000000014901,1345,1344.7000000011176,True,u,83259.19999999925,1848.0,1669840206628,1849,HRV,HRV_0290,2022-11-30 20:34:23
45,"[{'imgObject': {}, 'id': 'omelette', 'src': '/static/foodstim60/omelette.jpg', 'key': 'u', 'origWidth': 410, 'origHeight': 409, 'width': 410, 'height': 409, 'widthPercent': 0.45, 'rescaleHeight': False, 'trialN': 45, 'loaded': True, 'loadedTime': 3923.5999999996275, 'positionName': 'LEFT', 'positionCoords': [409.36, 275.5], 'bid': 5.7700000000000005}, {'imgObject': {}, 'id': 'eggsalad', 'src': '/static/foodstim60/eggsalad.jpg', 'key': 'i', 'origWidth': 410, 'origHeight': 409, 'width': 410, 'height': 409, 'widthPercent': 0.45, 'rescaleHeight': False, 'trialN': 45, 'loaded': True, 'loadedTime': 3680.800000000745, 'positionName': 'RIGHT', 'positionCoords': [887.64, 275.5], 'bid': 5.69}]",83259.59999999963,1669840206628,omelette,eggsalad,5.7700000000000005,5.69,-0.08000000000000007,omelette,1495.2000000011176,1496,1495.7000000011176,True,u,85258.90000000037,1999.300000000745,1669840208627,1999,HRV,HRV_0290,2022-11-30 20:34:23
46,"[{'imgObject': {}, 'id': 'hotdog w must', 'src': '/static/foodstim60/hotdog w must.jpg', 'key': 'u', 'origWidth': 409, 'origHeight': 409, 'width': 409, 'height': 409, 'widthPercent': 0.45, 'rescaleHeight': False, 'trialN': 46, 'loaded': True, 'loadedTime': 4211.699999999255, 'positionName': 'LEFT', 'positionCoords': [410.36, 275.5], 'bid': 3.63}, {'imgObject': {}, 'id': 'kiwi', 'src': '/static/foodstim60/kiwi.jpg', 'key': 'i', 'origWidth': 410, 'origHeight': 410, 'width': 410, 'height': 410, 'widthPercent': 0.45, 'rescaleHeight': False, 'trialN': 46, 'loaded': True, 'loadedTime': 4134.9000000003725, 'positionName': 'RIGHT', 'positionCoords': [887.64, 275], 'bid': 3.5700000000000003}]",85259.0,1669840208627,hotdog w must,kiwi,3.63,3.5700000000000003,-0.05999999999999961,hotdog w must,1245.0,1246,1246.0,True,u,87010.5,1751.5,1669840210379,1752,HRV,HRV_0290,2022-11-30 20:34:23
47,"[{'imgObject': {}, 'id': 'sushi w_condiments', 'src': '/static/foodstim60/sushi w_condiments.jpg', 'key': 'u', 'origWidth': 410, 'origHeight': 410, 'width': 410, 'height': 410, 'widthPercent': 0.45, 'rescaleHeight': False, 'trialN': 47, 'loaded': True, 'loadedTime': 4278.199999999255, 'positionName': 'LEFT', 'positionCoords': [409.36, 275], 'bid': 5}, {'imgObject': {}, 'id': 'eggsalad', 'src': '/static/foodstim60/eggsalad.jpg', 'key': 'i', 'origWidth': 410, 'origHeight': 409, 'width': 410, 'height': 409, 'widthPercent': 0.45, 'rescaleHeight': False, 'trialN': 47, 'loaded': True, 'loadedTime': 3717.199999999255, 'positionName': 'RIGHT', 'positionCoords': [887.64, 275.5], 'bid': 5.69}]",87011.0,1669840210379,sushi w_condiments,eggsalad,5.0,5.69,0.6900000000000004,eggsalad,2247.5,2248,2247.9000000003725,True,i,89763.0,2752.0,1669840213131,2752,HRV,HRV_0290,2022-11-30 20:34:23
48,"[{'imgObject': {}, 'id': 'seaweed', 'src': '/static/foodstim60/seaweed.jpg', 'key': 'u', 'origWidth': 410, 'origHeight': 410, 'width': 410, 'height': 410, 'widthPercent': 0.45, 'rescaleHeight': False, 'trialN': 48, 'loaded': True, 'loadedTime': 4086, 'positionName': 'LEFT', 'positionCoords': [409.36, 275], 'bid': 1.36}, {'imgObject': {}, 'id': 'apple slices', 'src': '/static/foodstim60/apple slices.jpg', 'key': 'i', 'origWidth': 409, 'origHeight': 410, 'width': 409, 'height': 410, 'widthPercent': 0.45, 'rescaleHeight': False, 'trialN': 48, 'loaded': True, 'loadedTime': 3393.5, 'positionName': 'RIGHT', 'positionCoords': [887.64, 275], 'bid': 1.54}]",89763.69999999925,1669840213132,seaweed,apple slices,1.36,1.54,0.17999999999999994,apple slices,961.7000000011176,962,962.1000000014901,True,i,91226.90000000037,1463.2000000011176,1669840214595,1463,HRV,HRV_0290,2022-11-30 20:34:23
49,"[{'imgObject': {}, 'id': 'mashed potato', 'src': '/static/foodstim60/mashed potato.jpg', 'key': 'u', 'origWidth': 409, 'origHeight': 409, 'width': 409, 'height': 409, 'widthPercent': 0.45, 'rescaleHeight': False, 'trialN': 49, 'loaded': True, 'loadedTime': 4186.9000000003725, 'positionName': 'LEFT', 'positionCoords': [410.36, 275.5], 'bid': 6.0600000000000005}, {'imgObject': {}, 'id': 'raisin bran w milk', 'src': '/static/foodstim60/raisin bran w milk.jpg', 'key': 'i', 'origWidth': 411, 'origHeight': 411, 'width': 411, 'height': 411, 'widthPercent': 0.45, 'rescaleHeight': False, 'trialN': 49, 'loaded': True, 'loadedTime': 4033.300000000745, 'positionName': 'RIGHT', 'positionCoords': [887.64, 274.5], 'bid': 6.16}]",91227.09999999963,1669840214595,mashed potato,raisin bran w milk,6.0600000000000005,6.16,0.09999999999999964,raisin bran w milk,1782.4000000003725,1783,1782.800000000745,True,i,93515.69999999925,2288.5999999996275,1669840216884,2289,HRV,HRV_0290,2022-11-30 20:34:23
50,"[{'imgObject': {}, 'id': 'hotdog w must', 'src': '/static/foodstim60/hotdog w must.jpg', 'key': 'u', 'origWidth': 409, 'origHeight': 409, 'width': 409, 'height': 409, 'widthPercent': 0.45, 'rescaleHeight': False, 'trialN': 50, 'loaded': True, 'loadedTime': 4211.800000000745, 'positionName': 'LEFT', 'positionCoords': [410.36, 275.5], 'bid': 3.63}, {'imgObject': {}, 'id': 'pear', 'src': '/static/foodstim60/pear.jpg', 'key': 'i', 'origWidth': 411, 'origHeight': 410, 'width': 411, 'height': 410, 'widthPercent': 0.45, 'rescaleHeight': False, 'trialN': 50, 'loaded': True, 'loadedTime': 4280.4000000003725, 'positionName': 'RIGHT', 'positionCoords': [887.64, 275], 'bid': 2.5500000000000003}]",93515.80000000075,1669840216884,hotdog w must,pear,3.63,2.5500000000000003,-1.0799999999999996,hotdog w must,1450.8999999985099,1451,1451.199999999255,True,u,95474.80000000075,1959.0,1669840218843,1959,HRV,HRV_0290,2022-11-30 20:34:23
51,"[{'imgObject': {}, 'id': 'baked potato', 'src': '/static/foodstim60/baked potato.jpg', 'key': 'u', 'origWidth': 409, 'origHeight': 410, 'width': 409, 'height': 410, 'widthPercent': 0.45, 'rescaleHeight': False, 'trialN': 51, 'loaded': True, 'loadedTime': 3863.199999999255, 'positionName': 'LEFT', 'positionCoords': [410.36, 275], 'bid': 6}, {'imgObject': {}, 'id': 'edamame', 'src': '/static/foodstim60/edamame.jpg', 'key': 'i', 'origWidth': 409, 'origHeight': 410, 'width': 409, 'height': 410, 'widthPercent': 0.45, 'rescaleHeight': False, 'trialN': 51, 'loaded': True, 'loadedTime': 4280.699999999255, 'positionName': 'RIGHT', 'positionCoords': [887.64, 275], 'bid': 5.88}]",95475.59999999963,1669840218844,baked potato,edamame,6.0,5.88,-0.1200000000000001,baked potato,1207.0,1207,1207.5,True,u,97186.19999999925,1710.5999999996275,1669840220554,1710,HRV,HRV_0290,2022-11-30 20:34:23
52,"[{'imgObject': {}, 'id': 'lox', 'src': '/static/foodstim60/lox.jpg', 'key': 'u', 'origWidth': 410, 'origHeight': 411, 'width': 410, 'height': 411, 'widthPercent': 0.45, 'rescaleHeight': False, 'trialN': 52, 'loaded': True, 'loadedTime': 3458.0999999996275, 'positionName': 'LEFT', 'positionCoords': [409.36, 274.5], 'bid': 2.89}, {'imgObject': {}, 'id': 'strawberries', 'src': '/static/foodstim60/strawberries.jpg', 'key': 'i', 'origWidth': 410, 'origHeight': 410, 'width': 410, 'height': 410, 'widthPercent': 0.45, 'rescaleHeight': False, 'trialN': 52, 'loaded': True, 'loadedTime': 4282.5, 'positionName': 'RIGHT', 'positionCoords': [887.64, 275], 'bid': 3.34}]",97186.30000000075,1669840220555,lox,strawberries,2.89,3.34,0.44999999999999973,strawberries,1310.7999999988824,1311,1311.199999999255,True,i,99003.30000000075,1817.0,1669840222372,1817,HRV,HRV_0290,2022-11-30 20:34:23
53,"[{'imgObject': {}, 'id': 'bagel and cc', 'src': '/static/foodstim60/bagel and cc.jpg', 'key': 'u', 'origWidth': 410, 'origHeight': 410, 'width': 410, 'height': 410, 'widthPercent': 0.45, 'rescaleHeight': False, 'trialN': 53, 'loaded': True, 'loadedTime': 4273.199999999255, 'positionName': 'LEFT', 'positionCoords': [409.36, 275], 'bid': 8.6}, {'imgObject': {}, 'id': 'strawberries', 'src': '/static/foodstim60/strawberries.jpg', 'key': 'i', 'origWidth': 410, 'origHeight': 410, 'width': 410, 'height': 410, 'widthPercent': 0.45, 'rescaleHeight': False, 'trialN': 53, 'loaded': True, 'loadedTime': 4283.699999999255, 'positionName': 'RIGHT', 'positionCoords': [887.64, 275], 'bid': 3.34}]",99003.69999999925,1669840222372,bagel and cc,strawberries,8.6,3.34,-5.26,bagel and cc,1044.5,1045,1044.9000000003725,True,u,100554.5,1550.800000000745,1669840223923,1551,HRV,HRV_0290,2022-11-30 20:34:23
54,"[{'imgObject': {}, 'id': 'mac & cheese', 'src': '/static/foodstim60/mac & cheese.jpg', 'key': 'u', 'origWidth': 410, 'origHeight': 410, 'width': 410, 'height': 410, 'widthPercent': 0.45, 'rescaleHeight': False, 'trialN': 54, 'loaded': True, 'loadedTime': 4286.300000000745, 'positionName': 'LEFT', 'positionCoords': [409.36, 275], 'bid': 9.14}, {'imgObject': {}, 'id': 'eggsalad', 'src': '/static/foodstim60/eggsalad.jpg', 'key': 'i', 'origWidth': 410, 'origHeight': 409, 'width': 410, 'height': 409, 'widthPercent': 0.45, 'rescaleHeight': False, 'trialN': 54, 'loaded': True, 'loadedTime': 3683.0999999996275, 'positionName': 'RIGHT', 'positionCoords': [887.64, 275.5], 'bid': 5.69}]",100554.59999999963,1669840223923,mac & cheese,eggsalad,9.14,5.69,-3.45,mac & cheese,1051.5,1052,1051.9000000003725,True,u,102114.59999999963,1560.0,1669840225483,1560,HRV,HRV_0290,2022-11-30 20:34:23
55,"[{'imgObject': {}, 'id': 'banana', 'src': '/static/foodstim60/banana.jpg', 'key': 'u', 'origWidth': 410, 'origHeight': 410, 'width': 410, 'height': 410, 'widthPercent': 0.45, 'rescaleHeight': False, 'trialN': 55, 'loaded': True, 'loadedTime': 3503.699999999255, 'positionName': 'LEFT', 'positionCoords': [409.36, 275], 'bid': 2.85}, {'imgObject': {}, 'id': 'omelette', 'src': '/static/foodstim60/omelette.jpg', 'key': 'i', 'origWidth': 410, 'origHeight': 409, 'width': 410, 'height': 409, 'widthPercent': 0.45, 'rescaleHeight': False, 'trialN': 55, 'loaded': True, 'loadedTime': 3925.5999999996275, 'positionName': 'RIGHT', 'positionCoords': [887.64, 275.5], 'bid': 5.7700000000000005}]",102114.80000000075,1669840225483,banana,omelette,2.85,5.7700000000000005,2.9200000000000004,omelette,1459.3999999985099,1460,1459.8999999985099,True,i,104083.80000000075,1969.0,1669840227452,1969,HRV,HRV_0290,2022-11-30 20:34:23
56,"[{'imgObject': {}, 'id': 'veggieswithdip', 'src': '/static/foodstim60/veggieswithdip.jpg', 'key': 'u', 'origWidth': 409, 'origHeight': 409, 'width': 409, 'height': 409, 'widthPercent': 0.45, 'rescaleHeight': False, 'trialN': 56, 'loaded': True, 'loadedTime': 4133.0999999996275, 'positionName': 'LEFT', 'positionCoords': [410.36, 275.5], 'bid': 8.790000000000001}, {'imgObject': {}, 'id': 'kiwi', 'src': '/static/foodstim60/kiwi.jpg', 'key': 'i', 'origWidth': 410, 'origHeight': 410, 'width': 410, 'height': 410, 'widthPercent': 0.45, 'rescaleHeight': False, 'trialN': 56, 'loaded': True, 'loadedTime': 4135.4000000003725, 'positionName': 'RIGHT', 'positionCoords': [887.64, 275], 'bid': 3.5700000000000003}]",104084.0,1669840227452,veggieswithdip,kiwi,8.790000000000001,3.5700000000000003,-5.220000000000001,veggieswithdip,1056.699999999255,1058,1057.5,True,u,105642.69999999925,1558.699999999255,1669840229011,1559,HRV,HRV_0290,2022-11-30 20:34:23
57,"[{'imgObject': {}, 'id': 'cocktailshrimp', 'src': '/static/foodstim60/cocktailshrimp.jpg', 'key': 'u', 'origWidth': 410, 'origHeight': 410, 'width': 410, 'height': 410, 'widthPercent': 0.45, 'rescaleHeight': False, 'trialN': 57, 'loaded': True, 'loadedTime': 4198.0999999996275, 'positionName': 'LEFT', 'positionCoords': [409.36, 275], 'bid': 1.77}, {'imgObject': {}, 'id': 'cherry tomato', 'src': '/static/foodstim60/cherry tomato.jpg', 'key': 'i', 'origWidth': 410, 'origHeight': 410, 'width': 410, 'height': 410, 'widthPercent': 0.45, 'rescaleHeight': False, 'trialN': 57, 'loaded': True, 'loadedTime': 4201.300000000745, 'positionName': 'RIGHT', 'positionCoords': [887.64, 275], 'bid': 2.22}]",105643.0,1669840229011,cocktailshrimp,cherry tomato,1.77,2.22,0.4500000000000002,cherry tomato,1063.5,1064,1063.9000000003725,True,i,107210.59999999963,1567.5999999996275,1669840230579,1568,HRV,HRV_0290,2022-11-30 20:34:23
58,"[{'imgObject': {}, 'id': 'Tribe humus pita', 'src': '/static/foodstim60/Tribe humus pita.jpg', 'key': 'u', 'origWidth': 411, 'origHeight': 411, 'width': 411, 'height': 411, 'widthPercent': 0.45, 'rescaleHeight': False, 'trialN': 58, 'loaded': True, 'loadedTime': 4286.800000000745, 'positionName': 'LEFT', 'positionCoords': [408.36, 274.5], 'bid': 8.32}, {'imgObject': {}, 'id': 'banana', 'src': '/static/foodstim60/banana.jpg', 'key': 'i', 'origWidth': 410, 'origHeight': 410, 'width': 410, 'height': 410, 'widthPercent': 0.45, 'rescaleHeight': False, 'trialN': 58, 'loaded': True, 'loadedTime': 3496.5, 'positionName': 'RIGHT', 'positionCoords': [887.64, 275], 'bid': 2.85}]",107210.80000000075,1669840230579,Tribe humus pita,banana,8.32,2.85,-5.470000000000001,Tribe humus pita,1252.2999999988824,1253,1252.8999999985099,True,u,108971.5,1760.699999999255,1669840232340,1761,HRV,HRV_0290,2022-11-30 20:34:23
59,"[{'imgObject': {}, 'id': 'froot loops w milk', 'src': '/static/foodstim60/froot loops w milk.jpg', 'key': 'u', 'origWidth': 410, 'origHeight': 410, 'width': 410, 'height': 410, 'widthPercent': 0.45, 'rescaleHeight': False, 'trialN': 59, 'loaded': True, 'loadedTime': 3763.4000000003725, 'positionName': 'LEFT', 'positionCoords': [409.36, 275], 'bid': 7.2}, {'imgObject': {}, 'id': 'turkeysandwich', 'src': '/static/foodstim60/turkeysandwich.jpg', 'key': 'i', 'origWidth': 409, 'origHeight': 409, 'width': 409, 'height': 409, 'widthPercent': 0.45, 'rescaleHeight': False, 'trialN': 59, 'loaded': True, 'loadedTime': 4289.5999999996275, 'positionName': 'RIGHT', 'positionCoords': [887.64, 275.5], 'bid': 8.4}]",108971.69999999925,1669840232340,froot loops w milk,turkeysandwich,7.2,8.4,1.2000000000000002,turkeysandwich,1080.800000000745,1082,1081.6000000014901,True,i,110554.80000000075,1583.1000000014901,1669840233923,1583,HRV,HRV_0290,2022-11-30 20:34:23
60,"[{'imgObject': {}, 'id': 'steak', 'src': '/static/foodstim60/steak.jpg', 'key': 'u', 'origWidth': 410, 'origHeight': 410, 'width': 410, 'height': 410, 'widthPercent': 0.45, 'rescaleHeight': False, 'trialN': 60, 'loaded': True, 'loadedTime': 3962.5999999996275, 'positionName': 'LEFT', 'positionCoords': [409.36, 275], 'bid': 9.48}, {'imgObject': {}, 'id': 'rigatoni and sauce', 'src': '/static/foodstim60/rigatoni and sauce.jpg', 'key': 'i', 'origWidth': 410, 'origHeight': 411, 'width': 410, 'height': 411, 'widthPercent': 0.45, 'rescaleHeight': False, 'trialN': 60, 'loaded': True, 'loadedTime': 4100.699999999255, 'positionName': 'RIGHT', 'positionCoords': [887.64, 274.5], 'bid': 8.94}]",110555.19999999925,1669840233923,steak,rigatoni and sauce,9.48,8.94,-0.5400000000000009,steak,1584.6000000014901,1586,1585.1000000014901,True,u,112642.5,2087.300000000745,1669840236011,2088,HRV,HRV_0290,2022-11-30 20:34:23
61,"[{'imgObject': {}, 'id': 'seaweed', 'src': '/static/foodstim60/seaweed.jpg', 'key': 'u', 'origWidth': 410, 'origHeight': 410, 'width': 410, 'height': 410, 'widthPercent': 0.45, 'rescaleHeight': False, 'trialN': 61, 'loaded': True, 'loadedTime': 4090.300000000745, 'positionName': 'LEFT', 'positionCoords': [409.36, 275], 'bid': 1.36}, {'imgObject': {}, 'id': 'orange slices', 'src': '/static/foodstim60/orange slices.jpg', 'key': 'i', 'origWidth': 409, 'origHeight': 410, 'width': 409, 'height': 410, 'widthPercent': 0.45, 'rescaleHeight': False, 'trialN': 61, 'loaded': True, 'loadedTime': 3794.9000000003725, 'positionName': 'RIGHT', 'positionCoords': [887.64, 275], 'bid': 2.49}]",112642.69999999925,1669840236011,seaweed,orange slices,1.36,2.49,1.1300000000000001,orange slices,1285.5,1286,1286.2000000011176,True,i,114434.59999999963,1791.9000000003725,1669840237803,1792,HRV,HRV_0290,2022-11-30 20:34:23
62,"[{'imgObject': {}, 'id': 'mac & cheese', 'src': '/static/foodstim60/mac & cheese.jpg', 'key': 'u', 'origWidth': 410, 'origHeight': 410, 'width': 410, 'height': 410, 'widthPercent': 0.45, 'rescaleHeight': False, 'trialN': 62, 'loaded': True, 'loadedTime': 4286.4000000003725, 'positionName': 'LEFT', 'positionCoords': [409.36, 275], 'bid': 9.14}, {'imgObject': {}, 'id': 'eggs', 'src': '/static/foodstim60/eggs.jpg', 'key': 'i', 'origWidth': 409, 'origHeight': 409, 'width': 409, 'height': 409, 'widthPercent': 0.45, 'rescaleHeight': False, 'trialN': 62, 'loaded': True, 'loadedTime': 4097.199999999255, 'positionName': 'RIGHT', 'positionCoords': [887.64, 275.5], 'bid': 9.09}]",114434.80000000075,1669840237803,mac & cheese,eggs,9.14,9.09,-0.05000000000000071,eggs,1374.199999999255,1375,1374.7999999988824,True,i,116315.09999999963,1880.2999999988824,1669840239683,1880,HRV,HRV_0290,2022-11-30 20:34:23
63,"[{'imgObject': {}, 'id': 'strawberries', 'src': '/static/foodstim60/strawberries.jpg', 'key': 'u', 'origWidth': 410, 'origHeight': 410, 'width': 410, 'height': 410, 'widthPercent': 0.45, 'rescaleHeight': False, 'trialN': 63, 'loaded': True, 'loadedTime': 4284, 'positionName': 'LEFT', 'positionCoords': [409.36, 275], 'bid': 3.34}, {'imgObject': {}, 'id': 'cherries', 'src': '/static/foodstim60/cherries.jpg', 'key': 'i', 'origWidth': 410, 'origHeight': 411, 'width': 410, 'height': 411, 'widthPercent': 0.45, 'rescaleHeight': False, 'trialN': 63, 'loaded': True, 'loadedTime': 4291.5, 'positionName': 'RIGHT', 'positionCoords': [887.64, 274.5], 'bid': 2.14}]",116315.40000000037,1669840239684,strawberries,cherries,3.34,2.14,-1.1999999999999997,strawberries,1117.9000000003725,1118,1118.2999999988824,True,u,117939.19999999925,1623.7999999988824,1669840241307,1623,HRV,HRV_0290,2022-11-30 20:34:23
64,"[{'imgObject': {}, 'id': 'grilled chicken strips', 'src': '/static/foodstim60/grilled chicken strips.jpg', 'key': 'u', 'origWidth': 410, 'origHeight': 411, 'width': 410, 'height': 411, 'widthPercent': 0.45, 'rescaleHeight': False, 'trialN': 64, 'loaded': True, 'loadedTime': 4153.9000000003725, 'positionName': 'LEFT', 'positionCoords': [409.36, 274.5], 'bid': 9.13}, {'imgObject': {}, 'id': 'veggieswithdip', 'src': '/static/foodstim60/veggieswithdip.jpg', 'key': 'i', 'origWidth': 409, 'origHeight': 409, 'width': 409, 'height': 409, 'widthPercent': 0.45, 'rescaleHeight': False, 'trialN': 64, 'loaded': True, 'loadedTime': 4133.300000000745, 'positionName': 'RIGHT', 'positionCoords': [887.64, 275.5], 'bid': 8.790000000000001}]",117939.40000000037,1669840241308,grilled chicken strips,veggieswithdip,9.13,8.790000000000001,-0.33999999999999986,grilled chicken strips,1433.2999999988824,1434,1433.9000000003725,True,u,119875.40000000037,1936.0,1669840243244,1936,HRV,HRV_0290,2022-11-30 20:34:23
65,"[{'imgObject': {}, 'id': 'chicken nuggets2', 'src': '/static/foodstim60/chicken nuggets2.jpg', 'key': 'u', 'origWidth': 410, 'origHeight': 409, 'width': 410, 'height': 409, 'widthPercent': 0.45, 'rescaleHeight': False, 'trialN': 65, 'loaded': True, 'loadedTime': 4292.9000000003725, 'positionName': 'LEFT', 'positionCoords': [409.36, 275.5], 'bid': 9.03}, {'imgObject': {}, 'id': 'granola w milk', 'src': '/static/foodstim60/granola w milk.jpg', 'key': 'i', 'origWidth': 410, 'origHeight': 410, 'width': 410, 'height': 410, 'widthPercent': 0.45, 'rescaleHeight': False, 'trialN': 65, 'loaded': True, 'loadedTime': 4293.5, 'positionName': 'RIGHT', 'positionCoords': [887.64, 275], 'bid': 6.7700000000000005}]",119875.5,1669840243244,chicken nuggets2,granola w milk,9.03,6.7700000000000005,-2.259999999999999,chicken nuggets2,1096.0,1097,1096.699999999255,True,u,121475.09999999963,1599.5999999996275,1669840244844,1600,HRV,HRV_0290,2022-11-30 20:34:23
66,"[{'imgObject': {}, 'id': 'kiwi', 'src': '/static/foodstim60/kiwi.jpg', 'key': 'u', 'origWidth': 410, 'origHeight': 410, 'width': 410, 'height': 410, 'widthPercent': 0.45, 'rescaleHeight': False, 'trialN': 66, 'loaded': True, 'loadedTime': 4135.5, 'positionName': 'LEFT', 'positionCoords': [409.36, 275], 'bid': 3.5700000000000003}, {'imgObject': {}, 'id': 'apple slices', 'src': '/static/foodstim60/apple slices.jpg', 'key': 'i', 'origWidth': 409, 'origHeight': 410, 'width': 409, 'height': 410, 'widthPercent': 0.45, 'rescaleHeight': False, 'trialN': 66, 'loaded': True, 'loadedTime': 3392.199999999255, 'positionName': 'RIGHT', 'positionCoords': [887.64, 275], 'bid': 1.54}]",121475.40000000037,1669840244844,kiwi,apple slices,3.5700000000000003,1.54,-2.0300000000000002,apple slices,1289.5,1290,1290.0,True,i,123267.09999999963,1791.699999999255,1669840246636,1792,HRV,HRV_0290,2022-11-30 20:34:23
67,"[{'imgObject': {}, 'id': 'blueberries', 'src': '/static/foodstim60/blueberries.jpg', 'key': 'u', 'origWidth': 411, 'origHeight': 411, 'width': 411, 'height': 411, 'widthPercent': 0.45, 'rescaleHeight': False, 'trialN': 67, 'loaded': True, 'loadedTime': 3680, 'positionName': 'LEFT', 'positionCoords': [408.36, 274.5], 'bid': 2.7}, {'imgObject': {}, 'id': 'bagel plain', 'src': '/static/foodstim60/bagel plain.jpg', 'key': 'i', 'origWidth': 410, 'origHeight': 410, 'width': 410, 'height': 410, 'widthPercent': 0.45, 'rescaleHeight': False, 'trialN': 67, 'loaded': True, 'loadedTime': 3994.800000000745, 'positionName': 'RIGHT', 'positionCoords': [887.64, 275], 'bid': 7.92}]",123267.5,1669840246636,blueberries,bagel plain,2.7,7.92,5.22,bagel plain,1211.5999999996275,1213,1212.5,True,i,124986.90000000037,1719.4000000003725,1669840248356,1720,HRV,HRV_0290,2022-11-30 20:34:23
68,"[{'imgObject': {}, 'id': 'grilled chicken strips', 'src': '/static/foodstim60/grilled chicken strips.jpg', 'key': 'u', 'origWidth': 410, 'origHeight': 411, 'width': 410, 'height': 411, 'widthPercent': 0.45, 'rescaleHeight': False, 'trialN': 68, 'loaded': True, 'loadedTime': 4154.300000000745, 'positionName': 'LEFT', 'positionCoords': [409.36, 274.5], 'bid': 9.13}, {'imgObject': {}, 'id': 'mac & cheese', 'src': '/static/foodstim60/mac & cheese.jpg', 'key': 'i', 'origWidth': 410, 'origHeight': 410, 'width': 410, 'height': 410, 'widthPercent': 0.45, 'rescaleHeight': False, 'trialN': 68, 'loaded': True, 'loadedTime': 4286.199999999255, 'positionName': 'RIGHT', 'positionCoords': [887.64, 275], 'bid': 9.14}]",124987.40000000037,1669840248356,grilled chicken strips,mac & cheese,9.13,9.14,0.009999999999999787,mac & cheese,1042.699999999255,1043,1043.2999999988824,True,i,126538.80000000075,1551.4000000003725,1669840249907,1551,HRV,HRV_0290,2022-11-30 20:34:23
69,"[{'imgObject': {}, 'id': 'salad w chicken', 'src': '/static/foodstim60/salad w chicken.jpg', 'key': 'u', 'origWidth': 411, 'origHeight': 411, 'width': 411, 'height': 411, 'widthPercent': 0.45, 'rescaleHeight': False, 'trialN': 69, 'loaded': True, 'loadedTime': 3534.9000000003725, 'positionName': 'LEFT', 'positionCoords': [408.36, 274.5], 'bid': 9.09}, {'imgObject': {}, 'id': 'eggs', 'src': '/static/foodstim60/eggs.jpg', 'key': 'i', 'origWidth': 409, 'origHeight': 409, 'width': 409, 'height': 409, 'widthPercent': 0.45, 'rescaleHeight': False, 'trialN': 69, 'loaded': True, 'loadedTime': 4098.5, 'positionName': 'RIGHT', 'positionCoords': [887.64, 275.5], 'bid': 9.09}]",126539.0,1669840249908,salad w chicken,eggs,9.09,9.09,0.0,eggs,1006.4000000003725,1007,1007.0,True,i,128050.59999999963,1511.5999999996275,1669840251419,1511,HRV,HRV_0290,2022-11-30 20:34:23
70,"[{'imgObject': {}, 'id': 'cherry tomato', 'src': '/static/foodstim60/cherry tomato.jpg', 'key': 'u', 'origWidth': 410, 'origHeight': 410, 'width': 410, 'height': 410, 'widthPercent': 0.45, 'rescaleHeight': False, 'trialN': 70, 'loaded': True, 'loadedTime': 4206, 'positionName': 'LEFT', 'positionCoords': [409.36, 275], 'bid': 2.22}, {'imgObject': {}, 'id': 'granola w milk', 'src': '/static/foodstim60/granola w milk.jpg', 'key': 'i', 'origWidth': 410, 'origHeight': 410, 'width': 410, 'height': 410, 'widthPercent': 0.45, 'rescaleHeight': False, 'trialN': 70, 'loaded': True, 'loadedTime': 4294.5999999996275, 'positionName': 'RIGHT', 'positionCoords': [887.64, 275], 'bid': 6.7700000000000005}]",128050.90000000037,1669840251419,cherry tomato,granola w milk,2.22,6.7700000000000005,4.550000000000001,granola w milk,2084.0999999996275,2085,2084.7999999988824,True,i,130642.5,2591.5999999996275,1669840254011,2592,HRV,HRV_0290,2022-11-30 20:34:23
71,"[{'imgObject': {}, 'id': 'raisin bran w milk', 'src': '/static/foodstim60/raisin bran w milk.jpg', 'key': 'u', 'origWidth': 411, 'origHeight': 411, 'width': 411, 'height': 411, 'widthPercent': 0.45, 'rescaleHeight': False, 'trialN': 71, 'loaded': True, 'loadedTime': 4033.0999999996275, 'positionName': 'LEFT', 'positionCoords': [408.36, 274.5], 'bid': 6.16}, {'imgObject': {}, 'id': 'apple slices', 'src': '/static/foodstim60/apple slices.jpg', 'key': 'i', 'origWidth': 409, 'origHeight': 410, 'width': 409, 'height': 410, 'widthPercent': 0.45, 'rescaleHeight': False, 'trialN': 71, 'loaded': True, 'loadedTime': 3428.699999999255, 'positionName': 'RIGHT', 'positionCoords': [887.64, 275], 'bid': 1.54}]",130642.59999999963,1669840254011,raisin bran w milk,apple slices,6.16,1.54,-4.62,raisin bran w milk,1075.0999999996275,1076,1075.5,True,u,132219.40000000037,1576.800000000745,1669840255588,1577,HRV,HRV_0290,2022-11-30 20:34:23
72,"[{'imgObject': {}, 'id': 'ice cream sundae 002', 'src': '/static/foodstim60/ice cream sundae 002.jpg', 'key': 'u', 'origWidth': 409, 'origHeight': 409, 'width': 409, 'height': 409, 'widthPercent': 0.45, 'rescaleHeight': False, 'trialN': 72, 'loaded': True, 'loadedTime': 4059.5, 'positionName': 'LEFT', 'positionCoords': [410.36, 275.5], 'bid': 8.35}, {'imgObject': {}, 'id': 'tacos', 'src': '/static/foodstim60/tacos.jpg', 'key': 'i', 'origWidth': 411, 'origHeight': 411, 'width': 411, 'height': 411, 'widthPercent': 0.45, 'rescaleHeight': False, 'trialN': 72, 'loaded': True, 'loadedTime': 3588.699999999255, 'positionName': 'RIGHT', 'positionCoords': [887.64, 274.5], 'bid': 9.42}]",132219.69999999925,1669840255588,ice cream sundae 002,tacos,8.35,9.42,1.0700000000000003,tacos,977.1000000014901,978,977.7000000011176,True,i,133698.80000000075,1479.1000000014901,1669840257067,1479,HRV,HRV_0290,2022-11-30 20:34:23
73,"[{'imgObject': {}, 'id': 'popsicles', 'src': '/static/foodstim60/popsicles.jpg', 'key': 'u', 'origWidth': 410, 'origHeight': 410, 'width': 410, 'height': 410, 'widthPercent': 0.45, 'rescaleHeight': False, 'trialN': 73, 'loaded': True, 'loadedTime': 3314.699999999255, 'positionName': 'LEFT', 'positionCoords': [409.36, 275], 'bid': 4.24}, {'imgObject': {}, 'id': 'yogurt no spoon', 'src': '/static/foodstim60/yogurt no spoon.jpg', 'key': 'i', 'origWidth': 411, 'origHeight': 410, 'width': 411, 'height': 410, 'widthPercent': 0.45, 'rescaleHeight': False, 'trialN': 73, 'loaded': True, 'loadedTime': 4100.4000000003725, 'positionName': 'RIGHT', 'positionCoords': [887.64, 275], 'bid': 4.34}]",133699.0,1669840257068,popsicles,yogurt no spoon,4.24,4.34,0.09999999999999964,yogurt no spoon,1448.5999999996275,1449,1449.0,True,i,135651.0,1952.0,1669840259020,1952,HRV,HRV_0290,2022-11-30 20:34:23
74,"[{'imgObject': {}, 'id': 'corn cob', 'src': '/static/foodstim60/corn cob.jpg', 'key': 'u', 'origWidth': 411, 'origHeight': 411, 'width': 411, 'height': 411, 'widthPercent': 0.45, 'rescaleHeight': False, 'trialN': 74, 'loaded': True, 'loadedTime': 3720.4000000003725, 'positionName': 'LEFT', 'positionCoords': [408.36, 274.5], 'bid': 5.9}, {'imgObject': {}, 'id': 'blackbeanswithrice', 'src': '/static/foodstim60/blackbeanswithrice.jpg', 'key': 'i', 'origWidth': 410, 'origHeight': 410, 'width': 410, 'height': 410, 'widthPercent': 0.45, 'rescaleHeight': False, 'trialN': 74, 'loaded': True, 'loadedTime': 3860.800000000745, 'positionName': 'RIGHT', 'positionCoords': [887.64, 275], 'bid': 6.01}]",135651.19999999925,1669840259020,corn cob,blackbeanswithrice,5.9,6.01,0.10999999999999943,blackbeanswithrice,1381.300000000745,1382,1381.800000000745,True,i,137538.40000000037,1887.2000000011176,1669840260907,1887,HRV,HRV_0290,2022-11-30 20:34:23
75,"[{'imgObject': {}, 'id': 'shreddedwheatwithmilk', 'src': '/static/foodstim60/shreddedwheatwithmilk.jpg', 'key': 'u', 'origWidth': 410, 'origHeight': 410, 'width': 410, 'height': 410, 'widthPercent': 0.45, 'rescaleHeight': False, 'trialN': 75, 'loaded': True, 'loadedTime': 3910.9000000003725, 'positionName': 'LEFT', 'positionCoords': [409.36, 275], 'bid': 6.95}, {'imgObject': {}, 'id': 'salad w chicken', 'src': '/static/foodstim60/salad w chicken.jpg', 'key': 'i', 'origWidth': 411, 'origHeight': 411, 'width': 411, 'height': 411, 'widthPercent': 0.45, 'rescaleHeight': False, 'trialN': 75, 'loaded': True, 'loadedTime': 3534.300000000745, 'positionName': 'RIGHT', 'positionCoords': [887.64, 274.5], 'bid': 9.09}]",137538.5,1669840260907,shreddedwheatwithmilk,salad w chicken,6.95,9.09,2.1399999999999997,salad w chicken,1123.800000000745,1124,1124.199999999255,True,i,139170.80000000075,1632.300000000745,1669840262539,1632,HRV,HRV_0290,2022-11-30 20:34:23
76,"[{'imgObject': {}, 'id': 'granola w milk', 'src': '/static/foodstim60/granola w milk.jpg', 'key': 'u', 'origWidth': 410, 'origHeight': 410, 'width': 410, 'height': 410, 'widthPercent': 0.45, 'rescaleHeight': False, 'trialN': 76, 'loaded': True, 'loadedTime': 4294.5999999996275, 'positionName': 'LEFT', 'positionCoords': [409.36, 275], 'bid': 6.7700000000000005}, {'imgObject': {}, 'id': 'froot loops w milk', 'src': '/static/foodstim60/froot loops w milk.jpg', 'key': 'i', 'origWidth': 410, 'origHeight': 410, 'width': 410, 'height': 410, 'widthPercent': 0.45, 'rescaleHeight': False, 'trialN': 76, 'loaded': True, 'loadedTime': 3770.4000000003725, 'positionName': 'RIGHT', 'positionCoords': [887.64, 275], 'bid': 7.2}]",139171.0,1669840262540,granola w milk,froot loops w milk,6.7700000000000005,7.2,0.4299999999999997,froot loops w milk,1169.300000000745,1169,1169.800000000745,True,i,140843.30000000075,1672.300000000745,1669840264212,1672,HRV,HRV_0290,2022-11-30 20:34:23
77,"[{'imgObject': {}, 'id': 'grilled chicken strips', 'src': '/static/foodstim60/grilled chicken strips.jpg', 'key': 'u', 'origWidth': 410, 'origHeight': 411, 'width': 410, 'height': 411, 'widthPercent': 0.45, 'rescaleHeight': False, 'trialN': 77, 'loaded': True, 'loadedTime': 4135.699999999255, 'positionName': 'LEFT', 'positionCoords': [409.36, 274.5], 'bid': 9.13}, {'imgObject': {}, 'id': 'turkeysandwich', 'src': '/static/foodstim60/turkeysandwich.jpg', 'key': 'i', 'origWidth': 409, 'origHeight': 409, 'width': 409, 'height': 409, 'widthPercent': 0.45, 'rescaleHeight': False, 'trialN': 77, 'loaded': True, 'loadedTime': 4289.699999999255, 'positionName': 'RIGHT', 'positionCoords': [887.64, 275.5], 'bid': 8.4}]",140843.5,1669840264212,grilled chicken strips,turkeysandwich,9.13,8.4,-0.7300000000000004,grilled chicken strips,1413.9000000003725,1414,1414.300000000745,True,u,142762.69999999925,1919.199999999255,1669840266131,1919,HRV,HRV_0290,2022-11-30 20:34:23
78,"[{'imgObject': {}, 'id': 'turkey sandwich', 'src': '/static/foodstim60/turkey sandwich.jpg', 'key': 'u', 'origWidth': 409, 'origHeight': 409, 'width': 409, 'height': 409, 'widthPercent': 0.45, 'rescaleHeight': False, 'trialN': 78, 'loaded': True, 'loadedTime': 4234, 'positionName': 'LEFT', 'positionCoords': [410.36, 275.5], 'bid': 8.61}, {'imgObject': {}, 'id': 'blackbeanswithrice', 'src': '/static/foodstim60/blackbeanswithrice.jpg', 'key': 'i', 'origWidth': 410, 'origHeight': 410, 'width': 410, 'height': 410, 'widthPercent': 0.45, 'rescaleHeight': False, 'trialN': 78, 'loaded': True, 'loadedTime': 3844.800000000745, 'positionName': 'RIGHT', 'positionCoords': [887.64, 275], 'bid': 6.01}]",142763.0,1669840266132,turkey sandwich,blackbeanswithrice,8.61,6.01,-2.5999999999999996,turkey sandwich,1288.5,1288,1288.9000000003725,True,u,144554.40000000037,1791.4000000003725,1669840267923,1791,HRV,HRV_0290,2022-11-30 20:34:23
79,"[{'imgObject': {}, 'id': 'olives', 'src': '/static/foodstim60/olives.jpg', 'key': 'u', 'origWidth': 410, 'origHeight': 410, 'width': 410, 'height': 410, 'widthPercent': 0.45, 'rescaleHeight': False, 'trialN': 79, 'loaded': True, 'loadedTime': 4059.9000000003725, 'positionName': 'LEFT', 'positionCoords': [409.36, 275], 'bid': 5.75}, {'imgObject': {}, 'id': 'roastedpotatoes', 'src': '/static/foodstim60/roastedpotatoes.jpg', 'key': 'i', 'origWidth': 409, 'origHeight': 410, 'width': 409, 'height': 410, 'widthPercent': 0.45, 'rescaleHeight': False, 'trialN': 79, 'loaded': True, 'loadedTime': 4155.0999999996275, 'positionName': 'RIGHT', 'positionCoords': [887.64, 275], 'bid': 9.21}]",144554.5,1669840267923,olives,roastedpotatoes,5.75,9.21,3.460000000000001,roastedpotatoes,1242.9000000003725,1243,1243.4000000003725,True,i,146299.59999999963,1745.0999999996275,1669840269668,1745,HRV,HRV_0290,2022-11-30 20:34:23
80,"[{'imgObject': {}, 'id': 'omelette', 'src': '/static/foodstim60/omelette.jpg', 'key': 'u', 'origWidth': 410, 'origHeight': 409, 'width': 410, 'height': 409, 'widthPercent': 0.45, 'rescaleHeight': False, 'trialN': 80, 'loaded': True, 'loadedTime': 3924.9000000003725, 'positionName': 'LEFT', 'positionCoords': [409.36, 275.5], 'bid': 5.7700000000000005}, {'imgObject': {}, 'id': 'olives', 'src': '/static/foodstim60/olives.jpg', 'key': 'i', 'origWidth': 410, 'origHeight': 410, 'width': 410, 'height': 410, 'widthPercent': 0.45, 'rescaleHeight': False, 'trialN': 80, 'loaded': True, 'loadedTime': 4061, 'positionName': 'RIGHT', 'positionCoords': [887.64, 275], 'bid': 5.75}]",146299.90000000037,1669840269669,omelette,olives,5.7700000000000005,5.75,-0.020000000000000462,omelette,906.4000000003725,906,906.9000000003725,True,u,147714.59999999963,1414.699999999255,1669840271083,1414,HRV,HRV_0290,2022-11-30 20:34:23
81,"[{'imgObject': {}, 'id': 'ice cream sundae 002', 'src': '/static/foodstim60/ice cream sundae 002.jpg', 'key': 'u', 'origWidth': 409, 'origHeight': 409, 'width': 409, 'height': 409, 'widthPercent': 0.45, 'rescaleHeight': False, 'trialN': 81, 'loaded': True, 'loadedTime': 4059.699999999255, 'positionName': 'LEFT', 'positionCoords': [410.36, 275.5], 'bid': 8.35}, {'imgObject': {}, 'id': 'lox', 'src': '/static/foodstim60/lox.jpg', 'key': 'i', 'origWidth': 410, 'origHeight': 411, 'width': 410, 'height': 411, 'widthPercent': 0.45, 'rescaleHeight': False, 'trialN': 81, 'loaded': True, 'loadedTime': 3458.5, 'positionName': 'RIGHT', 'positionCoords': [887.64, 274.5], 'bid': 2.89}]",147714.80000000075,1669840271083,ice cream sundae 002,lox,8.35,2.89,-5.459999999999999,ice cream sundae 002,1351.0,1352,1351.5,True,u,149570.80000000075,1856.0,1669840272939,1856,HRV,HRV_0290,2022-11-30 20:34:23
82,"[{'imgObject': {}, 'id': 'olives', 'src': '/static/foodstim60/olives.jpg', 'key': 'u', 'origWidth': 410, 'origHeight': 410, 'width': 410, 'height': 410, 'widthPercent': 0.45, 'rescaleHeight': False, 'trialN': 82, 'loaded': True, 'loadedTime': 4083.5, 'positionName': 'LEFT', 'positionCoords': [409.36, 275], 'bid': 5.75}, {'imgObject': {}, 'id': 'granola w milk', 'src': '/static/foodstim60/granola w milk.jpg', 'key': 'i', 'origWidth': 410, 'origHeight': 410, 'width': 410, 'height': 410, 'widthPercent': 0.45, 'rescaleHeight': False, 'trialN': 82, 'loaded': True, 'loadedTime': 4294.5, 'positionName': 'RIGHT', 'positionCoords': [887.64, 275], 'bid': 6.7700000000000005}]",149571.0,1669840272940,olives,granola w milk,5.75,6.7700000000000005,1.0200000000000005,granola w milk,1850.300000000745,1850,1850.800000000745,True,i,151922.80000000075,2351.800000000745,1669840275291,2351,HRV,HRV_0290,2022-11-30 20:34:23
83,"[{'imgObject': {}, 'id': 'eggsalad', 'src': '/static/foodstim60/eggsalad.jpg', 'key': 'u', 'origWidth': 410, 'origHeight': 409, 'width': 410, 'height': 409, 'widthPercent': 0.45, 'rescaleHeight': False, 'trialN': 83, 'loaded': True, 'loadedTime': 3716.5999999996275, 'positionName': 'LEFT', 'positionCoords': [409.36, 275.5], 'bid': 5.69}, {'imgObject': {}, 'id': 'cheerios', 'src': '/static/foodstim60/cheerios.jpg', 'key': 'i', 'origWidth': 409, 'origHeight': 410, 'width': 409, 'height': 410, 'widthPercent': 0.45, 'rescaleHeight': False, 'trialN': 83, 'loaded': True, 'loadedTime': 4231.800000000745, 'positionName': 'RIGHT', 'positionCoords': [887.64, 275], 'bid': 6.69}]",151923.0,1669840275292,eggsalad,cheerios,5.69,6.69,1.0,cheerios,1765.800000000745,1766,1766.300000000745,True,i,154195.59999999963,2272.5999999996275,1669840277564,2272,HRV,HRV_0290,2022-11-30 20:34:23
84,"[{'imgObject': {}, 'id': 'cherries', 'src': '/static/foodstim60/cherries.jpg', 'key': 'u', 'origWidth': 410, 'origHeight': 411, 'width': 410, 'height': 411, 'widthPercent': 0.45, 'rescaleHeight': False, 'trialN': 84, 'loaded': True, 'loadedTime': 4291.5, 'positionName': 'LEFT', 'positionCoords': [409.36, 274.5], 'bid': 2.14}, {'imgObject': {}, 'id': 'cheerios', 'src': '/static/foodstim60/cheerios.jpg', 'key': 'i', 'origWidth': 409, 'origHeight': 410, 'width': 409, 'height': 410, 'widthPercent': 0.45, 'rescaleHeight': False, 'trialN': 84, 'loaded': True, 'loadedTime': 4212.300000000745, 'positionName': 'RIGHT', 'positionCoords': [887.64, 275], 'bid': 6.69}]",154195.90000000037,1669840277564,cherries,cheerios,2.14,6.69,4.550000000000001,cheerios,921.7999999988824,923,922.4000000003725,True,i,155618.80000000075,1422.9000000003725,1669840278987,1423,HRV,HRV_0290,2022-11-30 20:34:23
85,"[{'imgObject': {}, 'id': 'omelette', 'src': '/static/foodstim60/omelette.jpg', 'key': 'u', 'origWidth': 410, 'origHeight': 409, 'width': 410, 'height': 409, 'widthPercent': 0.45, 'rescaleHeight': False, 'trialN': 85, 'loaded': True, 'loadedTime': 3925.800000000745, 'positionName': 'LEFT', 'positionCoords': [409.36, 275.5], 'bid': 5.7700000000000005}, {'imgObject': {}, 'id': 'burrito', 'src': '/static/foodstim60/burrito.jpg', 'key': 'i', 'origWidth': 410, 'origHeight': 410, 'width': 410, 'height': 410, 'widthPercent': 0.45, 'rescaleHeight': False, 'trialN': 85, 'loaded': True, 'loadedTime': 4180.699999999255, 'positionName': 'RIGHT', 'positionCoords': [887.64, 275], 'bid': 9.42}]",155619.30000000075,1669840278988,omelette,burrito,5.7700000000000005,9.42,3.6499999999999995,burrito,1095.7999999988824,1096,1096.3999999985099,True,i,157218.59999999963,1599.2999999988824,1669840280587,1599,HRV,HRV_0290,2022-11-30 20:34:23
86,"[{'imgObject': {}, 'id': 'avocado', 'src': '/static/foodstim60/avocado.jpg', 'key': 'u', 'origWidth': 409, 'origHeight': 409, 'width': 409, 'height': 409, 'widthPercent': 0.45, 'rescaleHeight': False, 'trialN': 86, 'loaded': True, 'loadedTime': 3760.5, 'positionName': 'LEFT', 'positionCoords': [410.36, 275.5], 'bid': 2.94}, {'imgObject': {}, 'id': 'banana', 'src': '/static/foodstim60/banana.jpg', 'key': 'i', 'origWidth': 410, 'origHeight': 410, 'width': 410, 'height': 410, 'widthPercent': 0.45, 'rescaleHeight': False, 'trialN': 86, 'loaded': True, 'loadedTime': 3499.800000000745, 'positionName': 'RIGHT', 'positionCoords': [887.64, 275], 'bid': 2.85}]",157218.69999999925,1669840280587,avocado,banana,2.94,2.85,-0.08999999999999986,banana,1256.4000000003725,1257,1256.800000000745,True,i,158978.40000000037,1759.7000000011176,1669840282347,1760,HRV,HRV_0290,2022-11-30 20:34:23
87,"[{'imgObject': {}, 'id': 'burger', 'src': '/static/foodstim60/burger.jpg', 'key': 'u', 'origWidth': 409, 'origHeight': 409, 'width': 409, 'height': 409, 'widthPercent': 0.45, 'rescaleHeight': False, 'trialN': 87, 'loaded': True, 'loadedTime': 3945.800000000745, 'positionName': 'LEFT', 'positionCoords': [410.36, 275.5], 'bid': 8.02}, {'imgObject': {}, 'id': 'rigatoni', 'src': '/static/foodstim60/rigatoni.jpg', 'key': 'i', 'origWidth': 411, 'origHeight': 411, 'width': 411, 'height': 411, 'widthPercent': 0.45, 'rescaleHeight': False, 'trialN': 87, 'loaded': True, 'loadedTime': 4185.9000000003725, 'positionName': 'RIGHT', 'positionCoords': [887.64, 274.5], 'bid': 8.74}]",158978.5,1669840282347,burger,rigatoni,8.02,8.74,0.7200000000000006,rigatoni,1117.9000000003725,1118,1118.199999999255,True,i,160603.0,1624.5,1669840283972,1625,HRV,HRV_0290,2022-11-30 20:34:23
88,"[{'imgObject': {}, 'id': 'orange slices', 'src': '/static/foodstim60/orange slices.jpg', 'key': 'u', 'origWidth': 409, 'origHeight': 410, 'width': 409, 'height': 410, 'widthPercent': 0.45, 'rescaleHeight': False, 'trialN': 88, 'loaded': True, 'loadedTime': 3798.199999999255, 'positionName': 'LEFT', 'positionCoords': [410.36, 275], 'bid': 2.49}, {'imgObject': {}, 'id': 'kiwi', 'src': '/static/foodstim60/kiwi.jpg', 'key': 'i', 'origWidth': 410, 'origHeight': 410, 'width': 410, 'height': 410, 'widthPercent': 0.45, 'rescaleHeight': False, 'trialN': 88, 'loaded': True, 'loadedTime': 4133.9000000003725, 'positionName': 'RIGHT', 'positionCoords': [887.64, 275], 'bid': 3.5700000000000003}]",160603.19999999925,1669840283972,orange slices,kiwi,2.49,3.5700000000000003,1.08,orange slices,1155.2000000011176,1155,1155.7000000011176,True,u,162266.69999999925,1663.5,1669840285635,1663,HRV,HRV_0290,2022-11-30 20:34:23
89,"[{'imgObject': {}, 'id': 'fried eggs', 'src': '/static/foodstim60/fried eggs.jpg', 'key': 'u', 'origWidth': 410, 'origHeight': 410, 'width': 410, 'height': 410, 'widthPercent': 0.45, 'rescaleHeight': False, 'trialN': 89, 'loaded': True, 'loadedTime': 4237.5999999996275, 'positionName': 'LEFT', 'positionCoords': [409.36, 275], 'bid': 6.63}, {'imgObject': {}, 'id': 'sushi w_condiments', 'src': '/static/foodstim60/sushi w_condiments.jpg', 'key': 'i', 'origWidth': 410, 'origHeight': 410, 'width': 410, 'height': 410, 'widthPercent': 0.45, 'rescaleHeight': False, 'trialN': 89, 'loaded': True, 'loadedTime': 4278.300000000745, 'positionName': 'RIGHT', 'positionCoords': [887.64, 275], 'bid': 5}]",162266.90000000037,1669840285635,fried eggs,sushi w_condiments,6.63,5.0,-1.63,fried eggs,1554.9000000003725,1556,1555.4000000003725,True,u,164330.69999999925,2063.7999999988824,1669840287699,2064,HRV,HRV_0290,2022-11-30 20:34:23
90,"[{'imgObject': {}, 'id': 'olives', 'src': '/static/foodstim60/olives.jpg', 'key': 'u', 'origWidth': 410, 'origHeight': 410, 'width': 410, 'height': 410, 'widthPercent': 0.45, 'rescaleHeight': False, 'trialN': 90, 'loaded': True, 'loadedTime': 4061.0999999996275, 'positionName': 'LEFT', 'positionCoords': [409.36, 275], 'bid': 5.75}, {'imgObject': {}, 'id': 'mashed potato', 'src': '/static/foodstim60/mashed potato.jpg', 'key': 'i', 'origWidth': 409, 'origHeight': 409, 'width': 409, 'height': 409, 'widthPercent': 0.45, 'rescaleHeight': False, 'trialN': 90, 'loaded': True, 'loadedTime': 4188.9000000003725, 'positionName': 'RIGHT', 'positionCoords': [887.64, 275.5], 'bid': 6.0600000000000005}]",176810.40000000037,1669840300179,olives,mashed potato,5.75,6.0600000000000005,0.3100000000000005,olives,1116.2999999988824,1117,1117.0999999996275,True,u,178435.0,1624.5999999996275,1669840301804,1625,HRV,HRV_0290,2022-11-30 20:34:23
91,"[{'imgObject': {}, 'id': 'cantaloupe', 'src': '/static/foodstim60/cantaloupe.jpg', 'key': 'u', 'origWidth': 409, 'origHeight': 409, 'width': 409, 'height': 409, 'widthPercent': 0.45, 'rescaleHeight': False, 'trialN': 91, 'loaded': True, 'loadedTime': 3967, 'positionName': 'LEFT', 'positionCoords': [410.36, 275.5], 'bid': 0.62}, {'imgObject': {}, 'id': 'strawberries', 'src': '/static/foodstim60/strawberries.jpg', 'key': 'i', 'origWidth': 410, 'origHeight': 410, 'width': 410, 'height': 410, 'widthPercent': 0.45, 'rescaleHeight': False, 'trialN': 91, 'loaded': True, 'loadedTime': 4283.9000000003725, 'positionName': 'RIGHT', 'positionCoords': [887.64, 275], 'bid': 3.34}]",178435.30000000075,1669840301804,cantaloupe,strawberries,0.62,3.34,2.7199999999999998,strawberries,860.3999999985099,861,860.7999999988824,True,i,179803.19999999925,1367.8999999985099,1669840303172,1368,HRV,HRV_0290,2022-11-30 20:34:23
92,"[{'imgObject': {}, 'id': 'Tribe humus pita', 'src': '/static/foodstim60/Tribe humus pita.jpg', 'key': 'u', 'origWidth': 411, 'origHeight': 411, 'width': 411, 'height': 411, 'widthPercent': 0.45, 'rescaleHeight': False, 'trialN': 92, 'loaded': True, 'loadedTime': 4287.800000000745, 'positionName': 'LEFT', 'positionCoords': [408.36, 274.5], 'bid': 8.32}, {'imgObject': {}, 'id': 'salad w chicken', 'src': '/static/foodstim60/salad w chicken.jpg', 'key': 'i', 'origWidth': 411, 'origHeight': 411, 'width': 411, 'height': 411, 'widthPercent': 0.45, 'rescaleHeight': False, 'trialN': 92, 'loaded': True, 'loadedTime': 3579.4000000003725, 'positionName': 'RIGHT', 'positionCoords': [887.64, 274.5], 'bid': 9.09}]",179803.40000000037,1669840303172,Tribe humus pita,salad w chicken,8.32,9.09,0.7699999999999996,salad w chicken,1186.4000000003725,1187,1187.0,True,i,181499.5,1696.0999999996275,1669840304868,1696,HRV,HRV_0290,2022-11-30 20:34:23
93,"[{'imgObject': {}, 'id': 'mac & cheese', 'src': '/static/foodstim60/mac & cheese.jpg', 'key': 'u', 'origWidth': 410, 'origHeight': 410, 'width': 410, 'height': 410, 'widthPercent': 0.45, 'rescaleHeight': False, 'trialN': 93, 'loaded': True, 'loadedTime': 4286, 'positionName': 'LEFT', 'positionCoords': [409.36, 275], 'bid': 9.14}, {'imgObject': {}, 'id': 'bagel and cc', 'src': '/static/foodstim60/bagel and cc.jpg', 'key': 'i', 'origWidth': 410, 'origHeight': 410, 'width': 410, 'height': 410, 'widthPercent': 0.45, 'rescaleHeight': False, 'trialN': 93, 'loaded': True, 'loadedTime': 4274.9000000003725, 'positionName': 'RIGHT', 'positionCoords': [887.64, 275], 'bid': 8.6}]",181499.80000000075,1669840304868,mac & cheese,bagel and cc,9.14,8.6,-0.5400000000000009,mac & cheese,1180.199999999255,1181,1180.699999999255,True,u,183186.69999999925,1686.8999999985099,1669840306555,1687,HRV,HRV_0290,2022-11-30 20:34:23
94,"[{'imgObject': {}, 'id': 'bagel plain', 'src': '/static/foodstim60/bagel plain.jpg', 'key': 'u', 'origWidth': 410, 'origHeight': 410, 'width': 410, 'height': 410, 'widthPercent': 0.45, 'rescaleHeight': False, 'trialN': 94, 'loaded': True, 'loadedTime': 3994.800000000745, 'positionName': 'LEFT', 'positionCoords': [409.36, 275], 'bid': 7.92}, {'imgObject': {}, 'id': 'turkey sandwich', 'src': '/static/foodstim60/turkey sandwich.jpg', 'key': 'i', 'origWidth': 409, 'origHeight': 409, 'width': 409, 'height': 409, 'widthPercent': 0.45, 'rescaleHeight': False, 'trialN': 94, 'loaded': True, 'loadedTime': 4234.199999999255, 'positionName': 'RIGHT', 'positionCoords': [887.64, 275.5], 'bid': 8.61}]",183186.90000000037,1669840306555,bagel plain,turkey sandwich,7.92,8.61,0.6899999999999995,turkey sandwich,1137.699999999255,1139,1138.199999999255,True,i,184826.40000000037,1639.5,1669840308195,1640,HRV,HRV_0290,2022-11-30 20:34:23
95,"[{'imgObject': {}, 'id': 'rigatoni and sauce', 'src': '/static/foodstim60/rigatoni and sauce.jpg', 'key': 'u', 'origWidth': 410, 'origHeight': 411, 'width': 410, 'height': 411, 'widthPercent': 0.45, 'rescaleHeight': False, 'trialN': 95, 'loaded': True, 'loadedTime': 4109.300000000745, 'positionName': 'LEFT', 'positionCoords': [409.36, 274.5], 'bid': 8.94}, {'imgObject': {}, 'id': 'mac & cheese', 'src': '/static/foodstim60/mac & cheese.jpg', 'key': 'i', 'origWidth': 410, 'origHeight': 410, 'width': 410, 'height': 410, 'widthPercent': 0.45, 'rescaleHeight': False, 'trialN': 95, 'loaded': True, 'loadedTime': 4286.5999999996275, 'positionName': 'RIGHT', 'positionCoords': [887.64, 275], 'bid': 9.14}]",184826.59999999963,1669840308195,rigatoni and sauce,mac & cheese,8.94,9.14,0.20000000000000107,rigatoni and sauce,1316.0,1317,1316.5,True,u,186650.69999999925,1824.0999999996275,1669840310019,1824,HRV,HRV_0290,2022-11-30 20:34:23
96,"[{'imgObject': {}, 'id': 'edamame', 'src': '/static/foodstim60/edamame.jpg', 'key': 'u', 'origWidth': 409, 'origHeight': 410, 'width': 409, 'height': 410, 'widthPercent': 0.45, 'rescaleHeight': False, 'trialN': 96, 'loaded': True, 'loadedTime': 4282, 'positionName': 'LEFT', 'positionCoords': [410.36, 275], 'bid': 5.88}, {'imgObject': {}, 'id': 'fried eggs', 'src': '/static/foodstim60/fried eggs.jpg', 'key': 'i', 'origWidth': 410, 'origHeight': 410, 'width': 410, 'height': 410, 'widthPercent': 0.45, 'rescaleHeight': False, 'trialN': 96, 'loaded': True, 'loadedTime': 4255.4000000003725, 'positionName': 'RIGHT', 'positionCoords': [887.64, 275], 'bid': 6.63}]",186650.90000000037,1669840310019,edamame,fried eggs,5.88,6.63,0.75,fried eggs,1078.4000000003725,1079,1078.7999999988824,True,i,188234.30000000075,1583.4000000003725,1669840311603,1584,HRV,HRV_0290,2022-11-30 20:34:23
97,"[{'imgObject': {}, 'id': 'turkey sandwich', 'src': '/static/foodstim60/turkey sandwich.jpg', 'key': 'u', 'origWidth': 409, 'origHeight': 409, 'width': 409, 'height': 409, 'widthPercent': 0.45, 'rescaleHeight': False, 'trialN': 97, 'loaded': True, 'loadedTime': 4233.9000000003725, 'positionName': 'LEFT', 'positionCoords': [410.36, 275.5], 'bid': 8.61}, {'imgObject': {}, 'id': 'rigatoni', 'src': '/static/foodstim60/rigatoni.jpg', 'key': 'i', 'origWidth': 411, 'origHeight': 411, 'width': 411, 'height': 411, 'widthPercent': 0.45, 'rescaleHeight': False, 'trialN': 97, 'loaded': True, 'loadedTime': 4184.0999999996275, 'positionName': 'RIGHT', 'positionCoords': [887.64, 274.5], 'bid': 8.74}]",188234.40000000037,1669840311603,turkey sandwich,rigatoni,8.61,8.74,0.13000000000000078,rigatoni,1187.199999999255,1189,1188.7999999988824,True,i,189930.09999999963,1695.699999999255,1669840313299,1696,HRV,HRV_0290,2022-11-30 20:34:23
98,"[{'imgObject': {}, 'id': 'pear', 'src': '/static/foodstim60/pear.jpg', 'key': 'u', 'origWidth': 411, 'origHeight': 410, 'width': 411, 'height': 410, 'widthPercent': 0.45, 'rescaleHeight': False, 'trialN': 98, 'loaded': True, 'loadedTime': 4278.5, 'positionName': 'LEFT', 'positionCoords': [408.36, 275], 'bid': 2.5500000000000003}, {'imgObject': {}, 'id': 'luckycharms', 'src': '/static/foodstim60/luckycharms.jpg', 'key': 'i', 'origWidth': 410, 'origHeight': 409, 'width': 410, 'height': 409, 'widthPercent': 0.45, 'rescaleHeight': False, 'trialN': 98, 'loaded': True, 'loadedTime': 4296.5, 'positionName': 'RIGHT', 'positionCoords': [887.64, 275.5], 'bid': 7.5}]",189930.5,1669840313299,pear,luckycharms,2.5500000000000003,7.5,4.949999999999999,luckycharms,933.3000000007451,934,933.8000000007451,True,i,191370.19999999925,1439.699999999255,1669840314739,1440,HRV,HRV_0290,2022-11-30 20:34:23
99,"[{'imgObject': {}, 'id': 'yogurt no spoon', 'src': '/static/foodstim60/yogurt no spoon.jpg', 'key': 'u', 'origWidth': 411, 'origHeight': 410, 'width': 411, 'height': 410, 'widthPercent': 0.45, 'rescaleHeight': False, 'trialN': 99, 'loaded': True, 'loadedTime': 4099.699999999255, 'positionName': 'LEFT', 'positionCoords': [408.36, 275], 'bid': 4.34}, {'imgObject': {}, 'id': 'fruitsalad', 'src': '/static/foodstim60/fruitsalad.jpg', 'key': 'i', 'origWidth': 410, 'origHeight': 410, 'width': 410, 'height': 410, 'widthPercent': 0.45, 'rescaleHeight': False, 'trialN': 99, 'loaded': True, 'loadedTime': 4236, 'positionName': 'RIGHT', 'positionCoords': [887.64, 275], 'bid': 4.19}]",191370.30000000075,1669840314739,yogurt no spoon,fruitsalad,4.34,4.19,-0.14999999999999947,fruitsalad,1096.2999999988824,1099,1098.7999999988824,True,i,192971.80000000075,1601.5,1669840316340,1601,HRV,HRV_0290,2022-11-30 20:34:23
100,"[{'imgObject': {}, 'id': 'turkeysandwich', 'src': '/static/foodstim60/turkeysandwich.jpg', 'key': 'u', 'origWidth': 409, 'origHeight': 409, 'width': 409, 'height': 409, 'widthPercent': 0.45, 'rescaleHeight': False, 'trialN': 100, 'loaded': True, 'loadedTime': 4289.800000000745, 'positionName': 'LEFT', 'positionCoords': [410.36, 275.5], 'bid': 8.4}, {'imgObject': {}, 'id': 'avocado', 'src': '/static/foodstim60/avocado.jpg', 'key': 'i', 'origWidth': 409, 'origHeight': 409, 'width': 409, 'height': 409, 'widthPercent': 0.45, 'rescaleHeight': False, 'trialN': 100, 'loaded': True, 'loadedTime': 3758.0999999996275, 'positionName': 'RIGHT', 'positionCoords': [887.64, 275.5], 'bid': 2.94}]",192972.09999999963,1669840316341,turkeysandwich,avocado,8.4,2.94,-5.460000000000001,turkeysandwich,1263.300000000745,1263,1263.7000000011176,True,u,194738.59999999963,1766.5,1669840318107,1766,HRV,HRV_0290,2022-11-30 20:34:23
101,"[{'imgObject': {}, 'id': 'blackbeanswithrice', 'src': '/static/foodstim60/blackbeanswithrice.jpg', 'key': 'u', 'origWidth': 410, 'origHeight': 410, 'width': 410, 'height': 410, 'widthPercent': 0.45, 'rescaleHeight': False, 'trialN': 101, 'loaded': True, 'loadedTime': 3861.300000000745, 'positionName': 'LEFT', 'positionCoords': [409.36, 275], 'bid': 6.01}, {'imgObject': {}, 'id': 'sweetpotato', 'src': '/static/foodstim60/sweetpotato.jpg', 'key': 'i', 'origWidth': 410, 'origHeight': 410, 'width': 410, 'height': 410, 'widthPercent': 0.45, 'rescaleHeight': False, 'trialN': 101, 'loaded': True, 'loadedTime': 3355.699999999255, 'positionName': 'RIGHT', 'positionCoords': [887.64, 275], 'bid': 0.62}]",194738.80000000075,1669840318107,blackbeanswithrice,sweetpotato,6.01,0.62,-5.39,blackbeanswithrice,939.0,940,939.6999999992549,True,u,196187.40000000037,1448.5999999996275,1669840319556,1449,HRV,HRV_0290,2022-11-30 20:34:23
102,"[{'imgObject': {}, 'id': 'sushi w_condiments', 'src': '/static/foodstim60/sushi w_condiments.jpg', 'key': 'u', 'origWidth': 410, 'origHeight': 410, 'width': 410, 'height': 410, 'widthPercent': 0.45, 'rescaleHeight': False, 'trialN': 102, 'loaded': True, 'loadedTime': 4276.4000000003725, 'positionName': 'LEFT', 'positionCoords': [409.36, 275], 'bid': 5}, {'imgObject': {}, 'id': 'baked potato', 'src': '/static/foodstim60/baked potato.jpg', 'key': 'i', 'origWidth': 409, 'origHeight': 410, 'width': 409, 'height': 410, 'widthPercent': 0.45, 'rescaleHeight': False, 'trialN': 102, 'loaded': True, 'loadedTime': 3866.0999999996275, 'positionName': 'RIGHT', 'positionCoords': [887.64, 275], 'bid': 6}]",196187.59999999963,1669840319556,sushi w_condiments,baked potato,5.0,6.0,1.0,baked potato,2060.5,2061,2061.0999999996275,True,i,198755.40000000037,2567.800000000745,1669840322124,2568,HRV,HRV_0290,2022-11-30 20:34:23
103,"[{'imgObject': {}, 'id': 'shreddedwheatwithmilk', 'src': '/static/foodstim60/shreddedwheatwithmilk.jpg', 'key': 'u', 'origWidth': 410, 'origHeight': 410, 'width': 410, 'height': 410, 'widthPercent': 0.45, 'rescaleHeight': False, 'trialN': 103, 'loaded': True, 'loadedTime': 3893, 'positionName': 'LEFT', 'positionCoords': [409.36, 275], 'bid': 6.95}, {'imgObject': {}, 'id': 'granola w milk', 'src': '/static/foodstim60/granola w milk.jpg', 'key': 'i', 'origWidth': 410, 'origHeight': 410, 'width': 410, 'height': 410, 'widthPercent': 0.45, 'rescaleHeight': False, 'trialN': 103, 'loaded': True, 'loadedTime': 4294.300000000745, 'positionName': 'RIGHT', 'positionCoords': [887.64, 275], 'bid': 6.7700000000000005}]",198755.69999999925,1669840322124,shreddedwheatwithmilk,granola w milk,6.95,6.7700000000000005,-0.17999999999999972,shreddedwheatwithmilk,1607.7000000011176,1608,1608.1000000014901,True,u,200866.80000000075,2111.10000000149,1669840324235,2111,HRV,HRV_0290,2022-11-30 20:34:23
104,"[{'imgObject': {}, 'id': 'froot loops w milk', 'src': '/static/foodstim60/froot loops w milk.jpg', 'key': 'u', 'origWidth': 410, 'origHeight': 410, 'width': 410, 'height': 410, 'widthPercent': 0.45, 'rescaleHeight': False, 'trialN': 104, 'loaded': True, 'loadedTime': 3769.199999999255, 'positionName': 'LEFT', 'positionCoords': [409.36, 275], 'bid': 7.2}, {'imgObject': {}, 'id': 'edamame', 'src': '/static/foodstim60/edamame.jpg', 'key': 'i', 'origWidth': 409, 'origHeight': 410, 'width': 409, 'height': 410, 'widthPercent': 0.45, 'rescaleHeight': False, 'trialN': 104, 'loaded': True, 'loadedTime': 4281.9000000003725, 'positionName': 'RIGHT', 'positionCoords': [887.64, 275], 'bid': 5.88}]",200866.90000000037,1669840324235,froot loops w milk,edamame,7.2,5.88,-1.3200000000000003,froot loops w milk,1039.4000000003725,1040,1040.0,True,u,202410.30000000075,1543.4000000003725,1669840325779,1544,HRV,HRV_0290,2022-11-30 20:34:23
105,"[{'imgObject': {}, 'id': 'Tribe humus pita', 'src': '/static/foodstim60/Tribe humus pita.jpg', 'key': 'u', 'origWidth': 411, 'origHeight': 411, 'width': 411, 'height': 411, 'widthPercent': 0.45, 'rescaleHeight': False, 'trialN': 105, 'loaded': True, 'loadedTime': 4288.4000000003725, 'positionName': 'LEFT', 'positionCoords': [408.36, 274.5], 'bid': 8.32}, {'imgObject': {}, 'id': 'burrito', 'src': '/static/foodstim60/burrito.jpg', 'key': 'i', 'origWidth': 410, 'origHeight': 410, 'width': 410, 'height': 410, 'widthPercent': 0.45, 'rescaleHeight': False, 'trialN': 105, 'loaded': True, 'loadedTime': 4180.300000000745, 'positionName': 'RIGHT', 'positionCoords': [887.64, 275], 'bid': 9.42}]",202410.69999999925,1669840325779,Tribe humus pita,burrito,8.32,9.42,1.0999999999999996,burrito,966.9000000003725,968,967.5,True,i,203883.09999999963,1472.4000000003725,1669840327252,1473,HRV,HRV_0290,2022-11-30 20:34:23
106,"[{'imgObject': {}, 'id': 'cocktailshrimp', 'src': '/static/foodstim60/cocktailshrimp.jpg', 'key': 'u', 'origWidth': 410, 'origHeight': 410, 'width': 410, 'height': 410, 'widthPercent': 0.45, 'rescaleHeight': False, 'trialN': 106, 'loaded': True, 'loadedTime': 4197, 'positionName': 'LEFT', 'positionCoords': [409.36, 275], 'bid': 1.77}, {'imgObject': {}, 'id': 'hotdog w must', 'src': '/static/foodstim60/hotdog w must.jpg', 'key': 'i', 'origWidth': 409, 'origHeight': 409, 'width': 409, 'height': 409, 'widthPercent': 0.45, 'rescaleHeight': False, 'trialN': 106, 'loaded': True, 'loadedTime': 4211.4000000003725, 'positionName': 'RIGHT', 'positionCoords': [887.64, 275.5], 'bid': 3.63}]",203883.40000000037,1669840327252,cocktailshrimp,hotdog w must,1.77,3.63,1.8599999999999999,hotdog w must,1016.1999999992549,1016,1016.5999999996275,True,i,205402.59999999963,1519.199999999255,1669840328771,1519,HRV,HRV_0290,2022-11-30 20:34:23
107,"[{'imgObject': {}, 'id': 'rigatoni', 'src': '/static/foodstim60/rigatoni.jpg', 'key': 'u', 'origWidth': 411, 'origHeight': 411, 'width': 411, 'height': 411, 'widthPercent': 0.45, 'rescaleHeight': False, 'trialN': 107, 'loaded': True, 'loadedTime': 4183.9000000003725, 'positionName': 'LEFT', 'positionCoords': [408.36, 274.5], 'bid': 8.74}, {'imgObject': {}, 'id': 'burrito', 'src': '/static/foodstim60/burrito.jpg', 'key': 'i', 'origWidth': 410, 'origHeight': 410, 'width': 410, 'height': 410, 'widthPercent': 0.45, 'rescaleHeight': False, 'trialN': 107, 'loaded': True, 'loadedTime': 4180.9000000003725, 'positionName': 'RIGHT', 'positionCoords': [887.64, 275], 'bid': 9.42}]",205402.80000000075,1669840328771,rigatoni,burrito,8.74,9.42,0.6799999999999997,burrito,1210.7999999988824,1211,1211.199999999255,True,i,207114.59999999963,1711.7999999988824,1669840330483,1712,HRV,HRV_0290,2022-11-30 20:34:23
