success,trial_type,trial_index,time_elapsed,internal_node_id,Block,TrialNumber,TrialTime,trialTimeDiff,FPS_avg,FPS_med,FPS_mode,TrialDur,winResizeTime,rt,block,button_pressed,MotCoh,MotDir,ColCoh,Color,ChoiceKey,Choice,Accuracy,RT,nFrames,FPS,PPD,missTrial,missTrialMsg,onsetDelay,fullScreenExitTime,canvCenter,TrialType,Score,BlockTrial,stimulus,button_labels,exp,subjectId,date
True,fullscreen,0,1799,0.0-0.0,0.0,1.0,,,,,,,,,,,,,,,,,,,,,,,,,,,,,,,,HRV,HRV_0290,2022-11-30 20:58:59
,wl-check-fps,1,6796,0.0-1.0,0.0,2.0,"[2817.6, 2825.2, 2841.8, 2858.5, 2875.2, 2892.1, 2908.5, 2925.8, 2942.2, 2958.7, 2975.5, 2991.7, 3008.6, 3025.1, 3041.6, 3058.4, 3075, 3091.7, 3108.8, 3125.4, 3142, 3158.8, 3175.5, 3192.2, 3208.9, 3225.4, 3242, 3258.8, 3275.7, 3293, 3309.1, 3326, 3342.2, 3359, 3375.8, 3392.3, 3409.6, 3426.4, 3442.1, 3458.8, 3475.6, 3491.7, 3508.6, 3525.4, 3541.8, 3558.5, 3575.3, 3591.8, 3608.6, 3625.2, 3641.8, 3658.6, 3675.3, 3691.7, 3708.6, 3725.2, 3741.8, 3758.5, 3775.2, 3791.7, 3808.5, 3825.3, 3841.8, 3858.5, 3875.3, 3891.8, 3908.6, 3925.2, 3941.8, 3958.6, 3975.5, 3991.8, 4008.5, 4025.2, 4041.9, 4058.5, 4075.3, 4091.7, 4108.7, 4125.7, 4141.9, 4158.5, 4175.3, 4191.9, 4208.6, 4225.5, 4242, 4258.6, 4275.4, 4291.9, 4308.7, 4325.5, 4341.8, 4358.4, 4375.4, 4391.8, 4408.5, 4425.3, 4442.1, 4458.6, 4475.3, 4491.8, 4508.5, 4525.3, 4541.9, 4558.5, 4575.3, 4591.8, 4608.5, 4625.3, 4641.8, 4658.4, 4675.1, 4691.9, 4708.7, 4725.3, 4741.8, 4758.6, 4775.2, 4791.8, 4808.6, 4825.2, 4841.8, 4858.6, 4875.2, 4891.9, 4908.4, 4925.2, 4941.8, 4958.8, 4975.3, 4992.2, 5008.6, 5025.6, 5042, 5058.7, 5075.2, 5091.9, 5108.5, 5125.3, 5141.8, 5158.7, 5175.3, 5191.8, 5208.5, 5225.3, 5241.8, 5258.5, 5275.3, 5292, 5308.6, 5325.3, 5341.8, 5358.6, 5375.2, 5391.8, 5408.6, 5425.3, 5442.6, 5458.7, 5475.3, 5491.9, 5508.6, 5525.3, 5541.9, 5558.6, 5575.3, 5591.9, 5608.5, 5625.3, 5641.9, 5658.6, 5675.4, 5692, 5708.6, 5725.3, 5741.8, 5758.6, 5775.2, 5791.8, 5808.6, 5825.2, 5841.8, 5858.5, 5875.3, 5891.8, 5908.5, 5925.4, 5942, 5959, 5975.7, 5991.9, 6008.7, 6025.3, 6042.1, 6058.6, 6075.3, 6092, 6108.6, 6125.3, 6141.9, 6158.8, 6175.3, 6192, 6208.7, 6225.6, 6242, 6258.6, 6275.4, 6292, 6308.7, 6325.3, 6342, 6358.6, 6375.3, 6391.9, 6408.7, 6425.4, 6442.1, 6458.6, 6475.7, 6492.1, 6508.9, 6525.4, 6542.3, 6558.7, 6575.5, 6592, 6610.5, 6625.3, 6642.4, 6658.7, 6676.2, 6692, 6709, 6734.3, 6745.5, 6758.9, 6775.5, 6802.2, 6810, 6825.5, 6842.1, 6858.8, 6876.6, 6892.1, 6908.8, 6925.6, 6942.2, 6958.7, 6975.4, 6992, 7008.8, 7025.5, 7042.1, 7058.8, 7075.5, 7093.9, 7109.1, 7125.5, 7142.3, 7159.1, 7175.4, 7191.9, 7208.7, 7225.4, 7242.1, 7258.7, 7275.5, 7292, 7308.7, 7325.4, 7342, 7358.7, 7375.5, 7392.1, 7408.8, 7425.5, 7442.1, 7458.7, 7475.7, 7492, 7508.8, 7525.4, 7542.1, 7558.6, 7575.3, 7592.1, 7608.9, 7625.4, 7642, 7658.7, 7675.4, 7692.1, 7708.8, 7725.5, 7742, 7758.8, 7775.4, 7792.1]","[2.8, 7.6, 16.6, 16.7, 16.7, 16.9, 16.4, 17.3, 16.4, 16.5, 16.8, 16.2, 16.9, 16.5, 16.5, 16.8, 16.6, 16.7, 17.1, 16.6, 16.6, 16.8, 16.7, 16.7, 16.7, 16.5, 16.6, 16.8, 16.9, 17.3, 16.1, 16.9, 16.2, 16.8, 16.8, 16.5, 17.3, 16.8, 15.7, 16.7, 16.8, 16.1, 16.9, 16.8, 16.4, 16.7, 16.8, 16.5, 16.8, 16.6, 16.6, 16.8, 16.7, 16.4, 16.9, 16.6, 16.6, 16.7, 16.7, 16.5, 16.8, 16.8, 16.5, 16.7, 16.8, 16.5, 16.8, 16.6, 16.6, 16.8, 16.9, 16.3, 16.7, 16.7, 16.7, 16.6, 16.8, 16.4, 17, 17, 16.2, 16.6, 16.8, 16.6, 16.7, 16.9, 16.5, 16.6, 16.8, 16.5, 16.8, 16.8, 16.3, 16.6, 17, 16.4, 16.7, 16.8, 16.8, 16.5, 16.7, 16.5, 16.7, 16.8, 16.6, 16.6, 16.8, 16.5, 16.7, 16.8, 16.5, 16.6, 16.7, 16.8, 16.8, 16.6, 16.5, 16.8, 16.6, 16.6, 16.8, 16.6, 16.6, 16.8, 16.6, 16.7, 16.5, 16.8, 16.6, 17, 16.5, 16.9, 16.4, 17, 16.4, 16.7, 16.5, 16.7, 16.6, 16.8, 16.5, 16.9, 16.6, 16.5, 16.7, 16.8, 16.5, 16.7, 16.8, 16.7, 16.6, 16.7, 16.5, 16.8, 16.6, 16.6, 16.8, 16.7, 17.3, 16.1, 16.6, 16.6, 16.7, 16.7, 16.6, 16.7, 16.7, 16.6, 16.6, 16.8, 16.6, 16.7, 16.8, 16.6, 16.6, 16.7, 16.5, 16.8, 16.6, 16.6, 16.8, 16.6, 16.6, 16.7, 16.8, 16.5, 16.7, 16.9, 16.6, 17, 16.7, 16.2, 16.8, 16.6, 16.8, 16.5, 16.7, 16.7, 16.6, 16.7, 16.6, 16.9, 16.5, 16.7, 16.7, 16.9, 16.4, 16.6, 16.8, 16.6, 16.7, 16.6, 16.7, 16.6, 16.7, 16.6, 16.8, 16.7, 16.7, 16.5, 17.1, 16.4, 16.8, 16.5, 16.9, 16.4, 16.8, 16.5, 18.5, 14.8, 17.1, 16.3, 17.5, 15.8, 17, 25.3, 11.2, 13.4, 16.6, 26.7, 7.8, 15.5, 16.6, 16.7, 17.8, 15.5, 16.7, 16.8, 16.6, 16.5, 16.7, 16.6, 16.8, 16.7, 16.6, 16.7, 16.7, 18.4, 15.2, 16.4, 16.8, 16.8, 16.3, 16.5, 16.8, 16.7, 16.7, 16.6, 16.8, 16.5, 16.7, 16.7, 16.6, 16.7, 16.8, 16.6, 16.7, 16.7, 16.6, 16.6, 17, 16.3, 16.8, 16.6, 16.7, 16.5, 16.7, 16.8, 16.8, 16.5, 16.6, 16.7, 16.7, 16.7, 16.7, 16.7, 16.5, 16.8, 16.6, 16.7]",60.0,60.0,60.0,4993.8,[],,,,,,,,,,,,,,,,,,,,,,,,,HRV,HRV_0290,2022-11-30 20:58:59
,wl-html-keyboard-response,2,16431,0.0-2.0-0.0,0.0,3.0,,,,,,,,7623.400000002235,0.0,0,,,,,,,,,,,,,,,,,,,,,,HRV,HRV_0290,2022-11-30 20:58:59
,wl-rdm,3,24197,0.0-3.0-0.0,0.0,4.0,,,,,,,[],,,,0.0,0.0,87.9,0.0,u,0.0,True,2185.5,132.0,60.0,40.0,False,,3000.0,[],"[853.5, 480]",ColorTask_Demo,,,,,HRV,HRV_0290,2022-11-30 20:58:59
,wl-rdm,4,29064,0.0-3.0-1.0,0.0,5.0,,,,,,,[],,,,0.0,0.0,87.9,1.0,i,1.0,True,798.0,48.0,60.0,40.0,False,,2000.0,[],"[853.5, 480]",ColorTask_Demo,,,,,HRV,HRV_0290,2022-11-30 20:58:59
,wl-html-keyboard-response,5,33464,0.0-3.0-2.0,0.0,6.0,,,,,,,,2396.0,0.0,1,,,,,,,,,,,,,,,,,,,,,,HRV,HRV_0290,2022-11-30 20:58:59
,wl-html-keyboard-response,6,43951,0.0-4.0-0.0,0.0,7.0,,,,,,,,8478.800000000745,0.0,0,,,,,,,,,,,,,,,,,,,,,,HRV,HRV_0290,2022-11-30 20:58:59
,wl-html-keyboard-response,7,56127,0.0-5.0-0.0,0.0,8.0,,,,,,,,10170.099999997765,0.0,0,,,,,,,,,,,,,,,,,,,,,,HRV,HRV_0290,2022-11-30 20:58:59
,wl-rdm,8,59183,0.0-6.0-0.0,0.0,9.0,,,,,,,[],,,,,,53.2,0.0,i,1.0,False,1781.4999999962747,107.0,60.0,40.0,False,,227.1520667139073,[],"[853.5, 480]",ColorTask,-1.0,1.0,,,HRV,HRV_0290,2022-11-30 20:58:59
,wl-rdm,9,61700,0.0-6.1-0.1,0.0,10.0,,,,,,,[],,,,,,50.0,1.0,u,0.0,False,1121.5000000037253,68.0,60.0,40.0,False,,331.49886801317933,[],"[853.5, 480]",ColorTask,-2.0,2.0,,,HRV,HRV_0290,2022-11-30 20:58:59
,wl-rdm,10,63983,0.0-6.2-0.2,0.0,11.0,,,,,,,[],,,,,,87.9,1.0,i,1.0,True,957.3999999985099,58.0,60.0,40.0,False,,255.61356441762203,[],"[853.5, 480]",ColorTask,-1.0,3.0,,,HRV,HRV_0290,2022-11-30 20:58:59
,wl-rdm,11,66234,0.0-6.3-0.3,0.0,12.0,,,,,,,[],,,,,,73.6,0.0,u,0.0,True,796.6999999992549,48.0,60.0,40.0,False,,392.1809567946342,[],"[853.5, 480]",ColorTask,0.0,4.0,,,HRV,HRV_0290,2022-11-30 20:58:59
,wl-rdm,12,68784,0.0-6.4-0.4,0.0,13.0,,,,,,,[],,,,,,62.5,0.0,u,0.0,True,1140.199999999255,69.0,60.0,40.0,False,,328.0489453613535,[],"[853.5, 480]",ColorTask,1.0,5.0,,,HRV,HRV_0290,2022-11-30 20:58:59
,wl-rdm,13,71367,0.0-6.5-0.5,0.0,14.0,,,,,,,[],,,,,,56.4,0.0,i,1.0,False,1221.800000000745,74.0,60.0,40.0,False,,270.6789033771404,[],"[853.5, 480]",ColorTask,0.0,6.0,,,HRV,HRV_0290,2022-11-30 20:58:59
,wl-rdm,14,74234,0.0-6.6-0.6,0.0,15.0,,,,,,,[],,,,,,56.4,0.0,u,0.0,True,1540.8000000044703,93.0,60.0,40.0,False,,263.83993360623015,[],"[853.5, 480]",ColorTask,1.0,7.0,,,HRV,HRV_0290,2022-11-30 20:58:59
,wl-rdm,15,76634,0.0-6.7-0.7,0.0,16.0,,,,,,,[],,,,,,62.5,1.0,i,1.0,True,1042.300000000745,63.0,60.0,40.0,False,,281.3261645342894,[],"[853.5, 480]",ColorTask,2.0,8.0,,,HRV,HRV_0290,2022-11-30 20:58:59
,wl-rdm,16,79401,0.0-6.8-0.8,0.0,17.0,,,,,,,[],,,,,,62.5,1.0,i,1.0,True,1460.1000000014901,88.0,60.0,40.0,False,,229.88025257713605,[],"[853.5, 480]",ColorTask,3.0,9.0,,,HRV,HRV_0290,2022-11-30 20:58:59
,wl-rdm,17,81819,0.0-6.9-0.9,0.0,18.0,,,,,,,[],,,,,,73.6,0.0,u,0.0,True,1035.8999999985099,63.0,60.0,40.0,False,,288.56469046555276,[],"[853.5, 480]",ColorTask,4.0,10.0,,,HRV,HRV_0290,2022-11-30 20:58:59
,wl-rdm,18,84252,0.0-6.10-0.10,0.0,19.0,,,,,,,[],,,,,,53.2,1.0,i,1.0,True,1115.9999999962747,67.0,60.0,40.0,False,,249.60544891315462,[],"[853.5, 480]",ColorTask,5.0,11.0,,,HRV,HRV_0290,2022-11-30 20:58:59
,wl-rdm,19,86352,0.0-6.11-0.11,0.0,20.0,,,,,,,[],,,,,,87.9,0.0,u,0.0,True,757.0999999977648,46.0,60.0,40.0,False,,254.90181819027177,[],"[853.5, 480]",ColorTask,6.0,12.0,,,HRV,HRV_0290,2022-11-30 20:58:59
,wl-rdm,20,88968,0.0-6.12-0.12,0.0,21.0,,,,,,,[],,,,,,50.0,1.0,i,1.0,True,1269.6000000014901,77.0,60.0,40.0,False,,263.27933789127763,[],"[853.5, 480]",ColorTask,7.0,13.0,,,HRV,HRV_0290,2022-11-30 20:58:59
,wl-rdm,21,91719,0.0-6.13-0.13,0.0,22.0,,,,,,,[],,,,,,62.5,0.0,u,0.0,True,1379.300000000745,83.0,60.0,40.0,False,,297.429532263836,[],"[853.5, 480]",ColorTask,8.0,14.0,,,HRV,HRV_0290,2022-11-30 20:58:59
,wl-rdm,22,94102,0.0-6.14-0.14,0.0,23.0,,,,,,,[],,,,,,62.5,1.0,i,1.0,True,1105.8999999985099,67.0,60.0,40.0,False,,204.27170541262268,[],"[853.5, 480]",ColorTask,9.0,15.0,,,HRV,HRV_0290,2022-11-30 20:58:59
,wl-rdm,23,96969,0.0-6.15-0.15,0.0,24.0,,,,,,,[],,,,,,53.2,0.0,i,1.0,False,1496.199999999255,90.0,60.0,40.0,False,,287.10448805636526,[],"[853.5, 480]",ColorTask,8.0,16.0,,,HRV,HRV_0290,2022-11-30 20:58:59
,wl-rdm,24,99703,0.0-6.16-0.16,0.0,25.0,,,,,,,[],,,,,,50.0,0.0,i,1.0,False,1409.5,85.0,60.0,40.0,False,,245.63446853093765,[],"[853.5, 480]",ColorTask,7.0,17.0,,,HRV,HRV_0290,2022-11-30 20:58:59
,wl-rdm,25,102786,0.0-6.17-0.17,0.0,26.0,,,,,,,[],,,,,,50.0,1.0,u,0.0,False,1662.5,100.0,60.0,40.0,False,,357.96632189823754,[],"[853.5, 480]",ColorTask,6.0,18.0,,,HRV,HRV_0290,2022-11-30 20:58:59
,wl-rdm,26,105670,0.0-6.18-0.18,0.0,27.0,,,,,,,[],,,,,,50.0,0.0,i,1.0,False,1547.7000000029802,93.0,60.0,40.0,False,,267.3436442789449,[],"[853.5, 480]",ColorTask,5.0,19.0,,,HRV,HRV_0290,2022-11-30 20:58:59
,wl-rdm,27,108220,0.0-6.19-0.19,0.0,28.0,,,,,,,[],,,,,,87.9,0.0,u,0.0,True,1095.0999999977648,66.0,60.0,40.0,False,,397.9510880645978,[],"[853.5, 480]",ColorTask,6.0,20.0,,,HRV,HRV_0290,2022-11-30 20:58:59
,wl-rdm,28,111104,0.0-6.20-0.20,0.0,29.0,,,,,,,[],,,,,,56.4,0.0,u,0.0,True,1510.5,91.0,60.0,40.0,False,,295.31828308886423,[],"[853.5, 480]",ColorTask,7.0,21.0,,,HRV,HRV_0290,2022-11-30 20:58:59
,wl-rdm,29,115204,0.0-6.21-0.21,0.0,30.0,,,,,,,[],,,,,,53.2,1.0,i,1.0,True,2685.39999999851,162.0,60.0,40.0,False,,318.38197870557434,[],"[853.5, 480]",ColorTask,8.0,22.0,,,HRV,HRV_0290,2022-11-30 20:58:59
,wl-rdm,30,117571,0.0-6.22-0.22,0.0,31.0,,,,,,,[],,,,,,62.5,1.0,i,1.0,True,1047.3000000044703,63.0,60.0,40.0,False,,234.36441864115028,[],"[853.5, 480]",ColorTask,9.0,23.0,,,HRV,HRV_0290,2022-11-30 20:58:59
,wl-rdm,31,121921,0.0-6.23-0.23,0.0,31.0,,,,,,,[],,,,,,53.2,0.0,u,,,3199.7000000029802,179.0,60.0,40.0,True,RT_timeout ,252.6332446192687,[],"[853.5, 480]",ColorTask,8.0,24.0,,,HRV,HRV_0290,2022-11-30 20:58:59
,wl-rdm,32,124071,0.0-6.24-0.24,0.0,32.0,,,,,,,[],,,,,,87.9,0.0,u,0.0,True,809.3000000007451,49.0,60.0,40.0,False,,268.3560060752881,[],"[853.5, 480]",ColorTask,9.0,25.0,,,HRV,HRV_0290,2022-11-30 20:58:59
,wl-rdm,33,126455,0.0-6.25-0.25,0.0,33.0,,,,,,,[],,,,,,56.4,1.0,i,1.0,True,1019.7999999970198,62.0,60.0,40.0,False,,296.1445339133908,[],"[853.5, 480]",ColorTask,10.0,26.0,,,HRV,HRV_0290,2022-11-30 20:58:59
,wl-rdm,34,129621,0.0-6.26-0.26,0.0,34.0,,,,,,,[],,,,,,56.4,1.0,i,1.0,True,1881.5,113.0,60.0,40.0,False,,228.69203472739363,[],"[853.5, 480]",ColorTask,11.0,27.0,,,HRV,HRV_0290,2022-11-30 20:58:59
,wl-rdm,35,132105,0.0-6.27-0.27,0.0,35.0,,,,,,,[],,,,,,62.5,1.0,i,1.0,True,1081.4000000022352,65.0,60.0,40.0,False,,341.75199974464226,[],"[853.5, 480]",ColorTask,12.0,28.0,,,HRV,HRV_0290,2022-11-30 20:58:59
,wl-rdm,36,135472,0.0-6.28-0.28,0.0,36.0,,,,,,,[],,,,,,56.4,0.0,u,0.0,True,1940.1000000014901,117.0,60.0,40.0,False,,355.7897394557803,[],"[853.5, 480]",ColorTask,13.0,29.0,,,HRV,HRV_0290,2022-11-30 20:58:59
,wl-rdm,37,137705,0.0-6.29-0.29,0.0,37.0,,,,,,,[],,,,,,73.6,1.0,i,1.0,True,920.5,56.0,60.0,40.0,False,,244.71486140376555,[],"[853.5, 480]",ColorTask,14.0,30.0,,,HRV,HRV_0290,2022-11-30 20:58:59
,wl-rdm,38,139739,0.0-6.30-0.30,0.0,38.0,,,,,,,[],,,,,,73.6,0.0,u,0.0,True,735.7000000029802,45.0,60.0,40.0,False,,228.2759996908018,[],"[853.5, 480]",ColorTask,15.0,31.0,,,HRV,HRV_0290,2022-11-30 20:58:59
,wl-rdm,39,141873,0.0-6.31-0.31,0.0,39.0,,,,,,,[],,,,,,87.9,1.0,i,1.0,True,845.1999999992549,51.0,60.0,40.0,False,,217.8150395531681,[],"[853.5, 480]",ColorTask,16.0,32.0,,,HRV,HRV_0290,2022-11-30 20:58:59
,wl-rdm,40,144439,0.0-6.32-0.32,0.0,40.0,,,,,,,[],,,,,,53.2,1.0,i,1.0,True,1275.4999999962747,77.0,60.0,40.0,False,,214.147211815665,[],"[853.5, 480]",ColorTask,17.0,33.0,,,HRV,HRV_0290,2022-11-30 20:58:59
,wl-rdm,41,146539,0.0-6.33-0.33,0.0,41.0,,,,,,,[],,,,,,87.9,0.0,u,0.0,True,788.5999999977648,48.0,60.0,40.0,False,,247.0761626736041,[],"[853.5, 480]",ColorTask,18.0,34.0,,,HRV,HRV_0290,2022-11-30 20:58:59
,wl-rdm,42,149490,0.0-6.34-0.34,0.0,42.0,,,,,,,[],,,,,,62.5,1.0,i,1.0,True,1607.300000000745,97.0,60.0,40.0,False,,278.6417825152393,[],"[853.5, 480]",ColorTask,19.0,35.0,,,HRV,HRV_0290,2022-11-30 20:58:59
,wl-rdm,43,152523,0.0-6.35-0.35,0.0,43.0,,,,,,,[],,,,,,50.0,1.0,u,0.0,False,1574.199999999255,95.0,60.0,40.0,False,,387.8762576850681,[],"[853.5, 480]",ColorTask,18.0,36.0,,,HRV,HRV_0290,2022-11-30 20:58:59
,wl-rdm,44,155858,0.0-6.36-0.36,0.0,44.0,,,,,,,[],,,,,,56.4,0.0,u,0.0,True,1881.6000000014901,113.0,60.0,40.0,False,,368.1062461815648,[],"[853.5, 480]",ColorTask,19.0,37.0,,,HRV,HRV_0290,2022-11-30 20:58:59
,wl-rdm,45,158974,0.0-6.37-0.37,0.0,45.0,,,,,,,[],,,,,,62.5,0.0,u,0.0,True,1719.7999999970198,104.0,60.0,40.0,False,,311.98028897752874,[],"[853.5, 480]",ColorTask,20.0,38.0,,,HRV,HRV_0290,2022-11-30 20:58:59
,wl-rdm,46,161141,0.0-6.38-0.38,0.0,46.0,,,,,,,[],,,,,,87.9,1.0,i,1.0,True,853.9000000022352,52.0,60.0,40.0,False,,230.70763640682043,[],"[853.5, 480]",ColorTask,21.0,39.0,,,HRV,HRV_0290,2022-11-30 20:58:59
,wl-rdm,47,163357,0.0-6.39-0.39,0.0,47.0,,,,,,,[],,,,,,73.6,1.0,i,1.0,True,747.3999999985099,45.0,60.0,40.0,False,,393.2364775782097,[],"[853.5, 480]",ColorTask,22.0,40.0,,,HRV,HRV_0290,2022-11-30 20:58:59
,wl-rdm,48,166674,0.0-6.40-0.40,0.0,48.0,,,,,,,[],,,,,,56.4,0.0,i,1.0,False,1918.8999999985099,116.0,60.0,40.0,False,,300.42426152000485,[],"[853.5, 480]",ColorTask,21.0,41.0,,,HRV,HRV_0290,2022-11-30 20:58:59
,wl-rdm,49,169541,0.0-6.41-0.41,0.0,49.0,,,,,,,[],,,,,,56.4,1.0,i,1.0,True,1532.6999999955297,92.0,60.0,40.0,False,,256.4033030106217,[],"[853.5, 480]",ColorTask,22.0,42.0,,,HRV,HRV_0290,2022-11-30 20:58:59
,wl-rdm,50,172725,0.0-6.42-0.42,0.0,50.0,,,,,,,[],,,,,,62.5,1.0,i,1.0,True,1846.800000000745,111.0,60.0,40.0,False,,260.54026855552496,[],"[853.5, 480]",ColorTask,23.0,43.0,,,HRV,HRV_0290,2022-11-30 20:58:59
,wl-rdm,51,175658,0.0-6.43-0.43,0.0,51.0,,,,,,,[],,,,,,50.0,0.0,u,0.0,True,1605.800000000745,97.0,60.0,40.0,False,,255.38645563078185,[],"[853.5, 480]",ColorTask,24.0,44.0,,,HRV,HRV_0290,2022-11-30 20:58:59
,wl-rdm,52,177858,0.0-6.44-0.44,0.0,52.0,,,,,,,[],,,,,,87.9,1.0,i,1.0,True,838.4000000022352,51.0,60.0,40.0,False,,278.5462540877373,[],"[853.5, 480]",ColorTask,25.0,45.0,,,HRV,HRV_0290,2022-11-30 20:58:59
,wl-rdm,53,180076,0.0-6.45-0.45,0.0,53.0,,,,,,,[],,,,,,73.6,0.0,u,0.0,True,919.6000000014901,56.0,60.0,40.0,False,,220.00765304711038,[],"[853.5, 480]",ColorTask,26.0,46.0,,,HRV,HRV_0290,2022-11-30 20:58:59
,wl-rdm,54,182396,0.0-6.46-0.46,0.0,54.0,,,,,,,[],,,,,,73.6,0.0,u,0.0,True,1030.5,62.0,60.0,40.0,False,,223.17095800774945,[],"[853.5, 480]",ColorTask,27.0,47.0,,,HRV,HRV_0290,2022-11-30 20:58:59
,wl-rdm,55,184392,0.0-6.47-0.47,0.0,55.0,,,,,,,[],,,,,,87.9,0.0,u,0.0,True,654.2000000029802,40.0,60.0,40.0,False,,271.5147052713547,[],"[853.5, 480]",ColorTask,28.0,48.0,,,HRV,HRV_0290,2022-11-30 20:58:59
,wl-rdm,56,187593,0.0-6.48-0.48,0.0,56.0,,,,,,,[],,,,,,53.2,1.0,i,1.0,True,1885.6000000014901,114.0,60.0,40.0,False,,230.4373905986059,[],"[853.5, 480]",ColorTask,29.0,49.0,,,HRV,HRV_0290,2022-11-30 20:58:59
,wl-rdm,57,191693,0.0-6.49-0.49,0.0,57.0,,,,,,,[],,,,,,50.0,1.0,u,0.0,False,2702.10000000149,163.0,60.0,40.0,False,,318.88001105732894,[],"[853.5, 480]",ColorTask,28.0,50.0,,,HRV,HRV_0290,2022-11-30 20:58:59
,wl-rdm,58,194410,0.0-6.50-0.50,0.0,58.0,,,,,,,[],,,,,,50.0,1.0,i,1.0,True,1420.8999999985099,86.0,60.0,40.0,False,,202.78873726737112,[],"[853.5, 480]",ColorTask,29.0,51.0,,,HRV,HRV_0290,2022-11-30 20:58:59
,wl-rdm,59,196827,0.0-6.51-0.51,0.0,59.0,,,,,,,[],,,,,,62.5,0.0,u,0.0,True,1077.300000000745,65.0,60.0,40.0,False,,262.1915163099311,[],"[853.5, 480]",ColorTask,30.0,52.0,,,HRV,HRV_0290,2022-11-30 20:58:59
,wl-rdm,60,199843,0.0-6.52-0.52,0.0,60.0,,,,,,,[],,,,,,50.0,1.0,i,1.0,True,1624.0,98.0,60.0,40.0,False,,314.7020043039243,[],"[853.5, 480]",ColorTask,31.0,53.0,,,HRV,HRV_0290,2022-11-30 20:58:59
,wl-rdm,61,202127,0.0-6.53-0.53,0.0,61.0,,,,,,,[],,,,,,87.9,1.0,i,1.0,True,867.0,52.0,60.0,40.0,False,,345.891462477836,[],"[853.5, 480]",ColorTask,32.0,54.0,,,HRV,HRV_0290,2022-11-30 20:58:59
,wl-rdm,62,204744,0.0-6.54-0.54,0.0,62.0,,,,,,,[],,,,,,62.5,1.0,i,1.0,True,1255.6999999955297,76.0,60.0,40.0,False,,297.1849036210032,[],"[853.5, 480]",ColorTask,33.0,55.0,,,HRV,HRV_0290,2022-11-30 20:58:59
,wl-rdm,63,207677,0.0-6.55-0.55,0.0,63.0,,,,,,,[],,,,,,56.4,0.0,i,1.0,False,1573.199999999255,95.0,60.0,40.0,False,,295.01468764600025,[],"[853.5, 480]",ColorTask,32.0,56.0,,,HRV,HRV_0290,2022-11-30 20:58:59
,wl-rdm,64,211261,0.0-6.56-0.56,0.0,64.0,,,,,,,[],,,,,,50.0,0.0,i,1.0,False,2263.0,136.0,60.0,40.0,False,,256.95997115182286,[],"[853.5, 480]",ColorTask,31.0,57.0,,,HRV,HRV_0290,2022-11-30 20:58:59
,wl-rdm,65,214611,0.0-6.57-0.57,0.0,65.0,,,,,,,[],,,,,,56.4,1.0,i,1.0,True,1942.2999999970198,117.0,60.0,40.0,False,,333.8535881162229,[],"[853.5, 480]",ColorTask,32.0,58.0,,,HRV,HRV_0290,2022-11-30 20:58:59
,wl-rdm,66,217845,0.0-6.58-0.58,0.0,66.0,,,,,,,[],,,,,,53.2,0.0,u,0.0,True,1870.4999999962747,113.0,60.0,40.0,False,,298.20383799976634,[],"[853.5, 480]",ColorTask,33.0,59.0,,,HRV,HRV_0290,2022-11-30 20:58:59
,wl-rdm,67,220562,0.0-6.59-0.59,0.0,67.0,,,,,,,[],,,,,,73.6,1.0,i,1.0,True,1426.5,86.0,60.0,40.0,False,,231.79263433051713,[],"[853.5, 480]",ColorTask,34.0,60.0,,,HRV,HRV_0290,2022-11-30 20:58:59
,wl-rdm,68,222695,0.0-6.60-0.60,0.0,68.0,,,,,,,[],,,,,,87.9,0.0,u,0.0,True,815.4000000022352,49.0,60.0,40.0,False,,252.80340686980585,[],"[853.5, 480]",ColorTask,35.0,61.0,,,HRV,HRV_0290,2022-11-30 20:58:59
,wl-rdm,69,224962,0.0-6.61-0.61,0.0,69.0,,,,,,,[],,,,,,53.2,1.0,i,1.0,True,926.9000000022352,56.0,60.0,40.0,False,,276.8903979824332,[],"[853.5, 480]",ColorTask,36.0,62.0,,,HRV,HRV_0290,2022-11-30 20:58:59
,wl-rdm,70,227045,0.0-6.62-0.62,0.0,70.0,,,,,,,[],,,,,,73.6,1.0,i,1.0,True,813.3999999985099,49.0,60.0,40.0,False,,211.52154196229645,[],"[853.5, 480]",ColorTask,37.0,63.0,,,HRV,HRV_0290,2022-11-30 20:58:59
,wl-rdm,71,229296,0.0-6.63-0.63,0.0,71.0,,,,,,,[],,,,,,73.6,0.0,u,0.0,True,901.9000000022352,55.0,60.0,40.0,False,,276.462642046817,[],"[853.5, 480]",ColorTask,38.0,64.0,,,HRV,HRV_0290,2022-11-30 20:58:59
,wl-rdm,72,232162,0.0-6.64-0.64,0.0,72.0,,,,,,,[],,,,,,53.2,0.0,u,0.0,True,1538.1000000014901,93.0,60.0,40.0,False,,266.0010358457879,[],"[853.5, 480]",ColorTask,39.0,65.0,,,HRV,HRV_0290,2022-11-30 20:58:59
,wl-rdm,73,235013,0.0-6.65-0.65,0.0,73.0,,,,,,,[],,,,,,62.5,0.0,u,0.0,True,1537.5,93.0,60.0,40.0,False,,231.68935215164177,[],"[853.5, 480]",ColorTask,40.0,66.0,,,HRV,HRV_0290,2022-11-30 20:58:59
,wl-rdm,74,237280,0.0-6.66-0.66,0.0,74.0,,,,,,,[],,,,,,73.6,0.0,u,0.0,True,861.6000000014901,52.0,60.0,40.0,False,,338.54670482790766,[],"[853.5, 480]",ColorTask,41.0,67.0,,,HRV,HRV_0290,2022-11-30 20:58:59
,wl-rdm,75,239413,0.0-6.67-0.67,0.0,75.0,,,,,,,[],,,,,,73.6,1.0,i,1.0,True,760.6999999992549,46.0,60.0,40.0,False,,294.5399261054795,[],"[853.5, 480]",ColorTask,42.0,68.0,,,HRV,HRV_0290,2022-11-30 20:58:59
,wl-rdm,76,241846,0.0-6.68-0.68,0.0,76.0,,,,,,,[],,,,,,50.0,0.0,i,1.0,False,1089.4000000022352,66.0,60.0,40.0,False,,279.2569554296579,[],"[853.5, 480]",ColorTask,41.0,69.0,,,HRV,HRV_0290,2022-11-30 20:58:59
,wl-rdm,77,244180,0.0-6.69-0.69,0.0,77.0,,,,,,,[],,,,,,53.2,0.0,u,0.0,True,1000.1000000014901,60.0,60.0,40.0,False,,261.12687835061314,[],"[853.5, 480]",ColorTask,42.0,70.0,,,HRV,HRV_0290,2022-11-30 20:58:59
,wl-rdm,78,247814,0.0-6.70-0.70,0.0,78.0,,,,,,,[],,,,,,53.2,0.0,i,1.0,False,2292.400000002235,138.0,60.0,40.0,False,,260.72748644871484,[],"[853.5, 480]",ColorTask,41.0,71.0,,,HRV,HRV_0290,2022-11-30 20:58:59
,wl-rdm,79,250097,0.0-6.71-0.71,0.0,79.0,,,,,,,[],,,,,,73.6,1.0,i,1.0,True,942.0000000037253,57.0,60.0,40.0,False,,262.008357955114,[],"[853.5, 480]",ColorTask,42.0,72.0,,,HRV,HRV_0290,2022-11-30 20:58:59
,wl-rdm,80,252314,0.0-6.72-0.72,0.0,80.0,,,,,,,[],,,,,,56.4,1.0,i,1.0,True,841.8999999985099,51.0,60.0,40.0,False,,296.32600186481415,[],"[853.5, 480]",ColorTask,43.0,73.0,,,HRV,HRV_0290,2022-11-30 20:58:59
,wl-rdm,81,254314,0.0-6.73-0.73,0.0,81.0,,,,,,,[],,,,,,87.9,1.0,i,1.0,True,715.6000000014901,43.0,60.0,40.0,False,,228.21570625255234,[],"[853.5, 480]",ColorTask,44.0,74.0,,,HRV,HRV_0290,2022-11-30 20:58:59
,wl-rdm,82,257032,0.0-6.74-0.74,0.0,82.0,,,,,,,[],,,,,,53.2,1.0,u,0.0,False,1354.8999999985099,82.0,60.0,40.0,False,,273.2198604241723,[],"[853.5, 480]",ColorTask,43.0,75.0,,,HRV,HRV_0290,2022-11-30 20:58:59
,wl-rdm,83,259264,0.0-6.75-0.75,0.0,83.0,,,,,,,[],,,,,,73.6,1.0,i,1.0,True,836.4999999962747,51.0,60.0,40.0,False,,312.57178231784883,[],"[853.5, 480]",ColorTask,44.0,76.0,,,HRV,HRV_0290,2022-11-30 20:58:59
,wl-rdm,84,261531,0.0-6.76-0.76,0.0,84.0,,,,,,,[],,,,,,62.5,0.0,u,0.0,True,963.9999999962747,58.0,60.0,40.0,False,,226.80485873767532,[],"[853.5, 480]",ColorTask,45.0,77.0,,,HRV,HRV_0290,2022-11-30 20:58:59
,wl-rdm,85,263598,0.0-6.77-0.77,0.0,85.0,,,,,,,[],,,,,,87.9,0.0,u,0.0,True,689.8000000007451,42.0,60.0,40.0,False,,316.4687445332885,[],"[853.5, 480]",ColorTask,46.0,78.0,,,HRV,HRV_0290,2022-11-30 20:58:59
,wl-rdm,86,265948,0.0-6.78-0.78,0.0,86.0,,,,,,,[],,,,,,62.5,1.0,i,1.0,True,870.3999999985099,53.0,60.0,40.0,False,,394.06968398371265,[],"[853.5, 480]",ColorTask,47.0,79.0,,,HRV,HRV_0290,2022-11-30 20:58:59
,wl-rdm,87,268832,0.0-6.79-0.79,0.0,87.0,,,,,,,[],,,,,,62.5,0.0,u,0.0,True,1437.0,87.0,60.0,40.0,False,,373.0159901266064,[],"[853.5, 480]",ColorTask,48.0,80.0,,,HRV,HRV_0290,2022-11-30 20:58:59
,wl-rdm,88,271649,0.0-6.80-0.80,0.0,88.0,,,,,,,[],,,,,,50.0,0.0,i,1.0,False,1496.5,90.0,60.0,40.0,False,,264.81892098321407,[],"[853.5, 480]",ColorTask,47.0,81.0,,,HRV,HRV_0290,2022-11-30 20:58:59
,wl-rdm,89,275283,0.0-6.81-0.81,0.0,89.0,,,,,,,[],,,,,,50.0,0.0,i,1.0,False,2225.599999997765,134.0,60.0,40.0,False,,325.9460292549367,[],"[853.5, 480]",ColorTask,46.0,82.0,,,HRV,HRV_0290,2022-11-30 20:58:59
,wl-rdm,90,278316,0.0-6.82-0.82,0.0,90.0,,,,,,,[],,,,,,50.0,1.0,u,0.0,False,1613.4999999962747,97.0,60.0,40.0,False,,365.272604438445,[],"[853.5, 480]",ColorTask,45.0,83.0,,,HRV,HRV_0290,2022-11-30 20:58:59
,wl-rdm,91,281933,0.0-6.83-0.83,0.0,91.0,,,,,,,[],,,,,,53.2,1.0,i,1.0,True,2196.10000000149,132.0,60.0,40.0,False,,353.0736335672756,[],"[853.5, 480]",ColorTask,46.0,84.0,,,HRV,HRV_0290,2022-11-30 20:58:59
,wl-rdm,92,285385,0.0-6.84-0.84,0.0,92.0,,,,,,,[],,,,,,53.2,1.0,u,0.0,False,2103.1999999955297,127.0,60.0,40.0,False,,250.42992529706075,[],"[853.5, 480]",ColorTask,45.0,85.0,,,HRV,HRV_0290,2022-11-30 20:58:59
,wl-rdm,93,288300,0.0-6.85-0.85,0.0,93.0,,,,,,,[],,,,,,56.4,1.0,i,1.0,True,1587.699999999255,96.0,60.0,40.0,False,,266.6851795085123,[],"[853.5, 480]",ColorTask,46.0,86.0,,,HRV,HRV_0290,2022-11-30 20:58:59
,wl-rdm,94,290484,0.0-6.86-0.86,0.0,94.0,,,,,,,[],,,,,,73.6,1.0,i,1.0,True,740.0,45.0,60.0,40.0,False,,371.8789628712758,[],"[853.5, 480]",ColorTask,47.0,87.0,,,HRV,HRV_0290,2022-11-30 20:58:59
,wl-rdm,95,293150,0.0-6.87-0.87,0.0,95.0,,,,,,,[],,,,,,56.4,0.0,u,0.0,True,1375.300000000745,83.0,60.0,40.0,False,,218.9471307590793,[],"[853.5, 480]",ColorTask,48.0,88.0,,,HRV,HRV_0290,2022-11-30 20:58:59
,wl-rdm,96,296317,0.0-6.88-0.88,0.0,96.0,,,,,,,[],,,,,,50.0,1.0,i,1.0,True,1819.9000000022352,110.0,60.0,40.0,False,,260.75749456397136,[],"[853.5, 480]",ColorTask,49.0,89.0,,,HRV,HRV_0290,2022-11-30 20:58:59
,wl-rdm,97,298551,0.0-6.89-0.89,0.0,97.0,,,,,,,[],,,,,,87.9,1.0,i,1.0,True,836.2000000029802,51.0,60.0,40.0,False,,329.40812961083543,[],"[853.5, 480]",ColorTask,50.0,90.0,,,HRV,HRV_0290,2022-11-30 20:58:59
,wl-rdm,98,302368,0.0-6.90-0.90,0.0,98.0,,,,,,,[],,,,,,53.2,0.0,u,0.0,True,2531.7999999970198,152.0,60.0,40.0,False,,200.38320527464427,[],"[853.5, 480]",ColorTask,51.0,91.0,,,HRV,HRV_0290,2022-11-30 20:58:59
,wl-rdm,99,304585,0.0-6.91-0.91,0.0,99.0,,,,,,,[],,,,,,73.6,0.0,u,0.0,True,794.7999999970198,48.0,60.0,40.0,False,,339.0601204445163,[],"[853.5, 480]",ColorTask,52.0,92.0,,,HRV,HRV_0290,2022-11-30 20:58:59
,wl-rdm,100,308052,0.0-6.92-0.92,0.0,100.0,,,,,,,[],,,,,,56.4,1.0,i,1.0,True,2123.7999999970198,128.0,60.0,40.0,False,,250.7057073817267,[],"[853.5, 480]",ColorTask,53.0,93.0,,,HRV,HRV_0290,2022-11-30 20:58:59
,wl-rdm,101,311768,0.0-6.93-0.93,0.0,101.0,,,,,,,[],,,,,,53.2,0.0,i,1.0,False,2385.800000000745,144.0,60.0,40.0,False,,252.18186998247177,[],"[853.5, 480]",ColorTask,52.0,94.0,,,HRV,HRV_0290,2022-11-30 20:58:59
,wl-rdm,102,315535,0.0-6.94-0.94,0.0,102.0,,,,,,,[],,,,,,56.4,1.0,i,1.0,True,2362.199999999255,142.0,60.0,40.0,False,,319.06240604722785,[],"[853.5, 480]",ColorTask,53.0,95.0,,,HRV,HRV_0290,2022-11-30 20:58:59
,wl-rdm,103,317869,0.0-6.95-0.95,0.0,103.0,,,,,,,[],,,,,,50.0,0.0,i,1.0,False,1029.2999999970198,62.0,60.0,40.0,False,,236.01566223578385,[],"[853.5, 480]",ColorTask,52.0,96.0,,,HRV,HRV_0290,2022-11-30 20:58:59
,wl-rdm,104,319886,0.0-6.96-0.96,0.0,104.0,,,,,,,[],,,,,,87.9,1.0,i,1.0,True,705.0999999977648,43.0,60.0,40.0,False,,234.84176366422193,[],"[853.5, 480]",ColorTask,53.0,97.0,,,HRV,HRV_0290,2022-11-30 20:58:59
,wl-rdm,105,322203,0.0-6.97-0.97,0.0,105.0,,,,,,,[],,,,,,73.6,1.0,i,1.0,True,955.5,58.0,60.0,40.0,False,,271.7631266629377,[],"[853.5, 480]",ColorTask,54.0,98.0,,,HRV,HRV_0290,2022-11-30 20:58:59
,wl-rdm,106,326003,0.0-6.98-0.98,0.0,106.0,,,,,,,[],,,,,,53.2,1.0,i,1.0,True,2474.300000000745,149.0,60.0,40.0,False,,252.39221595332586,[],"[853.5, 480]",ColorTask,55.0,99.0,,,HRV,HRV_0290,2022-11-30 20:58:59
,wl-rdm,107,328271,0.0-6.99-0.99,0.0,107.0,,,,,,,[],,,,,,87.9,0.0,u,0.0,True,912.7999999970198,55.0,60.0,40.0,False,,295.05682859738073,[],"[853.5, 480]",ColorTask,56.0,100.0,,,HRV,HRV_0290,2022-11-30 20:58:59
,wl-rdm,108,330703,0.0-6.100-0.100,0.0,108.0,,,,,,,[],,,,,,62.5,0.0,u,0.0,True,1134.5,69.0,60.0,40.0,False,,213.2790413391761,[],"[853.5, 480]",ColorTask,57.0,101.0,,,HRV,HRV_0290,2022-11-30 20:58:59
,wl-rdm,109,334020,0.0-6.101-0.101,0.0,109.0,,,,,,,[],,,,,,56.4,0.0,u,0.0,True,1870.3999999985099,113.0,60.0,40.0,False,,381.2874415387557,[],"[853.5, 480]",ColorTask,58.0,102.0,,,HRV,HRV_0290,2022-11-30 20:58:59
,wl-rdm,110,336620,0.0-6.102-0.102,0.0,110.0,,,,,,,[],,,,,,87.9,0.0,u,0.0,True,1197.300000000745,72.0,60.0,40.0,False,,321.51889342427023,[],"[853.5, 480]",ColorTask,59.0,103.0,,,HRV,HRV_0290,2022-11-30 20:58:59
,wl-rdm,111,339921,0.0-6.103-0.103,0.0,111.0,,,,,,,[],,,,,,56.4,1.0,i,1.0,True,2004.7000000029802,121.0,60.0,40.0,False,,226.53826261072592,[],"[853.5, 480]",ColorTask,60.0,104.0,,,HRV,HRV_0290,2022-11-30 20:58:59
,wl-rdm,112,343405,0.0-6.104-0.104,0.0,112.0,,,,,,,[],,,,,,73.6,0.0,u,0.0,True,2026.6000000014901,122.0,60.0,40.0,False,,380.7038528860305,[],"[853.5, 480]",ColorTask,61.0,105.0,,,HRV,HRV_0290,2022-11-30 20:58:59
,wl-rdm,113,345671,0.0-6.105-0.105,0.0,113.0,,,,,,,[],,,,,,87.9,1.0,i,1.0,True,910.2000000029802,55.0,60.0,40.0,False,,288.0492159188909,[],"[853.5, 480]",ColorTask,62.0,106.0,,,HRV,HRV_0290,2022-11-30 20:58:59
,wl-rdm,114,349305,0.0-6.106-0.106,0.0,114.0,,,,,,,[],,,,,,53.2,0.0,i,1.0,False,2323.39999999851,140.0,60.0,40.0,False,,236.8470806087767,[],"[853.5, 480]",ColorTask,61.0,107.0,,,HRV,HRV_0290,2022-11-30 20:58:59
,wl-rdm,115,353738,0.0-6.107-0.107,0.0,115.0,,,,,,,[],,,,,,50.0,0.0,i,1.0,False,3010.7999999970198,179.0,60.0,40.0,False,,341.90807987246677,[],"[853.5, 480]",ColorTask,60.0,108.0,,,HRV,HRV_0290,2022-11-30 20:58:59
,wl-rdm,116,356072,0.0-6.108-0.108,0.0,116.0,,,,,,,[],,,,,,62.5,0.0,u,0.0,True,886.3000000007451,54.0,60.0,40.0,False,,372.07385218625546,[],"[853.5, 480]",ColorTask,61.0,109.0,,,HRV,HRV_0290,2022-11-30 20:58:59
,wl-html-keyboard-response,117,364608,0.0-7.0-0.0,1.0,117.0,,,,,,,,6526.300000000745,1.0,0,,,,,,,,,,,,,,,,,,,,,,HRV,HRV_0290,2022-11-30 20:58:59
,wl-rdm,118,367306,0.0-8.0-0.0,1.0,118.0,,,,,,,[],,,,,,56.4,1.0,i,1.0,True,1407.699999999255,85.0,60.0,40.0,False,,227.7120706120974,[],"[853.5, 480]",ColorTask,62.0,1.0,,,HRV,HRV_0290,2022-11-30 20:58:59
,wl-rdm,119,370406,0.0-8.1-0.1,1.0,119.0,,,,,,,[],,,,,,56.4,0.0,u,0.0,True,1760.5,106.0,60.0,40.0,False,,253.87296031529908,[],"[853.5, 480]",ColorTask,63.0,2.0,,,HRV,HRV_0290,2022-11-30 20:58:59
,wl-rdm,120,372540,0.0-8.2-0.2,1.0,120.0,,,,,,,[],,,,,,87.9,1.0,i,1.0,True,726.5,44.0,60.0,40.0,False,,332.60693222506484,[],"[853.5, 480]",ColorTask,64.0,3.0,,,HRV,HRV_0290,2022-11-30 20:58:59
,wl-rdm,121,375390,0.0-8.3-0.3,1.0,121.0,,,,,,,[],,,,,,53.2,0.0,u,0.0,True,1405.5,85.0,60.0,40.0,False,,354.65526929598695,[],"[853.5, 480]",ColorTask,65.0,4.0,,,HRV,HRV_0290,2022-11-30 20:58:59
,wl-rdm,122,377790,0.0-8.4-0.4,1.0,122.0,,,,,,,[],,,,,,62.5,1.0,i,1.0,True,1083.6000000014901,65.0,60.0,40.0,False,,244.1497936290786,[],"[853.5, 480]",ColorTask,66.0,5.0,,,HRV,HRV_0290,2022-11-30 20:58:59
,wl-rdm,123,380857,0.0-8.5-0.5,1.0,123.0,,,,,,,[],,,,,,53.2,1.0,u,0.0,False,1705.0,103.0,60.0,40.0,False,,286.1074305595831,[],"[853.5, 480]",ColorTask,65.0,6.0,,,HRV,HRV_0290,2022-11-30 20:58:59
,wl-rdm,124,383407,0.0-8.6-0.6,1.0,124.0,,,,,,,[],,,,,,73.6,0.0,u,0.0,True,1104.0,67.0,60.0,40.0,False,,353.1938375305365,[],"[853.5, 480]",ColorTask,66.0,7.0,,,HRV,HRV_0290,2022-11-30 20:58:59
,wl-rdm,125,385590,0.0-8.7-0.7,1.0,125.0,,,,,,,[],,,,,,87.9,1.0,i,1.0,True,786.6999999992549,48.0,60.0,40.0,False,,311.02760980457384,[],"[853.5, 480]",ColorTask,67.0,8.0,,,HRV,HRV_0290,2022-11-30 20:58:59
,wl-rdm,126,387907,0.0-8.8-0.8,1.0,126.0,,,,,,,[],,,,,,73.6,0.0,u,0.0,True,1041.2999999970198,63.0,60.0,40.0,False,,206.63269112186495,[],"[853.5, 480]",ColorTask,68.0,9.0,,,HRV,HRV_0290,2022-11-30 20:58:59
,wl-rdm,127,392191,0.0-8.9-0.9,1.0,127.0,,,,,,,[],,,,,,53.2,0.0,u,0.0,True,2889.4999999962747,174.0,60.0,40.0,False,,326.8169157807563,[],"[853.5, 480]",ColorTask,69.0,10.0,,,HRV,HRV_0290,2022-11-30 20:58:59
,wl-rdm,128,394358,0.0-8.10-0.10,1.0,128.0,,,,,,,[],,,,,,87.9,1.0,i,1.0,True,753.8999999985099,46.0,60.0,40.0,False,,333.58493316775935,[],"[853.5, 480]",ColorTask,70.0,11.0,,,HRV,HRV_0290,2022-11-30 20:58:59
,wl-rdm,129,396408,0.0-8.11-0.11,1.0,129.0,,,,,,,[],,,,,,87.9,1.0,i,1.0,True,724.0,44.0,60.0,40.0,False,,260.8099016091902,[],"[853.5, 480]",ColorTask,71.0,12.0,,,HRV,HRV_0290,2022-11-30 20:58:59
,wl-rdm,130,398592,0.0-8.12-0.12,1.0,130.0,,,,,,,[],,,,,,87.9,0.0,u,0.0,True,855.4999999962747,52.0,60.0,40.0,False,,259.0026231860467,[],"[853.5, 480]",ColorTask,72.0,13.0,,,HRV,HRV_0290,2022-11-30 20:58:59
,wl-rdm,131,402175,0.0-8.13-0.13,1.0,131.0,,,,,,,[],,,,,,62.5,1.0,i,1.0,True,2198.099999997765,132.0,60.0,40.0,False,,311.8508712645872,[],"[853.5, 480]",ColorTask,73.0,14.0,,,HRV,HRV_0290,2022-11-30 20:58:59
,wl-rdm,132,404208,0.0-8.14-0.14,1.0,132.0,,,,,,,[],,,,,,87.9,1.0,i,1.0,True,730.5,44.0,60.0,40.0,False,,230.40412506892537,[],"[853.5, 480]",ColorTask,74.0,15.0,,,HRV,HRV_0290,2022-11-30 20:58:59
,wl-rdm,133,408509,0.0-8.15-0.15,1.0,132.0,,,,,,,[],,,,,,53.2,0.0,u,,,3136.900000002235,179.0,60.0,40.0,True,RT_timeout ,202.04829596698076,[],"[853.5, 480]",ColorTask,73.0,16.0,,,HRV,HRV_0290,2022-11-30 20:58:59
,wl-rdm,134,410876,0.0-8.16-0.16,1.0,133.0,,,,,,,[],,,,,,73.6,0.0,u,0.0,True,966.0,58.0,60.0,40.0,False,,328.24628784685046,[],"[853.5, 480]",ColorTask,74.0,17.0,,,HRV,HRV_0290,2022-11-30 20:58:59
,wl-rdm,135,413159,0.0-8.17-0.17,1.0,134.0,,,,,,,[],,,,,,62.5,1.0,i,1.0,True,816.2999999970198,49.0,60.0,40.0,False,,399.45092537393253,[],"[853.5, 480]",ColorTask,75.0,18.0,,,HRV,HRV_0290,2022-11-30 20:58:59
,wl-rdm,136,415759,0.0-8.18-0.18,1.0,135.0,,,,,,,[],,,,,,62.5,1.0,i,1.0,True,1301.8999999985099,79.0,60.0,40.0,False,,210.11343356395443,[],"[853.5, 480]",ColorTask,76.0,19.0,,,HRV,HRV_0290,2022-11-30 20:58:59
,wl-rdm,137,418659,0.0-8.19-0.19,1.0,136.0,,,,,,,[],,,,,,53.2,1.0,i,1.0,True,1581.199999999255,95.0,60.0,40.0,False,,245.3654250018884,[],"[853.5, 480]",ColorTask,77.0,20.0,,,HRV,HRV_0290,2022-11-30 20:58:59
,wl-rdm,138,421360,0.0-8.20-0.20,1.0,137.0,,,,,,,[],,,,,,56.4,1.0,i,1.0,True,1424.6999999955297,86.0,60.0,40.0,False,,213.31050794772617,[],"[853.5, 480]",ColorTask,78.0,21.0,,,HRV,HRV_0290,2022-11-30 20:58:59
,wl-rdm,139,424160,0.0-8.21-0.21,1.0,138.0,,,,,,,[],,,,,,53.2,0.0,u,0.0,True,1478.9000000022352,89.0,60.0,40.0,False,,236.69440118854357,[],"[853.5, 480]",ColorTask,79.0,22.0,,,HRV,HRV_0290,2022-11-30 20:58:59
,wl-rdm,140,427294,0.0-8.22-0.22,1.0,139.0,,,,,,,[],,,,,,50.0,0.0,i,1.0,False,1654.5,100.0,60.0,40.0,False,,394.0318700580751,[],"[853.5, 480]",ColorTask,78.0,23.0,,,HRV,HRV_0290,2022-11-30 20:58:59
,wl-rdm,141,430094,0.0-8.23-0.23,1.0,140.0,,,,,,,[],,,,,,62.5,1.0,i,1.0,True,1374.9000000022352,83.0,60.0,40.0,False,,363.2019317976522,[],"[853.5, 480]",ColorTask,79.0,24.0,,,HRV,HRV_0290,2022-11-30 20:58:59
,wl-rdm,142,432344,0.0-8.24-0.24,1.0,141.0,,,,,,,[],,,,,,56.4,0.0,u,0.0,True,836.8999999985099,51.0,60.0,40.0,False,,332.1323382706838,[],"[853.5, 480]",ColorTask,80.0,25.0,,,HRV,HRV_0290,2022-11-30 20:58:59
,wl-rdm,143,434794,0.0-8.25-0.25,1.0,142.0,,,,,,,[],,,,,,73.6,1.0,i,1.0,True,1124.800000000745,68.0,60.0,40.0,False,,245.7336371310681,[],"[853.5, 480]",ColorTask,81.0,26.0,,,HRV,HRV_0290,2022-11-30 20:58:59
,wl-rdm,144,436978,0.0-8.26-0.26,1.0,143.0,,,,,,,[],,,,,,73.6,0.0,u,0.0,True,836.6999999992549,51.0,60.0,40.0,False,,254.72581922703347,[],"[853.5, 480]",ColorTask,82.0,27.0,,,HRV,HRV_0290,2022-11-30 20:58:59
,wl-rdm,145,440195,0.0-8.27-0.27,1.0,144.0,,,,,,,[],,,,,,50.0,1.0,i,1.0,True,1909.0,115.0,60.0,40.0,False,,235.55552440825716,[],"[853.5, 480]",ColorTask,83.0,28.0,,,HRV,HRV_0290,2022-11-30 20:58:59
,wl-rdm,146,443111,0.0-8.28-0.28,1.0,145.0,,,,,,,[],,,,,,62.5,0.0,u,0.0,True,1576.2999999970198,95.0,60.0,40.0,False,,283.6301501319821,[],"[853.5, 480]",ColorTask,84.0,29.0,,,HRV,HRV_0290,2022-11-30 20:58:59
,wl-rdm,147,446846,0.0-8.29-0.29,1.0,146.0,,,,,,,[],,,,,,50.0,1.0,i,1.0,True,2417.89999999851,146.0,60.0,40.0,False,,242.3577488015925,[],"[853.5, 480]",ColorTask,85.0,30.0,,,HRV,HRV_0290,2022-11-30 20:58:59
,wl-rdm,148,448912,0.0-8.30-0.30,1.0,147.0,,,,,,,[],,,,,,87.9,0.0,u,0.0,True,737.5999999977648,45.0,60.0,40.0,False,,253.61954815564434,[],"[853.5, 480]",ColorTask,86.0,31.0,,,HRV,HRV_0290,2022-11-30 20:58:59
,wl-rdm,149,451162,0.0-8.31-0.31,1.0,148.0,,,,,,,[],,,,,,62.5,0.0,u,0.0,True,895.5999999977648,54.0,60.0,40.0,False,,298.3582037372481,[],"[853.5, 480]",ColorTask,87.0,32.0,,,HRV,HRV_0290,2022-11-30 20:58:59
,wl-rdm,150,454012,0.0-8.32-0.32,1.0,149.0,,,,,,,[],,,,,,53.2,1.0,i,1.0,True,1482.4999999962747,89.0,60.0,40.0,False,,305.1879172553247,[],"[853.5, 480]",ColorTask,88.0,33.0,,,HRV,HRV_0290,2022-11-30 20:58:59
,wl-rdm,151,456229,0.0-8.33-0.33,1.0,150.0,,,,,,,[],,,,,,73.6,0.0,u,0.0,True,746.9000000022352,45.0,60.0,40.0,False,,395.1135489474195,[],"[853.5, 480]",ColorTask,89.0,34.0,,,HRV,HRV_0290,2022-11-30 20:58:59
,wl-rdm,152,459146,0.0-8.34-0.34,1.0,151.0,,,,,,,[],,,,,,50.0,1.0,i,1.0,True,1483.199999999255,89.0,60.0,40.0,False,,364.6855146758527,[],"[853.5, 480]",ColorTask,90.0,35.0,,,HRV,HRV_0290,2022-11-30 20:58:59
,wl-rdm,153,461830,0.0-8.35-0.35,1.0,152.0,,,,,,,[],,,,,,50.0,1.0,u,0.0,False,1260.2999999970198,76.0,60.0,40.0,False,,352.6159194305569,[],"[853.5, 480]",ColorTask,89.0,36.0,,,HRV,HRV_0290,2022-11-30 20:58:59
,wl-rdm,154,464030,0.0-8.36-0.36,1.0,153.0,,,,,,,[],,,,,,73.6,0.0,u,0.0,True,894.0,54.0,60.0,40.0,False,,229.17229068588475,[],"[853.5, 480]",ColorTask,90.0,37.0,,,HRV,HRV_0290,2022-11-30 20:58:59
,wl-rdm,155,466213,0.0-8.37-0.37,1.0,154.0,,,,,,,[],,,,,,73.6,1.0,i,1.0,True,902.8000000007451,55.0,60.0,40.0,False,,212.55831121443288,[],"[853.5, 480]",ColorTask,91.0,38.0,,,HRV,HRV_0290,2022-11-30 20:58:59
,wl-rdm,156,469064,0.0-8.38-0.38,1.0,155.0,,,,,,,[],,,,,,62.5,0.0,u,0.0,True,1492.7999999970198,90.0,60.0,40.0,False,,296.3844203766299,[],"[853.5, 480]",ColorTask,92.0,39.0,,,HRV,HRV_0290,2022-11-30 20:58:59
,wl-rdm,157,471264,0.0-8.39-0.39,1.0,156.0,,,,,,,[],,,,,,87.9,0.0,u,0.0,True,821.5999999977648,50.0,60.0,40.0,False,,285.8865914341361,[],"[853.5, 480]",ColorTask,93.0,40.0,,,HRV,HRV_0290,2022-11-30 20:58:59
,wl-rdm,158,474814,0.0-8.40-0.40,1.0,157.0,,,,,,,[],,,,,,62.5,0.0,u,0.0,True,2149.599999997765,129.0,60.0,40.0,False,,331.7673492174565,[],"[853.5, 480]",ColorTask,94.0,41.0,,,HRV,HRV_0290,2022-11-30 20:58:59
,wl-rdm,159,477481,0.0-8.41-0.41,1.0,158.0,,,,,,,[],,,,,,73.6,1.0,i,1.0,True,1285.9000000022352,78.0,60.0,40.0,False,,311.5399154184965,[],"[853.5, 480]",ColorTask,95.0,42.0,,,HRV,HRV_0290,2022-11-30 20:58:59
,wl-rdm,160,480831,0.0-8.42-0.42,1.0,159.0,,,,,,,[],,,,,,56.4,1.0,i,1.0,True,2070.10000000149,125.0,60.0,40.0,False,,215.45269632896924,[],"[853.5, 480]",ColorTask,96.0,43.0,,,HRV,HRV_0290,2022-11-30 20:58:59
,wl-rdm,161,483915,0.0-8.43-0.43,1.0,160.0,,,,,,,[],,,,,,53.2,0.0,u,0.0,True,1661.300000000745,100.0,60.0,40.0,False,,352.654281733076,[],"[853.5, 480]",ColorTask,97.0,44.0,,,HRV,HRV_0290,2022-11-30 20:58:59
,wl-rdm,162,487098,0.0-8.44-0.44,1.0,161.0,,,,,,,[],,,,,,56.4,0.0,i,1.0,False,1825.3000000044703,110.0,60.0,40.0,False,,292.34651662650083,[],"[853.5, 480]",ColorTask,96.0,45.0,,,HRV,HRV_0290,2022-11-30 20:58:59
,wl-rdm,163,489715,0.0-8.45-0.45,1.0,162.0,,,,,,,[],,,,,,50.0,1.0,u,0.0,False,1172.3999999985099,71.0,60.0,40.0,False,,377.30159112066906,[],"[853.5, 480]",ColorTask,95.0,46.0,,,HRV,HRV_0290,2022-11-30 20:58:59
,wl-rdm,164,493765,0.0-8.46-0.46,1.0,163.0,,,,,,,[],,,,,,62.5,0.0,i,1.0,False,2590.199999999255,156.0,60.0,40.0,False,,368.498192878438,[],"[853.5, 480]",ColorTask,94.0,47.0,,,HRV,HRV_0290,2022-11-30 20:58:59
,wl-rdm,165,495965,0.0-8.47-0.47,1.0,164.0,,,,,,,[],,,,,,87.9,0.0,u,0.0,True,790.1000000014901,48.0,60.0,40.0,False,,327.3553278782679,[],"[853.5, 480]",ColorTask,95.0,48.0,,,HRV,HRV_0290,2022-11-30 20:58:59
,wl-rdm,166,498316,0.0-8.48-0.48,1.0,165.0,,,,,,,[],,,,,,73.6,0.0,u,0.0,True,1025.5,62.0,60.0,40.0,False,,253.62368356814991,[],"[853.5, 480]",ColorTask,96.0,49.0,,,HRV,HRV_0290,2022-11-30 20:58:59
,wl-rdm,167,500416,0.0-8.49-0.49,1.0,166.0,,,,,,,[],,,,,,87.9,0.0,u,0.0,True,775.7999999970198,47.0,60.0,40.0,False,,252.10900951933115,[],"[853.5, 480]",ColorTask,97.0,50.0,,,HRV,HRV_0290,2022-11-30 20:58:59
,wl-rdm,168,502499,0.0-8.50-0.50,1.0,167.0,,,,,,,[],,,,,,87.9,0.0,u,0.0,True,653.5999999977648,40.0,60.0,40.0,False,,338.3845335231233,[],"[853.5, 480]",ColorTask,98.0,51.0,,,HRV,HRV_0290,2022-11-30 20:58:59
,wl-rdm,169,505400,0.0-8.51-0.51,1.0,168.0,,,,,,,[],,,,,,56.4,0.0,u,0.0,True,1579.6000000014901,95.0,60.0,40.0,False,,254.77502374857832,[],"[853.5, 480]",ColorTask,99.0,52.0,,,HRV,HRV_0290,2022-11-30 20:58:59
,wl-rdm,170,507800,0.0-8.52-0.52,1.0,169.0,,,,,,,[],,,,,,87.9,1.0,i,1.0,True,993.6999999992549,60.0,60.0,40.0,False,,343.9205785418625,[],"[853.5, 480]",ColorTask,100.0,53.0,,,HRV,HRV_0290,2022-11-30 20:58:59
,wl-rdm,171,511184,0.0-8.53-0.53,1.0,170.0,,,,,,,[],,,,,,62.5,0.0,u,0.0,True,2090.5,126.0,60.0,40.0,False,,232.70880801062677,[],"[853.5, 480]",ColorTask,101.0,54.0,,,HRV,HRV_0290,2022-11-30 20:58:59
,wl-rdm,172,514183,0.0-8.54-0.54,1.0,171.0,,,,,,,[],,,,,,56.4,1.0,i,1.0,True,1520.6000000014901,92.0,60.0,40.0,False,,386.9715698829493,[],"[853.5, 480]",ColorTask,102.0,55.0,,,HRV,HRV_0290,2022-11-30 20:58:59
,wl-rdm,173,517467,0.0-8.55-0.55,1.0,172.0,,,,,,,[],,,,,,53.2,0.0,i,1.0,False,1909.0999999977648,115.0,60.0,40.0,False,,294.5469415208193,[],"[853.5, 480]",ColorTask,101.0,56.0,,,HRV,HRV_0290,2022-11-30 20:58:59
,wl-rdm,174,520451,0.0-8.56-0.56,1.0,173.0,,,,,,,[],,,,,,50.0,1.0,i,1.0,True,1670.300000000745,101.0,60.0,40.0,False,,221.04549783516586,[],"[853.5, 480]",ColorTask,102.0,57.0,,,HRV,HRV_0290,2022-11-30 20:58:59
,wl-rdm,175,523501,0.0-8.57-0.57,1.0,174.0,,,,,,,[],,,,,,50.0,0.0,i,1.0,False,1727.5,104.0,60.0,40.0,False,,243.73278476281098,[],"[853.5, 480]",ColorTask,101.0,58.0,,,HRV,HRV_0290,2022-11-30 20:58:59
,wl-rdm,176,526335,0.0-8.58-0.58,1.0,175.0,,,,,,,[],,,,,,62.5,0.0,u,0.0,True,1551.800000000745,94.0,60.0,40.0,False,,208.31757636163638,[],"[853.5, 480]",ColorTask,102.0,59.0,,,HRV,HRV_0290,2022-11-30 20:58:59
,wl-rdm,177,529485,0.0-8.59-0.59,1.0,176.0,,,,,,,[],,,,,,50.0,0.0,u,0.0,True,1813.5,109.0,60.0,40.0,False,,278.2257574631201,[],"[853.5, 480]",ColorTask,103.0,60.0,,,HRV,HRV_0290,2022-11-30 20:58:59
,wl-rdm,178,531902,0.0-8.60-0.60,1.0,177.0,,,,,,,[],,,,,,73.6,1.0,i,1.0,True,995.6999999992549,60.0,60.0,40.0,False,,337.1046790496531,[],"[853.5, 480]",ColorTask,104.0,61.0,,,HRV,HRV_0290,2022-11-30 20:58:59
,wl-rdm,179,533952,0.0-8.61-0.61,1.0,178.0,,,,,,,[],,,,,,87.9,0.0,u,0.0,True,753.3999999985099,46.0,60.0,40.0,False,,229.23615473182406,[],"[853.5, 480]",ColorTask,105.0,62.0,,,HRV,HRV_0290,2022-11-30 20:58:59
,wl-rdm,180,536735,0.0-8.62-0.62,1.0,179.0,,,,,,,[],,,,,,50.0,0.0,u,0.0,True,1415.699999999255,85.0,60.0,40.0,False,,304.2598028465501,[],"[853.5, 480]",ColorTask,106.0,63.0,,,HRV,HRV_0290,2022-11-30 20:58:59
,wl-rdm,181,540153,0.0-8.63-0.63,1.0,180.0,,,,,,,[],,,,,,62.5,1.0,i,1.0,True,1950.300000000745,117.0,60.0,40.0,False,,388.8668186701919,[],"[853.5, 480]",ColorTask,107.0,64.0,,,HRV,HRV_0290,2022-11-30 20:58:59
,wl-rdm,182,543219,0.0-8.64-0.64,1.0,181.0,,,,,,,[],,,,,,56.4,0.0,u,0.0,True,1775.9000000022352,107.0,60.0,40.0,False,,215.8742084170167,[],"[853.5, 480]",ColorTask,108.0,65.0,,,HRV,HRV_0290,2022-11-30 20:58:59
,wl-rdm,183,545519,0.0-8.65-0.65,1.0,182.0,,,,,,,[],,,,,,73.6,0.0,u,0.0,True,854.4000000022352,52.0,60.0,40.0,False,,379.8280081974169,[],"[853.5, 480]",ColorTask,109.0,66.0,,,HRV,HRV_0290,2022-11-30 20:58:59
,wl-rdm,184,548787,0.0-8.66-0.66,1.0,183.0,,,,,,,[],,,,,,50.0,0.0,i,1.0,False,1986.800000000745,120.0,60.0,40.0,False,,211.11580411760343,[],"[853.5, 480]",ColorTask,108.0,67.0,,,HRV,HRV_0290,2022-11-30 20:58:59
,wl-rdm,185,551187,0.0-8.67-0.67,1.0,184.0,,,,,,,[],,,,,,50.0,0.0,i,1.0,False,1037.800000000745,63.0,60.0,40.0,False,,272.79022646284875,[],"[853.5, 480]",ColorTask,107.0,68.0,,,HRV,HRV_0290,2022-11-30 20:58:59
,wl-rdm,186,554487,0.0-8.68-0.68,1.0,185.0,,,,,,,[],,,,,,56.4,0.0,u,0.0,True,1918.1000000014901,116.0,60.0,40.0,False,,301.4127409282036,[],"[853.5, 480]",ColorTask,108.0,69.0,,,HRV,HRV_0290,2022-11-30 20:58:59
,wl-rdm,187,557155,0.0-8.69-0.69,1.0,186.0,,,,,,,[],,,,,,53.2,1.0,i,1.0,True,1370.6000000014901,83.0,60.0,40.0,False,,218.22166466032564,[],"[853.5, 480]",ColorTask,109.0,70.0,,,HRV,HRV_0290,2022-11-30 20:58:59
,wl-rdm,188,559404,0.0-8.70-0.70,1.0,187.0,,,,,,,[],,,,,,73.6,1.0,i,1.0,True,902.8999999985099,55.0,60.0,40.0,False,,273.1668096110589,[],"[853.5, 480]",ColorTask,110.0,71.0,,,HRV,HRV_0290,2022-11-30 20:58:59
,wl-rdm,189,562754,0.0-8.71-0.71,1.0,188.0,,,,,,,[],,,,,,50.0,1.0,i,1.0,True,1914.1000000014901,115.0,60.0,40.0,False,,357.15826608029727,[],"[853.5, 480]",ColorTask,111.0,72.0,,,HRV,HRV_0290,2022-11-30 20:58:59
,wl-rdm,190,564955,0.0-8.72-0.72,1.0,189.0,,,,,,,[],,,,,,73.6,1.0,i,1.0,True,887.6000000014901,54.0,60.0,40.0,False,,223.00375657923757,[],"[853.5, 480]",ColorTask,112.0,73.0,,,HRV,HRV_0290,2022-11-30 20:58:59
,wl-rdm,191,567671,0.0-8.73-0.73,1.0,190.0,,,,,,,[],,,,,,62.5,0.0,u,0.0,True,1278.0,77.0,60.0,40.0,False,,374.03038909922805,[],"[853.5, 480]",ColorTask,113.0,74.0,,,HRV,HRV_0290,2022-11-30 20:58:59
,wl-rdm,192,571056,0.0-8.74-0.74,1.0,191.0,,,,,,,[],,,,,,50.0,0.0,i,1.0,False,2094.4999999962747,126.0,60.0,40.0,False,,231.39475712634228,[],"[853.5, 480]",ColorTask,112.0,75.0,,,HRV,HRV_0290,2022-11-30 20:58:59
,wl-rdm,193,573955,0.0-8.75-0.75,1.0,192.0,,,,,,,[],,,,,,53.2,0.0,u,0.0,True,1453.4000000022352,88.0,60.0,40.0,False,,366.4083782395008,[],"[853.5, 480]",ColorTask,113.0,76.0,,,HRV,HRV_0290,2022-11-30 20:58:59
,wl-rdm,194,576672,0.0-8.76-0.76,1.0,193.0,,,,,,,[],,,,,,56.4,0.0,u,0.0,True,1320.1000000014901,80.0,60.0,40.0,False,,323.9375608118259,[],"[853.5, 480]",ColorTask,114.0,77.0,,,HRV,HRV_0290,2022-11-30 20:58:59
,wl-rdm,195,579222,0.0-8.77-0.77,1.0,194.0,,,,,,,[],,,,,,53.2,0.0,i,1.0,False,1177.699999999255,71.0,60.0,40.0,False,,312.48339695116647,[],"[853.5, 480]",ColorTask,113.0,78.0,,,HRV,HRV_0290,2022-11-30 20:58:59
,wl-rdm,196,582223,0.0-8.78-0.78,1.0,195.0,,,,,,,[],,,,,,73.6,1.0,i,1.0,True,1618.699999999255,98.0,60.0,40.0,False,,289.1304698531935,[],"[853.5, 480]",ColorTask,114.0,79.0,,,HRV,HRV_0290,2022-11-30 20:58:59
,wl-rdm,197,584706,0.0-8.79-0.79,1.0,196.0,,,,,,,[],,,,,,62.5,0.0,u,0.0,True,1199.300000000745,72.0,60.0,40.0,False,,217.6019698947044,[],"[853.5, 480]",ColorTask,115.0,80.0,,,HRV,HRV_0290,2022-11-30 20:58:59
,wl-rdm,198,586956,0.0-8.80-0.80,1.0,197.0,,,,,,,[],,,,,,87.9,1.0,i,1.0,True,836.7000000029802,51.0,60.0,40.0,False,,340.9102474483296,[],"[853.5, 480]",ColorTask,116.0,81.0,,,HRV,HRV_0290,2022-11-30 20:58:59
,wl-rdm,199,590390,0.0-8.81-0.81,1.0,198.0,,,,,,,[],,,,,,56.4,1.0,u,0.0,False,2052.699999999255,124.0,60.0,40.0,False,,292.74145446853413,[],"[853.5, 480]",ColorTask,115.0,82.0,,,HRV,HRV_0290,2022-11-30 20:58:59
,wl-rdm,200,593040,0.0-8.82-0.82,1.0,199.0,,,,,,,[],,,,,,56.4,0.0,u,0.0,True,1362.0,82.0,60.0,40.0,False,,230.9869477295936,[],"[853.5, 480]",ColorTask,116.0,83.0,,,HRV,HRV_0290,2022-11-30 20:58:59
,wl-rdm,201,595824,0.0-8.83-0.83,1.0,200.0,,,,,,,[],,,,,,53.2,1.0,u,0.0,False,1419.300000000745,86.0,60.0,40.0,False,,272.3697718719571,[],"[853.5, 480]",ColorTask,115.0,84.0,,,HRV,HRV_0290,2022-11-30 20:58:59
,wl-rdm,202,598990,0.0-8.84-0.84,1.0,201.0,,,,,,,[],,,,,,53.2,1.0,i,1.0,True,1872.800000000745,113.0,60.0,40.0,False,,229.12409722726653,[],"[853.5, 480]",ColorTask,116.0,85.0,,,HRV,HRV_0290,2022-11-30 20:58:59
,wl-rdm,203,601924,0.0-8.85-0.85,1.0,202.0,,,,,,,[],,,,,,56.4,1.0,i,1.0,True,1567.0,94.0,60.0,40.0,False,,295.2668225325571,[],"[853.5, 480]",ColorTask,117.0,86.0,,,HRV,HRV_0290,2022-11-30 20:58:59
,wl-rdm,204,604924,0.0-8.86-0.86,1.0,203.0,,,,,,,[],,,,,,53.2,1.0,i,1.0,True,1690.800000000745,102.0,60.0,40.0,False,,232.75923357932734,[],"[853.5, 480]",ColorTask,118.0,87.0,,,HRV,HRV_0290,2022-11-30 20:58:59
,wl-rdm,205,607124,0.0-8.87-0.87,1.0,204.0,,,,,,,[],,,,,,87.9,1.0,i,1.0,True,870.5999999977648,53.0,60.0,40.0,False,,256.1071159687118,[],"[853.5, 480]",ColorTask,119.0,88.0,,,HRV,HRV_0290,2022-11-30 20:58:59
,wl-rdm,206,610024,0.0-8.88-0.88,1.0,205.0,,,,,,,[],,,,,,50.0,1.0,i,1.0,True,1609.9000000022352,97.0,60.0,40.0,False,,213.15702316383778,[],"[853.5, 480]",ColorTask,120.0,89.0,,,HRV,HRV_0290,2022-11-30 20:58:59
,wl-rdm,207,613525,0.0-8.89-0.89,1.0,206.0,,,,,,,[],,,,,,53.2,0.0,u,0.0,True,2151.60000000149,130.0,60.0,40.0,False,,257.640044359737,[],"[853.5, 480]",ColorTask,121.0,90.0,,,HRV,HRV_0290,2022-11-30 20:58:59
,wl-rdm,208,617408,0.0-8.90-0.90,1.0,207.0,,,,,,,[],,,,,,50.0,0.0,i,1.0,False,2538.599999997765,153.0,60.0,40.0,False,,279.2637159047829,[],"[853.5, 480]",ColorTask,120.0,91.0,,,HRV,HRV_0290,2022-11-30 20:58:59
,wl-rdm,209,619692,0.0-8.91-0.91,1.0,208.0,,,,,,,[],,,,,,73.6,1.0,i,1.0,True,902.2999999970198,55.0,60.0,40.0,False,,300.8176395709578,[],"[853.5, 480]",ColorTask,121.0,92.0,,,HRV,HRV_0290,2022-11-30 20:58:59
,wl-rdm,210,622059,0.0-8.92-0.92,1.0,209.0,,,,,,,[],,,,,,73.6,0.0,u,0.0,True,982.5999999977648,59.0,60.0,40.0,False,,317.0020225219158,[],"[853.5, 480]",ColorTask,122.0,93.0,,,HRV,HRV_0290,2022-11-30 20:58:59
,wl-rdm,211,624359,0.0-8.93-0.93,1.0,210.0,,,,,,,[],,,,,,73.6,1.0,i,1.0,True,935.8999999985099,57.0,60.0,40.0,False,,282.60395154595716,[],"[853.5, 480]",ColorTask,123.0,94.0,,,HRV,HRV_0290,2022-11-30 20:58:59
,wl-rdm,212,626342,0.0-8.94-0.94,1.0,211.0,,,,,,,[],,,,,,87.9,0.0,u,0.0,True,712.5999999977648,43.0,60.0,40.0,False,,210.5807019192897,[],"[853.5, 480]",ColorTask,124.0,95.0,,,HRV,HRV_0290,2022-11-30 20:58:59
,wl-rdm,213,629659,0.0-8.95-0.95,1.0,212.0,,,,,,,[],,,,,,56.4,1.0,i,1.0,True,2012.7000000029802,121.0,60.0,40.0,False,,221.96556054340687,[],"[853.5, 480]",ColorTask,125.0,96.0,,,HRV,HRV_0290,2022-11-30 20:58:59
,wl-rdm,214,632743,0.0-8.96-0.96,1.0,213.0,,,,,,,[],,,,,,53.2,1.0,i,1.0,True,1793.0,108.0,60.0,40.0,False,,218.68114954731834,[],"[853.5, 480]",ColorTask,126.0,97.0,,,HRV,HRV_0290,2022-11-30 20:58:59
,wl-rdm,215,635793,0.0-8.97-0.97,1.0,214.0,,,,,,,[],,,,,,62.5,1.0,i,1.0,True,1632.7000000029802,98.0,60.0,40.0,False,,341.05704334845325,[],"[853.5, 480]",ColorTask,127.0,98.0,,,HRV,HRV_0290,2022-11-30 20:58:59
,wl-rdm,216,638043,0.0-8.98-0.98,1.0,215.0,,,,,,,[],,,,,,62.5,1.0,i,1.0,True,868.9000000022352,53.0,60.0,40.0,False,,313.6918358772402,[],"[853.5, 480]",ColorTask,128.0,99.0,,,HRV,HRV_0290,2022-11-30 20:58:59
,wl-rdm,217,640060,0.0-8.99-0.99,1.0,216.0,,,,,,,[],,,,,,87.9,0.0,u,0.0,True,707.6000000014901,43.0,60.0,40.0,False,,237.39895680652313,[],"[853.5, 480]",ColorTask,129.0,100.0,,,HRV,HRV_0290,2022-11-30 20:58:59
,wl-rdm,218,642443,0.0-8.100-0.100,1.0,217.0,,,,,,,[],,,,,,50.0,1.0,u,0.0,False,1111.699999999255,67.0,60.0,40.0,False,,201.69326113836433,[],"[853.5, 480]",ColorTask,128.0,101.0,,,HRV,HRV_0290,2022-11-30 20:58:59
,wl-rdm,219,645261,0.0-8.101-0.101,1.0,218.0,,,,,,,[],,,,,,62.5,1.0,i,1.0,True,1486.5,90.0,60.0,40.0,False,,262.26737219900036,[],"[853.5, 480]",ColorTask,129.0,102.0,,,HRV,HRV_0290,2022-11-30 20:58:59
,wl-rdm,220,648511,0.0-8.102-0.102,1.0,219.0,,,,,,,[],,,,,,56.4,1.0,i,1.0,True,1889.300000000745,114.0,60.0,40.0,False,,269.57199187923914,[],"[853.5, 480]",ColorTask,130.0,103.0,,,HRV,HRV_0290,2022-11-30 20:58:59
,wl-rdm,221,651044,0.0-8.103-0.103,1.0,220.0,,,,,,,[],,,,,,56.4,0.0,u,0.0,True,1264.5,76.0,60.0,40.0,False,,204.24544259640464,[],"[853.5, 480]",ColorTask,131.0,104.0,,,HRV,HRV_0290,2022-11-30 20:58:59
,wl-rdm,222,654511,0.0-8.104-0.104,1.0,221.0,,,,,,,[],,,,,,56.4,1.0,i,1.0,True,2131.0,128.0,60.0,40.0,False,,277.76064152760944,[],"[853.5, 480]",ColorTask,132.0,105.0,,,HRV,HRV_0290,2022-11-30 20:58:59
,wl-rdm,223,657312,0.0-8.105-0.105,1.0,222.0,,,,,,,[],,,,,,53.2,1.0,i,1.0,True,1411.800000000745,85.0,60.0,40.0,False,,327.29280183722244,[],"[853.5, 480]",ColorTask,133.0,106.0,,,HRV,HRV_0290,2022-11-30 20:58:59
,wl-rdm,224,659428,0.0-8.106-0.106,1.0,223.0,,,,,,,[],,,,,,87.9,1.0,i,1.0,True,787.8999999985099,48.0,60.0,40.0,False,,261.31136919306596,[],"[853.5, 480]",ColorTask,134.0,107.0,,,HRV,HRV_0290,2022-11-30 20:58:59
,wl-rdm,225,662862,0.0-8.107-0.107,1.0,224.0,,,,,,,[],,,,,,53.2,0.0,u,0.0,True,2062.8000000044703,124.0,60.0,40.0,False,,305.6559064364118,[],"[853.5, 480]",ColorTask,135.0,108.0,,,HRV,HRV_0290,2022-11-30 20:58:59
,wl-rdm,226,665862,0.0-8.108-0.108,1.0,225.0,,,,,,,[],,,,,,50.0,0.0,u,0.0,True,1691.800000000745,102.0,60.0,40.0,False,,233.21302196213358,[],"[853.5, 480]",ColorTask,136.0,109.0,,,HRV,HRV_0290,2022-11-30 20:58:59
,wl-html-button-response,227,669258,0.0-9.0-0.0,,,,,,,,,,3392.300000000745,,0,,,,,,,,,,,,,,,,,,,,<h3>End of this session. Thank you!</h3><br>,['Close window'],HRV,HRV_0290,2022-11-30 20:58:59
