success,trial_type,trial_index,time_elapsed,internal_node_id,Block,TrialNumber,TrialTime,trialTimeDiff,FPS_avg,FPS_med,FPS_mode,TrialDur,winResizeTime,rt,block,button_pressed,MotCoh,MotDir,ColCoh,Color,ChoiceKey,Choice,Accuracy,RT,nFrames,FPS,PPD,missTrial,missTrialMsg,onsetDelay,fullScreenExitTime,canvCenter,TrialType,Score,BlockTrial,stimulus,button_labels,exp,subjectId,date
True,fullscreen,0,1233,0.0-0.0,0.0,1.0,,,,,,,,,,,,,,,,,,,,,,,,,,,,,,,,HRV,HRV_0315,2022-11-30 22:55:59
,wl-check-fps,1,6234,0.0-1.0,0.0,2.0,"[1748.7, 1762, 1778.8, 1795.4, 1812, 1828.7, 1845.4, 1862, 1878.7, 1895.5, 1912.1, 1928.8, 1945.5, 1962.1, 1978.8, 1995.5, 2012.2, 2028.9, 2045.5, 2062.2, 2078.8, 2095.5, 2112.2, 2128.8, 2145.7, 2162.3, 2178.9, 2195.5, 2212.2, 2229, 2245.6, 2262.2, 2279, 2295.6, 2312.3, 2329, 2345.8, 2362.3, 2379, 2395.7, 2412.3, 2429, 2445.7, 2462.3, 2479, 2495.7, 2512.4, 2529, 2545.8, 2562.5, 2579.1, 2595.9, 2612.5, 2629.1, 2645.8, 2662.4, 2679.1, 2695.8, 2712.5, 2729.2, 2745.8, 2762.5, 2779.2, 2795.8, 2812.6, 2829.3, 2845.9, 2862.6, 2879.3, 2895.9, 2912.6, 2929.2, 2946, 2962.6, 2979.3, 2995.9, 3012.6, 3029.3, 3046, 3062.6, 3079.3, 3096, 3112.6, 3129.3, 3146, 3162.7, 3179.3, 3196, 3212.7, 3229.3, 3246.1, 3262.7, 3279.4, 3296.1, 3312.8, 3329.4, 3346.1, 3362.8, 3379.4, 3396.1, 3412.8, 3429.5, 3446.1, 3462.9, 3479.5, 3496.2, 3512.9, 3529.5, 3546.1, 3562.9, 3579.5, 3596.2, 3612.9, 3629.5, 3646.2, 3662.9, 3679.5, 3696.2, 3713, 3729.6, 3746.3, 3763, 3779.6, 3796.3, 3813, 3829.7, 3846.4, 3863, 3879.6, 3896.4, 3913, 3929.7, 3946.5, 3963.1, 3979.7, 3996.3, 4013.1, 4029.7, 4046.4, 4063.1, 4079.8, 4096.4, 4113.2, 4129.8, 4146.4, 4163.2, 4179.8, 4196.5, 4213.2, 4229.8, 4246.5, 4263.2, 4279.8, 4296.5, 4313.2, 4329.9, 4346.7, 4363.3, 4380, 4396.6, 4413.3, 4430, 4446.6, 4463.3, 4480, 4496.6, 4513.3, 4530, 4548.6, 4563.3, 4580, 4596.7, 4613.3, 4630, 4646.7, 4663.4, 4680, 4696.7, 4713.4, 4730.1, 4746.8, 4763.4, 4780.1, 4796.8, 4813.5, 4830.1, 4846.8, 4863.4, 4880.1, 4896.8, 4913.5, 4930.1, 4946.9, 4963.5, 4980.2, 4996.8, 5013.5, 5030.2, 5046.8, 5063.5, 5080.2, 5096.9, 5113.6, 5130.2, 5146.9, 5163.6, 5180.3, 5197, 5213.7, 5230.3, 5247, 5263.6, 5280.3, 5297, 5313.7, 5330.3, 5347.1, 5363.7, 5380.4, 5397, 5413.8, 5430.4, 5447.1, 5463.8, 5480.4, 5497.2, 5513.8, 5530.4, 5547.1, 5563.8, 5580.4, 5597.1, 5613.8, 5630.5, 5647.1, 5663.9, 5680.5, 5697.2, 5713.9, 5730.5, 5747.2, 5763.9, 5780.6, 5797.2, 5813.9, 5830.5, 5847.3, 5864, 5880.7, 5897.3, 5913.9, 5930.6, 5947.4, 5963.9, 5980.7, 5997.3, 6014, 6030.7, 6047.4, 6064, 6080.8, 6097.6, 6114.1, 6130.7, 6147.4, 6164, 6180.8, 6197.3, 6214.1, 6230.7, 6247.4, 6264.1, 6280.7, 6297.5, 6314.1, 6330.8, 6347.5, 6364.2, 6380.9, 6397.5, 6414.2, 6430.8, 6447.5, 6464.2, 6480.9, 6497.6, 6514.3, 6530.9, 6547.7, 6564.2, 6580.9, 6597.5, 6614.4, 6630.9, 6647.6, 6664.3, 6681, 6697.6, 6714.3, 6730.9]","[0.8, 13.3, 16.8, 16.6, 16.6, 16.7, 16.7, 16.6, 16.7, 16.8, 16.6, 16.7, 16.7, 16.6, 16.7, 16.7, 16.7, 16.7, 16.6, 16.7, 16.6, 16.7, 16.7, 16.6, 16.9, 16.6, 16.6, 16.6, 16.7, 16.8, 16.6, 16.6, 16.8, 16.6, 16.7, 16.7, 16.8, 16.5, 16.7, 16.7, 16.6, 16.7, 16.7, 16.6, 16.7, 16.7, 16.7, 16.6, 16.8, 16.7, 16.6, 16.8, 16.6, 16.6, 16.7, 16.6, 16.7, 16.7, 16.7, 16.7, 16.6, 16.7, 16.7, 16.6, 16.8, 16.7, 16.6, 16.7, 16.7, 16.6, 16.7, 16.6, 16.8, 16.6, 16.7, 16.6, 16.7, 16.7, 16.7, 16.6, 16.7, 16.7, 16.6, 16.7, 16.7, 16.7, 16.6, 16.7, 16.7, 16.6, 16.8, 16.6, 16.7, 16.7, 16.7, 16.6, 16.7, 16.7, 16.6, 16.7, 16.7, 16.7, 16.6, 16.8, 16.6, 16.7, 16.7, 16.6, 16.6, 16.8, 16.6, 16.7, 16.7, 16.6, 16.7, 16.7, 16.6, 16.7, 16.8, 16.6, 16.7, 16.7, 16.6, 16.7, 16.7, 16.7, 16.7, 16.6, 16.6, 16.8, 16.6, 16.7, 16.8, 16.6, 16.6, 16.6, 16.8, 16.6, 16.7, 16.7, 16.7, 16.6, 16.8, 16.6, 16.6, 16.8, 16.6, 16.7, 16.7, 16.6, 16.7, 16.7, 16.6, 16.7, 16.7, 16.7, 16.8, 16.6, 16.7, 16.6, 16.7, 16.7, 16.6, 16.7, 16.7, 16.6, 16.7, 16.7, 18.6, 14.7, 16.7, 16.7, 16.6, 16.7, 16.7, 16.7, 16.6, 16.7, 16.7, 16.7, 16.7, 16.6, 16.7, 16.7, 16.7, 16.6, 16.7, 16.6, 16.7, 16.7, 16.7, 16.6, 16.8, 16.6, 16.7, 16.6, 16.7, 16.7, 16.6, 16.7, 16.7, 16.7, 16.7, 16.6, 16.7, 16.7, 16.7, 16.7, 16.7, 16.6, 16.7, 16.6, 16.7, 16.7, 16.7, 16.6, 16.8, 16.6, 16.7, 16.6, 16.8, 16.6, 16.7, 16.7, 16.6, 16.8, 16.6, 16.6, 16.7, 16.7, 16.6, 16.7, 16.7, 16.7, 16.6, 16.8, 16.6, 16.7, 16.7, 16.6, 16.7, 16.7, 16.7, 16.6, 16.7, 16.6, 16.8, 16.7, 16.7, 16.6, 16.6, 16.7, 16.8, 16.5, 16.8, 16.6, 16.7, 16.7, 16.7, 16.6, 16.8, 16.8, 16.5, 16.6, 16.7, 16.6, 16.8, 16.5, 16.8, 16.6, 16.7, 16.7, 16.6, 16.8, 16.6, 16.7, 16.7, 16.7, 16.7, 16.6, 16.7, 16.6, 16.7, 16.7, 16.7, 16.7, 16.7, 16.6, 16.8, 16.5, 16.7, 16.6, 16.9, 16.5, 16.7, 16.7, 16.7, 16.6, 16.7, 16.6]",60.0,60.0,60.0,4999.8,[],,,,,,,,,,,,,,,,,,,,,,,,,HRV,HRV_0315,2022-11-30 22:55:59
,wl-html-keyboard-response,2,17896,0.0-2.0-0.0,0.0,3.0,,,,,,,,9652.900000002235,0.0,0,,,,,,,,,,,,,,,,,,,,,,HRV,HRV_0315,2022-11-30 22:55:59
,wl-rdm,3,26361,0.0-3.0-0.0,0.0,4.0,,,,,,,[],,,,0.0,0.0,87.9,0.0,u,0.0,True,2916.699999999255,175.0,60.0,40.0,False,,3000.0,[],"[1720, 720]",ColorTask_Demo,,,,,HRV,HRV_0315,2022-11-30 22:55:59
,wl-rdm,4,32080,0.0-3.0-1.0,0.0,5.0,,,,,,,[],,,,0.0,0.0,87.9,1.0,i,1.0,True,1651.199999999255,99.0,60.0,40.0,False,,2000.0,[],"[1720, 720]",ColorTask_Demo,,,,,HRV,HRV_0315,2022-11-30 22:55:59
,wl-html-keyboard-response,5,35840,0.0-3.0-2.0,0.0,6.0,,,,,,,,1756.5999999977648,0.0,1,,,,,,,,,,,,,,,,,,,,,,HRV,HRV_0315,2022-11-30 22:55:59
,wl-html-keyboard-response,6,43105,0.0-4.0-0.0,0.0,7.0,,,,,,,,5262.89999999851,0.0,0,,,,,,,,,,,,,,,,,,,,,,HRV,HRV_0315,2022-11-30 22:55:59
,wl-html-keyboard-response,7,51408,0.0-5.0-0.0,0.0,8.0,,,,,,,,6296.699999999255,0.0,0,,,,,,,,,,,,,,,,,,,,,,HRV,HRV_0315,2022-11-30 22:55:59
,wl-rdm,8,54740,0.0-6.0-0.0,0.0,9.0,,,,,,,[],,,,,,50.0,1.0,u,0.0,False,1958.0,116.0,60.0,40.0,False,,316.70556419692787,[],"[1720, 720]",ColorTask,-1.0,1.0,,,HRV,HRV_0315,2022-11-30 22:55:59
,wl-rdm,9,57357,0.0-6.1-0.1,0.0,10.0,,,,,,,[],,,,,,56.4,1.0,i,1.0,True,1143.0999999977648,69.0,60.0,40.0,False,,387.3226912350581,[],"[1720, 720]",ColorTask,0.0,2.0,,,HRV,HRV_0315,2022-11-30 22:55:59
,wl-rdm,10,59559,0.0-6.2-0.2,0.0,11.0,,,,,,,[],,,,,,87.9,1.0,i,1.0,True,848.0999999977648,51.0,60.0,40.0,False,,255.58806415982866,[],"[1720, 720]",ColorTask,1.0,3.0,,,HRV,HRV_0315,2022-11-30 22:55:59
,wl-rdm,11,61676,0.0-6.3-0.3,0.0,12.0,,,,,,,[],,,,,,73.6,1.0,i,1.0,True,755.5999999977648,46.0,60.0,40.0,False,,295.87442105713274,[],"[1720, 720]",ColorTask,2.0,4.0,,,HRV,HRV_0315,2022-11-30 22:55:59
,wl-rdm,12,63644,0.0-6.4-0.4,0.0,13.0,,,,,,,[],,,,,,62.5,0.0,u,0.0,True,602.8999999985099,37.0,60.0,40.0,False,,294.0942168687509,[],"[1720, 720]",ColorTask,3.0,5.0,,,HRV,HRV_0315,2022-11-30 22:55:59
,wl-rdm,13,65745,0.0-6.5-0.5,0.0,14.0,,,,,,,[],,,,,,73.6,0.0,u,0.0,True,712.1999999992549,43.0,60.0,40.0,False,,329.2180337248801,[],"[1720, 720]",ColorTask,4.0,6.0,,,HRV,HRV_0315,2022-11-30 22:55:59
,wl-rdm,14,67863,0.0-6.6-0.6,0.0,15.0,,,,,,,[],,,,,,73.6,1.0,i,1.0,True,829.0999999977648,50.0,60.0,40.0,False,,225.29917414765987,[],"[1720, 720]",ColorTask,5.0,7.0,,,HRV,HRV_0315,2022-11-30 22:55:59
,wl-rdm,15,70047,0.0-6.7-0.7,0.0,16.0,,,,,,,[],,,,,,62.5,0.0,u,0.0,True,795.5,48.0,60.0,40.0,False,,321.83426935698066,[],"[1720, 720]",ColorTask,6.0,8.0,,,HRV,HRV_0315,2022-11-30 22:55:59
,wl-rdm,16,72331,0.0-6.8-0.8,0.0,17.0,,,,,,,[],,,,,,50.0,1.0,u,0.0,False,942.8000000007451,56.0,60.0,40.0,False,,278.8448573749033,[],"[1720, 720]",ColorTask,5.0,9.0,,,HRV,HRV_0315,2022-11-30 22:55:59
,wl-rdm,17,74566,0.0-6.9-0.9,0.0,18.0,,,,,,,[],,,,,,73.6,0.0,u,0.0,True,858.1999999992549,52.0,60.0,40.0,False,,307.16056970865725,[],"[1720, 720]",ColorTask,6.0,10.0,,,HRV,HRV_0315,2022-11-30 22:55:59
,wl-rdm,18,76900,0.0-6.10-0.10,0.0,19.0,,,,,,,[],,,,,,50.0,1.0,i,1.0,True,942.2000000029802,57.0,60.0,40.0,False,,331.5225956792236,[],"[1720, 720]",ColorTask,7.0,11.0,,,HRV,HRV_0315,2022-11-30 22:55:59
,wl-rdm,19,79151,0.0-6.11-0.11,0.0,20.0,,,,,,,[],,,,,,56.4,0.0,u,0.0,True,853.3999999985099,52.0,60.0,40.0,False,,318.2664681307778,[],"[1720, 720]",ColorTask,8.0,12.0,,,HRV,HRV_0315,2022-11-30 22:55:59
,wl-rdm,20,81519,0.0-6.12-0.12,0.0,21.0,,,,,,,[],,,,,,50.0,0.0,i,1.0,False,1025.8999999985099,61.0,60.0,40.0,False,,279.15557144884116,[],"[1720, 720]",ColorTask,7.0,13.0,,,HRV,HRV_0315,2022-11-30 22:55:59
,wl-rdm,21,83786,0.0-6.13-0.13,0.0,22.0,,,,,,,[],,,,,,56.4,0.0,u,0.0,True,957.3000000007451,56.0,60.0,40.0,False,,230.5161101939463,[],"[1720, 720]",ColorTask,8.0,14.0,,,HRV,HRV_0315,2022-11-30 22:55:59
,wl-rdm,22,86003,0.0-6.14-0.14,0.0,23.0,,,,,,,[],,,,,,50.0,1.0,i,1.0,True,931.8999999985099,56.0,60.0,40.0,False,,220.8397404088098,[],"[1720, 720]",ColorTask,9.0,15.0,,,HRV,HRV_0315,2022-11-30 22:55:59
,wl-rdm,23,88088,0.0-6.15-0.15,0.0,24.0,,,,,,,[],,,,,,87.9,0.0,u,0.0,True,724.6000000014901,44.0,60.0,40.0,False,,290.76618330221066,[],"[1720, 720]",ColorTask,10.0,16.0,,,HRV,HRV_0315,2022-11-30 22:55:59
,wl-rdm,24,90539,0.0-6.16-0.16,0.0,25.0,,,,,,,[],,,,,,53.2,0.0,i,1.0,False,1010.6000000014901,61.0,60.0,40.0,False,,375.7101307243913,[],"[1720, 720]",ColorTask,9.0,17.0,,,HRV,HRV_0315,2022-11-30 22:55:59
,wl-rdm,25,93224,0.0-6.17-0.17,0.0,25.0,,,,,,,[],,,,,,53.2,0.0,i,1.0,False,1271.8999999985099,77.0,60.0,40.0,True,blurEvent ,342.19077256118106,[],"[1720, 720]",ColorTask,8.0,18.0,,,HRV,HRV_0315,2022-11-30 22:55:59
,wl-rdm,26,95592,0.0-6.18-0.18,0.0,26.0,,,,,,,[],,,,,,53.2,0.0,u,0.0,True,1080.0,65.0,60.0,40.0,False,,227.4983620598268,[],"[1720, 720]",ColorTask,9.0,19.0,,,HRV,HRV_0315,2022-11-30 22:55:59
,wl-rdm,27,98409,0.0-6.19-0.19,0.0,27.0,,,,,,,[],,,,,,56.4,0.0,u,0.0,True,1337.5999999977648,80.0,60.0,40.0,False,,393.2519144034161,[],"[1720, 720]",ColorTask,10.0,20.0,,,HRV,HRV_0315,2022-11-30 22:55:59
,wl-rdm,28,100743,0.0-6.20-0.20,0.0,28.0,,,,,,,[],,,,,,53.2,1.0,u,0.0,False,1011.6000000014901,62.0,60.0,40.0,False,,253.1313841693518,[],"[1720, 720]",ColorTask,9.0,21.0,,,HRV,HRV_0315,2022-11-30 22:55:59
,wl-rdm,29,102877,0.0-6.21-0.21,0.0,29.0,,,,,,,[],,,,,,62.5,0.0,i,1.0,False,763.1999999992549,46.0,60.0,40.0,False,,285.7692111367383,[],"[1720, 720]",ColorTask,8.0,22.0,,,HRV,HRV_0315,2022-11-30 22:55:59
,wl-rdm,30,105295,0.0-6.22-0.22,0.0,30.0,,,,,,,[],,,,,,50.0,0.0,u,0.0,True,1012.1999999992549,59.0,60.0,40.0,False,,332.49135800983424,[],"[1720, 720]",ColorTask,9.0,23.0,,,HRV,HRV_0315,2022-11-30 22:55:59
,wl-rdm,31,107431,0.0-6.23-0.23,0.0,31.0,,,,,,,[],,,,,,62.5,0.0,u,0.0,True,778.0999999977648,45.0,60.0,40.0,False,,291.1619558635371,[],"[1720, 720]",ColorTask,10.0,24.0,,,HRV,HRV_0315,2022-11-30 22:55:59
,wl-rdm,32,109347,0.0-6.24-0.24,0.0,32.0,,,,,,,[],,,,,,87.9,1.0,i,1.0,True,643.1000000014901,37.0,60.0,40.0,False,,209.0930740691498,[],"[1720, 720]",ColorTask,11.0,25.0,,,HRV,HRV_0315,2022-11-30 22:55:59
,wl-rdm,33,111816,0.0-6.25-0.25,0.0,33.0,,,,,,,[],,,,,,56.4,1.0,u,0.0,False,1062.300000000745,62.0,60.0,40.0,False,,354.33843621354634,[],"[1720, 720]",ColorTask,10.0,26.0,,,HRV,HRV_0315,2022-11-30 22:55:59
,wl-rdm,34,114349,0.0-6.26-0.26,0.0,34.0,,,,,,,[],,,,,,53.2,1.0,i,1.0,True,1077.5999999977648,63.0,60.0,40.0,False,,399.7910768934081,[],"[1720, 720]",ColorTask,11.0,27.0,,,HRV,HRV_0315,2022-11-30 22:55:59
,wl-rdm,35,116834,0.0-6.27-0.27,0.0,35.0,,,,,,,[],,,,,,62.5,1.0,u,0.0,False,1188.699999999255,70.0,60.0,40.0,False,,230.42461548878867,[],"[1720, 720]",ColorTask,10.0,28.0,,,HRV,HRV_0315,2022-11-30 22:55:59
,wl-rdm,36,118952,0.0-6.28-0.28,0.0,36.0,,,,,,,[],,,,,,73.6,1.0,i,1.0,True,801.5,49.0,60.0,40.0,False,,239.27294509474655,[],"[1720, 720]",ColorTask,11.0,29.0,,,HRV,HRV_0315,2022-11-30 22:55:59
,wl-rdm,37,121369,0.0-6.29-0.29,0.0,37.0,,,,,,,[],,,,,,62.5,0.0,u,0.0,True,1062.0,64.0,60.0,40.0,False,,294.25801736243676,[],"[1720, 720]",ColorTask,12.0,30.0,,,HRV,HRV_0315,2022-11-30 22:55:59
,wl-rdm,38,123470,0.0-6.30-0.30,0.0,38.0,,,,,,,[],,,,,,50.0,1.0,i,1.0,True,784.3000000007451,48.0,60.0,40.0,False,,224.8409844700671,[],"[1720, 720]",ColorTask,13.0,31.0,,,HRV,HRV_0315,2022-11-30 22:55:59
,wl-rdm,39,125438,0.0-6.31-0.31,0.0,39.0,,,,,,,[],,,,,,87.9,1.0,i,1.0,True,686.5,42.0,60.0,40.0,False,,201.9342298449801,[],"[1720, 720]",ColorTask,14.0,32.0,,,HRV,HRV_0315,2022-11-30 22:55:59
,wl-rdm,40,127573,0.0-6.32-0.32,0.0,40.0,,,,,,,[],,,,,,87.9,0.0,u,0.0,True,788.6000000014901,47.0,60.0,40.0,False,,283.03302648581666,[],"[1720, 720]",ColorTask,15.0,33.0,,,HRV,HRV_0315,2022-11-30 22:55:59
,wl-rdm,41,129907,0.0-6.33-0.33,0.0,41.0,,,,,,,[],,,,,,50.0,0.0,u,0.0,True,988.0,60.0,60.0,40.0,False,,270.06197260706966,[],"[1720, 720]",ColorTask,16.0,34.0,,,HRV,HRV_0315,2022-11-30 22:55:59
,wl-rdm,42,132092,0.0-6.34-0.34,0.0,42.0,,,,,,,[],,,,,,62.5,1.0,i,1.0,True,912.3000000007451,54.0,60.0,40.0,False,,216.1261493529409,[],"[1720, 720]",ColorTask,17.0,35.0,,,HRV,HRV_0315,2022-11-30 22:55:59
,wl-rdm,43,134158,0.0-6.35-0.35,0.0,43.0,,,,,,,[],,,,,,62.5,1.0,i,1.0,True,720.8999999985099,43.0,60.0,40.0,False,,270.2169296742743,[],"[1720, 720]",ColorTask,18.0,36.0,,,HRV,HRV_0315,2022-11-30 22:55:59
,wl-rdm,44,136427,0.0-6.36-0.36,0.0,44.0,,,,,,,[],,,,,,73.6,1.0,i,1.0,True,842.8999999985099,49.0,60.0,40.0,False,,340.70832432909214,[],"[1720, 720]",ColorTask,19.0,37.0,,,HRV,HRV_0315,2022-11-30 22:55:59
,wl-rdm,45,138561,0.0-6.37-0.37,0.0,45.0,,,,,,,[],,,,,,73.6,1.0,i,1.0,True,782.0,46.0,60.0,40.0,False,,289.9033724529854,[],"[1720, 720]",ColorTask,20.0,38.0,,,HRV,HRV_0315,2022-11-30 22:55:59
,wl-rdm,46,140546,0.0-6.38-0.38,0.0,46.0,,,,,,,[],,,,,,73.6,0.0,u,0.0,True,659.3000000007451,39.0,60.0,40.0,False,,264.69268152084976,[],"[1720, 720]",ColorTask,21.0,39.0,,,HRV,HRV_0315,2022-11-30 22:55:59
,wl-rdm,47,142563,0.0-6.39-0.39,0.0,47.0,,,,,,,[],,,,,,62.5,1.0,i,1.0,True,656.0,38.0,60.0,40.0,False,,293.11840600092825,[],"[1720, 720]",ColorTask,22.0,40.0,,,HRV,HRV_0315,2022-11-30 22:55:59
,wl-rdm,48,144414,0.0-6.40-0.40,0.0,48.0,,,,,,,[],,,,,,87.9,1.0,i,1.0,True,544.0,34.0,60.0,40.0,False,,223.07402489271658,[],"[1720, 720]",ColorTask,23.0,41.0,,,HRV,HRV_0315,2022-11-30 22:55:59
,wl-rdm,49,146264,0.0-6.41-0.41,0.0,49.0,,,,,,,[],,,,,,87.9,0.0,u,0.0,True,503.80000000074506,29.0,60.0,40.0,False,,234.14623604561837,[],"[1720, 720]",ColorTask,24.0,42.0,,,HRV,HRV_0315,2022-11-30 22:55:59
,wl-rdm,50,148044,0.0-6.42-0.42,0.0,50.0,,,,,,,[],,,,,,62.5,0.0,i,1.0,False,490.80000000074506,30.0,60.0,40.0,False,,211.12846755135655,[],"[1720, 720]",ColorTask,23.0,43.0,,,HRV,HRV_0315,2022-11-30 22:55:59
,wl-rdm,51,150233,0.0-6.43-0.43,0.0,51.0,,,,,,,[],,,,,,53.2,1.0,i,1.0,True,799.8000000007451,48.0,60.0,40.0,False,,327.53699911898514,[],"[1720, 720]",ColorTask,24.0,44.0,,,HRV,HRV_0315,2022-11-30 22:55:59
,wl-rdm,52,152417,0.0-6.44-0.44,0.0,52.0,,,,,,,[],,,,,,62.5,1.0,u,0.0,False,900.8999999985099,53.0,60.0,40.0,False,,217.9016833287257,[],"[1720, 720]",ColorTask,23.0,45.0,,,HRV,HRV_0315,2022-11-30 22:55:59
,wl-rdm,53,154451,0.0-6.45-0.45,0.0,53.0,,,,,,,[],,,,,,56.4,0.0,i,1.0,False,667.6999999992549,40.0,60.0,40.0,False,,297.8544624047237,[],"[1720, 720]",ColorTask,22.0,46.0,,,HRV,HRV_0315,2022-11-30 22:55:59
,wl-rdm,54,156769,0.0-6.46-0.46,0.0,54.0,,,,,,,[],,,,,,50.0,0.0,i,1.0,False,990.4000000022352,60.0,60.0,40.0,False,,259.51702864812546,[],"[1720, 720]",ColorTask,21.0,47.0,,,HRV,HRV_0315,2022-11-30 22:55:59
,wl-rdm,55,158704,0.0-6.47-0.47,0.0,55.0,,,,,,,[],,,,,,87.9,0.0,u,0.0,True,640.1999999992549,39.0,60.0,40.0,False,,217.54446166095605,[],"[1720, 720]",ColorTask,22.0,48.0,,,HRV,HRV_0315,2022-11-30 22:55:59
,wl-rdm,56,161439,0.0-6.48-0.48,0.0,56.0,,,,,,,[],,,,,,56.4,0.0,u,0.0,True,1295.800000000745,78.0,60.0,40.0,False,,376.0292607641106,[],"[1720, 720]",ColorTask,23.0,49.0,,,HRV,HRV_0315,2022-11-30 22:55:59
,wl-rdm,57,164089,0.0-6.49-0.49,0.0,57.0,,,,,,,[],,,,,,56.4,1.0,i,1.0,True,1213.5,72.0,60.0,40.0,False,,390.52056938657836,[],"[1720, 720]",ColorTask,24.0,50.0,,,HRV,HRV_0315,2022-11-30 22:55:59
,wl-rdm,58,166107,0.0-6.50-0.50,0.0,58.0,,,,,,,[],,,,,,87.9,0.0,u,0.0,True,727.3000000007451,44.0,60.0,40.0,False,,201.6604922102102,[],"[1720, 720]",ColorTask,25.0,51.0,,,HRV,HRV_0315,2022-11-30 22:55:59
,wl-rdm,59,168324,0.0-6.51-0.51,0.0,59.0,,,,,,,[],,,,,,53.2,1.0,i,1.0,True,862.8000000007451,49.0,60.0,40.0,False,,312.70450422704823,[],"[1720, 720]",ColorTask,26.0,52.0,,,HRV,HRV_0315,2022-11-30 22:55:59
,wl-rdm,60,170410,0.0-6.52-0.52,0.0,60.0,,,,,,,[],,,,,,73.6,0.0,u,0.0,True,795.9000000022352,47.0,60.0,40.0,False,,234.84385576866845,[],"[1720, 720]",ColorTask,27.0,53.0,,,HRV,HRV_0315,2022-11-30 22:55:59
,wl-rdm,61,172394,0.0-6.53-0.53,0.0,61.0,,,,,,,[],,,,,,73.6,1.0,i,1.0,True,688.6000000014901,41.0,60.0,40.0,False,,209.2841080089138,[],"[1720, 720]",ColorTask,28.0,54.0,,,HRV,HRV_0315,2022-11-30 22:55:59
,wl-rdm,62,174444,0.0-6.54-0.54,0.0,62.0,,,,,,,[],,,,,,87.9,1.0,i,1.0,True,673.4000000022352,41.0,60.0,40.0,False,,305.41051056169556,[],"[1720, 720]",ColorTask,29.0,55.0,,,HRV,HRV_0315,2022-11-30 22:55:59
,wl-rdm,63,176528,0.0-6.55-0.55,0.0,63.0,,,,,,,[],,,,,,87.9,1.0,i,1.0,True,686.6000000014901,42.0,60.0,40.0,False,,319.3369071426539,[],"[1720, 720]",ColorTask,30.0,56.0,,,HRV,HRV_0315,2022-11-30 22:55:59
,wl-rdm,64,178796,0.0-6.56-0.56,0.0,64.0,,,,,,,[],,,,,,56.4,1.0,i,1.0,True,959.6999999992549,58.0,60.0,40.0,False,,246.6759507263991,[],"[1720, 720]",ColorTask,31.0,57.0,,,HRV,HRV_0315,2022-11-30 22:55:59
,wl-rdm,65,181165,0.0-6.57-0.57,0.0,65.0,,,,,,,[],,,,,,50.0,0.0,u,0.0,True,954.1000000014901,58.0,60.0,40.0,False,,316.6120646082925,[],"[1720, 720]",ColorTask,32.0,58.0,,,HRV,HRV_0315,2022-11-30 22:55:59
,wl-rdm,66,183498,0.0-6.58-0.58,0.0,66.0,,,,,,,[],,,,,,53.2,1.0,u,0.0,False,908.6000000014901,55.0,60.0,40.0,False,,355.86623059426296,[],"[1720, 720]",ColorTask,31.0,59.0,,,HRV,HRV_0315,2022-11-30 22:55:59
,wl-rdm,67,185649,0.0-6.59-0.59,0.0,67.0,,,,,,,[],,,,,,53.2,1.0,u,0.0,False,883.3000000007451,53.0,60.0,40.0,False,,222.05544586309782,[],"[1720, 720]",ColorTask,30.0,60.0,,,HRV,HRV_0315,2022-11-30 22:55:59
,wl-rdm,68,188067,0.0-6.60-0.60,0.0,68.0,,,,,,,[],,,,,,53.2,0.0,u,0.0,True,1022.4000000022352,62.0,60.0,40.0,False,,325.6171341437198,[],"[1720, 720]",ColorTask,31.0,61.0,,,HRV,HRV_0315,2022-11-30 22:55:59
,wl-rdm,69,190118,0.0-6.61-0.61,0.0,68.0,,,,,,,[],,,,,,87.9,0.0,u,0.0,True,766.5999999977648,46.0,60.0,40.0,True,blurEvent ,239.77411538646675,[],"[1720, 720]",ColorTask,32.0,62.0,,,HRV,HRV_0315,2022-11-30 22:55:59
,wl-rdm,70,192435,0.0-6.62-0.62,0.0,69.0,,,,,,,[],,,,,,56.4,1.0,i,1.0,True,874.4000000022352,53.0,60.0,40.0,False,,372.43728198208373,[],"[1720, 720]",ColorTask,33.0,63.0,,,HRV,HRV_0315,2022-11-30 22:55:59
,wl-rdm,71,194770,0.0-6.63-0.63,0.0,70.0,,,,,,,[],,,,,,50.0,0.0,u,0.0,True,936.0,57.0,60.0,40.0,False,,321.1070936380867,[],"[1720, 720]",ColorTask,34.0,64.0,,,HRV,HRV_0315,2022-11-30 22:55:59
,wl-rdm,72,196939,0.0-6.64-0.64,0.0,71.0,,,,,,,[],,,,,,53.2,0.0,u,0.0,True,826.5,50.0,60.0,40.0,False,,262.7652323588296,[],"[1720, 720]",ColorTask,35.0,65.0,,,HRV,HRV_0315,2022-11-30 22:55:59
,wl-rdm,73,198906,0.0-6.65-0.65,0.0,72.0,,,,,,,[],,,,,,62.5,0.0,u,0.0,True,640.1000000014901,39.0,60.0,40.0,False,,263.6433088261456,[],"[1720, 720]",ColorTask,36.0,66.0,,,HRV,HRV_0315,2022-11-30 22:55:59
,wl-rdm,74,201107,0.0-6.66-0.66,0.0,73.0,,,,,,,[],,,,,,50.0,1.0,u,0.0,False,831.0,49.0,60.0,40.0,False,,304.66196552989646,[],"[1720, 720]",ColorTask,35.0,67.0,,,HRV,HRV_0315,2022-11-30 22:55:59
,wl-rdm,75,203377,0.0-6.67-0.67,0.0,74.0,,,,,,,[],,,,,,56.4,0.0,u,0.0,True,945.0999999977648,57.0,60.0,40.0,False,,254.8135285016738,[],"[1720, 720]",ColorTask,36.0,68.0,,,HRV,HRV_0315,2022-11-30 22:55:59
,wl-rdm,76,205858,0.0-6.68-0.68,0.0,75.0,,,,,,,[],,,,,,53.2,0.0,i,1.0,False,1170.1000000014901,69.0,60.0,40.0,False,,265.6095375673351,[],"[1720, 720]",ColorTask,35.0,69.0,,,HRV,HRV_0315,2022-11-30 22:55:59
,wl-rdm,77,207809,0.0-6.69-0.69,0.0,76.0,,,,,,,[],,,,,,87.9,0.0,u,0.0,True,639.6999999992549,39.0,60.0,40.0,False,,240.80802336360136,[],"[1720, 720]",ColorTask,36.0,70.0,,,HRV,HRV_0315,2022-11-30 22:55:59
,wl-rdm,78,210160,0.0-6.70-0.70,0.0,77.0,,,,,,,[],,,,,,50.0,1.0,u,0.0,False,975.3999999985099,59.0,60.0,40.0,False,,302.5773491448465,[],"[1720, 720]",ColorTask,35.0,71.0,,,HRV,HRV_0315,2022-11-30 22:55:59
,wl-rdm,79,212412,0.0-6.71-0.71,0.0,78.0,,,,,,,[],,,,,,56.4,0.0,u,0.0,True,923.1000000014901,54.0,60.0,40.0,False,,258.4998449723917,[],"[1720, 720]",ColorTask,36.0,72.0,,,HRV,HRV_0315,2022-11-30 22:55:59
,wl-rdm,80,214829,0.0-6.72-0.72,0.0,79.0,,,,,,,[],,,,,,53.2,1.0,i,1.0,True,1052.8000000044703,62.0,60.0,40.0,False,,268.75410657543176,[],"[1720, 720]",ColorTask,37.0,73.0,,,HRV,HRV_0315,2022-11-30 22:55:59
,wl-rdm,81,216796,0.0-6.73-0.73,0.0,80.0,,,,,,,[],,,,,,73.6,1.0,i,1.0,True,682.5999999977648,41.0,60.0,40.0,False,,219.02716573142146,[],"[1720, 720]",ColorTask,38.0,74.0,,,HRV,HRV_0315,2022-11-30 22:55:59
,wl-rdm,82,218981,0.0-6.74-0.74,0.0,81.0,,,,,,,[],,,,,,56.4,1.0,i,1.0,True,766.5,46.0,60.0,40.0,False,,350.81916102580294,[],"[1720, 720]",ColorTask,39.0,75.0,,,HRV,HRV_0315,2022-11-30 22:55:59
,wl-rdm,83,221248,0.0-6.75-0.75,0.0,82.0,,,,,,,[],,,,,,50.0,0.0,u,0.0,True,985.6999999992549,60.0,60.0,40.0,False,,208.36789414991816,[],"[1720, 720]",ColorTask,40.0,76.0,,,HRV,HRV_0315,2022-11-30 22:55:59
,wl-rdm,84,223449,0.0-6.76-0.76,0.0,82.0,,,,,,,[],,,,,,62.5,1.0,i,1.0,True,846.0999999977648,51.0,60.0,40.0,True,blurEvent ,289.4931429008296,[],"[1720, 720]",ColorTask,41.0,77.0,,,HRV,HRV_0315,2022-11-30 22:55:59
,wl-rdm,85,225500,0.0-6.77-0.77,0.0,83.0,,,,,,,[],,,,,,73.6,0.0,u,0.0,True,758.8999999985099,46.0,60.0,40.0,False,,242.6648886563054,[],"[1720, 720]",ColorTask,42.0,78.0,,,HRV,HRV_0315,2022-11-30 22:55:59
,wl-rdm,86,227801,0.0-6.78-0.78,0.0,84.0,,,,,,,[],,,,,,56.4,0.0,u,0.0,True,876.6000000014901,53.0,60.0,40.0,False,,356.5458497610473,[],"[1720, 720]",ColorTask,43.0,79.0,,,HRV,HRV_0315,2022-11-30 22:55:59
,wl-rdm,87,229719,0.0-6.79-0.79,0.0,85.0,,,,,,,[],,,,,,73.6,0.0,u,0.0,True,626.0999999977648,38.0,60.0,40.0,False,,226.08385987292516,[],"[1720, 720]",ColorTask,44.0,80.0,,,HRV,HRV_0315,2022-11-30 22:55:59
,wl-rdm,88,231503,0.0-6.80-0.80,0.0,86.0,,,,,,,[],,,,,,87.9,1.0,i,1.0,True,529.1000000014901,32.0,60.0,40.0,False,,212.3543159308042,[],"[1720, 720]",ColorTask,45.0,81.0,,,HRV,HRV_0315,2022-11-30 22:55:59
,wl-rdm,89,233454,0.0-6.81-0.81,0.0,87.0,,,,,,,[],,,,,,87.9,1.0,i,1.0,True,573.9000000022352,34.0,60.0,40.0,False,,303.50926594782294,[],"[1720, 720]",ColorTask,46.0,82.0,,,HRV,HRV_0315,2022-11-30 22:55:59
,wl-rdm,90,235905,0.0-6.82-0.82,0.0,88.0,,,,,,,[],,,,,,62.5,1.0,i,1.0,True,1055.300000000745,64.0,60.0,40.0,False,,321.5455240633093,[],"[1720, 720]",ColorTask,47.0,83.0,,,HRV,HRV_0315,2022-11-30 22:55:59
,wl-rdm,91,238306,0.0-6.83-0.83,0.0,89.0,,,,,,,[],,,,,,53.2,0.0,u,0.0,True,982.8000000007451,59.0,60.0,40.0,False,,355.70195487601524,[],"[1720, 720]",ColorTask,48.0,84.0,,,HRV,HRV_0315,2022-11-30 22:55:59
,wl-rdm,92,240574,0.0-6.84-0.84,0.0,90.0,,,,,,,[],,,,,,53.2,0.0,u,0.0,True,908.8000000007451,54.0,60.0,40.0,False,,281.7454790046171,[],"[1720, 720]",ColorTask,49.0,85.0,,,HRV,HRV_0315,2022-11-30 22:55:59
,wl-rdm,93,243009,0.0-6.85-0.85,0.0,91.0,,,,,,,[],,,,,,56.4,1.0,i,1.0,True,1029.2000000029802,60.0,60.0,40.0,False,,341.5366923366769,[],"[1720, 720]",ColorTask,50.0,86.0,,,HRV,HRV_0315,2022-11-30 22:55:59
,wl-rdm,94,245092,0.0-6.86-0.86,0.0,92.0,,,,,,,[],,,,,,73.6,1.0,i,1.0,True,783.3999999985099,47.0,60.0,40.0,False,,232.48281422645067,[],"[1720, 720]",ColorTask,51.0,87.0,,,HRV,HRV_0315,2022-11-30 22:55:59
,wl-rdm,95,247344,0.0-6.87-0.87,0.0,93.0,,,,,,,[],,,,,,56.4,1.0,u,0.0,False,961.5,57.0,60.0,40.0,False,,205.09177968278826,[],"[1720, 720]",ColorTask,50.0,88.0,,,HRV,HRV_0315,2022-11-30 22:55:59
,wl-rdm,96,249795,0.0-6.88-0.88,0.0,94.0,,,,,,,[],,,,,,56.4,1.0,i,1.0,True,1151.1999999955297,70.0,60.0,40.0,False,,231.6092249071262,[],"[1720, 720]",ColorTask,51.0,89.0,,,HRV,HRV_0315,2022-11-30 22:55:59
,wl-rdm,97,251946,0.0-6.89-0.89,0.0,95.0,,,,,,,[],,,,,,62.5,0.0,u,0.0,True,819.3000000007451,50.0,60.0,40.0,False,,266.03499006568944,[],"[1720, 720]",ColorTask,52.0,90.0,,,HRV,HRV_0315,2022-11-30 22:55:59
,wl-rdm,98,254313,0.0-6.90-0.90,0.0,95.0,,,,,,,[],,,,,,53.2,1.0,i,1.0,True,1054.4000000022352,64.0,60.0,40.0,True,blurEvent ,240.2599398291482,[],"[1720, 720]",ColorTask,53.0,91.0,,,HRV,HRV_0315,2022-11-30 22:55:59
,wl-rdm,99,256715,0.0-6.91-0.91,0.0,96.0,,,,,,,[],,,,,,62.5,1.0,i,1.0,True,1074.5,64.0,60.0,40.0,False,,281.46579367822847,[],"[1720, 720]",ColorTask,54.0,92.0,,,HRV,HRV_0315,2022-11-30 22:55:59
,wl-rdm,100,258815,0.0-6.92-0.92,0.0,97.0,,,,,,,[],,,,,,87.9,0.0,u,0.0,True,714.6999999992549,42.0,60.0,40.0,False,,323.45677148717107,[],"[1720, 720]",ColorTask,55.0,93.0,,,HRV,HRV_0315,2022-11-30 22:55:59
,wl-rdm,101,261118,0.0-6.93-0.93,0.0,98.0,,,,,,,[],,,,,,53.2,1.0,i,1.0,True,920.5999999977648,55.0,60.0,40.0,False,,301.4939013165422,[],"[1720, 720]",ColorTask,56.0,94.0,,,HRV,HRV_0315,2022-11-30 22:55:59
,wl-rdm,102,263501,0.0-6.94-0.94,0.0,99.0,,,,,,,[],,,,,,50.0,1.0,i,1.0,True,1071.0,63.0,60.0,40.0,False,,235.67496711025098,[],"[1720, 720]",ColorTask,57.0,95.0,,,HRV,HRV_0315,2022-11-30 22:55:59
,wl-rdm,103,265720,0.0-6.95-0.95,0.0,100.0,,,,,,,[],,,,,,73.6,0.0,u,0.0,True,842.1000000014901,50.0,60.0,40.0,False,,296.70886518190207,[],"[1720, 720]",ColorTask,58.0,96.0,,,HRV,HRV_0315,2022-11-30 22:55:59
,wl-rdm,104,267654,0.0-6.96-0.96,0.0,101.0,,,,,,,[],,,,,,87.9,1.0,i,1.0,True,657.5,40.0,60.0,40.0,False,,200.86367486750638,[],"[1720, 720]",ColorTask,59.0,97.0,,,HRV,HRV_0315,2022-11-30 22:55:59
,wl-rdm,105,269738,0.0-6.97-0.97,0.0,102.0,,,,,,,[],,,,,,50.0,0.0,u,0.0,True,761.8999999985099,45.0,60.0,40.0,False,,235.55343501235126,[],"[1720, 720]",ColorTask,60.0,98.0,,,HRV,HRV_0315,2022-11-30 22:55:59
,wl-rdm,106,272322,0.0-6.98-0.98,0.0,103.0,,,,,,,[],,,,,,50.0,1.0,u,0.0,False,1271.199999999255,77.0,60.0,40.0,False,,228.30998545211065,[],"[1720, 720]",ColorTask,59.0,99.0,,,HRV,HRV_0315,2022-11-30 22:55:59
,wl-rdm,107,274289,0.0-6.99-0.99,0.0,104.0,,,,,,,[],,,,,,73.6,1.0,i,1.0,True,643.7000000029802,39.0,60.0,40.0,False,,246.9147390046635,[],"[1720, 720]",ColorTask,60.0,100.0,,,HRV,HRV_0315,2022-11-30 22:55:59
,wl-rdm,108,276458,0.0-6.100-0.100,0.0,105.0,,,,,,,[],,,,,,73.6,0.0,u,0.0,True,776.0999999977648,47.0,60.0,40.0,False,,305.10668582646736,[],"[1720, 720]",ColorTask,61.0,101.0,,,HRV,HRV_0315,2022-11-30 22:55:59
,wl-rdm,109,278959,0.0-6.101-0.101,0.0,106.0,,,,,,,[],,,,,,62.5,1.0,i,1.0,True,1101.6000000014901,64.0,60.0,40.0,False,,317.4293668252277,[],"[1720, 720]",ColorTask,62.0,102.0,,,HRV,HRV_0315,2022-11-30 22:55:59
,wl-rdm,110,281192,0.0-6.102-0.102,0.0,107.0,,,,,,,[],,,,,,73.6,0.0,u,0.0,True,925.3999999985099,56.0,60.0,40.0,False,,247.57638848484234,[],"[1720, 720]",ColorTask,63.0,103.0,,,HRV,HRV_0315,2022-11-30 22:55:59
,wl-rdm,111,283393,0.0-6.103-0.103,0.0,108.0,,,,,,,[],,,,,,53.2,0.0,u,0.0,True,886.1000000014901,54.0,60.0,40.0,False,,232.18749260420148,[],"[1720, 720]",ColorTask,64.0,104.0,,,HRV,HRV_0315,2022-11-30 22:55:59
,wl-rdm,112,285394,0.0-6.104-0.104,0.0,109.0,,,,,,,[],,,,,,50.0,0.0,i,1.0,False,664.9000000022352,40.0,60.0,40.0,False,,283.0053344784235,[],"[1720, 720]",ColorTask,63.0,105.0,,,HRV,HRV_0315,2022-11-30 22:55:59
,wl-rdm,113,287578,0.0-6.105-0.105,0.0,110.0,,,,,,,[],,,,,,87.9,0.0,u,0.0,True,824.6999999992549,50.0,60.0,40.0,False,,297.83232692142906,[],"[1720, 720]",ColorTask,64.0,106.0,,,HRV,HRV_0315,2022-11-30 22:55:59
,wl-rdm,114,290246,0.0-6.106-0.106,0.0,111.0,,,,,,,[],,,,,,56.4,0.0,i,1.0,False,1321.7000000029802,79.0,60.0,40.0,False,,275.8687997869633,[],"[1720, 720]",ColorTask,63.0,107.0,,,HRV,HRV_0315,2022-11-30 22:55:59
,wl-rdm,115,292381,0.0-6.107-0.107,0.0,112.0,,,,,,,[],,,,,,62.5,0.0,u,0.0,True,839.9000000022352,50.0,60.0,40.0,False,,217.35161029641426,[],"[1720, 720]",ColorTask,64.0,108.0,,,HRV,HRV_0315,2022-11-30 22:55:59
,wl-html-keyboard-response,116,303081,0.0-7.0-0.0,1.0,112.0,,,,,,,,8691.900000002235,1.0,0,,,,,,,,,,,,True,undefinedblurEvent ,,,,,,,,,HRV,HRV_0315,2022-11-30 22:55:59
,wl-rdm,117,305204,0.0-8.0-0.0,1.0,113.0,,,,,,,[],,,,,,73.6,1.0,i,1.0,True,706.6999999992549,42.0,60.0,40.0,False,,344.39250720072033,[],"[1720, 720]",ColorTask,65.0,1.0,,,HRV,HRV_0315,2022-11-30 22:55:59
,wl-rdm,118,307105,0.0-8.1-0.1,1.0,114.0,,,,,,,[],,,,,,87.9,1.0,i,1.0,True,572.4000000022352,35.0,60.0,40.0,False,,252.634394885156,[],"[1720, 720]",ColorTask,66.0,2.0,,,HRV,HRV_0315,2022-11-30 22:55:59
,wl-rdm,119,309140,0.0-8.2-0.2,1.0,115.0,,,,,,,[],,,,,,53.2,0.0,u,0.0,True,734.8999999985099,43.0,60.0,40.0,False,,217.18078839606864,[],"[1720, 720]",ColorTask,67.0,3.0,,,HRV,HRV_0315,2022-11-30 22:55:59
,wl-rdm,120,311207,0.0-8.3-0.3,1.0,116.0,,,,,,,[],,,,,,73.6,1.0,i,1.0,True,800.6999999992549,47.0,60.0,40.0,False,,205.68678158723708,[],"[1720, 720]",ColorTask,68.0,4.0,,,HRV,HRV_0315,2022-11-30 22:55:59
,wl-rdm,121,313492,0.0-8.4-0.4,1.0,117.0,,,,,,,[],,,,,,73.6,0.0,u,0.0,True,858.7000000029802,51.0,60.0,40.0,False,,361.2988073534752,[],"[1720, 720]",ColorTask,69.0,5.0,,,HRV,HRV_0315,2022-11-30 22:55:59
,wl-rdm,122,315509,0.0-8.5-0.5,1.0,118.0,,,,,,,[],,,,,,56.4,1.0,i,1.0,True,619.3999999985099,37.0,60.0,40.0,False,,329.3592020351829,[],"[1720, 720]",ColorTask,70.0,6.0,,,HRV,HRV_0315,2022-11-30 22:55:59
,wl-rdm,123,317660,0.0-8.6-0.6,1.0,119.0,,,,,,,[],,,,,,50.0,1.0,u,0.0,False,749.9000000022352,44.0,60.0,40.0,False,,328.6962473006048,[],"[1720, 720]",ColorTask,69.0,7.0,,,HRV,HRV_0315,2022-11-30 22:55:59
,wl-rdm,124,319761,0.0-8.7-0.7,1.0,120.0,,,,,,,[],,,,,,56.4,1.0,i,1.0,True,765.1000000014901,45.0,60.0,40.0,False,,267.2469971507579,[],"[1720, 720]",ColorTask,70.0,8.0,,,HRV,HRV_0315,2022-11-30 22:55:59
,wl-rdm,125,321778,0.0-8.8-0.8,1.0,121.0,,,,,,,[],,,,,,50.0,0.0,u,0.0,True,748.3999999985099,45.0,60.0,40.0,False,,208.7916571410486,[],"[1720, 720]",ColorTask,71.0,9.0,,,HRV,HRV_0315,2022-11-30 22:55:59
,wl-rdm,126,323846,0.0-8.9-0.9,1.0,122.0,,,,,,,[],,,,,,87.9,0.0,u,0.0,True,768.5999999977648,47.0,60.0,40.0,False,,209.71421409375137,[],"[1720, 720]",ColorTask,72.0,10.0,,,HRV,HRV_0315,2022-11-30 22:55:59
,wl-rdm,127,325997,0.0-8.10-0.10,1.0,123.0,,,,,,,[],,,,,,73.6,1.0,i,1.0,True,683.3000000007451,40.0,60.0,40.0,False,,392.13055388350256,[],"[1720, 720]",ColorTask,73.0,11.0,,,HRV,HRV_0315,2022-11-30 22:55:59
,wl-rdm,128,328165,0.0-8.11-0.11,1.0,124.0,,,,,,,[],,,,,,53.2,1.0,u,0.0,False,842.9000000022352,51.0,60.0,40.0,False,,257.2487679050522,[],"[1720, 720]",ColorTask,72.0,12.0,,,HRV,HRV_0315,2022-11-30 22:55:59
,wl-rdm,129,330099,0.0-8.12-0.12,1.0,125.0,,,,,,,[],,,,,,73.6,1.0,i,1.0,True,646.6999999992549,37.0,60.0,40.0,False,,226.0156979866838,[],"[1720, 720]",ColorTask,73.0,13.0,,,HRV,HRV_0315,2022-11-30 22:55:59
,wl-rdm,130,332283,0.0-8.13-0.13,1.0,126.0,,,,,,,[],,,,,,87.9,0.0,u,0.0,True,728.3000000007451,44.0,60.0,40.0,False,,392.4299804398181,[],"[1720, 720]",ColorTask,74.0,14.0,,,HRV,HRV_0315,2022-11-30 22:55:59
,wl-rdm,131,334984,0.0-8.14-0.14,1.0,127.0,,,,,,,[],,,,,,50.0,1.0,i,1.0,True,1250.9000000022352,73.0,60.0,40.0,False,,375.8704472878937,[],"[1720, 720]",ColorTask,75.0,15.0,,,HRV,HRV_0315,2022-11-30 22:55:59
,wl-rdm,132,337052,0.0-8.15-0.15,1.0,128.0,,,,,,,[],,,,,,73.6,0.0,u,0.0,True,648.3000000007451,39.0,60.0,40.0,False,,361.4113431293967,[],"[1720, 720]",ColorTask,76.0,16.0,,,HRV,HRV_0315,2022-11-30 22:55:59
,wl-rdm,133,339553,0.0-8.16-0.16,1.0,129.0,,,,,,,[],,,,,,53.2,0.0,u,0.0,True,1056.300000000745,63.0,60.0,40.0,False,,376.61354941623705,[],"[1720, 720]",ColorTask,77.0,17.0,,,HRV,HRV_0315,2022-11-30 22:55:59
,wl-rdm,134,341654,0.0-8.17-0.17,1.0,130.0,,,,,,,[],,,,,,53.2,0.0,i,1.0,False,760.4000000022352,45.0,60.0,40.0,False,,273.63619938824536,[],"[1720, 720]",ColorTask,76.0,18.0,,,HRV,HRV_0315,2022-11-30 22:55:59
,wl-rdm,135,343822,0.0-8.18-0.18,1.0,131.0,,,,,,,[],,,,,,53.2,0.0,i,1.0,False,829.5,48.0,60.0,40.0,False,,274.6626503773919,[],"[1720, 720]",ColorTask,75.0,19.0,,,HRV,HRV_0315,2022-11-30 22:55:59
,wl-rdm,136,345957,0.0-8.19-0.19,1.0,132.0,,,,,,,[],,,,,,73.6,0.0,u,0.0,True,825.2999999970198,48.0,60.0,40.0,False,,262.06634592835906,[],"[1720, 720]",ColorTask,76.0,20.0,,,HRV,HRV_0315,2022-11-30 22:55:59
,wl-rdm,137,348124,0.0-8.20-0.20,1.0,133.0,,,,,,,[],,,,,,53.2,1.0,i,1.0,True,772.0,46.0,60.0,40.0,False,,322.42409073669364,[],"[1720, 720]",ColorTask,77.0,21.0,,,HRV,HRV_0315,2022-11-30 22:55:59
,wl-rdm,138,350258,0.0-8.21-0.21,1.0,134.0,,,,,,,[],,,,,,73.6,1.0,i,1.0,True,849.7000000029802,51.0,60.0,40.0,False,,200.92708495751907,[],"[1720, 720]",ColorTask,78.0,22.0,,,HRV,HRV_0315,2022-11-30 22:55:59
,wl-rdm,139,352410,0.0-8.22-0.22,1.0,135.0,,,,,,,[],,,,,,62.5,0.0,u,0.0,True,718.1000000014901,44.0,60.0,40.0,False,,339.4523658216049,[],"[1720, 720]",ColorTask,79.0,23.0,,,HRV,HRV_0315,2022-11-30 22:55:59
,wl-rdm,140,354712,0.0-8.23-0.23,1.0,136.0,,,,,,,[],,,,,,56.4,0.0,i,1.0,False,947.8999999985099,57.0,60.0,40.0,False,,268.4405121108115,[],"[1720, 720]",ColorTask,78.0,24.0,,,HRV,HRV_0315,2022-11-30 22:55:59
,wl-rdm,141,357111,0.0-8.24-0.24,1.0,137.0,,,,,,,[],,,,,,62.5,0.0,u,0.0,True,1026.4000000022352,61.0,60.0,40.0,False,,316.81416976564685,[],"[1720, 720]",ColorTask,79.0,25.0,,,HRV,HRV_0315,2022-11-30 22:55:59
,wl-rdm,142,359863,0.0-8.25-0.25,1.0,138.0,,,,,,,[],,,,,,53.2,0.0,u,0.0,True,1397.699999999255,82.0,60.0,40.0,False,,290.0734561464797,[],"[1720, 720]",ColorTask,80.0,26.0,,,HRV,HRV_0315,2022-11-30 22:55:59
,wl-rdm,143,362164,0.0-8.26-0.26,1.0,139.0,,,,,,,[],,,,,,62.5,1.0,i,1.0,True,911.8000000007451,55.0,60.0,40.0,False,,323.9262260537785,[],"[1720, 720]",ColorTask,81.0,27.0,,,HRV,HRV_0315,2022-11-30 22:55:59
,wl-rdm,144,364598,0.0-8.27-0.27,1.0,140.0,,,,,,,[],,,,,,56.4,0.0,u,0.0,True,1032.4000000022352,61.0,60.0,40.0,False,,345.3458155071826,[],"[1720, 720]",ColorTask,82.0,28.0,,,HRV,HRV_0315,2022-11-30 22:55:59
,wl-rdm,145,366982,0.0-8.28-0.28,1.0,141.0,,,,,,,[],,,,,,56.4,1.0,i,1.0,True,1022.5,60.0,60.0,40.0,False,,296.75666964113026,[],"[1720, 720]",ColorTask,83.0,29.0,,,HRV,HRV_0315,2022-11-30 22:55:59
,wl-rdm,146,369000,0.0-8.29-0.29,1.0,142.0,,,,,,,[],,,,,,73.6,1.0,i,1.0,True,743.6000000014901,45.0,60.0,40.0,False,,213.97780893683984,[],"[1720, 720]",ColorTask,84.0,30.0,,,HRV,HRV_0315,2022-11-30 22:55:59
,wl-rdm,147,371384,0.0-8.30-0.30,1.0,143.0,,,,,,,[],,,,,,56.4,1.0,u,0.0,False,1054.199999999255,61.0,60.0,40.0,False,,248.01390811285677,[],"[1720, 720]",ColorTask,83.0,31.0,,,HRV,HRV_0315,2022-11-30 22:55:59
,wl-rdm,148,373619,0.0-8.31-0.31,1.0,144.0,,,,,,,[],,,,,,50.0,1.0,u,0.0,False,953.5999999977648,56.0,60.0,40.0,False,,208.14035976543943,[],"[1720, 720]",ColorTask,82.0,32.0,,,HRV,HRV_0315,2022-11-30 22:55:59
,wl-rdm,149,375972,0.0-8.32-0.32,1.0,145.0,,,,,,,[],,,,,,53.2,0.0,u,0.0,True,1074.2000000029802,64.0,60.0,40.0,False,,209.71663113812258,[],"[1720, 720]",ColorTask,83.0,33.0,,,HRV,HRV_0315,2022-11-30 22:55:59
,wl-rdm,150,378087,0.0-8.33-0.33,1.0,146.0,,,,,,,[],,,,,,87.9,1.0,i,1.0,True,750.2999999970198,46.0,60.0,40.0,False,,290.2098384417892,[],"[1720, 720]",ColorTask,84.0,34.0,,,HRV,HRV_0315,2022-11-30 22:55:59
,wl-rdm,151,380055,0.0-8.34-0.34,1.0,147.0,,,,,,,[],,,,,,73.6,0.0,u,0.0,True,681.6999999992549,41.0,60.0,40.0,False,,227.284724928644,[],"[1720, 720]",ColorTask,85.0,35.0,,,HRV,HRV_0315,2022-11-30 22:55:59
,wl-rdm,152,381973,0.0-8.35-0.35,1.0,148.0,,,,,,,[],,,,,,50.0,1.0,i,1.0,True,606.3000000007451,36.0,60.0,40.0,False,,235.08638640094534,[],"[1720, 720]",ColorTask,86.0,36.0,,,HRV,HRV_0315,2022-11-30 22:55:59
,wl-rdm,153,384191,0.0-8.36-0.36,1.0,149.0,,,,,,,[],,,,,,62.5,1.0,i,1.0,True,886.6999999992549,53.0,60.0,40.0,False,,267.83096663311954,[],"[1720, 720]",ColorTask,87.0,37.0,,,HRV,HRV_0315,2022-11-30 22:55:59
,wl-rdm,154,386594,0.0-8.37-0.37,1.0,150.0,,,,,,,[],,,,,,53.2,1.0,u,0.0,False,1073.9000000022352,64.0,60.0,40.0,False,,249.33492292187205,[],"[1720, 720]",ColorTask,86.0,38.0,,,HRV,HRV_0315,2022-11-30 22:55:59
,wl-rdm,155,388676,0.0-8.38-0.38,1.0,151.0,,,,,,,[],,,,,,62.5,0.0,u,0.0,True,773.8999999985099,46.0,60.0,40.0,False,,223.46011935934663,[],"[1720, 720]",ColorTask,87.0,39.0,,,HRV,HRV_0315,2022-11-30 22:55:59
,wl-rdm,156,390694,0.0-8.39-0.39,1.0,152.0,,,,,,,[],,,,,,87.9,1.0,i,1.0,True,567.3000000007451,32.0,60.0,40.0,False,,371.91448298665483,[],"[1720, 720]",ColorTask,88.0,40.0,,,HRV,HRV_0315,2022-11-30 22:55:59
,wl-rdm,157,392877,0.0-8.40-0.40,1.0,153.0,,,,,,,[],,,,,,87.9,0.0,u,0.0,True,838.6000000014901,51.0,60.0,40.0,False,,279.4565179922613,[],"[1720, 720]",ColorTask,89.0,41.0,,,HRV,HRV_0315,2022-11-30 22:55:59
,wl-rdm,158,395195,0.0-8.41-0.41,1.0,154.0,,,,,,,[],,,,,,50.0,0.0,u,0.0,True,1016.3000000007451,60.0,60.0,40.0,False,,212.42611537537599,[],"[1720, 720]",ColorTask,90.0,42.0,,,HRV,HRV_0315,2022-11-30 22:55:59
,wl-rdm,159,397263,0.0-8.42-0.42,1.0,155.0,,,,,,,[],,,,,,87.9,0.0,u,0.0,True,727.7000000029802,43.0,60.0,40.0,False,,266.2129449393174,[],"[1720, 720]",ColorTask,91.0,43.0,,,HRV,HRV_0315,2022-11-30 22:55:59
,wl-rdm,160,399580,0.0-8.43-0.43,1.0,156.0,,,,,,,[],,,,,,73.6,0.0,u,0.0,True,906.8000000044703,53.0,60.0,40.0,False,,358.77970307895987,[],"[1720, 720]",ColorTask,92.0,44.0,,,HRV,HRV_0315,2022-11-30 22:55:59
,wl-rdm,161,402265,0.0-8.44-0.44,1.0,157.0,,,,,,,[],,,,,,56.4,0.0,u,0.0,True,1263.8999999985099,74.0,60.0,40.0,False,,338.7812854947755,[],"[1720, 720]",ColorTask,93.0,45.0,,,HRV,HRV_0315,2022-11-30 22:55:59
,wl-rdm,162,404583,0.0-8.45-0.45,1.0,158.0,,,,,,,[],,,,,,50.0,1.0,u,0.0,False,919.0,56.0,60.0,40.0,False,,345.4463925051198,[],"[1720, 720]",ColorTask,92.0,46.0,,,HRV,HRV_0315,2022-11-30 22:55:59
,wl-rdm,163,406750,0.0-8.46-0.46,1.0,159.0,,,,,,,[],,,,,,62.5,0.0,u,0.0,True,864.3000000007451,52.0,60.0,40.0,False,,218.98890999385173,[],"[1720, 720]",ColorTask,93.0,47.0,,,HRV,HRV_0315,2022-11-30 22:55:59
,wl-rdm,164,409368,0.0-8.47-0.47,1.0,160.0,,,,,,,[],,,,,,50.0,1.0,u,0.0,False,1321.4000000022352,80.0,60.0,40.0,False,,214.53391418419238,[],"[1720, 720]",ColorTask,92.0,48.0,,,HRV,HRV_0315,2022-11-30 22:55:59
,wl-rdm,165,411552,0.0-8.48-0.48,1.0,161.0,,,,,,,[],,,,,,53.2,1.0,u,0.0,False,860.6000000014901,52.0,60.0,40.0,False,,238.5861080821102,[],"[1720, 720]",ColorTask,91.0,49.0,,,HRV,HRV_0315,2022-11-30 22:55:59
,wl-rdm,166,414154,0.0-8.49-0.49,1.0,162.0,,,,,,,[],,,,,,62.5,1.0,i,1.0,True,1288.800000000745,76.0,60.0,40.0,False,,236.29441422291177,[],"[1720, 720]",ColorTask,92.0,50.0,,,HRV,HRV_0315,2022-11-30 22:55:59
,wl-rdm,167,416088,0.0-8.50-0.50,1.0,163.0,,,,,,,[],,,,,,87.9,0.0,u,0.0,True,641.2000000029802,39.0,60.0,40.0,False,,224.0571339152347,[],"[1720, 720]",ColorTask,93.0,51.0,,,HRV,HRV_0315,2022-11-30 22:55:59
,wl-rdm,168,418139,0.0-8.51-0.51,1.0,164.0,,,,,,,[],,,,,,87.9,1.0,i,1.0,True,678.1000000014901,40.0,60.0,40.0,False,,313.6374723978418,[],"[1720, 720]",ColorTask,94.0,52.0,,,HRV,HRV_0315,2022-11-30 22:55:59
,wl-rdm,169,420657,0.0-8.52-0.52,1.0,165.0,,,,,,,[],,,,,,56.4,0.0,u,0.0,True,1114.0,65.0,60.0,40.0,False,,335.61628069718154,[],"[1720, 720]",ColorTask,95.0,53.0,,,HRV,HRV_0315,2022-11-30 22:55:59
,wl-rdm,170,423158,0.0-8.53-0.53,1.0,166.0,,,,,,,[],,,,,,73.6,0.0,u,0.0,True,1037.8999999985099,62.0,60.0,40.0,False,,366.2304745783258,[],"[1720, 720]",ColorTask,96.0,54.0,,,HRV,HRV_0315,2022-11-30 22:55:59
,wl-rdm,171,425276,0.0-8.54-0.54,1.0,167.0,,,,,,,[],,,,,,53.2,0.0,u,0.0,True,781.6999999992549,46.0,60.0,40.0,False,,254.50756644683997,[],"[1720, 720]",ColorTask,97.0,55.0,,,HRV,HRV_0315,2022-11-30 22:55:59
,wl-rdm,172,427627,0.0-8.55-0.55,1.0,168.0,,,,,,,[],,,,,,62.5,0.0,u,0.0,True,1072.9000000022352,63.0,60.0,40.0,False,,219.011120860914,[],"[1720, 720]",ColorTask,98.0,56.0,,,HRV,HRV_0315,2022-11-30 22:55:59
,wl-rdm,173,430061,0.0-8.56-0.56,1.0,169.0,,,,,,,[],,,,,,53.2,1.0,i,1.0,True,1124.300000000745,67.0,60.0,40.0,False,,228.7056122167409,[],"[1720, 720]",ColorTask,99.0,57.0,,,HRV,HRV_0315,2022-11-30 22:55:59
,wl-rdm,174,432645,0.0-8.57-0.57,1.0,170.0,,,,,,,[],,,,,,62.5,0.0,i,1.0,False,1233.2000000029802,75.0,60.0,40.0,False,,241.34505763684714,[],"[1720, 720]",ColorTask,98.0,58.0,,,HRV,HRV_0315,2022-11-30 22:55:59
,wl-rdm,175,434730,0.0-8.58-0.58,1.0,171.0,,,,,,,[],,,,,,73.6,0.0,u,0.0,True,792.0,47.0,60.0,40.0,False,,227.5893796480911,[],"[1720, 720]",ColorTask,99.0,59.0,,,HRV,HRV_0315,2022-11-30 22:55:59
,wl-rdm,176,436881,0.0-8.59-0.59,1.0,172.0,,,,,,,[],,,,,,62.5,0.0,u,0.0,True,861.3000000007451,51.0,60.0,40.0,False,,233.22887053172997,[],"[1720, 720]",ColorTask,100.0,60.0,,,HRV,HRV_0315,2022-11-30 22:55:59
,wl-rdm,177,439098,0.0-8.60-0.60,1.0,173.0,,,,,,,[],,,,,,50.0,1.0,i,1.0,True,819.4000000022352,50.0,60.0,40.0,False,,321.74922835382506,[],"[1720, 720]",ColorTask,101.0,61.0,,,HRV,HRV_0315,2022-11-30 22:55:59
,wl-rdm,178,441066,0.0-8.61-0.61,1.0,174.0,,,,,,,[],,,,,,87.9,0.0,u,0.0,True,684.0,41.0,60.0,40.0,False,,202.1157293829038,[],"[1720, 720]",ColorTask,102.0,62.0,,,HRV,HRV_0315,2022-11-30 22:55:59
,wl-rdm,179,443200,0.0-8.62-0.62,1.0,175.0,,,,,,,[],,,,,,62.5,1.0,i,1.0,True,783.4000000022352,46.0,60.0,40.0,False,,295.6401924841131,[],"[1720, 720]",ColorTask,103.0,63.0,,,HRV,HRV_0315,2022-11-30 22:55:59
,wl-rdm,180,445735,0.0-8.63-0.63,1.0,176.0,,,,,,,[],,,,,,53.2,1.0,i,1.0,True,1258.800000000745,76.0,60.0,40.0,False,,205.64350308580487,[],"[1720, 720]",ColorTask,104.0,64.0,,,HRV,HRV_0315,2022-11-30 22:55:59
,wl-rdm,181,448086,0.0-8.64-0.64,1.0,177.0,,,,,,,[],,,,,,53.2,1.0,i,1.0,True,895.8000000007451,53.0,60.0,40.0,False,,394.7605065607812,[],"[1720, 720]",ColorTask,105.0,65.0,,,HRV,HRV_0315,2022-11-30 22:55:59
,wl-rdm,182,450437,0.0-8.65-0.65,1.0,178.0,,,,,,,[],,,,,,50.0,0.0,u,0.0,True,1005.3000000007451,61.0,60.0,40.0,False,,279.47279574237115,[],"[1720, 720]",ColorTask,106.0,66.0,,,HRV,HRV_0315,2022-11-30 22:55:59
,wl-rdm,183,452938,0.0-8.66-0.66,1.0,179.0,,,,,,,[],,,,,,50.0,1.0,u,0.0,False,1176.300000000745,70.0,60.0,40.0,False,,264.5784193762387,[],"[1720, 720]",ColorTask,105.0,67.0,,,HRV,HRV_0315,2022-11-30 22:55:59
,wl-rdm,184,455408,0.0-8.67-0.67,1.0,180.0,,,,,,,[],,,,,,50.0,0.0,i,1.0,False,1061.1000000014901,63.0,60.0,40.0,False,,338.9090655255606,[],"[1720, 720]",ColorTask,104.0,68.0,,,HRV,HRV_0315,2022-11-30 22:55:59
,wl-rdm,185,457842,0.0-8.68-0.68,1.0,181.0,,,,,,,[],,,,,,50.0,0.0,i,1.0,False,1116.3999999985099,65.0,60.0,40.0,False,,247.44248135066283,[],"[1720, 720]",ColorTask,103.0,69.0,,,HRV,HRV_0315,2022-11-30 22:55:59
,wl-rdm,186,459992,0.0-8.69-0.69,1.0,182.0,,,,,,,[],,,,,,50.0,0.0,u,0.0,True,842.7000000029802,50.0,60.0,40.0,False,,235.41857410766315,[],"[1720, 720]",ColorTask,104.0,70.0,,,HRV,HRV_0315,2022-11-30 22:55:59
,wl-rdm,187,462192,0.0-8.70-0.70,1.0,183.0,,,,,,,[],,,,,,87.9,0.0,u,0.0,True,892.8000000007451,54.0,60.0,40.0,False,,241.0601151586022,[],"[1720, 720]",ColorTask,105.0,71.0,,,HRV,HRV_0315,2022-11-30 22:55:59
,wl-rdm,188,464260,0.0-8.71-0.71,1.0,184.0,,,,,,,[],,,,,,56.4,1.0,i,1.0,True,791.0,47.0,60.0,40.0,False,,201.5394695239902,[],"[1720, 720]",ColorTask,106.0,72.0,,,HRV,HRV_0315,2022-11-30 22:55:59
,wl-rdm,189,466611,0.0-8.72-0.72,1.0,185.0,,,,,,,[],,,,,,62.5,1.0,i,1.0,True,1069.800000000745,65.0,60.0,40.0,False,,216.3448084804002,[],"[1720, 720]",ColorTask,107.0,73.0,,,HRV,HRV_0315,2022-11-30 22:55:59
,wl-rdm,190,468862,0.0-8.73-0.73,1.0,186.0,,,,,,,[],,,,,,56.4,1.0,i,1.0,True,929.0,55.0,60.0,40.0,False,,254.30504893508677,[],"[1720, 720]",ColorTask,108.0,74.0,,,HRV,HRV_0315,2022-11-30 22:55:59
,wl-rdm,191,471280,0.0-8.74-0.74,1.0,187.0,,,,,,,[],,,,,,56.4,0.0,i,1.0,False,1039.6000000014901,62.0,60.0,40.0,False,,307.3271991866003,[],"[1720, 720]",ColorTask,107.0,75.0,,,HRV,HRV_0315,2022-11-30 22:55:59
,wl-rdm,192,473631,0.0-8.75-0.75,1.0,188.0,,,,,,,[],,,,,,56.4,1.0,i,1.0,True,1017.1999999992549,61.0,60.0,40.0,False,,250.98554960632293,[],"[1720, 720]",ColorTask,108.0,76.0,,,HRV,HRV_0315,2022-11-30 22:55:59
,wl-rdm,193,475815,0.0-8.76-0.76,1.0,189.0,,,,,,,[],,,,,,73.6,1.0,i,1.0,True,889.0,53.0,60.0,40.0,False,,214.8311439760463,[],"[1720, 720]",ColorTask,109.0,77.0,,,HRV,HRV_0315,2022-11-30 22:55:59
,wl-rdm,194,478099,0.0-8.77-0.77,1.0,190.0,,,,,,,[],,,,,,73.6,1.0,i,1.0,True,876.1000000014901,53.0,60.0,40.0,False,,348.46242126539806,[],"[1720, 720]",ColorTask,110.0,78.0,,,HRV,HRV_0315,2022-11-30 22:55:59
,wl-rdm,195,480350,0.0-8.78-0.78,1.0,191.0,,,,,,,[],,,,,,53.2,0.0,u,0.0,True,883.5,52.0,60.0,40.0,False,,285.70536697226567,[],"[1720, 720]",ColorTask,111.0,79.0,,,HRV,HRV_0315,2022-11-30 22:55:59
,wl-rdm,196,482535,0.0-8.79-0.79,1.0,192.0,,,,,,,[],,,,,,73.6,0.0,u,0.0,True,720.9000000022352,44.0,60.0,40.0,False,,384.336375950674,[],"[1720, 720]",ColorTask,112.0,80.0,,,HRV,HRV_0315,2022-11-30 22:55:59
,wl-rdm,197,484602,0.0-8.80-0.80,1.0,193.0,,,,,,,[],,,,,,87.9,1.0,i,1.0,True,632.4000000022352,36.0,60.0,40.0,False,,342.4117046638307,[],"[1720, 720]",ColorTask,113.0,81.0,,,HRV,HRV_0315,2022-11-30 22:55:59
,wl-rdm,198,486937,0.0-8.81-0.81,1.0,194.0,,,,,,,[],,,,,,56.4,1.0,i,1.0,True,951.3000000007451,57.0,60.0,40.0,False,,309.4056551187659,[],"[1720, 720]",ColorTask,114.0,82.0,,,HRV,HRV_0315,2022-11-30 22:55:59
,wl-rdm,199,488871,0.0-8.82-0.82,1.0,195.0,,,,,,,[],,,,,,62.5,1.0,i,1.0,True,659.8000000007451,38.0,60.0,40.0,False,,202.19304581159886,[],"[1720, 720]",ColorTask,115.0,83.0,,,HRV,HRV_0315,2022-11-30 22:55:59
,wl-rdm,200,490856,0.0-8.83-0.83,1.0,196.0,,,,,,,[],,,,,,87.9,1.0,i,1.0,True,703.1000000014901,43.0,60.0,40.0,False,,225.75984039083062,[],"[1720, 720]",ColorTask,116.0,84.0,,,HRV,HRV_0315,2022-11-30 22:55:59
,wl-rdm,201,492991,0.0-8.84-0.84,1.0,197.0,,,,,,,[],,,,,,53.2,1.0,i,1.0,True,784.2000000029802,48.0,60.0,40.0,False,,262.51240776716014,[],"[1720, 720]",ColorTask,117.0,85.0,,,HRV,HRV_0315,2022-11-30 22:55:59
,wl-rdm,202,495324,0.0-8.85-0.85,1.0,198.0,,,,,,,[],,,,,,62.5,1.0,i,1.0,True,1019.7000000029802,61.0,60.0,40.0,False,,213.87922783241498,[],"[1720, 720]",ColorTask,118.0,86.0,,,HRV,HRV_0315,2022-11-30 22:55:59
,wl-rdm,203,497809,0.0-8.86-0.86,1.0,199.0,,,,,,,[],,,,,,56.4,1.0,u,0.0,False,1012.9000000022352,60.0,60.0,40.0,False,,384.92285595334056,[],"[1720, 720]",ColorTask,117.0,87.0,,,HRV,HRV_0315,2022-11-30 22:55:59
,wl-rdm,204,500028,0.0-8.87-0.87,1.0,200.0,,,,,,,[],,,,,,53.2,1.0,u,0.0,False,830.3999999985099,49.0,60.0,40.0,False,,320.9992347594274,[],"[1720, 720]",ColorTask,116.0,88.0,,,HRV,HRV_0315,2022-11-30 22:55:59
,wl-rdm,205,502194,0.0-8.88-0.88,1.0,201.0,,,,,,,[],,,,,,62.5,1.0,i,1.0,True,838.6999999992549,51.0,60.0,40.0,False,,255.8552076733853,[],"[1720, 720]",ColorTask,117.0,89.0,,,HRV,HRV_0315,2022-11-30 22:55:59
,wl-rdm,206,504528,0.0-8.89-0.89,1.0,202.0,,,,,,,[],,,,,,50.0,1.0,i,1.0,True,992.1000000014901,58.0,60.0,40.0,False,,282.24996120777814,[],"[1720, 720]",ColorTask,118.0,90.0,,,HRV,HRV_0315,2022-11-30 22:55:59
,wl-rdm,207,506713,0.0-8.90-0.90,1.0,203.0,,,,,,,[],,,,,,56.4,0.0,u,0.0,True,713.1000000014901,43.0,60.0,40.0,False,,394.95353241525277,[],"[1720, 720]",ColorTask,119.0,91.0,,,HRV,HRV_0315,2022-11-30 22:55:59
,wl-rdm,208,508847,0.0-8.91-0.91,1.0,204.0,,,,,,,[],,,,,,50.0,0.0,u,0.0,True,815.8000000007451,49.0,60.0,40.0,False,,229.7849300173182,[],"[1720, 720]",ColorTask,120.0,92.0,,,HRV,HRV_0315,2022-11-30 22:55:59
,wl-rdm,209,510832,0.0-8.92-0.92,1.0,205.0,,,,,,,[],,,,,,87.9,1.0,i,1.0,True,693.8000000007451,42.0,60.0,40.0,False,,201.58044782419876,[],"[1720, 720]",ColorTask,121.0,93.0,,,HRV,HRV_0315,2022-11-30 22:55:59
,wl-rdm,210,513299,0.0-8.93-0.93,1.0,206.0,,,,,,,[],,,,,,62.5,0.0,u,0.0,True,1014.8000000007451,61.0,60.0,40.0,False,,398.5286995809164,[],"[1720, 720]",ColorTask,122.0,94.0,,,HRV,HRV_0315,2022-11-30 22:55:59
,wl-rdm,211,515483,0.0-8.94-0.94,1.0,207.0,,,,,,,[],,,,,,73.6,1.0,i,1.0,True,770.5,46.0,60.0,40.0,False,,342.3969069390613,[],"[1720, 720]",ColorTask,123.0,95.0,,,HRV,HRV_0315,2022-11-30 22:55:59
,wl-rdm,212,517568,0.0-8.95-0.95,1.0,208.0,,,,,,,[],,,,,,62.5,1.0,i,1.0,True,656.0,39.0,60.0,40.0,False,,323.64983229256995,[],"[1720, 720]",ColorTask,124.0,96.0,,,HRV,HRV_0315,2022-11-30 22:55:59
,wl-rdm,213,519518,0.0-8.96-0.96,1.0,209.0,,,,,,,[],,,,,,56.4,0.0,u,0.0,True,674.0999999977648,41.0,60.0,40.0,False,,202.79320921646948,[],"[1720, 720]",ColorTask,125.0,97.0,,,HRV,HRV_0315,2022-11-30 22:55:59
,wl-rdm,214,521786,0.0-8.97-0.97,1.0,210.0,,,,,,,[],,,,,,73.6,0.0,u,0.0,True,917.8999999985099,53.0,60.0,40.0,False,,278.91466789988056,[],"[1720, 720]",ColorTask,126.0,98.0,,,HRV,HRV_0315,2022-11-30 22:55:59
,wl-rdm,215,523954,0.0-8.98-0.98,1.0,211.0,,,,,,,[],,,,,,50.0,0.0,u,0.0,True,857.3999999985099,51.0,60.0,40.0,False,,233.7988787798157,[],"[1720, 720]",ColorTask,127.0,99.0,,,HRV,HRV_0315,2022-11-30 22:55:59
,wl-rdm,216,525971,0.0-8.99-0.99,1.0,212.0,,,,,,,[],,,,,,56.4,0.0,i,1.0,False,644.1000000014901,39.0,60.0,40.0,False,,300.83516270313817,[],"[1720, 720]",ColorTask,126.0,100.0,,,HRV,HRV_0315,2022-11-30 22:55:59
,wl-rdm,217,528173,0.0-8.100-0.100,1.0,213.0,,,,,,,[],,,,,,87.9,0.0,u,0.0,True,748.0999999977648,44.0,60.0,40.0,False,,384.5505696947662,[],"[1720, 720]",ColorTask,127.0,101.0,,,HRV,HRV_0315,2022-11-30 22:55:59
,wl-rdm,218,530257,0.0-8.101-0.101,1.0,214.0,,,,,,,[],,,,,,87.9,1.0,i,1.0,True,665.8000000007451,40.0,60.0,40.0,False,,365.28845819963396,[],"[1720, 720]",ColorTask,128.0,102.0,,,HRV,HRV_0315,2022-11-30 22:55:59
,wl-rdm,219,532198,0.0-8.102-0.102,1.0,215.0,,,,,,,[],,,,,,87.9,0.0,u,0.0,True,591.1000000014901,35.0,60.0,40.0,False,,269.87981988530555,[],"[1720, 720]",ColorTask,129.0,103.0,,,HRV,HRV_0315,2022-11-30 22:55:59
,wl-rdm,220,534059,0.0-8.103-0.103,1.0,216.0,,,,,,,[],,,,,,87.9,1.0,i,1.0,True,594.0,35.0,60.0,40.0,False,,209.51588740804783,[],"[1720, 720]",ColorTask,130.0,104.0,,,HRV,HRV_0315,2022-11-30 22:55:59
,wl-rdm,221,536293,0.0-8.104-0.104,1.0,217.0,,,,,,,[],,,,,,56.4,0.0,i,1.0,False,960.0,56.0,60.0,40.0,False,,205.91669555859625,[],"[1720, 720]",ColorTask,129.0,105.0,,,HRV,HRV_0315,2022-11-30 22:55:59
,wl-rdm,222,538610,0.0-8.105-0.105,1.0,218.0,,,,,,,[],,,,,,50.0,0.0,u,0.0,True,1047.4000000022352,63.0,60.0,40.0,False,,203.14929532486565,[],"[1720, 720]",ColorTask,130.0,106.0,,,HRV,HRV_0315,2022-11-30 22:55:59
,wl-rdm,223,540761,0.0-8.106-0.106,1.0,219.0,,,,,,,[],,,,,,62.5,0.0,u,0.0,True,787.8000000007451,47.0,60.0,40.0,False,,292.2031180165811,[],"[1720, 720]",ColorTask,131.0,107.0,,,HRV,HRV_0315,2022-11-30 22:55:59
,wl-rdm,224,542762,0.0-8.107-0.107,1.0,220.0,,,,,,,[],,,,,,53.2,0.0,i,1.0,False,616.8999999985099,38.0,60.0,40.0,False,,287.8789403417761,[],"[1720, 720]",ColorTask,130.0,108.0,,,HRV,HRV_0315,2022-11-30 22:55:59
,wl-html-button-response,225,544719,0.0-9.0-0.0,,,,,,,,,,1955.199999999255,,0,,,,,,,,,,,,,,,,,,,,<h3>End of this session. Thank you!</h3><br>,['Close window'],HRV,HRV_0315,2022-11-30 22:55:59
