trialN,stimuli,trialStartTime,trialStartTime_UNIX,stimulus1,stimulus2,stimulus1Bid,stimulus2Bid,delta,selected,rt,rt_UNIX,rt_perfnow,receivedResponse,rsp,trialEndTime,trialDuration,trialEndTime_UNIX,trialDuration_UNIX,exp,subjectId,date
0,"[{'imgObject': {}, 'id': 'rigatoni', 'src': '/static/foodstim60/rigatoni.jpg', 'key': 'u', 'origWidth': 411, 'origHeight': 411, 'width': 411, 'height': 411, 'widthPercent': 0.45, 'rescaleHeight': False, 'trialN': 0, 'loaded': True, 'loadedTime': 2082, 'positionName': 'LEFT', 'positionCoords': [1240.2, 514.5], 'bid': 1.44}, {'imgObject': {}, 'id': 'lox', 'src': '/static/foodstim60/lox.jpg', 'key': 'i', 'origWidth': 410, 'origHeight': 411, 'width': 410, 'height': 411, 'widthPercent': 0.45, 'rescaleHeight': False, 'trialN': 0, 'loaded': True, 'loadedTime': 2086.300000000745, 'positionName': 'RIGHT', 'positionCoords': [1788.8, 514.5], 'bid': 3.0500000000000003}]",2709.300000000745,1669848121211,rigatoni,lox,1.44,3.0500000000000003,1.6100000000000003,rigatoni,1462.300000000745,1463,1462.5,True,u,4673.199999999255,1963.8999999985099,1669848123175,1964,HRV,HRV_0315,2022-11-30 22:46:51
1,"[{'imgObject': {}, 'id': 'salad w chicken', 'src': '/static/foodstim60/salad w chicken.jpg', 'key': 'u', 'origWidth': 411, 'origHeight': 411, 'width': 411, 'height': 411, 'widthPercent': 0.45, 'rescaleHeight': False, 'trialN': 1, 'loaded': True, 'loadedTime': 2089.5, 'positionName': 'LEFT', 'positionCoords': [1240.2, 514.5], 'bid': 8.47}, {'imgObject': {}, 'id': 'strawberries', 'src': '/static/foodstim60/strawberries.jpg', 'key': 'i', 'origWidth': 410, 'origHeight': 410, 'width': 410, 'height': 410, 'widthPercent': 0.45, 'rescaleHeight': False, 'trialN': 1, 'loaded': True, 'loadedTime': 2092.10000000149, 'positionName': 'RIGHT', 'positionCoords': [1788.8, 515], 'bid': 8.58}]",4673.400000002235,1669848123175,salad w chicken,strawberries,8.47,8.58,0.10999999999999943,strawberries,1221.0999999977648,1221,1221.199999999255,True,i,6400.900000002235,1727.5,1669848124903,1728,HRV,HRV_0315,2022-11-30 22:46:51
2,"[{'imgObject': {}, 'id': 'hashbrowns', 'src': '/static/foodstim60/hashbrowns.jpg', 'key': 'u', 'origWidth': 411, 'origHeight': 410, 'width': 411, 'height': 410, 'widthPercent': 0.45, 'rescaleHeight': False, 'trialN': 2, 'loaded': True, 'loadedTime': 2093.699999999255, 'positionName': 'LEFT', 'positionCoords': [1240.2, 515], 'bid': 4.93}, {'imgObject': {}, 'id': 'raspberries', 'src': '/static/foodstim60/raspberries.jpg', 'key': 'i', 'origWidth': 411, 'origHeight': 411, 'width': 411, 'height': 411, 'widthPercent': 0.45, 'rescaleHeight': False, 'trialN': 2, 'loaded': True, 'loadedTime': 2095.10000000149, 'positionName': 'RIGHT', 'positionCoords': [1788.8, 514.5], 'bid': 8}]",6401.10000000149,1669848124903,hashbrowns,raspberries,4.93,8.0,3.0700000000000003,raspberries,977.3999999985099,977,977.5,True,i,7881.10000000149,1480.0,1669848126383,1480,HRV,HRV_0315,2022-11-30 22:46:51
3,"[{'imgObject': {}, 'id': 'salmon', 'src': '/static/foodstim60/salmon.jpg', 'key': 'u', 'origWidth': 410, 'origHeight': 409, 'width': 410, 'height': 409, 'widthPercent': 0.45, 'rescaleHeight': False, 'trialN': 3, 'loaded': True, 'loadedTime': 2127.400000002235, 'positionName': 'LEFT', 'positionCoords': [1241.2, 515.5], 'bid': 2.37}, {'imgObject': {}, 'id': 'bagel plain', 'src': '/static/foodstim60/bagel plain.jpg', 'key': 'i', 'origWidth': 410, 'origHeight': 410, 'width': 410, 'height': 410, 'widthPercent': 0.45, 'rescaleHeight': False, 'trialN': 3, 'loaded': True, 'loadedTime': 2158.10000000149, 'positionName': 'RIGHT', 'positionCoords': [1788.8, 515], 'bid': 1.88}]",7881.199999999255,1669848126383,salmon,bagel plain,2.37,1.88,-0.4900000000000002,salmon,1462.300000000745,1462,1462.4000000022352,True,u,9847.300000000745,1966.1000000014901,1669848128349,1966,HRV,HRV_0315,2022-11-30 22:46:51
4,"[{'imgObject': {}, 'id': 'tacos', 'src': '/static/foodstim60/tacos.jpg', 'key': 'u', 'origWidth': 411, 'origHeight': 411, 'width': 411, 'height': 411, 'widthPercent': 0.45, 'rescaleHeight': False, 'trialN': 4, 'loaded': True, 'loadedTime': 2177.5, 'positionName': 'LEFT', 'positionCoords': [1240.2, 514.5], 'bid': 6.95}, {'imgObject': {}, 'id': 'turkeysandwich', 'src': '/static/foodstim60/turkeysandwich.jpg', 'key': 'i', 'origWidth': 409, 'origHeight': 409, 'width': 409, 'height': 409, 'widthPercent': 0.45, 'rescaleHeight': False, 'trialN': 4, 'loaded': True, 'loadedTime': 2193.699999999255, 'positionName': 'RIGHT', 'positionCoords': [1788.8, 515.5], 'bid': 7.18}]",9847.5,1669848128349,tacos,turkeysandwich,6.95,7.18,0.22999999999999954,tacos,700.4000000022352,701,700.6000000014901,True,u,11048.60000000149,1201.1000000014901,1669848129550,1201,HRV,HRV_0315,2022-11-30 22:46:51
5,"[{'imgObject': {}, 'id': 'lox', 'src': '/static/foodstim60/lox.jpg', 'key': 'u', 'origWidth': 410, 'origHeight': 411, 'width': 410, 'height': 411, 'widthPercent': 0.45, 'rescaleHeight': False, 'trialN': 5, 'loaded': True, 'loadedTime': 2087, 'positionName': 'LEFT', 'positionCoords': [1241.2, 514.5], 'bid': 3.0500000000000003}, {'imgObject': {}, 'id': 'cherry tomato', 'src': '/static/foodstim60/cherry tomato.jpg', 'key': 'i', 'origWidth': 410, 'origHeight': 410, 'width': 410, 'height': 410, 'widthPercent': 0.45, 'rescaleHeight': False, 'trialN': 5, 'loaded': True, 'loadedTime': 2199.900000002235, 'positionName': 'RIGHT', 'positionCoords': [1788.8, 515], 'bid': 4.61}]",11048.699999999255,1669848129550,lox,cherry tomato,3.0500000000000003,4.61,1.56,cherry tomato,960.8000000007451,961,960.9000000022352,True,i,12512.800000000745,1464.1000000014901,1669848131014,1464,HRV,HRV_0315,2022-11-30 22:46:51
6,"[{'imgObject': {}, 'id': 'Grapes', 'src': '/static/foodstim60/Grapes.jpg', 'key': 'u', 'origWidth': 411, 'origHeight': 411, 'width': 411, 'height': 411, 'widthPercent': 0.45, 'rescaleHeight': False, 'trialN': 6, 'loaded': True, 'loadedTime': 2202.199999999255, 'positionName': 'LEFT', 'positionCoords': [1240.2, 514.5], 'bid': 6.0600000000000005}, {'imgObject': {}, 'id': 'fried eggs', 'src': '/static/foodstim60/fried eggs.jpg', 'key': 'i', 'origWidth': 410, 'origHeight': 410, 'width': 410, 'height': 410, 'widthPercent': 0.45, 'rescaleHeight': False, 'trialN': 6, 'loaded': True, 'loadedTime': 2203, 'positionName': 'RIGHT', 'positionCoords': [1788.8, 515], 'bid': 7.3}]",12512.900000002235,1669848131015,Grapes,fried eggs,6.0600000000000005,7.3,1.2399999999999993,fried eggs,895.6999999992549,895,895.7999999970198,True,i,13913.300000000745,1400.3999999985099,1669848132415,1400,HRV,HRV_0315,2022-11-30 22:46:51
7,"[{'imgObject': {}, 'id': 'salmon', 'src': '/static/foodstim60/salmon.jpg', 'key': 'u', 'origWidth': 410, 'origHeight': 409, 'width': 410, 'height': 409, 'widthPercent': 0.45, 'rescaleHeight': False, 'trialN': 7, 'loaded': True, 'loadedTime': 2127.5, 'positionName': 'LEFT', 'positionCoords': [1241.2, 515.5], 'bid': 2.37}, {'imgObject': {}, 'id': 'raisin bran w milk', 'src': '/static/foodstim60/raisin bran w milk.jpg', 'key': 'i', 'origWidth': 411, 'origHeight': 411, 'width': 411, 'height': 411, 'widthPercent': 0.45, 'rescaleHeight': False, 'trialN': 7, 'loaded': True, 'loadedTime': 2211.900000002235, 'positionName': 'RIGHT', 'positionCoords': [1788.8, 514.5], 'bid': 6.3100000000000005}]",13913.400000002235,1669848132415,salmon,raisin bran w milk,2.37,6.3100000000000005,3.9400000000000004,raisin bran w milk,1504.199999999255,1505,1504.3999999985099,True,i,15920.800000000745,2007.3999999985099,1669848134422,2007,HRV,HRV_0315,2022-11-30 22:46:51
8,"[{'imgObject': {}, 'id': 'cheerios', 'src': '/static/foodstim60/cheerios.jpg', 'key': 'u', 'origWidth': 409, 'origHeight': 410, 'width': 409, 'height': 410, 'widthPercent': 0.45, 'rescaleHeight': False, 'trialN': 8, 'loaded': True, 'loadedTime': 2212.5, 'positionName': 'LEFT', 'positionCoords': [1242.2, 515], 'bid': 3.68}, {'imgObject': {}, 'id': 'cherry tomato', 'src': '/static/foodstim60/cherry tomato.jpg', 'key': 'i', 'origWidth': 410, 'origHeight': 410, 'width': 410, 'height': 410, 'widthPercent': 0.45, 'rescaleHeight': False, 'trialN': 8, 'loaded': True, 'loadedTime': 2200.300000000745, 'positionName': 'RIGHT', 'positionCoords': [1788.8, 515], 'bid': 4.61}]",15920.800000000745,1669848134423,cheerios,cherry tomato,3.68,4.61,0.9300000000000002,cheerios,1437.8999999985099,1437,1437.8999999985099,True,u,17864.60000000149,1943.800000000745,1669848136366,1943,HRV,HRV_0315,2022-11-30 22:46:51
9,"[{'imgObject': {}, 'id': 'tacos', 'src': '/static/foodstim60/tacos.jpg', 'key': 'u', 'origWidth': 411, 'origHeight': 411, 'width': 411, 'height': 411, 'widthPercent': 0.45, 'rescaleHeight': False, 'trialN': 9, 'loaded': True, 'loadedTime': 2178.5, 'positionName': 'LEFT', 'positionCoords': [1240.2, 514.5], 'bid': 6.95}, {'imgObject': {}, 'id': 'shreddedwheatwithmilk', 'src': '/static/foodstim60/shreddedwheatwithmilk.jpg', 'key': 'i', 'origWidth': 410, 'origHeight': 410, 'width': 410, 'height': 410, 'widthPercent': 0.45, 'rescaleHeight': False, 'trialN': 9, 'loaded': True, 'loadedTime': 2213.400000002235, 'positionName': 'RIGHT', 'positionCoords': [1788.8, 515], 'bid': 5.87}]",17864.800000000745,1669848136366,tacos,shreddedwheatwithmilk,6.95,5.87,-1.08,tacos,981.6999999992549,982,981.8000000007451,True,u,19353.0,1488.199999999255,1669848137855,1489,HRV,HRV_0315,2022-11-30 22:46:51
10,"[{'imgObject': {}, 'id': 'raisin bran w milk', 'src': '/static/foodstim60/raisin bran w milk.jpg', 'key': 'u', 'origWidth': 411, 'origHeight': 411, 'width': 411, 'height': 411, 'widthPercent': 0.45, 'rescaleHeight': False, 'trialN': 10, 'loaded': True, 'loadedTime': 2212, 'positionName': 'LEFT', 'positionCoords': [1240.2, 514.5], 'bid': 6.3100000000000005}, {'imgObject': {}, 'id': 'omelette', 'src': '/static/foodstim60/omelette.jpg', 'key': 'i', 'origWidth': 410, 'origHeight': 409, 'width': 410, 'height': 409, 'widthPercent': 0.45, 'rescaleHeight': False, 'trialN': 10, 'loaded': True, 'loadedTime': 2213.699999999255, 'positionName': 'RIGHT', 'positionCoords': [1788.8, 515.5], 'bid': 5.54}]",19353.199999999255,1669848137855,raisin bran w milk,omelette,6.3100000000000005,5.54,-0.7700000000000005,omelette,1224.6000000014901,1224,1224.800000000745,True,i,21081.300000000745,1728.1000000014901,1669848139583,1728,HRV,HRV_0315,2022-11-30 22:46:51
11,"[{'imgObject': {}, 'id': 'salad w chicken', 'src': '/static/foodstim60/salad w chicken.jpg', 'key': 'u', 'origWidth': 411, 'origHeight': 411, 'width': 411, 'height': 411, 'widthPercent': 0.45, 'rescaleHeight': False, 'trialN': 11, 'loaded': True, 'loadedTime': 2088.60000000149, 'positionName': 'LEFT', 'positionCoords': [1240.2, 514.5], 'bid': 8.47}, {'imgObject': {}, 'id': 'orange slices', 'src': '/static/foodstim60/orange slices.jpg', 'key': 'i', 'origWidth': 409, 'origHeight': 410, 'width': 409, 'height': 410, 'widthPercent': 0.45, 'rescaleHeight': False, 'trialN': 11, 'loaded': True, 'loadedTime': 2250.900000002235, 'positionName': 'RIGHT', 'positionCoords': [1788.8, 515], 'bid': 7.35}]",21081.5,1669848139583,salad w chicken,orange slices,8.47,7.35,-1.120000000000001,salad w chicken,2287.10000000149,2287,2287.300000000745,True,u,23873.199999999255,2791.699999999255,1669848142375,2792,HRV,HRV_0315,2022-11-30 22:46:51
12,"[{'imgObject': {}, 'id': 'cocktailshrimp', 'src': '/static/foodstim60/cocktailshrimp.jpg', 'key': 'u', 'origWidth': 410, 'origHeight': 410, 'width': 410, 'height': 410, 'widthPercent': 0.45, 'rescaleHeight': False, 'trialN': 12, 'loaded': True, 'loadedTime': 2251.60000000149, 'positionName': 'LEFT', 'positionCoords': [1241.2, 515], 'bid': 4.01}, {'imgObject': {}, 'id': 'bagel and cc', 'src': '/static/foodstim60/bagel and cc.jpg', 'key': 'i', 'origWidth': 410, 'origHeight': 410, 'width': 410, 'height': 410, 'widthPercent': 0.45, 'rescaleHeight': False, 'trialN': 12, 'loaded': True, 'loadedTime': 2254.5, 'positionName': 'RIGHT', 'positionCoords': [1788.8, 515], 'bid': 2.09}]",23873.199999999255,1669848142375,cocktailshrimp,bagel and cc,4.01,2.09,-1.92,cocktailshrimp,2579.2000000029802,2579,2579.400000002235,True,u,26952.900000002235,3079.7000000029802,1669848145454,3079,HRV,HRV_0315,2022-11-30 22:46:51
13,"[{'imgObject': {}, 'id': 'turkeysandwich', 'src': '/static/foodstim60/turkeysandwich.jpg', 'key': 'u', 'origWidth': 409, 'origHeight': 409, 'width': 409, 'height': 409, 'widthPercent': 0.45, 'rescaleHeight': False, 'trialN': 13, 'loaded': True, 'loadedTime': 2197.900000002235, 'positionName': 'LEFT', 'positionCoords': [1242.2, 515.5], 'bid': 7.18}, {'imgObject': {}, 'id': 'burger', 'src': '/static/foodstim60/burger.jpg', 'key': 'i', 'origWidth': 409, 'origHeight': 409, 'width': 409, 'height': 409, 'widthPercent': 0.45, 'rescaleHeight': False, 'trialN': 13, 'loaded': True, 'loadedTime': 2255.199999999255, 'positionName': 'RIGHT', 'positionCoords': [1788.8, 515.5], 'bid': 4.2}]",26953.10000000149,1669848145455,turkeysandwich,burger,7.18,4.2,-2.9799999999999995,turkeysandwich,1360.3999999985099,1360,1360.5,True,u,28816.900000002235,1863.800000000745,1669848147318,1863,HRV,HRV_0315,2022-11-30 22:46:51
14,"[{'imgObject': {}, 'id': 'grilled chicken strips', 'src': '/static/foodstim60/grilled chicken strips.jpg', 'key': 'u', 'origWidth': 410, 'origHeight': 411, 'width': 410, 'height': 411, 'widthPercent': 0.45, 'rescaleHeight': False, 'trialN': 14, 'loaded': True, 'loadedTime': 2255.699999999255, 'positionName': 'LEFT', 'positionCoords': [1241.2, 514.5], 'bid': 6.7}, {'imgObject': {}, 'id': 'cheerios', 'src': '/static/foodstim60/cheerios.jpg', 'key': 'i', 'origWidth': 409, 'origHeight': 410, 'width': 409, 'height': 410, 'widthPercent': 0.45, 'rescaleHeight': False, 'trialN': 14, 'loaded': True, 'loadedTime': 2212.10000000149, 'positionName': 'RIGHT', 'positionCoords': [1788.8, 515], 'bid': 3.68}]",28817.0,1669848147319,grilled chicken strips,cheerios,6.7,3.68,-3.02,grilled chicken strips,1370.5,1370,1370.6000000014901,True,u,30688.900000002235,1871.9000000022352,1669848149190,1871,HRV,HRV_0315,2022-11-30 22:46:51
15,"[{'imgObject': {}, 'id': 'edamame', 'src': '/static/foodstim60/edamame.jpg', 'key': 'u', 'origWidth': 409, 'origHeight': 410, 'width': 409, 'height': 410, 'widthPercent': 0.45, 'rescaleHeight': False, 'trialN': 15, 'loaded': True, 'loadedTime': 2257.400000002235, 'positionName': 'LEFT', 'positionCoords': [1242.2, 515], 'bid': 3.22}, {'imgObject': {}, 'id': 'ice cream sundae 002', 'src': '/static/foodstim60/ice cream sundae 002.jpg', 'key': 'i', 'origWidth': 409, 'origHeight': 409, 'width': 409, 'height': 409, 'widthPercent': 0.45, 'rescaleHeight': False, 'trialN': 15, 'loaded': True, 'loadedTime': 2259.699999999255, 'positionName': 'RIGHT', 'positionCoords': [1788.8, 515.5], 'bid': 3.4}]",30688.900000002235,1669848149191,edamame,ice cream sundae 002,3.22,3.4,0.17999999999999972,edamame,2139.199999999255,2139,2139.2999999970198,True,u,33329.300000000745,2640.39999999851,1669848151831,2640,HRV,HRV_0315,2022-11-30 22:46:51
16,"[{'imgObject': {}, 'id': 'roastedpotatoes', 'src': '/static/foodstim60/roastedpotatoes.jpg', 'key': 'u', 'origWidth': 409, 'origHeight': 410, 'width': 409, 'height': 410, 'widthPercent': 0.45, 'rescaleHeight': False, 'trialN': 16, 'loaded': True, 'loadedTime': 2281.10000000149, 'positionName': 'LEFT', 'positionCoords': [1242.2, 515], 'bid': 5.12}, {'imgObject': {}, 'id': 'steak', 'src': '/static/foodstim60/steak.jpg', 'key': 'i', 'origWidth': 410, 'origHeight': 410, 'width': 410, 'height': 410, 'widthPercent': 0.45, 'rescaleHeight': False, 'trialN': 16, 'loaded': True, 'loadedTime': 2286.5, 'positionName': 'RIGHT', 'positionCoords': [1788.8, 515], 'bid': 8.120000000000001}]",33329.400000002235,1669848151831,roastedpotatoes,steak,5.12,8.120000000000001,3.000000000000001,steak,1010.2999999970198,1010,1010.3999999985099,True,i,34841.0,1511.5999999977648,1669848153342,1511,HRV,HRV_0315,2022-11-30 22:46:51
17,"[{'imgObject': {}, 'id': 'salad w chicken', 'src': '/static/foodstim60/salad w chicken.jpg', 'key': 'u', 'origWidth': 411, 'origHeight': 411, 'width': 411, 'height': 411, 'widthPercent': 0.45, 'rescaleHeight': False, 'trialN': 17, 'loaded': True, 'loadedTime': 2088.900000002235, 'positionName': 'LEFT', 'positionCoords': [1240.2, 514.5], 'bid': 8.47}, {'imgObject': {}, 'id': 'pear', 'src': '/static/foodstim60/pear.jpg', 'key': 'i', 'origWidth': 411, 'origHeight': 410, 'width': 411, 'height': 410, 'widthPercent': 0.45, 'rescaleHeight': False, 'trialN': 17, 'loaded': True, 'loadedTime': 2288.5, 'positionName': 'RIGHT', 'positionCoords': [1788.8, 515], 'bid': 6.67}]",34841.10000000149,1669848153343,salad w chicken,pear,8.47,6.67,-1.8000000000000007,salad w chicken,1081.3999999985099,1081,1081.5999999977648,True,u,36425.10000000149,1584.0,1669848154927,1584,HRV,HRV_0315,2022-11-30 22:46:51
18,"[{'imgObject': {}, 'id': 'froot loops w milk', 'src': '/static/foodstim60/froot loops w milk.jpg', 'key': 'u', 'origWidth': 410, 'origHeight': 410, 'width': 410, 'height': 410, 'widthPercent': 0.45, 'rescaleHeight': False, 'trialN': 18, 'loaded': True, 'loadedTime': 2289.699999999255, 'positionName': 'LEFT', 'positionCoords': [1241.2, 515], 'bid': 5.94}, {'imgObject': {}, 'id': 'blackbeanswithrice', 'src': '/static/foodstim60/blackbeanswithrice.jpg', 'key': 'i', 'origWidth': 410, 'origHeight': 410, 'width': 410, 'height': 410, 'widthPercent': 0.45, 'rescaleHeight': False, 'trialN': 18, 'loaded': True, 'loadedTime': 2292.10000000149, 'positionName': 'RIGHT', 'positionCoords': [1788.8, 515], 'bid': 1.43}]",36425.199999999255,1669848154927,froot loops w milk,blackbeanswithrice,5.94,1.43,-4.510000000000001,froot loops w milk,1056.300000000745,1056,1056.5,True,u,37985.300000000745,1560.1000000014901,1669848156487,1560,HRV,HRV_0315,2022-11-30 22:46:51
19,"[{'imgObject': {}, 'id': 'mango', 'src': '/static/foodstim60/mango.jpg', 'key': 'u', 'origWidth': 411, 'origHeight': 411, 'width': 411, 'height': 411, 'widthPercent': 0.45, 'rescaleHeight': False, 'trialN': 19, 'loaded': True, 'loadedTime': 2292.900000002235, 'positionName': 'LEFT', 'positionCoords': [1240.2, 514.5], 'bid': 7.3}, {'imgObject': {}, 'id': 'orange slices', 'src': '/static/foodstim60/orange slices.jpg', 'key': 'i', 'origWidth': 409, 'origHeight': 410, 'width': 409, 'height': 410, 'widthPercent': 0.45, 'rescaleHeight': False, 'trialN': 19, 'loaded': True, 'loadedTime': 2246.199999999255, 'positionName': 'RIGHT', 'positionCoords': [1788.8, 515], 'bid': 7.35}]",37985.400000002235,1669848156487,mango,orange slices,7.3,7.35,0.04999999999999982,mango,995.0999999977648,995,995.2999999970198,True,u,39481.0,1495.5999999977648,1669848157983,1496,HRV,HRV_0315,2022-11-30 22:46:51
20,"[{'imgObject': {}, 'id': 'cherries', 'src': '/static/foodstim60/cherries.jpg', 'key': 'u', 'origWidth': 410, 'origHeight': 411, 'width': 410, 'height': 411, 'widthPercent': 0.45, 'rescaleHeight': False, 'trialN': 20, 'loaded': True, 'loadedTime': 2295.400000002235, 'positionName': 'LEFT', 'positionCoords': [1241.2, 514.5], 'bid': 6.6000000000000005}, {'imgObject': {}, 'id': 'hotdog w must', 'src': '/static/foodstim60/hotdog w must.jpg', 'key': 'i', 'origWidth': 409, 'origHeight': 409, 'width': 409, 'height': 409, 'widthPercent': 0.45, 'rescaleHeight': False, 'trialN': 20, 'loaded': True, 'loadedTime': 2319.300000000745, 'positionName': 'RIGHT', 'positionCoords': [1788.8, 515.5], 'bid': 2.71}]",39481.10000000149,1669848157983,cherries,hotdog w must,6.6000000000000005,2.71,-3.8900000000000006,cherries,883.5,883,883.5999999977648,True,u,40865.0,1383.8999999985099,1669848159367,1384,HRV,HRV_0315,2022-11-30 22:46:51
21,"[{'imgObject': {}, 'id': 'burger', 'src': '/static/foodstim60/burger.jpg', 'key': 'u', 'origWidth': 409, 'origHeight': 409, 'width': 409, 'height': 409, 'widthPercent': 0.45, 'rescaleHeight': False, 'trialN': 21, 'loaded': True, 'loadedTime': 2255.10000000149, 'positionName': 'LEFT', 'positionCoords': [1242.2, 515.5], 'bid': 4.2}, {'imgObject': {}, 'id': 'cherry tomato', 'src': '/static/foodstim60/cherry tomato.jpg', 'key': 'i', 'origWidth': 410, 'origHeight': 410, 'width': 410, 'height': 410, 'widthPercent': 0.45, 'rescaleHeight': False, 'trialN': 21, 'loaded': True, 'loadedTime': 2199.5, 'positionName': 'RIGHT', 'positionCoords': [1788.8, 515], 'bid': 4.61}]",40865.10000000149,1669848159367,burger,cherry tomato,4.2,4.61,0.41000000000000014,cherry tomato,1230.3999999985099,1230,1230.5,True,i,42600.300000000745,1735.199999999255,1669848161102,1735,HRV,HRV_0315,2022-11-30 22:46:51
22,"[{'imgObject': {}, 'id': 'mango', 'src': '/static/foodstim60/mango.jpg', 'key': 'u', 'origWidth': 411, 'origHeight': 411, 'width': 411, 'height': 411, 'widthPercent': 0.45, 'rescaleHeight': False, 'trialN': 22, 'loaded': True, 'loadedTime': 2293.60000000149, 'positionName': 'LEFT', 'positionCoords': [1240.2, 514.5], 'bid': 7.3}, {'imgObject': {}, 'id': 'seaweed', 'src': '/static/foodstim60/seaweed.jpg', 'key': 'i', 'origWidth': 410, 'origHeight': 410, 'width': 410, 'height': 410, 'widthPercent': 0.45, 'rescaleHeight': False, 'trialN': 22, 'loaded': True, 'loadedTime': 2338.10000000149, 'positionName': 'RIGHT', 'positionCoords': [1788.8, 515], 'bid': 6.63}]",42600.400000002235,1669848161102,mango,seaweed,7.3,6.63,-0.6699999999999999,mango,1273.5999999977648,1274,1273.5999999977648,True,u,44376.800000000745,1776.3999999985099,1669848162878,1776,HRV,HRV_0315,2022-11-30 22:46:51
23,"[{'imgObject': {}, 'id': 'strawberries', 'src': '/static/foodstim60/strawberries.jpg', 'key': 'u', 'origWidth': 410, 'origHeight': 410, 'width': 410, 'height': 410, 'widthPercent': 0.45, 'rescaleHeight': False, 'trialN': 23, 'loaded': True, 'loadedTime': 2090.300000000745, 'positionName': 'LEFT', 'positionCoords': [1241.2, 515], 'bid': 8.58}, {'imgObject': {}, 'id': 'fried eggs', 'src': '/static/foodstim60/fried eggs.jpg', 'key': 'i', 'origWidth': 410, 'origHeight': 410, 'width': 410, 'height': 410, 'widthPercent': 0.45, 'rescaleHeight': False, 'trialN': 23, 'loaded': True, 'loadedTime': 2202.60000000149, 'positionName': 'RIGHT', 'positionCoords': [1788.8, 515], 'bid': 7.3}]",44376.900000002235,1669848162879,strawberries,fried eggs,8.58,7.3,-1.2800000000000002,fried eggs,1494.5999999977648,1494,1494.699999999255,True,i,46376.400000002235,1999.5,1669848164878,1999,HRV,HRV_0315,2022-11-30 22:46:51
24,"[{'imgObject': {}, 'id': 'avocado', 'src': '/static/foodstim60/avocado.jpg', 'key': 'u', 'origWidth': 409, 'origHeight': 409, 'width': 409, 'height': 409, 'widthPercent': 0.45, 'rescaleHeight': False, 'trialN': 24, 'loaded': True, 'loadedTime': 2338.699999999255, 'positionName': 'LEFT', 'positionCoords': [1242.2, 515.5], 'bid': 3.79}, {'imgObject': {}, 'id': 'granola w milk', 'src': '/static/foodstim60/granola w milk.jpg', 'key': 'i', 'origWidth': 410, 'origHeight': 410, 'width': 410, 'height': 410, 'widthPercent': 0.45, 'rescaleHeight': False, 'trialN': 24, 'loaded': True, 'loadedTime': 2394.199999999255, 'positionName': 'RIGHT', 'positionCoords': [1788.8, 515], 'bid': 6.7700000000000005}]",46376.5,1669848164878,avocado,granola w milk,3.79,6.7700000000000005,2.9800000000000004,granola w milk,723.0,723,723.1999999992549,True,i,47600.5,1224.0,1669848166102,1224,HRV,HRV_0315,2022-11-30 22:46:51
25,"[{'imgObject': {}, 'id': 'edamame', 'src': '/static/foodstim60/edamame.jpg', 'key': 'u', 'origWidth': 409, 'origHeight': 410, 'width': 409, 'height': 410, 'widthPercent': 0.45, 'rescaleHeight': False, 'trialN': 25, 'loaded': True, 'loadedTime': 2258, 'positionName': 'LEFT', 'positionCoords': [1242.2, 515], 'bid': 3.22}, {'imgObject': {}, 'id': 'seaweed', 'src': '/static/foodstim60/seaweed.jpg', 'key': 'i', 'origWidth': 410, 'origHeight': 410, 'width': 410, 'height': 410, 'widthPercent': 0.45, 'rescaleHeight': False, 'trialN': 25, 'loaded': True, 'loadedTime': 2319.900000002235, 'positionName': 'RIGHT', 'positionCoords': [1788.8, 515], 'bid': 6.63}]",47600.60000000149,1669848166102,edamame,seaweed,3.22,6.63,3.4099999999999997,edamame,958.8999999985099,959,959.0,True,u,49064.5,1463.8999999985099,1669848167566,1464,HRV,HRV_0315,2022-11-30 22:46:51
26,"[{'imgObject': {}, 'id': 'mashed potato', 'src': '/static/foodstim60/mashed potato.jpg', 'key': 'u', 'origWidth': 409, 'origHeight': 409, 'width': 409, 'height': 409, 'widthPercent': 0.45, 'rescaleHeight': False, 'trialN': 26, 'loaded': True, 'loadedTime': 2415.10000000149, 'positionName': 'LEFT', 'positionCoords': [1242.2, 515.5], 'bid': 4.84}, {'imgObject': {}, 'id': 'bagel and cc', 'src': '/static/foodstim60/bagel and cc.jpg', 'key': 'i', 'origWidth': 410, 'origHeight': 410, 'width': 410, 'height': 410, 'widthPercent': 0.45, 'rescaleHeight': False, 'trialN': 26, 'loaded': True, 'loadedTime': 2253, 'positionName': 'RIGHT', 'positionCoords': [1788.8, 515], 'bid': 2.09}]",49064.60000000149,1669848167566,mashed potato,bagel and cc,4.84,2.09,-2.75,bagel and cc,3064.0,3064,3064.099999997765,True,i,52633.0,3568.39999999851,1669848171135,3569,HRV,HRV_0315,2022-11-30 22:46:51
27,"[{'imgObject': {}, 'id': 'avocado', 'src': '/static/foodstim60/avocado.jpg', 'key': 'u', 'origWidth': 409, 'origHeight': 409, 'width': 409, 'height': 409, 'widthPercent': 0.45, 'rescaleHeight': False, 'trialN': 27, 'loaded': True, 'loadedTime': 2375.5, 'positionName': 'LEFT', 'positionCoords': [1242.2, 515.5], 'bid': 3.79}, {'imgObject': {}, 'id': 'luckycharms', 'src': '/static/foodstim60/luckycharms.jpg', 'key': 'i', 'origWidth': 410, 'origHeight': 409, 'width': 410, 'height': 409, 'widthPercent': 0.45, 'rescaleHeight': False, 'trialN': 27, 'loaded': True, 'loadedTime': 2451.199999999255, 'positionName': 'RIGHT', 'positionCoords': [1788.8, 515.5], 'bid': 4.75}]",52633.10000000149,1669848171135,avocado,luckycharms,3.79,4.75,0.96,luckycharms,1305.699999999255,1305,1305.800000000745,True,i,54440.800000000745,1807.699999999255,1669848172942,1807,HRV,HRV_0315,2022-11-30 22:46:51
28,"[{'imgObject': {}, 'id': 'kiwi', 'src': '/static/foodstim60/kiwi.jpg', 'key': 'u', 'origWidth': 410, 'origHeight': 410, 'width': 410, 'height': 410, 'widthPercent': 0.45, 'rescaleHeight': False, 'trialN': 28, 'loaded': True, 'loadedTime': 2451.800000000745, 'positionName': 'LEFT', 'positionCoords': [1241.2, 515], 'bid': 3.98}, {'imgObject': {}, 'id': 'mashed potato', 'src': '/static/foodstim60/mashed potato.jpg', 'key': 'i', 'origWidth': 409, 'origHeight': 409, 'width': 409, 'height': 409, 'widthPercent': 0.45, 'rescaleHeight': False, 'trialN': 28, 'loaded': True, 'loadedTime': 2414.300000000745, 'positionName': 'RIGHT', 'positionCoords': [1788.8, 515.5], 'bid': 4.84}]",54440.900000002235,1669848172942,kiwi,mashed potato,3.98,4.84,0.8599999999999999,mashed potato,1248.5999999977648,1249,1248.699999999255,True,i,56192.60000000149,1751.699999999255,1669848174694,1752,HRV,HRV_0315,2022-11-30 22:46:51
29,"[{'imgObject': {}, 'id': 'veggieswithdip', 'src': '/static/foodstim60/veggieswithdip.jpg', 'key': 'u', 'origWidth': 409, 'origHeight': 409, 'width': 409, 'height': 409, 'widthPercent': 0.45, 'rescaleHeight': False, 'trialN': 29, 'loaded': True, 'loadedTime': 2470.699999999255, 'positionName': 'LEFT', 'positionCoords': [1242.2, 515.5], 'bid': 6.6000000000000005}, {'imgObject': {}, 'id': 'lox', 'src': '/static/foodstim60/lox.jpg', 'key': 'i', 'origWidth': 410, 'origHeight': 411, 'width': 410, 'height': 411, 'widthPercent': 0.45, 'rescaleHeight': False, 'trialN': 29, 'loaded': True, 'loadedTime': 2086.300000000745, 'positionName': 'RIGHT', 'positionCoords': [1788.8, 514.5], 'bid': 3.0500000000000003}]",56192.699999999255,1669848174694,veggieswithdip,lox,6.6000000000000005,3.0500000000000003,-3.5500000000000003,veggieswithdip,853.8000000007451,854,853.9000000022352,True,u,57552.5,1359.800000000745,1669848176054,1360,HRV,HRV_0315,2022-11-30 22:46:51
30,"[{'imgObject': {}, 'id': 'chickenfingers', 'src': '/static/foodstim60/chickenfingers.jpg', 'key': 'u', 'origWidth': 410, 'origHeight': 410, 'width': 410, 'height': 410, 'widthPercent': 0.45, 'rescaleHeight': False, 'trialN': 30, 'loaded': True, 'loadedTime': 2488.900000002235, 'positionName': 'LEFT', 'positionCoords': [1241.2, 515], 'bid': 6}, {'imgObject': {}, 'id': 'hashbrowns', 'src': '/static/foodstim60/hashbrowns.jpg', 'key': 'i', 'origWidth': 411, 'origHeight': 410, 'width': 411, 'height': 410, 'widthPercent': 0.45, 'rescaleHeight': False, 'trialN': 30, 'loaded': True, 'loadedTime': 2093.900000002235, 'positionName': 'RIGHT', 'positionCoords': [1788.8, 515], 'bid': 4.93}]",57552.60000000149,1669848176054,chickenfingers,hashbrowns,6.0,4.93,-1.0700000000000003,chickenfingers,947.8000000007451,948,948.0,True,u,59008.900000002235,1456.300000000745,1669848177510,1456,HRV,HRV_0315,2022-11-30 22:46:51
31,"[{'imgObject': {}, 'id': 'blueberries', 'src': '/static/foodstim60/blueberries.jpg', 'key': 'u', 'origWidth': 411, 'origHeight': 411, 'width': 411, 'height': 411, 'widthPercent': 0.45, 'rescaleHeight': False, 'trialN': 31, 'loaded': True, 'loadedTime': 2489, 'positionName': 'LEFT', 'positionCoords': [1240.2, 514.5], 'bid': 7.22}, {'imgObject': {}, 'id': 'chickenfingers', 'src': '/static/foodstim60/chickenfingers.jpg', 'key': 'i', 'origWidth': 410, 'origHeight': 410, 'width': 410, 'height': 410, 'widthPercent': 0.45, 'rescaleHeight': False, 'trialN': 31, 'loaded': True, 'loadedTime': 2470.699999999255, 'positionName': 'RIGHT', 'positionCoords': [1788.8, 515], 'bid': 6}]",59009.10000000149,1669848177511,blueberries,chickenfingers,7.22,6.0,-1.2199999999999998,chickenfingers,760.3999999985099,760,760.5,True,i,60272.60000000149,1263.5,1669848178774,1263,HRV,HRV_0315,2022-11-30 22:46:51
32,"[{'imgObject': {}, 'id': 'rigatoni and sauce', 'src': '/static/foodstim60/rigatoni and sauce.jpg', 'key': 'u', 'origWidth': 410, 'origHeight': 411, 'width': 410, 'height': 411, 'widthPercent': 0.45, 'rescaleHeight': False, 'trialN': 32, 'loaded': True, 'loadedTime': 2527.699999999255, 'positionName': 'LEFT', 'positionCoords': [1241.2, 514.5], 'bid': 3.44}, {'imgObject': {}, 'id': 'blackbeanswithrice', 'src': '/static/foodstim60/blackbeanswithrice.jpg', 'key': 'i', 'origWidth': 410, 'origHeight': 410, 'width': 410, 'height': 410, 'widthPercent': 0.45, 'rescaleHeight': False, 'trialN': 32, 'loaded': True, 'loadedTime': 2290.60000000149, 'positionName': 'RIGHT', 'positionCoords': [1788.8, 515], 'bid': 1.43}]",60272.699999999255,1669848178774,rigatoni and sauce,blackbeanswithrice,3.44,1.43,-2.01,rigatoni and sauce,955.8000000007451,956,955.9000000022352,True,u,61729.10000000149,1456.4000000022352,1669848180231,1457,HRV,HRV_0315,2022-11-30 22:46:51
33,"[{'imgObject': {}, 'id': 'olives', 'src': '/static/foodstim60/olives.jpg', 'key': 'u', 'origWidth': 410, 'origHeight': 410, 'width': 410, 'height': 410, 'widthPercent': 0.45, 'rescaleHeight': False, 'trialN': 33, 'loaded': True, 'loadedTime': 2528.300000000745, 'positionName': 'LEFT', 'positionCoords': [1241.2, 515], 'bid': 0.79}, {'imgObject': {}, 'id': 'bagel and cc', 'src': '/static/foodstim60/bagel and cc.jpg', 'key': 'i', 'origWidth': 410, 'origHeight': 410, 'width': 410, 'height': 410, 'widthPercent': 0.45, 'rescaleHeight': False, 'trialN': 33, 'loaded': True, 'loadedTime': 2254.199999999255, 'positionName': 'RIGHT', 'positionCoords': [1788.8, 515], 'bid': 2.09}]",61729.199999999255,1669848180231,olives,bagel and cc,0.79,2.09,1.2999999999999998,bagel and cc,1175.300000000745,1175,1175.5,True,i,63408.900000002235,1679.7000000029802,1669848181910,1679,HRV,HRV_0315,2022-11-30 22:46:51
34,"[{'imgObject': {}, 'id': 'grilled chicken strips', 'src': '/static/foodstim60/grilled chicken strips.jpg', 'key': 'u', 'origWidth': 410, 'origHeight': 411, 'width': 410, 'height': 411, 'widthPercent': 0.45, 'rescaleHeight': False, 'trialN': 34, 'loaded': True, 'loadedTime': 2255.800000000745, 'positionName': 'LEFT', 'positionCoords': [1241.2, 514.5], 'bid': 6.7}, {'imgObject': {}, 'id': 'pear', 'src': '/static/foodstim60/pear.jpg', 'key': 'i', 'origWidth': 411, 'origHeight': 410, 'width': 411, 'height': 410, 'widthPercent': 0.45, 'rescaleHeight': False, 'trialN': 34, 'loaded': True, 'loadedTime': 2288.900000002235, 'positionName': 'RIGHT', 'positionCoords': [1788.8, 515], 'bid': 6.67}]",63409.0,1669848181911,grilled chicken strips,pear,6.7,6.67,-0.03000000000000025,grilled chicken strips,1054.800000000745,1055,1055.0,True,u,64968.900000002235,1559.9000000022352,1669848183470,1559,HRV,HRV_0315,2022-11-30 22:46:51
35,"[{'imgObject': {}, 'id': 'mac & cheese', 'src': '/static/foodstim60/mac & cheese.jpg', 'key': 'u', 'origWidth': 410, 'origHeight': 410, 'width': 410, 'height': 410, 'widthPercent': 0.45, 'rescaleHeight': False, 'trialN': 35, 'loaded': True, 'loadedTime': 2547.5, 'positionName': 'LEFT', 'positionCoords': [1241.2, 515], 'bid': 4.9}, {'imgObject': {}, 'id': 'froot loops w milk', 'src': '/static/foodstim60/froot loops w milk.jpg', 'key': 'i', 'origWidth': 410, 'origHeight': 410, 'width': 410, 'height': 410, 'widthPercent': 0.45, 'rescaleHeight': False, 'trialN': 35, 'loaded': True, 'loadedTime': 2289.800000000745, 'positionName': 'RIGHT', 'positionCoords': [1788.8, 515], 'bid': 5.94}]",64969.10000000149,1669848183471,mac & cheese,froot loops w milk,4.9,5.94,1.04,froot loops w milk,1515.3999999985099,1515,1515.5999999977648,True,i,66992.5,2023.3999999985099,1669848185494,2023,HRV,HRV_0315,2022-11-30 22:46:51
36,"[{'imgObject': {}, 'id': 'steak', 'src': '/static/foodstim60/steak.jpg', 'key': 'u', 'origWidth': 410, 'origHeight': 410, 'width': 410, 'height': 410, 'widthPercent': 0.45, 'rescaleHeight': False, 'trialN': 36, 'loaded': True, 'loadedTime': 2281.199999999255, 'positionName': 'LEFT', 'positionCoords': [1241.2, 515], 'bid': 8.120000000000001}, {'imgObject': {}, 'id': 'fried eggs', 'src': '/static/foodstim60/fried eggs.jpg', 'key': 'i', 'origWidth': 410, 'origHeight': 410, 'width': 410, 'height': 410, 'widthPercent': 0.45, 'rescaleHeight': False, 'trialN': 36, 'loaded': True, 'loadedTime': 2203, 'positionName': 'RIGHT', 'positionCoords': [1788.8, 515], 'bid': 7.3}]",66992.5,1669848185494,steak,fried eggs,8.120000000000001,7.3,-0.8200000000000012,steak,859.0,859,859.1000000014901,True,u,68352.90000000224,1360.4000000022352,1669848186854,1360,HRV,HRV_0315,2022-11-30 22:46:51
37,"[{'imgObject': {}, 'id': 'omelette', 'src': '/static/foodstim60/omelette.jpg', 'key': 'u', 'origWidth': 410, 'origHeight': 409, 'width': 410, 'height': 409, 'widthPercent': 0.45, 'rescaleHeight': False, 'trialN': 37, 'loaded': True, 'loadedTime': 2214.199999999255, 'positionName': 'LEFT', 'positionCoords': [1241.2, 515.5], 'bid': 5.54}, {'imgObject': {}, 'id': 'rigatoni and sauce', 'src': '/static/foodstim60/rigatoni and sauce.jpg', 'key': 'i', 'origWidth': 410, 'origHeight': 411, 'width': 410, 'height': 411, 'widthPercent': 0.45, 'rescaleHeight': False, 'trialN': 37, 'loaded': True, 'loadedTime': 2527.800000000745, 'positionName': 'RIGHT', 'positionCoords': [1788.8, 514.5], 'bid': 3.44}]",68353.0,1669848186855,omelette,rigatoni and sauce,5.54,3.44,-2.1,rigatoni and sauce,1118.5,1118,1118.6000000014901,True,i,69976.40000000224,1623.4000000022352,1669848188478,1623,HRV,HRV_0315,2022-11-30 22:46:51
38,"[{'imgObject': {}, 'id': 'corn cob', 'src': '/static/foodstim60/corn cob.jpg', 'key': 'u', 'origWidth': 411, 'origHeight': 411, 'width': 411, 'height': 411, 'widthPercent': 0.45, 'rescaleHeight': False, 'trialN': 38, 'loaded': True, 'loadedTime': 2566.5, 'positionName': 'LEFT', 'positionCoords': [1240.2, 514.5], 'bid': 1}, {'imgObject': {}, 'id': 'ice cream sundae 002', 'src': '/static/foodstim60/ice cream sundae 002.jpg', 'key': 'i', 'origWidth': 409, 'origHeight': 409, 'width': 409, 'height': 409, 'widthPercent': 0.45, 'rescaleHeight': False, 'trialN': 38, 'loaded': True, 'loadedTime': 2259.300000000745, 'positionName': 'RIGHT', 'positionCoords': [1788.8, 515.5], 'bid': 3.4}]",69976.5,1669848188478,corn cob,ice cream sundae 002,1.0,3.4,2.4,ice cream sundae 002,842.9000000022352,843,843.1999999992549,True,i,71320.90000000224,1344.4000000022352,1669848189822,1344,HRV,HRV_0315,2022-11-30 22:46:51
39,"[{'imgObject': {}, 'id': 'sushi w_condiments', 'src': '/static/foodstim60/sushi w_condiments.jpg', 'key': 'u', 'origWidth': 410, 'origHeight': 410, 'width': 410, 'height': 410, 'widthPercent': 0.45, 'rescaleHeight': False, 'trialN': 39, 'loaded': True, 'loadedTime': 2567.300000000745, 'positionName': 'LEFT', 'positionCoords': [1241.2, 515], 'bid': 8.57}, {'imgObject': {}, 'id': 'Tribe humus pita', 'src': '/static/foodstim60/Tribe humus pita.jpg', 'key': 'i', 'origWidth': 411, 'origHeight': 411, 'width': 411, 'height': 411, 'widthPercent': 0.45, 'rescaleHeight': False, 'trialN': 39, 'loaded': True, 'loadedTime': 2606.5, 'positionName': 'RIGHT', 'positionCoords': [1788.8, 514.5], 'bid': 7.35}]",71321.10000000149,1669848189823,sushi w_condiments,Tribe humus pita,8.57,7.35,-1.2200000000000006,sushi w_condiments,757.5,757,757.6999999992549,True,u,72584.90000000224,1263.800000000745,1669848191086,1263,HRV,HRV_0315,2022-11-30 22:46:51
40,"[{'imgObject': {}, 'id': 'salmon', 'src': '/static/foodstim60/salmon.jpg', 'key': 'u', 'origWidth': 410, 'origHeight': 409, 'width': 410, 'height': 409, 'widthPercent': 0.45, 'rescaleHeight': False, 'trialN': 40, 'loaded': True, 'loadedTime': 2096.5, 'positionName': 'LEFT', 'positionCoords': [1241.2, 515.5], 'bid': 2.37}, {'imgObject': {}, 'id': 'mac & cheese', 'src': '/static/foodstim60/mac & cheese.jpg', 'key': 'i', 'origWidth': 410, 'origHeight': 410, 'width': 410, 'height': 410, 'widthPercent': 0.45, 'rescaleHeight': False, 'trialN': 40, 'loaded': True, 'loadedTime': 2547.699999999255, 'positionName': 'RIGHT', 'positionCoords': [1788.8, 515], 'bid': 4.9}]",72585.0,1669848191087,salmon,mac & cheese,2.37,4.9,2.5300000000000002,salmon,1204.6000000014901,1204,1204.699999999255,True,u,74296.69999999925,1711.699999999255,1669848192798,1711,HRV,HRV_0315,2022-11-30 22:46:51
41,"[{'imgObject': {}, 'id': 'cocktailshrimp', 'src': '/static/foodstim60/cocktailshrimp.jpg', 'key': 'u', 'origWidth': 410, 'origHeight': 410, 'width': 410, 'height': 410, 'widthPercent': 0.45, 'rescaleHeight': False, 'trialN': 41, 'loaded': True, 'loadedTime': 2251.900000002235, 'positionName': 'LEFT', 'positionCoords': [1241.2, 515], 'bid': 4.01}, {'imgObject': {}, 'id': 'burger', 'src': '/static/foodstim60/burger.jpg', 'key': 'i', 'origWidth': 409, 'origHeight': 409, 'width': 409, 'height': 409, 'widthPercent': 0.45, 'rescaleHeight': False, 'trialN': 41, 'loaded': True, 'loadedTime': 2255.10000000149, 'positionName': 'RIGHT', 'positionCoords': [1788.8, 515.5], 'bid': 4.2}]",74296.80000000075,1669848192798,cocktailshrimp,burger,4.01,4.2,0.1900000000000004,cocktailshrimp,886.0,887,886.1999999992549,True,u,75688.60000000149,1391.800000000745,1669848194190,1392,HRV,HRV_0315,2022-11-30 22:46:51
42,"[{'imgObject': {}, 'id': 'rigatoni', 'src': '/static/foodstim60/rigatoni.jpg', 'key': 'u', 'origWidth': 411, 'origHeight': 411, 'width': 411, 'height': 411, 'widthPercent': 0.45, 'rescaleHeight': False, 'trialN': 42, 'loaded': True, 'loadedTime': 2079.699999999255, 'positionName': 'LEFT', 'positionCoords': [1240.2, 514.5], 'bid': 1.44}, {'imgObject': {}, 'id': 'corn cob', 'src': '/static/foodstim60/corn cob.jpg', 'key': 'i', 'origWidth': 411, 'origHeight': 411, 'width': 411, 'height': 411, 'widthPercent': 0.45, 'rescaleHeight': False, 'trialN': 42, 'loaded': True, 'loadedTime': 2566.60000000149, 'positionName': 'RIGHT', 'positionCoords': [1788.8, 514.5], 'bid': 1}]",75688.60000000149,1669848194190,rigatoni,corn cob,1.44,1.0,-0.43999999999999995,rigatoni,1451.0,1451,1451.199999999255,True,u,77641.30000000075,1952.699999999255,1669848196143,1953,HRV,HRV_0315,2022-11-30 22:46:51
43,"[{'imgObject': {}, 'id': 'apple slices', 'src': '/static/foodstim60/apple slices.jpg', 'key': 'u', 'origWidth': 409, 'origHeight': 410, 'width': 409, 'height': 410, 'widthPercent': 0.45, 'rescaleHeight': False, 'trialN': 43, 'loaded': True, 'loadedTime': 2607, 'positionName': 'LEFT', 'positionCoords': [1242.2, 515], 'bid': 7.17}, {'imgObject': {}, 'id': 'seaweed', 'src': '/static/foodstim60/seaweed.jpg', 'key': 'i', 'origWidth': 410, 'origHeight': 410, 'width': 410, 'height': 410, 'widthPercent': 0.45, 'rescaleHeight': False, 'trialN': 43, 'loaded': True, 'loadedTime': 2319.400000002235, 'positionName': 'RIGHT', 'positionCoords': [1788.8, 515], 'bid': 6.63}]",77641.5,1669848196143,apple slices,seaweed,7.17,6.63,-0.54,apple slices,1105.0,1106,1105.199999999255,True,u,79248.80000000075,1607.300000000745,1669848197751,1608,HRV,HRV_0315,2022-11-30 22:46:51
44,"[{'imgObject': {}, 'id': 'cantaloupe', 'src': '/static/foodstim60/cantaloupe.jpg', 'key': 'u', 'origWidth': 409, 'origHeight': 409, 'width': 409, 'height': 409, 'widthPercent': 0.45, 'rescaleHeight': False, 'trialN': 44, 'loaded': True, 'loadedTime': 2626.400000002235, 'positionName': 'LEFT', 'positionCoords': [1242.2, 515.5], 'bid': 5.7}, {'imgObject': {}, 'id': 'sushi w_condiments', 'src': '/static/foodstim60/sushi w_condiments.jpg', 'key': 'i', 'origWidth': 410, 'origHeight': 410, 'width': 410, 'height': 410, 'widthPercent': 0.45, 'rescaleHeight': False, 'trialN': 44, 'loaded': True, 'loadedTime': 2586.900000002235, 'positionName': 'RIGHT', 'positionCoords': [1788.8, 515], 'bid': 8.57}]",79249.0,1669848197751,cantaloupe,sushi w_condiments,5.7,8.57,2.87,sushi w_condiments,797.6000000014901,798,797.8000000007451,True,i,80552.90000000224,1303.9000000022352,1669848199055,1304,HRV,HRV_0315,2022-11-30 22:46:51
45,"[{'imgObject': {}, 'id': 'chicken nuggets2', 'src': '/static/foodstim60/chicken nuggets2.jpg', 'key': 'u', 'origWidth': 410, 'origHeight': 409, 'width': 410, 'height': 409, 'widthPercent': 0.45, 'rescaleHeight': False, 'trialN': 45, 'loaded': True, 'loadedTime': 2645.199999999255, 'positionName': 'LEFT', 'positionCoords': [1241.2, 515.5], 'bid': 5.8}, {'imgObject': {}, 'id': 'veggieswithdip', 'src': '/static/foodstim60/veggieswithdip.jpg', 'key': 'i', 'origWidth': 409, 'origHeight': 409, 'width': 409, 'height': 409, 'widthPercent': 0.45, 'rescaleHeight': False, 'trialN': 45, 'loaded': True, 'loadedTime': 2452.60000000149, 'positionName': 'RIGHT', 'positionCoords': [1788.8, 515.5], 'bid': 6.6000000000000005}]",80553.0,1669848199055,chicken nuggets2,veggieswithdip,5.8,6.6000000000000005,0.8000000000000007,chicken nuggets2,637.5,638,637.6999999992549,True,u,81696.5,1143.5,1669848200198,1143,HRV,HRV_0315,2022-11-30 22:46:51
46,"[{'imgObject': {}, 'id': 'cherries', 'src': '/static/foodstim60/cherries.jpg', 'key': 'u', 'origWidth': 410, 'origHeight': 411, 'width': 410, 'height': 411, 'widthPercent': 0.45, 'rescaleHeight': False, 'trialN': 46, 'loaded': True, 'loadedTime': 2295.300000000745, 'positionName': 'LEFT', 'positionCoords': [1241.2, 514.5], 'bid': 6.6000000000000005}, {'imgObject': {}, 'id': 'veggieswithdip', 'src': '/static/foodstim60/veggieswithdip.jpg', 'key': 'i', 'origWidth': 409, 'origHeight': 409, 'width': 409, 'height': 409, 'widthPercent': 0.45, 'rescaleHeight': False, 'trialN': 46, 'loaded': True, 'loadedTime': 2452, 'positionName': 'RIGHT', 'positionCoords': [1788.8, 515.5], 'bid': 6.6000000000000005}]",81696.69999999925,1669848200198,cherries,veggieswithdip,6.6000000000000005,6.6000000000000005,0.0,cherries,1379.9000000022352,1381,1380.0,True,u,83577.5,1880.800000000745,1669848202079,1881,HRV,HRV_0315,2022-11-30 22:46:51
47,"[{'imgObject': {}, 'id': 'shreddedwheatwithmilk', 'src': '/static/foodstim60/shreddedwheatwithmilk.jpg', 'key': 'u', 'origWidth': 410, 'origHeight': 410, 'width': 410, 'height': 410, 'widthPercent': 0.45, 'rescaleHeight': False, 'trialN': 47, 'loaded': True, 'loadedTime': 2213.5, 'positionName': 'LEFT', 'positionCoords': [1241.2, 515], 'bid': 5.87}, {'imgObject': {}, 'id': 'luckycharms', 'src': '/static/foodstim60/luckycharms.jpg', 'key': 'i', 'origWidth': 410, 'origHeight': 409, 'width': 410, 'height': 409, 'widthPercent': 0.45, 'rescaleHeight': False, 'trialN': 47, 'loaded': True, 'loadedTime': 2451, 'positionName': 'RIGHT', 'positionCoords': [1788.8, 515.5], 'bid': 4.75}]",83577.5,1669848202079,shreddedwheatwithmilk,luckycharms,5.87,4.75,-1.12,shreddedwheatwithmilk,1650.4000000022352,1651,1650.4000000022352,True,u,85729.30000000075,2151.800000000745,1669848204231,2152,HRV,HRV_0315,2022-11-30 22:46:51
48,"[{'imgObject': {}, 'id': 'ice cream sundae 002', 'src': '/static/foodstim60/ice cream sundae 002.jpg', 'key': 'u', 'origWidth': 409, 'origHeight': 409, 'width': 409, 'height': 409, 'widthPercent': 0.45, 'rescaleHeight': False, 'trialN': 48, 'loaded': True, 'loadedTime': 2259.699999999255, 'positionName': 'LEFT', 'positionCoords': [1242.2, 515.5], 'bid': 3.4}, {'imgObject': {}, 'id': 'bagel plain', 'src': '/static/foodstim60/bagel plain.jpg', 'key': 'i', 'origWidth': 410, 'origHeight': 410, 'width': 410, 'height': 410, 'widthPercent': 0.45, 'rescaleHeight': False, 'trialN': 48, 'loaded': True, 'loadedTime': 2152.5, 'positionName': 'RIGHT', 'positionCoords': [1788.8, 515], 'bid': 1.88}]",85729.40000000224,1669848204231,ice cream sundae 002,bagel plain,3.4,1.88,-1.52,bagel plain,986.0999999977648,986,986.1999999992549,True,i,87217.5,1488.0999999977648,1669848205719,1488,HRV,HRV_0315,2022-11-30 22:46:51
49,"[{'imgObject': {}, 'id': 'banana', 'src': '/static/foodstim60/banana.jpg', 'key': 'u', 'origWidth': 410, 'origHeight': 410, 'width': 410, 'height': 410, 'widthPercent': 0.45, 'rescaleHeight': False, 'trialN': 49, 'loaded': True, 'loadedTime': 2664.400000002235, 'positionName': 'LEFT', 'positionCoords': [1241.2, 515], 'bid': 5.26}, {'imgObject': {}, 'id': 'ice cream sundae 002', 'src': '/static/foodstim60/ice cream sundae 002.jpg', 'key': 'i', 'origWidth': 409, 'origHeight': 409, 'width': 409, 'height': 409, 'widthPercent': 0.45, 'rescaleHeight': False, 'trialN': 49, 'loaded': True, 'loadedTime': 2259.800000000745, 'positionName': 'RIGHT', 'positionCoords': [1788.8, 515.5], 'bid': 3.4}]",87217.60000000149,1669848205719,banana,ice cream sundae 002,5.26,3.4,-1.8599999999999999,banana,1561.800000000745,1562,1562.0,True,u,89280.69999999925,2063.099999997765,1669848207783,2064,HRV,HRV_0315,2022-11-30 22:46:51
50,"[{'imgObject': {}, 'id': 'mac & cheese', 'src': '/static/foodstim60/mac & cheese.jpg', 'key': 'u', 'origWidth': 410, 'origHeight': 410, 'width': 410, 'height': 410, 'widthPercent': 0.45, 'rescaleHeight': False, 'trialN': 50, 'loaded': True, 'loadedTime': 2547.800000000745, 'positionName': 'LEFT', 'positionCoords': [1241.2, 515], 'bid': 4.9}, {'imgObject': {}, 'id': 'hashbrowns', 'src': '/static/foodstim60/hashbrowns.jpg', 'key': 'i', 'origWidth': 411, 'origHeight': 410, 'width': 411, 'height': 410, 'widthPercent': 0.45, 'rescaleHeight': False, 'trialN': 50, 'loaded': True, 'loadedTime': 2094.10000000149, 'positionName': 'RIGHT', 'positionCoords': [1788.8, 515], 'bid': 4.93}]",89280.90000000224,1669848207783,mac & cheese,hashbrowns,4.9,4.93,0.02999999999999936,hashbrowns,1097.5,1097,1097.699999999255,True,i,90881.30000000075,1600.3999999985099,1669848209383,1600,HRV,HRV_0315,2022-11-30 22:46:51
51,"[{'imgObject': {}, 'id': 'mashed potato', 'src': '/static/foodstim60/mashed potato.jpg', 'key': 'u', 'origWidth': 409, 'origHeight': 409, 'width': 409, 'height': 409, 'widthPercent': 0.45, 'rescaleHeight': False, 'trialN': 51, 'loaded': True, 'loadedTime': 2432.400000002235, 'positionName': 'LEFT', 'positionCoords': [1242.2, 515.5], 'bid': 4.84}, {'imgObject': {}, 'id': 'luckycharms', 'src': '/static/foodstim60/luckycharms.jpg', 'key': 'i', 'origWidth': 410, 'origHeight': 409, 'width': 410, 'height': 409, 'widthPercent': 0.45, 'rescaleHeight': False, 'trialN': 51, 'loaded': True, 'loadedTime': 2451.199999999255, 'positionName': 'RIGHT', 'positionCoords': [1788.8, 515.5], 'bid': 4.75}]",90881.40000000224,1669848209383,mashed potato,luckycharms,4.84,4.75,-0.08999999999999986,luckycharms,682.0,682,682.1999999992549,True,i,92064.60000000149,1183.199999999255,1669848210566,1183,HRV,HRV_0315,2022-11-30 22:46:51
52,"[{'imgObject': {}, 'id': 'chickenfingers', 'src': '/static/foodstim60/chickenfingers.jpg', 'key': 'u', 'origWidth': 410, 'origHeight': 410, 'width': 410, 'height': 410, 'widthPercent': 0.45, 'rescaleHeight': False, 'trialN': 52, 'loaded': True, 'loadedTime': 2488.60000000149, 'positionName': 'LEFT', 'positionCoords': [1241.2, 515], 'bid': 6}, {'imgObject': {}, 'id': 'omelette', 'src': '/static/foodstim60/omelette.jpg', 'key': 'i', 'origWidth': 410, 'origHeight': 409, 'width': 410, 'height': 409, 'widthPercent': 0.45, 'rescaleHeight': False, 'trialN': 52, 'loaded': True, 'loadedTime': 2214.10000000149, 'positionName': 'RIGHT', 'positionCoords': [1788.8, 515.5], 'bid': 5.54}]",92064.69999999925,1669848210567,chickenfingers,omelette,6.0,5.54,-0.45999999999999996,chickenfingers,782.8000000007451,783,783.0,True,u,93353.60000000149,1288.9000000022352,1669848211855,1288,HRV,HRV_0315,2022-11-30 22:46:51
53,"[{'imgObject': {}, 'id': 'tacos', 'src': '/static/foodstim60/tacos.jpg', 'key': 'u', 'origWidth': 411, 'origHeight': 411, 'width': 411, 'height': 411, 'widthPercent': 0.45, 'rescaleHeight': False, 'trialN': 53, 'loaded': True, 'loadedTime': 2174.400000002235, 'positionName': 'LEFT', 'positionCoords': [1240.2, 514.5], 'bid': 6.95}, {'imgObject': {}, 'id': 'kiwi', 'src': '/static/foodstim60/kiwi.jpg', 'key': 'i', 'origWidth': 410, 'origHeight': 410, 'width': 410, 'height': 410, 'widthPercent': 0.45, 'rescaleHeight': False, 'trialN': 53, 'loaded': True, 'loadedTime': 2452, 'positionName': 'RIGHT', 'positionCoords': [1788.8, 515], 'bid': 3.98}]",93353.60000000149,1669848211856,tacos,kiwi,6.95,3.98,-2.97,tacos,765.8999999985099,765,765.8999999985099,True,u,94625.40000000224,1271.800000000745,1669848213127,1271,HRV,HRV_0315,2022-11-30 22:46:51
54,"[{'imgObject': {}, 'id': 'rigatoni', 'src': '/static/foodstim60/rigatoni.jpg', 'key': 'u', 'origWidth': 411, 'origHeight': 411, 'width': 411, 'height': 411, 'widthPercent': 0.45, 'rescaleHeight': False, 'trialN': 54, 'loaded': True, 'loadedTime': 2080.900000002235, 'positionName': 'LEFT', 'positionCoords': [1240.2, 514.5], 'bid': 1.44}, {'imgObject': {}, 'id': 'baked potato', 'src': '/static/foodstim60/baked potato.jpg', 'key': 'i', 'origWidth': 409, 'origHeight': 410, 'width': 409, 'height': 410, 'widthPercent': 0.45, 'rescaleHeight': False, 'trialN': 54, 'loaded': True, 'loadedTime': 2683.300000000745, 'positionName': 'RIGHT', 'positionCoords': [1788.8, 515], 'bid': 4.3}]",94625.5,1669848213127,rigatoni,baked potato,1.44,4.3,2.86,baked potato,1452.4000000022352,1453,1452.6000000014901,True,i,96584.40000000224,1958.9000000022352,1669848215086,1959,HRV,HRV_0315,2022-11-30 22:46:51
55,"[{'imgObject': {}, 'id': 'shreddedwheatwithmilk', 'src': '/static/foodstim60/shreddedwheatwithmilk.jpg', 'key': 'u', 'origWidth': 410, 'origHeight': 410, 'width': 410, 'height': 410, 'widthPercent': 0.45, 'rescaleHeight': False, 'trialN': 55, 'loaded': True, 'loadedTime': 2213.400000002235, 'positionName': 'LEFT', 'positionCoords': [1241.2, 515], 'bid': 5.87}, {'imgObject': {}, 'id': 'sweetpotato', 'src': '/static/foodstim60/sweetpotato.jpg', 'key': 'i', 'origWidth': 410, 'origHeight': 410, 'width': 410, 'height': 410, 'widthPercent': 0.45, 'rescaleHeight': False, 'trialN': 55, 'loaded': True, 'loadedTime': 2684.400000002235, 'positionName': 'RIGHT', 'positionCoords': [1788.8, 515], 'bid': 5.04}]",96584.5,1669848215086,shreddedwheatwithmilk,sweetpotato,5.87,5.04,-0.8300000000000001,sweetpotato,737.0,737,737.1000000014901,True,i,97824.80000000075,1240.300000000745,1669848216327,1241,HRV,HRV_0315,2022-11-30 22:46:51
56,"[{'imgObject': {}, 'id': 'eggs', 'src': '/static/foodstim60/eggs.jpg', 'key': 'u', 'origWidth': 409, 'origHeight': 409, 'width': 409, 'height': 409, 'widthPercent': 0.45, 'rescaleHeight': False, 'trialN': 56, 'loaded': True, 'loadedTime': 2684.60000000149, 'positionName': 'LEFT', 'positionCoords': [1242.2, 515.5], 'bid': 6.24}, {'imgObject': {}, 'id': 'banana', 'src': '/static/foodstim60/banana.jpg', 'key': 'i', 'origWidth': 410, 'origHeight': 410, 'width': 410, 'height': 410, 'widthPercent': 0.45, 'rescaleHeight': False, 'trialN': 56, 'loaded': True, 'loadedTime': 2664.699999999255, 'positionName': 'RIGHT', 'positionCoords': [1788.8, 515], 'bid': 5.26}]",97825.0,1669848216327,eggs,banana,6.24,5.26,-0.9800000000000004,eggs,584.6000000014901,585,584.6999999992549,True,u,98912.60000000149,1087.6000000014901,1669848217415,1088,HRV,HRV_0315,2022-11-30 22:46:51
57,"[{'imgObject': {}, 'id': 'sweetpotato', 'src': '/static/foodstim60/sweetpotato.jpg', 'key': 'u', 'origWidth': 410, 'origHeight': 410, 'width': 410, 'height': 410, 'widthPercent': 0.45, 'rescaleHeight': False, 'trialN': 57, 'loaded': True, 'loadedTime': 2683.900000002235, 'positionName': 'LEFT', 'positionCoords': [1241.2, 515], 'bid': 5.04}, {'imgObject': {}, 'id': 'Grapes', 'src': '/static/foodstim60/Grapes.jpg', 'key': 'i', 'origWidth': 411, 'origHeight': 411, 'width': 411, 'height': 411, 'widthPercent': 0.45, 'rescaleHeight': False, 'trialN': 57, 'loaded': True, 'loadedTime': 2201.300000000745, 'positionName': 'RIGHT', 'positionCoords': [1788.8, 514.5], 'bid': 6.0600000000000005}]",98912.80000000075,1669848217415,sweetpotato,Grapes,5.04,6.0600000000000005,1.0200000000000005,sweetpotato,960.6000000014901,960,960.8000000007451,True,u,100377.0,1464.199999999255,1669848218879,1464,HRV,HRV_0315,2022-11-30 22:46:51
58,"[{'imgObject': {}, 'id': 'apple slices', 'src': '/static/foodstim60/apple slices.jpg', 'key': 'u', 'origWidth': 409, 'origHeight': 410, 'width': 409, 'height': 410, 'widthPercent': 0.45, 'rescaleHeight': False, 'trialN': 58, 'loaded': True, 'loadedTime': 2607.10000000149, 'positionName': 'LEFT', 'positionCoords': [1242.2, 515], 'bid': 7.17}, {'imgObject': {}, 'id': 'fruitsalad', 'src': '/static/foodstim60/fruitsalad.jpg', 'key': 'i', 'origWidth': 410, 'origHeight': 410, 'width': 410, 'height': 410, 'widthPercent': 0.45, 'rescaleHeight': False, 'trialN': 58, 'loaded': True, 'loadedTime': 2703.699999999255, 'positionName': 'RIGHT', 'positionCoords': [1788.8, 515], 'bid': 8.16}]",100377.0,1669848218879,apple slices,fruitsalad,7.17,8.16,0.9900000000000002,fruitsalad,768.4000000022352,768,768.6000000014901,True,i,101649.30000000075,1272.300000000745,1669848220151,1272,HRV,HRV_0315,2022-11-30 22:46:51
59,"[{'imgObject': {}, 'id': 'tacos', 'src': '/static/foodstim60/tacos.jpg', 'key': 'u', 'origWidth': 411, 'origHeight': 411, 'width': 411, 'height': 411, 'widthPercent': 0.45, 'rescaleHeight': False, 'trialN': 59, 'loaded': True, 'loadedTime': 2173.699999999255, 'positionName': 'LEFT', 'positionCoords': [1240.2, 514.5], 'bid': 6.95}, {'imgObject': {}, 'id': 'granola w milk', 'src': '/static/foodstim60/granola w milk.jpg', 'key': 'i', 'origWidth': 410, 'origHeight': 410, 'width': 410, 'height': 410, 'widthPercent': 0.45, 'rescaleHeight': False, 'trialN': 59, 'loaded': True, 'loadedTime': 2414.300000000745, 'positionName': 'RIGHT', 'positionCoords': [1788.8, 515], 'bid': 6.7700000000000005}]",101649.40000000224,1669848220151,tacos,granola w milk,6.95,6.7700000000000005,-0.17999999999999972,tacos,860.0999999977648,861,860.2999999970198,True,u,103017.30000000075,1367.8999999985099,1669848221519,1368,HRV,HRV_0315,2022-11-30 22:46:51
60,"[{'imgObject': {}, 'id': 'bagel and cc', 'src': '/static/foodstim60/bagel and cc.jpg', 'key': 'u', 'origWidth': 410, 'origHeight': 410, 'width': 410, 'height': 410, 'widthPercent': 0.45, 'rescaleHeight': False, 'trialN': 60, 'loaded': True, 'loadedTime': 2254.400000002235, 'positionName': 'LEFT', 'positionCoords': [1241.2, 515], 'bid': 2.09}, {'imgObject': {}, 'id': 'salmon', 'src': '/static/foodstim60/salmon.jpg', 'key': 'i', 'origWidth': 410, 'origHeight': 409, 'width': 410, 'height': 409, 'widthPercent': 0.45, 'rescaleHeight': False, 'trialN': 60, 'loaded': True, 'loadedTime': 2096.400000002235, 'positionName': 'RIGHT', 'positionCoords': [1788.8, 515.5], 'bid': 2.37}]",103017.40000000224,1669848221519,bagel and cc,salmon,2.09,2.37,0.28000000000000025,salmon,1135.0999999977648,1135,1135.0999999977648,True,i,104656.90000000224,1639.5,1669848223159,1640,HRV,HRV_0315,2022-11-30 22:46:51
61,"[{'imgObject': {}, 'id': 'cocktailshrimp', 'src': '/static/foodstim60/cocktailshrimp.jpg', 'key': 'u', 'origWidth': 410, 'origHeight': 410, 'width': 410, 'height': 410, 'widthPercent': 0.45, 'rescaleHeight': False, 'trialN': 61, 'loaded': True, 'loadedTime': 2252.699999999255, 'positionName': 'LEFT', 'positionCoords': [1241.2, 515], 'bid': 4.01}, {'imgObject': {}, 'id': 'baked potato', 'src': '/static/foodstim60/baked potato.jpg', 'key': 'i', 'origWidth': 409, 'origHeight': 410, 'width': 409, 'height': 410, 'widthPercent': 0.45, 'rescaleHeight': False, 'trialN': 61, 'loaded': True, 'loadedTime': 2683.800000000745, 'positionName': 'RIGHT', 'positionCoords': [1788.8, 515], 'bid': 4.3}]",104657.0,1669848223159,cocktailshrimp,baked potato,4.01,4.3,0.29000000000000004,cocktailshrimp,1102.5,1102,1102.6000000014901,True,u,106264.90000000224,1607.9000000022352,1669848224767,1608,HRV,HRV_0315,2022-11-30 22:46:51
62,"[{'imgObject': {}, 'id': 'mango', 'src': '/static/foodstim60/mango.jpg', 'key': 'u', 'origWidth': 411, 'origHeight': 411, 'width': 411, 'height': 411, 'widthPercent': 0.45, 'rescaleHeight': False, 'trialN': 62, 'loaded': True, 'loadedTime': 2292.199999999255, 'positionName': 'LEFT', 'positionCoords': [1240.2, 514.5], 'bid': 7.3}, {'imgObject': {}, 'id': 'luckycharms', 'src': '/static/foodstim60/luckycharms.jpg', 'key': 'i', 'origWidth': 410, 'origHeight': 409, 'width': 410, 'height': 409, 'widthPercent': 0.45, 'rescaleHeight': False, 'trialN': 62, 'loaded': True, 'loadedTime': 2451.300000000745, 'positionName': 'RIGHT', 'positionCoords': [1788.8, 515.5], 'bid': 4.75}]",106264.90000000224,1669848224767,mango,luckycharms,7.3,4.75,-2.55,mango,997.8999999985099,998,998.0999999977648,True,u,107768.69999999925,1503.7999999970198,1669848226271,1504,HRV,HRV_0315,2022-11-30 22:46:51
63,"[{'imgObject': {}, 'id': 'sweetpotato', 'src': '/static/foodstim60/sweetpotato.jpg', 'key': 'u', 'origWidth': 410, 'origHeight': 410, 'width': 410, 'height': 410, 'widthPercent': 0.45, 'rescaleHeight': False, 'trialN': 63, 'loaded': True, 'loadedTime': 2684.400000002235, 'positionName': 'LEFT', 'positionCoords': [1241.2, 515], 'bid': 5.04}, {'imgObject': {}, 'id': 'banana', 'src': '/static/foodstim60/banana.jpg', 'key': 'i', 'origWidth': 410, 'origHeight': 410, 'width': 410, 'height': 410, 'widthPercent': 0.45, 'rescaleHeight': False, 'trialN': 63, 'loaded': True, 'loadedTime': 2664.5, 'positionName': 'RIGHT', 'positionCoords': [1788.8, 515], 'bid': 5.26}]",107768.80000000075,1669848226271,sweetpotato,banana,5.04,5.26,0.21999999999999975,banana,845.6000000014901,845,845.6999999992549,True,i,109120.40000000224,1351.6000000014901,1669848227622,1351,HRV,HRV_0315,2022-11-30 22:46:51
64,"[{'imgObject': {}, 'id': 'burrito', 'src': '/static/foodstim60/burrito.jpg', 'key': 'u', 'origWidth': 410, 'origHeight': 410, 'width': 410, 'height': 410, 'widthPercent': 0.45, 'rescaleHeight': False, 'trialN': 64, 'loaded': True, 'loadedTime': 2704.60000000149, 'positionName': 'LEFT', 'positionCoords': [1241.2, 515], 'bid': 5.92}, {'imgObject': {}, 'id': 'roastedpotatoes', 'src': '/static/foodstim60/roastedpotatoes.jpg', 'key': 'i', 'origWidth': 409, 'origHeight': 410, 'width': 409, 'height': 410, 'widthPercent': 0.45, 'rescaleHeight': False, 'trialN': 64, 'loaded': True, 'loadedTime': 2260, 'positionName': 'RIGHT', 'positionCoords': [1788.8, 515], 'bid': 5.12}]",109120.5,1669848227622,burrito,roastedpotatoes,5.92,5.12,-0.7999999999999998,roastedpotatoes,1555.9000000022352,1556,1556.1000000014901,True,i,111177.30000000075,2056.800000000745,1669848229679,2057,HRV,HRV_0315,2022-11-30 22:46:51
65,"[{'imgObject': {}, 'id': 'froot loops w milk', 'src': '/static/foodstim60/froot loops w milk.jpg', 'key': 'u', 'origWidth': 410, 'origHeight': 410, 'width': 410, 'height': 410, 'widthPercent': 0.45, 'rescaleHeight': False, 'trialN': 65, 'loaded': True, 'loadedTime': 2289.400000002235, 'positionName': 'LEFT', 'positionCoords': [1241.2, 515], 'bid': 5.94}, {'imgObject': {}, 'id': 'banana', 'src': '/static/foodstim60/banana.jpg', 'key': 'i', 'origWidth': 410, 'origHeight': 410, 'width': 410, 'height': 410, 'widthPercent': 0.45, 'rescaleHeight': False, 'trialN': 65, 'loaded': True, 'loadedTime': 2683.10000000149, 'positionName': 'RIGHT', 'positionCoords': [1788.8, 515], 'bid': 5.26}]",111177.40000000224,1669848229679,froot loops w milk,banana,5.94,5.26,-0.6800000000000006,banana,1672.0999999977648,1672,1672.199999999255,True,i,113352.40000000224,2175.0,1669848231854,2175,HRV,HRV_0315,2022-11-30 22:46:51
66,"[{'imgObject': {}, 'id': 'rigatoni and sauce', 'src': '/static/foodstim60/rigatoni and sauce.jpg', 'key': 'u', 'origWidth': 410, 'origHeight': 411, 'width': 410, 'height': 411, 'widthPercent': 0.45, 'rescaleHeight': False, 'trialN': 66, 'loaded': True, 'loadedTime': 2527.800000000745, 'positionName': 'LEFT', 'positionCoords': [1241.2, 514.5], 'bid': 3.44}, {'imgObject': {}, 'id': 'baked potato', 'src': '/static/foodstim60/baked potato.jpg', 'key': 'i', 'origWidth': 409, 'origHeight': 410, 'width': 409, 'height': 410, 'widthPercent': 0.45, 'rescaleHeight': False, 'trialN': 66, 'loaded': True, 'loadedTime': 2683.800000000745, 'positionName': 'RIGHT', 'positionCoords': [1788.8, 515], 'bid': 4.3}]",113352.5,1669848231854,rigatoni and sauce,baked potato,3.44,4.3,0.8599999999999999,rigatoni and sauce,1515.0,1516,1515.1000000014901,True,u,115369.5,2017.0,1669848233871,2017,HRV,HRV_0315,2022-11-30 22:46:51
67,"[{'imgObject': {}, 'id': 'yogurt no spoon', 'src': '/static/foodstim60/yogurt no spoon.jpg', 'key': 'u', 'origWidth': 411, 'origHeight': 410, 'width': 411, 'height': 410, 'widthPercent': 0.45, 'rescaleHeight': False, 'trialN': 67, 'loaded': True, 'loadedTime': 2705.5, 'positionName': 'LEFT', 'positionCoords': [1240.2, 515], 'bid': 8}, {'imgObject': {}, 'id': 'Tribe humus pita', 'src': '/static/foodstim60/Tribe humus pita.jpg', 'key': 'i', 'origWidth': 411, 'origHeight': 411, 'width': 411, 'height': 411, 'widthPercent': 0.45, 'rescaleHeight': False, 'trialN': 67, 'loaded': True, 'loadedTime': 2587.300000000745, 'positionName': 'RIGHT', 'positionCoords': [1788.8, 514.5], 'bid': 7.35}]",115369.60000000149,1669848233871,yogurt no spoon,Tribe humus pita,8.0,7.35,-0.6500000000000004,yogurt no spoon,1168.800000000745,1169,1169.0,True,u,117040.90000000224,1671.300000000745,1669848235543,1672,HRV,HRV_0315,2022-11-30 22:46:51
68,"[{'imgObject': {}, 'id': 'turkey sandwich', 'src': '/static/foodstim60/turkey sandwich.jpg', 'key': 'u', 'origWidth': 409, 'origHeight': 409, 'width': 409, 'height': 409, 'widthPercent': 0.45, 'rescaleHeight': False, 'trialN': 68, 'loaded': True, 'loadedTime': 2705.60000000149, 'positionName': 'LEFT', 'positionCoords': [1242.2, 515.5], 'bid': 6.65}, {'imgObject': {}, 'id': 'seaweed', 'src': '/static/foodstim60/seaweed.jpg', 'key': 'i', 'origWidth': 410, 'origHeight': 410, 'width': 410, 'height': 410, 'widthPercent': 0.45, 'rescaleHeight': False, 'trialN': 68, 'loaded': True, 'loadedTime': 2320.10000000149, 'positionName': 'RIGHT', 'positionCoords': [1788.8, 515], 'bid': 6.63}]",117041.0,1669848235543,turkey sandwich,seaweed,6.65,6.63,-0.020000000000000462,turkey sandwich,1082.0,1082,1082.199999999255,True,u,118625.30000000075,1584.300000000745,1669848237127,1584,HRV,HRV_0315,2022-11-30 22:46:51
69,"[{'imgObject': {}, 'id': 'turkey sandwich', 'src': '/static/foodstim60/turkey sandwich.jpg', 'key': 'u', 'origWidth': 409, 'origHeight': 409, 'width': 409, 'height': 409, 'widthPercent': 0.45, 'rescaleHeight': False, 'trialN': 69, 'loaded': True, 'loadedTime': 2706.199999999255, 'positionName': 'LEFT', 'positionCoords': [1242.2, 515.5], 'bid': 6.65}, {'imgObject': {}, 'id': 'turkeysandwich', 'src': '/static/foodstim60/turkeysandwich.jpg', 'key': 'i', 'origWidth': 409, 'origHeight': 409, 'width': 409, 'height': 409, 'widthPercent': 0.45, 'rescaleHeight': False, 'trialN': 69, 'loaded': True, 'loadedTime': 2193.5, 'positionName': 'RIGHT', 'positionCoords': [1788.8, 515.5], 'bid': 7.18}]",118625.5,1669848237127,turkey sandwich,turkeysandwich,6.65,7.18,0.5299999999999994,turkeysandwich,2966.0,2967,2966.10000000149,True,i,122097.0,3471.5,1669848240599,3472,HRV,HRV_0315,2022-11-30 22:46:51
70,"[{'imgObject': {}, 'id': 'fruitsalad', 'src': '/static/foodstim60/fruitsalad.jpg', 'key': 'u', 'origWidth': 410, 'origHeight': 410, 'width': 410, 'height': 410, 'widthPercent': 0.45, 'rescaleHeight': False, 'trialN': 70, 'loaded': True, 'loadedTime': 2685.5, 'positionName': 'LEFT', 'positionCoords': [1241.2, 515], 'bid': 8.16}, {'imgObject': {}, 'id': 'sushi w_condiments', 'src': '/static/foodstim60/sushi w_condiments.jpg', 'key': 'i', 'origWidth': 410, 'origHeight': 410, 'width': 410, 'height': 410, 'widthPercent': 0.45, 'rescaleHeight': False, 'trialN': 70, 'loaded': True, 'loadedTime': 2567.199999999255, 'positionName': 'RIGHT', 'positionCoords': [1788.8, 515], 'bid': 8.57}]",122097.10000000149,1669848240599,fruitsalad,sushi w_condiments,8.16,8.57,0.41000000000000014,sushi w_condiments,798.6999999992549,799,798.8999999985099,True,i,123401.19999999925,1304.0999999977648,1669848241903,1304,HRV,HRV_0315,2022-11-30 22:46:51
71,"[{'imgObject': {}, 'id': 'raspberries', 'src': '/static/foodstim60/raspberries.jpg', 'key': 'u', 'origWidth': 411, 'origHeight': 411, 'width': 411, 'height': 411, 'widthPercent': 0.45, 'rescaleHeight': False, 'trialN': 71, 'loaded': True, 'loadedTime': 2094.800000000745, 'positionName': 'LEFT', 'positionCoords': [1240.2, 514.5], 'bid': 8}, {'imgObject': {}, 'id': 'cherries', 'src': '/static/foodstim60/cherries.jpg', 'key': 'i', 'origWidth': 410, 'origHeight': 411, 'width': 410, 'height': 411, 'widthPercent': 0.45, 'rescaleHeight': False, 'trialN': 71, 'loaded': True, 'loadedTime': 2295.699999999255, 'positionName': 'RIGHT', 'positionCoords': [1788.8, 514.5], 'bid': 6.6000000000000005}]",123401.30000000075,1669848241903,raspberries,cherries,8.0,6.6000000000000005,-1.3999999999999995,raspberries,1025.199999999255,1025,1025.300000000745,True,u,124929.0,1527.699999999255,1669848243431,1528,HRV,HRV_0315,2022-11-30 22:46:51
72,"[{'imgObject': {}, 'id': 'omelette', 'src': '/static/foodstim60/omelette.jpg', 'key': 'u', 'origWidth': 410, 'origHeight': 409, 'width': 410, 'height': 409, 'widthPercent': 0.45, 'rescaleHeight': False, 'trialN': 72, 'loaded': True, 'loadedTime': 2214.300000000745, 'positionName': 'LEFT', 'positionCoords': [1241.2, 515.5], 'bid': 5.54}, {'imgObject': {}, 'id': 'salad w chicken', 'src': '/static/foodstim60/salad w chicken.jpg', 'key': 'i', 'origWidth': 411, 'origHeight': 411, 'width': 411, 'height': 411, 'widthPercent': 0.45, 'rescaleHeight': False, 'trialN': 72, 'loaded': True, 'loadedTime': 2089.900000002235, 'positionName': 'RIGHT', 'positionCoords': [1788.8, 514.5], 'bid': 8.47}]",124929.10000000149,1669848243431,omelette,salad w chicken,5.54,8.47,2.9300000000000006,omelette,1052.3999999985099,1053,1052.5999999977648,True,u,126488.90000000224,1559.800000000745,1669848244991,1560,HRV,HRV_0315,2022-11-30 22:46:51
73,"[{'imgObject': {}, 'id': 'grilled chicken strips', 'src': '/static/foodstim60/grilled chicken strips.jpg', 'key': 'u', 'origWidth': 410, 'origHeight': 411, 'width': 410, 'height': 411, 'widthPercent': 0.45, 'rescaleHeight': False, 'trialN': 73, 'loaded': True, 'loadedTime': 2255.199999999255, 'positionName': 'LEFT', 'positionCoords': [1241.2, 514.5], 'bid': 6.7}, {'imgObject': {}, 'id': 'raspberries', 'src': '/static/foodstim60/raspberries.jpg', 'key': 'i', 'origWidth': 411, 'origHeight': 411, 'width': 411, 'height': 411, 'widthPercent': 0.45, 'rescaleHeight': False, 'trialN': 73, 'loaded': True, 'loadedTime': 2094.800000000745, 'positionName': 'RIGHT', 'positionCoords': [1788.8, 514.5], 'bid': 8}]",126489.0,1669848244991,grilled chicken strips,raspberries,6.7,8.0,1.2999999999999998,raspberries,669.5,670,669.6000000014901,True,i,127665.19999999925,1176.199999999255,1669848246167,1176,HRV,HRV_0315,2022-11-30 22:46:51
74,"[{'imgObject': {}, 'id': 'popsicles', 'src': '/static/foodstim60/popsicles.jpg', 'key': 'u', 'origWidth': 410, 'origHeight': 410, 'width': 410, 'height': 410, 'widthPercent': 0.45, 'rescaleHeight': False, 'trialN': 74, 'loaded': True, 'loadedTime': 2706.800000000745, 'positionName': 'LEFT', 'positionCoords': [1241.2, 515], 'bid': 1.69}, {'imgObject': {}, 'id': 'edamame', 'src': '/static/foodstim60/edamame.jpg', 'key': 'i', 'origWidth': 409, 'origHeight': 410, 'width': 409, 'height': 410, 'widthPercent': 0.45, 'rescaleHeight': False, 'trialN': 74, 'loaded': True, 'loadedTime': 2258.300000000745, 'positionName': 'RIGHT', 'positionCoords': [1788.8, 515], 'bid': 3.22}]",127665.30000000075,1669848246167,popsicles,edamame,1.69,3.22,1.5300000000000002,edamame,824.5,825,824.6999999992549,True,i,128993.10000000149,1327.800000000745,1669848247495,1328,HRV,HRV_0315,2022-11-30 22:46:51
75,"[{'imgObject': {}, 'id': 'orange slices', 'src': '/static/foodstim60/orange slices.jpg', 'key': 'u', 'origWidth': 409, 'origHeight': 410, 'width': 409, 'height': 410, 'widthPercent': 0.45, 'rescaleHeight': False, 'trialN': 75, 'loaded': True, 'loadedTime': 2223.400000002235, 'positionName': 'LEFT', 'positionCoords': [1242.2, 515], 'bid': 7.35}, {'imgObject': {}, 'id': 'mashed potato', 'src': '/static/foodstim60/mashed potato.jpg', 'key': 'i', 'origWidth': 409, 'origHeight': 409, 'width': 409, 'height': 409, 'widthPercent': 0.45, 'rescaleHeight': False, 'trialN': 75, 'loaded': True, 'loadedTime': 2415.10000000149, 'positionName': 'RIGHT', 'positionCoords': [1788.8, 515.5], 'bid': 4.84}]",128993.19999999925,1669848247495,orange slices,mashed potato,7.35,4.84,-2.51,orange slices,760.2000000029802,760,760.5,True,u,130256.60000000149,1263.4000000022352,1669848248758,1263,HRV,HRV_0315,2022-11-30 22:46:51
76,"[{'imgObject': {}, 'id': 'cantaloupe', 'src': '/static/foodstim60/cantaloupe.jpg', 'key': 'u', 'origWidth': 409, 'origHeight': 409, 'width': 409, 'height': 409, 'widthPercent': 0.45, 'rescaleHeight': False, 'trialN': 76, 'loaded': True, 'loadedTime': 2625.699999999255, 'positionName': 'LEFT', 'positionCoords': [1242.2, 515.5], 'bid': 5.7}, {'imgObject': {}, 'id': 'chicken nuggets2', 'src': '/static/foodstim60/chicken nuggets2.jpg', 'key': 'i', 'origWidth': 410, 'origHeight': 409, 'width': 410, 'height': 409, 'widthPercent': 0.45, 'rescaleHeight': False, 'trialN': 76, 'loaded': True, 'loadedTime': 2626.400000002235, 'positionName': 'RIGHT', 'positionCoords': [1788.8, 515.5], 'bid': 5.8}]",130256.69999999925,1669848248759,cantaloupe,chicken nuggets2,5.7,5.8,0.09999999999999964,chicken nuggets2,659.7000000029802,659,659.9000000022352,True,i,131417.0,1160.300000000745,1669848249919,1160,HRV,HRV_0315,2022-11-30 22:46:51
77,"[{'imgObject': {}, 'id': 'eggs', 'src': '/static/foodstim60/eggs.jpg', 'key': 'u', 'origWidth': 409, 'origHeight': 409, 'width': 409, 'height': 409, 'widthPercent': 0.45, 'rescaleHeight': False, 'trialN': 77, 'loaded': True, 'loadedTime': 2685.10000000149, 'positionName': 'LEFT', 'positionCoords': [1242.2, 515.5], 'bid': 6.24}, {'imgObject': {}, 'id': 'cherries', 'src': '/static/foodstim60/cherries.jpg', 'key': 'i', 'origWidth': 410, 'origHeight': 411, 'width': 410, 'height': 411, 'widthPercent': 0.45, 'rescaleHeight': False, 'trialN': 77, 'loaded': True, 'loadedTime': 2294.900000002235, 'positionName': 'RIGHT', 'positionCoords': [1788.8, 514.5], 'bid': 6.6000000000000005}]",131417.1000000015,1669848249919,eggs,cherries,6.24,6.6000000000000005,0.3600000000000003,eggs,1215.3999999985099,1216,1215.5999999977648,True,u,133137.0,1719.8999999985099,1669848251639,1720,HRV,HRV_0315,2022-11-30 22:46:51
78,"[{'imgObject': {}, 'id': 'steak', 'src': '/static/foodstim60/steak.jpg', 'key': 'u', 'origWidth': 410, 'origHeight': 410, 'width': 410, 'height': 410, 'widthPercent': 0.45, 'rescaleHeight': False, 'trialN': 78, 'loaded': True, 'loadedTime': 2286.10000000149, 'positionName': 'LEFT', 'positionCoords': [1241.2, 515], 'bid': 8.120000000000001}, {'imgObject': {}, 'id': 'yogurt no spoon', 'src': '/static/foodstim60/yogurt no spoon.jpg', 'key': 'i', 'origWidth': 411, 'origHeight': 410, 'width': 411, 'height': 410, 'widthPercent': 0.45, 'rescaleHeight': False, 'trialN': 78, 'loaded': True, 'loadedTime': 2705.5, 'positionName': 'RIGHT', 'positionCoords': [1788.8, 515], 'bid': 8}]",133137.0,1669848251639,steak,yogurt no spoon,8.120000000000001,8.0,-0.120000000000001,steak,927.4000000022352,927,927.6000000014901,True,u,134569.30000000075,1432.300000000745,1669848253071,1432,HRV,HRV_0315,2022-11-30 22:46:51
79,"[{'imgObject': {}, 'id': 'veggieswithdip', 'src': '/static/foodstim60/veggieswithdip.jpg', 'key': 'u', 'origWidth': 409, 'origHeight': 409, 'width': 409, 'height': 409, 'widthPercent': 0.45, 'rescaleHeight': False, 'trialN': 79, 'loaded': True, 'loadedTime': 2452.60000000149, 'positionName': 'LEFT', 'positionCoords': [1242.2, 515.5], 'bid': 6.6000000000000005}, {'imgObject': {}, 'id': 'tacos', 'src': '/static/foodstim60/tacos.jpg', 'key': 'i', 'origWidth': 411, 'origHeight': 411, 'width': 411, 'height': 411, 'widthPercent': 0.45, 'rescaleHeight': False, 'trialN': 79, 'loaded': True, 'loadedTime': 2178, 'positionName': 'RIGHT', 'positionCoords': [1788.8, 514.5], 'bid': 6.95}]",134569.30000000075,1669848253071,veggieswithdip,tacos,6.6000000000000005,6.95,0.34999999999999964,tacos,612.1999999992549,613,612.3999999985099,True,i,135689.0,1119.699999999255,1669848254191,1120,HRV,HRV_0315,2022-11-30 22:46:51
80,"[{'imgObject': {}, 'id': 'edamame', 'src': '/static/foodstim60/edamame.jpg', 'key': 'u', 'origWidth': 409, 'origHeight': 410, 'width': 409, 'height': 410, 'widthPercent': 0.45, 'rescaleHeight': False, 'trialN': 80, 'loaded': True, 'loadedTime': 2257.199999999255, 'positionName': 'LEFT', 'positionCoords': [1242.2, 515], 'bid': 3.22}, {'imgObject': {}, 'id': 'hotdog w must', 'src': '/static/foodstim60/hotdog w must.jpg', 'key': 'i', 'origWidth': 409, 'origHeight': 409, 'width': 409, 'height': 409, 'widthPercent': 0.45, 'rescaleHeight': False, 'trialN': 80, 'loaded': True, 'loadedTime': 2296.699999999255, 'positionName': 'RIGHT', 'positionCoords': [1788.8, 515.5], 'bid': 2.71}]",135689.0,1669848254191,edamame,hotdog w must,3.22,2.71,-0.5100000000000002,edamame,780.5,781,780.6999999992549,True,u,136976.69999999925,1287.699999999255,1669848255479,1288,HRV,HRV_0315,2022-11-30 22:46:51
81,"[{'imgObject': {}, 'id': 'corn cob', 'src': '/static/foodstim60/corn cob.jpg', 'key': 'u', 'origWidth': 411, 'origHeight': 411, 'width': 411, 'height': 411, 'widthPercent': 0.45, 'rescaleHeight': False, 'trialN': 81, 'loaded': True, 'loadedTime': 2548.300000000745, 'positionName': 'LEFT', 'positionCoords': [1240.2, 514.5], 'bid': 1}, {'imgObject': {}, 'id': 'olives', 'src': '/static/foodstim60/olives.jpg', 'key': 'i', 'origWidth': 410, 'origHeight': 410, 'width': 410, 'height': 410, 'widthPercent': 0.45, 'rescaleHeight': False, 'trialN': 81, 'loaded': True, 'loadedTime': 2528.300000000745, 'positionName': 'RIGHT', 'positionCoords': [1788.8, 515], 'bid': 0.79}]",136976.80000000075,1669848255479,corn cob,olives,1.0,0.79,-0.20999999999999996,corn cob,1083.800000000745,1084,1083.8999999985099,True,u,138561.40000000224,1584.6000000014901,1669848257063,1584,HRV,HRV_0315,2022-11-30 22:46:51
82,"[{'imgObject': {}, 'id': 'cheerios', 'src': '/static/foodstim60/cheerios.jpg', 'key': 'u', 'origWidth': 409, 'origHeight': 410, 'width': 409, 'height': 410, 'widthPercent': 0.45, 'rescaleHeight': False, 'trialN': 82, 'loaded': True, 'loadedTime': 2212.800000000745, 'positionName': 'LEFT', 'positionCoords': [1242.2, 515], 'bid': 3.68}, {'imgObject': {}, 'id': 'cantaloupe', 'src': '/static/foodstim60/cantaloupe.jpg', 'key': 'i', 'origWidth': 409, 'origHeight': 409, 'width': 409, 'height': 409, 'widthPercent': 0.45, 'rescaleHeight': False, 'trialN': 82, 'loaded': True, 'loadedTime': 2626.400000002235, 'positionName': 'RIGHT', 'positionCoords': [1788.8, 515.5], 'bid': 5.7}]",138561.5,1669848257063,cheerios,cantaloupe,3.68,5.7,2.02,cantaloupe,1090.300000000745,1091,1090.5,True,i,140153.30000000075,1591.800000000745,1669848258655,1592,HRV,HRV_0315,2022-11-30 22:46:51
83,"[{'imgObject': {}, 'id': 'roastedpotatoes', 'src': '/static/foodstim60/roastedpotatoes.jpg', 'key': 'u', 'origWidth': 409, 'origHeight': 410, 'width': 409, 'height': 410, 'widthPercent': 0.45, 'rescaleHeight': False, 'trialN': 83, 'loaded': True, 'loadedTime': 2260.800000000745, 'positionName': 'LEFT', 'positionCoords': [1242.2, 515], 'bid': 5.12}, {'imgObject': {}, 'id': 'edamame', 'src': '/static/foodstim60/edamame.jpg', 'key': 'i', 'origWidth': 409, 'origHeight': 410, 'width': 409, 'height': 410, 'widthPercent': 0.45, 'rescaleHeight': False, 'trialN': 83, 'loaded': True, 'loadedTime': 2256.60000000149, 'positionName': 'RIGHT', 'positionCoords': [1788.8, 515], 'bid': 3.22}]",140153.40000000224,1669848258655,roastedpotatoes,edamame,5.12,3.22,-1.9,roastedpotatoes,1751.0999999977648,1751,1751.199999999255,True,u,142408.40000000224,2255.0,1669848260910,2255,HRV,HRV_0315,2022-11-30 22:46:51
84,"[{'imgObject': {}, 'id': 'turkey sandwich', 'src': '/static/foodstim60/turkey sandwich.jpg', 'key': 'u', 'origWidth': 409, 'origHeight': 409, 'width': 409, 'height': 409, 'widthPercent': 0.45, 'rescaleHeight': False, 'trialN': 84, 'loaded': True, 'loadedTime': 2706.300000000745, 'positionName': 'LEFT', 'positionCoords': [1242.2, 515.5], 'bid': 6.65}, {'imgObject': {}, 'id': 'grilled chicken strips', 'src': '/static/foodstim60/grilled chicken strips.jpg', 'key': 'i', 'origWidth': 410, 'origHeight': 411, 'width': 410, 'height': 411, 'widthPercent': 0.45, 'rescaleHeight': False, 'trialN': 84, 'loaded': True, 'loadedTime': 2256, 'positionName': 'RIGHT', 'positionCoords': [1788.8, 514.5], 'bid': 6.7}]",142408.6000000015,1669848260910,turkey sandwich,grilled chicken strips,6.65,6.7,0.04999999999999982,grilled chicken strips,1845.0,1846,1845.199999999255,True,i,144761.0,2352.39999999851,1669848263263,2353,HRV,HRV_0315,2022-11-30 22:46:51
85,"[{'imgObject': {}, 'id': 'corn cob', 'src': '/static/foodstim60/corn cob.jpg', 'key': 'u', 'origWidth': 411, 'origHeight': 411, 'width': 411, 'height': 411, 'widthPercent': 0.45, 'rescaleHeight': False, 'trialN': 85, 'loaded': True, 'loadedTime': 2548.400000002235, 'positionName': 'LEFT', 'positionCoords': [1240.2, 514.5], 'bid': 1}, {'imgObject': {}, 'id': 'burrito', 'src': '/static/foodstim60/burrito.jpg', 'key': 'i', 'origWidth': 410, 'origHeight': 410, 'width': 410, 'height': 410, 'widthPercent': 0.45, 'rescaleHeight': False, 'trialN': 85, 'loaded': True, 'loadedTime': 2703.900000002235, 'positionName': 'RIGHT', 'positionCoords': [1788.8, 515], 'bid': 5.92}]",144761.0,1669848263263,corn cob,burrito,1.0,5.92,4.92,burrito,1207.4000000022352,1207,1207.5,True,i,146472.90000000224,1711.9000000022352,1669848264975,1712,HRV,HRV_0315,2022-11-30 22:46:51
86,"[{'imgObject': {}, 'id': 'olives', 'src': '/static/foodstim60/olives.jpg', 'key': 'u', 'origWidth': 410, 'origHeight': 410, 'width': 410, 'height': 410, 'widthPercent': 0.45, 'rescaleHeight': False, 'trialN': 86, 'loaded': True, 'loadedTime': 2546.900000002235, 'positionName': 'LEFT', 'positionCoords': [1241.2, 515], 'bid': 0.79}, {'imgObject': {}, 'id': 'shreddedwheatwithmilk', 'src': '/static/foodstim60/shreddedwheatwithmilk.jpg', 'key': 'i', 'origWidth': 410, 'origHeight': 410, 'width': 410, 'height': 410, 'widthPercent': 0.45, 'rescaleHeight': False, 'trialN': 86, 'loaded': True, 'loadedTime': 2213.60000000149, 'positionName': 'RIGHT', 'positionCoords': [1788.8, 515], 'bid': 5.87}]",146472.90000000224,1669848264975,olives,shreddedwheatwithmilk,0.79,5.87,5.08,shreddedwheatwithmilk,963.5999999977648,964,963.7999999970198,True,i,147937.1000000015,1464.199999999255,1669848266439,1464,HRV,HRV_0315,2022-11-30 22:46:51
87,"[{'imgObject': {}, 'id': 'fried eggs', 'src': '/static/foodstim60/fried eggs.jpg', 'key': 'u', 'origWidth': 410, 'origHeight': 410, 'width': 410, 'height': 410, 'widthPercent': 0.45, 'rescaleHeight': False, 'trialN': 87, 'loaded': True, 'loadedTime': 2203.300000000745, 'positionName': 'LEFT', 'positionCoords': [1241.2, 515], 'bid': 7.3}, {'imgObject': {}, 'id': 'blueberries', 'src': '/static/foodstim60/blueberries.jpg', 'key': 'i', 'origWidth': 411, 'origHeight': 411, 'width': 411, 'height': 411, 'widthPercent': 0.45, 'rescaleHeight': False, 'trialN': 87, 'loaded': True, 'loadedTime': 2508.10000000149, 'positionName': 'RIGHT', 'positionCoords': [1788.8, 514.5], 'bid': 7.22}]",147937.30000000075,1669848266439,fried eggs,blueberries,7.3,7.22,-0.08000000000000007,blueberries,2102.39999999851,2103,2102.60000000149,True,i,150545.0,2607.699999999255,1669848269047,2608,HRV,HRV_0315,2022-11-30 22:46:51
88,"[{'imgObject': {}, 'id': 'granola w milk', 'src': '/static/foodstim60/granola w milk.jpg', 'key': 'u', 'origWidth': 410, 'origHeight': 410, 'width': 410, 'height': 410, 'widthPercent': 0.45, 'rescaleHeight': False, 'trialN': 88, 'loaded': True, 'loadedTime': 2394.800000000745, 'positionName': 'LEFT', 'positionCoords': [1241.2, 515], 'bid': 6.7700000000000005}, {'imgObject': {}, 'id': 'yogurt no spoon', 'src': '/static/foodstim60/yogurt no spoon.jpg', 'key': 'i', 'origWidth': 411, 'origHeight': 410, 'width': 411, 'height': 410, 'widthPercent': 0.45, 'rescaleHeight': False, 'trialN': 88, 'loaded': True, 'loadedTime': 2705.400000002235, 'positionName': 'RIGHT', 'positionCoords': [1788.8, 515], 'bid': 8}]",150545.1000000015,1669848269047,granola w milk,yogurt no spoon,6.7700000000000005,8.0,1.2299999999999995,yogurt no spoon,1460.3999999985099,1460,1460.5,True,i,152512.80000000075,1967.699999999255,1669848271015,1968,HRV,HRV_0315,2022-11-30 22:46:51
89,"[{'imgObject': {}, 'id': 'corn cob', 'src': '/static/foodstim60/corn cob.jpg', 'key': 'u', 'origWidth': 411, 'origHeight': 411, 'width': 411, 'height': 411, 'widthPercent': 0.45, 'rescaleHeight': False, 'trialN': 89, 'loaded': True, 'loadedTime': 2547.800000000745, 'positionName': 'LEFT', 'positionCoords': [1240.2, 514.5], 'bid': 1}, {'imgObject': {}, 'id': 'cocktailshrimp', 'src': '/static/foodstim60/cocktailshrimp.jpg', 'key': 'i', 'origWidth': 410, 'origHeight': 410, 'width': 410, 'height': 410, 'widthPercent': 0.45, 'rescaleHeight': False, 'trialN': 89, 'loaded': True, 'loadedTime': 2252.10000000149, 'positionName': 'RIGHT', 'positionCoords': [1788.8, 515], 'bid': 4.01}]",152513.0,1669848271015,corn cob,cocktailshrimp,1.0,4.01,3.01,cocktailshrimp,1127.4000000022352,1127,1127.6000000014901,True,i,154145.40000000224,1632.4000000022352,1669848272647,1632,HRV,HRV_0315,2022-11-30 22:46:51
90,"[{'imgObject': {}, 'id': 'fruitsalad', 'src': '/static/foodstim60/fruitsalad.jpg', 'key': 'u', 'origWidth': 410, 'origHeight': 410, 'width': 410, 'height': 410, 'widthPercent': 0.45, 'rescaleHeight': False, 'trialN': 90, 'loaded': True, 'loadedTime': 2685.60000000149, 'positionName': 'LEFT', 'positionCoords': [1241.2, 515], 'bid': 8.16}, {'imgObject': {}, 'id': 'turkey sandwich', 'src': '/static/foodstim60/turkey sandwich.jpg', 'key': 'i', 'origWidth': 409, 'origHeight': 409, 'width': 409, 'height': 409, 'widthPercent': 0.45, 'rescaleHeight': False, 'trialN': 90, 'loaded': True, 'loadedTime': 2706.199999999255, 'positionName': 'RIGHT', 'positionCoords': [1788.8, 515.5], 'bid': 6.65}]",156745.40000000224,1669848275247,fruitsalad,turkey sandwich,8.16,6.65,-1.5099999999999998,turkey sandwich,1337.0999999977648,1337,1337.199999999255,True,i,158585.19999999925,1839.7999999970198,1669848277087,1840,HRV,HRV_0315,2022-11-30 22:46:51
91,"[{'imgObject': {}, 'id': 'eggsalad', 'src': '/static/foodstim60/eggsalad.jpg', 'key': 'u', 'origWidth': 410, 'origHeight': 409, 'width': 410, 'height': 409, 'widthPercent': 0.45, 'rescaleHeight': False, 'trialN': 91, 'loaded': True, 'loadedTime': 2707.5, 'positionName': 'LEFT', 'positionCoords': [1241.2, 515.5], 'bid': 6.23}, {'imgObject': {}, 'id': 'chickenfingers', 'src': '/static/foodstim60/chickenfingers.jpg', 'key': 'i', 'origWidth': 410, 'origHeight': 410, 'width': 410, 'height': 410, 'widthPercent': 0.45, 'rescaleHeight': False, 'trialN': 91, 'loaded': True, 'loadedTime': 2489, 'positionName': 'RIGHT', 'positionCoords': [1788.8, 515], 'bid': 6}]",158585.30000000075,1669848277087,eggsalad,chickenfingers,6.23,6.0,-0.23000000000000043,chickenfingers,718.1000000014901,718,718.3000000007451,True,i,159808.6000000015,1223.300000000745,1669848278310,1223,HRV,HRV_0315,2022-11-30 22:46:51
92,"[{'imgObject': {}, 'id': 'edamame', 'src': '/static/foodstim60/edamame.jpg', 'key': 'u', 'origWidth': 409, 'origHeight': 410, 'width': 409, 'height': 410, 'widthPercent': 0.45, 'rescaleHeight': False, 'trialN': 92, 'loaded': True, 'loadedTime': 2257.800000000745, 'positionName': 'LEFT', 'positionCoords': [1242.2, 515], 'bid': 3.22}, {'imgObject': {}, 'id': 'olives', 'src': '/static/foodstim60/olives.jpg', 'key': 'i', 'origWidth': 410, 'origHeight': 410, 'width': 410, 'height': 410, 'widthPercent': 0.45, 'rescaleHeight': False, 'trialN': 92, 'loaded': True, 'loadedTime': 2546.699999999255, 'positionName': 'RIGHT', 'positionCoords': [1788.8, 515], 'bid': 0.79}]",159808.80000000075,1669848278311,edamame,olives,3.22,0.79,-2.43,edamame,658.8999999985099,659,659.1000000014901,True,u,160969.1000000015,1160.300000000745,1669848279471,1160,HRV,HRV_0315,2022-11-30 22:46:51
93,"[{'imgObject': {}, 'id': 'roastedpotatoes', 'src': '/static/foodstim60/roastedpotatoes.jpg', 'key': 'u', 'origWidth': 409, 'origHeight': 410, 'width': 409, 'height': 410, 'widthPercent': 0.45, 'rescaleHeight': False, 'trialN': 93, 'loaded': True, 'loadedTime': 2260.800000000745, 'positionName': 'LEFT', 'positionCoords': [1242.2, 515], 'bid': 5.12}, {'imgObject': {}, 'id': 'omelette', 'src': '/static/foodstim60/omelette.jpg', 'key': 'i', 'origWidth': 410, 'origHeight': 409, 'width': 410, 'height': 409, 'widthPercent': 0.45, 'rescaleHeight': False, 'trialN': 93, 'loaded': True, 'loadedTime': 2214.10000000149, 'positionName': 'RIGHT', 'positionCoords': [1788.8, 515.5], 'bid': 5.54}]",160969.19999999925,1669848279471,roastedpotatoes,omelette,5.12,5.54,0.41999999999999993,omelette,1277.300000000745,1277,1277.4000000022352,True,i,162753.0,1783.800000000745,1669848281255,1784,HRV,HRV_0315,2022-11-30 22:46:51
94,"[{'imgObject': {}, 'id': 'cherry tomato', 'src': '/static/foodstim60/cherry tomato.jpg', 'key': 'u', 'origWidth': 410, 'origHeight': 410, 'width': 410, 'height': 410, 'widthPercent': 0.45, 'rescaleHeight': False, 'trialN': 94, 'loaded': True, 'loadedTime': 2200, 'positionName': 'LEFT', 'positionCoords': [1241.2, 515], 'bid': 4.61}, {'imgObject': {}, 'id': 'baked potato', 'src': '/static/foodstim60/baked potato.jpg', 'key': 'i', 'origWidth': 409, 'origHeight': 410, 'width': 409, 'height': 410, 'widthPercent': 0.45, 'rescaleHeight': False, 'trialN': 94, 'loaded': True, 'loadedTime': 2683.800000000745, 'positionName': 'RIGHT', 'positionCoords': [1788.8, 515], 'bid': 4.3}]",162753.1000000015,1669848281255,cherry tomato,baked potato,4.61,4.3,-0.3100000000000005,baked potato,1271.5,1272,1271.699999999255,True,i,164528.90000000224,1775.800000000745,1669848283031,1776,HRV,HRV_0315,2022-11-30 22:46:51
95,"[{'imgObject': {}, 'id': 'hotdog w must', 'src': '/static/foodstim60/hotdog w must.jpg', 'key': 'u', 'origWidth': 409, 'origHeight': 409, 'width': 409, 'height': 409, 'widthPercent': 0.45, 'rescaleHeight': False, 'trialN': 95, 'loaded': True, 'loadedTime': 2296.10000000149, 'positionName': 'LEFT', 'positionCoords': [1242.2, 515.5], 'bid': 2.71}, {'imgObject': {}, 'id': 'hashbrowns', 'src': '/static/foodstim60/hashbrowns.jpg', 'key': 'i', 'origWidth': 411, 'origHeight': 410, 'width': 411, 'height': 410, 'widthPercent': 0.45, 'rescaleHeight': False, 'trialN': 95, 'loaded': True, 'loadedTime': 2093.300000000745, 'positionName': 'RIGHT', 'positionCoords': [1788.8, 515], 'bid': 4.93}]",164529.1000000015,1669848283031,hotdog w must,hashbrowns,2.71,4.93,2.2199999999999998,hashbrowns,727.3000000007451,727,727.5,True,i,165760.90000000224,1231.800000000745,1669848284263,1232,HRV,HRV_0315,2022-11-30 22:46:51
96,"[{'imgObject': {}, 'id': 'popsicles', 'src': '/static/foodstim60/popsicles.jpg', 'key': 'u', 'origWidth': 410, 'origHeight': 410, 'width': 410, 'height': 410, 'widthPercent': 0.45, 'rescaleHeight': False, 'trialN': 96, 'loaded': True, 'loadedTime': 2706.900000002235, 'positionName': 'LEFT', 'positionCoords': [1241.2, 515], 'bid': 1.69}, {'imgObject': {}, 'id': 'Grapes', 'src': '/static/foodstim60/Grapes.jpg', 'key': 'i', 'origWidth': 411, 'origHeight': 411, 'width': 411, 'height': 411, 'widthPercent': 0.45, 'rescaleHeight': False, 'trialN': 96, 'loaded': True, 'loadedTime': 2202, 'positionName': 'RIGHT', 'positionCoords': [1788.8, 514.5], 'bid': 6.0600000000000005}]",165761.0,1669848284263,popsicles,Grapes,1.69,6.0600000000000005,4.370000000000001,Grapes,626.4000000022352,626,626.6000000014901,True,i,166889.0,1128.0,1669848285391,1128,HRV,HRV_0315,2022-11-30 22:46:51
97,"[{'imgObject': {}, 'id': 'rigatoni and sauce', 'src': '/static/foodstim60/rigatoni and sauce.jpg', 'key': 'u', 'origWidth': 410, 'origHeight': 411, 'width': 410, 'height': 411, 'widthPercent': 0.45, 'rescaleHeight': False, 'trialN': 97, 'loaded': True, 'loadedTime': 2527.699999999255, 'positionName': 'LEFT', 'positionCoords': [1241.2, 514.5], 'bid': 3.44}, {'imgObject': {}, 'id': 'pear', 'src': '/static/foodstim60/pear.jpg', 'key': 'i', 'origWidth': 411, 'origHeight': 410, 'width': 411, 'height': 410, 'widthPercent': 0.45, 'rescaleHeight': False, 'trialN': 97, 'loaded': True, 'loadedTime': 2288.199999999255, 'positionName': 'RIGHT', 'positionCoords': [1788.8, 515], 'bid': 6.67}]",166889.1000000015,1669848285391,rigatoni and sauce,pear,3.44,6.67,3.23,pear,967.3999999985099,968,967.5999999977648,True,i,168361.1000000015,1472.0,1669848286863,1472,HRV,HRV_0315,2022-11-30 22:46:51
98,"[{'imgObject': {}, 'id': 'lox', 'src': '/static/foodstim60/lox.jpg', 'key': 'u', 'origWidth': 410, 'origHeight': 411, 'width': 410, 'height': 411, 'widthPercent': 0.45, 'rescaleHeight': False, 'trialN': 98, 'loaded': True, 'loadedTime': 2085.60000000149, 'positionName': 'LEFT', 'positionCoords': [1241.2, 514.5], 'bid': 3.0500000000000003}, {'imgObject': {}, 'id': 'ice cream sundae 002', 'src': '/static/foodstim60/ice cream sundae 002.jpg', 'key': 'i', 'origWidth': 409, 'origHeight': 409, 'width': 409, 'height': 409, 'widthPercent': 0.45, 'rescaleHeight': False, 'trialN': 98, 'loaded': True, 'loadedTime': 2260, 'positionName': 'RIGHT', 'positionCoords': [1788.8, 515.5], 'bid': 3.4}]",168361.19999999925,1669848286863,lox,ice cream sundae 002,3.0500000000000003,3.4,0.34999999999999964,ice cream sundae 002,771.2000000029802,771,771.4000000022352,True,i,169640.40000000224,1279.2000000029802,1669848288142,1279,HRV,HRV_0315,2022-11-30 22:46:51
99,"[{'imgObject': {}, 'id': 'bagel plain', 'src': '/static/foodstim60/bagel plain.jpg', 'key': 'u', 'origWidth': 410, 'origHeight': 410, 'width': 410, 'height': 410, 'widthPercent': 0.45, 'rescaleHeight': False, 'trialN': 99, 'loaded': True, 'loadedTime': 2153.10000000149, 'positionName': 'LEFT', 'positionCoords': [1241.2, 515], 'bid': 1.88}, {'imgObject': {}, 'id': 'popsicles', 'src': '/static/foodstim60/popsicles.jpg', 'key': 'i', 'origWidth': 410, 'origHeight': 410, 'width': 410, 'height': 410, 'widthPercent': 0.45, 'rescaleHeight': False, 'trialN': 99, 'loaded': True, 'loadedTime': 2706.300000000745, 'positionName': 'RIGHT', 'positionCoords': [1788.8, 515], 'bid': 1.69}]",169640.6000000015,1669848288142,bagel plain,popsicles,1.88,1.69,-0.18999999999999995,bagel plain,1243.199999999255,1244,1243.300000000745,True,u,171384.80000000075,1744.199999999255,1669848289887,1745,HRV,HRV_0315,2022-11-30 22:46:51
100,"[{'imgObject': {}, 'id': 'Tribe humus pita', 'src': '/static/foodstim60/Tribe humus pita.jpg', 'key': 'u', 'origWidth': 411, 'origHeight': 411, 'width': 411, 'height': 411, 'widthPercent': 0.45, 'rescaleHeight': False, 'trialN': 100, 'loaded': True, 'loadedTime': 2606.400000002235, 'positionName': 'LEFT', 'positionCoords': [1240.2, 514.5], 'bid': 7.35}, {'imgObject': {}, 'id': 'mac & cheese', 'src': '/static/foodstim60/mac & cheese.jpg', 'key': 'i', 'origWidth': 410, 'origHeight': 410, 'width': 410, 'height': 410, 'widthPercent': 0.45, 'rescaleHeight': False, 'trialN': 100, 'loaded': True, 'loadedTime': 2547.800000000745, 'positionName': 'RIGHT', 'positionCoords': [1788.8, 515], 'bid': 4.9}]",171384.90000000224,1669848289887,Tribe humus pita,mac & cheese,7.35,4.9,-2.4499999999999993,Tribe humus pita,1209.5,1209,1209.699999999255,True,u,173096.90000000224,1712.0,1669848291599,1712,HRV,HRV_0315,2022-11-30 22:46:51
101,"[{'imgObject': {}, 'id': 'raspberries', 'src': '/static/foodstim60/raspberries.jpg', 'key': 'u', 'origWidth': 411, 'origHeight': 411, 'width': 411, 'height': 411, 'widthPercent': 0.45, 'rescaleHeight': False, 'trialN': 101, 'loaded': True, 'loadedTime': 2095, 'positionName': 'LEFT', 'positionCoords': [1240.2, 514.5], 'bid': 8}, {'imgObject': {}, 'id': 'steak', 'src': '/static/foodstim60/steak.jpg', 'key': 'i', 'origWidth': 410, 'origHeight': 410, 'width': 410, 'height': 410, 'widthPercent': 0.45, 'rescaleHeight': False, 'trialN': 101, 'loaded': True, 'loadedTime': 2286.10000000149, 'positionName': 'RIGHT', 'positionCoords': [1788.8, 515], 'bid': 8.120000000000001}]",173097.0,1669848291599,raspberries,steak,8.0,8.120000000000001,0.120000000000001,steak,1013.4000000022352,1013,1013.6000000014901,True,i,174616.69999999925,1519.699999999255,1669848293119,1520,HRV,HRV_0315,2022-11-30 22:46:51
102,"[{'imgObject': {}, 'id': 'banana', 'src': '/static/foodstim60/banana.jpg', 'key': 'u', 'origWidth': 410, 'origHeight': 410, 'width': 410, 'height': 410, 'widthPercent': 0.45, 'rescaleHeight': False, 'trialN': 102, 'loaded': True, 'loadedTime': 2645.400000002235, 'positionName': 'LEFT', 'positionCoords': [1241.2, 515], 'bid': 5.26}, {'imgObject': {}, 'id': 'fruitsalad', 'src': '/static/foodstim60/fruitsalad.jpg', 'key': 'i', 'origWidth': 410, 'origHeight': 410, 'width': 410, 'height': 410, 'widthPercent': 0.45, 'rescaleHeight': False, 'trialN': 102, 'loaded': True, 'loadedTime': 2685.199999999255, 'positionName': 'RIGHT', 'positionCoords': [1788.8, 515], 'bid': 8.16}]",174616.90000000224,1669848293119,banana,fruitsalad,5.26,8.16,2.9000000000000004,fruitsalad,793.5999999977648,793,793.7999999970198,True,i,175913.0,1296.0999999977648,1669848294415,1296,HRV,HRV_0315,2022-11-30 22:46:51
103,"[{'imgObject': {}, 'id': 'Grapes', 'src': '/static/foodstim60/Grapes.jpg', 'key': 'u', 'origWidth': 411, 'origHeight': 411, 'width': 411, 'height': 411, 'widthPercent': 0.45, 'rescaleHeight': False, 'trialN': 103, 'loaded': True, 'loadedTime': 2202.300000000745, 'positionName': 'LEFT', 'positionCoords': [1240.2, 514.5], 'bid': 6.0600000000000005}, {'imgObject': {}, 'id': 'cantaloupe', 'src': '/static/foodstim60/cantaloupe.jpg', 'key': 'i', 'origWidth': 409, 'origHeight': 409, 'width': 409, 'height': 409, 'widthPercent': 0.45, 'rescaleHeight': False, 'trialN': 103, 'loaded': True, 'loadedTime': 2626.199999999255, 'positionName': 'RIGHT', 'positionCoords': [1788.8, 515.5], 'bid': 5.7}]",175913.0,1669848294415,Grapes,cantaloupe,6.0600000000000005,5.7,-0.3600000000000003,cantaloupe,908.5,908,908.6999999992549,True,i,177329.19999999925,1416.199999999255,1669848295831,1416,HRV,HRV_0315,2022-11-30 22:46:51
104,"[{'imgObject': {}, 'id': 'granola w milk', 'src': '/static/foodstim60/granola w milk.jpg', 'key': 'u', 'origWidth': 410, 'origHeight': 410, 'width': 410, 'height': 410, 'widthPercent': 0.45, 'rescaleHeight': False, 'trialN': 104, 'loaded': True, 'loadedTime': 2394.800000000745, 'positionName': 'LEFT', 'positionCoords': [1241.2, 515], 'bid': 6.7700000000000005}, {'imgObject': {}, 'id': 'apple slices', 'src': '/static/foodstim60/apple slices.jpg', 'key': 'i', 'origWidth': 409, 'origHeight': 410, 'width': 409, 'height': 410, 'widthPercent': 0.45, 'rescaleHeight': False, 'trialN': 104, 'loaded': True, 'loadedTime': 2607.199999999255, 'positionName': 'RIGHT', 'positionCoords': [1788.8, 515], 'bid': 7.17}]",177329.40000000224,1669848295831,granola w milk,apple slices,6.7700000000000005,7.17,0.39999999999999947,apple slices,904.0999999977648,904,904.1999999992549,True,i,178736.5,1407.0999999977648,1669848297238,1407,HRV,HRV_0315,2022-11-30 22:46:51
105,"[{'imgObject': {}, 'id': 'eggs', 'src': '/static/foodstim60/eggs.jpg', 'key': 'u', 'origWidth': 409, 'origHeight': 409, 'width': 409, 'height': 409, 'widthPercent': 0.45, 'rescaleHeight': False, 'trialN': 105, 'loaded': True, 'loadedTime': 2685, 'positionName': 'LEFT', 'positionCoords': [1242.2, 515.5], 'bid': 6.24}, {'imgObject': {}, 'id': 'pear', 'src': '/static/foodstim60/pear.jpg', 'key': 'i', 'origWidth': 411, 'origHeight': 410, 'width': 411, 'height': 410, 'widthPercent': 0.45, 'rescaleHeight': False, 'trialN': 105, 'loaded': True, 'loadedTime': 2287.800000000745, 'positionName': 'RIGHT', 'positionCoords': [1788.8, 515], 'bid': 6.67}]",178736.69999999925,1669848297239,eggs,pear,6.24,6.67,0.4299999999999997,eggs,856.8000000007451,856,856.9000000022352,True,u,180096.40000000224,1359.7000000029802,1669848298598,1359,HRV,HRV_0315,2022-11-30 22:46:51
106,"[{'imgObject': {}, 'id': 'kiwi', 'src': '/static/foodstim60/kiwi.jpg', 'key': 'u', 'origWidth': 410, 'origHeight': 410, 'width': 410, 'height': 410, 'widthPercent': 0.45, 'rescaleHeight': False, 'trialN': 106, 'loaded': True, 'loadedTime': 2451.300000000745, 'positionName': 'LEFT', 'positionCoords': [1241.2, 515], 'bid': 3.98}, {'imgObject': {}, 'id': 'cheerios', 'src': '/static/foodstim60/cheerios.jpg', 'key': 'i', 'origWidth': 409, 'origHeight': 410, 'width': 409, 'height': 410, 'widthPercent': 0.45, 'rescaleHeight': False, 'trialN': 106, 'loaded': True, 'loadedTime': 2212.699999999255, 'positionName': 'RIGHT', 'positionCoords': [1788.8, 515], 'bid': 3.68}]",180096.6000000015,1669848298598,kiwi,cheerios,3.98,3.68,-0.2999999999999998,cheerios,1131.199999999255,1132,1131.3999999985099,True,i,181729.0,1632.3999999985099,1669848300231,1633,HRV,HRV_0315,2022-11-30 22:46:51
107,"[{'imgObject': {}, 'id': 'lox', 'src': '/static/foodstim60/lox.jpg', 'key': 'u', 'origWidth': 410, 'origHeight': 411, 'width': 410, 'height': 411, 'widthPercent': 0.45, 'rescaleHeight': False, 'trialN': 107, 'loaded': True, 'loadedTime': 2086.699999999255, 'positionName': 'LEFT', 'positionCoords': [1241.2, 514.5], 'bid': 3.0500000000000003}, {'imgObject': {}, 'id': 'sweetpotato', 'src': '/static/foodstim60/sweetpotato.jpg', 'key': 'i', 'origWidth': 410, 'origHeight': 410, 'width': 410, 'height': 410, 'widthPercent': 0.45, 'rescaleHeight': False, 'trialN': 107, 'loaded': True, 'loadedTime': 2684.400000002235, 'positionName': 'RIGHT', 'positionCoords': [1788.8, 515], 'bid': 5.04}]",181729.1000000015,1669848300231,lox,sweetpotato,3.0500000000000003,5.04,1.9899999999999998,sweetpotato,866.5,867,866.5999999977648,True,i,183097.1000000015,1368.0,1669848301599,1368,HRV,HRV_0315,2022-11-30 22:46:51
108,"[{'imgObject': {}, 'id': 'kiwi', 'src': '/static/foodstim60/kiwi.jpg', 'key': 'u', 'origWidth': 410, 'origHeight': 410, 'width': 410, 'height': 410, 'widthPercent': 0.45, 'rescaleHeight': False, 'trialN': 108, 'loaded': True, 'loadedTime': 2451.800000000745, 'positionName': 'LEFT', 'positionCoords': [1241.2, 515], 'bid': 3.98}, {'imgObject': {}, 'id': 'bagel plain', 'src': '/static/foodstim60/bagel plain.jpg', 'key': 'i', 'origWidth': 410, 'origHeight': 410, 'width': 410, 'height': 410, 'widthPercent': 0.45, 'rescaleHeight': False, 'trialN': 108, 'loaded': True, 'loadedTime': 2157.900000002235, 'positionName': 'RIGHT', 'positionCoords': [1788.8, 515], 'bid': 1.88}]",183097.19999999925,1669848301599,kiwi,bagel plain,3.98,1.88,-2.1,kiwi,969.3000000007451,969,969.4000000022352,True,u,184568.80000000075,1471.6000000014901,1669848303071,1472,HRV,HRV_0315,2022-11-30 22:46:51
