trialN,stimuli,question,trialStartTime,trialStartTime_UNIX,stimulus1,rt,receivedResponse,rating,trialEndTime,trialDuration,stimulus1Loaded,exp,subjectId,date
0,"[{'imgObject': {}, 'id': 'salmon', 'src': '/static/foodstim60/salmon.jpg', 'key': 'NaN', 'origWidth': 410, 'origHeight': 409, 'width': 410, 'height': 409, 'widthPercent': 0.8, 'rescaleHeight': True, 'trialN': 0, 'loaded': True, 'loadedTime': 2172.10000000149, 'positionName': 'CENTER', 'positionCoords': [1515, 515.5]}]",Rate how much you want to eat this food from 0 (least) to 10 (most).,2959.0,1669847911555,salmon,3083.5,True,2.4,6042.5,3083.5,True,HRV,HRV_0315,2022-11-30 22:40:02
1,"[{'imgObject': {}, 'id': 'raisin bran w milk', 'src': '/static/foodstim60/raisin bran w milk.jpg', 'key': 'NaN', 'origWidth': 411, 'origHeight': 411, 'width': 411, 'height': 411, 'widthPercent': 0.8, 'rescaleHeight': True, 'trialN': 1, 'loaded': True, 'loadedTime': 2169.199999999255, 'positionName': 'CENTER', 'positionCoords': [1514.5, 514.5]}]",Rate how much you want to eat this food from 0 (least) to 10 (most).,6043.699999999255,1669847914640,raisin bran w milk,1240.800000000745,True,4.11,7284.5,1240.800000000745,True,HRV,HRV_0315,2022-11-30 22:40:02
2,"[{'imgObject': {}, 'id': 'cherries', 'src': '/static/foodstim60/cherries.jpg', 'key': 'NaN', 'origWidth': 410, 'origHeight': 411, 'width': 410, 'height': 411, 'widthPercent': 0.8, 'rescaleHeight': True, 'trialN': 2, 'loaded': True, 'loadedTime': 2165.300000000745, 'positionName': 'CENTER', 'positionCoords': [1515, 514.5]}]",Rate how much you want to eat this food from 0 (least) to 10 (most).,7285.10000000149,1669847915881,cherries,1265.2999999970198,True,5.75,8550.39999999851,1265.2999999970198,True,HRV,HRV_0315,2022-11-30 22:40:02
3,"[{'imgObject': {}, 'id': 'pear', 'src': '/static/foodstim60/pear.jpg', 'key': 'NaN', 'origWidth': 411, 'origHeight': 410, 'width': 411, 'height': 410, 'widthPercent': 0.8, 'rescaleHeight': True, 'trialN': 3, 'loaded': True, 'loadedTime': 2170.300000000745, 'positionName': 'CENTER', 'positionCoords': [1514.5, 515]}]",Rate how much you want to eat this food from 0 (least) to 10 (most).,8551.0,1669847917147,pear,1100.3999999985099,True,6.43,9651.39999999851,1100.3999999985099,True,HRV,HRV_0315,2022-11-30 22:40:02
4,"[{'imgObject': {}, 'id': 'Tribe humus pita', 'src': '/static/foodstim60/Tribe humus pita.jpg', 'key': 'NaN', 'origWidth': 411, 'origHeight': 411, 'width': 411, 'height': 411, 'widthPercent': 0.8, 'rescaleHeight': True, 'trialN': 4, 'loaded': True, 'loadedTime': 2168, 'positionName': 'CENTER', 'positionCoords': [1514.5, 514.5]}]",Rate how much you want to eat this food from 0 (least) to 10 (most).,9652.10000000149,1669847918248,Tribe humus pita,1998.2999999970198,True,7.91,11650.39999999851,1998.2999999970198,True,HRV,HRV_0315,2022-11-30 22:40:02
5,"[{'imgObject': {}, 'id': 'grilled chicken strips', 'src': '/static/foodstim60/grilled chicken strips.jpg', 'key': 'NaN', 'origWidth': 410, 'origHeight': 411, 'width': 410, 'height': 411, 'widthPercent': 0.8, 'rescaleHeight': True, 'trialN': 5, 'loaded': True, 'loadedTime': 2170.699999999255, 'positionName': 'CENTER', 'positionCoords': [1515, 514.5]}]",Rate how much you want to eat this food from 0 (least) to 10 (most).,11651.0,1669847920247,grilled chicken strips,1169.6000000014901,True,6.68,12820.60000000149,1169.6000000014901,True,HRV,HRV_0315,2022-11-30 22:40:02
6,"[{'imgObject': {}, 'id': 'avocado', 'src': '/static/foodstim60/avocado.jpg', 'key': 'NaN', 'origWidth': 409, 'origHeight': 409, 'width': 409, 'height': 409, 'widthPercent': 0.8, 'rescaleHeight': True, 'trialN': 6, 'loaded': True, 'loadedTime': 2251.60000000149, 'positionName': 'CENTER', 'positionCoords': [1515.5, 515.5]}]",Rate how much you want to eat this food from 0 (least) to 10 (most).,12821.300000000745,1669847921417,avocado,1339.0999999977648,True,3.04,14160.39999999851,1339.0999999977648,True,HRV,HRV_0315,2022-11-30 22:40:02
7,"[{'imgObject': {}, 'id': 'salad w chicken', 'src': '/static/foodstim60/salad w chicken.jpg', 'key': 'NaN', 'origWidth': 411, 'origHeight': 411, 'width': 411, 'height': 411, 'widthPercent': 0.8, 'rescaleHeight': True, 'trialN': 7, 'loaded': True, 'loadedTime': 2317.10000000149, 'positionName': 'CENTER', 'positionCoords': [1514.5, 514.5]}]",Rate how much you want to eat this food from 0 (least) to 10 (most).,14161.0,1669847922757,salad w chicken,2123.300000000745,True,8.43,16284.300000000745,2123.300000000745,True,HRV,HRV_0315,2022-11-30 22:40:02
8,"[{'imgObject': {}, 'id': 'edamame', 'src': '/static/foodstim60/edamame.jpg', 'key': 'NaN', 'origWidth': 409, 'origHeight': 410, 'width': 409, 'height': 410, 'widthPercent': 0.8, 'rescaleHeight': True, 'trialN': 8, 'loaded': True, 'loadedTime': 2316.39999999851, 'positionName': 'CENTER', 'positionCoords': [1515.5, 515]}]",Rate how much you want to eat this food from 0 (least) to 10 (most).,16285.0,1669847924881,edamame,1647.199999999255,True,4.33,17932.199999999255,1647.199999999255,True,HRV,HRV_0315,2022-11-30 22:40:02
9,"[{'imgObject': {}, 'id': 'tacos', 'src': '/static/foodstim60/tacos.jpg', 'key': 'NaN', 'origWidth': 411, 'origHeight': 411, 'width': 411, 'height': 411, 'widthPercent': 0.8, 'rescaleHeight': True, 'trialN': 9, 'loaded': True, 'loadedTime': 2254.199999999255, 'positionName': 'CENTER', 'positionCoords': [1514.5, 514.5]}]",Rate how much you want to eat this food from 0 (least) to 10 (most).,17932.800000000745,1669847926529,tacos,1162.5,True,7.58,19095.300000000745,1162.5,True,HRV,HRV_0315,2022-11-30 22:40:02
10,"[{'imgObject': {}, 'id': 'cherry tomato', 'src': '/static/foodstim60/cherry tomato.jpg', 'key': 'NaN', 'origWidth': 410, 'origHeight': 410, 'width': 410, 'height': 410, 'widthPercent': 0.8, 'rescaleHeight': True, 'trialN': 10, 'loaded': True, 'loadedTime': 2252.5, 'positionName': 'CENTER', 'positionCoords': [1515, 515]}]",Rate how much you want to eat this food from 0 (least) to 10 (most).,19096.199999999255,1669847927692,cherry tomato,2342.10000000149,True,6.390000000000001,21438.300000000745,2342.10000000149,True,HRV,HRV_0315,2022-11-30 22:40:02
11,"[{'imgObject': {}, 'id': 'burger', 'src': '/static/foodstim60/burger.jpg', 'key': 'NaN', 'origWidth': 409, 'origHeight': 409, 'width': 409, 'height': 409, 'widthPercent': 0.8, 'rescaleHeight': True, 'trialN': 11, 'loaded': True, 'loadedTime': 2255.39999999851, 'positionName': 'CENTER', 'positionCoords': [1515.5, 515.5]}]",Rate how much you want to eat this food from 0 (least) to 10 (most).,21439.10000000149,1669847930035,burger,1573.0,True,4.08,23012.10000000149,1573.0,True,HRV,HRV_0315,2022-11-30 22:40:02
12,"[{'imgObject': {}, 'id': 'blackbeanswithrice', 'src': '/static/foodstim60/blackbeanswithrice.jpg', 'key': 'NaN', 'origWidth': 410, 'origHeight': 410, 'width': 410, 'height': 410, 'widthPercent': 0.8, 'rescaleHeight': True, 'trialN': 12, 'loaded': True, 'loadedTime': 2333.89999999851, 'positionName': 'CENTER', 'positionCoords': [1515, 515]}]",Rate how much you want to eat this food from 0 (least) to 10 (most).,23012.800000000745,1669847931609,blackbeanswithrice,1336.300000000745,True,2.84,24349.10000000149,1336.300000000745,True,HRV,HRV_0315,2022-11-30 22:40:02
13,"[{'imgObject': {}, 'id': 'veggieswithdip', 'src': '/static/foodstim60/veggieswithdip.jpg', 'key': 'NaN', 'origWidth': 409, 'origHeight': 409, 'width': 409, 'height': 409, 'widthPercent': 0.8, 'rescaleHeight': True, 'trialN': 13, 'loaded': True, 'loadedTime': 2334.60000000149, 'positionName': 'CENTER', 'positionCoords': [1515.5, 515.5]}]",Rate how much you want to eat this food from 0 (least) to 10 (most).,24350.0,1669847932946,veggieswithdip,1307.1000000014901,True,6.98,25657.10000000149,1307.1000000014901,True,HRV,HRV_0315,2022-11-30 22:40:02
14,"[{'imgObject': {}, 'id': 'eggs', 'src': '/static/foodstim60/eggs.jpg', 'key': 'NaN', 'origWidth': 409, 'origHeight': 409, 'width': 409, 'height': 409, 'widthPercent': 0.8, 'rescaleHeight': True, 'trialN': 14, 'loaded': True, 'loadedTime': 2352.699999999255, 'positionName': 'CENTER', 'positionCoords': [1515.5, 515.5]}]",Rate how much you want to eat this food from 0 (least) to 10 (most).,25657.89999999851,1669847934254,eggs,1283.2000000029802,True,5.61,26941.10000000149,1283.2000000029802,True,HRV,HRV_0315,2022-11-30 22:40:02
15,"[{'imgObject': {}, 'id': 'luckycharms', 'src': '/static/foodstim60/luckycharms.jpg', 'key': 'NaN', 'origWidth': 410, 'origHeight': 409, 'width': 410, 'height': 409, 'widthPercent': 0.8, 'rescaleHeight': True, 'trialN': 15, 'loaded': True, 'loadedTime': 2357.800000000745, 'positionName': 'CENTER', 'positionCoords': [1515, 515.5]}]",Rate how much you want to eat this food from 0 (least) to 10 (most).,26941.89999999851,1669847935538,luckycharms,1372.2000000029802,True,4.18,28314.10000000149,1372.2000000029802,True,HRV,HRV_0315,2022-11-30 22:40:02
16,"[{'imgObject': {}, 'id': 'apple slices', 'src': '/static/foodstim60/apple slices.jpg', 'key': 'NaN', 'origWidth': 409, 'origHeight': 410, 'width': 409, 'height': 410, 'widthPercent': 0.8, 'rescaleHeight': True, 'trialN': 16, 'loaded': True, 'loadedTime': 2395.10000000149, 'positionName': 'CENTER', 'positionCoords': [1515.5, 515]}]",Rate how much you want to eat this food from 0 (least) to 10 (most).,28314.89999999851,1669847936911,apple slices,1459.9000000022352,True,6.9,29774.800000000745,1459.9000000022352,True,HRV,HRV_0315,2022-11-30 22:40:02
17,"[{'imgObject': {}, 'id': 'yogurt no spoon', 'src': '/static/foodstim60/yogurt no spoon.jpg', 'key': 'NaN', 'origWidth': 411, 'origHeight': 410, 'width': 411, 'height': 410, 'widthPercent': 0.8, 'rescaleHeight': True, 'trialN': 17, 'loaded': True, 'loadedTime': 2393.800000000745, 'positionName': 'CENTER', 'positionCoords': [1514.5, 515]}]",Rate how much you want to eat this food from 0 (least) to 10 (most).,29775.5,1669847938372,yogurt no spoon,1417.3999999985099,True,8.24,31192.89999999851,1417.3999999985099,True,HRV,HRV_0315,2022-11-30 22:40:02
18,"[{'imgObject': {}, 'id': 'fruitsalad', 'src': '/static/foodstim60/fruitsalad.jpg', 'key': 'NaN', 'origWidth': 410, 'origHeight': 410, 'width': 410, 'height': 410, 'widthPercent': 0.8, 'rescaleHeight': True, 'trialN': 18, 'loaded': True, 'loadedTime': 2413, 'positionName': 'CENTER', 'positionCoords': [1515, 515]}]",Rate how much you want to eat this food from 0 (least) to 10 (most).,31193.60000000149,1669847939790,fruitsalad,999.0999999977648,True,7.5600000000000005,32192.699999999255,999.0999999977648,True,HRV,HRV_0315,2022-11-30 22:40:02
19,"[{'imgObject': {}, 'id': 'burrito', 'src': '/static/foodstim60/burrito.jpg', 'key': 'NaN', 'origWidth': 410, 'origHeight': 410, 'width': 410, 'height': 410, 'widthPercent': 0.8, 'rescaleHeight': True, 'trialN': 19, 'loaded': True, 'loadedTime': 2413.800000000745, 'positionName': 'CENTER', 'positionCoords': [1515, 515]}]",Rate how much you want to eat this food from 0 (least) to 10 (most).,32193.300000000745,1669847940789,burrito,1545.699999999255,True,5.62,33739.0,1545.699999999255,True,HRV,HRV_0315,2022-11-30 22:40:02
20,"[{'imgObject': {}, 'id': 'cheerios', 'src': '/static/foodstim60/cheerios.jpg', 'key': 'NaN', 'origWidth': 409, 'origHeight': 410, 'width': 409, 'height': 410, 'widthPercent': 0.8, 'rescaleHeight': True, 'trialN': 20, 'loaded': True, 'loadedTime': 2431.10000000149, 'positionName': 'CENTER', 'positionCoords': [1515.5, 515]}]",Rate how much you want to eat this food from 0 (least) to 10 (most).,33739.699999999255,1669847942336,cheerios,1383.0,True,5.62,35122.699999999255,1383.0,True,HRV,HRV_0315,2022-11-30 22:40:02
21,"[{'imgObject': {}, 'id': 'rigatoni and sauce', 'src': '/static/foodstim60/rigatoni and sauce.jpg', 'key': 'NaN', 'origWidth': 410, 'origHeight': 411, 'width': 410, 'height': 411, 'widthPercent': 0.8, 'rescaleHeight': True, 'trialN': 21, 'loaded': True, 'loadedTime': 2436.199999999255, 'positionName': 'CENTER', 'positionCoords': [1515, 514.5]}]",Rate how much you want to eat this food from 0 (least) to 10 (most).,35123.300000000745,1669847943719,rigatoni and sauce,2126.300000000745,True,4.16,37249.60000000149,2126.300000000745,True,HRV,HRV_0315,2022-11-30 22:40:02
22,"[{'imgObject': {}, 'id': 'blueberries', 'src': '/static/foodstim60/blueberries.jpg', 'key': 'NaN', 'origWidth': 411, 'origHeight': 411, 'width': 411, 'height': 411, 'widthPercent': 0.8, 'rescaleHeight': True, 'trialN': 22, 'loaded': True, 'loadedTime': 2467.300000000745, 'positionName': 'CENTER', 'positionCoords': [1514.5, 514.5]}]",Rate how much you want to eat this food from 0 (least) to 10 (most).,37250.199999999255,1669847945846,blueberries,1352.4000000022352,True,7.94,38602.60000000149,1352.4000000022352,True,HRV,HRV_0315,2022-11-30 22:40:02
23,"[{'imgObject': {}, 'id': 'strawberries', 'src': '/static/foodstim60/strawberries.jpg', 'key': 'NaN', 'origWidth': 410, 'origHeight': 410, 'width': 410, 'height': 410, 'widthPercent': 0.8, 'rescaleHeight': True, 'trialN': 23, 'loaded': True, 'loadedTime': 2472.800000000745, 'positionName': 'CENTER', 'positionCoords': [1515, 515]}]",Rate how much you want to eat this food from 0 (least) to 10 (most).,38603.199999999255,1669847947199,strawberries,1210.6000000014901,True,8.78,39813.800000000745,1210.6000000014901,True,HRV,HRV_0315,2022-11-30 22:40:02
24,"[{'imgObject': {}, 'id': 'chickenfingers', 'src': '/static/foodstim60/chickenfingers.jpg', 'key': 'NaN', 'origWidth': 410, 'origHeight': 410, 'width': 410, 'height': 410, 'widthPercent': 0.8, 'rescaleHeight': True, 'trialN': 24, 'loaded': True, 'loadedTime': 2493.800000000745, 'positionName': 'CENTER', 'positionCoords': [1515, 515]}]",Rate how much you want to eat this food from 0 (least) to 10 (most).,39814.39999999851,1669847948410,chickenfingers,1361.2000000029802,True,5.66,41175.60000000149,1361.2000000029802,True,HRV,HRV_0315,2022-11-30 22:40:02
25,"[{'imgObject': {}, 'id': 'mashed potato', 'src': '/static/foodstim60/mashed potato.jpg', 'key': 'NaN', 'origWidth': 409, 'origHeight': 409, 'width': 409, 'height': 409, 'widthPercent': 0.8, 'rescaleHeight': True, 'trialN': 25, 'loaded': True, 'loadedTime': 2488.10000000149, 'positionName': 'CENTER', 'positionCoords': [1515.5, 515.5]}]",Rate how much you want to eat this food from 0 (least) to 10 (most).,41176.5,1669847949772,mashed potato,1474.8999999985099,True,3.48,42651.39999999851,1474.8999999985099,True,HRV,HRV_0315,2022-11-30 22:40:02
26,"[{'imgObject': {}, 'id': 'sushi w_condiments', 'src': '/static/foodstim60/sushi w_condiments.jpg', 'key': 'NaN', 'origWidth': 410, 'origHeight': 410, 'width': 410, 'height': 410, 'widthPercent': 0.8, 'rescaleHeight': True, 'trialN': 26, 'loaded': True, 'loadedTime': 2527.39999999851, 'positionName': 'CENTER', 'positionCoords': [1515, 515]}]",Rate how much you want to eat this food from 0 (least) to 10 (most).,42652.10000000149,1669847951248,sushi w_condiments,1216.2999999970198,True,9.22,43868.39999999851,1216.2999999970198,True,HRV,HRV_0315,2022-11-30 22:40:02
27,"[{'imgObject': {}, 'id': 'lox', 'src': '/static/foodstim60/lox.jpg', 'key': 'NaN', 'origWidth': 410, 'origHeight': 411, 'width': 410, 'height': 411, 'widthPercent': 0.8, 'rescaleHeight': True, 'trialN': 27, 'loaded': True, 'loadedTime': 2508.39999999851, 'positionName': 'CENTER', 'positionCoords': [1515, 514.5]}]",Rate how much you want to eat this food from 0 (least) to 10 (most).,43869.10000000149,1669847952465,lox,1747.2999999970198,True,2.36,45616.39999999851,1747.2999999970198,True,HRV,HRV_0315,2022-11-30 22:40:02
28,"[{'imgObject': {}, 'id': 'bagel and cc', 'src': '/static/foodstim60/bagel and cc.jpg', 'key': 'NaN', 'origWidth': 410, 'origHeight': 410, 'width': 410, 'height': 410, 'widthPercent': 0.8, 'rescaleHeight': True, 'trialN': 28, 'loaded': True, 'loadedTime': 2542.800000000745, 'positionName': 'CENTER', 'positionCoords': [1515, 515]}]",Rate how much you want to eat this food from 0 (least) to 10 (most).,45617.10000000149,1669847954213,bagel and cc,1333.2999999970198,True,2.08,46950.39999999851,1333.2999999970198,True,HRV,HRV_0315,2022-11-30 22:40:02
29,"[{'imgObject': {}, 'id': 'kiwi', 'src': '/static/foodstim60/kiwi.jpg', 'key': 'NaN', 'origWidth': 410, 'origHeight': 410, 'width': 410, 'height': 410, 'widthPercent': 0.8, 'rescaleHeight': True, 'trialN': 29, 'loaded': True, 'loadedTime': 2558.800000000745, 'positionName': 'CENTER', 'positionCoords': [1515, 515]}]",Rate how much you want to eat this food from 0 (least) to 10 (most).,46951.10000000149,1669847955547,kiwi,1375.199999999255,True,3.88,48326.300000000745,1375.199999999255,True,HRV,HRV_0315,2022-11-30 22:40:02
30,"[{'imgObject': {}, 'id': 'bagel plain', 'src': '/static/foodstim60/bagel plain.jpg', 'key': 'NaN', 'origWidth': 410, 'origHeight': 410, 'width': 410, 'height': 410, 'widthPercent': 0.8, 'rescaleHeight': True, 'trialN': 30, 'loaded': True, 'loadedTime': 2565.60000000149, 'positionName': 'CENTER', 'positionCoords': [1515, 515]}]",Rate how much you want to eat this food from 0 (least) to 10 (most).,48326.89999999851,1669847956923,bagel plain,1068.4000000022352,True,2.5,49395.300000000745,1068.4000000022352,True,HRV,HRV_0315,2022-11-30 22:40:02
31,"[{'imgObject': {}, 'id': 'granola w milk', 'src': '/static/foodstim60/granola w milk.jpg', 'key': 'NaN', 'origWidth': 410, 'origHeight': 410, 'width': 410, 'height': 410, 'widthPercent': 0.8, 'rescaleHeight': True, 'trialN': 31, 'loaded': True, 'loadedTime': 2580.60000000149, 'positionName': 'CENTER', 'positionCoords': [1515, 515]}]",Rate how much you want to eat this food from 0 (least) to 10 (most).,49395.89999999851,1669847957992,granola w milk,1456.4000000022352,True,5.9,50852.300000000745,1456.4000000022352,True,HRV,HRV_0315,2022-11-30 22:40:02
32,"[{'imgObject': {}, 'id': 'seaweed', 'src': '/static/foodstim60/seaweed.jpg', 'key': 'NaN', 'origWidth': 410, 'origHeight': 410, 'width': 410, 'height': 410, 'widthPercent': 0.8, 'rescaleHeight': True, 'trialN': 32, 'loaded': True, 'loadedTime': 2581.300000000745, 'positionName': 'CENTER', 'positionCoords': [1515, 515]}]",Rate how much you want to eat this food from 0 (least) to 10 (most).,50852.89999999851,1669847959449,seaweed,2513.300000000745,True,6.37,53366.199999999255,2513.300000000745,True,HRV,HRV_0315,2022-11-30 22:40:02
33,"[{'imgObject': {}, 'id': 'mango', 'src': '/static/foodstim60/mango.jpg', 'key': 'NaN', 'origWidth': 411, 'origHeight': 411, 'width': 411, 'height': 411, 'widthPercent': 0.8, 'rescaleHeight': True, 'trialN': 33, 'loaded': True, 'loadedTime': 2599.10000000149, 'positionName': 'CENTER', 'positionCoords': [1514.5, 514.5]}]",Rate how much you want to eat this food from 0 (least) to 10 (most).,53366.800000000745,1669847961963,mango,2790.300000000745,True,7.63,56157.10000000149,2790.300000000745,True,HRV,HRV_0315,2022-11-30 22:40:02
34,"[{'imgObject': {}, 'id': 'raspberries', 'src': '/static/foodstim60/raspberries.jpg', 'key': 'NaN', 'origWidth': 411, 'origHeight': 411, 'width': 411, 'height': 411, 'widthPercent': 0.8, 'rescaleHeight': True, 'trialN': 34, 'loaded': True, 'loadedTime': 2616, 'positionName': 'CENTER', 'positionCoords': [1514.5, 514.5]}]",Rate how much you want to eat this food from 0 (least) to 10 (most).,56157.800000000745,1669847964753,raspberries,1195.5,True,7.74,57353.300000000745,1195.5,True,HRV,HRV_0315,2022-11-30 22:40:02
35,"[{'imgObject': {}, 'id': 'chicken nuggets2', 'src': '/static/foodstim60/chicken nuggets2.jpg', 'key': 'NaN', 'origWidth': 410, 'origHeight': 409, 'width': 410, 'height': 409, 'widthPercent': 0.8, 'rescaleHeight': True, 'trialN': 35, 'loaded': True, 'loadedTime': 2637.699999999255, 'positionName': 'CENTER', 'positionCoords': [1515, 515.5]}]",Rate how much you want to eat this food from 0 (least) to 10 (most).,57354.0,1669847965950,chicken nuggets2,1442.199999999255,True,5.43,58796.199999999255,1442.199999999255,True,HRV,HRV_0315,2022-11-30 22:40:02
36,"[{'imgObject': {}, 'id': 'ice cream sundae 002', 'src': '/static/foodstim60/ice cream sundae 002.jpg', 'key': 'NaN', 'origWidth': 409, 'origHeight': 409, 'width': 409, 'height': 409, 'widthPercent': 0.8, 'rescaleHeight': True, 'trialN': 36, 'loaded': True, 'loadedTime': 2642, 'positionName': 'CENTER', 'positionCoords': [1515.5, 515.5]}]",Rate how much you want to eat this food from 0 (least) to 10 (most).,58796.89999999851,1669847967393,ice cream sundae 002,1777.2000000029802,True,3.94,60574.10000000149,1777.2000000029802,True,HRV,HRV_0315,2022-11-30 22:40:02
37,"[{'imgObject': {}, 'id': 'banana', 'src': '/static/foodstim60/banana.jpg', 'key': 'NaN', 'origWidth': 410, 'origHeight': 410, 'width': 410, 'height': 410, 'widthPercent': 0.8, 'rescaleHeight': True, 'trialN': 37, 'loaded': True, 'loadedTime': 2657.5, 'positionName': 'CENTER', 'positionCoords': [1515, 515]}]",Rate how much you want to eat this food from 0 (least) to 10 (most).,60574.699999999255,1669847969171,banana,1549.4000000022352,True,4.97,62124.10000000149,1549.4000000022352,True,HRV,HRV_0315,2022-11-30 22:40:02
38,"[{'imgObject': {}, 'id': 'fried eggs', 'src': '/static/foodstim60/fried eggs.jpg', 'key': 'NaN', 'origWidth': 410, 'origHeight': 410, 'width': 410, 'height': 410, 'widthPercent': 0.8, 'rescaleHeight': True, 'trialN': 38, 'loaded': True, 'loadedTime': 2656.89999999851, 'positionName': 'CENTER', 'positionCoords': [1515, 515]}]",Rate how much you want to eat this food from 0 (least) to 10 (most).,62124.800000000745,1669847970721,fried eggs,1200.300000000745,True,7.29,63325.10000000149,1200.300000000745,True,HRV,HRV_0315,2022-11-30 22:40:02
39,"[{'imgObject': {}, 'id': 'mac & cheese', 'src': '/static/foodstim60/mac & cheese.jpg', 'key': 'NaN', 'origWidth': 410, 'origHeight': 410, 'width': 410, 'height': 410, 'widthPercent': 0.8, 'rescaleHeight': True, 'trialN': 39, 'loaded': True, 'loadedTime': 2676.10000000149, 'positionName': 'CENTER', 'positionCoords': [1515, 515]}]",Rate how much you want to eat this food from 0 (least) to 10 (most).,63325.60000000149,1669847971921,mac & cheese,1310.5,True,3.62,64636.10000000149,1310.5,True,HRV,HRV_0315,2022-11-30 22:40:02
40,"[{'imgObject': {}, 'id': 'omelette', 'src': '/static/foodstim60/omelette.jpg', 'key': 'NaN', 'origWidth': 410, 'origHeight': 409, 'width': 410, 'height': 409, 'widthPercent': 0.8, 'rescaleHeight': True, 'trialN': 40, 'loaded': True, 'loadedTime': 2694.89999999851, 'positionName': 'CENTER', 'positionCoords': [1515, 515.5]}]",Rate how much you want to eat this food from 0 (least) to 10 (most).,64636.89999999851,1669847973233,omelette,1933.1000000014901,True,5.0,66570.0,1933.1000000014901,True,HRV,HRV_0315,2022-11-30 22:40:02
41,"[{'imgObject': {}, 'id': 'sweetpotato', 'src': '/static/foodstim60/sweetpotato.jpg', 'key': 'NaN', 'origWidth': 410, 'origHeight': 410, 'width': 410, 'height': 410, 'widthPercent': 0.8, 'rescaleHeight': True, 'trialN': 41, 'loaded': True, 'loadedTime': 2709, 'positionName': 'CENTER', 'positionCoords': [1515, 515]}]",Rate how much you want to eat this food from 0 (least) to 10 (most).,66570.60000000149,1669847975166,sweetpotato,2003.2999999970198,True,3.89,68573.89999999851,2003.2999999970198,True,HRV,HRV_0315,2022-11-30 22:40:02
42,"[{'imgObject': {}, 'id': 'roastedpotatoes', 'src': '/static/foodstim60/roastedpotatoes.jpg', 'key': 'NaN', 'origWidth': 409, 'origHeight': 410, 'width': 409, 'height': 410, 'widthPercent': 0.8, 'rescaleHeight': True, 'trialN': 42, 'loaded': True, 'loadedTime': 2728.60000000149, 'positionName': 'CENTER', 'positionCoords': [1515.5, 515]}]",Rate how much you want to eat this food from 0 (least) to 10 (most).,68574.60000000149,1669847977170,roastedpotatoes,1254.3999999985099,True,5.0600000000000005,69829.0,1254.3999999985099,True,HRV,HRV_0315,2022-11-30 22:40:02
43,"[{'imgObject': {}, 'id': 'Grapes', 'src': '/static/foodstim60/Grapes.jpg', 'key': 'NaN', 'origWidth': 411, 'origHeight': 411, 'width': 411, 'height': 411, 'widthPercent': 0.8, 'rescaleHeight': True, 'trialN': 43, 'loaded': True, 'loadedTime': 2727, 'positionName': 'CENTER', 'positionCoords': [1514.5, 514.5]}]",Rate how much you want to eat this food from 0 (least) to 10 (most).,69829.69999999925,1669847978425,Grapes,1262.1000000014901,True,6.22,71091.80000000075,1262.1000000014901,True,HRV,HRV_0315,2022-11-30 22:40:02
44,"[{'imgObject': {}, 'id': 'baked potato', 'src': '/static/foodstim60/baked potato.jpg', 'key': 'NaN', 'origWidth': 409, 'origHeight': 410, 'width': 409, 'height': 410, 'widthPercent': 0.8, 'rescaleHeight': True, 'trialN': 44, 'loaded': True, 'loadedTime': 2746, 'positionName': 'CENTER', 'positionCoords': [1515.5, 515]}]",Rate how much you want to eat this food from 0 (least) to 10 (most).,71092.39999999851,1669847979688,baked potato,2003.4000000022352,True,4.09,73095.80000000075,2003.4000000022352,True,HRV,HRV_0315,2022-11-30 22:40:02
45,"[{'imgObject': {}, 'id': 'hotdog w must', 'src': '/static/foodstim60/hotdog w must.jpg', 'key': 'NaN', 'origWidth': 409, 'origHeight': 409, 'width': 409, 'height': 409, 'widthPercent': 0.8, 'rescaleHeight': True, 'trialN': 45, 'loaded': True, 'loadedTime': 2746.60000000149, 'positionName': 'CENTER', 'positionCoords': [1515.5, 515.5]}]",Rate how much you want to eat this food from 0 (least) to 10 (most).,73096.5,1669847981692,hotdog w must,1534.3999999985099,True,3.0100000000000002,74630.89999999851,1534.3999999985099,True,HRV,HRV_0315,2022-11-30 22:40:02
46,"[{'imgObject': {}, 'id': 'eggsalad', 'src': '/static/foodstim60/eggsalad.jpg', 'key': 'NaN', 'origWidth': 410, 'origHeight': 409, 'width': 410, 'height': 409, 'widthPercent': 0.8, 'rescaleHeight': True, 'trialN': 46, 'loaded': True, 'loadedTime': 2767.39999999851, 'positionName': 'CENTER', 'positionCoords': [1515, 515.5]}]",Rate how much you want to eat this food from 0 (least) to 10 (most).,74631.60000000149,1669847983227,eggsalad,1576.0,True,5.5,76207.60000000149,1576.0,True,HRV,HRV_0315,2022-11-30 22:40:02
47,"[{'imgObject': {}, 'id': 'cocktailshrimp', 'src': '/static/foodstim60/cocktailshrimp.jpg', 'key': 'NaN', 'origWidth': 410, 'origHeight': 410, 'width': 410, 'height': 410, 'widthPercent': 0.8, 'rescaleHeight': True, 'trialN': 47, 'loaded': True, 'loadedTime': 2781.89999999851, 'positionName': 'CENTER', 'positionCoords': [1515, 515]}]",Rate how much you want to eat this food from 0 (least) to 10 (most).,76208.19999999925,1669847984804,cocktailshrimp,1366.4000000022352,True,4.18,77574.60000000149,1366.4000000022352,True,HRV,HRV_0315,2022-11-30 22:40:02
48,"[{'imgObject': {}, 'id': 'rigatoni', 'src': '/static/foodstim60/rigatoni.jpg', 'key': 'NaN', 'origWidth': 411, 'origHeight': 411, 'width': 411, 'height': 411, 'widthPercent': 0.8, 'rescaleHeight': True, 'trialN': 48, 'loaded': True, 'loadedTime': 2819.39999999851, 'positionName': 'CENTER', 'positionCoords': [1514.5, 514.5]}]",Rate how much you want to eat this food from 0 (least) to 10 (most).,77575.39999999851,1669847986171,rigatoni,1141.1000000014901,True,2.9,78716.5,1141.1000000014901,True,HRV,HRV_0315,2022-11-30 22:40:02
49,"[{'imgObject': {}, 'id': 'olives', 'src': '/static/foodstim60/olives.jpg', 'key': 'NaN', 'origWidth': 410, 'origHeight': 410, 'width': 410, 'height': 410, 'widthPercent': 0.8, 'rescaleHeight': True, 'trialN': 49, 'loaded': True, 'loadedTime': 2801.800000000745, 'positionName': 'CENTER', 'positionCoords': [1515, 515]}]",Rate how much you want to eat this food from 0 (least) to 10 (most).,78717.19999999925,1669847987313,olives,1410.199999999255,True,1.6,80127.39999999851,1410.199999999255,True,HRV,HRV_0315,2022-11-30 22:40:02
50,"[{'imgObject': {}, 'id': 'froot loops w milk', 'src': '/static/foodstim60/froot loops w milk.jpg', 'key': 'NaN', 'origWidth': 410, 'origHeight': 410, 'width': 410, 'height': 410, 'widthPercent': 0.8, 'rescaleHeight': True, 'trialN': 50, 'loaded': True, 'loadedTime': 2802.699999999255, 'positionName': 'CENTER', 'positionCoords': [1515, 515]}]",Rate how much you want to eat this food from 0 (least) to 10 (most).,80128.10000000149,1669847988724,froot loops w milk,1490.2999999970198,True,5.89,81618.39999999851,1490.2999999970198,True,HRV,HRV_0315,2022-11-30 22:40:02
51,"[{'imgObject': {}, 'id': 'hashbrowns', 'src': '/static/foodstim60/hashbrowns.jpg', 'key': 'NaN', 'origWidth': 411, 'origHeight': 410, 'width': 411, 'height': 410, 'widthPercent': 0.8, 'rescaleHeight': True, 'trialN': 51, 'loaded': True, 'loadedTime': 2822.60000000149, 'positionName': 'CENTER', 'positionCoords': [1514.5, 515]}]",Rate how much you want to eat this food from 0 (least) to 10 (most).,81619.19999999925,1669847990215,hashbrowns,1234.300000000745,True,4.38,82853.5,1234.300000000745,True,HRV,HRV_0315,2022-11-30 22:40:02
52,"[{'imgObject': {}, 'id': 'steak', 'src': '/static/foodstim60/steak.jpg', 'key': 'NaN', 'origWidth': 410, 'origHeight': 410, 'width': 410, 'height': 410, 'widthPercent': 0.8, 'rescaleHeight': True, 'trialN': 52, 'loaded': True, 'loadedTime': 2841.10000000149, 'positionName': 'CENTER', 'positionCoords': [1515, 515]}]",Rate how much you want to eat this food from 0 (least) to 10 (most).,82854.39999999851,1669847991450,steak,1195.1000000014901,True,7.45,84049.5,1195.1000000014901,True,HRV,HRV_0315,2022-11-30 22:40:02
53,"[{'imgObject': {}, 'id': 'popsicles', 'src': '/static/foodstim60/popsicles.jpg', 'key': 'NaN', 'origWidth': 410, 'origHeight': 410, 'width': 410, 'height': 410, 'widthPercent': 0.8, 'rescaleHeight': True, 'trialN': 53, 'loaded': True, 'loadedTime': 2857.699999999255, 'positionName': 'CENTER', 'positionCoords': [1515, 515]}]",Rate how much you want to eat this food from 0 (least) to 10 (most).,84050.0,1669847992646,popsicles,1257.300000000745,True,2.83,85307.30000000075,1257.300000000745,True,HRV,HRV_0315,2022-11-30 22:40:02
54,"[{'imgObject': {}, 'id': 'corn cob', 'src': '/static/foodstim60/corn cob.jpg', 'key': 'NaN', 'origWidth': 411, 'origHeight': 411, 'width': 411, 'height': 411, 'widthPercent': 0.8, 'rescaleHeight': True, 'trialN': 54, 'loaded': True, 'loadedTime': 2883.199999999255, 'positionName': 'CENTER', 'positionCoords': [1514.5, 514.5]}]",Rate how much you want to eat this food from 0 (least) to 10 (most).,85307.89999999851,1669847993904,corn cob,1925.4000000022352,True,2.02,87233.30000000075,1925.4000000022352,True,HRV,HRV_0315,2022-11-30 22:40:02
55,"[{'imgObject': {}, 'id': 'orange slices', 'src': '/static/foodstim60/orange slices.jpg', 'key': 'NaN', 'origWidth': 409, 'origHeight': 410, 'width': 409, 'height': 410, 'widthPercent': 0.8, 'rescaleHeight': True, 'trialN': 55, 'loaded': True, 'loadedTime': 2883.699999999255, 'positionName': 'CENTER', 'positionCoords': [1515.5, 515]}]",Rate how much you want to eat this food from 0 (least) to 10 (most).,87234.0,1669847995830,orange slices,1301.199999999255,True,7.5200000000000005,88535.19999999925,1301.199999999255,True,HRV,HRV_0315,2022-11-30 22:40:02
56,"[{'imgObject': {}, 'id': 'turkeysandwich', 'src': '/static/foodstim60/turkeysandwich.jpg', 'key': 'NaN', 'origWidth': 409, 'origHeight': 409, 'width': 409, 'height': 409, 'widthPercent': 0.8, 'rescaleHeight': True, 'trialN': 56, 'loaded': True, 'loadedTime': 2900.300000000745, 'positionName': 'CENTER', 'positionCoords': [1515.5, 515.5]}]",Rate how much you want to eat this food from 0 (least) to 10 (most).,88535.80000000075,1669847997132,turkeysandwich,1073.3999999985099,True,5.9,89609.19999999925,1073.3999999985099,True,HRV,HRV_0315,2022-11-30 22:40:02
57,"[{'imgObject': {}, 'id': 'turkey sandwich', 'src': '/static/foodstim60/turkey sandwich.jpg', 'key': 'NaN', 'origWidth': 409, 'origHeight': 409, 'width': 409, 'height': 409, 'widthPercent': 0.8, 'rescaleHeight': True, 'trialN': 57, 'loaded': True, 'loadedTime': 2899.60000000149, 'positionName': 'CENTER', 'positionCoords': [1515.5, 515.5]}]",Rate how much you want to eat this food from 0 (least) to 10 (most).,89609.69999999925,1669847998205,turkey sandwich,1426.4000000022352,True,6.98,91036.10000000149,1426.4000000022352,True,HRV,HRV_0315,2022-11-30 22:40:02
58,"[{'imgObject': {}, 'id': 'cantaloupe', 'src': '/static/foodstim60/cantaloupe.jpg', 'key': 'NaN', 'origWidth': 409, 'origHeight': 409, 'width': 409, 'height': 409, 'widthPercent': 0.8, 'rescaleHeight': True, 'trialN': 58, 'loaded': True, 'loadedTime': 2917.89999999851, 'positionName': 'CENTER', 'positionCoords': [1515.5, 515.5]}]",Rate how much you want to eat this food from 0 (least) to 10 (most).,91036.69999999925,1669847999632,cantaloupe,1173.4000000022352,True,4.36,92210.10000000149,1173.4000000022352,True,HRV,HRV_0315,2022-11-30 22:40:02
59,"[{'imgObject': {}, 'id': 'shreddedwheatwithmilk', 'src': '/static/foodstim60/shreddedwheatwithmilk.jpg', 'key': 'NaN', 'origWidth': 410, 'origHeight': 410, 'width': 410, 'height': 410, 'widthPercent': 0.8, 'rescaleHeight': True, 'trialN': 59, 'loaded': True, 'loadedTime': 2939.60000000149, 'positionName': 'CENTER', 'positionCoords': [1515, 515]}]",Rate how much you want to eat this food from 0 (least) to 10 (most).,92210.69999999925,1669848000806,shreddedwheatwithmilk,1535.300000000745,True,6.44,93746.0,1535.300000000745,True,HRV,HRV_0315,2022-11-30 22:40:02
