trialN,stimuli,question,trialStartTime,trialStartTime_UNIX,stimulus1,rt,receivedResponse,rating,trialEndTime,trialDuration,stimulus1Loaded,exp,subjectId,date
0,"[{'imgObject': {}, 'id': 'rigatoni and sauce', 'src': '/static/foodstim60/rigatoni and sauce.jpg', 'key': 'NaN', 'origWidth': 410, 'origHeight': 411, 'width': 410, 'height': 411, 'widthPercent': 0.8, 'rescaleHeight': True, 'trialN': 0, 'loaded': True, 'loadedTime': 1969.9000000022352, 'positionName': 'CENTER', 'positionCoords': [1515, 514.5]}]",Rate how much you want to eat this food from 0 (least) to 10 (most).,2126.10000000149,1669848011215,rigatoni and sauce,1699.0,True,3.44,3825.10000000149,1699.0,True,HRV,HRV_0315,2022-11-30 22:41:24
1,"[{'imgObject': {}, 'id': 'Tribe humus pita', 'src': '/static/foodstim60/Tribe humus pita.jpg', 'key': 'NaN', 'origWidth': 411, 'origHeight': 411, 'width': 411, 'height': 411, 'widthPercent': 0.8, 'rescaleHeight': True, 'trialN': 1, 'loaded': True, 'loadedTime': 1971.7000000029802, 'positionName': 'CENTER', 'positionCoords': [1514.5, 514.5]}]",Rate how much you want to eat this food from 0 (least) to 10 (most).,3826.300000000745,1669848012915,Tribe humus pita,1733.6000000014901,True,7.3500000000000005,5559.900000002235,1733.6000000014901,True,HRV,HRV_0315,2022-11-30 22:41:24
2,"[{'imgObject': {}, 'id': 'grilled chicken strips', 'src': '/static/foodstim60/grilled chicken strips.jpg', 'key': 'NaN', 'origWidth': 410, 'origHeight': 411, 'width': 410, 'height': 411, 'widthPercent': 0.8, 'rescaleHeight': True, 'trialN': 2, 'loaded': True, 'loadedTime': 1984.6000000014901, 'positionName': 'CENTER', 'positionCoords': [1515, 514.5]}]",Rate how much you want to eat this food from 0 (least) to 10 (most).,5560.70000000298,1669848014649,grilled chicken strips,1059.2999999970198,True,6.7,6620.0,1059.2999999970198,True,HRV,HRV_0315,2022-11-30 22:41:24
3,"[{'imgObject': {}, 'id': 'baked potato', 'src': '/static/foodstim60/baked potato.jpg', 'key': 'NaN', 'origWidth': 409, 'origHeight': 410, 'width': 409, 'height': 410, 'widthPercent': 0.8, 'rescaleHeight': True, 'trialN': 3, 'loaded': True, 'loadedTime': 1985.2000000029802, 'positionName': 'CENTER', 'positionCoords': [1515.5, 515]}]",Rate how much you want to eat this food from 0 (least) to 10 (most).,6620.70000000298,1669848015709,baked potato,1394.199999999255,True,4.3,8014.900000002235,1394.199999999255,True,HRV,HRV_0315,2022-11-30 22:41:24
4,"[{'imgObject': {}, 'id': 'salmon', 'src': '/static/foodstim60/salmon.jpg', 'key': 'NaN', 'origWidth': 410, 'origHeight': 409, 'width': 410, 'height': 409, 'widthPercent': 0.8, 'rescaleHeight': True, 'trialN': 4, 'loaded': True, 'loadedTime': 1996.6000000014901, 'positionName': 'CENTER', 'positionCoords': [1515, 515.5]}]",Rate how much you want to eat this food from 0 (least) to 10 (most).,8015.5,1669848017104,salmon,1271.300000000745,True,2.37,9286.800000000745,1271.300000000745,True,HRV,HRV_0315,2022-11-30 22:41:24
5,"[{'imgObject': {}, 'id': 'banana', 'src': '/static/foodstim60/banana.jpg', 'key': 'NaN', 'origWidth': 410, 'origHeight': 410, 'width': 410, 'height': 410, 'widthPercent': 0.8, 'rescaleHeight': True, 'trialN': 5, 'loaded': True, 'loadedTime': 1997.300000000745, 'positionName': 'CENTER', 'positionCoords': [1515, 515]}]",Rate how much you want to eat this food from 0 (least) to 10 (most).,9287.5,1669848018376,banana,1309.300000000745,True,5.26,10596.800000000745,1309.300000000745,True,HRV,HRV_0315,2022-11-30 22:41:24
6,"[{'imgObject': {}, 'id': 'shreddedwheatwithmilk', 'src': '/static/foodstim60/shreddedwheatwithmilk.jpg', 'key': 'NaN', 'origWidth': 410, 'origHeight': 410, 'width': 410, 'height': 410, 'widthPercent': 0.8, 'rescaleHeight': True, 'trialN': 6, 'loaded': True, 'loadedTime': 2007.6000000014901, 'positionName': 'CENTER', 'positionCoords': [1515, 515]}]",Rate how much you want to eat this food from 0 (least) to 10 (most).,10597.60000000149,1669848019686,shreddedwheatwithmilk,961.1999999992549,True,5.87,11558.800000000745,961.1999999992549,True,HRV,HRV_0315,2022-11-30 22:41:24
7,"[{'imgObject': {}, 'id': 'blackbeanswithrice', 'src': '/static/foodstim60/blackbeanswithrice.jpg', 'key': 'NaN', 'origWidth': 410, 'origHeight': 410, 'width': 410, 'height': 410, 'widthPercent': 0.8, 'rescaleHeight': True, 'trialN': 7, 'loaded': True, 'loadedTime': 2018.2000000029802, 'positionName': 'CENTER', 'positionCoords': [1515, 515]}]",Rate how much you want to eat this food from 0 (least) to 10 (most).,11559.60000000149,1669848020648,blackbeanswithrice,1243.1000000014901,True,1.43,12802.70000000298,1243.1000000014901,True,HRV,HRV_0315,2022-11-30 22:41:24
8,"[{'imgObject': {}, 'id': 'veggieswithdip', 'src': '/static/foodstim60/veggieswithdip.jpg', 'key': 'NaN', 'origWidth': 409, 'origHeight': 409, 'width': 409, 'height': 409, 'widthPercent': 0.8, 'rescaleHeight': True, 'trialN': 8, 'loaded': True, 'loadedTime': 2019, 'positionName': 'CENTER', 'positionCoords': [1515.5, 515.5]}]",Rate how much you want to eat this food from 0 (least) to 10 (most).,12803.300000000745,1669848021892,veggieswithdip,1144.6000000014901,True,6.6000000000000005,13947.900000002235,1144.6000000014901,True,HRV,HRV_0315,2022-11-30 22:41:24
9,"[{'imgObject': {}, 'id': 'sushi w_condiments', 'src': '/static/foodstim60/sushi w_condiments.jpg', 'key': 'NaN', 'origWidth': 410, 'origHeight': 410, 'width': 410, 'height': 410, 'widthPercent': 0.8, 'rescaleHeight': True, 'trialN': 9, 'loaded': True, 'loadedTime': 2029.5, 'positionName': 'CENTER', 'positionCoords': [1515, 515]}]",Rate how much you want to eat this food from 0 (least) to 10 (most).,13948.70000000298,1669848023037,sushi w_condiments,1091.0,True,8.57,15039.70000000298,1091.0,True,HRV,HRV_0315,2022-11-30 22:41:24
10,"[{'imgObject': {}, 'id': 'rigatoni', 'src': '/static/foodstim60/rigatoni.jpg', 'key': 'NaN', 'origWidth': 411, 'origHeight': 411, 'width': 411, 'height': 411, 'widthPercent': 0.8, 'rescaleHeight': True, 'trialN': 10, 'loaded': True, 'loadedTime': 2031.5, 'positionName': 'CENTER', 'positionCoords': [1514.5, 514.5]}]",Rate how much you want to eat this food from 0 (least) to 10 (most).,15040.400000002235,1669848024129,rigatoni,1627.0999999977648,True,1.44,16667.5,1627.0999999977648,True,HRV,HRV_0315,2022-11-30 22:41:24
11,"[{'imgObject': {}, 'id': 'kiwi', 'src': '/static/foodstim60/kiwi.jpg', 'key': 'NaN', 'origWidth': 410, 'origHeight': 410, 'width': 410, 'height': 410, 'widthPercent': 0.8, 'rescaleHeight': True, 'trialN': 11, 'loaded': True, 'loadedTime': 2032.4000000022352, 'positionName': 'CENTER', 'positionCoords': [1515, 515]}]",Rate how much you want to eat this food from 0 (least) to 10 (most).,16668.900000002235,1669848025758,kiwi,1180.5999999977648,True,3.98,17849.5,1180.5999999977648,True,HRV,HRV_0315,2022-11-30 22:41:24
12,"[{'imgObject': {}, 'id': 'tacos', 'src': '/static/foodstim60/tacos.jpg', 'key': 'NaN', 'origWidth': 411, 'origHeight': 411, 'width': 411, 'height': 411, 'widthPercent': 0.8, 'rescaleHeight': True, 'trialN': 12, 'loaded': True, 'loadedTime': 2038.7000000029802, 'positionName': 'CENTER', 'positionCoords': [1514.5, 514.5]}]",Rate how much you want to eat this food from 0 (least) to 10 (most).,17850.10000000149,1669848026939,tacos,996.3999999985099,True,6.95,18846.5,996.3999999985099,True,HRV,HRV_0315,2022-11-30 22:41:24
13,"[{'imgObject': {}, 'id': 'eggsalad', 'src': '/static/foodstim60/eggsalad.jpg', 'key': 'NaN', 'origWidth': 410, 'origHeight': 409, 'width': 410, 'height': 409, 'widthPercent': 0.8, 'rescaleHeight': True, 'trialN': 13, 'loaded': True, 'loadedTime': 2039.2000000029802, 'positionName': 'CENTER', 'positionCoords': [1515, 515.5]}]",Rate how much you want to eat this food from 0 (least) to 10 (most).,18847.20000000298,1669848027936,eggsalad,1669.199999999255,True,6.23,20516.400000002235,1669.199999999255,True,HRV,HRV_0315,2022-11-30 22:41:24
14,"[{'imgObject': {}, 'id': 'orange slices', 'src': '/static/foodstim60/orange slices.jpg', 'key': 'NaN', 'origWidth': 409, 'origHeight': 410, 'width': 409, 'height': 410, 'widthPercent': 0.8, 'rescaleHeight': True, 'trialN': 14, 'loaded': True, 'loadedTime': 2047.300000000745, 'positionName': 'CENTER', 'positionCoords': [1515.5, 515]}]",Rate how much you want to eat this food from 0 (least) to 10 (most).,20517.0,1669848029606,orange slices,1207.4000000022352,True,7.3500000000000005,21724.400000002235,1207.4000000022352,True,HRV,HRV_0315,2022-11-30 22:41:24
15,"[{'imgObject': {}, 'id': 'cocktailshrimp', 'src': '/static/foodstim60/cocktailshrimp.jpg', 'key': 'NaN', 'origWidth': 410, 'origHeight': 410, 'width': 410, 'height': 410, 'widthPercent': 0.8, 'rescaleHeight': True, 'trialN': 15, 'loaded': True, 'loadedTime': 2056.300000000745, 'positionName': 'CENTER', 'positionCoords': [1515, 515]}]",Rate how much you want to eat this food from 0 (least) to 10 (most).,21725.10000000149,1669848030814,cocktailshrimp,1135.300000000745,True,4.01,22860.400000002235,1135.300000000745,True,HRV,HRV_0315,2022-11-30 22:41:24
16,"[{'imgObject': {}, 'id': 'cheerios', 'src': '/static/foodstim60/cheerios.jpg', 'key': 'NaN', 'origWidth': 409, 'origHeight': 410, 'width': 409, 'height': 410, 'widthPercent': 0.8, 'rescaleHeight': True, 'trialN': 16, 'loaded': True, 'loadedTime': 2056.900000002235, 'positionName': 'CENTER', 'positionCoords': [1515.5, 515]}]",Rate how much you want to eat this food from 0 (least) to 10 (most).,22861.10000000149,1669848031950,cheerios,1346.199999999255,True,3.68,24207.300000000745,1346.199999999255,True,HRV,HRV_0315,2022-11-30 22:41:24
17,"[{'imgObject': {}, 'id': 'fried eggs', 'src': '/static/foodstim60/fried eggs.jpg', 'key': 'NaN', 'origWidth': 410, 'origHeight': 410, 'width': 410, 'height': 410, 'widthPercent': 0.8, 'rescaleHeight': True, 'trialN': 17, 'loaded': True, 'loadedTime': 2065.60000000149, 'positionName': 'CENTER', 'positionCoords': [1515, 515]}]",Rate how much you want to eat this food from 0 (least) to 10 (most).,24208.0,1669848033297,fried eggs,1005.3000000007451,True,7.3,25213.300000000745,1005.3000000007451,True,HRV,HRV_0315,2022-11-30 22:41:24
18,"[{'imgObject': {}, 'id': 'sweetpotato', 'src': '/static/foodstim60/sweetpotato.jpg', 'key': 'NaN', 'origWidth': 410, 'origHeight': 410, 'width': 410, 'height': 410, 'widthPercent': 0.8, 'rescaleHeight': True, 'trialN': 18, 'loaded': True, 'loadedTime': 2066.300000000745, 'positionName': 'CENTER', 'positionCoords': [1515, 515]}]",Rate how much you want to eat this food from 0 (least) to 10 (most).,25213.900000002235,1669848034303,sweetpotato,1262.300000000745,True,5.04,26476.20000000298,1262.300000000745,True,HRV,HRV_0315,2022-11-30 22:41:24
19,"[{'imgObject': {}, 'id': 'luckycharms', 'src': '/static/foodstim60/luckycharms.jpg', 'key': 'NaN', 'origWidth': 410, 'origHeight': 409, 'width': 410, 'height': 409, 'widthPercent': 0.8, 'rescaleHeight': True, 'trialN': 19, 'loaded': True, 'loadedTime': 2074.5, 'positionName': 'CENTER', 'positionCoords': [1515, 515.5]}]",Rate how much you want to eat this food from 0 (least) to 10 (most).,26476.800000000745,1669848035566,luckycharms,1467.4000000022352,True,4.75,27944.20000000298,1467.4000000022352,True,HRV,HRV_0315,2022-11-30 22:41:24
20,"[{'imgObject': {}, 'id': 'olives', 'src': '/static/foodstim60/olives.jpg', 'key': 'NaN', 'origWidth': 410, 'origHeight': 410, 'width': 410, 'height': 410, 'widthPercent': 0.8, 'rescaleHeight': True, 'trialN': 20, 'loaded': True, 'loadedTime': 2083.2000000029802, 'positionName': 'CENTER', 'positionCoords': [1515, 515]}]",Rate how much you want to eat this food from 0 (least) to 10 (most).,27944.800000000745,1669848037033,olives,1169.4000000022352,True,0.79,29114.20000000298,1169.4000000022352,True,HRV,HRV_0315,2022-11-30 22:41:24
21,"[{'imgObject': {}, 'id': 'chicken nuggets2', 'src': '/static/foodstim60/chicken nuggets2.jpg', 'key': 'NaN', 'origWidth': 410, 'origHeight': 409, 'width': 410, 'height': 409, 'widthPercent': 0.8, 'rescaleHeight': True, 'trialN': 21, 'loaded': True, 'loadedTime': 2091.2000000029802, 'positionName': 'CENTER', 'positionCoords': [1515, 515.5]}]",Rate how much you want to eat this food from 0 (least) to 10 (most).,29114.900000002235,1669848038204,chicken nuggets2,1091.300000000745,True,5.8,30206.20000000298,1091.300000000745,True,HRV,HRV_0315,2022-11-30 22:41:24
22,"[{'imgObject': {}, 'id': 'burger', 'src': '/static/foodstim60/burger.jpg', 'key': 'NaN', 'origWidth': 409, 'origHeight': 409, 'width': 409, 'height': 409, 'widthPercent': 0.8, 'rescaleHeight': True, 'trialN': 22, 'loaded': True, 'loadedTime': 2099.10000000149, 'positionName': 'CENTER', 'positionCoords': [1515.5, 515.5]}]",Rate how much you want to eat this food from 0 (least) to 10 (most).,30206.800000000745,1669848039296,burger,1265.4000000022352,True,4.2,31472.20000000298,1265.4000000022352,True,HRV,HRV_0315,2022-11-30 22:41:24
23,"[{'imgObject': {}, 'id': 'lox', 'src': '/static/foodstim60/lox.jpg', 'key': 'NaN', 'origWidth': 410, 'origHeight': 411, 'width': 410, 'height': 411, 'widthPercent': 0.8, 'rescaleHeight': True, 'trialN': 23, 'loaded': True, 'loadedTime': 2099.900000002235, 'positionName': 'CENTER', 'positionCoords': [1515, 514.5]}]",Rate how much you want to eat this food from 0 (least) to 10 (most).,31472.800000000745,1669848040562,lox,1714.199999999255,True,3.0500000000000003,33187.0,1714.199999999255,True,HRV,HRV_0315,2022-11-30 22:41:24
24,"[{'imgObject': {}, 'id': 'hotdog w must', 'src': '/static/foodstim60/hotdog w must.jpg', 'key': 'NaN', 'origWidth': 409, 'origHeight': 409, 'width': 409, 'height': 409, 'widthPercent': 0.8, 'rescaleHeight': True, 'trialN': 24, 'loaded': True, 'loadedTime': 2100.5, 'positionName': 'CENTER', 'positionCoords': [1515.5, 515.5]}]",Rate how much you want to eat this food from 0 (least) to 10 (most).,33187.70000000298,1669848042276,hotdog w must,1167.3999999985099,True,2.71,34355.10000000149,1167.3999999985099,True,HRV,HRV_0315,2022-11-30 22:41:24
25,"[{'imgObject': {}, 'id': 'ice cream sundae 002', 'src': '/static/foodstim60/ice cream sundae 002.jpg', 'key': 'NaN', 'origWidth': 409, 'origHeight': 409, 'width': 409, 'height': 409, 'widthPercent': 0.8, 'rescaleHeight': True, 'trialN': 25, 'loaded': True, 'loadedTime': 2101.10000000149, 'positionName': 'CENTER', 'positionCoords': [1515.5, 515.5]}]",Rate how much you want to eat this food from 0 (least) to 10 (most).,34355.800000000745,1669848043445,ice cream sundae 002,1022.1999999992549,True,3.4,35378.0,1022.1999999992549,True,HRV,HRV_0315,2022-11-30 22:41:24
26,"[{'imgObject': {}, 'id': 'burrito', 'src': '/static/foodstim60/burrito.jpg', 'key': 'NaN', 'origWidth': 410, 'origHeight': 410, 'width': 410, 'height': 410, 'widthPercent': 0.8, 'rescaleHeight': True, 'trialN': 26, 'loaded': True, 'loadedTime': 2101.7000000029802, 'positionName': 'CENTER', 'positionCoords': [1515, 515]}]",Rate how much you want to eat this food from 0 (least) to 10 (most).,35378.60000000149,1669848044467,burrito,1409.5,True,5.92,36788.10000000149,1409.5,True,HRV,HRV_0315,2022-11-30 22:41:24
27,"[{'imgObject': {}, 'id': 'omelette', 'src': '/static/foodstim60/omelette.jpg', 'key': 'NaN', 'origWidth': 410, 'origHeight': 409, 'width': 410, 'height': 409, 'widthPercent': 0.8, 'rescaleHeight': True, 'trialN': 27, 'loaded': True, 'loadedTime': 2104, 'positionName': 'CENTER', 'positionCoords': [1515, 515.5]}]",Rate how much you want to eat this food from 0 (least) to 10 (most).,36788.70000000298,1669848045877,omelette,1199.3999999985099,True,5.54,37988.10000000149,1199.3999999985099,True,HRV,HRV_0315,2022-11-30 22:41:24
28,"[{'imgObject': {}, 'id': 'pear', 'src': '/static/foodstim60/pear.jpg', 'key': 'NaN', 'origWidth': 411, 'origHeight': 410, 'width': 411, 'height': 410, 'widthPercent': 0.8, 'rescaleHeight': True, 'trialN': 28, 'loaded': True, 'loadedTime': 2106.10000000149, 'positionName': 'CENTER', 'positionCoords': [1514.5, 515]}]",Rate how much you want to eat this food from 0 (least) to 10 (most).,37988.70000000298,1669848047077,pear,1409.3999999985099,True,6.67,39398.10000000149,1409.3999999985099,True,HRV,HRV_0315,2022-11-30 22:41:24
29,"[{'imgObject': {}, 'id': 'popsicles', 'src': '/static/foodstim60/popsicles.jpg', 'key': 'NaN', 'origWidth': 410, 'origHeight': 410, 'width': 410, 'height': 410, 'widthPercent': 0.8, 'rescaleHeight': True, 'trialN': 29, 'loaded': True, 'loadedTime': 2106.800000000745, 'positionName': 'CENTER', 'positionCoords': [1515, 515]}]",Rate how much you want to eat this food from 0 (least) to 10 (most).,39398.70000000298,1669848048487,popsicles,1293.199999999255,True,1.69,40691.900000002235,1293.199999999255,True,HRV,HRV_0315,2022-11-30 22:41:24
30,"[{'imgObject': {}, 'id': 'blueberries', 'src': '/static/foodstim60/blueberries.jpg', 'key': 'NaN', 'origWidth': 411, 'origHeight': 411, 'width': 411, 'height': 411, 'widthPercent': 0.8, 'rescaleHeight': True, 'trialN': 30, 'loaded': True, 'loadedTime': 2107.5, 'positionName': 'CENTER', 'positionCoords': [1514.5, 514.5]}]",Rate how much you want to eat this food from 0 (least) to 10 (most).,40692.60000000149,1669848049781,blueberries,1138.300000000745,True,7.22,41830.900000002235,1138.300000000745,True,HRV,HRV_0315,2022-11-30 22:41:24
31,"[{'imgObject': {}, 'id': 'hashbrowns', 'src': '/static/foodstim60/hashbrowns.jpg', 'key': 'NaN', 'origWidth': 411, 'origHeight': 410, 'width': 411, 'height': 410, 'widthPercent': 0.8, 'rescaleHeight': True, 'trialN': 31, 'loaded': True, 'loadedTime': 2108.2000000029802, 'positionName': 'CENTER', 'positionCoords': [1514.5, 515]}]",Rate how much you want to eat this food from 0 (least) to 10 (most).,41831.60000000149,1669848050920,hashbrowns,1118.300000000745,True,4.93,42949.900000002235,1118.300000000745,True,HRV,HRV_0315,2022-11-30 22:41:24
32,"[{'imgObject': {}, 'id': 'raisin bran w milk', 'src': '/static/foodstim60/raisin bran w milk.jpg', 'key': 'NaN', 'origWidth': 411, 'origHeight': 411, 'width': 411, 'height': 411, 'widthPercent': 0.8, 'rescaleHeight': True, 'trialN': 32, 'loaded': True, 'loadedTime': 2108.7000000029802, 'positionName': 'CENTER', 'positionCoords': [1514.5, 514.5]}]",Rate how much you want to eat this food from 0 (least) to 10 (most).,42950.60000000149,1669848052039,raisin bran w milk,907.3000000007451,True,6.3100000000000005,43857.900000002235,907.3000000007451,True,HRV,HRV_0315,2022-11-30 22:41:24
33,"[{'imgObject': {}, 'id': 'avocado', 'src': '/static/foodstim60/avocado.jpg', 'key': 'NaN', 'origWidth': 409, 'origHeight': 409, 'width': 409, 'height': 409, 'widthPercent': 0.8, 'rescaleHeight': True, 'trialN': 33, 'loaded': True, 'loadedTime': 2109.400000002235, 'positionName': 'CENTER', 'positionCoords': [1515.5, 515.5]}]",Rate how much you want to eat this food from 0 (least) to 10 (most).,43858.60000000149,1669848052947,avocado,1047.300000000745,True,3.79,44905.900000002235,1047.300000000745,True,HRV,HRV_0315,2022-11-30 22:41:24
34,"[{'imgObject': {}, 'id': 'cherry tomato', 'src': '/static/foodstim60/cherry tomato.jpg', 'key': 'NaN', 'origWidth': 410, 'origHeight': 410, 'width': 410, 'height': 410, 'widthPercent': 0.8, 'rescaleHeight': True, 'trialN': 34, 'loaded': True, 'loadedTime': 2110, 'positionName': 'CENTER', 'positionCoords': [1515, 515]}]",Rate how much you want to eat this food from 0 (least) to 10 (most).,44906.5,1669848053995,cherry tomato,1399.300000000745,True,4.61,46305.800000000745,1399.300000000745,True,HRV,HRV_0315,2022-11-30 22:41:24
35,"[{'imgObject': {}, 'id': 'yogurt no spoon', 'src': '/static/foodstim60/yogurt no spoon.jpg', 'key': 'NaN', 'origWidth': 411, 'origHeight': 410, 'width': 411, 'height': 410, 'widthPercent': 0.8, 'rescaleHeight': True, 'trialN': 35, 'loaded': True, 'loadedTime': 2110.900000002235, 'positionName': 'CENTER', 'positionCoords': [1514.5, 515]}]",Rate how much you want to eat this food from 0 (least) to 10 (most).,46306.60000000149,1669848055395,yogurt no spoon,1312.1000000014901,True,8.0,47618.70000000298,1312.1000000014901,True,HRV,HRV_0315,2022-11-30 22:41:24
36,"[{'imgObject': {}, 'id': 'raspberries', 'src': '/static/foodstim60/raspberries.jpg', 'key': 'NaN', 'origWidth': 411, 'origHeight': 411, 'width': 411, 'height': 411, 'widthPercent': 0.8, 'rescaleHeight': True, 'trialN': 36, 'loaded': True, 'loadedTime': 2111.7000000029802, 'positionName': 'CENTER', 'positionCoords': [1514.5, 514.5]}]",Rate how much you want to eat this food from 0 (least) to 10 (most).,47619.400000002235,1669848056708,raspberries,910.3999999985099,True,8.0,48529.800000000745,910.3999999985099,True,HRV,HRV_0315,2022-11-30 22:41:24
37,"[{'imgObject': {}, 'id': 'mashed potato', 'src': '/static/foodstim60/mashed potato.jpg', 'key': 'NaN', 'origWidth': 409, 'origHeight': 409, 'width': 409, 'height': 409, 'widthPercent': 0.8, 'rescaleHeight': True, 'trialN': 37, 'loaded': True, 'loadedTime': 2112.5, 'positionName': 'CENTER', 'positionCoords': [1515.5, 515.5]}]",Rate how much you want to eat this food from 0 (least) to 10 (most).,48530.5,1669848057619,mashed potato,1326.2000000029802,True,4.84,49856.70000000298,1326.2000000029802,True,HRV,HRV_0315,2022-11-30 22:41:24
38,"[{'imgObject': {}, 'id': 'eggs', 'src': '/static/foodstim60/eggs.jpg', 'key': 'NaN', 'origWidth': 409, 'origHeight': 409, 'width': 409, 'height': 409, 'widthPercent': 0.8, 'rescaleHeight': True, 'trialN': 38, 'loaded': True, 'loadedTime': 2113, 'positionName': 'CENTER', 'positionCoords': [1515.5, 515.5]}]",Rate how much you want to eat this food from 0 (least) to 10 (most).,49857.400000002235,1669848058946,eggs,940.1999999992549,True,6.24,50797.60000000149,940.1999999992549,True,HRV,HRV_0315,2022-11-30 22:41:24
39,"[{'imgObject': {}, 'id': 'cherries', 'src': '/static/foodstim60/cherries.jpg', 'key': 'NaN', 'origWidth': 410, 'origHeight': 411, 'width': 410, 'height': 411, 'widthPercent': 0.8, 'rescaleHeight': True, 'trialN': 39, 'loaded': True, 'loadedTime': 2113.60000000149, 'positionName': 'CENTER', 'positionCoords': [1515, 514.5]}]",Rate how much you want to eat this food from 0 (least) to 10 (most).,50798.400000002235,1669848059887,cherries,1047.199999999255,True,6.6000000000000005,51845.60000000149,1047.199999999255,True,HRV,HRV_0315,2022-11-30 22:41:24
40,"[{'imgObject': {}, 'id': 'turkey sandwich', 'src': '/static/foodstim60/turkey sandwich.jpg', 'key': 'NaN', 'origWidth': 409, 'origHeight': 409, 'width': 409, 'height': 409, 'widthPercent': 0.8, 'rescaleHeight': True, 'trialN': 40, 'loaded': True, 'loadedTime': 2114.10000000149, 'positionName': 'CENTER', 'positionCoords': [1515.5, 515.5]}]",Rate how much you want to eat this food from 0 (least) to 10 (most).,51846.20000000298,1669848060935,turkey sandwich,984.5999999977648,True,6.65,52830.800000000745,984.5999999977648,True,HRV,HRV_0315,2022-11-30 22:41:24
41,"[{'imgObject': {}, 'id': 'corn cob', 'src': '/static/foodstim60/corn cob.jpg', 'key': 'NaN', 'origWidth': 411, 'origHeight': 411, 'width': 411, 'height': 411, 'widthPercent': 0.8, 'rescaleHeight': True, 'trialN': 41, 'loaded': True, 'loadedTime': 2114.60000000149, 'positionName': 'CENTER', 'positionCoords': [1514.5, 514.5]}]",Rate how much you want to eat this food from 0 (least) to 10 (most).,52831.400000002235,1669848061920,corn cob,1113.3999999985099,True,1.0,53944.800000000745,1113.3999999985099,True,HRV,HRV_0315,2022-11-30 22:41:24
42,"[{'imgObject': {}, 'id': 'bagel and cc', 'src': '/static/foodstim60/bagel and cc.jpg', 'key': 'NaN', 'origWidth': 410, 'origHeight': 410, 'width': 410, 'height': 410, 'widthPercent': 0.8, 'rescaleHeight': True, 'trialN': 42, 'loaded': True, 'loadedTime': 2115.2000000029802, 'positionName': 'CENTER', 'positionCoords': [1515, 515]}]",Rate how much you want to eat this food from 0 (least) to 10 (most).,53945.400000002235,1669848063034,bagel and cc,1231.0,True,2.09,55176.400000002235,1231.0,True,HRV,HRV_0315,2022-11-30 22:41:24
43,"[{'imgObject': {}, 'id': 'fruitsalad', 'src': '/static/foodstim60/fruitsalad.jpg', 'key': 'NaN', 'origWidth': 410, 'origHeight': 410, 'width': 410, 'height': 410, 'widthPercent': 0.8, 'rescaleHeight': True, 'trialN': 43, 'loaded': True, 'loadedTime': 2116, 'positionName': 'CENTER', 'positionCoords': [1515, 515]}]",Rate how much you want to eat this food from 0 (least) to 10 (most).,55177.10000000149,1669848064266,fruitsalad,1536.3999999985099,True,8.16,56713.5,1536.3999999985099,True,HRV,HRV_0315,2022-11-30 22:41:24
44,"[{'imgObject': {}, 'id': 'salad w chicken', 'src': '/static/foodstim60/salad w chicken.jpg', 'key': 'NaN', 'origWidth': 411, 'origHeight': 411, 'width': 411, 'height': 411, 'widthPercent': 0.8, 'rescaleHeight': True, 'trialN': 44, 'loaded': True, 'loadedTime': 2116.60000000149, 'positionName': 'CENTER', 'positionCoords': [1514.5, 514.5]}]",Rate how much you want to eat this food from 0 (least) to 10 (most).,56714.300000000745,1669848065803,salad w chicken,1281.199999999255,True,8.47,57995.5,1281.199999999255,True,HRV,HRV_0315,2022-11-30 22:41:24
45,"[{'imgObject': {}, 'id': 'mac & cheese', 'src': '/static/foodstim60/mac & cheese.jpg', 'key': 'NaN', 'origWidth': 410, 'origHeight': 410, 'width': 410, 'height': 410, 'widthPercent': 0.8, 'rescaleHeight': True, 'trialN': 45, 'loaded': True, 'loadedTime': 2117.300000000745, 'positionName': 'CENTER', 'positionCoords': [1515, 515]}]",Rate how much you want to eat this food from 0 (least) to 10 (most).,57996.20000000298,1669848067085,mac & cheese,1200.0999999977648,True,4.9,59196.300000000745,1200.0999999977648,True,HRV,HRV_0315,2022-11-30 22:41:24
46,"[{'imgObject': {}, 'id': 'Grapes', 'src': '/static/foodstim60/Grapes.jpg', 'key': 'NaN', 'origWidth': 411, 'origHeight': 411, 'width': 411, 'height': 411, 'widthPercent': 0.8, 'rescaleHeight': True, 'trialN': 46, 'loaded': True, 'loadedTime': 2118, 'positionName': 'CENTER', 'positionCoords': [1514.5, 514.5]}]",Rate how much you want to eat this food from 0 (least) to 10 (most).,59196.900000002235,1669848068286,Grapes,948.3999999985099,True,6.0600000000000005,60145.300000000745,948.3999999985099,True,HRV,HRV_0315,2022-11-30 22:41:24
47,"[{'imgObject': {}, 'id': 'bagel plain', 'src': '/static/foodstim60/bagel plain.jpg', 'key': 'NaN', 'origWidth': 410, 'origHeight': 410, 'width': 410, 'height': 410, 'widthPercent': 0.8, 'rescaleHeight': True, 'trialN': 47, 'loaded': True, 'loadedTime': 2118.60000000149, 'positionName': 'CENTER', 'positionCoords': [1515, 515]}]",Rate how much you want to eat this food from 0 (least) to 10 (most).,60145.900000002235,1669848069235,bagel plain,1219.3999999985099,True,1.8800000000000001,61365.300000000745,1219.3999999985099,True,HRV,HRV_0315,2022-11-30 22:41:24
48,"[{'imgObject': {}, 'id': 'mango', 'src': '/static/foodstim60/mango.jpg', 'key': 'NaN', 'origWidth': 411, 'origHeight': 411, 'width': 411, 'height': 411, 'widthPercent': 0.8, 'rescaleHeight': True, 'trialN': 48, 'loaded': True, 'loadedTime': 2119.2000000029802, 'positionName': 'CENTER', 'positionCoords': [1514.5, 514.5]}]",Rate how much you want to eat this food from 0 (least) to 10 (most).,61366.0,1669848070455,mango,1223.300000000745,True,7.3,62589.300000000745,1223.300000000745,True,HRV,HRV_0315,2022-11-30 22:41:24
49,"[{'imgObject': {}, 'id': 'granola w milk', 'src': '/static/foodstim60/granola w milk.jpg', 'key': 'NaN', 'origWidth': 410, 'origHeight': 410, 'width': 410, 'height': 410, 'widthPercent': 0.8, 'rescaleHeight': True, 'trialN': 49, 'loaded': True, 'loadedTime': 2119.60000000149, 'positionName': 'CENTER', 'positionCoords': [1515, 515]}]",Rate how much you want to eat this food from 0 (least) to 10 (most).,62590.0,1669848071679,granola w milk,939.2000000029802,True,6.7700000000000005,63529.20000000298,939.2000000029802,True,HRV,HRV_0315,2022-11-30 22:41:24
50,"[{'imgObject': {}, 'id': 'cantaloupe', 'src': '/static/foodstim60/cantaloupe.jpg', 'key': 'NaN', 'origWidth': 409, 'origHeight': 409, 'width': 409, 'height': 409, 'widthPercent': 0.8, 'rescaleHeight': True, 'trialN': 50, 'loaded': True, 'loadedTime': 2120.2000000029802, 'positionName': 'CENTER', 'positionCoords': [1515.5, 515.5]}]",Rate how much you want to eat this food from 0 (least) to 10 (most).,63529.70000000298,1669848072618,cantaloupe,1117.5,True,5.7,64647.20000000298,1117.5,True,HRV,HRV_0315,2022-11-30 22:41:24
51,"[{'imgObject': {}, 'id': 'turkeysandwich', 'src': '/static/foodstim60/turkeysandwich.jpg', 'key': 'NaN', 'origWidth': 409, 'origHeight': 409, 'width': 409, 'height': 409, 'widthPercent': 0.8, 'rescaleHeight': True, 'trialN': 51, 'loaded': True, 'loadedTime': 2120.800000000745, 'positionName': 'CENTER', 'positionCoords': [1515.5, 515.5]}]",Rate how much you want to eat this food from 0 (least) to 10 (most).,64647.70000000298,1669848073736,turkeysandwich,1337.3999999985099,True,7.18,65985.10000000149,1337.3999999985099,True,HRV,HRV_0315,2022-11-30 22:41:24
52,"[{'imgObject': {}, 'id': 'steak', 'src': '/static/foodstim60/steak.jpg', 'key': 'NaN', 'origWidth': 410, 'origHeight': 410, 'width': 410, 'height': 410, 'widthPercent': 0.8, 'rescaleHeight': True, 'trialN': 52, 'loaded': True, 'loadedTime': 2121.300000000745, 'positionName': 'CENTER', 'positionCoords': [1515, 515]}]",Rate how much you want to eat this food from 0 (least) to 10 (most).,65985.70000000298,1669848075074,steak,1203.3999999985099,True,8.120000000000001,67189.10000000149,1203.3999999985099,True,HRV,HRV_0315,2022-11-30 22:41:24
53,"[{'imgObject': {}, 'id': 'edamame', 'src': '/static/foodstim60/edamame.jpg', 'key': 'NaN', 'origWidth': 409, 'origHeight': 410, 'width': 409, 'height': 410, 'widthPercent': 0.8, 'rescaleHeight': True, 'trialN': 53, 'loaded': True, 'loadedTime': 2121.900000002235, 'positionName': 'CENTER', 'positionCoords': [1515.5, 515]}]",Rate how much you want to eat this food from 0 (least) to 10 (most).,67189.70000000298,1669848076279,edamame,1162.2999999970198,True,3.22,68352.0,1162.2999999970198,True,HRV,HRV_0315,2022-11-30 22:41:24
54,"[{'imgObject': {}, 'id': 'roastedpotatoes', 'src': '/static/foodstim60/roastedpotatoes.jpg', 'key': 'NaN', 'origWidth': 409, 'origHeight': 410, 'width': 409, 'height': 410, 'widthPercent': 0.8, 'rescaleHeight': True, 'trialN': 54, 'loaded': True, 'loadedTime': 2122.800000000745, 'positionName': 'CENTER', 'positionCoords': [1515.5, 515]}]",Rate how much you want to eat this food from 0 (least) to 10 (most).,68352.60000000149,1669848077442,roastedpotatoes,1239.3999999985099,True,5.12,69592.0,1239.3999999985099,True,HRV,HRV_0315,2022-11-30 22:41:24
55,"[{'imgObject': {}, 'id': 'chickenfingers', 'src': '/static/foodstim60/chickenfingers.jpg', 'key': 'NaN', 'origWidth': 410, 'origHeight': 410, 'width': 410, 'height': 410, 'widthPercent': 0.8, 'rescaleHeight': True, 'trialN': 55, 'loaded': True, 'loadedTime': 2123.5, 'positionName': 'CENTER', 'positionCoords': [1515, 515]}]",Rate how much you want to eat this food from 0 (least) to 10 (most).,69592.80000000075,1669848078682,chickenfingers,962.3000000007451,True,6.0,70555.10000000149,962.3000000007451,True,HRV,HRV_0315,2022-11-30 22:41:24
56,"[{'imgObject': {}, 'id': 'apple slices', 'src': '/static/foodstim60/apple slices.jpg', 'key': 'NaN', 'origWidth': 409, 'origHeight': 410, 'width': 409, 'height': 410, 'widthPercent': 0.8, 'rescaleHeight': True, 'trialN': 56, 'loaded': True, 'loadedTime': 2124, 'positionName': 'CENTER', 'positionCoords': [1515.5, 515]}]",Rate how much you want to eat this food from 0 (least) to 10 (most).,70555.80000000075,1669848079645,apple slices,1117.1000000014901,True,7.17,71672.90000000224,1117.1000000014901,True,HRV,HRV_0315,2022-11-30 22:41:24
57,"[{'imgObject': {}, 'id': 'froot loops w milk', 'src': '/static/foodstim60/froot loops w milk.jpg', 'key': 'NaN', 'origWidth': 410, 'origHeight': 410, 'width': 410, 'height': 410, 'widthPercent': 0.8, 'rescaleHeight': True, 'trialN': 57, 'loaded': True, 'loadedTime': 2124.60000000149, 'positionName': 'CENTER', 'positionCoords': [1515, 515]}]",Rate how much you want to eat this food from 0 (least) to 10 (most).,71673.5,1669848080762,froot loops w milk,1060.4000000022352,True,5.94,72733.90000000224,1060.4000000022352,True,HRV,HRV_0315,2022-11-30 22:41:24
58,"[{'imgObject': {}, 'id': 'seaweed', 'src': '/static/foodstim60/seaweed.jpg', 'key': 'NaN', 'origWidth': 410, 'origHeight': 410, 'width': 410, 'height': 410, 'widthPercent': 0.8, 'rescaleHeight': True, 'trialN': 58, 'loaded': True, 'loadedTime': 2125, 'positionName': 'CENTER', 'positionCoords': [1515, 515]}]",Rate how much you want to eat this food from 0 (least) to 10 (most).,72734.5,1669848081823,seaweed,995.4000000022352,True,6.63,73729.90000000224,995.4000000022352,True,HRV,HRV_0315,2022-11-30 22:41:24
59,"[{'imgObject': {}, 'id': 'strawberries', 'src': '/static/foodstim60/strawberries.jpg', 'key': 'NaN', 'origWidth': 410, 'origHeight': 410, 'width': 410, 'height': 410, 'widthPercent': 0.8, 'rescaleHeight': True, 'trialN': 59, 'loaded': True, 'loadedTime': 2125.900000002235, 'positionName': 'CENTER', 'positionCoords': [1515, 515]}]",Rate how much you want to eat this food from 0 (least) to 10 (most).,73730.5,1669848082819,strawberries,1063.5,True,8.58,74794.0,1063.5,True,HRV,HRV_0315,2022-11-30 22:41:24
