trialN,stimuli,trialStartTime,trialStartTime_UNIX,stimulus1,stimulus2,stimulus1Bid,stimulus2Bid,delta,selected,rt,rt_UNIX,rt_perfnow,receivedResponse,rsp,trialEndTime,trialDuration,trialEndTime_UNIX,trialDuration_UNIX,exp,subjectId,date
0,"[{'imgObject': {}, 'id': 'fried eggs', 'src': '/static/foodstim60/fried eggs.jpg', 'key': 'u', 'origWidth': 410, 'origHeight': 410, 'width': 410, 'height': 410, 'widthPercent': 0.45, 'rescaleHeight': False, 'trialN': 0, 'loaded': True, 'loadedTime': 2045, 'positionName': 'LEFT', 'positionCoords': [245.68, 179], 'bid': 8.61}, {'imgObject': {}, 'id': 'mashed potato', 'src': '/static/foodstim60/mashed potato.jpg', 'key': 'i', 'origWidth': 409, 'origHeight': 409, 'width': 409, 'height': 409, 'widthPercent': 0.45, 'rescaleHeight': False, 'trialN': 0, 'loaded': True, 'loadedTime': 2095.7000000029802, 'positionName': 'RIGHT', 'positionCoords': [710.32, 179.5], 'bid': 7.7}]",3315.900000002235,1669833968941,fried eggs,mashed potato,8.61,7.7,-0.9099999999999993,fried eggs,1537.300000000745,1539,1538.5999999977648,True,u,5369.800000000745,2053.89999999851,1669833970995,2054,HRV,HRV_0209,2022-11-30 18:51:33
1,"[{'imgObject': {}, 'id': 'rigatoni and sauce', 'src': '/static/foodstim60/rigatoni and sauce.jpg', 'key': 'u', 'origWidth': 410, 'origHeight': 411, 'width': 410, 'height': 411, 'widthPercent': 0.45, 'rescaleHeight': False, 'trialN': 1, 'loaded': True, 'loadedTime': 2147.60000000149, 'positionName': 'LEFT', 'positionCoords': [245.68, 178.5], 'bid': 8.93}, {'imgObject': {}, 'id': 'Grapes', 'src': '/static/foodstim60/Grapes.jpg', 'key': 'i', 'origWidth': 411, 'origHeight': 411, 'width': 411, 'height': 411, 'widthPercent': 0.45, 'rescaleHeight': False, 'trialN': 1, 'loaded': True, 'loadedTime': 2238, 'positionName': 'RIGHT', 'positionCoords': [710.32, 178.5], 'bid': 8.700000000000001}]",5370.5,1669833970996,rigatoni and sauce,Grapes,8.93,8.700000000000001,-0.22999999999999865,rigatoni and sauce,1697.6000000014901,1698,1698.4000000022352,True,u,7576.60000000149,2206.10000000149,1669833973203,2207,HRV,HRV_0209,2022-11-30 18:51:33
2,"[{'imgObject': {}, 'id': 'salmon', 'src': '/static/foodstim60/salmon.jpg', 'key': 'u', 'origWidth': 410, 'origHeight': 409, 'width': 410, 'height': 409, 'widthPercent': 0.45, 'rescaleHeight': False, 'trialN': 2, 'loaded': True, 'loadedTime': 2242.900000002235, 'positionName': 'LEFT', 'positionCoords': [245.68, 179.5], 'bid': 8.36}, {'imgObject': {}, 'id': 'avocado', 'src': '/static/foodstim60/avocado.jpg', 'key': 'i', 'origWidth': 409, 'origHeight': 409, 'width': 409, 'height': 409, 'widthPercent': 0.45, 'rescaleHeight': False, 'trialN': 2, 'loaded': True, 'loadedTime': 2245.5, 'positionName': 'RIGHT', 'positionCoords': [710.32, 179.5], 'bid': 6.53}]",7577.20000000298,1669833973204,salmon,avocado,8.36,6.53,-1.8299999999999992,salmon,1215,1216,1215.8999999985099,True,u,9296.60000000149,1719.3999999985099,1669833974923,1719,HRV,HRV_0209,2022-11-30 18:51:33
3,"[{'imgObject': {}, 'id': 'avocado', 'src': '/static/foodstim60/avocado.jpg', 'key': 'u', 'origWidth': 409, 'origHeight': 409, 'width': 409, 'height': 409, 'widthPercent': 0.45, 'rescaleHeight': False, 'trialN': 3, 'loaded': True, 'loadedTime': 2245.60000000149, 'positionName': 'LEFT', 'positionCoords': [246.68, 179.5], 'bid': 6.53}, {'imgObject': {}, 'id': 'salad w chicken', 'src': '/static/foodstim60/salad w chicken.jpg', 'key': 'i', 'origWidth': 411, 'origHeight': 411, 'width': 411, 'height': 411, 'widthPercent': 0.45, 'rescaleHeight': False, 'trialN': 3, 'loaded': True, 'loadedTime': 2251.400000002235, 'positionName': 'RIGHT', 'positionCoords': [710.32, 178.5], 'bid': 6.71}]",9297.300000000745,1669833974924,avocado,salad w chicken,6.53,6.71,0.17999999999999972,salad w chicken,2128.699999999255,2130,2129.699999999255,True,i,11928.70000000298,2631.400000002235,1669833977555,2631,HRV,HRV_0209,2022-11-30 18:51:33
4,"[{'imgObject': {}, 'id': 'tacos', 'src': '/static/foodstim60/tacos.jpg', 'key': 'u', 'origWidth': 411, 'origHeight': 411, 'width': 411, 'height': 411, 'widthPercent': 0.45, 'rescaleHeight': False, 'trialN': 4, 'loaded': True, 'loadedTime': 2281.5, 'positionName': 'LEFT', 'positionCoords': [244.68, 178.5], 'bid': 8.23}, {'imgObject': {}, 'id': 'ice cream sundae 002', 'src': '/static/foodstim60/ice cream sundae 002.jpg', 'key': 'i', 'origWidth': 409, 'origHeight': 409, 'width': 409, 'height': 409, 'widthPercent': 0.45, 'rescaleHeight': False, 'trialN': 4, 'loaded': True, 'loadedTime': 2306.900000002235, 'positionName': 'RIGHT', 'positionCoords': [710.32, 179.5], 'bid': 8.3}]",11929.5,1669833977556,tacos,ice cream sundae 002,8.23,8.3,0.07000000000000028,ice cream sundae 002,1272.5,1274,1273.800000000745,True,i,13704.70000000298,1775.2000000029802,1669833979331,1775,HRV,HRV_0209,2022-11-30 18:51:33
5,"[{'imgObject': {}, 'id': 'strawberries', 'src': '/static/foodstim60/strawberries.jpg', 'key': 'u', 'origWidth': 410, 'origHeight': 410, 'width': 410, 'height': 410, 'widthPercent': 0.45, 'rescaleHeight': False, 'trialN': 5, 'loaded': True, 'loadedTime': 2331.300000000745, 'positionName': 'LEFT', 'positionCoords': [245.68, 179], 'bid': 8.63}, {'imgObject': {}, 'id': 'raspberries', 'src': '/static/foodstim60/raspberries.jpg', 'key': 'i', 'origWidth': 411, 'origHeight': 411, 'width': 411, 'height': 411, 'widthPercent': 0.45, 'rescaleHeight': False, 'trialN': 5, 'loaded': True, 'loadedTime': 2334.900000002235, 'positionName': 'RIGHT', 'positionCoords': [710.32, 178.5], 'bid': 7.82}]",13705.400000002235,1669833979332,strawberries,raspberries,8.63,7.82,-0.8100000000000005,strawberries,900.6999999992549,902,901.6999999992549,True,u,15112.70000000298,1407.300000000745,1669833980739,1407,HRV,HRV_0209,2022-11-30 18:51:33
6,"[{'imgObject': {}, 'id': 'edamame', 'src': '/static/foodstim60/edamame.jpg', 'key': 'u', 'origWidth': 409, 'origHeight': 410, 'width': 409, 'height': 410, 'widthPercent': 0.45, 'rescaleHeight': False, 'trialN': 6, 'loaded': True, 'loadedTime': 2355.300000000745, 'positionName': 'LEFT', 'positionCoords': [246.68, 179], 'bid': 8.52}, {'imgObject': {}, 'id': 'chickenfingers', 'src': '/static/foodstim60/chickenfingers.jpg', 'key': 'i', 'origWidth': 410, 'origHeight': 410, 'width': 410, 'height': 410, 'widthPercent': 0.45, 'rescaleHeight': False, 'trialN': 6, 'loaded': True, 'loadedTime': 2384.900000002235, 'positionName': 'RIGHT', 'positionCoords': [710.32, 179], 'bid': 8.66}]",15113.400000002235,1669833980740,edamame,chickenfingers,8.52,8.66,0.14000000000000057,chickenfingers,1549.3999999985099,1550,1550.5,True,i,17168.70000000298,2055.300000000745,1669833982795,2055,HRV,HRV_0209,2022-11-30 18:51:33
7,"[{'imgObject': {}, 'id': 'salad w chicken', 'src': '/static/foodstim60/salad w chicken.jpg', 'key': 'u', 'origWidth': 411, 'origHeight': 411, 'width': 411, 'height': 411, 'widthPercent': 0.45, 'rescaleHeight': False, 'trialN': 7, 'loaded': True, 'loadedTime': 2251.900000002235, 'positionName': 'LEFT', 'positionCoords': [244.68, 178.5], 'bid': 6.71}, {'imgObject': {}, 'id': 'sushi w_condiments', 'src': '/static/foodstim60/sushi w_condiments.jpg', 'key': 'i', 'origWidth': 410, 'origHeight': 410, 'width': 410, 'height': 410, 'widthPercent': 0.45, 'rescaleHeight': False, 'trialN': 7, 'loaded': True, 'loadedTime': 2452.7000000029802, 'positionName': 'RIGHT', 'positionCoords': [710.32, 179], 'bid': 3.78}]",17169.300000000745,1669833982796,salad w chicken,sushi w_condiments,6.71,3.78,-2.93,salad w chicken,1075.300000000745,1076,1075.9000000022352,True,u,18752.60000000149,1583.300000000745,1669833984379,1583,HRV,HRV_0209,2022-11-30 18:51:33
8,"[{'imgObject': {}, 'id': 'tacos', 'src': '/static/foodstim60/tacos.jpg', 'key': 'u', 'origWidth': 411, 'origHeight': 411, 'width': 411, 'height': 411, 'widthPercent': 0.45, 'rescaleHeight': False, 'trialN': 8, 'loaded': True, 'loadedTime': 2283.10000000149, 'positionName': 'LEFT', 'positionCoords': [244.68, 178.5], 'bid': 8.23}, {'imgObject': {}, 'id': 'eggs', 'src': '/static/foodstim60/eggs.jpg', 'key': 'i', 'origWidth': 409, 'origHeight': 409, 'width': 409, 'height': 409, 'widthPercent': 0.45, 'rescaleHeight': False, 'trialN': 8, 'loaded': True, 'loadedTime': 2461.7000000029802, 'positionName': 'RIGHT', 'positionCoords': [710.32, 179.5], 'bid': 8.25}]",18752.900000002235,1669833984380,tacos,eggs,8.23,8.25,0.019999999999999574,eggs,1106.800000000745,1108,1108.3999999985099,True,i,20368.800000000745,1615.8999999985099,1669833985995,1615,HRV,HRV_0209,2022-11-30 18:51:33
9,"[{'imgObject': {}, 'id': 'roastedpotatoes', 'src': '/static/foodstim60/roastedpotatoes.jpg', 'key': 'u', 'origWidth': 409, 'origHeight': 410, 'width': 409, 'height': 410, 'widthPercent': 0.45, 'rescaleHeight': False, 'trialN': 9, 'loaded': True, 'loadedTime': 2535, 'positionName': 'LEFT', 'positionCoords': [246.68, 179], 'bid': 8.17}, {'imgObject': {}, 'id': 'cocktailshrimp', 'src': '/static/foodstim60/cocktailshrimp.jpg', 'key': 'i', 'origWidth': 410, 'origHeight': 410, 'width': 410, 'height': 410, 'widthPercent': 0.45, 'rescaleHeight': False, 'trialN': 9, 'loaded': True, 'loadedTime': 2606.800000000745, 'positionName': 'RIGHT', 'positionCoords': [710.32, 179], 'bid': 8.16}]",20369.400000002235,1669833985996,roastedpotatoes,cocktailshrimp,8.17,8.16,-0.009999999999999787,cocktailshrimp,1778.699999999255,1780,1779.699999999255,True,i,22656.0,2286.599999997765,1669833988283,2287,HRV,HRV_0209,2022-11-30 18:51:33
10,"[{'imgObject': {}, 'id': 'hotdog w must', 'src': '/static/foodstim60/hotdog w must.jpg', 'key': 'u', 'origWidth': 409, 'origHeight': 409, 'width': 409, 'height': 409, 'widthPercent': 0.45, 'rescaleHeight': False, 'trialN': 10, 'loaded': True, 'loadedTime': 2613.400000002235, 'positionName': 'LEFT', 'positionCoords': [246.68, 179.5], 'bid': 7.16}, {'imgObject': {}, 'id': 'kiwi', 'src': '/static/foodstim60/kiwi.jpg', 'key': 'i', 'origWidth': 410, 'origHeight': 410, 'width': 410, 'height': 410, 'widthPercent': 0.45, 'rescaleHeight': False, 'trialN': 10, 'loaded': True, 'loadedTime': 2700.10000000149, 'positionName': 'RIGHT', 'positionCoords': [710.32, 179], 'bid': 6.8100000000000005}]",22656.70000000298,1669833988283,hotdog w must,kiwi,7.16,6.8100000000000005,-0.34999999999999964,hotdog w must,2065.2999999970198,2069,2068.699999999255,True,u,25232.10000000149,2575.39999999851,1669833990859,2576,HRV,HRV_0209,2022-11-30 18:51:33
11,"[{'imgObject': {}, 'id': 'apple slices', 'src': '/static/foodstim60/apple slices.jpg', 'key': 'u', 'origWidth': 409, 'origHeight': 410, 'width': 409, 'height': 410, 'widthPercent': 0.45, 'rescaleHeight': False, 'trialN': 11, 'loaded': True, 'loadedTime': 2741.7000000029802, 'positionName': 'LEFT', 'positionCoords': [246.68, 179], 'bid': 8.950000000000001}, {'imgObject': {}, 'id': 'blueberries', 'src': '/static/foodstim60/blueberries.jpg', 'key': 'i', 'origWidth': 411, 'origHeight': 411, 'width': 411, 'height': 411, 'widthPercent': 0.45, 'rescaleHeight': False, 'trialN': 11, 'loaded': True, 'loadedTime': 2748.300000000745, 'positionName': 'RIGHT', 'positionCoords': [710.32, 178.5], 'bid': 8.98}]",25232.800000000745,1669833990859,apple slices,blueberries,8.950000000000001,8.98,0.02999999999999936,apple slices,1781.5,1782,1782.0,True,u,27520.20000000298,2287.400000002235,1669833993147,2288,HRV,HRV_0209,2022-11-30 18:51:33
12,"[{'imgObject': {}, 'id': 'strawberries', 'src': '/static/foodstim60/strawberries.jpg', 'key': 'u', 'origWidth': 410, 'origHeight': 410, 'width': 410, 'height': 410, 'widthPercent': 0.45, 'rescaleHeight': False, 'trialN': 12, 'loaded': True, 'loadedTime': 2331.800000000745, 'positionName': 'LEFT', 'positionCoords': [245.68, 179], 'bid': 8.63}, {'imgObject': {}, 'id': 'chicken nuggets2', 'src': '/static/foodstim60/chicken nuggets2.jpg', 'key': 'i', 'origWidth': 410, 'origHeight': 409, 'width': 410, 'height': 409, 'widthPercent': 0.45, 'rescaleHeight': False, 'trialN': 12, 'loaded': True, 'loadedTime': 2777.800000000745, 'positionName': 'RIGHT', 'positionCoords': [710.32, 179.5], 'bid': 8.51}]",27520.800000000745,1669833993147,strawberries,chicken nuggets2,8.63,8.51,-0.120000000000001,chicken nuggets2,2219.900000002235,2221,2220.900000002235,True,i,30248.20000000298,2727.400000002235,1669833995875,2728,HRV,HRV_0209,2022-11-30 18:51:33
13,"[{'imgObject': {}, 'id': 'cantaloupe', 'src': '/static/foodstim60/cantaloupe.jpg', 'key': 'u', 'origWidth': 409, 'origHeight': 409, 'width': 409, 'height': 409, 'widthPercent': 0.45, 'rescaleHeight': False, 'trialN': 13, 'loaded': True, 'loadedTime': 2806.5, 'positionName': 'LEFT', 'positionCoords': [246.68, 179.5], 'bid': 8.39}, {'imgObject': {}, 'id': 'rigatoni', 'src': '/static/foodstim60/rigatoni.jpg', 'key': 'i', 'origWidth': 411, 'origHeight': 411, 'width': 411, 'height': 411, 'widthPercent': 0.45, 'rescaleHeight': False, 'trialN': 13, 'loaded': True, 'loadedTime': 2807.800000000745, 'positionName': 'RIGHT', 'positionCoords': [710.32, 178.5], 'bid': 8.61}]",30248.900000002235,1669833995875,cantaloupe,rigatoni,8.39,8.61,0.21999999999999886,cantaloupe,1719.5999999977648,1721,1720.8999999985099,True,u,32472.20000000298,2223.300000000745,1669833998099,2224,HRV,HRV_0209,2022-11-30 18:51:33
14,"[{'imgObject': {}, 'id': 'turkeysandwich', 'src': '/static/foodstim60/turkeysandwich.jpg', 'key': 'u', 'origWidth': 409, 'origHeight': 409, 'width': 409, 'height': 409, 'widthPercent': 0.45, 'rescaleHeight': False, 'trialN': 14, 'loaded': True, 'loadedTime': 2844, 'positionName': 'LEFT', 'positionCoords': [246.68, 179.5], 'bid': 7.84}, {'imgObject': {}, 'id': 'Tribe humus pita', 'src': '/static/foodstim60/Tribe humus pita.jpg', 'key': 'i', 'origWidth': 411, 'origHeight': 411, 'width': 411, 'height': 411, 'widthPercent': 0.45, 'rescaleHeight': False, 'trialN': 14, 'loaded': True, 'loadedTime': 2847.10000000149, 'positionName': 'RIGHT', 'positionCoords': [710.32, 178.5], 'bid': 7.91}]",32472.900000002235,1669833998099,turkeysandwich,Tribe humus pita,7.84,7.91,0.07000000000000028,turkeysandwich,1840.5,1842,1841.3999999985099,True,u,34816.20000000298,2343.300000000745,1669834000443,2344,HRV,HRV_0209,2022-11-30 18:51:33
15,"[{'imgObject': {}, 'id': 'chickenfingers', 'src': '/static/foodstim60/chickenfingers.jpg', 'key': 'u', 'origWidth': 410, 'origHeight': 410, 'width': 410, 'height': 410, 'widthPercent': 0.45, 'rescaleHeight': False, 'trialN': 15, 'loaded': True, 'loadedTime': 2356, 'positionName': 'LEFT', 'positionCoords': [245.68, 179], 'bid': 8.66}, {'imgObject': {}, 'id': 'hashbrowns', 'src': '/static/foodstim60/hashbrowns.jpg', 'key': 'i', 'origWidth': 411, 'origHeight': 410, 'width': 411, 'height': 410, 'widthPercent': 0.45, 'rescaleHeight': False, 'trialN': 15, 'loaded': True, 'loadedTime': 2853.7000000029802, 'positionName': 'RIGHT', 'positionCoords': [710.32, 179], 'bid': 8.35}]",34816.800000000745,1669834000443,chickenfingers,hashbrowns,8.66,8.35,-0.3100000000000005,hashbrowns,1922.9000000022352,1925,1924.199999999255,True,i,37248.400000002235,2431.60000000149,1669834002875,2432,HRV,HRV_0209,2022-11-30 18:51:33
16,"[{'imgObject': {}, 'id': 'cherry tomato', 'src': '/static/foodstim60/cherry tomato.jpg', 'key': 'u', 'origWidth': 410, 'origHeight': 410, 'width': 410, 'height': 410, 'widthPercent': 0.45, 'rescaleHeight': False, 'trialN': 16, 'loaded': True, 'loadedTime': 2859.400000002235, 'positionName': 'LEFT', 'positionCoords': [245.68, 179], 'bid': 8.93}, {'imgObject': {}, 'id': 'banana', 'src': '/static/foodstim60/banana.jpg', 'key': 'i', 'origWidth': 410, 'origHeight': 410, 'width': 410, 'height': 410, 'widthPercent': 0.45, 'rescaleHeight': False, 'trialN': 16, 'loaded': True, 'loadedTime': 2867.7000000029802, 'positionName': 'RIGHT', 'positionCoords': [710.32, 179], 'bid': 8.790000000000001}]",37249.0,1669834002876,cherry tomato,banana,8.93,8.790000000000001,-0.1399999999999988,cherry tomato,1453.2000000029802,1454,1454.1000000014901,True,u,39208.400000002235,1959.4000000022352,1669834004835,1959,HRV,HRV_0209,2022-11-30 18:51:33
17,"[{'imgObject': {}, 'id': 'mango', 'src': '/static/foodstim60/mango.jpg', 'key': 'u', 'origWidth': 411, 'origHeight': 411, 'width': 411, 'height': 411, 'widthPercent': 0.45, 'rescaleHeight': False, 'trialN': 17, 'loaded': True, 'loadedTime': 2876.400000002235, 'positionName': 'LEFT', 'positionCoords': [244.68, 178.5], 'bid': 8.61}, {'imgObject': {}, 'id': 'blueberries', 'src': '/static/foodstim60/blueberries.jpg', 'key': 'i', 'origWidth': 411, 'origHeight': 411, 'width': 411, 'height': 411, 'widthPercent': 0.45, 'rescaleHeight': False, 'trialN': 17, 'loaded': True, 'loadedTime': 2743.60000000149, 'positionName': 'RIGHT', 'positionCoords': [710.32, 178.5], 'bid': 8.98}]",39209.10000000149,1669834004836,mango,blueberries,8.61,8.98,0.370000000000001,blueberries,1607.6000000014901,1608,1608.6000000014901,True,i,41320.5,2111.39999999851,1669834006947,2111,HRV,HRV_0209,2022-11-30 18:51:33
18,"[{'imgObject': {}, 'id': 'lox', 'src': '/static/foodstim60/lox.jpg', 'key': 'u', 'origWidth': 410, 'origHeight': 411, 'width': 410, 'height': 411, 'widthPercent': 0.45, 'rescaleHeight': False, 'trialN': 18, 'loaded': True, 'loadedTime': 2883.2000000029802, 'positionName': 'LEFT', 'positionCoords': [245.68, 178.5], 'bid': 8}, {'imgObject': {}, 'id': 'grilled chicken strips', 'src': '/static/foodstim60/grilled chicken strips.jpg', 'key': 'i', 'origWidth': 410, 'origHeight': 411, 'width': 410, 'height': 411, 'widthPercent': 0.45, 'rescaleHeight': False, 'trialN': 18, 'loaded': True, 'loadedTime': 2891, 'positionName': 'RIGHT', 'positionCoords': [710.32, 178.5], 'bid': 8.77}]",41321.300000000745,1669834006948,lox,grilled chicken strips,8.0,8.77,0.7699999999999996,grilled chicken strips,953.4000000022352,954,954.3000000007451,True,i,42776.60000000149,1455.300000000745,1669834008403,1455,HRV,HRV_0209,2022-11-30 18:51:33
19,"[{'imgObject': {}, 'id': 'cherries', 'src': '/static/foodstim60/cherries.jpg', 'key': 'u', 'origWidth': 410, 'origHeight': 411, 'width': 410, 'height': 411, 'widthPercent': 0.45, 'rescaleHeight': False, 'trialN': 19, 'loaded': True, 'loadedTime': 2897.400000002235, 'positionName': 'LEFT', 'positionCoords': [245.68, 178.5], 'bid': 7.29}, {'imgObject': {}, 'id': 'cocktailshrimp', 'src': '/static/foodstim60/cocktailshrimp.jpg', 'key': 'i', 'origWidth': 410, 'origHeight': 410, 'width': 410, 'height': 410, 'widthPercent': 0.45, 'rescaleHeight': False, 'trialN': 19, 'loaded': True, 'loadedTime': 2607.7000000029802, 'positionName': 'RIGHT', 'positionCoords': [710.32, 179], 'bid': 8.16}]",42777.20000000298,1669834008404,cherries,cocktailshrimp,7.29,8.16,0.8700000000000001,cocktailshrimp,839.8999999985099,841,841.0,True,i,44120.5,1343.2999999970198,1669834009747,1343,HRV,HRV_0209,2022-11-30 18:51:33
20,"[{'imgObject': {}, 'id': 'avocado', 'src': '/static/foodstim60/avocado.jpg', 'key': 'u', 'origWidth': 409, 'origHeight': 409, 'width': 409, 'height': 409, 'widthPercent': 0.45, 'rescaleHeight': False, 'trialN': 20, 'loaded': True, 'loadedTime': 2245.10000000149, 'positionName': 'LEFT', 'positionCoords': [246.68, 179.5], 'bid': 6.53}, {'imgObject': {}, 'id': 'shreddedwheatwithmilk', 'src': '/static/foodstim60/shreddedwheatwithmilk.jpg', 'key': 'i', 'origWidth': 410, 'origHeight': 410, 'width': 410, 'height': 410, 'widthPercent': 0.45, 'rescaleHeight': False, 'trialN': 20, 'loaded': True, 'loadedTime': 2907.400000002235, 'positionName': 'RIGHT', 'positionCoords': [710.32, 179], 'bid': 7.16}]",44121.0,1669834009748,avocado,shreddedwheatwithmilk,6.53,7.16,0.6299999999999999,shreddedwheatwithmilk,1190.9000000022352,1192,1191.9000000022352,True,i,45816.60000000149,1695.6000000014901,1669834011443,1695,HRV,HRV_0209,2022-11-30 18:51:33
21,"[{'imgObject': {}, 'id': 'rigatoni and sauce', 'src': '/static/foodstim60/rigatoni and sauce.jpg', 'key': 'u', 'origWidth': 410, 'origHeight': 411, 'width': 410, 'height': 411, 'widthPercent': 0.45, 'rescaleHeight': False, 'trialN': 21, 'loaded': True, 'loadedTime': 2148.300000000745, 'positionName': 'LEFT', 'positionCoords': [245.68, 178.5], 'bid': 8.93}, {'imgObject': {}, 'id': 'orange slices', 'src': '/static/foodstim60/orange slices.jpg', 'key': 'i', 'origWidth': 409, 'origHeight': 410, 'width': 409, 'height': 410, 'widthPercent': 0.45, 'rescaleHeight': False, 'trialN': 21, 'loaded': True, 'loadedTime': 2911.800000000745, 'positionName': 'RIGHT', 'positionCoords': [710.32, 179], 'bid': 8.790000000000001}]",45817.10000000149,1669834011444,rigatoni and sauce,orange slices,8.93,8.790000000000001,-0.1399999999999988,orange slices,1473.800000000745,1474,1474.699999999255,True,i,47792.70000000298,1975.6000000014901,1669834013419,1975,HRV,HRV_0209,2022-11-30 18:51:33
22,"[{'imgObject': {}, 'id': 'lox', 'src': '/static/foodstim60/lox.jpg', 'key': 'u', 'origWidth': 410, 'origHeight': 411, 'width': 410, 'height': 411, 'widthPercent': 0.45, 'rescaleHeight': False, 'trialN': 22, 'loaded': True, 'loadedTime': 2883.800000000745, 'positionName': 'LEFT', 'positionCoords': [245.68, 178.5], 'bid': 8}, {'imgObject': {}, 'id': 'hashbrowns', 'src': '/static/foodstim60/hashbrowns.jpg', 'key': 'i', 'origWidth': 411, 'origHeight': 410, 'width': 411, 'height': 410, 'widthPercent': 0.45, 'rescaleHeight': False, 'trialN': 22, 'loaded': True, 'loadedTime': 2849.400000002235, 'positionName': 'RIGHT', 'positionCoords': [710.32, 179], 'bid': 8.35}]",47793.60000000149,1669834013420,lox,hashbrowns,8.0,8.35,0.34999999999999964,hashbrowns,1380.6000000014901,1382,1381.699999999255,True,i,49680.800000000745,1887.199999999255,1669834015307,1887,HRV,HRV_0209,2022-11-30 18:51:33
23,"[{'imgObject': {}, 'id': 'shreddedwheatwithmilk', 'src': '/static/foodstim60/shreddedwheatwithmilk.jpg', 'key': 'u', 'origWidth': 410, 'origHeight': 410, 'width': 410, 'height': 410, 'widthPercent': 0.45, 'rescaleHeight': False, 'trialN': 23, 'loaded': True, 'loadedTime': 2904.2000000029802, 'positionName': 'LEFT', 'positionCoords': [245.68, 179], 'bid': 7.16}, {'imgObject': {}, 'id': 'cherries', 'src': '/static/foodstim60/cherries.jpg', 'key': 'i', 'origWidth': 410, 'origHeight': 411, 'width': 410, 'height': 411, 'widthPercent': 0.45, 'rescaleHeight': False, 'trialN': 23, 'loaded': True, 'loadedTime': 2897.60000000149, 'positionName': 'RIGHT', 'positionCoords': [710.32, 178.5], 'bid': 7.29}]",49681.400000002235,1669834015308,shreddedwheatwithmilk,cherries,7.16,7.29,0.1299999999999999,shreddedwheatwithmilk,2109,2110,2109.699999999255,True,u,52296.800000000745,2615.39999999851,1669834017923,2615,HRV,HRV_0209,2022-11-30 18:51:33
24,"[{'imgObject': {}, 'id': 'popsicles', 'src': '/static/foodstim60/popsicles.jpg', 'key': 'u', 'origWidth': 410, 'origHeight': 410, 'width': 410, 'height': 410, 'widthPercent': 0.45, 'rescaleHeight': False, 'trialN': 24, 'loaded': True, 'loadedTime': 2919.10000000149, 'positionName': 'LEFT', 'positionCoords': [245.68, 179], 'bid': 7.97}, {'imgObject': {}, 'id': 'burger', 'src': '/static/foodstim60/burger.jpg', 'key': 'i', 'origWidth': 409, 'origHeight': 409, 'width': 409, 'height': 409, 'widthPercent': 0.45, 'rescaleHeight': False, 'trialN': 24, 'loaded': True, 'loadedTime': 2973, 'positionName': 'RIGHT', 'positionCoords': [710.32, 179.5], 'bid': 8.71}]",52297.300000000745,1669834017924,popsicles,burger,7.97,8.71,0.7400000000000011,burger,2048.199999999255,2050,2049.800000000745,True,i,54848.70000000298,2551.400000002235,1669834020475,2551,HRV,HRV_0209,2022-11-30 18:51:33
25,"[{'imgObject': {}, 'id': 'blueberries', 'src': '/static/foodstim60/blueberries.jpg', 'key': 'u', 'origWidth': 411, 'origHeight': 411, 'width': 411, 'height': 411, 'widthPercent': 0.45, 'rescaleHeight': False, 'trialN': 25, 'loaded': True, 'loadedTime': 2749.60000000149, 'positionName': 'LEFT', 'positionCoords': [244.68, 178.5], 'bid': 8.98}, {'imgObject': {}, 'id': 'banana', 'src': '/static/foodstim60/banana.jpg', 'key': 'i', 'origWidth': 410, 'origHeight': 410, 'width': 410, 'height': 410, 'widthPercent': 0.45, 'rescaleHeight': False, 'trialN': 25, 'loaded': True, 'loadedTime': 2864.7000000029802, 'positionName': 'RIGHT', 'positionCoords': [710.32, 179], 'bid': 8.790000000000001}]",54849.20000000298,1669834020476,blueberries,banana,8.98,8.790000000000001,-0.1899999999999995,blueberries,1121,1122,1121.8999999985099,True,u,56471.900000002235,1622.699999999255,1669834022098,1622,HRV,HRV_0209,2022-11-30 18:51:33
26,"[{'imgObject': {}, 'id': 'mango', 'src': '/static/foodstim60/mango.jpg', 'key': 'u', 'origWidth': 411, 'origHeight': 411, 'width': 411, 'height': 411, 'widthPercent': 0.45, 'rescaleHeight': False, 'trialN': 26, 'loaded': True, 'loadedTime': 2874, 'positionName': 'LEFT', 'positionCoords': [244.68, 178.5], 'bid': 8.61}, {'imgObject': {}, 'id': 'raisin bran w milk', 'src': '/static/foodstim60/raisin bran w milk.jpg', 'key': 'i', 'origWidth': 411, 'origHeight': 411, 'width': 411, 'height': 411, 'widthPercent': 0.45, 'rescaleHeight': False, 'trialN': 26, 'loaded': True, 'loadedTime': 3013.7000000029802, 'positionName': 'RIGHT', 'positionCoords': [710.32, 178.5], 'bid': 7.65}]",56472.5,1669834022099,mango,raisin bran w milk,8.61,7.65,-0.9599999999999991,mango,2443.2000000029802,2444,2444.2000000029802,True,u,59423.900000002235,2951.400000002235,1669834025051,2952,HRV,HRV_0209,2022-11-30 18:51:33
27,"[{'imgObject': {}, 'id': 'blueberries', 'src': '/static/foodstim60/blueberries.jpg', 'key': 'u', 'origWidth': 411, 'origHeight': 411, 'width': 411, 'height': 411, 'widthPercent': 0.45, 'rescaleHeight': False, 'trialN': 27, 'loaded': True, 'loadedTime': 2749.400000002235, 'positionName': 'LEFT', 'positionCoords': [244.68, 178.5], 'bid': 8.98}, {'imgObject': {}, 'id': 'tacos', 'src': '/static/foodstim60/tacos.jpg', 'key': 'i', 'origWidth': 411, 'origHeight': 411, 'width': 411, 'height': 411, 'widthPercent': 0.45, 'rescaleHeight': False, 'trialN': 27, 'loaded': True, 'loadedTime': 2283.7000000029802, 'positionName': 'RIGHT', 'positionCoords': [710.32, 178.5], 'bid': 8.23}]",59424.5,1669834025051,blueberries,tacos,8.98,8.23,-0.75,blueberries,1095.7000000029802,1097,1096.6000000014901,True,u,61024.0,1599.5,1669834026651,1600,HRV,HRV_0209,2022-11-30 18:51:33
28,"[{'imgObject': {}, 'id': 'steak', 'src': '/static/foodstim60/steak.jpg', 'key': 'u', 'origWidth': 410, 'origHeight': 410, 'width': 410, 'height': 410, 'widthPercent': 0.45, 'rescaleHeight': False, 'trialN': 28, 'loaded': True, 'loadedTime': 3020.7000000029802, 'positionName': 'LEFT', 'positionCoords': [245.68, 179], 'bid': 9.2}, {'imgObject': {}, 'id': 'eggs', 'src': '/static/foodstim60/eggs.jpg', 'key': 'i', 'origWidth': 409, 'origHeight': 409, 'width': 409, 'height': 409, 'widthPercent': 0.45, 'rescaleHeight': False, 'trialN': 28, 'loaded': True, 'loadedTime': 2460.900000002235, 'positionName': 'RIGHT', 'positionCoords': [710.32, 179.5], 'bid': 8.25}]",61024.60000000149,1669834026651,steak,eggs,9.2,8.25,-0.9499999999999993,steak,1031.199999999255,1032,1032.0,True,u,62559.900000002235,1535.300000000745,1669834028186,1535,HRV,HRV_0209,2022-11-30 18:51:33
29,"[{'imgObject': {}, 'id': 'tacos', 'src': '/static/foodstim60/tacos.jpg', 'key': 'u', 'origWidth': 411, 'origHeight': 411, 'width': 411, 'height': 411, 'widthPercent': 0.45, 'rescaleHeight': False, 'trialN': 29, 'loaded': True, 'loadedTime': 2283.900000002235, 'positionName': 'LEFT', 'positionCoords': [244.68, 178.5], 'bid': 8.23}, {'imgObject': {}, 'id': 'luckycharms', 'src': '/static/foodstim60/luckycharms.jpg', 'key': 'i', 'origWidth': 410, 'origHeight': 409, 'width': 410, 'height': 409, 'widthPercent': 0.45, 'rescaleHeight': False, 'trialN': 29, 'loaded': True, 'loadedTime': 3024.2000000029802, 'positionName': 'RIGHT', 'positionCoords': [710.32, 179.5], 'bid': 8.38}]",62560.20000000298,1669834028187,tacos,luckycharms,8.23,8.38,0.15000000000000036,luckycharms,1063.199999999255,1064,1064.0999999977648,True,i,64128.10000000149,1567.8999999985099,1669834029755,1568,HRV,HRV_0209,2022-11-30 18:51:33
30,"[{'imgObject': {}, 'id': 'edamame', 'src': '/static/foodstim60/edamame.jpg', 'key': 'u', 'origWidth': 409, 'origHeight': 410, 'width': 409, 'height': 410, 'widthPercent': 0.45, 'rescaleHeight': False, 'trialN': 30, 'loaded': True, 'loadedTime': 2355.60000000149, 'positionName': 'LEFT', 'positionCoords': [246.68, 179], 'bid': 8.52}, {'imgObject': {}, 'id': 'burger', 'src': '/static/foodstim60/burger.jpg', 'key': 'i', 'origWidth': 409, 'origHeight': 409, 'width': 409, 'height': 409, 'widthPercent': 0.45, 'rescaleHeight': False, 'trialN': 30, 'loaded': True, 'loadedTime': 2972.60000000149, 'positionName': 'RIGHT', 'positionCoords': [710.32, 179.5], 'bid': 8.71}]",64128.800000000745,1669834029755,edamame,burger,8.52,8.71,0.19000000000000128,burger,1430.800000000745,1432,1431.699999999255,True,i,66064.10000000149,1935.300000000745,1669834031691,1936,HRV,HRV_0209,2022-11-30 18:51:33
31,"[{'imgObject': {}, 'id': 'bagel and cc', 'src': '/static/foodstim60/bagel and cc.jpg', 'key': 'u', 'origWidth': 410, 'origHeight': 410, 'width': 410, 'height': 410, 'widthPercent': 0.45, 'rescaleHeight': False, 'trialN': 31, 'loaded': True, 'loadedTime': 3032.2000000029802, 'positionName': 'LEFT', 'positionCoords': [245.68, 179], 'bid': 8.2}, {'imgObject': {}, 'id': 'burrito', 'src': '/static/foodstim60/burrito.jpg', 'key': 'i', 'origWidth': 410, 'origHeight': 410, 'width': 410, 'height': 410, 'widthPercent': 0.45, 'rescaleHeight': False, 'trialN': 31, 'loaded': True, 'loadedTime': 3055.900000002235, 'positionName': 'RIGHT', 'positionCoords': [710.32, 179], 'bid': 8.38}]",66064.70000000298,1669834031691,bagel and cc,burrito,8.2,8.38,0.1800000000000015,burrito,1273.699999999255,1275,1274.7999999970198,True,i,67840.20000000298,1775.5,1669834033469,1778,HRV,HRV_0209,2022-11-30 18:51:33
32,"[{'imgObject': {}, 'id': 'granola w milk', 'src': '/static/foodstim60/granola w milk.jpg', 'key': 'u', 'origWidth': 410, 'origHeight': 410, 'width': 410, 'height': 410, 'widthPercent': 0.45, 'rescaleHeight': False, 'trialN': 32, 'loaded': True, 'loadedTime': 3078.5, 'positionName': 'LEFT', 'positionCoords': [245.68, 179], 'bid': 7.4}, {'imgObject': {}, 'id': 'shreddedwheatwithmilk', 'src': '/static/foodstim60/shreddedwheatwithmilk.jpg', 'key': 'i', 'origWidth': 410, 'origHeight': 410, 'width': 410, 'height': 410, 'widthPercent': 0.45, 'rescaleHeight': False, 'trialN': 32, 'loaded': True, 'loadedTime': 2903.300000000745, 'positionName': 'RIGHT', 'positionCoords': [710.32, 179], 'bid': 7.16}]",67840.70000000298,1669834033469,granola w milk,shreddedwheatwithmilk,7.4,7.16,-0.2400000000000002,granola w milk,1483.699999999255,1485,1485.0999999977648,True,u,69832.30000000075,1991.5999999977648,1669834035461,1992,HRV,HRV_0209,2022-11-30 18:51:33
33,"[{'imgObject': {}, 'id': 'burger', 'src': '/static/foodstim60/burger.jpg', 'key': 'u', 'origWidth': 409, 'origHeight': 409, 'width': 409, 'height': 409, 'widthPercent': 0.45, 'rescaleHeight': False, 'trialN': 33, 'loaded': True, 'loadedTime': 2934.7000000029802, 'positionName': 'LEFT', 'positionCoords': [246.68, 179.5], 'bid': 8.71}, {'imgObject': {}, 'id': 'grilled chicken strips', 'src': '/static/foodstim60/grilled chicken strips.jpg', 'key': 'i', 'origWidth': 410, 'origHeight': 411, 'width': 410, 'height': 411, 'widthPercent': 0.45, 'rescaleHeight': False, 'trialN': 33, 'loaded': True, 'loadedTime': 2888.900000002235, 'positionName': 'RIGHT', 'positionCoords': [710.32, 178.5], 'bid': 8.77}]",69833.0,1669834035461,burger,grilled chicken strips,8.71,8.77,0.05999999999999872,grilled chicken strips,1646.4000000022352,1648,1647.5,True,i,71984.90000000224,2151.900000002235,1669834037613,2152,HRV,HRV_0209,2022-11-30 18:51:33
34,"[{'imgObject': {}, 'id': 'pear', 'src': '/static/foodstim60/pear.jpg', 'key': 'u', 'origWidth': 411, 'origHeight': 410, 'width': 411, 'height': 410, 'widthPercent': 0.45, 'rescaleHeight': False, 'trialN': 34, 'loaded': True, 'loadedTime': 3083.300000000745, 'positionName': 'LEFT', 'positionCoords': [244.68, 179], 'bid': 8.68}, {'imgObject': {}, 'id': 'burger', 'src': '/static/foodstim60/burger.jpg', 'key': 'i', 'origWidth': 409, 'origHeight': 409, 'width': 409, 'height': 409, 'widthPercent': 0.45, 'rescaleHeight': False, 'trialN': 34, 'loaded': True, 'loadedTime': 2971.7000000029802, 'positionName': 'RIGHT', 'positionCoords': [710.32, 179.5], 'bid': 8.71}]",71985.20000000298,1669834037614,pear,burger,8.68,8.71,0.030000000000001137,burger,707.1999999992549,711,711.8999999985099,True,i,73200.20000000298,1215.0,1669834038829,1215,HRV,HRV_0209,2022-11-30 18:51:33
35,"[{'imgObject': {}, 'id': 'avocado', 'src': '/static/foodstim60/avocado.jpg', 'key': 'u', 'origWidth': 409, 'origHeight': 409, 'width': 409, 'height': 409, 'widthPercent': 0.45, 'rescaleHeight': False, 'trialN': 35, 'loaded': True, 'loadedTime': 2248.7000000029802, 'positionName': 'LEFT', 'positionCoords': [246.68, 179.5], 'bid': 6.53}, {'imgObject': {}, 'id': 'turkeysandwich', 'src': '/static/foodstim60/turkeysandwich.jpg', 'key': 'i', 'origWidth': 409, 'origHeight': 409, 'width': 409, 'height': 409, 'widthPercent': 0.45, 'rescaleHeight': False, 'trialN': 35, 'loaded': True, 'loadedTime': 2844.7000000029802, 'positionName': 'RIGHT', 'positionCoords': [710.32, 179.5], 'bid': 7.84}]",73200.90000000224,1669834038829,avocado,turkeysandwich,6.53,7.84,1.3099999999999996,turkeysandwich,1171.0999999977648,1172,1172.0999999977648,True,i,74880.40000000224,1679.5,1669834040509,1680,HRV,HRV_0209,2022-11-30 18:51:33
36,"[{'imgObject': {}, 'id': 'grilled chicken strips', 'src': '/static/foodstim60/grilled chicken strips.jpg', 'key': 'u', 'origWidth': 410, 'origHeight': 411, 'width': 410, 'height': 411, 'widthPercent': 0.45, 'rescaleHeight': False, 'trialN': 36, 'loaded': True, 'loadedTime': 2890.300000000745, 'positionName': 'LEFT', 'positionCoords': [245.68, 178.5], 'bid': 8.77}, {'imgObject': {}, 'id': 'froot loops w milk', 'src': '/static/foodstim60/froot loops w milk.jpg', 'key': 'i', 'origWidth': 410, 'origHeight': 410, 'width': 410, 'height': 410, 'widthPercent': 0.45, 'rescaleHeight': False, 'trialN': 36, 'loaded': True, 'loadedTime': 3089.800000000745, 'positionName': 'RIGHT', 'positionCoords': [710.32, 179], 'bid': 8.55}]",74881.10000000149,1669834040510,grilled chicken strips,froot loops w milk,8.77,8.55,-0.21999999999999886,grilled chicken strips,1190.1000000014901,1191,1191.1000000014901,True,u,76576.40000000224,1695.300000000745,1669834042205,1695,HRV,HRV_0209,2022-11-30 18:51:33
37,"[{'imgObject': {}, 'id': 'rigatoni and sauce', 'src': '/static/foodstim60/rigatoni and sauce.jpg', 'key': 'u', 'origWidth': 410, 'origHeight': 411, 'width': 410, 'height': 411, 'widthPercent': 0.45, 'rescaleHeight': False, 'trialN': 37, 'loaded': True, 'loadedTime': 2144.800000000745, 'positionName': 'LEFT', 'positionCoords': [245.68, 178.5], 'bid': 8.93}, {'imgObject': {}, 'id': 'cherry tomato', 'src': '/static/foodstim60/cherry tomato.jpg', 'key': 'i', 'origWidth': 410, 'origHeight': 410, 'width': 410, 'height': 410, 'widthPercent': 0.45, 'rescaleHeight': False, 'trialN': 37, 'loaded': True, 'loadedTime': 2858.2000000029802, 'positionName': 'RIGHT', 'positionCoords': [710.32, 179], 'bid': 8.93}]",76577.10000000149,1669834042206,rigatoni and sauce,cherry tomato,8.93,8.93,0.0,rigatoni and sauce,1648.699999999255,1649,1649.800000000745,True,u,78728.60000000149,2151.5,1669834044357,2151,HRV,HRV_0209,2022-11-30 18:51:33
38,"[{'imgObject': {}, 'id': 'froot loops w milk', 'src': '/static/foodstim60/froot loops w milk.jpg', 'key': 'u', 'origWidth': 410, 'origHeight': 410, 'width': 410, 'height': 410, 'widthPercent': 0.45, 'rescaleHeight': False, 'trialN': 38, 'loaded': True, 'loadedTime': 3088.60000000149, 'positionName': 'LEFT', 'positionCoords': [245.68, 179], 'bid': 8.55}, {'imgObject': {}, 'id': 'fruitsalad', 'src': '/static/foodstim60/fruitsalad.jpg', 'key': 'i', 'origWidth': 410, 'origHeight': 410, 'width': 410, 'height': 410, 'widthPercent': 0.45, 'rescaleHeight': False, 'trialN': 38, 'loaded': True, 'loadedTime': 3111.900000002235, 'positionName': 'RIGHT', 'positionCoords': [710.32, 179], 'bid': 8.66}]",78729.10000000149,1669834044358,froot loops w milk,fruitsalad,8.55,8.66,0.10999999999999943,fruitsalad,1975.5,1976,1976.3999999985099,True,i,81208.5,2479.39999999851,1669834046837,2479,HRV,HRV_0209,2022-11-30 18:51:33
39,"[{'imgObject': {}, 'id': 'hashbrowns', 'src': '/static/foodstim60/hashbrowns.jpg', 'key': 'u', 'origWidth': 411, 'origHeight': 410, 'width': 411, 'height': 410, 'widthPercent': 0.45, 'rescaleHeight': False, 'trialN': 39, 'loaded': True, 'loadedTime': 2852.300000000745, 'positionName': 'LEFT', 'positionCoords': [244.68, 179], 'bid': 8.35}, {'imgObject': {}, 'id': 'roastedpotatoes', 'src': '/static/foodstim60/roastedpotatoes.jpg', 'key': 'i', 'origWidth': 409, 'origHeight': 410, 'width': 409, 'height': 410, 'widthPercent': 0.45, 'rescaleHeight': False, 'trialN': 39, 'loaded': True, 'loadedTime': 2531.900000002235, 'positionName': 'RIGHT', 'positionCoords': [710.32, 179], 'bid': 8.17}]",81209.10000000149,1669834046838,hashbrowns,roastedpotatoes,8.35,8.17,-0.17999999999999972,hashbrowns,1807.5,1808,1808.6000000014901,True,u,83520.60000000149,2311.5,1669834049149,2311,HRV,HRV_0209,2022-11-30 18:51:33
40,"[{'imgObject': {}, 'id': 'sweetpotato', 'src': '/static/foodstim60/sweetpotato.jpg', 'key': 'u', 'origWidth': 410, 'origHeight': 410, 'width': 410, 'height': 410, 'widthPercent': 0.45, 'rescaleHeight': False, 'trialN': 40, 'loaded': True, 'loadedTime': 3116.60000000149, 'positionName': 'LEFT', 'positionCoords': [245.68, 179], 'bid': 8.44}, {'imgObject': {}, 'id': 'chicken nuggets2', 'src': '/static/foodstim60/chicken nuggets2.jpg', 'key': 'i', 'origWidth': 410, 'origHeight': 409, 'width': 410, 'height': 409, 'widthPercent': 0.45, 'rescaleHeight': False, 'trialN': 40, 'loaded': True, 'loadedTime': 2772.900000002235, 'positionName': 'RIGHT', 'positionCoords': [710.32, 179.5], 'bid': 8.51}]",83521.30000000075,1669834049150,sweetpotato,chicken nuggets2,8.44,8.51,0.07000000000000028,chicken nuggets2,916.4000000022352,917,917.5,True,i,84944.60000000149,1423.300000000745,1669834050573,1423,HRV,HRV_0209,2022-11-30 18:51:33
41,"[{'imgObject': {}, 'id': 'rigatoni', 'src': '/static/foodstim60/rigatoni.jpg', 'key': 'u', 'origWidth': 411, 'origHeight': 411, 'width': 411, 'height': 411, 'widthPercent': 0.45, 'rescaleHeight': False, 'trialN': 41, 'loaded': True, 'loadedTime': 2812, 'positionName': 'LEFT', 'positionCoords': [244.68, 178.5], 'bid': 8.61}, {'imgObject': {}, 'id': 'veggieswithdip', 'src': '/static/foodstim60/veggieswithdip.jpg', 'key': 'i', 'origWidth': 409, 'origHeight': 409, 'width': 409, 'height': 409, 'widthPercent': 0.45, 'rescaleHeight': False, 'trialN': 41, 'loaded': True, 'loadedTime': 3198.400000002235, 'positionName': 'RIGHT', 'positionCoords': [710.32, 179.5], 'bid': 7.65}]",84945.30000000075,1669834050574,rigatoni,veggieswithdip,8.61,7.65,-0.9599999999999991,rigatoni,1275.199999999255,1276,1276.1000000014901,True,u,86728.80000000075,1783.5,1669834052357,1783,HRV,HRV_0209,2022-11-30 18:51:33
42,"[{'imgObject': {}, 'id': 'cheerios', 'src': '/static/foodstim60/cheerios.jpg', 'key': 'u', 'origWidth': 409, 'origHeight': 410, 'width': 409, 'height': 410, 'widthPercent': 0.45, 'rescaleHeight': False, 'trialN': 42, 'loaded': True, 'loadedTime': 3202.2000000029802, 'positionName': 'LEFT', 'positionCoords': [246.68, 179], 'bid': 7.84}, {'imgObject': {}, 'id': 'turkeysandwich', 'src': '/static/foodstim60/turkeysandwich.jpg', 'key': 'i', 'origWidth': 409, 'origHeight': 409, 'width': 409, 'height': 409, 'widthPercent': 0.45, 'rescaleHeight': False, 'trialN': 42, 'loaded': True, 'loadedTime': 2841.60000000149, 'positionName': 'RIGHT', 'positionCoords': [710.32, 179.5], 'bid': 7.84}]",86729.90000000224,1669834052358,cheerios,turkeysandwich,7.84,7.84,0.0,turkeysandwich,1260.3999999985099,1262,1261.699999999255,True,i,88496.80000000075,1766.8999999985099,1669834054125,1767,HRV,HRV_0209,2022-11-30 18:51:33
43,"[{'imgObject': {}, 'id': 'strawberries', 'src': '/static/foodstim60/strawberries.jpg', 'key': 'u', 'origWidth': 410, 'origHeight': 410, 'width': 410, 'height': 410, 'widthPercent': 0.45, 'rescaleHeight': False, 'trialN': 43, 'loaded': True, 'loadedTime': 2332.10000000149, 'positionName': 'LEFT', 'positionCoords': [245.68, 179], 'bid': 8.63}, {'imgObject': {}, 'id': 'rigatoni and sauce', 'src': '/static/foodstim60/rigatoni and sauce.jpg', 'key': 'i', 'origWidth': 410, 'origHeight': 411, 'width': 410, 'height': 411, 'widthPercent': 0.45, 'rescaleHeight': False, 'trialN': 43, 'loaded': True, 'loadedTime': 2147.900000002235, 'positionName': 'RIGHT', 'positionCoords': [710.32, 178.5], 'bid': 8.93}]",88497.40000000224,1669834054126,strawberries,rigatoni and sauce,8.63,8.93,0.29999999999999893,strawberries,2576.699999999255,2578,2578.5,True,u,91576.90000000224,3079.5,1669834057205,3079,HRV,HRV_0209,2022-11-30 18:51:33
44,"[{'imgObject': {}, 'id': 'shreddedwheatwithmilk', 'src': '/static/foodstim60/shreddedwheatwithmilk.jpg', 'key': 'u', 'origWidth': 410, 'origHeight': 410, 'width': 410, 'height': 410, 'widthPercent': 0.45, 'rescaleHeight': False, 'trialN': 44, 'loaded': True, 'loadedTime': 2904.400000002235, 'positionName': 'LEFT', 'positionCoords': [245.68, 179], 'bid': 7.16}, {'imgObject': {}, 'id': 'omelette', 'src': '/static/foodstim60/omelette.jpg', 'key': 'i', 'origWidth': 410, 'origHeight': 409, 'width': 410, 'height': 409, 'widthPercent': 0.45, 'rescaleHeight': False, 'trialN': 44, 'loaded': True, 'loadedTime': 3204.900000002235, 'positionName': 'RIGHT', 'positionCoords': [710.32, 179.5], 'bid': 8.08}]",91577.60000000149,1669834057206,shreddedwheatwithmilk,omelette,7.16,8.08,0.9199999999999999,omelette,1606.5,1608,1607.800000000745,True,i,93688.40000000224,2110.800000000745,1669834059317,2111,HRV,HRV_0209,2022-11-30 18:51:33
45,"[{'imgObject': {}, 'id': 'mac & cheese', 'src': '/static/foodstim60/mac & cheese.jpg', 'key': 'u', 'origWidth': 410, 'origHeight': 410, 'width': 410, 'height': 410, 'widthPercent': 0.45, 'rescaleHeight': False, 'trialN': 45, 'loaded': True, 'loadedTime': 3214.2000000029802, 'positionName': 'LEFT', 'positionCoords': [245.68, 179], 'bid': 8.950000000000001}, {'imgObject': {}, 'id': 'rigatoni', 'src': '/static/foodstim60/rigatoni.jpg', 'key': 'i', 'origWidth': 411, 'origHeight': 411, 'width': 411, 'height': 411, 'widthPercent': 0.45, 'rescaleHeight': False, 'trialN': 45, 'loaded': True, 'loadedTime': 2811.7000000029802, 'positionName': 'RIGHT', 'positionCoords': [710.32, 178.5], 'bid': 8.61}]",93688.90000000224,1669834059317,mac & cheese,rigatoni,8.950000000000001,8.61,-0.34000000000000163,mac & cheese,1774.0999999977648,1775,1775.0999999977648,True,u,95967.90000000224,2279.0,1669834061596,2279,HRV,HRV_0209,2022-11-30 18:51:33
46,"[{'imgObject': {}, 'id': 'roastedpotatoes', 'src': '/static/foodstim60/roastedpotatoes.jpg', 'key': 'u', 'origWidth': 409, 'origHeight': 410, 'width': 409, 'height': 410, 'widthPercent': 0.45, 'rescaleHeight': False, 'trialN': 46, 'loaded': True, 'loadedTime': 2536.5, 'positionName': 'LEFT', 'positionCoords': [246.68, 179], 'bid': 8.17}, {'imgObject': {}, 'id': 'corn cob', 'src': '/static/foodstim60/corn cob.jpg', 'key': 'i', 'origWidth': 411, 'origHeight': 411, 'width': 411, 'height': 411, 'widthPercent': 0.45, 'rescaleHeight': False, 'trialN': 46, 'loaded': True, 'loadedTime': 3218.800000000745, 'positionName': 'RIGHT', 'positionCoords': [710.32, 178.5], 'bid': 8.39}]",95968.60000000149,1669834061597,roastedpotatoes,corn cob,8.17,8.39,0.22000000000000064,roastedpotatoes,2767.89999999851,2768,2768.39999999851,True,u,99240.0,3271.39999999851,1669834064868,3271,HRV,HRV_0209,2022-11-30 18:51:33
47,"[{'imgObject': {}, 'id': 'shreddedwheatwithmilk', 'src': '/static/foodstim60/shreddedwheatwithmilk.jpg', 'key': 'u', 'origWidth': 410, 'origHeight': 410, 'width': 410, 'height': 410, 'widthPercent': 0.45, 'rescaleHeight': False, 'trialN': 47, 'loaded': True, 'loadedTime': 2899, 'positionName': 'LEFT', 'positionCoords': [245.68, 179], 'bid': 7.16}, {'imgObject': {}, 'id': 'blackbeanswithrice', 'src': '/static/foodstim60/blackbeanswithrice.jpg', 'key': 'i', 'origWidth': 410, 'origHeight': 410, 'width': 410, 'height': 410, 'widthPercent': 0.45, 'rescaleHeight': False, 'trialN': 47, 'loaded': True, 'loadedTime': 3220.400000002235, 'positionName': 'RIGHT', 'positionCoords': [710.32, 179], 'bid': 7.91}]",99240.60000000149,1669834064869,shreddedwheatwithmilk,blackbeanswithrice,7.16,7.91,0.75,shreddedwheatwithmilk,1459.5,1460,1460.3999999985099,True,u,101208.0,1967.3999999985099,1669834066836,1967,HRV,HRV_0209,2022-11-30 18:51:33
48,"[{'imgObject': {}, 'id': 'turkey sandwich', 'src': '/static/foodstim60/turkey sandwich.jpg', 'key': 'u', 'origWidth': 409, 'origHeight': 409, 'width': 409, 'height': 409, 'widthPercent': 0.45, 'rescaleHeight': False, 'trialN': 48, 'loaded': True, 'loadedTime': 3232.800000000745, 'positionName': 'LEFT', 'positionCoords': [246.68, 179.5], 'bid': 8.51}, {'imgObject': {}, 'id': 'orange slices', 'src': '/static/foodstim60/orange slices.jpg', 'key': 'i', 'origWidth': 409, 'origHeight': 410, 'width': 409, 'height': 410, 'widthPercent': 0.45, 'rescaleHeight': False, 'trialN': 48, 'loaded': True, 'loadedTime': 2913.800000000745, 'positionName': 'RIGHT', 'positionCoords': [710.32, 179], 'bid': 8.790000000000001}]",101208.40000000224,1669834066837,turkey sandwich,orange slices,8.51,8.790000000000001,0.28000000000000114,orange slices,1400.300000000745,1401,1401.199999999255,True,i,103112.10000000149,1903.699999999255,1669834068741,1904,HRV,HRV_0209,2022-11-30 18:51:33
49,"[{'imgObject': {}, 'id': 'cherries', 'src': '/static/foodstim60/cherries.jpg', 'key': 'u', 'origWidth': 410, 'origHeight': 411, 'width': 410, 'height': 411, 'widthPercent': 0.45, 'rescaleHeight': False, 'trialN': 49, 'loaded': True, 'loadedTime': 2892.60000000149, 'positionName': 'LEFT', 'positionCoords': [245.68, 178.5], 'bid': 7.29}, {'imgObject': {}, 'id': 'eggsalad', 'src': '/static/foodstim60/eggsalad.jpg', 'key': 'i', 'origWidth': 410, 'origHeight': 409, 'width': 410, 'height': 409, 'widthPercent': 0.45, 'rescaleHeight': False, 'trialN': 49, 'loaded': True, 'loadedTime': 3240.400000002235, 'positionName': 'RIGHT', 'positionCoords': [710.32, 179.5], 'bid': 7.51}]",103112.80000000075,1669834068741,cherries,eggsalad,7.29,7.51,0.21999999999999975,cherries,1723.800000000745,1725,1724.699999999255,True,u,105344.20000000298,2231.400000002235,1669834070973,2232,HRV,HRV_0209,2022-11-30 18:51:33
50,"[{'imgObject': {}, 'id': 'rigatoni', 'src': '/static/foodstim60/rigatoni.jpg', 'key': 'u', 'origWidth': 411, 'origHeight': 411, 'width': 411, 'height': 411, 'widthPercent': 0.45, 'rescaleHeight': False, 'trialN': 50, 'loaded': True, 'loadedTime': 2839.300000000745, 'positionName': 'LEFT', 'positionCoords': [244.68, 178.5], 'bid': 8.61}, {'imgObject': {}, 'id': 'banana', 'src': '/static/foodstim60/banana.jpg', 'key': 'i', 'origWidth': 410, 'origHeight': 410, 'width': 410, 'height': 410, 'widthPercent': 0.45, 'rescaleHeight': False, 'trialN': 50, 'loaded': True, 'loadedTime': 2865.300000000745, 'positionName': 'RIGHT', 'positionCoords': [710.32, 179], 'bid': 8.790000000000001}]",105344.70000000298,1669834070973,rigatoni,banana,8.61,8.790000000000001,0.1800000000000015,banana,1669.5999999977648,1671,1670.5999999977648,True,i,107520.30000000075,2175.599999997765,1669834073149,2176,HRV,HRV_0209,2022-11-30 18:51:33
51,"[{'imgObject': {}, 'id': 'cantaloupe', 'src': '/static/foodstim60/cantaloupe.jpg', 'key': 'u', 'origWidth': 409, 'origHeight': 409, 'width': 409, 'height': 409, 'widthPercent': 0.45, 'rescaleHeight': False, 'trialN': 51, 'loaded': True, 'loadedTime': 2803.10000000149, 'positionName': 'LEFT', 'positionCoords': [246.68, 179.5], 'bid': 8.39}, {'imgObject': {}, 'id': 'baked potato', 'src': '/static/foodstim60/baked potato.jpg', 'key': 'i', 'origWidth': 409, 'origHeight': 410, 'width': 409, 'height': 410, 'widthPercent': 0.45, 'rescaleHeight': False, 'trialN': 51, 'loaded': True, 'loadedTime': 3292, 'positionName': 'RIGHT', 'positionCoords': [710.32, 179], 'bid': 8.2}]",107520.90000000224,1669834073149,cantaloupe,baked potato,8.39,8.2,-0.19000000000000128,cantaloupe,1440.0999999977648,1441,1441.0,True,u,109464.30000000075,1943.3999999985099,1669834075093,1944,HRV,HRV_0209,2022-11-30 18:51:33
52,"[{'imgObject': {}, 'id': 'bagel and cc', 'src': '/static/foodstim60/bagel and cc.jpg', 'key': 'u', 'origWidth': 410, 'origHeight': 410, 'width': 410, 'height': 410, 'widthPercent': 0.45, 'rescaleHeight': False, 'trialN': 52, 'loaded': True, 'loadedTime': 3028.300000000745, 'positionName': 'LEFT', 'positionCoords': [245.68, 179], 'bid': 8.2}, {'imgObject': {}, 'id': 'baked potato', 'src': '/static/foodstim60/baked potato.jpg', 'key': 'i', 'origWidth': 409, 'origHeight': 410, 'width': 409, 'height': 410, 'widthPercent': 0.45, 'rescaleHeight': False, 'trialN': 52, 'loaded': True, 'loadedTime': 3290.900000002235, 'positionName': 'RIGHT', 'positionCoords': [710.32, 179], 'bid': 8.2}]",109465.0,1669834075094,bagel and cc,baked potato,8.2,8.2,0.0,bagel and cc,1663.7000000029802,1664,1664.4000000022352,True,u,111632.30000000075,2167.300000000745,1669834077261,2167,HRV,HRV_0209,2022-11-30 18:51:33
53,"[{'imgObject': {}, 'id': 'chicken nuggets2', 'src': '/static/foodstim60/chicken nuggets2.jpg', 'key': 'u', 'origWidth': 410, 'origHeight': 409, 'width': 410, 'height': 409, 'widthPercent': 0.45, 'rescaleHeight': False, 'trialN': 53, 'loaded': True, 'loadedTime': 2778.900000002235, 'positionName': 'LEFT', 'positionCoords': [245.68, 179.5], 'bid': 8.51}, {'imgObject': {}, 'id': 'eggs', 'src': '/static/foodstim60/eggs.jpg', 'key': 'i', 'origWidth': 409, 'origHeight': 409, 'width': 409, 'height': 409, 'widthPercent': 0.45, 'rescaleHeight': False, 'trialN': 53, 'loaded': True, 'loadedTime': 2462.7000000029802, 'positionName': 'RIGHT', 'positionCoords': [710.32, 179.5], 'bid': 8.25}]",111632.70000000298,1669834077261,chicken nuggets2,eggs,8.51,8.25,-0.2599999999999998,chicken nuggets2,1189.5,1190,1190.0,True,u,113328.5,1695.7999999970198,1669834078957,1696,HRV,HRV_0209,2022-11-30 18:51:33
54,"[{'imgObject': {}, 'id': 'salmon', 'src': '/static/foodstim60/salmon.jpg', 'key': 'u', 'origWidth': 410, 'origHeight': 409, 'width': 410, 'height': 409, 'widthPercent': 0.45, 'rescaleHeight': False, 'trialN': 54, 'loaded': True, 'loadedTime': 2241.7000000029802, 'positionName': 'LEFT', 'positionCoords': [245.68, 179.5], 'bid': 8.36}, {'imgObject': {}, 'id': 'bagel plain', 'src': '/static/foodstim60/bagel plain.jpg', 'key': 'i', 'origWidth': 410, 'origHeight': 410, 'width': 410, 'height': 410, 'widthPercent': 0.45, 'rescaleHeight': False, 'trialN': 54, 'loaded': True, 'loadedTime': 3296.400000002235, 'positionName': 'RIGHT', 'positionCoords': [710.32, 179], 'bid': 8.07}]",113329.20000000298,1669834078958,salmon,bagel plain,8.36,8.07,-0.28999999999999915,salmon,855.6999999992549,856,856.6999999992549,True,u,114688.90000000224,1359.699999999255,1669834080317,1359,HRV,HRV_0209,2022-11-30 18:51:33
55,"[{'imgObject': {}, 'id': 'olives', 'src': '/static/foodstim60/olives.jpg', 'key': 'u', 'origWidth': 410, 'origHeight': 410, 'width': 410, 'height': 410, 'widthPercent': 0.45, 'rescaleHeight': False, 'trialN': 55, 'loaded': True, 'loadedTime': 3300.900000002235, 'positionName': 'LEFT', 'positionCoords': [245.68, 179], 'bid': 6.71}, {'imgObject': {}, 'id': 'granola w milk', 'src': '/static/foodstim60/granola w milk.jpg', 'key': 'i', 'origWidth': 410, 'origHeight': 410, 'width': 410, 'height': 410, 'widthPercent': 0.45, 'rescaleHeight': False, 'trialN': 55, 'loaded': True, 'loadedTime': 3079.400000002235, 'positionName': 'RIGHT', 'positionCoords': [710.32, 179], 'bid': 7.4}]",114689.30000000075,1669834080318,olives,granola w milk,6.71,7.4,0.6900000000000004,granola w milk,1056,1057,1057.0,True,i,116248.5,1559.199999999255,1669834081877,1559,HRV,HRV_0209,2022-11-30 18:51:33
56,"[{'imgObject': {}, 'id': 'apple slices', 'src': '/static/foodstim60/apple slices.jpg', 'key': 'u', 'origWidth': 409, 'origHeight': 410, 'width': 409, 'height': 410, 'widthPercent': 0.45, 'rescaleHeight': False, 'trialN': 56, 'loaded': True, 'loadedTime': 2738.60000000149, 'positionName': 'LEFT', 'positionCoords': [246.68, 179], 'bid': 8.950000000000001}, {'imgObject': {}, 'id': 'mac & cheese', 'src': '/static/foodstim60/mac & cheese.jpg', 'key': 'i', 'origWidth': 410, 'origHeight': 410, 'width': 410, 'height': 410, 'widthPercent': 0.45, 'rescaleHeight': False, 'trialN': 56, 'loaded': True, 'loadedTime': 3210, 'positionName': 'RIGHT', 'positionCoords': [710.32, 179], 'bid': 8.950000000000001}]",116249.30000000075,1669834081878,apple slices,mac & cheese,8.950000000000001,8.950000000000001,0.0,apple slices,1250,1251,1250.9000000022352,True,u,118008.60000000149,1759.300000000745,1669834083637,1759,HRV,HRV_0209,2022-11-30 18:51:33
57,"[{'imgObject': {}, 'id': 'chicken nuggets2', 'src': '/static/foodstim60/chicken nuggets2.jpg', 'key': 'u', 'origWidth': 410, 'origHeight': 409, 'width': 410, 'height': 409, 'widthPercent': 0.45, 'rescaleHeight': False, 'trialN': 57, 'loaded': True, 'loadedTime': 2756.60000000149, 'positionName': 'LEFT', 'positionCoords': [245.68, 179.5], 'bid': 8.51}, {'imgObject': {}, 'id': 'turkey sandwich', 'src': '/static/foodstim60/turkey sandwich.jpg', 'key': 'i', 'origWidth': 409, 'origHeight': 409, 'width': 409, 'height': 409, 'widthPercent': 0.45, 'rescaleHeight': False, 'trialN': 57, 'loaded': True, 'loadedTime': 3229.900000002235, 'positionName': 'RIGHT', 'positionCoords': [710.32, 179.5], 'bid': 8.51}]",118009.20000000298,1669834083638,chicken nuggets2,turkey sandwich,8.51,8.51,0.0,chicken nuggets2,961.6999999992549,962,962.5999999977648,True,u,119472.60000000149,1463.3999999985099,1669834085101,1463,HRV,HRV_0209,2022-11-30 18:51:33
58,"[{'imgObject': {}, 'id': 'burrito', 'src': '/static/foodstim60/burrito.jpg', 'key': 'u', 'origWidth': 410, 'origHeight': 410, 'width': 410, 'height': 410, 'widthPercent': 0.45, 'rescaleHeight': False, 'trialN': 58, 'loaded': True, 'loadedTime': 3056.300000000745, 'positionName': 'LEFT', 'positionCoords': [245.68, 179], 'bid': 8.38}, {'imgObject': {}, 'id': 'pear', 'src': '/static/foodstim60/pear.jpg', 'key': 'i', 'origWidth': 411, 'origHeight': 410, 'width': 411, 'height': 410, 'widthPercent': 0.45, 'rescaleHeight': False, 'trialN': 58, 'loaded': True, 'loadedTime': 3083.5, 'positionName': 'RIGHT', 'positionCoords': [710.32, 179], 'bid': 8.68}]",119473.30000000075,1669834085102,burrito,pear,8.38,8.68,0.29999999999999893,pear,1100.4000000022352,1101,1101.6000000014901,True,i,121080.5,1607.199999999255,1669834086709,1607,HRV,HRV_0209,2022-11-30 18:51:33
59,"[{'imgObject': {}, 'id': 'turkeysandwich', 'src': '/static/foodstim60/turkeysandwich.jpg', 'key': 'u', 'origWidth': 409, 'origHeight': 409, 'width': 409, 'height': 409, 'widthPercent': 0.45, 'rescaleHeight': False, 'trialN': 59, 'loaded': True, 'loadedTime': 2844.5, 'positionName': 'LEFT', 'positionCoords': [246.68, 179.5], 'bid': 7.84}, {'imgObject': {}, 'id': 'hotdog w must', 'src': '/static/foodstim60/hotdog w must.jpg', 'key': 'i', 'origWidth': 409, 'origHeight': 409, 'width': 409, 'height': 409, 'widthPercent': 0.45, 'rescaleHeight': False, 'trialN': 59, 'loaded': True, 'loadedTime': 2612.800000000745, 'positionName': 'RIGHT', 'positionCoords': [710.32, 179.5], 'bid': 7.16}]",121081.20000000298,1669834086710,turkeysandwich,hotdog w must,7.84,7.16,-0.6799999999999997,turkeysandwich,1109.5,1110,1110.2999999970198,True,u,122696.70000000298,1615.5,1669834088325,1615,HRV,HRV_0209,2022-11-30 18:51:33
60,"[{'imgObject': {}, 'id': 'corn cob', 'src': '/static/foodstim60/corn cob.jpg', 'key': 'u', 'origWidth': 411, 'origHeight': 411, 'width': 411, 'height': 411, 'widthPercent': 0.45, 'rescaleHeight': False, 'trialN': 60, 'loaded': True, 'loadedTime': 3219.400000002235, 'positionName': 'LEFT', 'positionCoords': [244.68, 178.5], 'bid': 8.39}, {'imgObject': {}, 'id': 'yogurt no spoon', 'src': '/static/foodstim60/yogurt no spoon.jpg', 'key': 'i', 'origWidth': 411, 'origHeight': 410, 'width': 411, 'height': 410, 'widthPercent': 0.45, 'rescaleHeight': False, 'trialN': 60, 'loaded': True, 'loadedTime': 3307.2000000029802, 'positionName': 'RIGHT', 'positionCoords': [710.32, 179], 'bid': 6.75}]",122697.10000000149,1669834088326,corn cob,yogurt no spoon,8.39,6.75,-1.6400000000000006,corn cob,1396.699999999255,1397,1397.8999999985099,True,u,124600.70000000298,1903.6000000014901,1669834090229,1903,HRV,HRV_0209,2022-11-30 18:51:33
61,"[{'imgObject': {}, 'id': 'salmon', 'src': '/static/foodstim60/salmon.jpg', 'key': 'u', 'origWidth': 410, 'origHeight': 409, 'width': 410, 'height': 409, 'widthPercent': 0.45, 'rescaleHeight': False, 'trialN': 61, 'loaded': True, 'loadedTime': 2241.300000000745, 'positionName': 'LEFT', 'positionCoords': [245.68, 179.5], 'bid': 8.36}, {'imgObject': {}, 'id': 'luckycharms', 'src': '/static/foodstim60/luckycharms.jpg', 'key': 'i', 'origWidth': 410, 'origHeight': 409, 'width': 410, 'height': 409, 'widthPercent': 0.45, 'rescaleHeight': False, 'trialN': 61, 'loaded': True, 'loadedTime': 3024.900000002235, 'positionName': 'RIGHT', 'positionCoords': [710.32, 179.5], 'bid': 8.38}]",124601.30000000075,1669834090230,salmon,luckycharms,8.36,8.38,0.02000000000000135,salmon,1254.6000000014901,1255,1255.6000000014901,True,u,126360.80000000075,1759.5,1669834091989,1759,HRV,HRV_0209,2022-11-30 18:51:33
62,"[{'imgObject': {}, 'id': 'edamame', 'src': '/static/foodstim60/edamame.jpg', 'key': 'u', 'origWidth': 409, 'origHeight': 410, 'width': 409, 'height': 410, 'widthPercent': 0.45, 'rescaleHeight': False, 'trialN': 62, 'loaded': True, 'loadedTime': 2355.800000000745, 'positionName': 'LEFT', 'positionCoords': [246.68, 179], 'bid': 8.52}, {'imgObject': {}, 'id': 'rigatoni', 'src': '/static/foodstim60/rigatoni.jpg', 'key': 'i', 'origWidth': 411, 'origHeight': 411, 'width': 411, 'height': 411, 'widthPercent': 0.45, 'rescaleHeight': False, 'trialN': 62, 'loaded': True, 'loadedTime': 2811.10000000149, 'positionName': 'RIGHT', 'positionCoords': [710.32, 178.5], 'bid': 8.61}]",126361.20000000298,1669834091990,edamame,rigatoni,8.52,8.61,0.08999999999999986,rigatoni,851.6999999992549,852,852.7999999970198,True,i,127720.80000000075,1359.5999999977648,1669834093349,1359,HRV,HRV_0209,2022-11-30 18:51:33
63,"[{'imgObject': {}, 'id': 'fruitsalad', 'src': '/static/foodstim60/fruitsalad.jpg', 'key': 'u', 'origWidth': 410, 'origHeight': 410, 'width': 410, 'height': 410, 'widthPercent': 0.45, 'rescaleHeight': False, 'trialN': 63, 'loaded': True, 'loadedTime': 3090.2000000029802, 'positionName': 'LEFT', 'positionCoords': [245.68, 179], 'bid': 8.66}, {'imgObject': {}, 'id': 'strawberries', 'src': '/static/foodstim60/strawberries.jpg', 'key': 'i', 'origWidth': 410, 'origHeight': 410, 'width': 410, 'height': 410, 'widthPercent': 0.45, 'rescaleHeight': False, 'trialN': 63, 'loaded': True, 'loadedTime': 2308, 'positionName': 'RIGHT', 'positionCoords': [710.32, 179], 'bid': 8.63}]",127721.40000000224,1669834093350,fruitsalad,strawberries,8.66,8.63,-0.02999999999999936,fruitsalad,984.8999999985099,987,986.0,True,u,129208.90000000224,1487.5,1669834094839,1489,HRV,HRV_0209,2022-11-30 18:51:33
64,"[{'imgObject': {}, 'id': 'corn cob', 'src': '/static/foodstim60/corn cob.jpg', 'key': 'u', 'origWidth': 411, 'origHeight': 411, 'width': 411, 'height': 411, 'widthPercent': 0.45, 'rescaleHeight': False, 'trialN': 64, 'loaded': True, 'loadedTime': 3215.300000000745, 'positionName': 'LEFT', 'positionCoords': [244.68, 178.5], 'bid': 8.39}, {'imgObject': {}, 'id': 'luckycharms', 'src': '/static/foodstim60/luckycharms.jpg', 'key': 'i', 'origWidth': 410, 'origHeight': 409, 'width': 410, 'height': 409, 'widthPercent': 0.45, 'rescaleHeight': False, 'trialN': 64, 'loaded': True, 'loadedTime': 3025.800000000745, 'positionName': 'RIGHT', 'positionCoords': [710.32, 179.5], 'bid': 8.38}]",129209.5,1669834094839,corn cob,luckycharms,8.39,8.38,-0.009999999999999787,luckycharms,1862.800000000745,1864,1863.9000000022352,True,i,131575.90000000224,2366.400000002235,1669834097206,2367,HRV,HRV_0209,2022-11-30 18:51:33
65,"[{'imgObject': {}, 'id': 'shreddedwheatwithmilk', 'src': '/static/foodstim60/shreddedwheatwithmilk.jpg', 'key': 'u', 'origWidth': 410, 'origHeight': 410, 'width': 410, 'height': 410, 'widthPercent': 0.45, 'rescaleHeight': False, 'trialN': 65, 'loaded': True, 'loadedTime': 2905.900000002235, 'positionName': 'LEFT', 'positionCoords': [245.68, 179], 'bid': 7.16}, {'imgObject': {}, 'id': 'turkey sandwich', 'src': '/static/foodstim60/turkey sandwich.jpg', 'key': 'i', 'origWidth': 409, 'origHeight': 409, 'width': 409, 'height': 409, 'widthPercent': 0.45, 'rescaleHeight': False, 'trialN': 65, 'loaded': True, 'loadedTime': 3234.60000000149, 'positionName': 'RIGHT', 'positionCoords': [710.32, 179.5], 'bid': 8.51}]",131576.5,1669834097206,shreddedwheatwithmilk,turkey sandwich,7.16,8.51,1.3499999999999996,turkey sandwich,2417.10000000149,2418,2418.2000000029802,True,i,134496.0,2919.5,1669834100126,2920,HRV,HRV_0209,2022-11-30 18:51:33
66,"[{'imgObject': {}, 'id': 'burrito', 'src': '/static/foodstim60/burrito.jpg', 'key': 'u', 'origWidth': 410, 'origHeight': 410, 'width': 410, 'height': 410, 'widthPercent': 0.45, 'rescaleHeight': False, 'trialN': 66, 'loaded': True, 'loadedTime': 3054.300000000745, 'positionName': 'LEFT', 'positionCoords': [245.68, 179], 'bid': 8.38}, {'imgObject': {}, 'id': 'omelette', 'src': '/static/foodstim60/omelette.jpg', 'key': 'i', 'origWidth': 410, 'origHeight': 409, 'width': 410, 'height': 409, 'widthPercent': 0.45, 'rescaleHeight': False, 'trialN': 66, 'loaded': True, 'loadedTime': 3208.5, 'positionName': 'RIGHT', 'positionCoords': [710.32, 179.5], 'bid': 8.08}]",134496.70000000298,1669834100126,burrito,omelette,8.38,8.08,-0.3000000000000007,burrito,1497.7999999970198,1499,1498.5999999977648,True,u,136496.1000000015,1999.3999999985099,1669834102126,2000,HRV,HRV_0209,2022-11-30 18:51:33
67,"[{'imgObject': {}, 'id': 'olives', 'src': '/static/foodstim60/olives.jpg', 'key': 'u', 'origWidth': 410, 'origHeight': 410, 'width': 410, 'height': 410, 'widthPercent': 0.45, 'rescaleHeight': False, 'trialN': 67, 'loaded': True, 'loadedTime': 3302.800000000745, 'positionName': 'LEFT', 'positionCoords': [245.68, 179], 'bid': 6.71}, {'imgObject': {}, 'id': 'yogurt no spoon', 'src': '/static/foodstim60/yogurt no spoon.jpg', 'key': 'i', 'origWidth': 411, 'origHeight': 410, 'width': 411, 'height': 410, 'widthPercent': 0.45, 'rescaleHeight': False, 'trialN': 67, 'loaded': True, 'loadedTime': 3307.800000000745, 'positionName': 'RIGHT', 'positionCoords': [710.32, 179], 'bid': 6.75}]",136496.6000000015,1669834102126,olives,yogurt no spoon,6.71,6.75,0.040000000000000036,olives,1029.800000000745,1031,1030.800000000745,True,u,138032.0,1535.3999999985099,1669834103662,1536,HRV,HRV_0209,2022-11-30 18:51:33
68,"[{'imgObject': {}, 'id': 'seaweed', 'src': '/static/foodstim60/seaweed.jpg', 'key': 'u', 'origWidth': 410, 'origHeight': 410, 'width': 410, 'height': 410, 'widthPercent': 0.45, 'rescaleHeight': False, 'trialN': 68, 'loaded': True, 'loadedTime': 3312.900000002235, 'positionName': 'LEFT', 'positionCoords': [245.68, 179], 'bid': 2.36}, {'imgObject': {}, 'id': 'sushi w_condiments', 'src': '/static/foodstim60/sushi w_condiments.jpg', 'key': 'i', 'origWidth': 410, 'origHeight': 410, 'width': 410, 'height': 410, 'widthPercent': 0.45, 'rescaleHeight': False, 'trialN': 68, 'loaded': True, 'loadedTime': 2388.5, 'positionName': 'RIGHT', 'positionCoords': [710.32, 179], 'bid': 3.78}]",138032.80000000075,1669834103662,seaweed,sushi w_condiments,2.36,3.78,1.42,NaN,NaN,NaN,,False,NaN,142040.1000000015,4007.300000000745,1669834107670,4008,HRV,HRV_0209,2022-11-30 18:51:33
69,"[{'imgObject': {}, 'id': 'roastedpotatoes', 'src': '/static/foodstim60/roastedpotatoes.jpg', 'key': 'u', 'origWidth': 409, 'origHeight': 410, 'width': 409, 'height': 410, 'widthPercent': 0.45, 'rescaleHeight': False, 'trialN': 69, 'loaded': True, 'loadedTime': 2536.10000000149, 'positionName': 'LEFT', 'positionCoords': [246.68, 179], 'bid': 8.17}, {'imgObject': {}, 'id': 'rigatoni and sauce', 'src': '/static/foodstim60/rigatoni and sauce.jpg', 'key': 'i', 'origWidth': 410, 'origHeight': 411, 'width': 410, 'height': 411, 'widthPercent': 0.45, 'rescaleHeight': False, 'trialN': 69, 'loaded': True, 'loadedTime': 2149.7000000029802, 'positionName': 'RIGHT', 'positionCoords': [710.32, 178.5], 'bid': 8.93}]",142040.90000000224,1669834107671,roastedpotatoes,rigatoni and sauce,8.17,8.93,0.7599999999999998,rigatoni and sauce,217.19999999925494,218,218.09999999776483,True,i,142760.1000000015,719.1999999992549,1669834108390,719,HRV,HRV_0209,2022-11-30 18:51:33
70,"[{'imgObject': {}, 'id': 'lox', 'src': '/static/foodstim60/lox.jpg', 'key': 'u', 'origWidth': 410, 'origHeight': 411, 'width': 410, 'height': 411, 'widthPercent': 0.45, 'rescaleHeight': False, 'trialN': 70, 'loaded': True, 'loadedTime': 2882.10000000149, 'positionName': 'LEFT', 'positionCoords': [245.68, 178.5], 'bid': 8}, {'imgObject': {}, 'id': 'omelette', 'src': '/static/foodstim60/omelette.jpg', 'key': 'i', 'origWidth': 410, 'origHeight': 409, 'width': 410, 'height': 409, 'widthPercent': 0.45, 'rescaleHeight': False, 'trialN': 70, 'loaded': True, 'loadedTime': 3207.60000000149, 'positionName': 'RIGHT', 'positionCoords': [710.32, 179.5], 'bid': 8.08}]",142760.70000000298,1669834108390,lox,omelette,8.0,8.08,0.08000000000000007,omelette,1327.5,1329,1328.2999999970198,True,i,144592.20000000298,1831.5,1669834110222,1832,HRV,HRV_0209,2022-11-30 18:51:33
71,"[{'imgObject': {}, 'id': 'salad w chicken', 'src': '/static/foodstim60/salad w chicken.jpg', 'key': 'u', 'origWidth': 411, 'origHeight': 411, 'width': 411, 'height': 411, 'widthPercent': 0.45, 'rescaleHeight': False, 'trialN': 71, 'loaded': True, 'loadedTime': 2251.10000000149, 'positionName': 'LEFT', 'positionCoords': [244.68, 178.5], 'bid': 6.71}, {'imgObject': {}, 'id': 'cherries', 'src': '/static/foodstim60/cherries.jpg', 'key': 'i', 'origWidth': 410, 'origHeight': 411, 'width': 410, 'height': 411, 'widthPercent': 0.45, 'rescaleHeight': False, 'trialN': 71, 'loaded': True, 'loadedTime': 2897.300000000745, 'positionName': 'RIGHT', 'positionCoords': [710.32, 178.5], 'bid': 7.29}]",144592.80000000075,1669834110223,salad w chicken,cherries,6.71,7.29,0.5800000000000001,salad w chicken,786.4000000022352,787,787.3000000007451,True,u,145888.20000000298,1295.4000000022352,1669834111518,1295,HRV,HRV_0209,2022-11-30 18:51:33
72,"[{'imgObject': {}, 'id': 'Grapes', 'src': '/static/foodstim60/Grapes.jpg', 'key': 'u', 'origWidth': 411, 'origHeight': 411, 'width': 411, 'height': 411, 'widthPercent': 0.45, 'rescaleHeight': False, 'trialN': 72, 'loaded': True, 'loadedTime': 2239.2000000029802, 'positionName': 'LEFT', 'positionCoords': [244.68, 178.5], 'bid': 8.700000000000001}, {'imgObject': {}, 'id': 'pear', 'src': '/static/foodstim60/pear.jpg', 'key': 'i', 'origWidth': 411, 'origHeight': 410, 'width': 411, 'height': 410, 'widthPercent': 0.45, 'rescaleHeight': False, 'trialN': 72, 'loaded': True, 'loadedTime': 3084, 'positionName': 'RIGHT', 'positionCoords': [710.32, 179], 'bid': 8.68}]",145888.80000000075,1669834111519,Grapes,pear,8.700000000000001,8.68,-0.02000000000000135,pear,1314.699999999255,1316,1316.0,True,i,147712.6000000015,1823.800000000745,1669834113342,1823,HRV,HRV_0209,2022-11-30 18:51:33
73,"[{'imgObject': {}, 'id': 'olives', 'src': '/static/foodstim60/olives.jpg', 'key': 'u', 'origWidth': 410, 'origHeight': 410, 'width': 410, 'height': 410, 'widthPercent': 0.45, 'rescaleHeight': False, 'trialN': 73, 'loaded': True, 'loadedTime': 3296.800000000745, 'positionName': 'LEFT', 'positionCoords': [245.68, 179], 'bid': 6.71}, {'imgObject': {}, 'id': 'luckycharms', 'src': '/static/foodstim60/luckycharms.jpg', 'key': 'i', 'origWidth': 410, 'origHeight': 409, 'width': 410, 'height': 409, 'widthPercent': 0.45, 'rescaleHeight': False, 'trialN': 73, 'loaded': True, 'loadedTime': 3025.2000000029802, 'positionName': 'RIGHT', 'positionCoords': [710.32, 179.5], 'bid': 8.38}]",147713.0,1669834113343,olives,luckycharms,6.71,8.38,1.6700000000000008,luckycharms,794,795,794.9000000022352,True,i,149016.20000000298,1303.2000000029802,1669834114646,1303,HRV,HRV_0209,2022-11-30 18:51:33
74,"[{'imgObject': {}, 'id': 'bagel plain', 'src': '/static/foodstim60/bagel plain.jpg', 'key': 'u', 'origWidth': 410, 'origHeight': 410, 'width': 410, 'height': 410, 'widthPercent': 0.45, 'rescaleHeight': False, 'trialN': 74, 'loaded': True, 'loadedTime': 3295.900000002235, 'positionName': 'LEFT', 'positionCoords': [245.68, 179], 'bid': 8.07}, {'imgObject': {}, 'id': 'banana', 'src': '/static/foodstim60/banana.jpg', 'key': 'i', 'origWidth': 410, 'origHeight': 410, 'width': 410, 'height': 410, 'widthPercent': 0.45, 'rescaleHeight': False, 'trialN': 74, 'loaded': True, 'loadedTime': 2861.2000000029802, 'positionName': 'RIGHT', 'positionCoords': [710.32, 179], 'bid': 8.790000000000001}]",149016.90000000224,1669834114647,bagel plain,banana,8.07,8.790000000000001,0.7200000000000006,banana,699,699,699.6999999992549,True,i,150224.40000000224,1207.5,1669834115854,1207,HRV,HRV_0209,2022-11-30 18:51:33
75,"[{'imgObject': {}, 'id': 'sushi w_condiments', 'src': '/static/foodstim60/sushi w_condiments.jpg', 'key': 'u', 'origWidth': 410, 'origHeight': 410, 'width': 410, 'height': 410, 'widthPercent': 0.45, 'rescaleHeight': False, 'trialN': 75, 'loaded': True, 'loadedTime': 2385.2000000029802, 'positionName': 'LEFT', 'positionCoords': [245.68, 179], 'bid': 3.78}, {'imgObject': {}, 'id': 'cheerios', 'src': '/static/foodstim60/cheerios.jpg', 'key': 'i', 'origWidth': 409, 'origHeight': 410, 'width': 409, 'height': 410, 'widthPercent': 0.45, 'rescaleHeight': False, 'trialN': 75, 'loaded': True, 'loadedTime': 3203.5, 'positionName': 'RIGHT', 'positionCoords': [710.32, 179], 'bid': 7.84}]",150225.0,1669834115855,sushi w_condiments,cheerios,3.78,7.84,4.0600000000000005,sushi w_condiments,715.3000000007451,716,716.3000000007451,True,u,151448.40000000224,1223.4000000022352,1669834117078,1223,HRV,HRV_0209,2022-11-30 18:51:33
76,"[{'imgObject': {}, 'id': 'blackbeanswithrice', 'src': '/static/foodstim60/blackbeanswithrice.jpg', 'key': 'u', 'origWidth': 410, 'origHeight': 410, 'width': 410, 'height': 410, 'widthPercent': 0.45, 'rescaleHeight': False, 'trialN': 76, 'loaded': True, 'loadedTime': 3224.900000002235, 'positionName': 'LEFT', 'positionCoords': [245.68, 179], 'bid': 7.91}, {'imgObject': {}, 'id': 'salad w chicken', 'src': '/static/foodstim60/salad w chicken.jpg', 'key': 'i', 'origWidth': 411, 'origHeight': 411, 'width': 411, 'height': 411, 'widthPercent': 0.45, 'rescaleHeight': False, 'trialN': 76, 'loaded': True, 'loadedTime': 2252.2000000029802, 'positionName': 'RIGHT', 'positionCoords': [710.32, 178.5], 'bid': 6.71}]",151449.0,1669834117079,blackbeanswithrice,salad w chicken,7.91,6.71,-1.2000000000000002,salad w chicken,2272.7000000029802,2273,2273.60000000149,True,i,154224.5,2775.5,1669834119854,2775,HRV,HRV_0209,2022-11-30 18:51:33
77,"[{'imgObject': {}, 'id': 'burrito', 'src': '/static/foodstim60/burrito.jpg', 'key': 'u', 'origWidth': 410, 'origHeight': 410, 'width': 410, 'height': 410, 'widthPercent': 0.45, 'rescaleHeight': False, 'trialN': 77, 'loaded': True, 'loadedTime': 3057, 'positionName': 'LEFT', 'positionCoords': [245.68, 179], 'bid': 8.38}, {'imgObject': {}, 'id': 'salmon', 'src': '/static/foodstim60/salmon.jpg', 'key': 'i', 'origWidth': 410, 'origHeight': 409, 'width': 410, 'height': 409, 'widthPercent': 0.45, 'rescaleHeight': False, 'trialN': 77, 'loaded': True, 'loadedTime': 2242.10000000149, 'positionName': 'RIGHT', 'positionCoords': [710.32, 179.5], 'bid': 8.36}]",154225.1000000015,1669834119855,burrito,salmon,8.38,8.36,-0.02000000000000135,salmon,956.6999999992549,957,957.6000000014901,True,i,155689.20000000298,1464.1000000014901,1669834121319,1464,HRV,HRV_0209,2022-11-30 18:51:33
78,"[{'imgObject': {}, 'id': 'ice cream sundae 002', 'src': '/static/foodstim60/ice cream sundae 002.jpg', 'key': 'u', 'origWidth': 409, 'origHeight': 409, 'width': 409, 'height': 409, 'widthPercent': 0.45, 'rescaleHeight': False, 'trialN': 78, 'loaded': True, 'loadedTime': 2307.5, 'positionName': 'LEFT', 'positionCoords': [246.68, 179.5], 'bid': 8.3}, {'imgObject': {}, 'id': 'strawberries', 'src': '/static/foodstim60/strawberries.jpg', 'key': 'i', 'origWidth': 410, 'origHeight': 410, 'width': 410, 'height': 410, 'widthPercent': 0.45, 'rescaleHeight': False, 'trialN': 78, 'loaded': True, 'loadedTime': 2330.800000000745, 'positionName': 'RIGHT', 'positionCoords': [710.32, 179], 'bid': 8.63}]",155689.5,1669834121319,ice cream sundae 002,strawberries,8.3,8.63,0.33000000000000007,strawberries,713.8000000007451,715,714.7000000029802,True,i,156913.20000000298,1223.7000000029802,1669834122543,1224,HRV,HRV_0209,2022-11-30 18:51:33
79,"[{'imgObject': {}, 'id': 'chicken nuggets2', 'src': '/static/foodstim60/chicken nuggets2.jpg', 'key': 'u', 'origWidth': 410, 'origHeight': 409, 'width': 410, 'height': 409, 'widthPercent': 0.45, 'rescaleHeight': False, 'trialN': 79, 'loaded': True, 'loadedTime': 2769.800000000745, 'positionName': 'LEFT', 'positionCoords': [245.68, 179.5], 'bid': 8.51}, {'imgObject': {}, 'id': 'cherry tomato', 'src': '/static/foodstim60/cherry tomato.jpg', 'key': 'i', 'origWidth': 410, 'origHeight': 410, 'width': 410, 'height': 410, 'widthPercent': 0.45, 'rescaleHeight': False, 'trialN': 79, 'loaded': True, 'loadedTime': 2858.5, 'positionName': 'RIGHT', 'positionCoords': [710.32, 179], 'bid': 8.93}]",156913.5,1669834122543,chicken nuggets2,cherry tomato,8.51,8.93,0.41999999999999993,chicken nuggets2,933.4000000022352,934,934.3000000007451,True,u,158352.70000000298,1439.2000000029802,1669834123982,1439,HRV,HRV_0209,2022-11-30 18:51:33
80,"[{'imgObject': {}, 'id': 'burger', 'src': '/static/foodstim60/burger.jpg', 'key': 'u', 'origWidth': 409, 'origHeight': 409, 'width': 409, 'height': 409, 'widthPercent': 0.45, 'rescaleHeight': False, 'trialN': 80, 'loaded': True, 'loadedTime': 2973.400000002235, 'positionName': 'LEFT', 'positionCoords': [246.68, 179.5], 'bid': 8.71}, {'imgObject': {}, 'id': 'corn cob', 'src': '/static/foodstim60/corn cob.jpg', 'key': 'i', 'origWidth': 411, 'origHeight': 411, 'width': 411, 'height': 411, 'widthPercent': 0.45, 'rescaleHeight': False, 'trialN': 80, 'loaded': True, 'loadedTime': 3218.5, 'positionName': 'RIGHT', 'positionCoords': [710.32, 178.5], 'bid': 8.39}]",158353.20000000298,1669834123983,burger,corn cob,8.71,8.39,-0.3200000000000003,burger,1062,1063,1062.8999999985099,True,u,159920.6000000015,1567.3999999985099,1669834125550,1567,HRV,HRV_0209,2022-11-30 18:51:33
81,"[{'imgObject': {}, 'id': 'orange slices', 'src': '/static/foodstim60/orange slices.jpg', 'key': 'u', 'origWidth': 409, 'origHeight': 410, 'width': 409, 'height': 410, 'widthPercent': 0.45, 'rescaleHeight': False, 'trialN': 81, 'loaded': True, 'loadedTime': 2907.7000000029802, 'positionName': 'LEFT', 'positionCoords': [246.68, 179], 'bid': 8.790000000000001}, {'imgObject': {}, 'id': 'steak', 'src': '/static/foodstim60/steak.jpg', 'key': 'i', 'origWidth': 410, 'origHeight': 410, 'width': 410, 'height': 410, 'widthPercent': 0.45, 'rescaleHeight': False, 'trialN': 81, 'loaded': True, 'loadedTime': 3020.300000000745, 'positionName': 'RIGHT', 'positionCoords': [710.32, 179], 'bid': 9.2}]",159921.1000000015,1669834125551,orange slices,steak,8.790000000000001,9.2,0.40999999999999837,orange slices,726,727,727.0,True,u,161152.70000000298,1231.6000000014901,1669834126782,1231,HRV,HRV_0209,2022-11-30 18:51:33
82,"[{'imgObject': {}, 'id': 'Grapes', 'src': '/static/foodstim60/Grapes.jpg', 'key': 'u', 'origWidth': 411, 'origHeight': 411, 'width': 411, 'height': 411, 'widthPercent': 0.45, 'rescaleHeight': False, 'trialN': 82, 'loaded': True, 'loadedTime': 2236.60000000149, 'positionName': 'LEFT', 'positionCoords': [244.68, 178.5], 'bid': 8.700000000000001}, {'imgObject': {}, 'id': 'steak', 'src': '/static/foodstim60/steak.jpg', 'key': 'i', 'origWidth': 410, 'origHeight': 410, 'width': 410, 'height': 410, 'widthPercent': 0.45, 'rescaleHeight': False, 'trialN': 82, 'loaded': True, 'loadedTime': 3019.900000002235, 'positionName': 'RIGHT', 'positionCoords': [710.32, 179], 'bid': 9.2}]",161153.30000000075,1669834126783,Grapes,steak,8.700000000000001,9.2,0.4999999999999982,steak,920,921,920.8000000007451,True,i,162576.80000000075,1423.5,1669834128206,1423,HRV,HRV_0209,2022-11-30 18:51:33
83,"[{'imgObject': {}, 'id': 'Grapes', 'src': '/static/foodstim60/Grapes.jpg', 'key': 'u', 'origWidth': 411, 'origHeight': 411, 'width': 411, 'height': 411, 'widthPercent': 0.45, 'rescaleHeight': False, 'trialN': 83, 'loaded': True, 'loadedTime': 2238.900000002235, 'positionName': 'LEFT', 'positionCoords': [244.68, 178.5], 'bid': 8.700000000000001}, {'imgObject': {}, 'id': 'luckycharms', 'src': '/static/foodstim60/luckycharms.jpg', 'key': 'i', 'origWidth': 410, 'origHeight': 409, 'width': 410, 'height': 409, 'widthPercent': 0.45, 'rescaleHeight': False, 'trialN': 83, 'loaded': True, 'loadedTime': 3021.800000000745, 'positionName': 'RIGHT', 'positionCoords': [710.32, 179.5], 'bid': 8.38}]",162577.40000000224,1669834128207,Grapes,luckycharms,8.700000000000001,8.38,-0.3200000000000003,Grapes,1126.0999999977648,1127,1126.8999999985099,True,u,164208.80000000075,1631.3999999985099,1669834129838,1631,HRV,HRV_0209,2022-11-30 18:51:33
84,"[{'imgObject': {}, 'id': 'edamame', 'src': '/static/foodstim60/edamame.jpg', 'key': 'u', 'origWidth': 409, 'origHeight': 410, 'width': 409, 'height': 410, 'widthPercent': 0.45, 'rescaleHeight': False, 'trialN': 84, 'loaded': True, 'loadedTime': 2353, 'positionName': 'LEFT', 'positionCoords': [246.68, 179], 'bid': 8.52}, {'imgObject': {}, 'id': 'froot loops w milk', 'src': '/static/foodstim60/froot loops w milk.jpg', 'key': 'i', 'origWidth': 410, 'origHeight': 410, 'width': 410, 'height': 410, 'widthPercent': 0.45, 'rescaleHeight': False, 'trialN': 84, 'loaded': True, 'loadedTime': 3084.800000000745, 'positionName': 'RIGHT', 'positionCoords': [710.32, 179], 'bid': 8.55}]",164209.1000000015,1669834129839,edamame,froot loops w milk,8.52,8.55,0.030000000000001137,froot loops w milk,1056.199999999255,1057,1057.5,True,i,165768.70000000298,1559.6000000014901,1669834131398,1559,HRV,HRV_0209,2022-11-30 18:51:33
85,"[{'imgObject': {}, 'id': 'sweetpotato', 'src': '/static/foodstim60/sweetpotato.jpg', 'key': 'u', 'origWidth': 410, 'origHeight': 410, 'width': 410, 'height': 410, 'widthPercent': 0.45, 'rescaleHeight': False, 'trialN': 85, 'loaded': True, 'loadedTime': 3115.300000000745, 'positionName': 'LEFT', 'positionCoords': [245.68, 179], 'bid': 8.44}, {'imgObject': {}, 'id': 'banana', 'src': '/static/foodstim60/banana.jpg', 'key': 'i', 'origWidth': 410, 'origHeight': 410, 'width': 410, 'height': 410, 'widthPercent': 0.45, 'rescaleHeight': False, 'trialN': 85, 'loaded': True, 'loadedTime': 2868.2000000029802, 'positionName': 'RIGHT', 'positionCoords': [710.32, 179], 'bid': 8.790000000000001}]",165769.30000000075,1669834131399,sweetpotato,banana,8.44,8.790000000000001,0.3500000000000014,banana,901.8000000007451,903,903.1000000014901,True,i,167175.80000000075,1406.5,1669834132806,1407,HRV,HRV_0209,2022-11-30 18:51:33
86,"[{'imgObject': {}, 'id': 'edamame', 'src': '/static/foodstim60/edamame.jpg', 'key': 'u', 'origWidth': 409, 'origHeight': 410, 'width': 409, 'height': 410, 'widthPercent': 0.45, 'rescaleHeight': False, 'trialN': 86, 'loaded': True, 'loadedTime': 2354.900000002235, 'positionName': 'LEFT', 'positionCoords': [246.68, 179], 'bid': 8.52}, {'imgObject': {}, 'id': 'granola w milk', 'src': '/static/foodstim60/granola w milk.jpg', 'key': 'i', 'origWidth': 410, 'origHeight': 410, 'width': 410, 'height': 410, 'widthPercent': 0.45, 'rescaleHeight': False, 'trialN': 86, 'loaded': True, 'loadedTime': 3079.10000000149, 'positionName': 'RIGHT', 'positionCoords': [710.32, 179], 'bid': 7.4}]",167176.5,1669834132806,edamame,granola w milk,8.52,7.4,-1.1199999999999992,granola w milk,977.8000000007451,979,978.7000000029802,True,i,168656.90000000224,1480.4000000022352,1669834134287,1481,HRV,HRV_0209,2022-11-30 18:51:33
87,"[{'imgObject': {}, 'id': 'fried eggs', 'src': '/static/foodstim60/fried eggs.jpg', 'key': 'u', 'origWidth': 410, 'origHeight': 410, 'width': 410, 'height': 410, 'widthPercent': 0.45, 'rescaleHeight': False, 'trialN': 87, 'loaded': True, 'loadedTime': 2003.6000000014901, 'positionName': 'LEFT', 'positionCoords': [245.68, 179], 'bid': 8.61}, {'imgObject': {}, 'id': 'cherry tomato', 'src': '/static/foodstim60/cherry tomato.jpg', 'key': 'i', 'origWidth': 410, 'origHeight': 410, 'width': 410, 'height': 410, 'widthPercent': 0.45, 'rescaleHeight': False, 'trialN': 87, 'loaded': True, 'loadedTime': 2857.5, 'positionName': 'RIGHT', 'positionCoords': [710.32, 179], 'bid': 8.93}]",168657.40000000224,1669834134287,fried eggs,cherry tomato,8.61,8.93,0.3200000000000003,cherry tomato,830,831,830.8999999985099,True,i,169991.90000000224,1334.5,1669834135622,1335,HRV,HRV_0209,2022-11-30 18:51:33
88,"[{'imgObject': {}, 'id': 'cantaloupe', 'src': '/static/foodstim60/cantaloupe.jpg', 'key': 'u', 'origWidth': 409, 'origHeight': 409, 'width': 409, 'height': 409, 'widthPercent': 0.45, 'rescaleHeight': False, 'trialN': 88, 'loaded': True, 'loadedTime': 2780.300000000745, 'positionName': 'LEFT', 'positionCoords': [246.68, 179.5], 'bid': 8.39}, {'imgObject': {}, 'id': 'kiwi', 'src': '/static/foodstim60/kiwi.jpg', 'key': 'i', 'origWidth': 410, 'origHeight': 410, 'width': 410, 'height': 410, 'widthPercent': 0.45, 'rescaleHeight': False, 'trialN': 88, 'loaded': True, 'loadedTime': 2722.7000000029802, 'positionName': 'RIGHT', 'positionCoords': [710.32, 179], 'bid': 6.8100000000000005}]",169992.40000000224,1669834135622,cantaloupe,kiwi,8.39,6.8100000000000005,-1.58,cantaloupe,982.5999999977648,984,983.5999999977648,True,u,171480.30000000075,1487.8999999985099,1669834137110,1488,HRV,HRV_0209,2022-11-30 18:51:33
89,"[{'imgObject': {}, 'id': 'cheerios', 'src': '/static/foodstim60/cheerios.jpg', 'key': 'u', 'origWidth': 409, 'origHeight': 410, 'width': 409, 'height': 410, 'widthPercent': 0.45, 'rescaleHeight': False, 'trialN': 89, 'loaded': True, 'loadedTime': 3198.5, 'positionName': 'LEFT', 'positionCoords': [246.68, 179], 'bid': 7.84}, {'imgObject': {}, 'id': 'blackbeanswithrice', 'src': '/static/foodstim60/blackbeanswithrice.jpg', 'key': 'i', 'origWidth': 410, 'origHeight': 410, 'width': 410, 'height': 410, 'widthPercent': 0.45, 'rescaleHeight': False, 'trialN': 89, 'loaded': True, 'loadedTime': 3224.60000000149, 'positionName': 'RIGHT', 'positionCoords': [710.32, 179], 'bid': 7.91}]",171481.0,1669834137111,cheerios,blackbeanswithrice,7.84,7.91,0.07000000000000028,cheerios,1067.4000000022352,1068,1068.0,True,u,173055.90000000224,1574.9000000022352,1669834138686,1575,HRV,HRV_0209,2022-11-30 18:51:33
90,"[{'imgObject': {}, 'id': 'eggsalad', 'src': '/static/foodstim60/eggsalad.jpg', 'key': 'u', 'origWidth': 410, 'origHeight': 409, 'width': 410, 'height': 409, 'widthPercent': 0.45, 'rescaleHeight': False, 'trialN': 90, 'loaded': True, 'loadedTime': 3245, 'positionName': 'LEFT', 'positionCoords': [245.68, 179.5], 'bid': 7.51}, {'imgObject': {}, 'id': 'yogurt no spoon', 'src': '/static/foodstim60/yogurt no spoon.jpg', 'key': 'i', 'origWidth': 411, 'origHeight': 410, 'width': 411, 'height': 410, 'widthPercent': 0.45, 'rescaleHeight': False, 'trialN': 90, 'loaded': True, 'loadedTime': 3306.900000002235, 'positionName': 'RIGHT', 'positionCoords': [710.32, 179], 'bid': 6.75}]",175288.70000000298,1669834140918,eggsalad,yogurt no spoon,7.51,6.75,-0.7599999999999998,yogurt no spoon,1876.7999999970198,1878,1877.8999999985099,True,i,177672.1000000015,2383.39999999851,1669834143302,2384,HRV,HRV_0209,2022-11-30 18:51:33
91,"[{'imgObject': {}, 'id': 'grilled chicken strips', 'src': '/static/foodstim60/grilled chicken strips.jpg', 'key': 'u', 'origWidth': 410, 'origHeight': 411, 'width': 410, 'height': 411, 'widthPercent': 0.45, 'rescaleHeight': False, 'trialN': 91, 'loaded': True, 'loadedTime': 2891.800000000745, 'positionName': 'LEFT', 'positionCoords': [245.68, 178.5], 'bid': 8.77}, {'imgObject': {}, 'id': 'Grapes', 'src': '/static/foodstim60/Grapes.jpg', 'key': 'i', 'origWidth': 411, 'origHeight': 411, 'width': 411, 'height': 411, 'widthPercent': 0.45, 'rescaleHeight': False, 'trialN': 91, 'loaded': True, 'loadedTime': 2238.300000000745, 'positionName': 'RIGHT', 'positionCoords': [710.32, 178.5], 'bid': 8.700000000000001}]",177672.80000000075,1669834143302,grilled chicken strips,Grapes,8.77,8.700000000000001,-0.06999999999999851,grilled chicken strips,966.4000000022352,968,967.4000000022352,True,u,179144.20000000298,1471.4000000022352,1669834144774,1472,HRV,HRV_0209,2022-11-30 18:51:33
92,"[{'imgObject': {}, 'id': 'popsicles', 'src': '/static/foodstim60/popsicles.jpg', 'key': 'u', 'origWidth': 410, 'origHeight': 410, 'width': 410, 'height': 410, 'widthPercent': 0.45, 'rescaleHeight': False, 'trialN': 92, 'loaded': True, 'loadedTime': 2920.10000000149, 'positionName': 'LEFT', 'positionCoords': [245.68, 179], 'bid': 7.97}, {'imgObject': {}, 'id': 'yogurt no spoon', 'src': '/static/foodstim60/yogurt no spoon.jpg', 'key': 'i', 'origWidth': 411, 'origHeight': 410, 'width': 411, 'height': 410, 'widthPercent': 0.45, 'rescaleHeight': False, 'trialN': 92, 'loaded': True, 'loadedTime': 3307.60000000149, 'positionName': 'RIGHT', 'positionCoords': [710.32, 179], 'bid': 6.75}]",179144.80000000075,1669834144774,popsicles,yogurt no spoon,7.97,6.75,-1.2199999999999998,popsicles,1717.4000000022352,1719,1718.1000000014901,True,u,181368.20000000298,2223.400000002235,1669834146998,2224,HRV,HRV_0209,2022-11-30 18:51:33
93,"[{'imgObject': {}, 'id': 'eggs', 'src': '/static/foodstim60/eggs.jpg', 'key': 'u', 'origWidth': 409, 'origHeight': 409, 'width': 409, 'height': 409, 'widthPercent': 0.45, 'rescaleHeight': False, 'trialN': 93, 'loaded': True, 'loadedTime': 2454.60000000149, 'positionName': 'LEFT', 'positionCoords': [246.68, 179.5], 'bid': 8.25}, {'imgObject': {}, 'id': 'mashed potato', 'src': '/static/foodstim60/mashed potato.jpg', 'key': 'i', 'origWidth': 409, 'origHeight': 409, 'width': 409, 'height': 409, 'widthPercent': 0.45, 'rescaleHeight': False, 'trialN': 93, 'loaded': True, 'loadedTime': 2095.2000000029802, 'positionName': 'RIGHT', 'positionCoords': [710.32, 179.5], 'bid': 7.7}]",181368.80000000075,1669834146998,eggs,mashed potato,8.25,7.7,-0.5499999999999998,mashed potato,1487.800000000745,1489,1488.6000000014901,True,i,183360.30000000075,1991.5,1669834148990,1992,HRV,HRV_0209,2022-11-30 18:51:33
94,"[{'imgObject': {}, 'id': 'banana', 'src': '/static/foodstim60/banana.jpg', 'key': 'u', 'origWidth': 410, 'origHeight': 410, 'width': 410, 'height': 410, 'widthPercent': 0.45, 'rescaleHeight': False, 'trialN': 94, 'loaded': True, 'loadedTime': 2865.7000000029802, 'positionName': 'LEFT', 'positionCoords': [245.68, 179], 'bid': 8.790000000000001}, {'imgObject': {}, 'id': 'orange slices', 'src': '/static/foodstim60/orange slices.jpg', 'key': 'i', 'origWidth': 409, 'origHeight': 410, 'width': 409, 'height': 410, 'widthPercent': 0.45, 'rescaleHeight': False, 'trialN': 94, 'loaded': True, 'loadedTime': 2913.5, 'positionName': 'RIGHT', 'positionCoords': [710.32, 179], 'bid': 8.790000000000001}]",183360.80000000075,1669834148991,banana,orange slices,8.790000000000001,8.790000000000001,0.0,orange slices,829.8000000007451,830,830.6000000014901,True,i,184697.30000000075,1336.5,1669834150327,1336,HRV,HRV_0209,2022-11-30 18:51:33
95,"[{'imgObject': {}, 'id': 'raisin bran w milk', 'src': '/static/foodstim60/raisin bran w milk.jpg', 'key': 'u', 'origWidth': 411, 'origHeight': 411, 'width': 411, 'height': 411, 'widthPercent': 0.45, 'rescaleHeight': False, 'trialN': 95, 'loaded': True, 'loadedTime': 3015.7000000029802, 'positionName': 'LEFT', 'positionCoords': [244.68, 178.5], 'bid': 7.65}, {'imgObject': {}, 'id': 'tacos', 'src': '/static/foodstim60/tacos.jpg', 'key': 'i', 'origWidth': 411, 'origHeight': 411, 'width': 411, 'height': 411, 'widthPercent': 0.45, 'rescaleHeight': False, 'trialN': 95, 'loaded': True, 'loadedTime': 2283.5, 'positionName': 'RIGHT', 'positionCoords': [710.32, 178.5], 'bid': 8.23}]",184697.80000000075,1669834150328,raisin bran w milk,tacos,7.65,8.23,0.5800000000000001,tacos,990,991,991.3000000007451,True,i,186192.6000000015,1494.800000000745,1669834151822,1494,HRV,HRV_0209,2022-11-30 18:51:33
96,"[{'imgObject': {}, 'id': 'cocktailshrimp', 'src': '/static/foodstim60/cocktailshrimp.jpg', 'key': 'u', 'origWidth': 410, 'origHeight': 410, 'width': 410, 'height': 410, 'widthPercent': 0.45, 'rescaleHeight': False, 'trialN': 96, 'loaded': True, 'loadedTime': 2609.300000000745, 'positionName': 'LEFT', 'positionCoords': [245.68, 179], 'bid': 8.16}, {'imgObject': {}, 'id': 'cherry tomato', 'src': '/static/foodstim60/cherry tomato.jpg', 'key': 'i', 'origWidth': 410, 'origHeight': 410, 'width': 410, 'height': 410, 'widthPercent': 0.45, 'rescaleHeight': False, 'trialN': 96, 'loaded': True, 'loadedTime': 2858.900000002235, 'positionName': 'RIGHT', 'positionCoords': [710.32, 179], 'bid': 8.93}]",186193.1000000015,1669834151823,cocktailshrimp,cherry tomato,8.16,8.93,0.7699999999999996,cherry tomato,809.1000000014901,810,809.8000000007451,True,i,187504.40000000224,1311.300000000745,1669834153134,1311,HRV,HRV_0209,2022-11-30 18:51:33
97,"[{'imgObject': {}, 'id': 'raspberries', 'src': '/static/foodstim60/raspberries.jpg', 'key': 'u', 'origWidth': 411, 'origHeight': 411, 'width': 411, 'height': 411, 'widthPercent': 0.45, 'rescaleHeight': False, 'trialN': 97, 'loaded': True, 'loadedTime': 2335.10000000149, 'positionName': 'LEFT', 'positionCoords': [244.68, 178.5], 'bid': 7.82}, {'imgObject': {}, 'id': 'lox', 'src': '/static/foodstim60/lox.jpg', 'key': 'i', 'origWidth': 410, 'origHeight': 411, 'width': 410, 'height': 411, 'widthPercent': 0.45, 'rescaleHeight': False, 'trialN': 97, 'loaded': True, 'loadedTime': 2884.10000000149, 'positionName': 'RIGHT', 'positionCoords': [710.32, 178.5], 'bid': 8}]",187504.90000000224,1669834153135,raspberries,lox,7.82,8.0,0.17999999999999972,raspberries,1364.8999999985099,1368,1365.699999999255,True,u,189376.5,1871.5999999977648,1669834155008,1873,HRV,HRV_0209,2022-11-30 18:51:33
98,"[{'imgObject': {}, 'id': 'sweetpotato', 'src': '/static/foodstim60/sweetpotato.jpg', 'key': 'u', 'origWidth': 410, 'origHeight': 410, 'width': 410, 'height': 410, 'widthPercent': 0.45, 'rescaleHeight': False, 'trialN': 98, 'loaded': True, 'loadedTime': 3116, 'positionName': 'LEFT', 'positionCoords': [245.68, 179], 'bid': 8.44}, {'imgObject': {}, 'id': 'cantaloupe', 'src': '/static/foodstim60/cantaloupe.jpg', 'key': 'i', 'origWidth': 409, 'origHeight': 409, 'width': 409, 'height': 409, 'widthPercent': 0.45, 'rescaleHeight': False, 'trialN': 98, 'loaded': True, 'loadedTime': 2787.60000000149, 'positionName': 'RIGHT', 'positionCoords': [710.32, 179.5], 'bid': 8.39}]",189377.1000000015,1669834155009,sweetpotato,cantaloupe,8.44,8.39,-0.049999999999998934,cantaloupe,835.6000000014901,837,836.6999999992549,True,i,190720.5,1343.3999999985099,1669834156352,1343,HRV,HRV_0209,2022-11-30 18:51:33
99,"[{'imgObject': {}, 'id': 'eggsalad', 'src': '/static/foodstim60/eggsalad.jpg', 'key': 'u', 'origWidth': 410, 'origHeight': 409, 'width': 410, 'height': 409, 'widthPercent': 0.45, 'rescaleHeight': False, 'trialN': 99, 'loaded': True, 'loadedTime': 3288, 'positionName': 'LEFT', 'positionCoords': [245.68, 179.5], 'bid': 7.51}, {'imgObject': {}, 'id': 'sushi w_condiments', 'src': '/static/foodstim60/sushi w_condiments.jpg', 'key': 'i', 'origWidth': 410, 'origHeight': 410, 'width': 410, 'height': 410, 'widthPercent': 0.45, 'rescaleHeight': False, 'trialN': 99, 'loaded': True, 'loadedTime': 2453.300000000745, 'positionName': 'RIGHT', 'positionCoords': [710.32, 179], 'bid': 3.78}]",190721.1000000015,1669834156353,eggsalad,sushi w_condiments,7.51,3.78,-3.73,eggsalad,1189.8999999985099,1191,1190.699999999255,True,u,192416.6000000015,1695.5,1669834158048,1695,HRV,HRV_0209,2022-11-30 18:51:33
100,"[{'imgObject': {}, 'id': 'avocado', 'src': '/static/foodstim60/avocado.jpg', 'key': 'u', 'origWidth': 409, 'origHeight': 409, 'width': 409, 'height': 409, 'widthPercent': 0.45, 'rescaleHeight': False, 'trialN': 100, 'loaded': True, 'loadedTime': 2243.400000002235, 'positionName': 'LEFT', 'positionCoords': [246.68, 179.5], 'bid': 6.53}, {'imgObject': {}, 'id': 'veggieswithdip', 'src': '/static/foodstim60/veggieswithdip.jpg', 'key': 'i', 'origWidth': 409, 'origHeight': 409, 'width': 409, 'height': 409, 'widthPercent': 0.45, 'rescaleHeight': False, 'trialN': 100, 'loaded': True, 'loadedTime': 3198.2000000029802, 'positionName': 'RIGHT', 'positionCoords': [710.32, 179.5], 'bid': 7.65}]",192417.20000000298,1669834158049,avocado,veggieswithdip,6.53,7.65,1.12,avocado,1854.699999999255,1856,1855.5,True,u,194776.5,2359.2999999970198,1669834160408,2359,HRV,HRV_0209,2022-11-30 18:51:33
101,"[{'imgObject': {}, 'id': 'Grapes', 'src': '/static/foodstim60/Grapes.jpg', 'key': 'u', 'origWidth': 411, 'origHeight': 411, 'width': 411, 'height': 411, 'widthPercent': 0.45, 'rescaleHeight': False, 'trialN': 101, 'loaded': True, 'loadedTime': 2238.60000000149, 'positionName': 'LEFT', 'positionCoords': [244.68, 178.5], 'bid': 8.700000000000001}, {'imgObject': {}, 'id': 'Tribe humus pita', 'src': '/static/foodstim60/Tribe humus pita.jpg', 'key': 'i', 'origWidth': 411, 'origHeight': 411, 'width': 411, 'height': 411, 'widthPercent': 0.45, 'rescaleHeight': False, 'trialN': 101, 'loaded': True, 'loadedTime': 2847.300000000745, 'positionName': 'RIGHT', 'positionCoords': [710.32, 178.5], 'bid': 7.91}]",194776.70000000298,1669834160409,Grapes,Tribe humus pita,8.700000000000001,7.91,-0.7900000000000009,Grapes,1686.8999999985099,1688,1688.0999999977648,True,u,196968.6000000015,2191.89999999851,1669834162601,2192,HRV,HRV_0209,2022-11-30 18:51:33
102,"[{'imgObject': {}, 'id': 'hashbrowns', 'src': '/static/foodstim60/hashbrowns.jpg', 'key': 'u', 'origWidth': 411, 'origHeight': 410, 'width': 411, 'height': 410, 'widthPercent': 0.45, 'rescaleHeight': False, 'trialN': 102, 'loaded': True, 'loadedTime': 2852.900000002235, 'positionName': 'LEFT', 'positionCoords': [244.68, 179], 'bid': 8.35}, {'imgObject': {}, 'id': 'eggs', 'src': '/static/foodstim60/eggs.jpg', 'key': 'i', 'origWidth': 409, 'origHeight': 409, 'width': 409, 'height': 409, 'widthPercent': 0.45, 'rescaleHeight': False, 'trialN': 102, 'loaded': True, 'loadedTime': 2458.800000000745, 'positionName': 'RIGHT', 'positionCoords': [710.32, 179.5], 'bid': 8.25}]",196969.20000000298,1669834162601,hashbrowns,eggs,8.35,8.25,-0.09999999999999964,hashbrowns,1039.3999999985099,1041,1040.5999999977648,True,u,198512.6000000015,1543.3999999985099,1669834164145,1544,HRV,HRV_0209,2022-11-30 18:51:33
103,"[{'imgObject': {}, 'id': 'yogurt no spoon', 'src': '/static/foodstim60/yogurt no spoon.jpg', 'key': 'u', 'origWidth': 411, 'origHeight': 410, 'width': 411, 'height': 410, 'widthPercent': 0.45, 'rescaleHeight': False, 'trialN': 103, 'loaded': True, 'loadedTime': 3306.300000000745, 'positionName': 'LEFT', 'positionCoords': [244.68, 179], 'bid': 6.75}, {'imgObject': {}, 'id': 'hotdog w must', 'src': '/static/foodstim60/hotdog w must.jpg', 'key': 'i', 'origWidth': 409, 'origHeight': 409, 'width': 409, 'height': 409, 'widthPercent': 0.45, 'rescaleHeight': False, 'trialN': 103, 'loaded': True, 'loadedTime': 2682.900000002235, 'positionName': 'RIGHT', 'positionCoords': [710.32, 179.5], 'bid': 7.16}]",198513.20000000298,1669834164145,yogurt no spoon,hotdog w must,6.75,7.16,0.41000000000000014,hotdog w must,988.6999999992549,990,989.7999999970198,True,i,200008.80000000075,1495.5999999977648,1669834165641,1496,HRV,HRV_0209,2022-11-30 18:51:33
104,"[{'imgObject': {}, 'id': 'corn cob', 'src': '/static/foodstim60/corn cob.jpg', 'key': 'u', 'origWidth': 411, 'origHeight': 411, 'width': 411, 'height': 411, 'widthPercent': 0.45, 'rescaleHeight': False, 'trialN': 104, 'loaded': True, 'loadedTime': 3220, 'positionName': 'LEFT', 'positionCoords': [244.68, 178.5], 'bid': 8.39}, {'imgObject': {}, 'id': 'eggs', 'src': '/static/foodstim60/eggs.jpg', 'key': 'i', 'origWidth': 409, 'origHeight': 409, 'width': 409, 'height': 409, 'widthPercent': 0.45, 'rescaleHeight': False, 'trialN': 104, 'loaded': True, 'loadedTime': 2462.10000000149, 'positionName': 'RIGHT', 'positionCoords': [710.32, 179.5], 'bid': 8.25}]",200009.40000000224,1669834165641,corn cob,eggs,8.39,8.25,-0.14000000000000057,eggs,1211.8999999985099,1213,1212.8999999985099,True,i,201728.70000000298,1719.300000000745,1669834167361,1720,HRV,HRV_0209,2022-11-30 18:51:33
105,"[{'imgObject': {}, 'id': 'salad w chicken', 'src': '/static/foodstim60/salad w chicken.jpg', 'key': 'u', 'origWidth': 411, 'origHeight': 411, 'width': 411, 'height': 411, 'widthPercent': 0.45, 'rescaleHeight': False, 'trialN': 105, 'loaded': True, 'loadedTime': 2249, 'positionName': 'LEFT', 'positionCoords': [244.68, 178.5], 'bid': 6.71}, {'imgObject': {}, 'id': 'burrito', 'src': '/static/foodstim60/burrito.jpg', 'key': 'i', 'origWidth': 410, 'origHeight': 410, 'width': 410, 'height': 410, 'widthPercent': 0.45, 'rescaleHeight': False, 'trialN': 105, 'loaded': True, 'loadedTime': 3053.60000000149, 'positionName': 'RIGHT', 'positionCoords': [710.32, 179], 'bid': 8.38}]",201729.30000000075,1669834167361,salad w chicken,burrito,6.71,8.38,1.6700000000000008,salad w chicken,1493.699999999255,1495,1494.699999999255,True,u,203728.80000000075,1999.5,1669834169361,2000,HRV,HRV_0209,2022-11-30 18:51:33
106,"[{'imgObject': {}, 'id': 'sushi w_condiments', 'src': '/static/foodstim60/sushi w_condiments.jpg', 'key': 'u', 'origWidth': 410, 'origHeight': 410, 'width': 410, 'height': 410, 'widthPercent': 0.45, 'rescaleHeight': False, 'trialN': 106, 'loaded': True, 'loadedTime': 2454, 'positionName': 'LEFT', 'positionCoords': [245.68, 179], 'bid': 3.78}, {'imgObject': {}, 'id': 'hotdog w must', 'src': '/static/foodstim60/hotdog w must.jpg', 'key': 'i', 'origWidth': 409, 'origHeight': 409, 'width': 409, 'height': 409, 'widthPercent': 0.45, 'rescaleHeight': False, 'trialN': 106, 'loaded': True, 'loadedTime': 2609.900000002235, 'positionName': 'RIGHT', 'positionCoords': [710.32, 179.5], 'bid': 7.16}]",203729.40000000224,1669834169361,sushi w_condiments,hotdog w must,3.78,7.16,3.3800000000000003,hotdog w must,1467.8999999985099,1469,1468.800000000745,True,i,205703.90000000224,1974.5,1669834171336,1975,HRV,HRV_0209,2022-11-30 18:51:33
107,"[{'imgObject': {}, 'id': 'chickenfingers', 'src': '/static/foodstim60/chickenfingers.jpg', 'key': 'u', 'origWidth': 410, 'origHeight': 410, 'width': 410, 'height': 410, 'widthPercent': 0.45, 'rescaleHeight': False, 'trialN': 107, 'loaded': True, 'loadedTime': 2382.10000000149, 'positionName': 'LEFT', 'positionCoords': [245.68, 179], 'bid': 8.66}, {'imgObject': {}, 'id': 'cheerios', 'src': '/static/foodstim60/cheerios.jpg', 'key': 'i', 'origWidth': 409, 'origHeight': 410, 'width': 409, 'height': 410, 'widthPercent': 0.45, 'rescaleHeight': False, 'trialN': 107, 'loaded': True, 'loadedTime': 3204.2000000029802, 'positionName': 'RIGHT', 'positionCoords': [710.32, 179], 'bid': 7.84}]",205704.6000000015,1669834171336,chickenfingers,cheerios,8.66,7.84,-0.8200000000000003,chickenfingers,1035.800000000745,1038,1037.300000000745,True,u,207247.90000000224,1543.300000000745,1669834172880,1544,HRV,HRV_0209,2022-11-30 18:51:33
