success,trial_type,trial_index,time_elapsed,internal_node_id,Block,TrialNumber,TrialTime,trialTimeDiff,FPS_avg,FPS_med,FPS_mode,TrialDur,winResizeTime,rt,block,button_pressed,MotCoh,MotDir,ColCoh,Color,ChoiceKey,Choice,Accuracy,RT,nFrames,FPS,PPD,missTrial,missTrialMsg,onsetDelay,fullScreenExitTime,canvCenter,TrialType,Score,BlockTrial,stimulus,button_labels,exp,subjectId,date
True,fullscreen,0,2471,0.0-0.0,0.0,1.0,,,,,,,,,,,,,,,,,,,,,,,,,,,,,,,,HRV,HRV_0209,2022-11-30 19:01:00
,wl-check-fps,1,7557,0.0-1.0,0.0,2.0,"[16679.2, 16687.3, 16697.4, 16737.9, 16788.4, 16804.3, 16821.5, 16837.9, 16854.5, 16871.3, 16887.9, 16904.5, 16920.6, 16937.5, 16953.8, 16970.5, 16988.2, 17005.9, 17022.4, 17039.5, 17055.8, 17072.7, 17092.8, 17106, 17122.6, 17139.2, 17156.1, 17172.7, 17189.5, 17206.3, 17223.1, 17240.2, 17257.2, 17273.6, 17290, 17307.2, 17323.8, 17340.3, 17356.5, 17373.8, 17390.7, 17406.7, 17424.2, 17440.8, 17457.6, 17474.3, 17491, 17507.9, 17524.6, 17541.4, 17558.2, 17574.9, 17591.6, 17608.5, 17624.9, 17643.8, 17658.7, 17675.3, 17692.1, 17709, 17725.7, 17742.4, 17759.4, 17776.1, 17792.6, 17809.4, 17826.2, 17842.9, 17859.7, 17876.4, 17893.2, 17910, 17926.3, 17943.4, 17960.2, 17976.3, 17993.7, 18010.5, 18027.2, 18044, 18060.8, 18077.5, 18094.3, 18111, 18127.4, 18144.7, 18161.3, 18178.7, 18195, 18213.4, 18228, 18246.4, 18273.5, 18285.9, 18294.1, 18311.1, 18328.6, 18344.7, 18361.4, 18378.3, 18395.8, 18411.5, 18428.4, 18446.9, 18463.5, 18479.3, 18496.1, 18512.3, 18529.1, 18546.2, 18562.7, 18579.9, 18596.9, 18613, 18630.5, 18647.4, 18664.2, 18680.8, 18697.5, 18714.1, 18731, 18748, 18764.6, 18781.3, 18798.3, 18815, 18831.7, 18848.5, 18865.4, 18881.8, 18898.8, 18915.4, 18932.2, 18948.9, 18965.7, 18982.4, 18999.2, 19016.4, 19033.8, 19050, 19066.9, 19083.6, 19100.5, 19117.2, 19133.8, 19150.3, 19168.8, 19185.1, 19200.2, 19216.4, 19233.6, 19250.4, 19266.5, 19283.8, 19300.6, 19316.7, 19334.1, 19350.9, 19367.5, 19384.3, 19401.1, 19418, 19434.7, 19451.3, 19468.1, 19484.9, 19501.8, 19518.5, 19535.2, 19551.9, 19568.8, 19590.1, 19602.8, 19619.4, 19636.4, 19653.6, 19668.3, 19685.4, 19701.8, 19721.6, 19738.2, 19755, 19771.1, 19788.1, 19807, 19820.5, 19837.2, 19855.1, 19870.8, 19887.9, 19908.9, 19920.6, 19937.6, 19954.3, 19970.7, 19987.4, 20004.3, 20020.7, 20037.6, 20053.9, 20070.5, 20087.4, 20104.1, 20120.7, 20137.6, 20153.9, 20170.6, 20187.8, 20204.9, 20222.5, 20239.1, 20255.8, 20272.7, 20289.3, 20306.1, 20323, 20339.8, 20356.6, 20373.6, 20391, 20406.8, 20423.3, 20439.8, 20456.8, 20473.5, 20492.2, 20507.2, 20523.8, 20540.8, 20557.5, 20574.6, 20591.1, 20607.8, 20624.4, 20641.2, 20657.8, 20674.6, 20691.3, 20708.1, 20724.9, 20741.7, 20758.4, 20775.6, 20792.4, 20809.3, 20825.6, 20842.2, 20859, 20875.7, 20892.5, 20909.2, 20926, 20942.7, 20959.5, 20976.2, 20993.6, 21009.8, 21026.5, 21043.2, 21060, 21076.7, 21093.5, 21110.3, 21126.8, 21143.8, 21160.5, 21176.7, 21194, 21210.7, 21227.5, 21244, 21260.6, 21277.8, 21294.4, 21311.2, 21328.3, 21344.9, 21361.6, 21378.4, 21395.1, 21411.8, 21428.5, 21445.6, 21462.1, 21479.1, 21495.1, 21512.4, 21529.1, 21545.8, 21562.7, 21579.3, 21596.2, 21613.8, 21629.4, 21646.2, 21663.2, 21679.6, 21696.4, 21713.2, 21729.9]","[10, 8.1, 10.1, 40.5, 50.5, 15.9, 17.2, 16.4, 16.6, 16.8, 16.6, 16.6, 16.1, 16.9, 16.3, 16.7, 17.7, 17.7, 16.5, 17.1, 16.3, 16.9, 20.1, 13.2, 16.6, 16.6, 16.9, 16.6, 16.8, 16.8, 16.8, 17.1, 17, 16.4, 16.4, 17.2, 16.6, 16.5, 16.2, 17.3, 16.9, 16, 17.5, 16.6, 16.8, 16.7, 16.7, 16.9, 16.7, 16.8, 16.8, 16.7, 16.7, 16.9, 16.4, 18.9, 14.9, 16.6, 16.8, 16.9, 16.7, 16.7, 17, 16.7, 16.5, 16.8, 16.8, 16.7, 16.8, 16.7, 16.8, 16.8, 16.3, 17.1, 16.8, 16.1, 17.4, 16.8, 16.7, 16.8, 16.8, 16.7, 16.8, 16.7, 16.4, 17.3, 16.6, 17.4, 16.3, 18.4, 14.6, 18.4, 27.1, 12.4, 8.2, 17, 17.5, 16.1, 16.7, 16.9, 17.5, 15.7, 16.9, 18.5, 16.6, 15.8, 16.8, 16.2, 16.8, 17.1, 16.5, 17.2, 17, 16.1, 17.5, 16.9, 16.8, 16.6, 16.7, 16.6, 16.9, 17, 16.6, 16.7, 17, 16.7, 16.7, 16.8, 16.9, 16.4, 17, 16.6, 16.8, 16.7, 16.8, 16.7, 16.8, 17.2, 17.4, 16.2, 16.9, 16.7, 16.9, 16.7, 16.6, 16.5, 18.5, 16.3, 15.1, 16.2, 17.2, 16.8, 16.1, 17.3, 16.8, 16.1, 17.4, 16.8, 16.6, 16.8, 16.8, 16.9, 16.7, 16.6, 16.8, 16.8, 16.9, 16.7, 16.7, 16.7, 16.9, 21.3, 12.7, 16.6, 17, 17.2, 14.7, 17.1, 16.4, 19.8, 16.6, 16.8, 16.1, 17, 18.9, 13.5, 16.7, 17.9, 15.7, 17.1, 21, 11.7, 17, 16.7, 16.4, 16.7, 16.9, 16.4, 16.9, 16.3, 16.6, 16.9, 16.7, 16.6, 16.9, 16.3, 16.7, 17.2, 17.1, 17.6, 16.6, 16.7, 16.9, 16.6, 16.8, 16.9, 16.8, 16.8, 17, 17.4, 15.8, 16.5, 16.5, 17, 16.7, 18.7, 15, 16.6, 17, 16.7, 17.1, 16.5, 16.7, 16.6, 16.8, 16.6, 16.8, 16.7, 16.8, 16.8, 16.8, 16.7, 17.2, 16.8, 16.9, 16.3, 16.6, 16.8, 16.7, 16.8, 16.7, 16.8, 16.7, 16.8, 16.7, 17.4, 16.2, 16.7, 16.7, 16.8, 16.7, 16.8, 16.8, 16.5, 17, 16.7, 16.2, 17.3, 16.7, 16.8, 16.5, 16.6, 17.2, 16.6, 16.8, 17.1, 16.6, 16.7, 16.8, 16.7, 16.7, 16.7, 17.1, 16.5, 17, 16, 17.3, 16.7, 16.7, 16.9, 16.6, 16.9, 17.6, 15.6, 16.8, 17, 16.4, 16.8, 16.8, 16.7]",59.0,60.0,60.0,5077.5,[],,,,,,,,,,,,,,,,,,,,,,,,,HRV,HRV_0209,2022-11-30 19:01:00
,wl-html-keyboard-response,2,50025,0.0-2.0-0.0,0.0,3.0,,,,,,,,40458.199999999255,0.0,0,,,,,,,,,,,,,,,,,,,,,,HRV,HRV_0209,2022-11-30 19:01:00
,wl-rdm,3,57168,0.0-3.0-0.0,0.0,4.0,,,,,,,[],,,,0.0,0.0,87.9,0.0,u,0.0,True,1497.0,90.0,60.0,40.0,False,,3000.0,[],"[683, 384]",ColorTask_Demo,,,,,HRV,HRV_0209,2022-11-30 19:01:00
,wl-rdm,4,61842,0.0-3.0-1.0,0.0,5.0,,,,,,,[],,,,0.0,0.0,87.9,1.0,i,1.0,True,611.8000000044703,37.0,60.0,40.0,False,,2000.0,[],"[683, 384]",ColorTask_Demo,,,,,HRV,HRV_0209,2022-11-30 19:01:00
,wl-html-keyboard-response,5,67889,0.0-3.0-2.0,0.0,6.0,,,,,,,,4037.199999999255,0.0,1,,,,,,,,,,,,,,,,,,,,,,HRV,HRV_0209,2022-11-30 19:01:00
,wl-html-keyboard-response,6,75984,0.0-4.0-0.0,0.0,7.0,,,,,,,,6086.10000000149,0.0,0,,,,,,,,,,,,,,,,,,,,,,HRV,HRV_0209,2022-11-30 19:01:00
,wl-html-keyboard-response,7,83105,0.0-5.0-0.0,0.0,8.0,,,,,,,,5113.900000002235,0.0,0,,,,,,,,,,,,,,,,,,,,,,HRV,HRV_0209,2022-11-30 19:01:00
,wl-rdm,8,85466,0.0-6.0-0.0,0.0,9.0,,,,,,,[],,,,,,50.0,0.0,i,1.0,False,922.4999999962747,56.0,60.0,40.0,False,,353.76485862028414,[],"[683, 384]",ColorTask,-1.0,1.0,,,HRV,HRV_0209,2022-11-30 19:01:00
,wl-rdm,9,87764,0.0-6.1-0.1,0.0,10.0,,,,,,,[],,,,,,56.4,1.0,i,1.0,True,861.1999999992549,52.0,60.0,40.0,False,,337.14466399128787,[],"[683, 384]",ColorTask,0.0,2.0,,,HRV,HRV_0209,2022-11-30 19:01:00
,wl-rdm,10,89858,0.0-6.2-0.2,0.0,11.0,,,,,,,[],,,,,,53.2,1.0,u,0.0,False,793.3000000044703,48.0,60.0,40.0,False,,229.93803631040848,[],"[683, 384]",ColorTask,-1.0,3.0,,,HRV,HRV_0209,2022-11-30 19:01:00
,wl-rdm,11,91667,0.0-6.3-0.3,0.0,12.0,,,,,,,[],,,,,,87.9,0.0,u,0.0,True,543.1999999992549,33.0,60.0,40.0,False,,202.14276889146785,[],"[683, 384]",ColorTask,0.0,4.0,,,HRV,HRV_0209,2022-11-30 19:01:00
,wl-rdm,12,93564,0.0-6.4-0.4,0.0,13.0,,,,,,,[],,,,,,53.2,0.0,i,1.0,False,624.1999999992549,38.0,60.0,40.0,False,,210.51496721070023,[],"[683, 384]",ColorTask,-1.0,5.0,,,HRV,HRV_0209,2022-11-30 19:01:00
,wl-rdm,13,95638,0.0-6.5-0.5,0.0,14.0,,,,,,,[],,,,,,56.4,1.0,i,1.0,True,666.5,40.0,60.0,40.0,False,,346.32510697536753,[],"[683, 384]",ColorTask,0.0,6.0,,,HRV,HRV_0209,2022-11-30 19:01:00
,wl-rdm,14,97571,0.0-6.6-0.6,0.0,15.0,,,,,,,[],,,,,,50.0,1.0,u,0.0,False,626.9000000022352,38.0,60.0,40.0,False,,232.99985666579545,[],"[683, 384]",ColorTask,-1.0,7.0,,,HRV,HRV_0209,2022-11-30 19:01:00
,wl-rdm,15,99525,0.0-6.7-0.7,0.0,16.0,,,,,,,[],,,,,,50.0,0.0,u,0.0,True,650.5999999977648,39.0,60.0,40.0,False,,245.2541216330249,[],"[683, 384]",ColorTask,0.0,8.0,,,HRV,HRV_0209,2022-11-30 19:01:00
,wl-rdm,16,101520,0.0-6.8-0.8,0.0,17.0,,,,,,,[],,,,,,62.5,1.0,u,0.0,False,648.5,39.0,60.0,40.0,False,,284.6516279694997,[],"[683, 384]",ColorTask,-1.0,9.0,,,HRV,HRV_0209,2022-11-30 19:01:00
,wl-rdm,17,103630,0.0-6.9-0.9,0.0,18.0,,,,,,,[],,,,,,50.0,1.0,u,0.0,False,658.3999999985099,40.0,60.0,40.0,False,,384.2713662325746,[],"[683, 384]",ColorTask,-2.0,10.0,,,HRV,HRV_0209,2022-11-30 19:01:00
,wl-rdm,18,105630,0.0-6.10-0.10,0.0,19.0,,,,,,,[],,,,,,62.5,0.0,i,1.0,False,647.1999999992549,40.0,60.0,40.0,False,,268.9640290446832,[],"[683, 384]",ColorTask,-3.0,11.0,,,HRV,HRV_0209,2022-11-30 19:01:00
,wl-rdm,19,107735,0.0-6.11-0.11,0.0,20.0,,,,,,,[],,,,,,62.5,1.0,i,1.0,True,740.0999999977648,45.0,60.0,40.0,False,,290.2188506403847,[],"[683, 384]",ColorTask,-2.0,12.0,,,HRV,HRV_0209,2022-11-30 19:01:00
,wl-rdm,20,109697,0.0-6.12-0.12,0.0,21.0,,,,,,,[],,,,,,87.9,0.0,u,0.0,True,649.3000000007451,39.0,60.0,40.0,False,,234.889527061114,[],"[683, 384]",ColorTask,-1.0,13.0,,,HRV,HRV_0209,2022-11-30 19:01:00
,wl-rdm,21,111963,0.0-6.13-0.13,0.0,22.0,,,,,,,[],,,,,,50.0,0.0,u,0.0,True,832.8999999985099,50.0,60.0,40.0,False,,357.6820017873695,[],"[683, 384]",ColorTask,0.0,14.0,,,HRV,HRV_0209,2022-11-30 19:01:00
,wl-rdm,22,113979,0.0-6.14-0.14,0.0,23.0,,,,,,,[],,,,,,50.0,1.0,i,1.0,True,646.6999999992549,38.0,60.0,40.0,False,,309.5900413985866,[],"[683, 384]",ColorTask,1.0,15.0,,,HRV,HRV_0209,2022-11-30 19:01:00
,wl-rdm,23,116097,0.0-6.15-0.15,0.0,24.0,,,,,,,[],,,,,,87.9,0.0,i,1.0,False,767.6000000014901,46.0,60.0,40.0,False,,268.62610092522056,[],"[683, 384]",ColorTask,0.0,16.0,,,HRV,HRV_0209,2022-11-30 19:01:00
,wl-rdm,24,118173,0.0-6.16-0.16,0.0,25.0,,,,,,,[],,,,,,62.5,0.0,u,0.0,True,744.5999999977648,44.0,60.0,40.0,False,,259.01277848744957,[],"[683, 384]",ColorTask,1.0,17.0,,,HRV,HRV_0209,2022-11-30 19:01:00
,wl-rdm,25,120300,0.0-6.17-0.17,0.0,26.0,,,,,,,[],,,,,,62.5,0.0,u,0.0,True,822.3000000007451,49.0,60.0,40.0,False,,238.41233690338103,[],"[683, 384]",ColorTask,2.0,18.0,,,HRV,HRV_0209,2022-11-30 19:01:00
,wl-rdm,26,122430,0.0-6.18-0.18,0.0,27.0,,,,,,,[],,,,,,73.6,0.0,u,0.0,True,712.0,43.0,60.0,40.0,False,,339.5607844320501,[],"[683, 384]",ColorTask,3.0,19.0,,,HRV,HRV_0209,2022-11-30 19:01:00
,wl-rdm,27,124623,0.0-6.19-0.19,0.0,28.0,,,,,,,[],,,,,,62.5,0.0,u,0.0,True,845.3000000044703,51.0,60.0,40.0,False,,266.0008353942857,[],"[683, 384]",ColorTask,4.0,20.0,,,HRV,HRV_0209,2022-11-30 19:01:00
,wl-rdm,28,126868,0.0-6.20-0.20,0.0,29.0,,,,,,,[],,,,,,62.5,0.0,u,0.0,True,812.1999999992549,49.0,60.0,40.0,False,,352.42797803750557,[],"[683, 384]",ColorTask,5.0,21.0,,,HRV,HRV_0209,2022-11-30 19:01:00
,wl-rdm,29,128763,0.0-6.21-0.21,0.0,30.0,,,,,,,[],,,,,,73.6,1.0,i,1.0,True,532.5,32.0,60.0,40.0,False,,294.7704567619875,[],"[683, 384]",ColorTask,6.0,22.0,,,HRV,HRV_0209,2022-11-30 19:01:00
,wl-rdm,30,130974,0.0-6.22-0.22,0.0,31.0,,,,,,,[],,,,,,56.4,0.0,i,1.0,False,864.2000000029802,52.0,60.0,40.0,False,,274.01931955849165,[],"[683, 384]",ColorTask,5.0,23.0,,,HRV,HRV_0209,2022-11-30 19:01:00
,wl-rdm,31,132884,0.0-6.23-0.23,0.0,32.0,,,,,,,[],,,,,,62.5,1.0,i,1.0,True,615.8000000007451,37.0,60.0,40.0,False,,234.7921335527264,[],"[683, 384]",ColorTask,6.0,24.0,,,HRV,HRV_0209,2022-11-30 19:01:00
,wl-rdm,32,134962,0.0-6.24-0.24,0.0,33.0,,,,,,,[],,,,,,73.6,0.0,u,0.0,True,710.3000000007451,43.0,60.0,40.0,False,,285.4077415022428,[],"[683, 384]",ColorTask,7.0,25.0,,,HRV,HRV_0209,2022-11-30 19:01:00
,wl-rdm,33,137005,0.0-6.25-0.25,0.0,34.0,,,,,,,[],,,,,,56.4,1.0,u,0.0,False,746.5,45.0,60.0,40.0,False,,221.56013523162255,[],"[683, 384]",ColorTask,6.0,26.0,,,HRV,HRV_0209,2022-11-30 19:01:00
,wl-rdm,34,139016,0.0-6.26-0.26,0.0,35.0,,,,,,,[],,,,,,53.2,1.0,i,1.0,True,703.9000000022352,42.0,60.0,40.0,False,,238.61860858954316,[],"[683, 384]",ColorTask,7.0,27.0,,,HRV,HRV_0209,2022-11-30 19:01:00
,wl-rdm,35,141262,0.0-6.27-0.27,0.0,36.0,,,,,,,[],,,,,,50.0,1.0,u,0.0,False,942.3999999985099,57.0,60.0,40.0,False,,221.75221046076297,[],"[683, 384]",ColorTask,6.0,28.0,,,HRV,HRV_0209,2022-11-30 19:01:00
,wl-rdm,36,143345,0.0-6.28-0.28,0.0,37.0,,,,,,,[],,,,,,73.6,1.0,i,1.0,True,741.9000000022352,44.0,60.0,40.0,False,,280.91191311515996,[],"[683, 384]",ColorTask,7.0,29.0,,,HRV,HRV_0209,2022-11-30 19:01:00
,wl-rdm,37,145365,0.0-6.29-0.29,0.0,38.0,,,,,,,[],,,,,,53.2,1.0,u,0.0,False,705.5,43.0,60.0,40.0,False,,248.10742699087842,[],"[683, 384]",ColorTask,6.0,30.0,,,HRV,HRV_0209,2022-11-30 19:01:00
,wl-rdm,38,147247,0.0-6.30-0.30,0.0,39.0,,,,,,,[],,,,,,87.9,1.0,u,0.0,False,589.1999999992549,36.0,60.0,40.0,False,,226.58109316513827,[],"[683, 384]",ColorTask,5.0,31.0,,,HRV,HRV_0209,2022-11-30 19:01:00
,wl-rdm,39,149371,0.0-6.31-0.31,0.0,40.0,,,,,,,[],,,,,,87.9,1.0,i,1.0,True,794.6000000014901,48.0,60.0,40.0,False,,257.299541265562,[],"[683, 384]",ColorTask,6.0,32.0,,,HRV,HRV_0209,2022-11-30 19:01:00
,wl-rdm,40,151416,0.0-6.32-0.32,0.0,41.0,,,,,,,[],,,,,,56.4,0.0,u,0.0,True,683.3000000007451,41.0,60.0,40.0,False,,302.29834518862305,[],"[683, 384]",ColorTask,7.0,33.0,,,HRV,HRV_0209,2022-11-30 19:01:00
,wl-rdm,41,153560,0.0-6.33-0.33,0.0,42.0,,,,,,,[],,,,,,53.2,1.0,i,1.0,True,733.8000000007451,43.0,60.0,40.0,False,,343.99433702140016,[],"[683, 384]",ColorTask,8.0,34.0,,,HRV,HRV_0209,2022-11-30 19:01:00
,wl-rdm,42,155570,0.0-6.34-0.34,0.0,43.0,,,,,,,[],,,,,,87.9,1.0,i,1.0,True,654.6000000014901,39.0,60.0,40.0,False,,298.956485374963,[],"[683, 384]",ColorTask,9.0,35.0,,,HRV,HRV_0209,2022-11-30 19:01:00
,wl-rdm,43,157514,0.0-6.35-0.35,0.0,44.0,,,,,,,[],,,,,,73.6,1.0,i,1.0,True,611.1999999992549,37.0,60.0,40.0,False,,262.2720389475943,[],"[683, 384]",ColorTask,10.0,36.0,,,HRV,HRV_0209,2022-11-30 19:01:00
,wl-rdm,44,159608,0.0-6.36-0.36,0.0,45.0,,,,,,,[],,,,,,53.2,0.0,u,0.0,True,674.1999999992549,41.0,60.0,40.0,False,,344.2784896247754,[],"[683, 384]",ColorTask,11.0,37.0,,,HRV,HRV_0209,2022-11-30 19:01:00
,wl-rdm,45,161652,0.0-6.37-0.37,0.0,46.0,,,,,,,[],,,,,,62.5,0.0,i,1.0,False,677.9999999962747,41.0,60.0,40.0,False,,279.1167830908457,[],"[683, 384]",ColorTask,10.0,38.0,,,HRV,HRV_0209,2022-11-30 19:01:00
,wl-rdm,46,163897,0.0-6.38-0.38,0.0,47.0,,,,,,,[],,,,,,50.0,1.0,i,1.0,True,921.4999999962747,55.0,60.0,40.0,False,,261.1756867478143,[],"[683, 384]",ColorTask,11.0,39.0,,,HRV,HRV_0209,2022-11-30 19:01:00
,wl-rdm,47,165811,0.0-6.39-0.39,0.0,48.0,,,,,,,[],,,,,,87.9,0.0,u,0.0,True,559.0999999977648,34.0,60.0,40.0,False,,272.24396477599447,[],"[683, 384]",ColorTask,12.0,40.0,,,HRV,HRV_0209,2022-11-30 19:01:00
,wl-rdm,48,167801,0.0-6.40-0.40,0.0,49.0,,,,,,,[],,,,,,56.4,0.0,u,0.0,True,580.2000000029802,35.0,60.0,40.0,False,,336.30824320090613,[],"[683, 384]",ColorTask,13.0,41.0,,,HRV,HRV_0209,2022-11-30 19:01:00
,wl-rdm,49,170013,0.0-6.41-0.41,0.0,50.0,,,,,,,[],,,,,,53.2,0.0,i,1.0,False,896.1999999992549,54.0,60.0,40.0,False,,260.5582800502414,[],"[683, 384]",ColorTask,12.0,42.0,,,HRV,HRV_0209,2022-11-30 19:01:00
,wl-rdm,50,172241,0.0-6.42-0.42,0.0,51.0,,,,,,,[],,,,,,56.4,1.0,i,1.0,True,936.3000000007451,57.0,60.0,40.0,False,,220.85783545972376,[],"[683, 384]",ColorTask,13.0,43.0,,,HRV,HRV_0209,2022-11-30 19:01:00
,wl-rdm,51,174537,0.0-6.43-0.43,0.0,52.0,,,,,,,[],,,,,,73.6,0.0,u,0.0,True,894.8000000007451,54.0,60.0,40.0,False,,317.9215030969287,[],"[683, 384]",ColorTask,14.0,44.0,,,HRV,HRV_0209,2022-11-30 19:01:00
,wl-rdm,52,177083,0.0-6.44-0.44,0.0,53.0,,,,,,,[],,,,,,56.4,1.0,i,1.0,True,1127.5,68.0,60.0,40.0,False,,345.466014975773,[],"[683, 384]",ColorTask,15.0,45.0,,,HRV,HRV_0209,2022-11-30 19:01:00
,wl-rdm,53,179412,0.0-6.45-0.45,0.0,54.0,,,,,,,[],,,,,,50.0,0.0,i,1.0,False,980.0999999977648,59.0,60.0,40.0,False,,278.9418570876459,[],"[683, 384]",ColorTask,14.0,46.0,,,HRV,HRV_0209,2022-11-30 19:01:00
,wl-rdm,54,181775,0.0-6.46-0.46,0.0,55.0,,,,,,,[],,,,,,53.2,0.0,i,1.0,False,917.2999999970198,55.0,60.0,40.0,False,,380.2964787798138,[],"[683, 384]",ColorTask,13.0,47.0,,,HRV,HRV_0209,2022-11-30 19:01:00
,wl-rdm,55,183952,0.0-6.47-0.47,0.0,56.0,,,,,,,[],,,,,,53.2,0.0,u,0.0,True,729.5,44.0,60.0,40.0,False,,372.06311216310866,[],"[683, 384]",ColorTask,14.0,48.0,,,HRV,HRV_0209,2022-11-30 19:01:00
,wl-rdm,56,185964,0.0-6.48-0.48,0.0,57.0,,,,,,,[],,,,,,56.4,0.0,u,0.0,True,724.5,44.0,60.0,40.0,False,,211.34067595026022,[],"[683, 384]",ColorTask,15.0,49.0,,,HRV,HRV_0209,2022-11-30 19:01:00
,wl-rdm,57,188095,0.0-6.49-0.49,0.0,58.0,,,,,,,[],,,,,,87.9,1.0,i,1.0,True,730.8000000007451,44.0,60.0,40.0,False,,343.6611161610092,[],"[683, 384]",ColorTask,16.0,50.0,,,HRV,HRV_0209,2022-11-30 19:01:00
,wl-rdm,58,190071,0.0-6.50-0.50,0.0,59.0,,,,,,,[],,,,,,62.5,1.0,i,1.0,True,668.1999999992549,40.0,60.0,40.0,False,,242.23758912608855,[],"[683, 384]",ColorTask,17.0,51.0,,,HRV,HRV_0209,2022-11-30 19:01:00
,wl-rdm,59,192112,0.0-6.51-0.51,0.0,60.0,,,,,,,[],,,,,,73.6,1.0,i,1.0,True,618.5,37.0,60.0,40.0,False,,356.32367845119745,[],"[683, 384]",ColorTask,18.0,52.0,,,HRV,HRV_0209,2022-11-30 19:01:00
,wl-rdm,60,194210,0.0-6.52-0.52,0.0,61.0,,,,,,,[],,,,,,73.6,1.0,i,1.0,True,703.9000000022352,42.0,60.0,40.0,False,,327.10422568317745,[],"[683, 384]",ColorTask,19.0,53.0,,,HRV,HRV_0209,2022-11-30 19:01:00
,wl-rdm,61,196485,0.0-6.53-0.53,0.0,62.0,,,,,,,[],,,,,,56.4,0.0,u,0.0,True,819.0,49.0,60.0,40.0,False,,390.56882283992155,[],"[683, 384]",ColorTask,20.0,54.0,,,HRV,HRV_0209,2022-11-30 19:01:00
,wl-rdm,62,198560,0.0-6.54-0.54,0.0,63.0,,,,,,,[],,,,,,50.0,0.0,i,1.0,False,758.6999999992549,45.0,60.0,40.0,False,,247.71211814057688,[],"[683, 384]",ColorTask,19.0,55.0,,,HRV,HRV_0209,2022-11-30 19:01:00
,wl-rdm,63,200644,0.0-6.55-0.55,0.0,64.0,,,,,,,[],,,,,,62.5,1.0,i,1.0,True,786.3999999985099,48.0,60.0,40.0,False,,224.33086949096813,[],"[683, 384]",ColorTask,20.0,56.0,,,HRV,HRV_0209,2022-11-30 19:01:00
,wl-rdm,64,202768,0.0-6.56-0.56,0.0,65.0,,,,,,,[],,,,,,50.0,1.0,i,1.0,True,760.1000000014901,46.0,60.0,40.0,False,,291.60180766374083,[],"[683, 384]",ColorTask,21.0,57.0,,,HRV,HRV_0209,2022-11-30 19:01:00
,wl-rdm,65,204862,0.0-6.57-0.57,0.0,66.0,,,,,,,[],,,,,,50.0,1.0,i,1.0,True,789.3000000007451,48.0,60.0,40.0,False,,216.61674681065895,[],"[683, 384]",ColorTask,22.0,58.0,,,HRV,HRV_0209,2022-11-30 19:01:00
,wl-rdm,66,206990,0.0-6.58-0.58,0.0,67.0,,,,,,,[],,,,,,56.4,1.0,i,1.0,True,724.1999999992549,44.0,60.0,40.0,False,,331.7264940135162,[],"[683, 384]",ColorTask,23.0,59.0,,,HRV,HRV_0209,2022-11-30 19:01:00
,wl-rdm,67,209035,0.0-6.59-0.59,0.0,68.0,,,,,,,[],,,,,,53.2,0.0,i,1.0,False,733.9999999962747,44.0,60.0,40.0,False,,246.19557429905439,[],"[683, 384]",ColorTask,22.0,60.0,,,HRV,HRV_0209,2022-11-30 19:01:00
,wl-rdm,68,211231,0.0-6.60-0.60,0.0,69.0,,,,,,,[],,,,,,73.6,0.0,u,0.0,True,845.9000000022352,51.0,60.0,40.0,False,,298.767573315024,[],"[683, 384]",ColorTask,23.0,61.0,,,HRV,HRV_0209,2022-11-30 19:01:00
,wl-rdm,69,213308,0.0-6.61-0.61,0.0,70.0,,,,,,,[],,,,,,53.2,0.0,i,1.0,False,747.6999999992549,45.0,60.0,40.0,False,,265.1988208713537,[],"[683, 384]",ColorTask,22.0,62.0,,,HRV,HRV_0209,2022-11-30 19:01:00
,wl-rdm,70,215469,0.0-6.62-0.62,0.0,71.0,,,,,,,[],,,,,,87.9,1.0,u,0.0,False,724.8999999985099,44.0,60.0,40.0,False,,367.7298606340304,[],"[683, 384]",ColorTask,21.0,63.0,,,HRV,HRV_0209,2022-11-30 19:01:00
,wl-rdm,71,217848,0.0-6.63-0.63,0.0,72.0,,,,,,,[],,,,,,53.2,1.0,u,0.0,False,1051.300000000745,63.0,60.0,40.0,False,,267.0467939937427,[],"[683, 384]",ColorTask,20.0,64.0,,,HRV,HRV_0209,2022-11-30 19:01:00
,wl-rdm,72,220046,0.0-6.64-0.64,0.0,73.0,,,,,,,[],,,,,,73.6,0.0,u,0.0,True,919.3999999985099,55.0,60.0,40.0,False,,214.3439368729634,[],"[683, 384]",ColorTask,21.0,65.0,,,HRV,HRV_0209,2022-11-30 19:01:00
,wl-rdm,73,222088,0.0-6.65-0.65,0.0,74.0,,,,,,,[],,,,,,73.6,0.0,u,0.0,True,643.2999999970198,39.0,60.0,40.0,False,,331.3268390004232,[],"[683, 384]",ColorTask,22.0,66.0,,,HRV,HRV_0209,2022-11-30 19:01:00
,wl-rdm,74,224077,0.0-6.66-0.66,0.0,75.0,,,,,,,[],,,,,,73.6,1.0,i,1.0,True,665.2000000029802,40.0,60.0,40.0,False,,236.53892876053982,[],"[683, 384]",ColorTask,23.0,67.0,,,HRV,HRV_0209,2022-11-30 19:01:00
,wl-rdm,75,226244,0.0-6.67-0.67,0.0,76.0,,,,,,,[],,,,,,87.9,0.0,i,1.0,False,848.6999999992549,50.0,60.0,40.0,False,,255.37101143226624,[],"[683, 384]",ColorTask,22.0,68.0,,,HRV,HRV_0209,2022-11-30 19:01:00
,wl-rdm,76,228186,0.0-6.68-0.68,0.0,77.0,,,,,,,[],,,,,,87.9,1.0,i,1.0,True,631.9000000022352,38.0,60.0,40.0,False,,242.847788222136,[],"[683, 384]",ColorTask,23.0,69.0,,,HRV,HRV_0209,2022-11-30 19:01:00
,wl-rdm,77,230163,0.0-6.69-0.69,0.0,78.0,,,,,,,[],,,,,,56.4,0.0,u,0.0,True,645.5,39.0,60.0,40.0,False,,263.9726815877807,[],"[683, 384]",ColorTask,24.0,70.0,,,HRV,HRV_0209,2022-11-30 19:01:00
,wl-rdm,78,232174,0.0-6.70-0.70,0.0,79.0,,,,,,,[],,,,,,62.5,0.0,i,1.0,False,735.1000000014901,44.0,60.0,40.0,False,,216.3005354519995,[],"[683, 384]",ColorTask,23.0,71.0,,,HRV,HRV_0209,2022-11-30 19:01:00
,wl-rdm,79,234219,0.0-6.71-0.71,0.0,80.0,,,,,,,[],,,,,,50.0,1.0,u,0.0,False,631.3000000007451,38.0,60.0,40.0,False,,353.2053280492959,[],"[683, 384]",ColorTask,22.0,72.0,,,HRV,HRV_0209,2022-11-30 19:01:00
,wl-rdm,80,236345,0.0-6.72-0.72,0.0,81.0,,,,,,,[],,,,,,56.4,0.0,u,0.0,True,668.1000000014901,41.0,60.0,40.0,False,,397.6096552084822,[],"[683, 384]",ColorTask,23.0,73.0,,,HRV,HRV_0209,2022-11-30 19:01:00
,wl-rdm,81,238422,0.0-6.73-0.73,0.0,82.0,,,,,,,[],,,,,,62.5,1.0,i,1.0,True,791.6999999992549,47.0,60.0,40.0,False,,208.77603585820754,[],"[683, 384]",ColorTask,24.0,74.0,,,HRV,HRV_0209,2022-11-30 19:01:00
,wl-rdm,82,240534,0.0-6.74-0.74,0.0,83.0,,,,,,,[],,,,,,50.0,0.0,u,0.0,True,826.6999999992549,50.0,60.0,40.0,False,,207.9367940561046,[],"[683, 384]",ColorTask,25.0,75.0,,,HRV,HRV_0209,2022-11-30 19:01:00
,wl-rdm,83,242612,0.0-6.75-0.75,0.0,84.0,,,,,,,[],,,,,,56.4,1.0,i,1.0,True,768.6000000014901,46.0,60.0,40.0,False,,243.90694837381244,[],"[683, 384]",ColorTask,26.0,76.0,,,HRV,HRV_0209,2022-11-30 19:01:00
,wl-rdm,84,244727,0.0-6.76-0.76,0.0,85.0,,,,,,,[],,,,,,87.9,0.0,u,0.0,True,797.7999999970198,48.0,60.0,40.0,False,,265.4197216650914,[],"[683, 384]",ColorTask,27.0,77.0,,,HRV,HRV_0209,2022-11-30 19:01:00
,wl-rdm,85,246743,0.0-6.77-0.77,0.0,86.0,,,,,,,[],,,,,,73.6,0.0,i,1.0,False,630.3999999985099,38.0,60.0,40.0,False,,311.3772751098941,[],"[683, 384]",ColorTask,26.0,78.0,,,HRV,HRV_0209,2022-11-30 19:01:00
,wl-rdm,86,248410,0.0-6.78-0.78,0.0,87.0,,,,,,,[],,,,,,56.4,1.0,u,0.0,False,329.80000000074506,20.0,60.0,40.0,False,,266.6126168923565,[],"[683, 384]",ColorTask,25.0,79.0,,,HRV,HRV_0209,2022-11-30 19:01:00
,wl-rdm,87,250226,0.0-6.79-0.79,0.0,88.0,,,,,,,[],,,,,,50.0,1.0,i,1.0,True,469.6000000014901,29.0,60.0,40.0,False,,264.8153733013074,[],"[683, 384]",ColorTask,26.0,80.0,,,HRV,HRV_0209,2022-11-30 19:01:00
,wl-rdm,88,252246,0.0-6.80-0.80,0.0,89.0,,,,,,,[],,,,,,87.9,1.0,u,0.0,False,600.0,36.0,60.0,40.0,False,,356.8898493501523,[],"[683, 384]",ColorTask,25.0,81.0,,,HRV,HRV_0209,2022-11-30 19:01:00
,wl-rdm,89,254608,0.0-6.81-0.81,0.0,90.0,,,,,,,[],,,,,,87.9,0.0,u,0.0,True,960.6999999992549,58.0,60.0,40.0,False,,306.93470717740485,[],"[683, 384]",ColorTask,26.0,82.0,,,HRV,HRV_0209,2022-11-30 19:01:00
,wl-rdm,90,256803,0.0-6.82-0.82,0.0,91.0,,,,,,,[],,,,,,62.5,1.0,i,1.0,True,764.1000000014901,46.0,60.0,40.0,False,,356.4815291970883,[],"[683, 384]",ColorTask,27.0,83.0,,,HRV,HRV_0209,2022-11-30 19:01:00
,wl-rdm,91,258864,0.0-6.83-0.83,0.0,92.0,,,,,,,[],,,,,,53.2,1.0,i,1.0,True,761.8000000007451,48.0,60.0,40.0,False,,218.80320764726818,[],"[683, 384]",ColorTask,28.0,84.0,,,HRV,HRV_0209,2022-11-30 19:01:00
,wl-rdm,92,260976,0.0-6.84-0.84,0.0,93.0,,,,,,,[],,,,,,53.2,0.0,i,1.0,False,781.9000000022352,47.0,60.0,40.0,False,,271.8231552943223,[],"[683, 384]",ColorTask,27.0,85.0,,,HRV,HRV_0209,2022-11-30 19:01:00
,wl-rdm,93,263052,0.0-6.85-0.85,0.0,94.0,,,,,,,[],,,,,,62.5,0.0,u,0.0,True,687.0999999977648,41.0,60.0,40.0,False,,320.3149065493456,[],"[683, 384]",ColorTask,28.0,86.0,,,HRV,HRV_0209,2022-11-30 19:01:00
,wl-rdm,94,264929,0.0-6.86-0.86,0.0,95.0,,,,,,,[],,,,,,87.9,0.0,u,0.0,True,528.0999999977648,33.0,60.0,40.0,False,,273.15272774909636,[],"[683, 384]",ColorTask,29.0,87.0,,,HRV,HRV_0209,2022-11-30 19:01:00
,wl-rdm,95,266959,0.0-6.87-0.87,0.0,96.0,,,,,,,[],,,,,,62.5,0.0,i,1.0,False,680.0999999977648,41.0,60.0,40.0,False,,280.43551620721706,[],"[683, 384]",ColorTask,28.0,88.0,,,HRV,HRV_0209,2022-11-30 19:01:00
,wl-rdm,96,269152,0.0-6.88-0.88,0.0,97.0,,,,,,,[],,,,,,53.2,1.0,u,0.0,False,907.3999999985099,55.0,60.0,40.0,False,,200.95009131621322,[],"[683, 384]",ColorTask,27.0,89.0,,,HRV,HRV_0209,2022-11-30 19:01:00
,wl-rdm,97,271263,0.0-6.89-0.89,0.0,98.0,,,,,,,[],,,,,,53.2,1.0,i,1.0,True,704.2999999970198,42.0,60.0,40.0,False,,350.4005996358883,[],"[683, 384]",ColorTask,28.0,90.0,,,HRV,HRV_0209,2022-11-30 19:01:00
,wl-rdm,98,273341,0.0-6.90-0.90,0.0,99.0,,,,,,,[],,,,,,56.4,0.0,i,1.0,False,652.1999999992549,39.0,60.0,40.0,False,,365.85117430768673,[],"[683, 384]",ColorTask,27.0,91.0,,,HRV,HRV_0209,2022-11-30 19:01:00
,wl-rdm,99,275536,0.0-6.91-0.91,0.0,100.0,,,,,,,[],,,,,,87.9,0.0,i,1.0,False,734.5999999977648,44.0,60.0,40.0,False,,393.601084976355,[],"[683, 384]",ColorTask,26.0,92.0,,,HRV,HRV_0209,2022-11-30 19:01:00
,wl-rdm,100,277781,0.0-6.92-0.92,0.0,101.0,,,,,,,[],,,,,,73.6,1.0,i,1.0,True,930.8999999985099,56.0,60.0,40.0,False,,237.91126205323042,[],"[683, 384]",ColorTask,27.0,93.0,,,HRV,HRV_0209,2022-11-30 19:01:00
,wl-rdm,101,279928,0.0-6.93-0.93,0.0,102.0,,,,,,,[],,,,,,73.6,1.0,i,1.0,True,846.9000000022352,51.0,60.0,40.0,False,,228.61138822457397,[],"[683, 384]",ColorTask,28.0,94.0,,,HRV,HRV_0209,2022-11-30 19:01:00
,wl-rdm,102,282204,0.0-6.94-0.94,0.0,103.0,,,,,,,[],,,,,,62.5,1.0,i,1.0,True,832.1999999992549,50.0,60.0,40.0,False,,382.2593884814954,[],"[683, 384]",ColorTask,29.0,95.0,,,HRV,HRV_0209,2022-11-30 19:01:00
,wl-rdm,103,284315,0.0-6.95-0.95,0.0,104.0,,,,,,,[],,,,,,53.2,0.0,u,0.0,True,762.2999999970198,46.0,60.0,40.0,False,,272.70122831858964,[],"[683, 384]",ColorTask,30.0,96.0,,,HRV,HRV_0209,2022-11-30 19:01:00
,wl-rdm,104,286410,0.0-6.96-0.96,0.0,105.0,,,,,,,[],,,,,,73.6,0.0,u,0.0,True,802.3000000007451,48.0,60.0,40.0,False,,229.78142380192475,[],"[683, 384]",ColorTask,31.0,97.0,,,HRV,HRV_0209,2022-11-30 19:01:00
,wl-rdm,105,288387,0.0-6.97-0.97,0.0,106.0,,,,,,,[],,,,,,50.0,0.0,i,1.0,False,698.0,42.0,60.0,40.0,False,,216.26616940429756,[],"[683, 384]",ColorTask,30.0,98.0,,,HRV,HRV_0209,2022-11-30 19:01:00
,wl-rdm,106,290447,0.0-6.98-0.98,0.0,107.0,,,,,,,[],,,,,,50.0,0.0,i,1.0,False,753.8999999985099,46.0,60.0,40.0,False,,216.3726833717317,[],"[683, 384]",ColorTask,29.0,99.0,,,HRV,HRV_0209,2022-11-30 19:01:00
,wl-rdm,107,292577,0.0-6.99-0.99,0.0,108.0,,,,,,,[],,,,,,62.5,1.0,i,1.0,True,659.6000000014901,40.0,60.0,40.0,False,,388.6079551858734,[],"[683, 384]",ColorTask,30.0,100.0,,,HRV,HRV_0209,2022-11-30 19:01:00
,wl-rdm,108,294720,0.0-6.100-0.100,0.0,109.0,,,,,,,[],,,,,,53.2,1.0,u,0.0,False,676.5,41.0,60.0,40.0,False,,385.8372237563211,[],"[683, 384]",ColorTask,29.0,101.0,,,HRV,HRV_0209,2022-11-30 19:01:00
,wl-rdm,109,296747,0.0-6.101-0.101,0.0,110.0,,,,,,,[],,,,,,73.6,1.0,i,1.0,True,762.7999999970198,46.0,60.0,40.0,False,,216.07341830281536,[],"[683, 384]",ColorTask,30.0,102.0,,,HRV,HRV_0209,2022-11-30 19:01:00
,wl-rdm,110,298808,0.0-6.102-0.102,0.0,111.0,,,,,,,[],,,,,,87.9,1.0,u,0.0,False,660.5,40.0,60.0,40.0,False,,327.10311541709194,[],"[683, 384]",ColorTask,29.0,103.0,,,HRV,HRV_0209,2022-11-30 19:01:00
,wl-rdm,111,300953,0.0-6.103-0.103,0.0,112.0,,,,,,,[],,,,,,56.4,1.0,i,1.0,True,832.7000000029802,50.0,60.0,40.0,False,,236.2293139900648,[],"[683, 384]",ColorTask,30.0,104.0,,,HRV,HRV_0209,2022-11-30 19:01:00
,wl-rdm,112,303030,0.0-6.104-0.104,0.0,113.0,,,,,,,[],,,,,,87.9,1.0,i,1.0,True,799.8999999985099,48.0,60.0,40.0,False,,206.98005964062096,[],"[683, 384]",ColorTask,31.0,105.0,,,HRV,HRV_0209,2022-11-30 19:01:00
,wl-rdm,113,305260,0.0-6.105-0.105,0.0,114.0,,,,,,,[],,,,,,73.6,0.0,u,0.0,True,910.6999999992549,56.0,60.0,40.0,False,,224.687031139247,[],"[683, 384]",ColorTask,32.0,106.0,,,HRV,HRV_0209,2022-11-30 19:01:00
,wl-rdm,114,307554,0.0-6.106-0.106,0.0,115.0,,,,,,,[],,,,,,56.4,0.0,u,0.0,True,1013.6999999955297,61.0,60.0,40.0,False,,212.39805927716975,[],"[683, 384]",ColorTask,33.0,107.0,,,HRV,HRV_0209,2022-11-30 19:01:00
,wl-rdm,115,309732,0.0-6.107-0.107,0.0,116.0,,,,,,,[],,,,,,50.0,0.0,u,0.0,True,860.6999999955297,52.0,60.0,40.0,False,,233.27328693206422,[],"[683, 384]",ColorTask,34.0,108.0,,,HRV,HRV_0209,2022-11-30 19:01:00
,wl-html-keyboard-response,116,317639,0.0-7.0-0.0,1.0,117.0,,,,,,,,5899.10000000149,1.0,0,,,,,,,,,,,,,,,,,,,,,,HRV,HRV_0209,2022-11-30 19:01:00
,wl-rdm,117,319970,0.0-8.0-0.0,1.0,118.0,,,,,,,[],,,,,,87.9,1.0,i,1.0,True,876.9999999962747,53.0,60.0,40.0,False,,379.30854101288514,[],"[683, 384]",ColorTask,35.0,1.0,,,HRV,HRV_0209,2022-11-30 19:01:00
,wl-rdm,118,322248,0.0-8.1-0.1,1.0,119.0,,,,,,,[],,,,,,53.2,1.0,i,1.0,True,808.8000000044703,49.0,60.0,40.0,False,,367.495088351159,[],"[683, 384]",ColorTask,36.0,2.0,,,HRV,HRV_0209,2022-11-30 19:01:00
,wl-rdm,119,324376,0.0-8.2-0.2,1.0,120.0,,,,,,,[],,,,,,56.4,0.0,u,0.0,True,685.0,42.0,60.0,40.0,False,,361.5546465533614,[],"[683, 384]",ColorTask,37.0,3.0,,,HRV,HRV_0209,2022-11-30 19:01:00
,wl-rdm,120,326470,0.0-8.3-0.3,1.0,121.0,,,,,,,[],,,,,,50.0,1.0,i,1.0,True,744.5,45.0,60.0,40.0,False,,275.62009945677374,[],"[683, 384]",ColorTask,38.0,4.0,,,HRV,HRV_0209,2022-11-30 19:01:00
,wl-rdm,121,328554,0.0-8.4-0.4,1.0,122.0,,,,,,,[],,,,,,73.6,1.0,i,1.0,True,640.0000000037253,38.0,60.0,40.0,False,,368.56515239259784,[],"[683, 384]",ColorTask,39.0,5.0,,,HRV,HRV_0209,2022-11-30 19:01:00
,wl-rdm,122,330412,0.0-8.5-0.5,1.0,123.0,,,,,,,[],,,,,,73.6,0.0,u,0.0,True,559.0999999977648,34.0,60.0,40.0,False,,245.86825056758468,[],"[683, 384]",ColorTask,40.0,6.0,,,HRV,HRV_0209,2022-11-30 19:01:00
,wl-rdm,123,332628,0.0-8.6-0.6,1.0,124.0,,,,,,,[],,,,,,56.4,1.0,i,1.0,True,748.6999999955297,46.0,60.0,40.0,False,,370.8483251803225,[],"[683, 384]",ColorTask,41.0,7.0,,,HRV,HRV_0209,2022-11-30 19:01:00
,wl-rdm,124,334716,0.0-8.7-0.7,1.0,125.0,,,,,,,[],,,,,,62.5,1.0,i,1.0,True,698.3999999985099,42.0,60.0,40.0,False,,318.9224868938708,[],"[683, 384]",ColorTask,42.0,8.0,,,HRV,HRV_0209,2022-11-30 19:01:00
,wl-rdm,125,336727,0.0-8.8-0.8,1.0,126.0,,,,,,,[],,,,,,56.4,1.0,u,0.0,False,659.3000000007451,40.0,60.0,40.0,False,,269.7826656441289,[],"[683, 384]",ColorTask,41.0,9.0,,,HRV,HRV_0209,2022-11-30 19:01:00
,wl-rdm,126,338938,0.0-8.9-0.9,1.0,127.0,,,,,,,[],,,,,,53.2,1.0,i,1.0,True,792.0999999977648,48.0,60.0,40.0,False,,344.03500676182847,[],"[683, 384]",ColorTask,42.0,10.0,,,HRV,HRV_0209,2022-11-30 19:01:00
,wl-rdm,127,340898,0.0-8.10-0.10,1.0,128.0,,,,,,,[],,,,,,53.2,1.0,i,1.0,True,685.1000000014901,41.0,60.0,40.0,False,,212.06116770745226,[],"[683, 384]",ColorTask,43.0,11.0,,,HRV,HRV_0209,2022-11-30 19:01:00
,wl-rdm,128,343028,0.0-8.11-0.11,1.0,129.0,,,,,,,[],,,,,,53.2,1.0,i,1.0,True,697.1000000014901,42.0,60.0,40.0,False,,355.3915525268148,[],"[683, 384]",ColorTask,44.0,12.0,,,HRV,HRV_0209,2022-11-30 19:01:00
,wl-rdm,129,345171,0.0-8.12-0.12,1.0,130.0,,,,,,,[],,,,,,62.5,1.0,i,1.0,True,693.6999999992549,42.0,60.0,40.0,False,,382.7302279571636,[],"[683, 384]",ColorTask,45.0,13.0,,,HRV,HRV_0209,2022-11-30 19:01:00
,wl-rdm,130,347265,0.0-8.13-0.13,1.0,131.0,,,,,,,[],,,,,,50.0,0.0,i,1.0,False,725.3999999985099,44.0,60.0,40.0,False,,288.2276577613825,[],"[683, 384]",ColorTask,44.0,14.0,,,HRV,HRV_0209,2022-11-30 19:01:00
,wl-rdm,131,349494,0.0-8.14-0.14,1.0,132.0,,,,,,,[],,,,,,53.2,0.0,i,1.0,False,779.5,47.0,60.0,40.0,False,,378.15764969483536,[],"[683, 384]",ColorTask,43.0,15.0,,,HRV,HRV_0209,2022-11-30 19:01:00
,wl-rdm,132,351403,0.0-8.15-0.15,1.0,133.0,,,,,,,[],,,,,,53.2,0.0,u,0.0,True,591.6999999955297,36.0,60.0,40.0,False,,235.05648336720614,[],"[683, 384]",ColorTask,44.0,16.0,,,HRV,HRV_0209,2022-11-30 19:01:00
,wl-rdm,133,353313,0.0-8.16-0.16,1.0,134.0,,,,,,,[],,,,,,62.5,1.0,i,1.0,True,580.3999999985099,35.0,60.0,40.0,False,,263.2433721765989,[],"[683, 384]",ColorTask,45.0,17.0,,,HRV,HRV_0209,2022-11-30 19:01:00
,wl-rdm,134,355491,0.0-8.17-0.17,1.0,135.0,,,,,,,[],,,,,,56.4,0.0,u,0.0,True,816.1999999992549,49.0,60.0,40.0,False,,276.57010399634385,[],"[683, 384]",ColorTask,46.0,18.0,,,HRV,HRV_0209,2022-11-30 19:01:00
,wl-rdm,135,357468,0.0-8.18-0.18,1.0,136.0,,,,,,,[],,,,,,53.2,0.0,u,0.0,True,659.0,40.0,60.0,40.0,False,,223.22722259004678,[],"[683, 384]",ColorTask,47.0,19.0,,,HRV,HRV_0209,2022-11-30 19:01:00
,wl-rdm,136,359563,0.0-8.19-0.19,1.0,137.0,,,,,,,[],,,,,,50.0,0.0,u,0.0,True,647.5999999977648,39.0,60.0,40.0,False,,394.0832690991259,[],"[683, 384]",ColorTask,48.0,20.0,,,HRV,HRV_0209,2022-11-30 19:01:00
,wl-rdm,137,361707,0.0-8.20-0.20,1.0,138.0,,,,,,,[],,,,,,62.5,1.0,i,1.0,True,732.8000000044703,44.0,60.0,40.0,False,,334.7470682549549,[],"[683, 384]",ColorTask,49.0,21.0,,,HRV,HRV_0209,2022-11-30 19:01:00
,wl-rdm,138,363735,0.0-8.21-0.21,1.0,139.0,,,,,,,[],,,,,,56.4,1.0,i,1.0,True,659.1999999955297,40.0,60.0,40.0,False,,288.48564577154286,[],"[683, 384]",ColorTask,50.0,22.0,,,HRV,HRV_0209,2022-11-30 19:01:00
,wl-rdm,139,365661,0.0-8.22-0.22,1.0,140.0,,,,,,,[],,,,,,50.0,0.0,u,0.0,True,653.8999999985099,39.0,60.0,40.0,False,,210.01516455551146,[],"[683, 384]",ColorTask,51.0,23.0,,,HRV,HRV_0209,2022-11-30 19:01:00
,wl-rdm,140,367773,0.0-8.23-0.23,1.0,141.0,,,,,,,[],,,,,,50.0,0.0,u,0.0,True,738.3999999947846,45.0,60.0,40.0,False,,299.009910348962,[],"[683, 384]",ColorTask,52.0,24.0,,,HRV,HRV_0209,2022-11-30 19:01:00
,wl-rdm,141,369867,0.0-8.24-0.24,1.0,142.0,,,,,,,[],,,,,,56.4,0.0,i,1.0,False,810.1999999992549,49.0,60.0,40.0,False,,214.73662789022262,[],"[683, 384]",ColorTask,51.0,25.0,,,HRV,HRV_0209,2022-11-30 19:01:00
,wl-rdm,142,371928,0.0-8.25-0.25,1.0,143.0,,,,,,,[],,,,,,73.6,1.0,i,1.0,True,609.2999999970198,37.0,60.0,40.0,False,,383.99067376108684,[],"[683, 384]",ColorTask,52.0,26.0,,,HRV,HRV_0209,2022-11-30 19:01:00
,wl-rdm,143,374089,0.0-8.26-0.26,1.0,144.0,,,,,,,[],,,,,,50.0,1.0,i,1.0,True,879.1000000014901,53.0,60.0,40.0,False,,202.50676938434796,[],"[683, 384]",ColorTask,53.0,27.0,,,HRV,HRV_0209,2022-11-30 19:01:00
,wl-rdm,144,376219,0.0-8.27-0.27,1.0,145.0,,,,,,,[],,,,,,62.5,0.0,i,1.0,False,708.1999999992549,43.0,60.0,40.0,False,,336.0096719902797,[],"[683, 384]",ColorTask,52.0,28.0,,,HRV,HRV_0209,2022-11-30 19:01:00
,wl-rdm,145,378110,0.0-8.28-0.28,1.0,146.0,,,,,,,[],,,,,,87.9,1.0,u,0.0,False,613.0,37.0,60.0,40.0,False,,216.77316590589436,[],"[683, 384]",ColorTask,51.0,29.0,,,HRV,HRV_0209,2022-11-30 19:01:00
,wl-rdm,146,380355,0.0-8.29-0.29,1.0,147.0,,,,,,,[],,,,,,50.0,1.0,i,1.0,True,822.0,50.0,60.0,40.0,False,,340.8420638772657,[],"[683, 384]",ColorTask,52.0,30.0,,,HRV,HRV_0209,2022-11-30 19:01:00
,wl-rdm,147,382550,0.0-8.30-0.30,1.0,148.0,,,,,,,[],,,,,,62.5,0.0,i,1.0,False,742.3999999985099,45.0,60.0,40.0,False,,376.9274199540479,[],"[683, 384]",ColorTask,51.0,31.0,,,HRV,HRV_0209,2022-11-30 19:01:00
,wl-rdm,148,384661,0.0-8.31-0.31,1.0,149.0,,,,,,,[],,,,,,73.6,0.0,i,1.0,False,760.4999999962747,46.0,60.0,40.0,False,,271.1366647705793,[],"[683, 384]",ColorTask,50.0,32.0,,,HRV,HRV_0209,2022-11-30 19:01:00
,wl-rdm,149,386940,0.0-8.32-0.32,1.0,150.0,,,,,,,[],,,,,,87.9,0.0,u,0.0,True,956.9000000022352,57.0,60.0,40.0,False,,247.3595735506411,[],"[683, 384]",ColorTask,51.0,33.0,,,HRV,HRV_0209,2022-11-30 19:01:00
,wl-rdm,150,389035,0.0-8.33-0.33,1.0,151.0,,,,,,,[],,,,,,73.6,1.0,i,1.0,True,742.5,45.0,60.0,40.0,False,,271.99081058294036,[],"[683, 384]",ColorTask,52.0,34.0,,,HRV,HRV_0209,2022-11-30 19:01:00
,wl-rdm,151,391196,0.0-8.34-0.34,1.0,152.0,,,,,,,[],,,,,,73.6,1.0,i,1.0,True,875.8999999985099,53.0,60.0,40.0,False,,205.25984803015524,[],"[683, 384]",ColorTask,53.0,35.0,,,HRV,HRV_0209,2022-11-30 19:01:00
,wl-rdm,152,393358,0.0-8.35-0.35,1.0,153.0,,,,,,,[],,,,,,56.4,0.0,u,0.0,True,804.7000000029802,48.0,60.0,40.0,False,,299.35866476484114,[],"[683, 384]",ColorTask,54.0,36.0,,,HRV,HRV_0209,2022-11-30 19:01:00
,wl-rdm,153,395452,0.0-8.36-0.36,1.0,154.0,,,,,,,[],,,,,,62.5,0.0,u,0.0,True,775.0999999977648,47.0,60.0,40.0,False,,245.52586722572642,[],"[683, 384]",ColorTask,55.0,37.0,,,HRV,HRV_0209,2022-11-30 19:01:00
,wl-rdm,154,397514,0.0-8.37-0.37,1.0,155.0,,,,,,,[],,,,,,62.5,1.0,i,1.0,True,727.1000000014901,44.0,60.0,40.0,False,,257.92955972705715,[],"[683, 384]",ColorTask,56.0,38.0,,,HRV,HRV_0209,2022-11-30 19:01:00
,wl-rdm,155,399844,0.0-8.38-0.38,1.0,156.0,,,,,,,[],,,,,,56.4,0.0,i,1.0,False,1029.0,62.0,60.0,40.0,False,,229.899445204776,[],"[683, 384]",ColorTask,55.0,39.0,,,HRV,HRV_0209,2022-11-30 19:01:00
,wl-rdm,156,402071,0.0-8.39-0.39,1.0,157.0,,,,,,,[],,,,,,56.4,1.0,i,1.0,True,931.3000000007451,56.0,60.0,40.0,False,,217.12876041007476,[],"[683, 384]",ColorTask,56.0,40.0,,,HRV,HRV_0209,2022-11-30 19:01:00
,wl-rdm,157,404100,0.0-8.40-0.40,1.0,158.0,,,,,,,[],,,,,,56.4,1.0,i,1.0,True,647.3999999985099,39.0,60.0,40.0,False,,315.7691121951275,[],"[683, 384]",ColorTask,57.0,41.0,,,HRV,HRV_0209,2022-11-30 19:01:00
,wl-rdm,158,406008,0.0-8.41-0.41,1.0,159.0,,,,,,,[],,,,,,50.0,0.0,i,1.0,False,611.8000000044703,37.0,60.0,40.0,False,,203.2240274292455,[],"[683, 384]",ColorTask,56.0,42.0,,,HRV,HRV_0209,2022-11-30 19:01:00
,wl-rdm,159,408002,0.0-8.42-0.42,1.0,160.0,,,,,,,[],,,,,,50.0,1.0,u,0.0,False,571.4000000022352,34.0,60.0,40.0,False,,347.2185804016679,[],"[683, 384]",ColorTask,55.0,43.0,,,HRV,HRV_0209,2022-11-30 19:01:00
,wl-rdm,160,410079,0.0-8.43-0.43,1.0,161.0,,,,,,,[],,,,,,53.2,0.0,i,1.0,False,657.6000000014901,40.0,60.0,40.0,False,,340.97514886639516,[],"[683, 384]",ColorTask,54.0,44.0,,,HRV,HRV_0209,2022-11-30 19:01:00
,wl-rdm,161,411989,0.0-8.44-0.44,1.0,162.0,,,,,,,[],,,,,,87.9,0.0,u,0.0,True,609.8000000007451,37.0,60.0,40.0,False,,222.26964677287546,[],"[683, 384]",ColorTask,55.0,45.0,,,HRV,HRV_0209,2022-11-30 19:01:00
,wl-rdm,162,413950,0.0-8.45-0.45,1.0,163.0,,,,,,,[],,,,,,53.2,0.0,i,1.0,False,660.1999999992549,40.0,60.0,40.0,False,,228.98095752168902,[],"[683, 384]",ColorTask,54.0,46.0,,,HRV,HRV_0209,2022-11-30 19:01:00
,wl-rdm,163,416010,0.0-8.46-0.46,1.0,164.0,,,,,,,[],,,,,,87.9,1.0,i,1.0,True,658.3999999985099,40.0,60.0,40.0,False,,334.85129746257377,[],"[683, 384]",ColorTask,55.0,47.0,,,HRV,HRV_0209,2022-11-30 19:01:00
,wl-rdm,164,418054,0.0-8.47-0.47,1.0,165.0,,,,,,,[],,,,,,87.9,1.0,i,1.0,True,617.4000000022352,37.0,60.0,40.0,False,,359.2841205468483,[],"[683, 384]",ColorTask,56.0,48.0,,,HRV,HRV_0209,2022-11-30 19:01:00
,wl-rdm,165,420065,0.0-8.48-0.48,1.0,166.0,,,,,,,[],,,,,,73.6,1.0,i,1.0,True,717.9000000022352,43.0,60.0,40.0,False,,219.65232445228486,[],"[683, 384]",ColorTask,57.0,49.0,,,HRV,HRV_0209,2022-11-30 19:01:00
,wl-rdm,166,422176,0.0-8.49-0.49,1.0,167.0,,,,,,,[],,,,,,62.5,0.0,i,1.0,False,838.1000000014901,50.0,60.0,40.0,False,,203.55493795298622,[],"[683, 384]",ColorTask,56.0,50.0,,,HRV,HRV_0209,2022-11-30 19:01:00
,wl-rdm,167,424170,0.0-8.50-0.50,1.0,168.0,,,,,,,[],,,,,,50.0,0.0,u,0.0,True,699.9000000022352,42.0,60.0,40.0,False,,226.82737771413426,[],"[683, 384]",ColorTask,57.0,51.0,,,HRV,HRV_0209,2022-11-30 19:01:00
,wl-rdm,168,426147,0.0-8.51-0.51,1.0,169.0,,,,,,,[],,,,,,50.0,1.0,i,1.0,True,697.8000000007451,42.0,60.0,40.0,False,,209.84172336636718,[],"[683, 384]",ColorTask,58.0,52.0,,,HRV,HRV_0209,2022-11-30 19:01:00
,wl-rdm,169,428210,0.0-8.52-0.52,1.0,170.0,,,,,,,[],,,,,,73.6,1.0,u,0.0,False,604.1000000014901,37.0,60.0,40.0,False,,372.5702920769222,[],"[683, 384]",ColorTask,57.0,53.0,,,HRV,HRV_0209,2022-11-30 19:01:00
,wl-rdm,170,430436,0.0-8.53-0.53,1.0,171.0,,,,,,,[],,,,,,62.5,1.0,i,1.0,True,946.1999999992549,57.0,60.0,40.0,False,,202.05947906951383,[],"[683, 384]",ColorTask,58.0,54.0,,,HRV,HRV_0209,2022-11-30 19:01:00
,wl-rdm,171,432899,0.0-8.54-0.54,1.0,172.0,,,,,,,[],,,,,,73.6,0.0,u,0.0,True,996.5,60.0,60.0,40.0,False,,389.30978580674565,[],"[683, 384]",ColorTask,59.0,55.0,,,HRV,HRV_0209,2022-11-30 19:01:00
,wl-rdm,172,434976,0.0-8.55-0.55,1.0,173.0,,,,,,,[],,,,,,87.9,0.0,i,1.0,False,741.2999999970198,45.0,60.0,40.0,False,,253.37969802748137,[],"[683, 384]",ColorTask,58.0,56.0,,,HRV,HRV_0209,2022-11-30 19:01:00
,wl-rdm,173,436987,0.0-8.56-0.56,1.0,174.0,,,,,,,[],,,,,,87.9,0.0,u,0.0,True,677.1999999992549,41.0,60.0,40.0,False,,257.69693600379907,[],"[683, 384]",ColorTask,59.0,57.0,,,HRV,HRV_0209,2022-11-30 19:01:00
,wl-rdm,174,439182,0.0-8.57-0.57,1.0,175.0,,,,,,,[],,,,,,53.2,0.0,i,1.0,False,752.5,45.0,60.0,40.0,False,,376.95201871380016,[],"[683, 384]",ColorTask,58.0,58.0,,,HRV,HRV_0209,2022-11-30 19:01:00
,wl-rdm,175,441326,0.0-8.58-0.58,1.0,176.0,,,,,,,[],,,,,,73.6,0.0,u,0.0,True,776.6000000014901,47.0,60.0,40.0,False,,286.4869819832121,[],"[683, 384]",ColorTask,59.0,59.0,,,HRV,HRV_0209,2022-11-30 19:01:00
,wl-rdm,176,443609,0.0-8.59-0.59,1.0,177.0,,,,,,,[],,,,,,56.4,1.0,i,1.0,True,931.6000000014901,56.0,60.0,40.0,False,,292.18197265200797,[],"[683, 384]",ColorTask,60.0,60.0,,,HRV,HRV_0209,2022-11-30 19:01:00
,wl-rdm,177,445800,0.0-8.60-0.60,1.0,178.0,,,,,,,[],,,,,,87.9,1.0,u,0.0,False,733.1999999992549,44.0,60.0,40.0,False,,384.6058402302233,[],"[683, 384]",ColorTask,59.0,61.0,,,HRV,HRV_0209,2022-11-30 19:01:00
,wl-rdm,178,448164,0.0-8.61-0.61,1.0,179.0,,,,,,,[],,,,,,87.9,1.0,i,1.0,True,906.0999999977648,55.0,60.0,40.0,False,,373.14269007876175,[],"[683, 384]",ColorTask,60.0,62.0,,,HRV,HRV_0209,2022-11-30 19:01:00
,wl-rdm,179,450460,0.0-8.62-0.62,1.0,180.0,,,,,,,[],,,,,,62.5,0.0,u,0.0,True,851.8999999985099,51.0,60.0,40.0,False,,376.91117365407706,[],"[683, 384]",ColorTask,61.0,63.0,,,HRV,HRV_0209,2022-11-30 19:01:00
,wl-rdm,180,452604,0.0-8.63-0.63,1.0,181.0,,,,,,,[],,,,,,73.6,0.0,u,0.0,True,806.5,49.0,60.0,40.0,False,,263.1653125539902,[],"[683, 384]",ColorTask,62.0,64.0,,,HRV,HRV_0209,2022-11-30 19:01:00
,wl-rdm,181,454664,0.0-8.64-0.64,1.0,182.0,,,,,,,[],,,,,,56.4,1.0,i,1.0,True,761.6000000014901,46.0,60.0,40.0,False,,225.4622404636295,[],"[683, 384]",ColorTask,63.0,65.0,,,HRV,HRV_0209,2022-11-30 19:01:00
,wl-rdm,182,456843,0.0-8.65-0.65,1.0,183.0,,,,,,,[],,,,,,56.4,0.0,u,0.0,True,877.8000000007451,52.0,60.0,40.0,False,,225.2580393582014,[],"[683, 384]",ColorTask,64.0,66.0,,,HRV,HRV_0209,2022-11-30 19:01:00
,wl-rdm,183,459071,0.0-8.66-0.66,1.0,184.0,,,,,,,[],,,,,,73.6,1.0,u,0.0,False,824.0,50.0,60.0,40.0,False,,327.6724498708713,[],"[683, 384]",ColorTask,63.0,67.0,,,HRV,HRV_0209,2022-11-30 19:01:00
,wl-rdm,184,461534,0.0-8.67-0.67,1.0,185.0,,,,,,,[],,,,,,62.5,1.0,i,1.0,True,1108.0999999977648,67.0,60.0,40.0,False,,269.69915871975417,[],"[683, 384]",ColorTask,64.0,68.0,,,HRV,HRV_0209,2022-11-30 19:01:00
,wl-rdm,185,463762,0.0-8.68-0.68,1.0,186.0,,,,,,,[],,,,,,87.9,0.0,u,0.0,True,926.3999999985099,56.0,60.0,40.0,False,,231.57992032430496,[],"[683, 384]",ColorTask,65.0,69.0,,,HRV,HRV_0209,2022-11-30 19:01:00
,wl-rdm,186,466209,0.0-8.69-0.69,1.0,187.0,,,,,,,[],,,,,,53.2,1.0,u,0.0,False,1120.300000000745,67.0,60.0,40.0,False,,264.4389731510607,[],"[683, 384]",ColorTask,64.0,70.0,,,HRV,HRV_0209,2022-11-30 19:01:00
,wl-rdm,187,468169,0.0-8.70-0.70,1.0,188.0,,,,,,,[],,,,,,50.0,1.0,i,1.0,True,677.2000000029802,41.0,60.0,40.0,False,,216.98315413790183,[],"[683, 384]",ColorTask,65.0,71.0,,,HRV,HRV_0209,2022-11-30 19:01:00
,wl-rdm,188,470616,0.0-8.71-0.71,1.0,189.0,,,,,,,[],,,,,,53.2,1.0,i,1.0,True,983.5,59.0,60.0,40.0,False,,392.6393932314024,[],"[683, 384]",ColorTask,66.0,72.0,,,HRV,HRV_0209,2022-11-30 19:01:00
,wl-rdm,189,472659,0.0-8.72-0.72,1.0,190.0,,,,,,,[],,,,,,87.9,0.0,u,0.0,True,713.6000000014901,43.0,60.0,40.0,False,,253.72233732060437,[],"[683, 384]",ColorTask,67.0,73.0,,,HRV,HRV_0209,2022-11-30 19:01:00
,wl-rdm,190,474804,0.0-8.73-0.73,1.0,191.0,,,,,,,[],,,,,,56.4,1.0,i,1.0,True,765.0999999977648,46.0,60.0,40.0,False,,313.2773922243929,[],"[683, 384]",ColorTask,68.0,74.0,,,HRV,HRV_0209,2022-11-30 19:01:00
,wl-rdm,191,476797,0.0-8.74-0.74,1.0,192.0,,,,,,,[],,,,,,73.6,1.0,u,0.0,False,664.8000000007451,40.0,60.0,40.0,False,,254.92951293500693,[],"[683, 384]",ColorTask,67.0,75.0,,,HRV,HRV_0209,2022-11-30 19:01:00
,wl-rdm,192,478675,0.0-8.75-0.75,1.0,193.0,,,,,,,[],,,,,,53.2,1.0,i,1.0,True,574.0,35.0,60.0,40.0,False,,224.23885060513774,[],"[683, 384]",ColorTask,68.0,76.0,,,HRV,HRV_0209,2022-11-30 19:01:00
,wl-rdm,193,480735,0.0-8.76-0.76,1.0,194.0,,,,,,,[],,,,,,62.5,1.0,i,1.0,True,712.8000000007451,43.0,60.0,40.0,False,,275.0871599363261,[],"[683, 384]",ColorTask,69.0,77.0,,,HRV,HRV_0209,2022-11-30 19:01:00
,wl-rdm,194,483064,0.0-8.77-0.77,1.0,195.0,,,,,,,[],,,,,,56.4,1.0,i,1.0,True,984.8999999985099,59.0,60.0,40.0,False,,272.8876510856179,[],"[683, 384]",ColorTask,70.0,78.0,,,HRV,HRV_0209,2022-11-30 19:01:00
,wl-rdm,195,485409,0.0-8.78-0.78,1.0,196.0,,,,,,,[],,,,,,53.2,0.0,u,0.0,True,993.3000000007451,60.0,60.0,40.0,False,,277.8664371421404,[],"[683, 384]",ColorTask,71.0,79.0,,,HRV,HRV_0209,2022-11-30 19:01:00
,wl-rdm,196,487637,0.0-8.79-0.79,1.0,197.0,,,,,,,[],,,,,,56.4,0.0,u,0.0,True,955.9000000022352,57.0,60.0,40.0,False,,214.87804993878575,[],"[683, 384]",ColorTask,72.0,80.0,,,HRV,HRV_0209,2022-11-30 19:01:00
,wl-rdm,197,489564,0.0-8.80-0.80,1.0,198.0,,,,,,,[],,,,,,50.0,0.0,u,0.0,True,648.4000000022352,39.0,60.0,40.0,False,,231.093541105502,[],"[683, 384]",ColorTask,73.0,81.0,,,HRV,HRV_0209,2022-11-30 19:01:00
,wl-rdm,198,491541,0.0-8.81-0.81,1.0,199.0,,,,,,,[],,,,,,53.2,0.0,i,1.0,False,695.4999999962747,42.0,60.0,40.0,False,,209.03197837144174,[],"[683, 384]",ColorTask,72.0,82.0,,,HRV,HRV_0209,2022-11-30 19:01:00
,wl-rdm,199,493853,0.0-8.82-0.82,1.0,200.0,,,,,,,[],,,,,,73.6,0.0,u,0.0,True,947.0,57.0,60.0,40.0,False,,293.26400303583966,[],"[683, 384]",ColorTask,73.0,83.0,,,HRV,HRV_0209,2022-11-30 19:01:00
,wl-rdm,200,496300,0.0-8.83-0.83,1.0,201.0,,,,,,,[],,,,,,73.6,0.0,u,0.0,True,980.8000000007451,59.0,60.0,40.0,False,,393.8226280559195,[],"[683, 384]",ColorTask,74.0,84.0,,,HRV,HRV_0209,2022-11-30 19:01:00
,wl-rdm,201,498411,0.0-8.84-0.84,1.0,202.0,,,,,,,[],,,,,,53.2,1.0,i,1.0,True,726.2999999970198,44.0,60.0,40.0,False,,299.3368400920085,[],"[683, 384]",ColorTask,75.0,85.0,,,HRV,HRV_0209,2022-11-30 19:01:00
,wl-rdm,202,500672,0.0-8.85-0.85,1.0,203.0,,,,,,,[],,,,,,50.0,0.0,u,0.0,True,871.5,52.0,60.0,40.0,False,,334.22597833252365,[],"[683, 384]",ColorTask,76.0,86.0,,,HRV,HRV_0209,2022-11-30 19:01:00
,wl-rdm,203,502668,0.0-8.86-0.86,1.0,204.0,,,,,,,[],,,,,,56.4,0.0,i,1.0,False,720.7999999970198,43.0,60.0,40.0,False,,206.52586172041842,[],"[683, 384]",ColorTask,75.0,87.0,,,HRV,HRV_0209,2022-11-30 19:01:00
,wl-rdm,204,505196,0.0-8.87-0.87,1.0,205.0,,,,,,,[],,,,,,87.9,1.0,i,1.0,True,1145.6000000014901,69.0,60.0,40.0,False,,324.0976030615424,[],"[683, 384]",ColorTask,76.0,88.0,,,HRV,HRV_0209,2022-11-30 19:01:00
,wl-rdm,205,507309,0.0-8.88-0.88,1.0,206.0,,,,,,,[],,,,,,87.9,0.0,u,0.0,True,690.6999999992549,42.0,60.0,40.0,False,,349.81805401468364,[],"[683, 384]",ColorTask,77.0,89.0,,,HRV,HRV_0209,2022-11-30 19:01:00
,wl-rdm,206,509370,0.0-8.89-0.89,1.0,207.0,,,,,,,[],,,,,,87.9,0.0,u,0.0,True,750.8999999985099,45.0,60.0,40.0,False,,241.17912279033473,[],"[683, 384]",ColorTask,78.0,90.0,,,HRV,HRV_0209,2022-11-30 19:01:00
,wl-rdm,207,511465,0.0-8.90-0.90,1.0,208.0,,,,,,,[],,,,,,53.2,0.0,i,1.0,False,806.3000000007451,49.0,60.0,40.0,False,,212.56633991947987,[],"[683, 384]",ColorTask,77.0,91.0,,,HRV,HRV_0209,2022-11-30 19:01:00
,wl-rdm,208,513392,0.0-8.91-0.91,1.0,209.0,,,,,,,[],,,,,,50.0,1.0,u,0.0,False,623.2000000029802,38.0,60.0,40.0,False,,246.5313750225432,[],"[683, 384]",ColorTask,76.0,92.0,,,HRV,HRV_0209,2022-11-30 19:01:00
,wl-rdm,209,515419,0.0-8.92-0.92,1.0,210.0,,,,,,,[],,,,,,87.9,1.0,u,0.0,False,726.0,44.0,60.0,40.0,False,,226.13518734605853,[],"[683, 384]",ColorTask,75.0,93.0,,,HRV,HRV_0209,2022-11-30 19:01:00
,wl-rdm,210,516960,0.0-8.93-0.93,1.0,211.0,,,,,,,[],,,,,,62.5,1.0,i,1.0,True,268.0,16.0,60.0,40.0,False,,204.80197540745058,[],"[683, 384]",ColorTask,76.0,94.0,,,HRV,HRV_0209,2022-11-30 19:01:00
,wl-rdm,211,519142,0.0-8.94-0.94,1.0,212.0,,,,,,,[],,,,,,73.6,0.0,u,0.0,True,842.1999999992549,51.0,60.0,40.0,False,,268.9330046287699,[],"[683, 384]",ColorTask,77.0,95.0,,,HRV,HRV_0209,2022-11-30 19:01:00
,wl-rdm,212,521517,0.0-8.95-0.95,1.0,213.0,,,,,,,[],,,,,,87.9,1.0,i,1.0,True,1080.6000000014901,65.0,60.0,40.0,False,,224.05402593975867,[],"[683, 384]",ColorTask,78.0,96.0,,,HRV,HRV_0209,2022-11-30 19:01:00
,wl-rdm,213,523675,0.0-8.96-0.96,1.0,214.0,,,,,,,[],,,,,,62.5,0.0,i,1.0,False,735.1999999955297,44.0,60.0,40.0,False,,342.52934027635604,[],"[683, 384]",ColorTask,77.0,97.0,,,HRV,HRV_0209,2022-11-30 19:01:00
,wl-rdm,214,525842,0.0-8.97-0.97,1.0,215.0,,,,,,,[],,,,,,73.6,0.0,i,1.0,False,858.5999999977648,52.0,60.0,40.0,False,,245.0276571456128,[],"[683, 384]",ColorTask,76.0,98.0,,,HRV,HRV_0209,2022-11-30 19:01:00
,wl-rdm,215,528152,0.0-8.98-0.98,1.0,216.0,,,,,,,[],,,,,,53.2,1.0,i,1.0,True,959.4000000022352,58.0,60.0,40.0,False,,278.80479494374094,[],"[683, 384]",ColorTask,77.0,99.0,,,HRV,HRV_0209,2022-11-30 19:01:00
,wl-rdm,216,530196,0.0-8.99-0.99,1.0,217.0,,,,,,,[],,,,,,62.5,0.0,u,0.0,True,648.1999999992549,39.0,60.0,40.0,False,,329.40221475477733,[],"[683, 384]",ColorTask,78.0,100.0,,,HRV,HRV_0209,2022-11-30 19:01:00
,wl-rdm,217,532242,0.0-8.100-0.100,1.0,218.0,,,,,,,[],,,,,,73.6,1.0,u,0.0,False,767.3000000007451,46.0,60.0,40.0,False,,206.1187321592649,[],"[683, 384]",ColorTask,77.0,101.0,,,HRV,HRV_0209,2022-11-30 19:01:00
,wl-rdm,218,534435,0.0-8.101-0.101,1.0,219.0,,,,,,,[],,,,,,56.4,0.0,i,1.0,False,782.8000000007451,47.0,60.0,40.0,False,,331.4553865554161,[],"[683, 384]",ColorTask,76.0,102.0,,,HRV,HRV_0209,2022-11-30 19:01:00
,wl-rdm,219,536362,0.0-8.102-0.102,1.0,220.0,,,,,,,[],,,,,,50.0,1.0,i,1.0,True,476.8999999985099,29.0,60.0,40.0,False,,379.00090289364744,[],"[683, 384]",ColorTask,77.0,103.0,,,HRV,HRV_0209,2022-11-30 19:01:00
,wl-rdm,220,538725,0.0-8.103-0.103,1.0,221.0,,,,,,,[],,,,,,87.9,0.0,u,0.0,True,915.3000000007451,55.0,60.0,40.0,False,,371.1074194228232,[],"[683, 384]",ColorTask,78.0,104.0,,,HRV,HRV_0209,2022-11-30 19:01:00
,wl-rdm,221,540953,0.0-8.104-0.104,1.0,222.0,,,,,,,[],,,,,,62.5,0.0,u,0.0,True,792.5999999977648,48.0,60.0,40.0,False,,359.8177826175478,[],"[683, 384]",ColorTask,79.0,105.0,,,HRV,HRV_0209,2022-11-30 19:01:00
,wl-rdm,222,543081,0.0-8.105-0.105,1.0,223.0,,,,,,,[],,,,,,50.0,0.0,i,1.0,False,781.9000000022352,47.0,60.0,40.0,False,,272.6036932753788,[],"[683, 384]",ColorTask,78.0,106.0,,,HRV,HRV_0209,2022-11-30 19:01:00
,wl-rdm,223,545192,0.0-8.106-0.106,1.0,224.0,,,,,,,[],,,,,,50.0,1.0,u,0.0,False,623.4000000022352,38.0,60.0,40.0,False,,396.6556222473025,[],"[683, 384]",ColorTask,77.0,107.0,,,HRV,HRV_0209,2022-11-30 19:01:00
,wl-rdm,224,547453,0.0-8.107-0.107,1.0,225.0,,,,,,,[],,,,,,62.5,0.0,u,0.0,True,816.0999999977648,49.0,60.0,40.0,False,,376.8779530202242,[],"[683, 384]",ColorTask,78.0,108.0,,,HRV,HRV_0209,2022-11-30 19:01:00
,wl-html-button-response,225,549090,0.0-9.0-0.0,,,,,,,,,,1629.0,,0,,,,,,,,,,,,,,,,,,,,<h3>End of this session. Thank you!</h3><br>,['Close window'],HRV,HRV_0209,2022-11-30 19:01:00
