Answer,C_Pay,Question,QuestionNum,jitter,C_Trial,C_QPresent,rsp,C_SWK,C_SWK_rt,C_TrialEnd,C_AnswerPresent,C_WorthPresent,C_Worth,C_Worth_rt,exp,subjectId,date
cooking,3,"If you suffer from Mageirocophobia, what are you scared of?",438,1.765,0,2025.7000000029802,q,S,3336.5,7641.10000000149,,,,,HRV,HRV_0209,2022-11-30 18:40:53
Nutmeg,6,What slightly hallucinogenic spice did Malcolm X use to get high while in prison? ,407,0.747,1,7641.20000000298,q,S,3462.699999999255,12360.70000000298,,,,,HRV,HRV_0209,2022-11-30 18:40:53
The Blair Witch Project,3,"What 1990's movie was filmed on a budget of $60,000 but grossed over $100 million? ",125,1.015,2,12361.0,t,W,3822.7000000029802,26529.0,18697.900000002235,22716.20000000298,4,2285.099999997765,HRV,HRV_0209,2022-11-30 18:40:53
Charles Babbage ,7,"What inventor of the Difference Engine once baked himself in an oven for five minutes, ""to see what would happen""?",192,1.228,3,26529.300000000745,q,S,2984.199999999255,31249.300000000745,,,,,HRV,HRV_0209,2022-11-30 18:40:53
Tooth,2,What is the only part of the body that can't repair itself? ,210,1.353,4,31249.300000000745,p,K,2188.10000000149,35305.300000000745,,,,,HRV,HRV_0209,2022-11-30 18:40:53
Espresso,4,The Italian government regulates the price of what beverage?,399,1.084,5,35305.60000000149,p,K,2567.0,39472.400000002235,,,,,HRV,HRV_0209,2022-11-30 18:40:53
Harmonica,1,"What's sometimes called a ""licking stick"" or a ""tin sandwich""?  ",301,1.853,6,39472.70000000298,q,S,2988.099999997765,44824.60000000149,,,,,HRV,HRV_0209,2022-11-30 18:40:53
The Atlas,2,"The U.S.'s first successful ICBM was what rocket named for a Titan of Greek myth, later used to launch John Glenn into orbit?",107,0.77,7,44824.60000000149,q,S,2015.800000000745,48120.70000000298,,,,,HRV,HRV_0209,2022-11-30 18:40:53
The budgerigar,7,"What pet bird takes its name from Australian Aborigine words for ""good eating""?",244,1.765,8,48120.800000000745,q,S,2171.0,52569.300000000745,,,,,HRV,HRV_0209,2022-11-30 18:40:53
Apples. They don't have caffeine but the natural sugar and vitamins release slowly and make you feel more awake. ,2,Whice fruit is effective than coffee at waking you up in the morning?,454,0.817,9,52569.5,p,K,2605.300000000745,56505.300000000745,,,,,HRV,HRV_0209,2022-11-30 18:40:53
The evacuation of Saigon,5,"""White Christmas"" playing on Armed Forces Radio was the secret signal for what event on April 30, 1975?",6,0.872,10,56505.70000000298,q,S,2161.0,60049.0,,,,,HRV,HRV_0209,2022-11-30 18:40:53
George H.W. Bush ,5,"Who said: ""I'm the president of the United States and I'm not going to eat any more broccoli""? ",415,0.857,11,60049.400000002235,q,S,2530.699999999255,63953.0,,,,,HRV,HRV_0209,2022-11-30 18:40:53
Martin Luther King Jr. ,7,What civil rights leader did Dorothy Parker leave the bulk of her estate to?,149,0.965,12,63953.10000000149,q,S,2215.39999999851,67641.10000000149,,,,,HRV,HRV_0209,2022-11-30 18:40:53
World War I,4,"During which war was ""The African Queen"" set?",34,0.689,13,67641.5,q,S,1777.0,70617.90000000224,,,,,HRV,HRV_0209,2022-11-30 18:40:53
Dragees,3,"What are the sugared almonds, traditionally thrown over the bride and groom at a wedding, called?",430,1.751,14,70618.10000000149,q,S,2291.39999999851,75177.30000000075,,,,,HRV,HRV_0209,2022-11-30 18:40:53
A soccer ball,5,What common item is usually made up of twelve pentagons and twenty hexagons?,154,1.229,15,75177.30000000075,t,W,2470.60000000149,87128.80000000075,80161.40000000224,84176.80000000075,3,1215.0,HRV,HRV_0209,2022-11-30 18:40:53
There was a pound of every ingredient in the original reciipe. ,3,How did the pound cake get its name?,460,1.957,16,87129.10000000149,q,S,2078.39999999851,91672.90000000224,,,,,HRV,HRV_0209,2022-11-30 18:40:53
Sepia,2,What tinting process for black and white photography was named for the genus of cuttlefish that originally provided the pigment?,266,1.806,17,91673.30000000075,q,S,1730.1000000014901,95720.80000000075,,,,,HRV,HRV_0209,2022-11-30 18:40:53
China,4,Which country first used the decimal system?  ,338,1.994,18,95720.90000000224,q,S,2036.199999999255,100265.0,,,,,HRV,HRV_0209,2022-11-30 18:40:53
Habanero,2,What chili pepper was believed the hottest in the world until the Naga Jolokia pepper was discovered in India in 2000?,401,0.699,19,100265.10000000149,q,S,1929.199999999255,103401.10000000149,,,,,HRV,HRV_0209,2022-11-30 18:40:53
Molasses,3,"A two-million gallon tank of what substance exploded in Boston in 1919, resulting in 21 deaths?",10,1.17,20,103401.10000000149,t,W,2286.5,114680.40000000224,108201.80000000075,112217.20000000298,4,785.5,HRV,HRV_0209,2022-11-30 18:40:53
Temple Prostitute,2,"Anciently, what was the job description of a ""hierodule""?",21,0.773,21,114680.5,q,S,1616.800000000745,117576.5,,,,,HRV,HRV_0209,2022-11-30 18:40:53
All in the Family ,2,"What's the only TV show to top the Nielsen ratings five seasons in a row, from 1972 to 1976?  ",311,1.451,22,117576.60000000149,q,S,2136.199999999255,121672.80000000075,,,,,HRV,HRV_0209,2022-11-30 18:40:53
Owl,7,"Which animal has tubular shaped eyeballs, which therefore cannot move?  ",325,1.636,23,121672.90000000224,q,S,2430.099999997765,126248.60000000149,,,,,HRV,HRV_0209,2022-11-30 18:40:53
Betty Rubble,3,Which core Flintstones cast member was absent from Flintstone vitamins until 1996? ,337,1.687,24,126248.70000000298,p,K,2494.599999997765,130945.20000000298,,,,,HRV,HRV_0209,2022-11-30 18:40:53
The paper clip,2,"""Gem"" is the trade name for the most common, three-loop design of what?",4,0.519,25,130945.20000000298,t,W,1835.5999999977648,141057.1000000015,135297.30000000075,139312.80000000075,3,713.4000000022352,HRV,HRV_0209,2022-11-30 18:40:53
Pumpkin,1,Whittaker Chambers hid Alger Hiss's purloined State Department documents in a hollowed-out what?,360,0.604,26,141057.30000000075,q,S,1689.6000000014901,143857.20000000298,,,,,HRV,HRV_0209,2022-11-30 18:40:53
Hey Jude,5,What Beatles song lasted the longest on the American charts? ,143,1.338,27,143857.30000000075,p,K,1932.199999999255,147641.30000000075,,,,,HRV,HRV_0209,2022-11-30 18:40:53
Iraq,2,In which country were the Hanging Gardens of Babylon located?,69,1.139,28,147641.5,q,S,1540.0,150832.40000000224,,,,,HRV,HRV_0209,2022-11-30 18:40:53
KISS ,1,"According to the Guinness Book of Records, what was the loudest rock band ever?",13,1.619,29,150832.70000000298,p,K,2512.89999999851,155472.5,,,,,HRV,HRV_0209,2022-11-30 18:40:53
The Stanley Cup ,3,Where is Jacques Plante's name misspelled five of the six times it appears? ,318,1.463,30,155472.6000000015,q,S,1820.199999999255,159272.6000000015,,,,,HRV,HRV_0209,2022-11-30 18:40:53
Ripe cranerries bounce when dropped on the ground,6,How do farmers test whether cranberries are ripe?,452,1.802,31,159272.6000000015,q,S,1570.1000000014901,163152.70000000298,,,,,HRV,HRV_0209,2022-11-30 18:40:53
Ohio,7,Which is the only U.S. state that has a pennant-shaped flag instead of a rectangular one?  ,345,1.606,32,163152.70000000298,q,S,2119.2999999970198,167392.80000000075,,,,,HRV,HRV_0209,2022-11-30 18:40:53
Mushrooms which have been exposed to light,7,What is the only non-animal natural source of vitamin D?,459,1.047,33,167392.90000000224,q,S,2734.39999999851,171689.5,,,,,HRV,HRV_0209,2022-11-30 18:40:53
James Brown,2,"When asked to define ""cool,"" what two words did James Brown use? ",312,1.754,34,171689.6000000015,q,S,2524.89999999851,176481.1000000015,,,,,HRV,HRV_0209,2022-11-30 18:40:53
Cement,2,"The SS Faith, a ship built by Leslie Comyn, was made of what unique material?",105,0.643,35,176481.1000000015,q,S,2083.300000000745,179721.20000000298,,,,,HRV,HRV_0209,2022-11-30 18:40:53
at least 97%,7,How much caffeine needs to be taken out of coffee for it to be described as decaffeinated?,427,1.131,36,179721.20000000298,q,S,2388.099999997765,183753.30000000075,,,,,HRV,HRV_0209,2022-11-30 18:40:53
What do women want? ,5,"What was the one question Sigmund Freud said he was unable to answer, despite 30 years of research?",291,1.381,37,183753.30000000075,q,S,2398.5,188041.90000000224,,,,,HRV,HRV_0209,2022-11-30 18:40:53
San Fancisco,5,"""Dear Abby"" first appeared in a newspaper of what city?",2,0.516,38,188041.90000000224,t,W,2556.800000000745,199368.70000000298,193113.40000000224,197128.6000000015,3,1213.3999999985099,HRV,HRV_0209,2022-11-30 18:40:53
Ear ,1,"The pinna is the outer, visible part of what?",103,1.877,39,199368.80000000075,q,S,1624.199999999255,203376.80000000075,,,,,HRV,HRV_0209,2022-11-30 18:40:53
Arkansas ,6,Where is the only active diamond mine in the U.S.?,320,0.74,40,203376.90000000224,q,S,1651.699999999255,206280.80000000075,,,,,HRV,HRV_0209,2022-11-30 18:40:53
Koala,5,"What animal, which eighteenth century settlers called a ""native bear"" has two opposable thumbs on each hand?",134,1.744,41,206281.0,q,S,1825.9000000022352,210361.0,,,,,HRV,HRV_0209,2022-11-30 18:40:53
The crocodile,1,The Egyptian plover is a bird best known for its symbiotic relationship with what host animal?,95,1.636,42,210361.0,q,S,1878.6000000014901,214385.0,,,,,HRV,HRV_0209,2022-11-30 18:40:53
Chuck E. Cheese's,4,What restaurant chain was the brainchild of Atari founder Nolan Bushnell? ,251,1.261,43,214385.20000000298,q,S,2050.2999999970198,218209.20000000298,,,,,HRV,HRV_0209,2022-11-30 18:40:53
Kidnapping and killing the Lindbergh baby,7,For what crime was Bruno Hauptmann executed in 1936?,41,1.727,44,218209.20000000298,q,S,1516.0,221973.40000000224,,,,,HRV,HRV_0209,2022-11-30 18:40:53
Capitol Hill,6,"Until 1790, what was known as Jenkins Hill? ",119,1.532,45,221973.5,q,S,1702.9000000022352,225720.40000000224,,,,,HRV,HRV_0209,2022-11-30 18:40:53
Gecko,2,What is the only type of lizard that has a voice? ,213,1.86,46,225720.40000000224,q,S,1631.3999999985099,229720.5,,,,,HRV,HRV_0209,2022-11-30 18:40:53
The Discovery,6,Which space shuttle is named for the ship on which Robert Scott first sailed to Antarctica? ,352,0.829,47,229720.5,q,S,1695.2000000029802,232752.6000000015,,,,,HRV,HRV_0209,2022-11-30 18:40:53
Cell,1,Robert Hooke coined what scientific term after looking at a piece of cork under a microscope?,81,1.956,48,232752.70000000298,q,S,2376.099999997765,237593.0,,,,,HRV,HRV_0209,2022-11-30 18:40:53
A Hawaiian goose,6,What is a nene?,195,1.434,49,237593.0,q,S,3433.300000000745,242968.90000000224,,,,,HRV,HRV_0209,2022-11-30 18:40:53
Adding olive juice,2,What turns a plain martini into a dirty martini?,440,0.585,50,242969.0,q,S,1763.6000000014901,245833.5,,,,,HRV,HRV_0209,2022-11-30 18:40:53
The Ritz (Hotel),3,"F. Scott Fitzgerald wrote a famous short story about ""A Diamond as Big as"" what New York landmark?",39,0.976,51,245833.5,q,S,3033.800000000745,250353.1000000015,,,,,HRV,HRV_0209,2022-11-30 18:40:53
potein,5,"What nutrient comes from meat, eggs, and fish?",433,1.682,52,250353.1000000015,p,K,2289.89999999851,254833.20000000298,,,,,HRV,HRV_0209,2022-11-30 18:40:53
Liffey,3,What river runs through Dublin?   ,253,1.632,53,254833.30000000075,q,S,1986.9000000022352,258969.6000000015,,,,,HRV,HRV_0209,2022-11-30 18:40:53
popscicle,6,What food was invented by an 11 year old in 1905?,450,0.861,54,258969.6000000015,t,W,3356.0,272360.700000003,264841.0,268856.1000000015,4,2133.39999999851,HRV,HRV_0209,2022-11-30 18:40:53
Gerald Ford ,3,What president was shot while walking to California Governor Jerry Brown's office?  ,247,1.072,55,272360.80000000075,q,S,1688.1000000014901,275632.80000000075,,,,,HRV,HRV_0209,2022-11-30 18:40:53
Anne Hathaway,3,What was the name of William Shakespeare's wife?  ,290,1.549,56,275632.80000000075,q,S,1850.699999999255,279544.80000000075,,,,,HRV,HRV_0209,2022-11-30 18:40:53
Snoopy's,3,"Whose doghouse apparently contains a basement, a pool table, an Andrew Wyeth painting, and a Jacuzzi?",387,1.841,57,279545.0,q,S,2071.5,283969.200000003,,,,,HRV,HRV_0209,2022-11-30 18:40:53
Coca-cola,6,What popular drink was first marketed as a brain tonic?,405,1.815,58,283969.30000000075,q,S,1862.9000000022352,288161.1000000015,,,,,HRV,HRV_0209,2022-11-30 18:40:53
The barrel of a gun,1,"According to Chairman Mao, ""political power grows out of"" what?",11,1.015,59,288161.1000000015,q,S,2305.89999999851,291993.700000003,,,,,HRV,HRV_0209,2022-11-30 18:40:53
Library of Congress,3,"In 1802, John Beckley became the librarian of what collection containing 740 books at the time?",48,0.933,60,291993.80000000075,q,S,1743.0,295177.30000000075,,,,,HRV,HRV_0209,2022-11-30 18:40:53
Fiber is the gut bacteria's preferred fuel source. ,2,What food is most beneficial for your gut bacteria?,458,0.614,61,295177.30000000075,p,K,1745.5,298041.40000000224,,,,,HRV,HRV_0209,2022-11-30 18:40:53
Pachyderm,5,"What word comes to us from the Greek for ""thick-skinned""?  ",297,1.908,62,298041.40000000224,q,S,1827.3999999985099,302288.40000000224,,,,,HRV,HRV_0209,2022-11-30 18:40:53
" ""!"" ",7,"Eager to find out how his novel Les Miserables was being received, Victor Hugo sent a telegram to his publisher that read ""?"" What did his publisher reply?",35,1.141,63,302288.6000000015,q,S,2031.8999999985099,305969.1000000015,,,,,HRV,HRV_0209,2022-11-30 18:40:53
Two of the seven cities of gold,3,What are Quivira and Cibola?  ,136,0.891,64,305969.200000003,q,S,1882.0999999977648,309248.6000000015,,,,,HRV,HRV_0209,2022-11-30 18:40:53
Monday,6,The risk of heart attack is highest on which day of the week?,104,0.787,65,309248.80000000075,t,W,3258.199999999255,321489.0,315017.6000000015,319032.6000000015,4,1159.6000000014901,HRV,HRV_0209,2022-11-30 18:40:53
Cheetah,6,Which is the only cat that cannot retract its claws? ,344,1.123,66,321489.0,q,S,2243.800000000745,325369.5,,,,,HRV,HRV_0209,2022-11-30 18:40:53
pastry,3,Choux and filo are two types of what food product?,446,0.64,67,325369.6000000015,q,S,1891.800000000745,328417.1000000015,,,,,HRV,HRV_0209,2022-11-30 18:40:53
Thrust,7,What term for a rocket's propulsive force is calculated by multiplying its exhaust velocity by the burn rate of its fuel?,265,1.223,68,328417.200000003,t,W,3034.099999997765,340472.5,333962.0,337977.200000003,3,757.5,HRV,HRV_0209,2022-11-30 18:40:53
The crust and the mantle,5,"The ""Mohorovicic discontinuity"" divides what two outer layers of the earth?",87,1.959,69,340472.6000000015,q,S,1661.8999999985099,344608.6000000015,,,,,HRV,HRV_0209,2022-11-30 18:40:53
Choking on food,7,"Each year, approximately 125 people die of what? ",417,1.721,70,344608.700000003,t,W,2864.39999999851,356880.90000000224,349985.200000003,354000.700000003,3,647.5999999977648,HRV,HRV_0209,2022-11-30 18:40:53
Spanish,5,Which language is spoken in the Canary Islands?   ,346,1.776,71,356881.1000000015,q,S,1724.6000000014901,360897.0,,,,,HRV,HRV_0209,2022-11-30 18:40:53
Generals,5,Eleven U.S. presidents have been what before being elected?,36,1.538,72,360897.0,t,W,2406.300000000745,372401.40000000224,365818.0,369833.1000000015,3,519.1000000014901,HRV,HRV_0209,2022-11-30 18:40:53
School buses were painted yellow,7,A conference on safety held at Columbia University's Teacher College in 1939 led to what change? ,9,1.906,73,372401.40000000224,q,S,1579.300000000745,376400.5,,,,,HRV,HRV_0209,2022-11-30 18:40:53
New Jersey's Rutgers,6,Which U.S. state's leading public university is the only one not to be named for the state?  ,357,1.053,74,376400.5,q,S,1888.2000000029802,379848.40000000224,,,,,HRV,HRV_0209,2022-11-30 18:40:53
Lava lamp ,5,What was first made by suspending paraffin in a solution of water and antifreeze? ,276,1.746,75,379848.40000000224,q,S,1948.300000000745,384056.6000000015,,,,,HRV,HRV_0209,2022-11-30 18:40:53
Jim Lovell,3,Alan Shepard was scheduled to command the ill-fated Apollo 13 before switching missions with what astronaut?,18,1.895,76,384056.700000003,q,S,1561.199999999255,388024.80000000075,,,,,HRV,HRV_0209,2022-11-30 18:40:53
Adlai Stevenson,6,Who twice lost presidential elections to Dwight Eisenhower in the 1950s?  ,375,0.867,77,388024.80000000075,q,S,2445.800000000745,391849.5,,,,,HRV,HRV_0209,2022-11-30 18:40:53
General Electric ,6,What's the only stock from the original Dow Jones Industrial Average that's still used in computing the index?,310,1.731,78,391849.6000000015,q,S,2944.60000000149,397033.0,,,,,HRV,HRV_0209,2022-11-30 18:40:53
A Galapagos giant tortoise ,2,"What kind of animal was Hariet, who died at the Queensland Zoo in 2006 and was claimed to have belonged to Charles Darwin?",223,1.067,79,397033.1000000015,q,S,1655.199999999255,400265.0,,,,,HRV,HRV_0209,2022-11-30 18:40:53
"the white flesh that houses the seeds, known as the placenta",4,What is the hottest part of a chili?,432,1.5,80,400265.200000003,p,K,2100.199999999255,404377.200000003,,,,,HRV,HRV_0209,2022-11-30 18:40:53
On a Jell-O box,6,"Where would you see the consumer warning ""Do not use fresh or frozen pineapple, kiwi, ginger-root, papaya, figs, or guava""?",411,0.699,81,404377.40000000224,q,S,3197.0,408785.200000003,,,,,HRV,HRV_0209,2022-11-30 18:40:53
over 10 billion donuts. ,3,How many donuts are concumed in the US every year?,463,1.135,82,408785.40000000224,q,S,2825.199999999255,413256.5,,,,,HRV,HRV_0209,2022-11-30 18:40:53
It causes sour foods subsequently consumed to taste sweet. ,2,Why is the Synsepalum dulcificum berry called the miracle fruit?,464,0.961,83,413256.5,q,S,2504.60000000149,417232.40000000224,,,,,HRV,HRV_0209,2022-11-30 18:40:53
Albert Einstein,4,Who beat out FDR and Gandhi to be named Time's Person of the Century in 1999? ,361,0.591,84,417232.40000000224,q,S,2534.39999999851,420872.6000000015,,,,,HRV,HRV_0209,2022-11-30 18:40:53
Carbon,1,What element must be burned out of pig iron to make steel? ,170,1.002,85,420872.700000003,q,S,2368.39999999851,424752.80000000075,,,,,HRV,HRV_0209,2022-11-30 18:40:53
Don Adams,6,Who provided the voice for cartoon character Inspector Gadget? ,372,1.653,86,424753.6000000015,t,W,3411.699999999255,437596.80000000075,430681.5,434696.90000000224,4,736.0,HRV,HRV_0209,2022-11-30 18:40:53
Louisiana's,6,What U.S. state's civil law is most closely based on the Napoleonic Code?  ,272,1.134,87,437597.0,q,S,1742.800000000745,440993.200000003,,,,,HRV,HRV_0209,2022-11-30 18:40:53
60 fragments per 100 gram ,5,What amount of insects does the FDA allow in chocolate,453,1.759,88,440993.200000003,q,S,1711.2999999970198,444977.30000000075,,,,,HRV,HRV_0209,2022-11-30 18:40:53
Marriage,5,Gamophobia is the fear of what?,42,0.7,89,444977.30000000075,q,S,2037.699999999255,448225.200000003,,,,,HRV,HRV_0209,2022-11-30 18:40:53
Bacon,2,"In Britain, what kind of meat comes in rashers?",397,1.395,90,448225.30000000075,q,S,2393.60000000149,452520.5,,,,,HRV,HRV_0209,2022-11-30 18:40:53
The Korean War,1,"What 20th-century conflict was dubbed the ""forgotten war"" despite over 50,000 U.S. deaths?",126,1.239,91,452520.6000000015,q,S,1692.3999999985099,455971.200000003,,,,,HRV,HRV_0209,2022-11-30 18:40:53
The popsicle,5,Which popular treat was invented by an 11-year-old in California? ,413,0.687,92,455971.30000000075,t,W,2083.400000002235,466520.90000000224,460569.90000000224,464585.200000003,4,734.0999999977648,HRV,HRV_0209,2022-11-30 18:40:53
Pressure,1,What is measured in millibars? ,202,1.856,93,466521.0,q,S,1737.1000000014901,470625.0,,,,,HRV,HRV_0209,2022-11-30 18:40:53
The bishop,7,Which chess piece was originally called 'the elephant'? ,334,0.673,94,470625.1000000015,t,W,2559.10000000149,481843.6000000015,475697.200000003,479713.40000000224,4,938.0,HRV,HRV_0209,2022-11-30 18:40:53
Criss-Cross ,4,What was the game of Scrabble originally called? ,286,1.277,95,481843.700000003,q,S,1665.5999999977648,485297.40000000224,,,,,HRV,HRV_0209,2022-11-30 18:40:53
Belgium,1,Where were French fries invented?,437,1.691,96,485297.40000000224,t,W,1776.699999999255,496960.700000003,489585.0,493600.200000003,4,1159.7999999970198,HRV,HRV_0209,2022-11-30 18:40:53
Rhesus antigens (Rh or RhD),4,"What is absent in ""negative"" blood types like O negative and AB negative? ",196,1.971,97,496960.700000003,q,S,1613.5,501056.80000000075,,,,,HRV,HRV_0209,2022-11-30 18:40:53
A mine shaft passage,3,What is an adit?  ,197,1.093,98,501056.90000000224,q,S,1755.8999999985099,504416.80000000075,,,,,HRV,HRV_0209,2022-11-30 18:40:53
Lightning strike,7,Carnivorous animals will not eat another animal that has been killed by what means?,29,0.559,99,504417.0,q,S,1869.800000000745,507360.90000000224,,,,,HRV,HRV_0209,2022-11-30 18:40:53
Anaconda,5,Which species of snake gives birth to its young instead of laying eggs?  ,353,1.618,100,507360.90000000224,q,S,1611.8999999985099,511105.0,,,,,HRV,HRV_0209,2022-11-30 18:40:53
Woodrow Wilson ,4,"Which U.S. president declared the first national ""Mother's Day""?  ",355,1.731,101,511105.1000000015,q,S,1799.3999999985099,515145.200000003,,,,,HRV,HRV_0209,2022-11-30 18:40:53
The Galapagos Islands ,2,What islands are home to most of the world's blue-footed boobies? ,216,1.169,102,515145.30000000075,q,S,1675.699999999255,518505.200000003,,,,,HRV,HRV_0209,2022-11-30 18:40:53
Apple sauce,2,What was the first food eaten in space?,435,0.841,103,518505.40000000224,q,S,2253.5,522113.40000000224,,,,,HRV,HRV_0209,2022-11-30 18:40:53
Columbus Circle ,1,What Manhattan intersection was America's first traffic circle?,228,1.007,104,522113.40000000224,q,S,1729.3999999985099,525360.4000000022,,,,,HRV,HRV_0209,2022-11-30 18:40:53
It's stamped on the coin's edge.,3,"What is unusual about the ""in God We Trust"" Motto on the U.S. Mint's recent presidential dollar coins?",215,0.687,105,525360.5,t,W,2015.9000000022352,536072.8000000007,529889.5,533904.5,4,955.7000000029802,HRV,HRV_0209,2022-11-30 18:40:53
Cayenne pepper ,4,What spice is named for the capital of French Guiana? ,409,1.437,106,536072.9000000022,q,S,1516.0999999977648,539536.8000000007,,,,,HRV,HRV_0209,2022-11-30 18:40:53
Throat,3,Where in the human body is the only bone that is not jointed to another?  ,317,1.132,107,539537.0,t,W,2028.1000000014901,550337.1000000015,544081.6000000015,548096.5,4,600.8000000007451,HRV,HRV_0209,2022-11-30 18:40:53
Italy ,7,What country borders both of the world's only two nations with square flags? ,157,0.743,108,550337.200000003,q,S,1917.5999999977648,553513.200000003,,,,,HRV,HRV_0209,2022-11-30 18:40:53
Roulette,6,What game was created by French mathematician Blaise Pascal when he was experimenting with perpetual motion? ,182,1.658,109,553513.200000003,q,S,1993.699999999255,557673.3000000007,,,,,HRV,HRV_0209,2022-11-30 18:40:53
George Washington,1,Who is pictured on a US Purple Heart medal? ,368,1.545,110,557673.3000000007,t,W,1776.1000000014901,568744.6000000015,561962.3000000007,565977.0,4,705.9000000022352,HRV,HRV_0209,2022-11-30 18:40:53
Bumblebee bat,5,"Which mammal is the world's smallest, weighing less than a penny? ",347,1.984,111,568744.8000000007,q,S,1558.0,572800.8000000007,,,,,HRV,HRV_0209,2022-11-30 18:40:53
Ian Thorpe ,2,Who outgrew a childhood chlorine allergy to become the biggest Olympic medal winner in Australian history? ,370,1.706,112,572800.8000000007,q,S,1672.4000000022352,576688.8000000007,,,,,HRV,HRV_0209,2022-11-30 18:40:53
Mung beans ,2,What kind of bean produces the Asian-style bean sprouts in the produce section of supermarkets? ,404,0.607,113,576688.9000000022,q,S,1591.5999999977648,579400.9000000022,,,,,HRV,HRV_0209,2022-11-30 18:40:53
Giant squid,1,Which animal can have eyes that are a foot in diameter? ,324,0.784,114,579401.0,t,W,2468.0,590345.3000000007,584385.700000003,588400.8000000007,4,649.3000000007451,HRV,HRV_0209,2022-11-30 18:40:53
Hippopotamus ,3,Which wild mammal in Africa has killed the highest number of people? ,358,1.403,115,590345.4000000022,q,S,1703.0,593961.8000000007,,,,,HRV,HRV_0209,2022-11-30 18:40:53
Green Eggs and Ham,4,What 1960 classic originated when Bennett Cerf bet one of his authors that he couldn't write a book using only fifty words?,419,0.637,116,593961.8000000007,q,S,1748.800000000745,596857.3000000007,,,,,HRV,HRV_0209,2022-11-30 18:40:53
The old-fashioned,2,"What whiskey cocktail lends its name to the short glass also called a ""lowball""?",410,1.07,117,596857.5,q,S,2298.5,600736.5,,,,,HRV,HRV_0209,2022-11-30 18:40:53
