trialN,stimuli,trialStartTime,trialStartTime_UNIX,stimulus1,stimulus2,stimulus1Bid,stimulus2Bid,delta,selected,rt,rt_UNIX,rt_perfnow,receivedResponse,rsp,trialEndTime,trialDuration,trialEndTime_UNIX,trialDuration_UNIX,exp,subjectId,date
0,"[{'imgObject': {}, 'id': 'olives', 'src': '/static/foodstim60/olives.jpg', 'key': 'u', 'origWidth': 410, 'origHeight': 410, 'width': 410, 'height': 410, 'widthPercent': 0.45, 'rescaleHeight': False, 'trialN': 0, 'loaded': True, 'loadedTime': 6888.70000000298, 'positionName': 'LEFT', 'positionCoords': [245.68, 179], 'bid': 6.21}, {'imgObject': {}, 'id': 'roastedpotatoes', 'src': '/static/foodstim60/roastedpotatoes.jpg', 'key': 'i', 'origWidth': 409, 'origHeight': 410, 'width': 409, 'height': 410, 'widthPercent': 0.45, 'rescaleHeight': False, 'trialN': 0, 'loaded': True, 'loadedTime': 6937.800000000745, 'positionName': 'RIGHT', 'positionCoords': [710.32, 179], 'bid': 3.69}]",7866.60000000149,1669831960973,olives,roastedpotatoes,6.21,3.69,-2.52,olives,1214.199999999255,1218,1218.199999999255,True,u,9592.70000000298,1726.1000000014901,1669831962699,1726,HRV,HRV_0116,2022-11-30 18:16:03
1,"[{'imgObject': {}, 'id': 'cocktailshrimp', 'src': '/static/foodstim60/cocktailshrimp.jpg', 'key': 'u', 'origWidth': 410, 'origHeight': 410, 'width': 410, 'height': 410, 'widthPercent': 0.45, 'rescaleHeight': False, 'trialN': 1, 'loaded': True, 'loadedTime': 7035.20000000298, 'positionName': 'LEFT', 'positionCoords': [245.68, 179], 'bid': 6.05}, {'imgObject': {}, 'id': 'baked potato', 'src': '/static/foodstim60/baked potato.jpg', 'key': 'i', 'origWidth': 409, 'origHeight': 410, 'width': 409, 'height': 410, 'widthPercent': 0.45, 'rescaleHeight': False, 'trialN': 1, 'loaded': True, 'loadedTime': 7180.300000000745, 'positionName': 'RIGHT', 'positionCoords': [710.32, 179], 'bid': 5.11}]",9593.300000000745,1669831962700,cocktailshrimp,baked potato,6.05,5.11,-0.9399999999999995,cocktailshrimp,447.1000000014901,448,448.1000000014901,True,u,10552.900000002235,959.6000000014901,1669831963659,959,HRV,HRV_0116,2022-11-30 18:16:03
2,"[{'imgObject': {}, 'id': 'luckycharms', 'src': '/static/foodstim60/luckycharms.jpg', 'key': 'u', 'origWidth': 410, 'origHeight': 409, 'width': 410, 'height': 409, 'widthPercent': 0.45, 'rescaleHeight': False, 'trialN': 2, 'loaded': True, 'loadedTime': 7342.60000000149, 'positionName': 'LEFT', 'positionCoords': [245.68, 179.5], 'bid': 8.66}, {'imgObject': {}, 'id': 'apple slices', 'src': '/static/foodstim60/apple slices.jpg', 'key': 'i', 'origWidth': 409, 'origHeight': 410, 'width': 409, 'height': 410, 'widthPercent': 0.45, 'rescaleHeight': False, 'trialN': 2, 'loaded': True, 'loadedTime': 7127.5, 'positionName': 'RIGHT', 'positionCoords': [710.32, 179], 'bid': 7.12}]",10553.60000000149,1669831963660,luckycharms,apple slices,8.66,7.12,-1.54,luckycharms,919.5,922,921.8000000007451,True,u,11991.400000002235,1437.800000000745,1669831965098,1438,HRV,HRV_0116,2022-11-30 18:16:03
3,"[{'imgObject': {}, 'id': 'orange slices', 'src': '/static/foodstim60/orange slices.jpg', 'key': 'u', 'origWidth': 409, 'origHeight': 410, 'width': 409, 'height': 410, 'widthPercent': 0.45, 'rescaleHeight': False, 'trialN': 3, 'loaded': True, 'loadedTime': 7113.10000000149, 'positionName': 'LEFT', 'positionCoords': [246.68, 179], 'bid': 8.89}, {'imgObject': {}, 'id': 'bagel and cc', 'src': '/static/foodstim60/bagel and cc.jpg', 'key': 'i', 'origWidth': 410, 'origHeight': 410, 'width': 410, 'height': 410, 'widthPercent': 0.45, 'rescaleHeight': False, 'trialN': 3, 'loaded': True, 'loadedTime': 7187, 'positionName': 'RIGHT', 'positionCoords': [710.32, 179], 'bid': 8.9}]",11992.0,1669831965098,orange slices,bagel and cc,8.89,8.9,0.009999999999999787,orange slices,561.0,562,562.0,True,u,13067.5,1075.5,1669831966174,1076,HRV,HRV_0116,2022-11-30 18:16:03
4,"[{'imgObject': {}, 'id': 'turkey sandwich', 'src': '/static/foodstim60/turkey sandwich.jpg', 'key': 'u', 'origWidth': 409, 'origHeight': 409, 'width': 409, 'height': 409, 'widthPercent': 0.45, 'rescaleHeight': False, 'trialN': 4, 'loaded': True, 'loadedTime': 7471, 'positionName': 'LEFT', 'positionCoords': [246.68, 179.5], 'bid': 9.5}, {'imgObject': {}, 'id': 'burrito', 'src': '/static/foodstim60/burrito.jpg', 'key': 'i', 'origWidth': 410, 'origHeight': 410, 'width': 410, 'height': 410, 'widthPercent': 0.45, 'rescaleHeight': False, 'trialN': 4, 'loaded': True, 'loadedTime': 7203.70000000298, 'positionName': 'RIGHT', 'positionCoords': [710.32, 179], 'bid': 9.23}]",13067.900000002235,1669831966174,turkey sandwich,burrito,9.5,9.23,-0.2699999999999996,turkey sandwich,740.5,742,741.8999999985099,True,u,14325.400000002235,1257.5,1669831967432,1258,HRV,HRV_0116,2022-11-30 18:16:03
5,"[{'imgObject': {}, 'id': 'mashed potato', 'src': '/static/foodstim60/mashed potato.jpg', 'key': 'u', 'origWidth': 409, 'origHeight': 409, 'width': 409, 'height': 409, 'widthPercent': 0.45, 'rescaleHeight': False, 'trialN': 5, 'loaded': True, 'loadedTime': 7235.5, 'positionName': 'LEFT', 'positionCoords': [246.68, 179.5], 'bid': 6.17}, {'imgObject': {}, 'id': 'apple slices', 'src': '/static/foodstim60/apple slices.jpg', 'key': 'i', 'origWidth': 409, 'origHeight': 410, 'width': 409, 'height': 410, 'widthPercent': 0.45, 'rescaleHeight': False, 'trialN': 5, 'loaded': True, 'loadedTime': 7145.60000000149, 'positionName': 'RIGHT', 'positionCoords': [710.32, 179], 'bid': 7.12}]",14326.0,1669831967432,mashed potato,apple slices,6.17,7.12,0.9500000000000002,mashed potato,635.0,638,637.3000000007451,True,u,15468.60000000149,1142.6000000014901,1669831968575,1143,HRV,HRV_0116,2022-11-30 18:16:03
6,"[{'imgObject': {}, 'id': 'rigatoni and sauce', 'src': '/static/foodstim60/rigatoni and sauce.jpg', 'key': 'u', 'origWidth': 410, 'origHeight': 411, 'width': 410, 'height': 411, 'widthPercent': 0.45, 'rescaleHeight': False, 'trialN': 6, 'loaded': True, 'loadedTime': 7248.5, 'positionName': 'LEFT', 'positionCoords': [245.68, 178.5], 'bid': 7.43}, {'imgObject': {}, 'id': 'seaweed', 'src': '/static/foodstim60/seaweed.jpg', 'key': 'i', 'origWidth': 410, 'origHeight': 410, 'width': 410, 'height': 410, 'widthPercent': 0.45, 'rescaleHeight': False, 'trialN': 6, 'loaded': True, 'loadedTime': 7266.400000002235, 'positionName': 'RIGHT', 'positionCoords': [710.32, 179], 'bid': 6.28}]",15469.10000000149,1669831968576,rigatoni and sauce,seaweed,7.43,6.28,-1.1499999999999995,seaweed,3282.5,3283,3283.800000000745,True,i,19260.400000002235,3791.300000000745,1669831972367,3791,HRV,HRV_0116,2022-11-30 18:16:03
7,"[{'imgObject': {}, 'id': 'chicken nuggets2', 'src': '/static/foodstim60/chicken nuggets2.jpg', 'key': 'u', 'origWidth': 410, 'origHeight': 409, 'width': 410, 'height': 409, 'widthPercent': 0.45, 'rescaleHeight': False, 'trialN': 7, 'loaded': True, 'loadedTime': 7286.10000000149, 'positionName': 'LEFT', 'positionCoords': [245.68, 179.5], 'bid': 8.57}, {'imgObject': {}, 'id': 'baked potato', 'src': '/static/foodstim60/baked potato.jpg', 'key': 'i', 'origWidth': 409, 'origHeight': 410, 'width': 409, 'height': 410, 'widthPercent': 0.45, 'rescaleHeight': False, 'trialN': 7, 'loaded': True, 'loadedTime': 7157.5, 'positionName': 'RIGHT', 'positionCoords': [710.32, 179], 'bid': 5.11}]",19261.10000000149,1669831972367,chicken nuggets2,baked potato,8.57,5.11,-3.46,chicken nuggets2,546.8999999985099,550,549.0,True,u,20317.60000000149,1056.5,1669831973424,1057,HRV,HRV_0116,2022-11-30 18:16:03
8,"[{'imgObject': {}, 'id': 'steak', 'src': '/static/foodstim60/steak.jpg', 'key': 'u', 'origWidth': 410, 'origHeight': 410, 'width': 410, 'height': 410, 'widthPercent': 0.45, 'rescaleHeight': False, 'trialN': 8, 'loaded': True, 'loadedTime': 7316, 'positionName': 'LEFT', 'positionCoords': [245.68, 179], 'bid': 3.68}, {'imgObject': {}, 'id': 'sushi w_condiments', 'src': '/static/foodstim60/sushi w_condiments.jpg', 'key': 'i', 'origWidth': 410, 'origHeight': 410, 'width': 410, 'height': 410, 'widthPercent': 0.45, 'rescaleHeight': False, 'trialN': 8, 'loaded': True, 'loadedTime': 7346.10000000149, 'positionName': 'RIGHT', 'positionCoords': [710.32, 179], 'bid': 5.93}]",20317.900000002235,1669831973424,steak,sushi w_condiments,3.68,5.93,2.2499999999999996,sushi w_condiments,521.0999999977648,525,524.5,True,i,21351.300000000745,1033.3999999985099,1669831974458,1034,HRV,HRV_0116,2022-11-30 18:16:03
9,"[{'imgObject': {}, 'id': 'orange slices', 'src': '/static/foodstim60/orange slices.jpg', 'key': 'u', 'origWidth': 409, 'origHeight': 410, 'width': 409, 'height': 410, 'widthPercent': 0.45, 'rescaleHeight': False, 'trialN': 9, 'loaded': True, 'loadedTime': 7121.10000000149, 'positionName': 'LEFT', 'positionCoords': [246.68, 179], 'bid': 8.89}, {'imgObject': {}, 'id': 'turkey sandwich', 'src': '/static/foodstim60/turkey sandwich.jpg', 'key': 'i', 'origWidth': 409, 'origHeight': 409, 'width': 409, 'height': 409, 'widthPercent': 0.45, 'rescaleHeight': False, 'trialN': 9, 'loaded': True, 'loadedTime': 7467.20000000298, 'positionName': 'RIGHT', 'positionCoords': [710.32, 179.5], 'bid': 9.5}]",21351.900000002235,1669831974458,orange slices,turkey sandwich,8.89,9.5,0.6099999999999994,orange slices,727.0,731,730.8000000007451,True,u,22595.60000000149,1243.699999999255,1669831975702,1244,HRV,HRV_0116,2022-11-30 18:16:03
10,"[{'imgObject': {}, 'id': 'turkeysandwich', 'src': '/static/foodstim60/turkeysandwich.jpg', 'key': 'u', 'origWidth': 409, 'origHeight': 409, 'width': 409, 'height': 409, 'widthPercent': 0.45, 'rescaleHeight': False, 'trialN': 10, 'loaded': True, 'loadedTime': 7363, 'positionName': 'LEFT', 'positionCoords': [246.68, 179.5], 'bid': 9.31}, {'imgObject': {}, 'id': 'burrito', 'src': '/static/foodstim60/burrito.jpg', 'key': 'i', 'origWidth': 410, 'origHeight': 410, 'width': 410, 'height': 410, 'widthPercent': 0.45, 'rescaleHeight': False, 'trialN': 10, 'loaded': True, 'loadedTime': 7203.300000000745, 'positionName': 'RIGHT', 'positionCoords': [710.32, 179], 'bid': 9.23}]",22596.400000002235,1669831975703,turkeysandwich,burrito,9.31,9.23,-0.08000000000000007,burrito,739.0999999977648,741,741.0999999977648,True,i,23847.800000000745,1251.3999999985099,1669831976954,1251,HRV,HRV_0116,2022-11-30 18:16:03
11,"[{'imgObject': {}, 'id': 'cocktailshrimp', 'src': '/static/foodstim60/cocktailshrimp.jpg', 'key': 'u', 'origWidth': 410, 'origHeight': 410, 'width': 410, 'height': 410, 'widthPercent': 0.45, 'rescaleHeight': False, 'trialN': 11, 'loaded': True, 'loadedTime': 6953.800000000745, 'positionName': 'LEFT', 'positionCoords': [245.68, 179], 'bid': 6.05}, {'imgObject': {}, 'id': 'corn cob', 'src': '/static/foodstim60/corn cob.jpg', 'key': 'i', 'origWidth': 411, 'origHeight': 411, 'width': 411, 'height': 411, 'widthPercent': 0.45, 'rescaleHeight': False, 'trialN': 11, 'loaded': True, 'loadedTime': 7377.20000000298, 'positionName': 'RIGHT', 'positionCoords': [710.32, 178.5], 'bid': 4.54}]",23848.300000000745,1669831976955,cocktailshrimp,corn cob,6.05,4.54,-1.5099999999999998,cocktailshrimp,583.0,585,585.6999999992549,True,u,24942.5,1094.199999999255,1669831978049,1094,HRV,HRV_0116,2022-11-30 18:16:03
12,"[{'imgObject': {}, 'id': 'shreddedwheatwithmilk', 'src': '/static/foodstim60/shreddedwheatwithmilk.jpg', 'key': 'u', 'origWidth': 410, 'origHeight': 410, 'width': 410, 'height': 410, 'widthPercent': 0.45, 'rescaleHeight': False, 'trialN': 12, 'loaded': True, 'loadedTime': 7383.5, 'positionName': 'LEFT', 'positionCoords': [245.68, 179], 'bid': 8.83}, {'imgObject': {}, 'id': 'Tribe humus pita', 'src': '/static/foodstim60/Tribe humus pita.jpg', 'key': 'i', 'origWidth': 411, 'origHeight': 411, 'width': 411, 'height': 411, 'widthPercent': 0.45, 'rescaleHeight': False, 'trialN': 12, 'loaded': True, 'loadedTime': 7384.60000000149, 'positionName': 'RIGHT', 'positionCoords': [710.32, 178.5], 'bid': 5.95}]",24943.300000000745,1669831978050,shreddedwheatwithmilk,Tribe humus pita,8.83,5.95,-2.88,Tribe humus pita,558.6999999992549,560,559.8000000007451,True,i,26023.60000000149,1080.300000000745,1669831979130,1080,HRV,HRV_0116,2022-11-30 18:16:03
13,"[{'imgObject': {}, 'id': 'grilled chicken strips', 'src': '/static/foodstim60/grilled chicken strips.jpg', 'key': 'u', 'origWidth': 410, 'origHeight': 411, 'width': 410, 'height': 411, 'widthPercent': 0.45, 'rescaleHeight': False, 'trialN': 13, 'loaded': True, 'loadedTime': 7400.300000000745, 'positionName': 'LEFT', 'positionCoords': [245.68, 178.5], 'bid': 5.95}, {'imgObject': {}, 'id': 'mac & cheese', 'src': '/static/foodstim60/mac & cheese.jpg', 'key': 'i', 'origWidth': 410, 'origHeight': 410, 'width': 410, 'height': 410, 'widthPercent': 0.45, 'rescaleHeight': False, 'trialN': 13, 'loaded': True, 'loadedTime': 7421.800000000745, 'positionName': 'RIGHT', 'positionCoords': [710.32, 179], 'bid': 2.97}]",26024.10000000149,1669831979131,grilled chicken strips,mac & cheese,5.95,2.97,-2.98,grilled chicken strips,482.19999999925494,484,484.69999999925494,True,u,27022.800000000745,998.6999999992549,1669831980129,998,HRV,HRV_0116,2022-11-30 18:16:03
14,"[{'imgObject': {}, 'id': 'blackbeanswithrice', 'src': '/static/foodstim60/blackbeanswithrice.jpg', 'key': 'u', 'origWidth': 410, 'origHeight': 410, 'width': 410, 'height': 410, 'widthPercent': 0.45, 'rescaleHeight': False, 'trialN': 14, 'loaded': True, 'loadedTime': 7438.60000000149, 'positionName': 'LEFT', 'positionCoords': [245.68, 179], 'bid': 5.29}, {'imgObject': {}, 'id': 'baked potato', 'src': '/static/foodstim60/baked potato.jpg', 'key': 'i', 'origWidth': 409, 'origHeight': 410, 'width': 409, 'height': 410, 'widthPercent': 0.45, 'rescaleHeight': False, 'trialN': 14, 'loaded': True, 'loadedTime': 7182.400000002235, 'positionName': 'RIGHT', 'positionCoords': [710.32, 179], 'bid': 5.11}]",27023.800000000745,1669831980130,blackbeanswithrice,baked potato,5.29,5.11,-0.17999999999999972,blackbeanswithrice,591.0,593,592.8000000007451,True,u,28124.400000002235,1100.6000000014901,1669831981231,1101,HRV,HRV_0116,2022-11-30 18:16:03
15,"[{'imgObject': {}, 'id': 'hashbrowns', 'src': '/static/foodstim60/hashbrowns.jpg', 'key': 'u', 'origWidth': 411, 'origHeight': 410, 'width': 411, 'height': 410, 'widthPercent': 0.45, 'rescaleHeight': False, 'trialN': 15, 'loaded': True, 'loadedTime': 7444, 'positionName': 'LEFT', 'positionCoords': [244.68, 179], 'bid': 7.48}, {'imgObject': {}, 'id': 'raisin bran w milk', 'src': '/static/foodstim60/raisin bran w milk.jpg', 'key': 'i', 'origWidth': 411, 'origHeight': 411, 'width': 411, 'height': 411, 'widthPercent': 0.45, 'rescaleHeight': False, 'trialN': 15, 'loaded': True, 'loadedTime': 7466.60000000149, 'positionName': 'RIGHT', 'positionCoords': [710.32, 178.5], 'bid': 7.98}]",28125.0,1669831981231,hashbrowns,raisin bran w milk,7.48,7.98,0.5,raisin bran w milk,528.6000000014901,530,529.5,True,i,29168.900000002235,1043.9000000022352,1669831982275,1044,HRV,HRV_0116,2022-11-30 18:16:03
16,"[{'imgObject': {}, 'id': 'cherries', 'src': '/static/foodstim60/cherries.jpg', 'key': 'u', 'origWidth': 410, 'origHeight': 411, 'width': 410, 'height': 411, 'widthPercent': 0.45, 'rescaleHeight': False, 'trialN': 16, 'loaded': True, 'loadedTime': 7501.60000000149, 'positionName': 'LEFT', 'positionCoords': [245.68, 178.5], 'bid': 6.74}, {'imgObject': {}, 'id': 'avocado', 'src': '/static/foodstim60/avocado.jpg', 'key': 'i', 'origWidth': 409, 'origHeight': 409, 'width': 409, 'height': 409, 'widthPercent': 0.45, 'rescaleHeight': False, 'trialN': 16, 'loaded': True, 'loadedTime': 7505.70000000298, 'positionName': 'RIGHT', 'positionCoords': [710.32, 179.5], 'bid': 6.93}]",29170.300000000745,1669831982277,cherries,avocado,6.74,6.93,0.1899999999999995,cherries,517.0,520,520.6000000014901,True,u,30200.5,1030.199999999255,1669831983307,1030,HRV,HRV_0116,2022-11-30 18:16:03
17,"[{'imgObject': {}, 'id': 'cherries', 'src': '/static/foodstim60/cherries.jpg', 'key': 'u', 'origWidth': 410, 'origHeight': 411, 'width': 410, 'height': 411, 'widthPercent': 0.45, 'rescaleHeight': False, 'trialN': 17, 'loaded': True, 'loadedTime': 7490.400000002235, 'positionName': 'LEFT', 'positionCoords': [245.68, 178.5], 'bid': 6.74}, {'imgObject': {}, 'id': 'raisin bran w milk', 'src': '/static/foodstim60/raisin bran w milk.jpg', 'key': 'i', 'origWidth': 411, 'origHeight': 411, 'width': 411, 'height': 411, 'widthPercent': 0.45, 'rescaleHeight': False, 'trialN': 17, 'loaded': True, 'loadedTime': 7464.900000002235, 'positionName': 'RIGHT', 'positionCoords': [710.32, 178.5], 'bid': 7.98}]",30201.5,1669831983308,cherries,raisin bran w milk,6.74,7.98,1.2400000000000002,raisin bran w milk,563.7000000029802,565,564.7000000029802,True,i,31273.300000000745,1071.800000000745,1669831984380,1072,HRV,HRV_0116,2022-11-30 18:16:03
18,"[{'imgObject': {}, 'id': 'mango', 'src': '/static/foodstim60/mango.jpg', 'key': 'u', 'origWidth': 411, 'origHeight': 411, 'width': 411, 'height': 411, 'widthPercent': 0.45, 'rescaleHeight': False, 'trialN': 18, 'loaded': True, 'loadedTime': 7521.5, 'positionName': 'LEFT', 'positionCoords': [244.68, 178.5], 'bid': 6.97}, {'imgObject': {}, 'id': 'banana', 'src': '/static/foodstim60/banana.jpg', 'key': 'i', 'origWidth': 410, 'origHeight': 410, 'width': 410, 'height': 410, 'widthPercent': 0.45, 'rescaleHeight': False, 'trialN': 18, 'loaded': True, 'loadedTime': 7522.400000002235, 'positionName': 'RIGHT', 'positionCoords': [710.32, 179], 'bid': 8.08}]",31274.400000002235,1669831984381,mango,banana,6.97,8.08,1.1100000000000003,mango,995.3999999985099,997,997.3000000007451,True,u,32779.400000002235,1505.0,1669831985886,1505,HRV,HRV_0116,2022-11-30 18:16:03
19,"[{'imgObject': {}, 'id': 'blueberries', 'src': '/static/foodstim60/blueberries.jpg', 'key': 'u', 'origWidth': 411, 'origHeight': 411, 'width': 411, 'height': 411, 'widthPercent': 0.45, 'rescaleHeight': False, 'trialN': 19, 'loaded': True, 'loadedTime': 7535.5, 'positionName': 'LEFT', 'positionCoords': [244.68, 178.5], 'bid': 8.26}, {'imgObject': {}, 'id': 'pear', 'src': '/static/foodstim60/pear.jpg', 'key': 'i', 'origWidth': 411, 'origHeight': 410, 'width': 411, 'height': 410, 'widthPercent': 0.45, 'rescaleHeight': False, 'trialN': 19, 'loaded': True, 'loadedTime': 7583, 'positionName': 'RIGHT', 'positionCoords': [710.32, 179], 'bid': 9.14}]",32780.10000000149,1669831985886,blueberries,pear,8.26,9.14,0.8800000000000008,blueberries,465.0,467,466.6000000014901,True,u,33753.20000000298,973.1000000014901,1669831986860,974,HRV,HRV_0116,2022-11-30 18:16:03
20,"[{'imgObject': {}, 'id': 'olives', 'src': '/static/foodstim60/olives.jpg', 'key': 'u', 'origWidth': 410, 'origHeight': 410, 'width': 410, 'height': 410, 'widthPercent': 0.45, 'rescaleHeight': False, 'trialN': 20, 'loaded': True, 'loadedTime': 6756.20000000298, 'positionName': 'LEFT', 'positionCoords': [245.68, 179], 'bid': 6.21}, {'imgObject': {}, 'id': 'mashed potato', 'src': '/static/foodstim60/mashed potato.jpg', 'key': 'i', 'origWidth': 409, 'origHeight': 409, 'width': 409, 'height': 409, 'widthPercent': 0.45, 'rescaleHeight': False, 'trialN': 20, 'loaded': True, 'loadedTime': 7235.300000000745, 'positionName': 'RIGHT', 'positionCoords': [710.32, 179.5], 'bid': 6.17}]",33754.20000000298,1669831986861,olives,mashed potato,6.21,6.17,-0.040000000000000036,mashed potato,820.1999999992549,824,823.8999999985099,True,i,35086.0,1331.7999999970198,1669831988192,1331,HRV,HRV_0116,2022-11-30 18:16:03
21,"[{'imgObject': {}, 'id': 'rigatoni', 'src': '/static/foodstim60/rigatoni.jpg', 'key': 'u', 'origWidth': 411, 'origHeight': 411, 'width': 411, 'height': 411, 'widthPercent': 0.45, 'rescaleHeight': False, 'trialN': 21, 'loaded': True, 'loadedTime': 7551.300000000745, 'positionName': 'LEFT', 'positionCoords': [244.68, 178.5], 'bid': 6.91}, {'imgObject': {}, 'id': 'avocado', 'src': '/static/foodstim60/avocado.jpg', 'key': 'i', 'origWidth': 409, 'origHeight': 409, 'width': 409, 'height': 409, 'widthPercent': 0.45, 'rescaleHeight': False, 'trialN': 21, 'loaded': True, 'loadedTime': 7505.800000000745, 'positionName': 'RIGHT', 'positionCoords': [710.32, 179.5], 'bid': 6.93}]",35086.70000000298,1669831988193,rigatoni,avocado,6.91,6.93,0.019999999999999574,rigatoni,590.5,594,593.7999999970198,True,u,36194.10000000149,1107.3999999985099,1669831989301,1108,HRV,HRV_0116,2022-11-30 18:16:03
22,"[{'imgObject': {}, 'id': 'burrito', 'src': '/static/foodstim60/burrito.jpg', 'key': 'u', 'origWidth': 410, 'origHeight': 410, 'width': 410, 'height': 410, 'widthPercent': 0.45, 'rescaleHeight': False, 'trialN': 22, 'loaded': True, 'loadedTime': 7231.10000000149, 'positionName': 'LEFT', 'positionCoords': [245.68, 179], 'bid': 9.23}, {'imgObject': {}, 'id': 'yogurt no spoon', 'src': '/static/foodstim60/yogurt no spoon.jpg', 'key': 'i', 'origWidth': 411, 'origHeight': 410, 'width': 411, 'height': 410, 'widthPercent': 0.45, 'rescaleHeight': False, 'trialN': 22, 'loaded': True, 'loadedTime': 7554.70000000298, 'positionName': 'RIGHT', 'positionCoords': [710.32, 179], 'bid': 8.51}]",36195.10000000149,1669831989301,burrito,yogurt no spoon,9.23,8.51,-0.7200000000000006,burrito,617.8999999985099,620,619.8000000007451,True,u,37327.400000002235,1132.300000000745,1669831990434,1133,HRV,HRV_0116,2022-11-30 18:16:03
23,"[{'imgObject': {}, 'id': 'seaweed', 'src': '/static/foodstim60/seaweed.jpg', 'key': 'u', 'origWidth': 410, 'origHeight': 410, 'width': 410, 'height': 410, 'widthPercent': 0.45, 'rescaleHeight': False, 'trialN': 23, 'loaded': True, 'loadedTime': 7269.400000002235, 'positionName': 'LEFT', 'positionCoords': [245.68, 179], 'bid': 6.28}, {'imgObject': {}, 'id': 'fruitsalad', 'src': '/static/foodstim60/fruitsalad.jpg', 'key': 'i', 'origWidth': 410, 'origHeight': 410, 'width': 410, 'height': 410, 'widthPercent': 0.45, 'rescaleHeight': False, 'trialN': 23, 'loaded': True, 'loadedTime': 7559.900000002235, 'positionName': 'RIGHT', 'positionCoords': [710.32, 179], 'bid': 8.96}]",37328.300000000745,1669831990435,seaweed,fruitsalad,6.28,8.96,2.6800000000000006,seaweed,580.4000000022352,583,583.8000000007451,True,u,38424.20000000298,1095.9000000022352,1669831991531,1096,HRV,HRV_0116,2022-11-30 18:16:03
24,"[{'imgObject': {}, 'id': 'apple slices', 'src': '/static/foodstim60/apple slices.jpg', 'key': 'u', 'origWidth': 409, 'origHeight': 410, 'width': 409, 'height': 410, 'widthPercent': 0.45, 'rescaleHeight': False, 'trialN': 24, 'loaded': True, 'loadedTime': 7146.70000000298, 'positionName': 'LEFT', 'positionCoords': [246.68, 179], 'bid': 7.12}, {'imgObject': {}, 'id': 'eggsalad', 'src': '/static/foodstim60/eggsalad.jpg', 'key': 'i', 'origWidth': 410, 'origHeight': 409, 'width': 410, 'height': 409, 'widthPercent': 0.45, 'rescaleHeight': False, 'trialN': 24, 'loaded': True, 'loadedTime': 7572.400000002235, 'positionName': 'RIGHT', 'positionCoords': [710.32, 179.5], 'bid': 1.67}]",38424.60000000149,1669831991531,apple slices,eggsalad,7.12,1.67,-5.45,apple slices,524.1999999992549,526,526.1000000014901,True,u,39463.10000000149,1038.5,1669831992570,1039,HRV,HRV_0116,2022-11-30 18:16:03
25,"[{'imgObject': {}, 'id': 'hotdog w must', 'src': '/static/foodstim60/hotdog w must.jpg', 'key': 'u', 'origWidth': 409, 'origHeight': 409, 'width': 409, 'height': 409, 'widthPercent': 0.45, 'rescaleHeight': False, 'trialN': 25, 'loaded': True, 'loadedTime': 7581, 'positionName': 'LEFT', 'positionCoords': [246.68, 179.5], 'bid': 7.29}, {'imgObject': {}, 'id': 'apple slices', 'src': '/static/foodstim60/apple slices.jpg', 'key': 'i', 'origWidth': 409, 'origHeight': 410, 'width': 409, 'height': 410, 'widthPercent': 0.45, 'rescaleHeight': False, 'trialN': 25, 'loaded': True, 'loadedTime': 7154.400000002235, 'positionName': 'RIGHT', 'positionCoords': [710.32, 179], 'bid': 7.12}]",39463.400000002235,1669831992570,hotdog w must,apple slices,7.29,7.12,-0.16999999999999993,hotdog w must,549.3000000007451,551,551.1999999992549,True,u,40524.70000000298,1061.300000000745,1669831993631,1061,HRV,HRV_0116,2022-11-30 18:16:03
26,"[{'imgObject': {}, 'id': 'eggsalad', 'src': '/static/foodstim60/eggsalad.jpg', 'key': 'u', 'origWidth': 410, 'origHeight': 409, 'width': 410, 'height': 409, 'widthPercent': 0.45, 'rescaleHeight': False, 'trialN': 26, 'loaded': True, 'loadedTime': 7576.300000000745, 'positionName': 'LEFT', 'positionCoords': [245.68, 179.5], 'bid': 1.67}, {'imgObject': {}, 'id': 'omelette', 'src': '/static/foodstim60/omelette.jpg', 'key': 'i', 'origWidth': 410, 'origHeight': 409, 'width': 410, 'height': 409, 'widthPercent': 0.45, 'rescaleHeight': False, 'trialN': 26, 'loaded': True, 'loadedTime': 7611.60000000149, 'positionName': 'RIGHT', 'positionCoords': [710.32, 179.5], 'bid': 3.21}]",40525.20000000298,1669831993632,eggsalad,omelette,1.67,3.21,1.54,omelette,1012.1999999992549,1013,1013.2999999970198,True,i,42047.70000000298,1522.5,1669831995154,1522,HRV,HRV_0116,2022-11-30 18:16:03
27,"[{'imgObject': {}, 'id': 'fruitsalad', 'src': '/static/foodstim60/fruitsalad.jpg', 'key': 'u', 'origWidth': 410, 'origHeight': 410, 'width': 410, 'height': 410, 'widthPercent': 0.45, 'rescaleHeight': False, 'trialN': 27, 'loaded': True, 'loadedTime': 7555.60000000149, 'positionName': 'LEFT', 'positionCoords': [245.68, 179], 'bid': 8.96}, {'imgObject': {}, 'id': 'chicken nuggets2', 'src': '/static/foodstim60/chicken nuggets2.jpg', 'key': 'i', 'origWidth': 410, 'origHeight': 409, 'width': 410, 'height': 409, 'widthPercent': 0.45, 'rescaleHeight': False, 'trialN': 27, 'loaded': True, 'loadedTime': 7284.800000000745, 'positionName': 'RIGHT', 'positionCoords': [710.32, 179.5], 'bid': 8.57}]",42048.20000000298,1669831995155,fruitsalad,chicken nuggets2,8.96,8.57,-0.39000000000000057,fruitsalad,612.0,615,615.3999999985099,True,u,43169.60000000149,1121.3999999985099,1669831996276,1121,HRV,HRV_0116,2022-11-30 18:16:03
28,"[{'imgObject': {}, 'id': 'turkey sandwich', 'src': '/static/foodstim60/turkey sandwich.jpg', 'key': 'u', 'origWidth': 409, 'origHeight': 409, 'width': 409, 'height': 409, 'widthPercent': 0.45, 'rescaleHeight': False, 'trialN': 28, 'loaded': True, 'loadedTime': 7470.20000000298, 'positionName': 'LEFT', 'positionCoords': [246.68, 179.5], 'bid': 9.5}, {'imgObject': {}, 'id': 'mango', 'src': '/static/foodstim60/mango.jpg', 'key': 'i', 'origWidth': 411, 'origHeight': 411, 'width': 411, 'height': 411, 'widthPercent': 0.45, 'rescaleHeight': False, 'trialN': 28, 'loaded': True, 'loadedTime': 7522.20000000298, 'positionName': 'RIGHT', 'positionCoords': [710.32, 178.5], 'bid': 6.97}]",43170.0,1669831996276,turkey sandwich,mango,9.5,6.97,-2.5300000000000002,mango,826.6000000014901,828,828.0,True,i,44518.400000002235,1348.4000000022352,1669831997625,1349,HRV,HRV_0116,2022-11-30 18:16:03
29,"[{'imgObject': {}, 'id': 'cherry tomato', 'src': '/static/foodstim60/cherry tomato.jpg', 'key': 'u', 'origWidth': 410, 'origHeight': 410, 'width': 410, 'height': 410, 'widthPercent': 0.45, 'rescaleHeight': False, 'trialN': 29, 'loaded': True, 'loadedTime': 7623.300000000745, 'positionName': 'LEFT', 'positionCoords': [245.68, 179], 'bid': 7.98}, {'imgObject': {}, 'id': 'raspberries', 'src': '/static/foodstim60/raspberries.jpg', 'key': 'i', 'origWidth': 411, 'origHeight': 411, 'width': 411, 'height': 411, 'widthPercent': 0.45, 'rescaleHeight': False, 'trialN': 29, 'loaded': True, 'loadedTime': 7754.60000000149, 'positionName': 'RIGHT', 'positionCoords': [710.32, 178.5], 'bid': 8.08}]",44518.900000002235,1669831997625,cherry tomato,raspberries,7.98,8.08,0.09999999999999964,cherry tomato,438.0999999977648,442,441.69999999925494,True,u,45474.60000000149,955.6999999992549,1669831998581,956,HRV,HRV_0116,2022-11-30 18:16:03
30,"[{'imgObject': {}, 'id': 'mashed potato', 'src': '/static/foodstim60/mashed potato.jpg', 'key': 'u', 'origWidth': 409, 'origHeight': 409, 'width': 409, 'height': 409, 'widthPercent': 0.45, 'rescaleHeight': False, 'trialN': 30, 'loaded': True, 'loadedTime': 7232.60000000149, 'positionName': 'LEFT', 'positionCoords': [246.68, 179.5], 'bid': 6.17}, {'imgObject': {}, 'id': 'fried eggs', 'src': '/static/foodstim60/fried eggs.jpg', 'key': 'i', 'origWidth': 410, 'origHeight': 410, 'width': 410, 'height': 410, 'widthPercent': 0.45, 'rescaleHeight': False, 'trialN': 30, 'loaded': True, 'loadedTime': 7623.900000002235, 'positionName': 'RIGHT', 'positionCoords': [710.32, 179], 'bid': 8.92}]",45475.10000000149,1669831998581,mashed potato,fried eggs,6.17,8.92,2.75,fried eggs,697.3000000007451,702,701.1000000014901,True,i,46683.900000002235,1208.800000000745,1669831999800,1219,HRV,HRV_0116,2022-11-30 18:16:03
31,"[{'imgObject': {}, 'id': 'ice cream sundae 002', 'src': '/static/foodstim60/ice cream sundae 002.jpg', 'key': 'u', 'origWidth': 409, 'origHeight': 409, 'width': 409, 'height': 409, 'widthPercent': 0.45, 'rescaleHeight': False, 'trialN': 31, 'loaded': True, 'loadedTime': 7655.20000000298, 'positionName': 'LEFT', 'positionCoords': [246.68, 179.5], 'bid': 9.23}, {'imgObject': {}, 'id': 'cantaloupe', 'src': '/static/foodstim60/cantaloupe.jpg', 'key': 'i', 'origWidth': 409, 'origHeight': 409, 'width': 409, 'height': 409, 'widthPercent': 0.45, 'rescaleHeight': False, 'trialN': 31, 'loaded': True, 'loadedTime': 7791.800000000745, 'positionName': 'RIGHT', 'positionCoords': [710.32, 179.5], 'bid': 9.14}]",46684.800000000745,1669831999801,ice cream sundae 002,cantaloupe,9.23,9.14,-0.08999999999999986,cantaloupe,806.5,807,807.6999999992549,True,i,48005.300000000745,1320.5,1669832001121,1320,HRV,HRV_0116,2022-11-30 18:16:03
32,"[{'imgObject': {}, 'id': 'cherry tomato', 'src': '/static/foodstim60/cherry tomato.jpg', 'key': 'u', 'origWidth': 410, 'origHeight': 410, 'width': 410, 'height': 410, 'widthPercent': 0.45, 'rescaleHeight': False, 'trialN': 32, 'loaded': True, 'loadedTime': 7618, 'positionName': 'LEFT', 'positionCoords': [245.68, 179], 'bid': 7.98}, {'imgObject': {}, 'id': 'roastedpotatoes', 'src': '/static/foodstim60/roastedpotatoes.jpg', 'key': 'i', 'origWidth': 409, 'origHeight': 410, 'width': 409, 'height': 410, 'widthPercent': 0.45, 'rescaleHeight': False, 'trialN': 32, 'loaded': True, 'loadedTime': 6942.800000000745, 'positionName': 'RIGHT', 'positionCoords': [710.32, 179], 'bid': 3.69}]",48006.20000000298,1669832001122,cherry tomato,roastedpotatoes,7.98,3.69,-4.290000000000001,cherry tomato,469.0999999977648,472,472.3999999985099,True,u,48988.300000000745,982.0999999977648,1669832002104,982,HRV,HRV_0116,2022-11-30 18:16:03
33,"[{'imgObject': {}, 'id': 'edamame', 'src': '/static/foodstim60/edamame.jpg', 'key': 'u', 'origWidth': 409, 'origHeight': 410, 'width': 409, 'height': 410, 'widthPercent': 0.45, 'rescaleHeight': False, 'trialN': 33, 'loaded': True, 'loadedTime': 7689.20000000298, 'positionName': 'LEFT', 'positionCoords': [246.68, 179], 'bid': 8.3}, {'imgObject': {}, 'id': 'chicken nuggets2', 'src': '/static/foodstim60/chicken nuggets2.jpg', 'key': 'i', 'origWidth': 410, 'origHeight': 409, 'width': 410, 'height': 409, 'widthPercent': 0.45, 'rescaleHeight': False, 'trialN': 33, 'loaded': True, 'loadedTime': 7285.800000000745, 'positionName': 'RIGHT', 'positionCoords': [710.32, 179.5], 'bid': 8.57}]",48989.300000000745,1669832002105,edamame,chicken nuggets2,8.3,8.57,0.2699999999999996,edamame,646.1999999992549,648,648.0,True,u,50150.900000002235,1161.6000000014901,1669832003267,1162,HRV,HRV_0116,2022-11-30 18:16:03
34,"[{'imgObject': {}, 'id': 'roastedpotatoes', 'src': '/static/foodstim60/roastedpotatoes.jpg', 'key': 'u', 'origWidth': 409, 'origHeight': 410, 'width': 409, 'height': 410, 'widthPercent': 0.45, 'rescaleHeight': False, 'trialN': 34, 'loaded': True, 'loadedTime': 6941.800000000745, 'positionName': 'LEFT', 'positionCoords': [246.68, 179], 'bid': 3.69}, {'imgObject': {}, 'id': 'tacos', 'src': '/static/foodstim60/tacos.jpg', 'key': 'i', 'origWidth': 411, 'origHeight': 411, 'width': 411, 'height': 411, 'widthPercent': 0.45, 'rescaleHeight': False, 'trialN': 34, 'loaded': True, 'loadedTime': 7693.400000002235, 'positionName': 'RIGHT', 'positionCoords': [710.32, 178.5], 'bid': 3.37}]",50151.20000000298,1669832003267,roastedpotatoes,tacos,3.69,3.37,-0.31999999999999984,roastedpotatoes,692.1999999992549,694,694.1999999992549,True,u,51356.10000000149,1204.8999999985099,1669832004472,1205,HRV,HRV_0116,2022-11-30 18:16:03
35,"[{'imgObject': {}, 'id': 'burrito', 'src': '/static/foodstim60/burrito.jpg', 'key': 'u', 'origWidth': 410, 'origHeight': 410, 'width': 410, 'height': 410, 'widthPercent': 0.45, 'rescaleHeight': False, 'trialN': 35, 'loaded': True, 'loadedTime': 7201.10000000149, 'positionName': 'LEFT', 'positionCoords': [245.68, 179], 'bid': 9.23}, {'imgObject': {}, 'id': 'cheerios', 'src': '/static/foodstim60/cheerios.jpg', 'key': 'i', 'origWidth': 409, 'origHeight': 410, 'width': 409, 'height': 410, 'widthPercent': 0.45, 'rescaleHeight': False, 'trialN': 35, 'loaded': True, 'loadedTime': 7716.70000000298, 'positionName': 'RIGHT', 'positionCoords': [710.32, 179], 'bid': 8.790000000000001}]",51356.400000002235,1669832004472,burrito,cheerios,9.23,8.790000000000001,-0.4399999999999995,burrito,359.19999999925494,364,363.5,True,u,52226.60000000149,870.1999999992549,1669832005342,870,HRV,HRV_0116,2022-11-30 18:16:03
36,"[{'imgObject': {}, 'id': 'luckycharms', 'src': '/static/foodstim60/luckycharms.jpg', 'key': 'u', 'origWidth': 410, 'origHeight': 409, 'width': 410, 'height': 409, 'widthPercent': 0.45, 'rescaleHeight': False, 'trialN': 36, 'loaded': True, 'loadedTime': 7320.300000000745, 'positionName': 'LEFT', 'positionCoords': [245.68, 179.5], 'bid': 8.66}, {'imgObject': {}, 'id': 'salad w chicken', 'src': '/static/foodstim60/salad w chicken.jpg', 'key': 'i', 'origWidth': 411, 'origHeight': 411, 'width': 411, 'height': 411, 'widthPercent': 0.45, 'rescaleHeight': False, 'trialN': 36, 'loaded': True, 'loadedTime': 7720.60000000149, 'positionName': 'RIGHT', 'positionCoords': [710.32, 178.5], 'bid': 8.64}]",52227.10000000149,1669832005343,luckycharms,salad w chicken,8.66,8.64,-0.019999999999999574,luckycharms,327.80000000074506,331,331.19999999925494,True,u,53066.900000002235,839.8000000007451,1669832006183,840,HRV,HRV_0116,2022-11-30 18:16:03
37,"[{'imgObject': {}, 'id': 'fried eggs', 'src': '/static/foodstim60/fried eggs.jpg', 'key': 'u', 'origWidth': 410, 'origHeight': 410, 'width': 410, 'height': 410, 'widthPercent': 0.45, 'rescaleHeight': False, 'trialN': 37, 'loaded': True, 'loadedTime': 7650.70000000298, 'positionName': 'LEFT', 'positionCoords': [245.68, 179], 'bid': 8.92}, {'imgObject': {}, 'id': 'orange slices', 'src': '/static/foodstim60/orange slices.jpg', 'key': 'i', 'origWidth': 409, 'origHeight': 410, 'width': 409, 'height': 410, 'widthPercent': 0.45, 'rescaleHeight': False, 'trialN': 37, 'loaded': True, 'loadedTime': 7123.10000000149, 'positionName': 'RIGHT', 'positionCoords': [710.32, 179], 'bid': 8.89}]",53067.400000002235,1669832006183,fried eggs,orange slices,8.92,8.89,-0.02999999999999936,fried eggs,278.80000000074506,281,280.3999999985099,True,u,53850.400000002235,783.0,1669832006966,783,HRV,HRV_0116,2022-11-30 18:16:03
38,"[{'imgObject': {}, 'id': 'apple slices', 'src': '/static/foodstim60/apple slices.jpg', 'key': 'u', 'origWidth': 409, 'origHeight': 410, 'width': 409, 'height': 410, 'widthPercent': 0.45, 'rescaleHeight': False, 'trialN': 38, 'loaded': True, 'loadedTime': 7149.300000000745, 'positionName': 'LEFT', 'positionCoords': [246.68, 179], 'bid': 7.12}, {'imgObject': {}, 'id': 'mango', 'src': '/static/foodstim60/mango.jpg', 'key': 'i', 'origWidth': 411, 'origHeight': 411, 'width': 411, 'height': 411, 'widthPercent': 0.45, 'rescaleHeight': False, 'trialN': 38, 'loaded': True, 'loadedTime': 7509.800000000745, 'positionName': 'RIGHT', 'positionCoords': [710.32, 178.5], 'bid': 6.97}]",53851.400000002235,1669832006967,apple slices,mango,7.12,6.97,-0.15000000000000036,apple slices,343.8999999985099,348,347.5,True,u,54708.800000000745,857.3999999985099,1669832007825,858,HRV,HRV_0116,2022-11-30 18:16:03
39,"[{'imgObject': {}, 'id': 'fruitsalad', 'src': '/static/foodstim60/fruitsalad.jpg', 'key': 'u', 'origWidth': 410, 'origHeight': 410, 'width': 410, 'height': 410, 'widthPercent': 0.45, 'rescaleHeight': False, 'trialN': 39, 'loaded': True, 'loadedTime': 7558.300000000745, 'positionName': 'LEFT', 'positionCoords': [245.68, 179], 'bid': 8.96}, {'imgObject': {}, 'id': 'raspberries', 'src': '/static/foodstim60/raspberries.jpg', 'key': 'i', 'origWidth': 411, 'origHeight': 411, 'width': 411, 'height': 411, 'widthPercent': 0.45, 'rescaleHeight': False, 'trialN': 39, 'loaded': True, 'loadedTime': 7764, 'positionName': 'RIGHT', 'positionCoords': [710.32, 178.5], 'bid': 8.08}]",54709.20000000298,1669832007825,fruitsalad,raspberries,8.96,8.08,-0.8800000000000008,fruitsalad,350.5999999977648,354,354.19999999925494,True,u,55574.800000000745,865.5999999977648,1669832008691,866,HRV,HRV_0116,2022-11-30 18:16:03
40,"[{'imgObject': {}, 'id': 'mac & cheese', 'src': '/static/foodstim60/mac & cheese.jpg', 'key': 'u', 'origWidth': 410, 'origHeight': 410, 'width': 410, 'height': 410, 'widthPercent': 0.45, 'rescaleHeight': False, 'trialN': 40, 'loaded': True, 'loadedTime': 7421.400000002235, 'positionName': 'LEFT', 'positionCoords': [245.68, 179], 'bid': 2.97}, {'imgObject': {}, 'id': 'burger', 'src': '/static/foodstim60/burger.jpg', 'key': 'i', 'origWidth': 409, 'origHeight': 409, 'width': 409, 'height': 409, 'widthPercent': 0.45, 'rescaleHeight': False, 'trialN': 40, 'loaded': True, 'loadedTime': 7727.20000000298, 'positionName': 'RIGHT', 'positionCoords': [710.32, 179.5], 'bid': 5.0200000000000005}]",55575.300000000745,1669832008691,mac & cheese,burger,2.97,5.0200000000000005,2.0500000000000003,mac & cheese,274.69999999925494,277,276.4000000022352,True,u,56362.300000000745,787.0,1669832009478,787,HRV,HRV_0116,2022-11-30 18:16:03
41,"[{'imgObject': {}, 'id': 'tacos', 'src': '/static/foodstim60/tacos.jpg', 'key': 'u', 'origWidth': 411, 'origHeight': 411, 'width': 411, 'height': 411, 'widthPercent': 0.45, 'rescaleHeight': False, 'trialN': 41, 'loaded': True, 'loadedTime': 7689.60000000149, 'positionName': 'LEFT', 'positionCoords': [244.68, 178.5], 'bid': 3.37}, {'imgObject': {}, 'id': 'blackbeanswithrice', 'src': '/static/foodstim60/blackbeanswithrice.jpg', 'key': 'i', 'origWidth': 410, 'origHeight': 410, 'width': 410, 'height': 410, 'widthPercent': 0.45, 'rescaleHeight': False, 'trialN': 41, 'loaded': True, 'loadedTime': 7437.900000002235, 'positionName': 'RIGHT', 'positionCoords': [710.32, 179], 'bid': 5.29}]",56363.10000000149,1669832009479,tacos,blackbeanswithrice,3.37,5.29,1.92,tacos,1191.699999999255,1195,1195.5,True,u,58070.70000000298,1707.6000000014901,1669832011186,1707,HRV,HRV_0116,2022-11-30 18:16:03
42,"[{'imgObject': {}, 'id': 'cheerios', 'src': '/static/foodstim60/cheerios.jpg', 'key': 'u', 'origWidth': 409, 'origHeight': 410, 'width': 409, 'height': 410, 'widthPercent': 0.45, 'rescaleHeight': False, 'trialN': 42, 'loaded': True, 'loadedTime': 7715.400000002235, 'positionName': 'LEFT', 'positionCoords': [246.68, 179], 'bid': 8.790000000000001}, {'imgObject': {}, 'id': 'hotdog w must', 'src': '/static/foodstim60/hotdog w must.jpg', 'key': 'i', 'origWidth': 409, 'origHeight': 409, 'width': 409, 'height': 409, 'widthPercent': 0.45, 'rescaleHeight': False, 'trialN': 42, 'loaded': True, 'loadedTime': 7582, 'positionName': 'RIGHT', 'positionCoords': [710.32, 179.5], 'bid': 7.29}]",58071.300000000745,1669832011187,cheerios,hotdog w must,8.790000000000001,7.29,-1.5000000000000009,hotdog w must,874.9000000022352,876,876.1999999992549,True,i,59462.400000002235,1391.1000000014901,1669832012578,1391,HRV,HRV_0116,2022-11-30 18:16:03
43,"[{'imgObject': {}, 'id': 'yogurt no spoon', 'src': '/static/foodstim60/yogurt no spoon.jpg', 'key': 'u', 'origWidth': 411, 'origHeight': 410, 'width': 411, 'height': 410, 'widthPercent': 0.45, 'rescaleHeight': False, 'trialN': 43, 'loaded': True, 'loadedTime': 7551.5, 'positionName': 'LEFT', 'positionCoords': [244.68, 179], 'bid': 8.51}, {'imgObject': {}, 'id': 'froot loops w milk', 'src': '/static/foodstim60/froot loops w milk.jpg', 'key': 'i', 'origWidth': 410, 'origHeight': 410, 'width': 410, 'height': 410, 'widthPercent': 0.45, 'rescaleHeight': False, 'trialN': 43, 'loaded': True, 'loadedTime': 7787.5, 'positionName': 'RIGHT', 'positionCoords': [710.32, 179], 'bid': 8.61}]",59462.900000002235,1669832012579,yogurt no spoon,froot loops w milk,8.51,8.61,0.09999999999999964,yogurt no spoon,395.80000000074506,399,399.69999999925494,True,u,60369.20000000298,906.3000000007451,1669832013485,906,HRV,HRV_0116,2022-11-30 18:16:03
44,"[{'imgObject': {}, 'id': 'strawberries', 'src': '/static/foodstim60/strawberries.jpg', 'key': 'u', 'origWidth': 410, 'origHeight': 410, 'width': 410, 'height': 410, 'widthPercent': 0.45, 'rescaleHeight': False, 'trialN': 44, 'loaded': True, 'loadedTime': 7748.800000000745, 'positionName': 'LEFT', 'positionCoords': [245.68, 179], 'bid': 10}, {'imgObject': {}, 'id': 'turkeysandwich', 'src': '/static/foodstim60/turkeysandwich.jpg', 'key': 'i', 'origWidth': 409, 'origHeight': 409, 'width': 409, 'height': 409, 'widthPercent': 0.45, 'rescaleHeight': False, 'trialN': 44, 'loaded': True, 'loadedTime': 7350.20000000298, 'positionName': 'RIGHT', 'positionCoords': [710.32, 179.5], 'bid': 9.31}]",60369.60000000149,1669832013485,strawberries,turkeysandwich,10.0,9.31,-0.6899999999999995,turkeysandwich,504.8999999985099,509,508.6000000014901,True,i,61395.20000000298,1025.6000000014901,1669832014511,1026,HRV,HRV_0116,2022-11-30 18:16:03
45,"[{'imgObject': {}, 'id': 'froot loops w milk', 'src': '/static/foodstim60/froot loops w milk.jpg', 'key': 'u', 'origWidth': 410, 'origHeight': 410, 'width': 410, 'height': 410, 'widthPercent': 0.45, 'rescaleHeight': False, 'trialN': 45, 'loaded': True, 'loadedTime': 7787.900000002235, 'positionName': 'LEFT', 'positionCoords': [245.68, 179], 'bid': 8.61}, {'imgObject': {}, 'id': 'turkey sandwich', 'src': '/static/foodstim60/turkey sandwich.jpg', 'key': 'i', 'origWidth': 409, 'origHeight': 409, 'width': 409, 'height': 409, 'widthPercent': 0.45, 'rescaleHeight': False, 'trialN': 45, 'loaded': True, 'loadedTime': 7484.10000000149, 'positionName': 'RIGHT', 'positionCoords': [710.32, 179.5], 'bid': 9.5}]",61395.60000000149,1669832014511,froot loops w milk,turkey sandwich,8.61,9.5,0.8900000000000006,froot loops w milk,478.19999999925494,481,480.1000000014901,True,u,62380.70000000298,985.1000000014901,1669832015496,985,HRV,HRV_0116,2022-11-30 18:16:03
46,"[{'imgObject': {}, 'id': 'grilled chicken strips', 'src': '/static/foodstim60/grilled chicken strips.jpg', 'key': 'u', 'origWidth': 410, 'origHeight': 411, 'width': 410, 'height': 411, 'widthPercent': 0.45, 'rescaleHeight': False, 'trialN': 46, 'loaded': True, 'loadedTime': 7403.20000000298, 'positionName': 'LEFT', 'positionCoords': [245.68, 178.5], 'bid': 5.95}, {'imgObject': {}, 'id': 'seaweed', 'src': '/static/foodstim60/seaweed.jpg', 'key': 'i', 'origWidth': 410, 'origHeight': 410, 'width': 410, 'height': 410, 'widthPercent': 0.45, 'rescaleHeight': False, 'trialN': 46, 'loaded': True, 'loadedTime': 7270.800000000745, 'positionName': 'RIGHT', 'positionCoords': [710.32, 179], 'bid': 6.28}]",62381.70000000298,1669832015498,grilled chicken strips,seaweed,5.95,6.28,0.33000000000000007,seaweed,644.3999999985099,648,648.0999999977648,True,i,63547.10000000149,1165.3999999985099,1669832016663,1165,HRV,HRV_0116,2022-11-30 18:16:03
47,"[{'imgObject': {}, 'id': 'olives', 'src': '/static/foodstim60/olives.jpg', 'key': 'u', 'origWidth': 410, 'origHeight': 410, 'width': 410, 'height': 410, 'widthPercent': 0.45, 'rescaleHeight': False, 'trialN': 47, 'loaded': True, 'loadedTime': 6885.900000002235, 'positionName': 'LEFT', 'positionCoords': [245.68, 179], 'bid': 6.21}, {'imgObject': {}, 'id': 'chickenfingers', 'src': '/static/foodstim60/chickenfingers.jpg', 'key': 'i', 'origWidth': 410, 'origHeight': 410, 'width': 410, 'height': 410, 'widthPercent': 0.45, 'rescaleHeight': False, 'trialN': 47, 'loaded': True, 'loadedTime': 7749, 'positionName': 'RIGHT', 'positionCoords': [710.32, 179], 'bid': 6.5200000000000005}]",63547.900000002235,1669832016664,olives,chickenfingers,6.21,6.5200000000000005,0.3100000000000005,olives,429.5,432,432.8999999985099,True,u,64487.0,939.0999999977648,1669832017603,939,HRV,HRV_0116,2022-11-30 18:16:03
48,"[{'imgObject': {}, 'id': 'raisin bran w milk', 'src': '/static/foodstim60/raisin bran w milk.jpg', 'key': 'u', 'origWidth': 411, 'origHeight': 411, 'width': 411, 'height': 411, 'widthPercent': 0.45, 'rescaleHeight': False, 'trialN': 48, 'loaded': True, 'loadedTime': 7466, 'positionName': 'LEFT', 'positionCoords': [244.68, 178.5], 'bid': 7.98}, {'imgObject': {}, 'id': 'salmon', 'src': '/static/foodstim60/salmon.jpg', 'key': 'i', 'origWidth': 410, 'origHeight': 409, 'width': 410, 'height': 409, 'widthPercent': 0.45, 'rescaleHeight': False, 'trialN': 48, 'loaded': True, 'loadedTime': 7796.900000002235, 'positionName': 'RIGHT', 'positionCoords': [710.32, 179.5], 'bid': 7.54}]",64488.10000000149,1669832017604,raisin bran w milk,salmon,7.98,7.54,-0.4400000000000004,salmon,634.3000000007451,638,638.0,True,i,65637.80000000075,1149.699999999255,1669832018754,1150,HRV,HRV_0116,2022-11-30 18:16:03
49,"[{'imgObject': {}, 'id': 'corn cob', 'src': '/static/foodstim60/corn cob.jpg', 'key': 'u', 'origWidth': 411, 'origHeight': 411, 'width': 411, 'height': 411, 'widthPercent': 0.45, 'rescaleHeight': False, 'trialN': 49, 'loaded': True, 'loadedTime': 7364.70000000298, 'positionName': 'LEFT', 'positionCoords': [244.68, 178.5], 'bid': 4.54}, {'imgObject': {}, 'id': 'omelette', 'src': '/static/foodstim60/omelette.jpg', 'key': 'i', 'origWidth': 410, 'origHeight': 409, 'width': 410, 'height': 409, 'widthPercent': 0.45, 'rescaleHeight': False, 'trialN': 49, 'loaded': True, 'loadedTime': 7616.400000002235, 'positionName': 'RIGHT', 'positionCoords': [710.32, 179.5], 'bid': 3.21}]",65638.40000000224,1669832018754,corn cob,omelette,4.54,3.21,-1.33,corn cob,675.3000000007451,694,694.0999999977648,True,u,66835.70000000298,1197.300000000745,1669832019952,1198,HRV,HRV_0116,2022-11-30 18:16:03
50,"[{'imgObject': {}, 'id': 'eggs', 'src': '/static/foodstim60/eggs.jpg', 'key': 'u', 'origWidth': 409, 'origHeight': 409, 'width': 409, 'height': 409, 'widthPercent': 0.45, 'rescaleHeight': False, 'trialN': 50, 'loaded': True, 'loadedTime': 7803.800000000745, 'positionName': 'LEFT', 'positionCoords': [246.68, 179.5], 'bid': 8.96}, {'imgObject': {}, 'id': 'yogurt no spoon', 'src': '/static/foodstim60/yogurt no spoon.jpg', 'key': 'i', 'origWidth': 411, 'origHeight': 410, 'width': 411, 'height': 410, 'widthPercent': 0.45, 'rescaleHeight': False, 'trialN': 50, 'loaded': True, 'loadedTime': 7555.300000000745, 'positionName': 'RIGHT', 'positionCoords': [710.32, 179], 'bid': 8.51}]",66836.5,1669832019952,eggs,yogurt no spoon,8.96,8.51,-0.45000000000000107,yogurt no spoon,508.6000000014901,511,510.4000000022352,True,i,67849.40000000224,1012.9000000022352,1669832020965,1013,HRV,HRV_0116,2022-11-30 18:16:03
51,"[{'imgObject': {}, 'id': 'veggieswithdip', 'src': '/static/foodstim60/veggieswithdip.jpg', 'key': 'u', 'origWidth': 409, 'origHeight': 409, 'width': 409, 'height': 409, 'widthPercent': 0.45, 'rescaleHeight': False, 'trialN': 51, 'loaded': True, 'loadedTime': 7810.10000000149, 'positionName': 'LEFT', 'positionCoords': [246.68, 179.5], 'bid': 6.66}, {'imgObject': {}, 'id': 'salmon', 'src': '/static/foodstim60/salmon.jpg', 'key': 'i', 'origWidth': 410, 'origHeight': 409, 'width': 410, 'height': 409, 'widthPercent': 0.45, 'rescaleHeight': False, 'trialN': 51, 'loaded': True, 'loadedTime': 7797.400000002235, 'positionName': 'RIGHT', 'positionCoords': [710.32, 179.5], 'bid': 7.54}]",67849.90000000224,1669832020966,veggieswithdip,salmon,6.66,7.54,0.8799999999999999,salmon,1047.5999999977648,1051,1051.0999999977648,True,i,69421.80000000075,1571.8999999985099,1669832022538,1572,HRV,HRV_0116,2022-11-30 18:16:03
52,"[{'imgObject': {}, 'id': 'salad w chicken', 'src': '/static/foodstim60/salad w chicken.jpg', 'key': 'u', 'origWidth': 411, 'origHeight': 411, 'width': 411, 'height': 411, 'widthPercent': 0.45, 'rescaleHeight': False, 'trialN': 52, 'loaded': True, 'loadedTime': 7722, 'positionName': 'LEFT', 'positionCoords': [244.68, 178.5], 'bid': 8.64}, {'imgObject': {}, 'id': 'banana', 'src': '/static/foodstim60/banana.jpg', 'key': 'i', 'origWidth': 410, 'origHeight': 410, 'width': 410, 'height': 410, 'widthPercent': 0.45, 'rescaleHeight': False, 'trialN': 52, 'loaded': True, 'loadedTime': 7524.400000002235, 'positionName': 'RIGHT', 'positionCoords': [710.32, 179], 'bid': 8.08}]",69422.60000000149,1669832022538,salad w chicken,banana,8.64,8.08,-0.5600000000000005,salad w chicken,465.8999999985099,470,469.30000000074506,True,u,70415.60000000149,993.0,1669832023531,993,HRV,HRV_0116,2022-11-30 18:16:03
53,"[{'imgObject': {}, 'id': 'veggieswithdip', 'src': '/static/foodstim60/veggieswithdip.jpg', 'key': 'u', 'origWidth': 409, 'origHeight': 409, 'width': 409, 'height': 409, 'widthPercent': 0.45, 'rescaleHeight': False, 'trialN': 53, 'loaded': True, 'loadedTime': 7809.20000000298, 'positionName': 'LEFT', 'positionCoords': [246.68, 179.5], 'bid': 6.66}, {'imgObject': {}, 'id': 'Grapes', 'src': '/static/foodstim60/Grapes.jpg', 'key': 'i', 'origWidth': 411, 'origHeight': 411, 'width': 411, 'height': 411, 'widthPercent': 0.45, 'rescaleHeight': False, 'trialN': 53, 'loaded': True, 'loadedTime': 7815.5, 'positionName': 'RIGHT', 'positionCoords': [710.32, 178.5], 'bid': 4.7}]",70416.0,1669832023532,veggieswithdip,Grapes,6.66,4.7,-1.96,Grapes,425.1000000014901,429,428.80000000074506,True,i,71347.40000000224,931.4000000022352,1669832024463,931,HRV,HRV_0116,2022-11-30 18:16:03
54,"[{'imgObject': {}, 'id': 'mashed potato', 'src': '/static/foodstim60/mashed potato.jpg', 'key': 'u', 'origWidth': 409, 'origHeight': 409, 'width': 409, 'height': 409, 'widthPercent': 0.45, 'rescaleHeight': False, 'trialN': 54, 'loaded': True, 'loadedTime': 7234.900000002235, 'positionName': 'LEFT', 'positionCoords': [246.68, 179.5], 'bid': 6.17}, {'imgObject': {}, 'id': 'blackbeanswithrice', 'src': '/static/foodstim60/blackbeanswithrice.jpg', 'key': 'i', 'origWidth': 410, 'origHeight': 410, 'width': 410, 'height': 410, 'widthPercent': 0.45, 'rescaleHeight': False, 'trialN': 54, 'loaded': True, 'loadedTime': 7422, 'positionName': 'RIGHT', 'positionCoords': [710.32, 179], 'bid': 5.29}]",71348.10000000149,1669832024464,mashed potato,blackbeanswithrice,6.17,5.29,-0.8799999999999999,mashed potato,412.1000000014901,416,415.80000000074506,True,u,72266.60000000149,918.5,1669832025382,918,HRV,HRV_0116,2022-11-30 18:16:03
55,"[{'imgObject': {}, 'id': 'rigatoni and sauce', 'src': '/static/foodstim60/rigatoni and sauce.jpg', 'key': 'u', 'origWidth': 410, 'origHeight': 411, 'width': 410, 'height': 411, 'widthPercent': 0.45, 'rescaleHeight': False, 'trialN': 55, 'loaded': True, 'loadedTime': 7252.900000002235, 'positionName': 'LEFT', 'positionCoords': [245.68, 178.5], 'bid': 7.43}, {'imgObject': {}, 'id': 'hashbrowns', 'src': '/static/foodstim60/hashbrowns.jpg', 'key': 'i', 'origWidth': 411, 'origHeight': 410, 'width': 411, 'height': 410, 'widthPercent': 0.45, 'rescaleHeight': False, 'trialN': 55, 'loaded': True, 'loadedTime': 7440.300000000745, 'positionName': 'RIGHT', 'positionCoords': [710.32, 179], 'bid': 7.48}]",72267.10000000149,1669832025383,rigatoni and sauce,hashbrowns,7.43,7.48,0.05000000000000071,hashbrowns,389.69999999925494,393,393.3999999985099,True,i,73168.0,900.8999999985099,1669832026284,901,HRV,HRV_0116,2022-11-30 18:16:03
56,"[{'imgObject': {}, 'id': 'chicken nuggets2', 'src': '/static/foodstim60/chicken nuggets2.jpg', 'key': 'u', 'origWidth': 410, 'origHeight': 409, 'width': 410, 'height': 409, 'widthPercent': 0.45, 'rescaleHeight': False, 'trialN': 56, 'loaded': True, 'loadedTime': 7283.60000000149, 'positionName': 'LEFT', 'positionCoords': [245.68, 179.5], 'bid': 8.57}, {'imgObject': {}, 'id': 'cherry tomato', 'src': '/static/foodstim60/cherry tomato.jpg', 'key': 'i', 'origWidth': 410, 'origHeight': 410, 'width': 410, 'height': 410, 'widthPercent': 0.45, 'rescaleHeight': False, 'trialN': 56, 'loaded': True, 'loadedTime': 7621.400000002235, 'positionName': 'RIGHT', 'positionCoords': [710.32, 179], 'bid': 7.98}]",73168.60000000149,1669832026284,chicken nuggets2,cherry tomato,8.57,7.98,-0.5899999999999999,chicken nuggets2,631.6000000014901,634,633.5,True,u,74309.30000000075,1140.699999999255,1669832027425,1141,HRV,HRV_0116,2022-11-30 18:16:03
57,"[{'imgObject': {}, 'id': 'chickenfingers', 'src': '/static/foodstim60/chickenfingers.jpg', 'key': 'u', 'origWidth': 410, 'origHeight': 410, 'width': 410, 'height': 410, 'widthPercent': 0.45, 'rescaleHeight': False, 'trialN': 57, 'loaded': True, 'loadedTime': 7752.300000000745, 'positionName': 'LEFT', 'positionCoords': [245.68, 179], 'bid': 6.5200000000000005}, {'imgObject': {}, 'id': 'Tribe humus pita', 'src': '/static/foodstim60/Tribe humus pita.jpg', 'key': 'i', 'origWidth': 411, 'origHeight': 411, 'width': 411, 'height': 411, 'widthPercent': 0.45, 'rescaleHeight': False, 'trialN': 57, 'loaded': True, 'loadedTime': 7396.70000000298, 'positionName': 'RIGHT', 'positionCoords': [710.32, 178.5], 'bid': 5.95}]",74310.40000000224,1669832027426,chickenfingers,Tribe humus pita,6.5200000000000005,5.95,-0.5700000000000003,Tribe humus pita,498.19999999925494,502,501.8999999985099,True,i,75319.0,1008.5999999977648,1669832028435,1009,HRV,HRV_0116,2022-11-30 18:16:03
58,"[{'imgObject': {}, 'id': 'froot loops w milk', 'src': '/static/foodstim60/froot loops w milk.jpg', 'key': 'u', 'origWidth': 410, 'origHeight': 410, 'width': 410, 'height': 410, 'widthPercent': 0.45, 'rescaleHeight': False, 'trialN': 58, 'loaded': True, 'loadedTime': 7785, 'positionName': 'LEFT', 'positionCoords': [245.68, 179], 'bid': 8.61}, {'imgObject': {}, 'id': 'raspberries', 'src': '/static/foodstim60/raspberries.jpg', 'key': 'i', 'origWidth': 411, 'origHeight': 411, 'width': 411, 'height': 411, 'widthPercent': 0.45, 'rescaleHeight': False, 'trialN': 58, 'loaded': True, 'loadedTime': 7759.800000000745, 'positionName': 'RIGHT', 'positionCoords': [710.32, 178.5], 'bid': 8.08}]",75319.5,1669832028435,froot loops w milk,raspberries,8.61,8.08,-0.5299999999999994,froot loops w milk,455.70000000298023,457,457.0,True,u,76295.70000000298,976.2000000029802,1669832029412,977,HRV,HRV_0116,2022-11-30 18:16:03
59,"[{'imgObject': {}, 'id': 'cherry tomato', 'src': '/static/foodstim60/cherry tomato.jpg', 'key': 'u', 'origWidth': 410, 'origHeight': 410, 'width': 410, 'height': 410, 'widthPercent': 0.45, 'rescaleHeight': False, 'trialN': 59, 'loaded': True, 'loadedTime': 7622, 'positionName': 'LEFT', 'positionCoords': [245.68, 179], 'bid': 7.98}, {'imgObject': {}, 'id': 'eggs', 'src': '/static/foodstim60/eggs.jpg', 'key': 'i', 'origWidth': 409, 'origHeight': 409, 'width': 409, 'height': 409, 'widthPercent': 0.45, 'rescaleHeight': False, 'trialN': 59, 'loaded': True, 'loadedTime': 7803.60000000149, 'positionName': 'RIGHT', 'positionCoords': [710.32, 179.5], 'bid': 8.96}]",76296.20000000298,1669832029412,cherry tomato,eggs,7.98,8.96,0.9800000000000004,eggs,271.0,273,272.5999999977648,True,i,77077.90000000224,781.6999999992549,1669832030194,782,HRV,HRV_0116,2022-11-30 18:16:03
60,"[{'imgObject': {}, 'id': 'veggieswithdip', 'src': '/static/foodstim60/veggieswithdip.jpg', 'key': 'u', 'origWidth': 409, 'origHeight': 409, 'width': 409, 'height': 409, 'widthPercent': 0.45, 'rescaleHeight': False, 'trialN': 60, 'loaded': True, 'loadedTime': 7804, 'positionName': 'LEFT', 'positionCoords': [246.68, 179.5], 'bid': 6.66}, {'imgObject': {}, 'id': 'apple slices', 'src': '/static/foodstim60/apple slices.jpg', 'key': 'i', 'origWidth': 409, 'origHeight': 410, 'width': 409, 'height': 410, 'widthPercent': 0.45, 'rescaleHeight': False, 'trialN': 60, 'loaded': True, 'loadedTime': 7155.400000002235, 'positionName': 'RIGHT', 'positionCoords': [710.32, 179], 'bid': 7.12}]",77078.80000000075,1669832030194,veggieswithdip,apple slices,6.66,7.12,0.45999999999999996,veggieswithdip,560.6999999992549,565,564.1000000014901,True,u,78150.70000000298,1071.9000000022352,1669832031266,1072,HRV,HRV_0116,2022-11-30 18:16:03
61,"[{'imgObject': {}, 'id': 'blueberries', 'src': '/static/foodstim60/blueberries.jpg', 'key': 'u', 'origWidth': 411, 'origHeight': 411, 'width': 411, 'height': 411, 'widthPercent': 0.45, 'rescaleHeight': False, 'trialN': 61, 'loaded': True, 'loadedTime': 7536, 'positionName': 'LEFT', 'positionCoords': [244.68, 178.5], 'bid': 8.26}, {'imgObject': {}, 'id': 'raspberries', 'src': '/static/foodstim60/raspberries.jpg', 'key': 'i', 'origWidth': 411, 'origHeight': 411, 'width': 411, 'height': 411, 'widthPercent': 0.45, 'rescaleHeight': False, 'trialN': 61, 'loaded': True, 'loadedTime': 7762.300000000745, 'positionName': 'RIGHT', 'positionCoords': [710.32, 178.5], 'bid': 8.08}]",78151.10000000149,1669832031267,blueberries,raspberries,8.26,8.08,-0.17999999999999972,raspberries,729.0,733,732.6000000014901,True,i,79386.10000000149,1235.0,1669832032502,1235,HRV,HRV_0116,2022-11-30 18:16:03
62,"[{'imgObject': {}, 'id': 'granola w milk', 'src': '/static/foodstim60/granola w milk.jpg', 'key': 'u', 'origWidth': 410, 'origHeight': 410, 'width': 410, 'height': 410, 'widthPercent': 0.45, 'rescaleHeight': False, 'trialN': 62, 'loaded': True, 'loadedTime': 7816.400000002235, 'positionName': 'LEFT', 'positionCoords': [245.68, 179], 'bid': 5.13}, {'imgObject': {}, 'id': 'sushi w_condiments', 'src': '/static/foodstim60/sushi w_condiments.jpg', 'key': 'i', 'origWidth': 410, 'origHeight': 410, 'width': 410, 'height': 410, 'widthPercent': 0.45, 'rescaleHeight': False, 'trialN': 62, 'loaded': True, 'loadedTime': 7346.400000002235, 'positionName': 'RIGHT', 'positionCoords': [710.32, 179], 'bid': 5.93}]",79386.70000000298,1669832032503,granola w milk,sushi w_condiments,5.13,5.93,0.7999999999999998,granola w milk,532.3999999985099,535,535.7999999970198,True,u,80433.40000000224,1046.699999999255,1669832033549,1046,HRV,HRV_0116,2022-11-30 18:16:03
63,"[{'imgObject': {}, 'id': 'froot loops w milk', 'src': '/static/foodstim60/froot loops w milk.jpg', 'key': 'u', 'origWidth': 410, 'origHeight': 410, 'width': 410, 'height': 410, 'widthPercent': 0.45, 'rescaleHeight': False, 'trialN': 63, 'loaded': True, 'loadedTime': 7788.20000000298, 'positionName': 'LEFT', 'positionCoords': [245.68, 179], 'bid': 8.61}, {'imgObject': {}, 'id': 'chicken nuggets2', 'src': '/static/foodstim60/chicken nuggets2.jpg', 'key': 'i', 'origWidth': 410, 'origHeight': 409, 'width': 410, 'height': 409, 'widthPercent': 0.45, 'rescaleHeight': False, 'trialN': 63, 'loaded': True, 'loadedTime': 7285.400000002235, 'positionName': 'RIGHT', 'positionCoords': [710.32, 179.5], 'bid': 8.57}]",80433.90000000224,1669832033550,froot loops w milk,chicken nuggets2,8.61,8.57,-0.03999999999999915,chicken nuggets2,485.8999999985099,490,489.8999999985099,True,i,81440.80000000075,1006.8999999985099,1669832034557,1007,HRV,HRV_0116,2022-11-30 18:16:03
64,"[{'imgObject': {}, 'id': 'shreddedwheatwithmilk', 'src': '/static/foodstim60/shreddedwheatwithmilk.jpg', 'key': 'u', 'origWidth': 410, 'origHeight': 410, 'width': 410, 'height': 410, 'widthPercent': 0.45, 'rescaleHeight': False, 'trialN': 64, 'loaded': True, 'loadedTime': 7384.400000002235, 'positionName': 'LEFT', 'positionCoords': [245.68, 179], 'bid': 8.83}, {'imgObject': {}, 'id': 'luckycharms', 'src': '/static/foodstim60/luckycharms.jpg', 'key': 'i', 'origWidth': 410, 'origHeight': 409, 'width': 410, 'height': 409, 'widthPercent': 0.45, 'rescaleHeight': False, 'trialN': 64, 'loaded': True, 'loadedTime': 7316.70000000298, 'positionName': 'RIGHT', 'positionCoords': [710.32, 179.5], 'bid': 8.66}]",81441.10000000149,1669832034557,shreddedwheatwithmilk,luckycharms,8.83,8.66,-0.16999999999999993,shreddedwheatwithmilk,582.0,584,584.0,True,u,82537.70000000298,1096.6000000014901,1669832035653,1096,HRV,HRV_0116,2022-11-30 18:16:03
65,"[{'imgObject': {}, 'id': 'burrito', 'src': '/static/foodstim60/burrito.jpg', 'key': 'u', 'origWidth': 410, 'origHeight': 410, 'width': 410, 'height': 410, 'widthPercent': 0.45, 'rescaleHeight': False, 'trialN': 65, 'loaded': True, 'loadedTime': 7232.20000000298, 'positionName': 'LEFT', 'positionCoords': [245.68, 179], 'bid': 9.23}, {'imgObject': {}, 'id': 'fried eggs', 'src': '/static/foodstim60/fried eggs.jpg', 'key': 'i', 'origWidth': 410, 'origHeight': 410, 'width': 410, 'height': 410, 'widthPercent': 0.45, 'rescaleHeight': False, 'trialN': 65, 'loaded': True, 'loadedTime': 7651.10000000149, 'positionName': 'RIGHT', 'positionCoords': [710.32, 179], 'bid': 8.92}]",82538.0,1669832035654,burrito,fried eggs,9.23,8.92,-0.3100000000000005,fried eggs,349.6000000014901,353,353.30000000074506,True,i,83396.0,858.0,1669832036512,858,HRV,HRV_0116,2022-11-30 18:16:03
66,"[{'imgObject': {}, 'id': 'burger', 'src': '/static/foodstim60/burger.jpg', 'key': 'u', 'origWidth': 409, 'origHeight': 409, 'width': 409, 'height': 409, 'widthPercent': 0.45, 'rescaleHeight': False, 'trialN': 66, 'loaded': True, 'loadedTime': 7728, 'positionName': 'LEFT', 'positionCoords': [246.68, 179.5], 'bid': 5.0200000000000005}, {'imgObject': {}, 'id': 'popsicles', 'src': '/static/foodstim60/popsicles.jpg', 'key': 'i', 'origWidth': 410, 'origHeight': 410, 'width': 410, 'height': 410, 'widthPercent': 0.45, 'rescaleHeight': False, 'trialN': 66, 'loaded': True, 'loadedTime': 7862.20000000298, 'positionName': 'RIGHT', 'positionCoords': [710.32, 179], 'bid': 5}]",83396.70000000298,1669832036512,burger,popsicles,5.0200000000000005,5.0,-0.020000000000000462,burger,697.5999999977648,700,699.0999999977648,True,u,84605.0,1208.2999999970198,1669832037721,1209,HRV,HRV_0116,2022-11-30 18:16:03
67,"[{'imgObject': {}, 'id': 'hotdog w must', 'src': '/static/foodstim60/hotdog w must.jpg', 'key': 'u', 'origWidth': 409, 'origHeight': 409, 'width': 409, 'height': 409, 'widthPercent': 0.45, 'rescaleHeight': False, 'trialN': 67, 'loaded': True, 'loadedTime': 7581.20000000298, 'positionName': 'LEFT', 'positionCoords': [246.68, 179.5], 'bid': 7.29}, {'imgObject': {}, 'id': 'olives', 'src': '/static/foodstim60/olives.jpg', 'key': 'i', 'origWidth': 410, 'origHeight': 410, 'width': 410, 'height': 410, 'widthPercent': 0.45, 'rescaleHeight': False, 'trialN': 67, 'loaded': True, 'loadedTime': 6889.300000000745, 'positionName': 'RIGHT', 'positionCoords': [710.32, 179], 'bid': 6.21}]",84605.30000000075,1669832037721,hotdog w must,olives,7.29,6.21,-1.08,hotdog w must,1818.6000000014901,1822,1822.300000000745,True,u,86932.20000000298,2326.900000002235,1669832040048,2327,HRV,HRV_0116,2022-11-30 18:16:03
68,"[{'imgObject': {}, 'id': 'hotdog w must', 'src': '/static/foodstim60/hotdog w must.jpg', 'key': 'u', 'origWidth': 409, 'origHeight': 409, 'width': 409, 'height': 409, 'widthPercent': 0.45, 'rescaleHeight': False, 'trialN': 68, 'loaded': True, 'loadedTime': 7580.20000000298, 'positionName': 'LEFT', 'positionCoords': [246.68, 179.5], 'bid': 7.29}, {'imgObject': {}, 'id': 'cherries', 'src': '/static/foodstim60/cherries.jpg', 'key': 'i', 'origWidth': 410, 'origHeight': 411, 'width': 410, 'height': 411, 'widthPercent': 0.45, 'rescaleHeight': False, 'trialN': 68, 'loaded': True, 'loadedTime': 7486.60000000149, 'positionName': 'RIGHT', 'positionCoords': [710.32, 178.5], 'bid': 6.74}]",86933.0,1669832040049,hotdog w must,cherries,7.29,6.74,-0.5499999999999998,hotdog w must,425.1000000014901,427,427.0,True,u,87867.60000000149,934.6000000014901,1669832040983,934,HRV,HRV_0116,2022-11-30 18:16:03
69,"[{'imgObject': {}, 'id': 'omelette', 'src': '/static/foodstim60/omelette.jpg', 'key': 'u', 'origWidth': 410, 'origHeight': 409, 'width': 410, 'height': 409, 'widthPercent': 0.45, 'rescaleHeight': False, 'trialN': 69, 'loaded': True, 'loadedTime': 7617, 'positionName': 'LEFT', 'positionCoords': [245.68, 179.5], 'bid': 3.21}, {'imgObject': {}, 'id': 'baked potato', 'src': '/static/foodstim60/baked potato.jpg', 'key': 'i', 'origWidth': 409, 'origHeight': 410, 'width': 409, 'height': 410, 'widthPercent': 0.45, 'rescaleHeight': False, 'trialN': 69, 'loaded': True, 'loadedTime': 7180.900000002235, 'positionName': 'RIGHT', 'positionCoords': [710.32, 179], 'bid': 5.11}]",87868.10000000149,1669832040984,omelette,baked potato,3.21,5.11,1.9000000000000004,omelette,578.1999999992549,580,580.1000000014901,True,u,88955.30000000075,1087.199999999255,1669832042071,1087,HRV,HRV_0116,2022-11-30 18:16:03
70,"[{'imgObject': {}, 'id': 'salad w chicken', 'src': '/static/foodstim60/salad w chicken.jpg', 'key': 'u', 'origWidth': 411, 'origHeight': 411, 'width': 411, 'height': 411, 'widthPercent': 0.45, 'rescaleHeight': False, 'trialN': 70, 'loaded': True, 'loadedTime': 7721.5, 'positionName': 'LEFT', 'positionCoords': [244.68, 178.5], 'bid': 8.64}, {'imgObject': {}, 'id': 'strawberries', 'src': '/static/foodstim60/strawberries.jpg', 'key': 'i', 'origWidth': 410, 'origHeight': 410, 'width': 410, 'height': 410, 'widthPercent': 0.45, 'rescaleHeight': False, 'trialN': 70, 'loaded': True, 'loadedTime': 7747.300000000745, 'positionName': 'RIGHT', 'positionCoords': [710.32, 179], 'bid': 10}]",88955.80000000075,1669832042072,salad w chicken,strawberries,8.64,10.0,1.3599999999999994,strawberries,738.6999999992549,742,742.6000000014901,True,i,90204.5,1248.699999999255,1669832043320,1248,HRV,HRV_0116,2022-11-30 18:16:03
71,"[{'imgObject': {}, 'id': 'pear', 'src': '/static/foodstim60/pear.jpg', 'key': 'u', 'origWidth': 411, 'origHeight': 410, 'width': 411, 'height': 410, 'widthPercent': 0.45, 'rescaleHeight': False, 'trialN': 71, 'loaded': True, 'loadedTime': 7610.10000000149, 'positionName': 'LEFT', 'positionCoords': [244.68, 179], 'bid': 9.14}, {'imgObject': {}, 'id': 'fruitsalad', 'src': '/static/foodstim60/fruitsalad.jpg', 'key': 'i', 'origWidth': 410, 'origHeight': 410, 'width': 410, 'height': 410, 'widthPercent': 0.45, 'rescaleHeight': False, 'trialN': 71, 'loaded': True, 'loadedTime': 7571.5, 'positionName': 'RIGHT', 'positionCoords': [710.32, 179], 'bid': 8.96}]",90205.0,1669832043321,pear,fruitsalad,9.14,8.96,-0.17999999999999972,pear,537.0,539,539.1000000014901,True,u,91257.90000000224,1052.9000000022352,1669832044374,1053,HRV,HRV_0116,2022-11-30 18:16:03
72,"[{'imgObject': {}, 'id': 'omelette', 'src': '/static/foodstim60/omelette.jpg', 'key': 'u', 'origWidth': 410, 'origHeight': 409, 'width': 410, 'height': 409, 'widthPercent': 0.45, 'rescaleHeight': False, 'trialN': 72, 'loaded': True, 'loadedTime': 7615.70000000298, 'positionName': 'LEFT', 'positionCoords': [245.68, 179.5], 'bid': 3.21}, {'imgObject': {}, 'id': 'rigatoni and sauce', 'src': '/static/foodstim60/rigatoni and sauce.jpg', 'key': 'i', 'origWidth': 410, 'origHeight': 411, 'width': 410, 'height': 411, 'widthPercent': 0.45, 'rescaleHeight': False, 'trialN': 72, 'loaded': True, 'loadedTime': 7265.300000000745, 'positionName': 'RIGHT', 'positionCoords': [710.32, 178.5], 'bid': 7.43}]",91258.40000000224,1669832044374,omelette,rigatoni and sauce,3.21,7.43,4.22,omelette,524.6999999992549,529,528.6999999992549,True,u,92294.10000000149,1035.699999999255,1669832045410,1036,HRV,HRV_0116,2022-11-30 18:16:03
73,"[{'imgObject': {}, 'id': 'grilled chicken strips', 'src': '/static/foodstim60/grilled chicken strips.jpg', 'key': 'u', 'origWidth': 410, 'origHeight': 411, 'width': 410, 'height': 411, 'widthPercent': 0.45, 'rescaleHeight': False, 'trialN': 73, 'loaded': True, 'loadedTime': 7414.800000000745, 'positionName': 'LEFT', 'positionCoords': [245.68, 178.5], 'bid': 5.95}, {'imgObject': {}, 'id': 'roastedpotatoes', 'src': '/static/foodstim60/roastedpotatoes.jpg', 'key': 'i', 'origWidth': 409, 'origHeight': 410, 'width': 409, 'height': 410, 'widthPercent': 0.45, 'rescaleHeight': False, 'trialN': 73, 'loaded': True, 'loadedTime': 6942.400000002235, 'positionName': 'RIGHT', 'positionCoords': [710.32, 179], 'bid': 3.69}]",92294.60000000149,1669832045410,grilled chicken strips,roastedpotatoes,5.95,3.69,-2.2600000000000002,roastedpotatoes,471.3999999985099,476,475.19999999925494,True,i,93278.90000000224,984.3000000007451,1669832046395,985,HRV,HRV_0116,2022-11-30 18:16:03
74,"[{'imgObject': {}, 'id': 'grilled chicken strips', 'src': '/static/foodstim60/grilled chicken strips.jpg', 'key': 'u', 'origWidth': 410, 'origHeight': 411, 'width': 410, 'height': 411, 'widthPercent': 0.45, 'rescaleHeight': False, 'trialN': 74, 'loaded': True, 'loadedTime': 7403.900000002235, 'positionName': 'LEFT', 'positionCoords': [245.68, 178.5], 'bid': 5.95}, {'imgObject': {}, 'id': 'cheerios', 'src': '/static/foodstim60/cheerios.jpg', 'key': 'i', 'origWidth': 409, 'origHeight': 410, 'width': 409, 'height': 410, 'widthPercent': 0.45, 'rescaleHeight': False, 'trialN': 74, 'loaded': True, 'loadedTime': 7716, 'positionName': 'RIGHT', 'positionCoords': [710.32, 179], 'bid': 8.790000000000001}]",93279.30000000075,1669832046395,grilled chicken strips,cheerios,5.95,8.790000000000001,2.8400000000000007,grilled chicken strips,502.30000000074506,504,504.1000000014901,True,u,94291.80000000075,1012.5,1669832047408,1013,HRV,HRV_0116,2022-11-30 18:16:03
75,"[{'imgObject': {}, 'id': 'raspberries', 'src': '/static/foodstim60/raspberries.jpg', 'key': 'u', 'origWidth': 411, 'origHeight': 411, 'width': 411, 'height': 411, 'widthPercent': 0.45, 'rescaleHeight': False, 'trialN': 75, 'loaded': True, 'loadedTime': 7762.60000000149, 'positionName': 'LEFT', 'positionCoords': [244.68, 178.5], 'bid': 8.08}, {'imgObject': {}, 'id': 'sweetpotato', 'src': '/static/foodstim60/sweetpotato.jpg', 'key': 'i', 'origWidth': 410, 'origHeight': 410, 'width': 410, 'height': 410, 'widthPercent': 0.45, 'rescaleHeight': False, 'trialN': 75, 'loaded': True, 'loadedTime': 7845.800000000745, 'positionName': 'RIGHT', 'positionCoords': [710.32, 179], 'bid': 4.41}]",94292.20000000298,1669832047408,raspberries,sweetpotato,8.08,4.41,-3.67,sweetpotato,625.1999999992549,627,627.1999999992549,True,i,95438.20000000298,1146.0,1669832048554,1146,HRV,HRV_0116,2022-11-30 18:16:03
76,"[{'imgObject': {}, 'id': 'chickenfingers', 'src': '/static/foodstim60/chickenfingers.jpg', 'key': 'u', 'origWidth': 410, 'origHeight': 410, 'width': 410, 'height': 410, 'widthPercent': 0.45, 'rescaleHeight': False, 'trialN': 76, 'loaded': True, 'loadedTime': 7752.800000000745, 'positionName': 'LEFT', 'positionCoords': [245.68, 179], 'bid': 6.5200000000000005}, {'imgObject': {}, 'id': 'seaweed', 'src': '/static/foodstim60/seaweed.jpg', 'key': 'i', 'origWidth': 410, 'origHeight': 410, 'width': 410, 'height': 410, 'widthPercent': 0.45, 'rescaleHeight': False, 'trialN': 76, 'loaded': True, 'loadedTime': 7271.60000000149, 'positionName': 'RIGHT', 'positionCoords': [710.32, 179], 'bid': 6.28}]",95438.70000000298,1669832048554,chickenfingers,seaweed,6.5200000000000005,6.28,-0.2400000000000002,chickenfingers,510.79999999701977,513,512.5999999977648,True,u,96460.80000000075,1022.0999999977648,1669832049577,1023,HRV,HRV_0116,2022-11-30 18:16:03
77,"[{'imgObject': {}, 'id': 'granola w milk', 'src': '/static/foodstim60/granola w milk.jpg', 'key': 'u', 'origWidth': 410, 'origHeight': 410, 'width': 410, 'height': 410, 'widthPercent': 0.45, 'rescaleHeight': False, 'trialN': 77, 'loaded': True, 'loadedTime': 7838.20000000298, 'positionName': 'LEFT', 'positionCoords': [245.68, 179], 'bid': 5.13}, {'imgObject': {}, 'id': 'baked potato', 'src': '/static/foodstim60/baked potato.jpg', 'key': 'i', 'origWidth': 409, 'origHeight': 410, 'width': 409, 'height': 410, 'widthPercent': 0.45, 'rescaleHeight': False, 'trialN': 77, 'loaded': True, 'loadedTime': 7181.400000002235, 'positionName': 'RIGHT', 'positionCoords': [710.32, 179], 'bid': 5.11}]",96461.30000000075,1669832049577,granola w milk,baked potato,5.13,5.11,-0.019999999999999574,granola w milk,823.5,825,824.6999999992549,True,u,97801.20000000298,1339.9000000022352,1669832050917,1340,HRV,HRV_0116,2022-11-30 18:16:03
78,"[{'imgObject': {}, 'id': 'turkeysandwich', 'src': '/static/foodstim60/turkeysandwich.jpg', 'key': 'u', 'origWidth': 409, 'origHeight': 409, 'width': 409, 'height': 409, 'widthPercent': 0.45, 'rescaleHeight': False, 'trialN': 78, 'loaded': True, 'loadedTime': 7347.5, 'positionName': 'LEFT', 'positionCoords': [246.68, 179.5], 'bid': 9.31}, {'imgObject': {}, 'id': 'chicken nuggets2', 'src': '/static/foodstim60/chicken nuggets2.jpg', 'key': 'i', 'origWidth': 410, 'origHeight': 409, 'width': 410, 'height': 409, 'widthPercent': 0.45, 'rescaleHeight': False, 'trialN': 78, 'loaded': True, 'loadedTime': 7272.20000000298, 'positionName': 'RIGHT', 'positionCoords': [710.32, 179.5], 'bid': 8.57}]",97801.60000000149,1669832050917,turkeysandwich,chicken nuggets2,9.31,8.57,-0.7400000000000002,chicken nuggets2,651.1999999992549,655,654.5,True,i,98977.90000000224,1176.300000000745,1669832052094,1177,HRV,HRV_0116,2022-11-30 18:16:03
79,"[{'imgObject': {}, 'id': 'raisin bran w milk', 'src': '/static/foodstim60/raisin bran w milk.jpg', 'key': 'u', 'origWidth': 411, 'origHeight': 411, 'width': 411, 'height': 411, 'widthPercent': 0.45, 'rescaleHeight': False, 'trialN': 79, 'loaded': True, 'loadedTime': 7466.800000000745, 'positionName': 'LEFT', 'positionCoords': [244.68, 178.5], 'bid': 7.98}, {'imgObject': {}, 'id': 'kiwi', 'src': '/static/foodstim60/kiwi.jpg', 'key': 'i', 'origWidth': 410, 'origHeight': 410, 'width': 410, 'height': 410, 'widthPercent': 0.45, 'rescaleHeight': False, 'trialN': 79, 'loaded': True, 'loadedTime': 7841.70000000298, 'positionName': 'RIGHT', 'positionCoords': [710.32, 179], 'bid': 6.97}]",98978.30000000075,1669832052094,raisin bran w milk,kiwi,7.98,6.97,-1.0100000000000007,raisin bran w milk,523.1000000014901,527,526.8000000007451,True,u,100013.30000000075,1035.0,1669832053129,1035,HRV,HRV_0116,2022-11-30 18:16:03
80,"[{'imgObject': {}, 'id': 'strawberries', 'src': '/static/foodstim60/strawberries.jpg', 'key': 'u', 'origWidth': 410, 'origHeight': 410, 'width': 410, 'height': 410, 'widthPercent': 0.45, 'rescaleHeight': False, 'trialN': 80, 'loaded': True, 'loadedTime': 7747.800000000745, 'positionName': 'LEFT', 'positionCoords': [245.68, 179], 'bid': 10}, {'imgObject': {}, 'id': 'kiwi', 'src': '/static/foodstim60/kiwi.jpg', 'key': 'i', 'origWidth': 410, 'origHeight': 410, 'width': 410, 'height': 410, 'widthPercent': 0.45, 'rescaleHeight': False, 'trialN': 80, 'loaded': True, 'loadedTime': 7838.70000000298, 'positionName': 'RIGHT', 'positionCoords': [710.32, 179], 'bid': 6.97}]",100013.70000000298,1669832053130,strawberries,kiwi,10.0,6.97,-3.0300000000000002,kiwi,639.0,642,642.3999999985099,True,i,101169.40000000224,1155.699999999255,1669832054285,1155,HRV,HRV_0116,2022-11-30 18:16:03
81,"[{'imgObject': {}, 'id': 'salad w chicken', 'src': '/static/foodstim60/salad w chicken.jpg', 'key': 'u', 'origWidth': 411, 'origHeight': 411, 'width': 411, 'height': 411, 'widthPercent': 0.45, 'rescaleHeight': False, 'trialN': 81, 'loaded': True, 'loadedTime': 7721.10000000149, 'positionName': 'LEFT', 'positionCoords': [244.68, 178.5], 'bid': 8.64}, {'imgObject': {}, 'id': 'cheerios', 'src': '/static/foodstim60/cheerios.jpg', 'key': 'i', 'origWidth': 409, 'origHeight': 410, 'width': 409, 'height': 410, 'widthPercent': 0.45, 'rescaleHeight': False, 'trialN': 81, 'loaded': True, 'loadedTime': 7712.5, 'positionName': 'RIGHT', 'positionCoords': [710.32, 179], 'bid': 8.790000000000001}]",101169.80000000075,1669832054286,salad w chicken,cheerios,8.64,8.790000000000001,0.15000000000000036,salad w chicken,674.4000000022352,677,677.8000000007451,True,u,102359.5,1189.699999999255,1669832055475,1189,HRV,HRV_0116,2022-11-30 18:16:03
82,"[{'imgObject': {}, 'id': 'turkeysandwich', 'src': '/static/foodstim60/turkeysandwich.jpg', 'key': 'u', 'origWidth': 409, 'origHeight': 409, 'width': 409, 'height': 409, 'widthPercent': 0.45, 'rescaleHeight': False, 'trialN': 82, 'loaded': True, 'loadedTime': 7361.70000000298, 'positionName': 'LEFT', 'positionCoords': [246.68, 179.5], 'bid': 9.31}, {'imgObject': {}, 'id': 'avocado', 'src': '/static/foodstim60/avocado.jpg', 'key': 'i', 'origWidth': 409, 'origHeight': 409, 'width': 409, 'height': 409, 'widthPercent': 0.45, 'rescaleHeight': False, 'trialN': 82, 'loaded': True, 'loadedTime': 7502.60000000149, 'positionName': 'RIGHT', 'positionCoords': [710.32, 179.5], 'bid': 6.93}]",102359.90000000224,1669832055476,turkeysandwich,avocado,9.31,6.93,-2.380000000000001,avocado,756.8999999985099,761,760.8000000007451,True,i,103625.80000000075,1265.8999999985099,1669832056742,1266,HRV,HRV_0116,2022-11-30 18:16:03
83,"[{'imgObject': {}, 'id': 'raisin bran w milk', 'src': '/static/foodstim60/raisin bran w milk.jpg', 'key': 'u', 'origWidth': 411, 'origHeight': 411, 'width': 411, 'height': 411, 'widthPercent': 0.45, 'rescaleHeight': False, 'trialN': 83, 'loaded': True, 'loadedTime': 7466.400000002235, 'positionName': 'LEFT', 'positionCoords': [244.68, 178.5], 'bid': 7.98}, {'imgObject': {}, 'id': 'steak', 'src': '/static/foodstim60/steak.jpg', 'key': 'i', 'origWidth': 410, 'origHeight': 410, 'width': 410, 'height': 410, 'widthPercent': 0.45, 'rescaleHeight': False, 'trialN': 83, 'loaded': True, 'loadedTime': 7291.10000000149, 'positionName': 'RIGHT', 'positionCoords': [710.32, 179], 'bid': 3.68}]",103626.20000000298,1669832056742,raisin bran w milk,steak,7.98,3.68,-4.300000000000001,raisin bran w milk,761.7999999970198,764,763.7999999970198,True,u,104905.60000000149,1279.3999999985099,1669832058021,1279,HRV,HRV_0116,2022-11-30 18:16:03
84,"[{'imgObject': {}, 'id': 'banana', 'src': '/static/foodstim60/banana.jpg', 'key': 'u', 'origWidth': 410, 'origHeight': 410, 'width': 410, 'height': 410, 'widthPercent': 0.45, 'rescaleHeight': False, 'trialN': 84, 'loaded': True, 'loadedTime': 7525.5, 'positionName': 'LEFT', 'positionCoords': [245.68, 179], 'bid': 8.08}, {'imgObject': {}, 'id': 'cherry tomato', 'src': '/static/foodstim60/cherry tomato.jpg', 'key': 'i', 'origWidth': 410, 'origHeight': 410, 'width': 410, 'height': 410, 'widthPercent': 0.45, 'rescaleHeight': False, 'trialN': 84, 'loaded': True, 'loadedTime': 7622.70000000298, 'positionName': 'RIGHT', 'positionCoords': [710.32, 179], 'bid': 7.98}]",104905.90000000224,1669832058022,banana,cherry tomato,8.08,7.98,-0.09999999999999964,cherry tomato,778.3000000007451,782,782.0,True,i,106199.30000000075,1293.3999999985099,1669832059315,1293,HRV,HRV_0116,2022-11-30 18:16:03
85,"[{'imgObject': {}, 'id': 'edamame', 'src': '/static/foodstim60/edamame.jpg', 'key': 'u', 'origWidth': 409, 'origHeight': 410, 'width': 409, 'height': 410, 'widthPercent': 0.45, 'rescaleHeight': False, 'trialN': 85, 'loaded': True, 'loadedTime': 7684, 'positionName': 'LEFT', 'positionCoords': [246.68, 179], 'bid': 8.3}, {'imgObject': {}, 'id': 'ice cream sundae 002', 'src': '/static/foodstim60/ice cream sundae 002.jpg', 'key': 'i', 'origWidth': 409, 'origHeight': 409, 'width': 409, 'height': 409, 'widthPercent': 0.45, 'rescaleHeight': False, 'trialN': 85, 'loaded': True, 'loadedTime': 7651.300000000745, 'positionName': 'RIGHT', 'positionCoords': [710.32, 179.5], 'bid': 9.23}]",106199.70000000298,1669832059315,edamame,ice cream sundae 002,8.3,9.23,0.9299999999999997,ice cream sundae 002,860.5,855,864.1999999992549,True,i,107581.0,1381.2999999970198,1669832060687,1372,HRV,HRV_0116,2022-11-30 18:16:03
86,"[{'imgObject': {}, 'id': 'ice cream sundae 002', 'src': '/static/foodstim60/ice cream sundae 002.jpg', 'key': 'u', 'origWidth': 409, 'origHeight': 409, 'width': 409, 'height': 409, 'widthPercent': 0.45, 'rescaleHeight': False, 'trialN': 86, 'loaded': True, 'loadedTime': 7656, 'positionName': 'LEFT', 'positionCoords': [246.68, 179.5], 'bid': 9.23}, {'imgObject': {}, 'id': 'luckycharms', 'src': '/static/foodstim60/luckycharms.jpg', 'key': 'i', 'origWidth': 410, 'origHeight': 409, 'width': 410, 'height': 409, 'widthPercent': 0.45, 'rescaleHeight': False, 'trialN': 86, 'loaded': True, 'loadedTime': 7339.800000000745, 'positionName': 'RIGHT', 'positionCoords': [710.32, 179.5], 'bid': 8.66}]",107582.0,1669832060688,ice cream sundae 002,luckycharms,9.23,8.66,-0.5700000000000003,ice cream sundae 002,766.8000000007451,771,770.5,True,u,108863.80000000075,1281.800000000745,1669832061970,1282,HRV,HRV_0116,2022-11-30 18:16:03
87,"[{'imgObject': {}, 'id': 'sushi w_condiments', 'src': '/static/foodstim60/sushi w_condiments.jpg', 'key': 'u', 'origWidth': 410, 'origHeight': 410, 'width': 410, 'height': 410, 'widthPercent': 0.45, 'rescaleHeight': False, 'trialN': 87, 'loaded': True, 'loadedTime': 7346.900000002235, 'positionName': 'LEFT', 'positionCoords': [245.68, 179], 'bid': 5.93}, {'imgObject': {}, 'id': 'olives', 'src': '/static/foodstim60/olives.jpg', 'key': 'i', 'origWidth': 410, 'origHeight': 410, 'width': 410, 'height': 410, 'widthPercent': 0.45, 'rescaleHeight': False, 'trialN': 87, 'loaded': True, 'loadedTime': 6886.400000002235, 'positionName': 'RIGHT', 'positionCoords': [710.32, 179], 'bid': 6.21}]",108864.20000000298,1669832061971,sushi w_condiments,olives,5.93,6.21,0.28000000000000025,sushi w_condiments,611.7999999970198,615,615.6999999992549,True,u,109989.70000000298,1125.5,1669832063096,1125,HRV,HRV_0116,2022-11-30 18:16:03
88,"[{'imgObject': {}, 'id': 'kiwi', 'src': '/static/foodstim60/kiwi.jpg', 'key': 'u', 'origWidth': 410, 'origHeight': 410, 'width': 410, 'height': 410, 'widthPercent': 0.45, 'rescaleHeight': False, 'trialN': 88, 'loaded': True, 'loadedTime': 7842, 'positionName': 'LEFT', 'positionCoords': [245.68, 179], 'bid': 6.97}, {'imgObject': {}, 'id': 'hotdog w must', 'src': '/static/foodstim60/hotdog w must.jpg', 'key': 'i', 'origWidth': 409, 'origHeight': 409, 'width': 409, 'height': 409, 'widthPercent': 0.45, 'rescaleHeight': False, 'trialN': 88, 'loaded': True, 'loadedTime': 7577, 'positionName': 'RIGHT', 'positionCoords': [710.32, 179.5], 'bid': 7.29}]",109990.10000000149,1669832063097,kiwi,hotdog w must,6.97,7.29,0.3200000000000003,kiwi,513.3999999985099,517,517.1000000014901,True,u,111020.5,1030.3999999985099,1669832064127,1030,HRV,HRV_0116,2022-11-30 18:16:03
89,"[{'imgObject': {}, 'id': 'cocktailshrimp', 'src': '/static/foodstim60/cocktailshrimp.jpg', 'key': 'u', 'origWidth': 410, 'origHeight': 410, 'width': 410, 'height': 410, 'widthPercent': 0.45, 'rescaleHeight': False, 'trialN': 89, 'loaded': True, 'loadedTime': 6944.300000000745, 'positionName': 'LEFT', 'positionCoords': [245.68, 179], 'bid': 6.05}, {'imgObject': {}, 'id': 'grilled chicken strips', 'src': '/static/foodstim60/grilled chicken strips.jpg', 'key': 'i', 'origWidth': 410, 'origHeight': 411, 'width': 410, 'height': 411, 'widthPercent': 0.45, 'rescaleHeight': False, 'trialN': 89, 'loaded': True, 'loadedTime': 7403.60000000149, 'positionName': 'RIGHT', 'positionCoords': [710.32, 178.5], 'bid': 5.95}]",111021.0,1669832064127,cocktailshrimp,grilled chicken strips,6.05,5.95,-0.09999999999999964,grilled chicken strips,646.2000000029802,649,648.1000000014901,True,i,112186.60000000149,1165.6000000014901,1669832065293,1166,HRV,HRV_0116,2022-11-30 18:16:03
90,"[{'imgObject': {}, 'id': 'Grapes', 'src': '/static/foodstim60/Grapes.jpg', 'key': 'u', 'origWidth': 411, 'origHeight': 411, 'width': 411, 'height': 411, 'widthPercent': 0.45, 'rescaleHeight': False, 'trialN': 90, 'loaded': True, 'loadedTime': 7810.5, 'positionName': 'LEFT', 'positionCoords': [244.68, 178.5], 'bid': 4.7}, {'imgObject': {}, 'id': 'lox', 'src': '/static/foodstim60/lox.jpg', 'key': 'i', 'origWidth': 410, 'origHeight': 411, 'width': 410, 'height': 411, 'widthPercent': 0.45, 'rescaleHeight': False, 'trialN': 90, 'loaded': True, 'loadedTime': 7857.900000002235, 'positionName': 'RIGHT', 'positionCoords': [710.32, 178.5], 'bid': 6.11}]",117608.30000000075,1669832070715,Grapes,lox,4.7,6.11,1.4100000000000001,Grapes,1874.800000000745,1880,1880.1000000014901,True,u,120002.5,2394.199999999255,1669832073109,2394,HRV,HRV_0116,2022-11-30 18:16:03
91,"[{'imgObject': {}, 'id': 'blueberries', 'src': '/static/foodstim60/blueberries.jpg', 'key': 'u', 'origWidth': 411, 'origHeight': 411, 'width': 411, 'height': 411, 'widthPercent': 0.45, 'rescaleHeight': False, 'trialN': 91, 'loaded': True, 'loadedTime': 7527.800000000745, 'positionName': 'LEFT', 'positionCoords': [244.68, 178.5], 'bid': 8.26}, {'imgObject': {}, 'id': 'Grapes', 'src': '/static/foodstim60/Grapes.jpg', 'key': 'i', 'origWidth': 411, 'origHeight': 411, 'width': 411, 'height': 411, 'widthPercent': 0.45, 'rescaleHeight': False, 'trialN': 91, 'loaded': True, 'loadedTime': 7814.60000000149, 'positionName': 'RIGHT', 'positionCoords': [710.32, 178.5], 'bid': 4.7}]",120003.0,1669832073109,blueberries,Grapes,8.26,4.7,-3.5599999999999996,Grapes,782.6000000014901,785,784.2000000029802,True,i,121298.10000000149,1295.1000000014901,1669832074405,1296,HRV,HRV_0116,2022-11-30 18:16:03
92,"[{'imgObject': {}, 'id': 'turkey sandwich', 'src': '/static/foodstim60/turkey sandwich.jpg', 'key': 'u', 'origWidth': 409, 'origHeight': 409, 'width': 409, 'height': 409, 'widthPercent': 0.45, 'rescaleHeight': False, 'trialN': 92, 'loaded': True, 'loadedTime': 7483.20000000298, 'positionName': 'LEFT', 'positionCoords': [246.68, 179.5], 'bid': 9.5}, {'imgObject': {}, 'id': 'strawberries', 'src': '/static/foodstim60/strawberries.jpg', 'key': 'i', 'origWidth': 410, 'origHeight': 410, 'width': 410, 'height': 410, 'widthPercent': 0.45, 'rescaleHeight': False, 'trialN': 92, 'loaded': True, 'loadedTime': 7748.60000000149, 'positionName': 'RIGHT', 'positionCoords': [710.32, 179], 'bid': 10}]",121299.0,1669832074405,turkey sandwich,strawberries,9.5,10.0,0.5,turkey sandwich,510.30000000074506,513,512.3000000007451,True,u,122317.80000000075,1018.8000000007451,1669832075424,1019,HRV,HRV_0116,2022-11-30 18:16:03
93,"[{'imgObject': {}, 'id': 'baked potato', 'src': '/static/foodstim60/baked potato.jpg', 'key': 'u', 'origWidth': 409, 'origHeight': 410, 'width': 409, 'height': 410, 'widthPercent': 0.45, 'rescaleHeight': False, 'trialN': 93, 'loaded': True, 'loadedTime': 7181.800000000745, 'positionName': 'LEFT', 'positionCoords': [246.68, 179], 'bid': 5.11}, {'imgObject': {}, 'id': 'avocado', 'src': '/static/foodstim60/avocado.jpg', 'key': 'i', 'origWidth': 409, 'origHeight': 409, 'width': 409, 'height': 409, 'widthPercent': 0.45, 'rescaleHeight': False, 'trialN': 93, 'loaded': True, 'loadedTime': 7506.10000000149, 'positionName': 'RIGHT', 'positionCoords': [710.32, 179.5], 'bid': 6.93}]",122318.70000000298,1669832075425,baked potato,avocado,5.11,6.93,1.8199999999999994,avocado,730.7999999970198,733,732.6999999992549,True,i,123562.90000000224,1244.199999999255,1669832076669,1244,HRV,HRV_0116,2022-11-30 18:16:03
94,"[{'imgObject': {}, 'id': 'eggs', 'src': '/static/foodstim60/eggs.jpg', 'key': 'u', 'origWidth': 409, 'origHeight': 409, 'width': 409, 'height': 409, 'widthPercent': 0.45, 'rescaleHeight': False, 'trialN': 94, 'loaded': True, 'loadedTime': 7799.60000000149, 'positionName': 'LEFT', 'positionCoords': [246.68, 179.5], 'bid': 8.96}, {'imgObject': {}, 'id': 'turkeysandwich', 'src': '/static/foodstim60/turkeysandwich.jpg', 'key': 'i', 'origWidth': 409, 'origHeight': 409, 'width': 409, 'height': 409, 'widthPercent': 0.45, 'rescaleHeight': False, 'trialN': 94, 'loaded': True, 'loadedTime': 7363.300000000745, 'positionName': 'RIGHT', 'positionCoords': [710.32, 179.5], 'bid': 9.31}]",123563.60000000149,1669832076670,eggs,turkeysandwich,8.96,9.31,0.34999999999999964,turkeysandwich,797.6000000014901,801,801.0,True,i,124871.60000000149,1308.0,1669832077978,1308,HRV,HRV_0116,2022-11-30 18:16:03
95,"[{'imgObject': {}, 'id': 'chickenfingers', 'src': '/static/foodstim60/chickenfingers.jpg', 'key': 'u', 'origWidth': 410, 'origHeight': 410, 'width': 410, 'height': 410, 'widthPercent': 0.45, 'rescaleHeight': False, 'trialN': 95, 'loaded': True, 'loadedTime': 7754.10000000149, 'positionName': 'LEFT', 'positionCoords': [245.68, 179], 'bid': 6.5200000000000005}, {'imgObject': {}, 'id': 'hashbrowns', 'src': '/static/foodstim60/hashbrowns.jpg', 'key': 'i', 'origWidth': 411, 'origHeight': 410, 'width': 411, 'height': 410, 'widthPercent': 0.45, 'rescaleHeight': False, 'trialN': 95, 'loaded': True, 'loadedTime': 7443, 'positionName': 'RIGHT', 'positionCoords': [710.32, 179], 'bid': 7.48}]",124872.20000000298,1669832077979,chickenfingers,hashbrowns,6.5200000000000005,7.48,0.96,hashbrowns,664.8999999985099,668,668.3999999985099,True,i,126045.70000000298,1173.5,1669832079152,1173,HRV,HRV_0116,2022-11-30 18:16:03
96,"[{'imgObject': {}, 'id': 'froot loops w milk', 'src': '/static/foodstim60/froot loops w milk.jpg', 'key': 'u', 'origWidth': 410, 'origHeight': 410, 'width': 410, 'height': 410, 'widthPercent': 0.45, 'rescaleHeight': False, 'trialN': 96, 'loaded': True, 'loadedTime': 7785.70000000298, 'positionName': 'LEFT', 'positionCoords': [245.68, 179], 'bid': 8.61}, {'imgObject': {}, 'id': 'granola w milk', 'src': '/static/foodstim60/granola w milk.jpg', 'key': 'i', 'origWidth': 410, 'origHeight': 410, 'width': 410, 'height': 410, 'widthPercent': 0.45, 'rescaleHeight': False, 'trialN': 96, 'loaded': True, 'loadedTime': 7838.400000002235, 'positionName': 'RIGHT', 'positionCoords': [710.32, 179], 'bid': 5.13}]",126046.70000000298,1669832079153,froot loops w milk,granola w milk,8.61,5.13,-3.4799999999999995,froot loops w milk,442.8999999985099,447,446.79999999701977,True,u,127003.20000000298,956.5,1669832080110,957,HRV,HRV_0116,2022-11-30 18:16:03
97,"[{'imgObject': {}, 'id': 'blackbeanswithrice', 'src': '/static/foodstim60/blackbeanswithrice.jpg', 'key': 'u', 'origWidth': 410, 'origHeight': 410, 'width': 410, 'height': 410, 'widthPercent': 0.45, 'rescaleHeight': False, 'trialN': 97, 'loaded': True, 'loadedTime': 7436.900000002235, 'positionName': 'LEFT', 'positionCoords': [245.68, 179], 'bid': 5.29}, {'imgObject': {}, 'id': 'salad w chicken', 'src': '/static/foodstim60/salad w chicken.jpg', 'key': 'i', 'origWidth': 411, 'origHeight': 411, 'width': 411, 'height': 411, 'widthPercent': 0.45, 'rescaleHeight': False, 'trialN': 97, 'loaded': True, 'loadedTime': 7721.400000002235, 'positionName': 'RIGHT', 'positionCoords': [710.32, 178.5], 'bid': 8.64}]",127003.70000000298,1669832080110,blackbeanswithrice,salad w chicken,5.29,8.64,3.3500000000000005,blackbeanswithrice,661.0999999977648,663,662.5,True,u,128170.80000000075,1167.0999999977648,1669832081277,1167,HRV,HRV_0116,2022-11-30 18:16:03
98,"[{'imgObject': {}, 'id': 'hashbrowns', 'src': '/static/foodstim60/hashbrowns.jpg', 'key': 'u', 'origWidth': 411, 'origHeight': 410, 'width': 411, 'height': 410, 'widthPercent': 0.45, 'rescaleHeight': False, 'trialN': 98, 'loaded': True, 'loadedTime': 7458.300000000745, 'positionName': 'LEFT', 'positionCoords': [244.68, 179], 'bid': 7.48}, {'imgObject': {}, 'id': 'orange slices', 'src': '/static/foodstim60/orange slices.jpg', 'key': 'i', 'origWidth': 409, 'origHeight': 410, 'width': 409, 'height': 410, 'widthPercent': 0.45, 'rescaleHeight': False, 'trialN': 98, 'loaded': True, 'loadedTime': 7121.900000002235, 'positionName': 'RIGHT', 'positionCoords': [710.32, 179], 'bid': 8.89}]",128172.0,1669832081278,hashbrowns,orange slices,7.48,8.89,1.4100000000000001,orange slices,501.4000000022352,506,505.1000000014901,True,i,129193.70000000298,1021.7000000029802,1669832082300,1022,HRV,HRV_0116,2022-11-30 18:16:03
99,"[{'imgObject': {}, 'id': 'rigatoni', 'src': '/static/foodstim60/rigatoni.jpg', 'key': 'u', 'origWidth': 411, 'origHeight': 411, 'width': 411, 'height': 411, 'widthPercent': 0.45, 'rescaleHeight': False, 'trialN': 99, 'loaded': True, 'loadedTime': 7536.5, 'positionName': 'LEFT', 'positionCoords': [244.68, 178.5], 'bid': 6.91}, {'imgObject': {}, 'id': 'cherry tomato', 'src': '/static/foodstim60/cherry tomato.jpg', 'key': 'i', 'origWidth': 410, 'origHeight': 410, 'width': 410, 'height': 410, 'widthPercent': 0.45, 'rescaleHeight': False, 'trialN': 99, 'loaded': True, 'loadedTime': 7623, 'positionName': 'RIGHT', 'positionCoords': [710.32, 179], 'bid': 7.98}]",129194.80000000075,1669832082301,rigatoni,cherry tomato,6.91,7.98,1.0700000000000003,rigatoni,439.19999999925494,443,442.80000000074506,True,u,130149.20000000298,954.4000000022352,1669832083256,955,HRV,HRV_0116,2022-11-30 18:16:03
100,"[{'imgObject': {}, 'id': 'bagel and cc', 'src': '/static/foodstim60/bagel and cc.jpg', 'key': 'u', 'origWidth': 410, 'origHeight': 410, 'width': 410, 'height': 410, 'widthPercent': 0.45, 'rescaleHeight': False, 'trialN': 100, 'loaded': True, 'loadedTime': 7199.70000000298, 'positionName': 'LEFT', 'positionCoords': [245.68, 179], 'bid': 8.9}, {'imgObject': {}, 'id': 'ice cream sundae 002', 'src': '/static/foodstim60/ice cream sundae 002.jpg', 'key': 'i', 'origWidth': 409, 'origHeight': 409, 'width': 409, 'height': 409, 'widthPercent': 0.45, 'rescaleHeight': False, 'trialN': 100, 'loaded': True, 'loadedTime': 7654.70000000298, 'positionName': 'RIGHT', 'positionCoords': [710.32, 179.5], 'bid': 9.23}]",130149.40000000224,1669832083256,bagel and cc,ice cream sundae 002,8.9,9.23,0.33000000000000007,bagel and cc,475.0,478,478.3999999985099,True,u,131133.6000000015,984.1999999992549,1669832084240,984,HRV,HRV_0116,2022-11-30 18:16:03
101,"[{'imgObject': {}, 'id': 'eggs', 'src': '/static/foodstim60/eggs.jpg', 'key': 'u', 'origWidth': 409, 'origHeight': 409, 'width': 409, 'height': 409, 'widthPercent': 0.45, 'rescaleHeight': False, 'trialN': 101, 'loaded': True, 'loadedTime': 7802.800000000745, 'positionName': 'LEFT', 'positionCoords': [246.68, 179.5], 'bid': 8.96}, {'imgObject': {}, 'id': 'fried eggs', 'src': '/static/foodstim60/fried eggs.jpg', 'key': 'i', 'origWidth': 410, 'origHeight': 410, 'width': 410, 'height': 410, 'widthPercent': 0.45, 'rescaleHeight': False, 'trialN': 101, 'loaded': True, 'loadedTime': 7649.800000000745, 'positionName': 'RIGHT', 'positionCoords': [710.32, 179], 'bid': 8.92}]",131134.0,1669832084240,eggs,fried eggs,8.96,8.92,-0.040000000000000924,eggs,482.4000000022352,484,483.80000000074506,True,u,132124.6000000015,990.6000000014901,1669832085231,991,HRV,HRV_0116,2022-11-30 18:16:03
102,"[{'imgObject': {}, 'id': 'edamame', 'src': '/static/foodstim60/edamame.jpg', 'key': 'u', 'origWidth': 409, 'origHeight': 410, 'width': 409, 'height': 410, 'widthPercent': 0.45, 'rescaleHeight': False, 'trialN': 102, 'loaded': True, 'loadedTime': 7688.5, 'positionName': 'LEFT', 'positionCoords': [246.68, 179], 'bid': 8.3}, {'imgObject': {}, 'id': 'cheerios', 'src': '/static/foodstim60/cheerios.jpg', 'key': 'i', 'origWidth': 409, 'origHeight': 410, 'width': 409, 'height': 410, 'widthPercent': 0.45, 'rescaleHeight': False, 'trialN': 102, 'loaded': True, 'loadedTime': 7716.300000000745, 'positionName': 'RIGHT', 'positionCoords': [710.32, 179], 'bid': 8.790000000000001}]",132125.1000000015,1669832085232,edamame,cheerios,8.3,8.790000000000001,0.4900000000000002,cheerios,763.8000000007451,767,767.5,True,i,133415.20000000298,1290.1000000014901,1669832086522,1290,HRV,HRV_0116,2022-11-30 18:16:03
103,"[{'imgObject': {}, 'id': 'edamame', 'src': '/static/foodstim60/edamame.jpg', 'key': 'u', 'origWidth': 409, 'origHeight': 410, 'width': 409, 'height': 410, 'widthPercent': 0.45, 'rescaleHeight': False, 'trialN': 103, 'loaded': True, 'loadedTime': 7688, 'positionName': 'LEFT', 'positionCoords': [246.68, 179], 'bid': 8.3}, {'imgObject': {}, 'id': 'popsicles', 'src': '/static/foodstim60/popsicles.jpg', 'key': 'i', 'origWidth': 410, 'origHeight': 410, 'width': 410, 'height': 410, 'widthPercent': 0.45, 'rescaleHeight': False, 'trialN': 103, 'loaded': True, 'loadedTime': 7863.10000000149, 'positionName': 'RIGHT', 'positionCoords': [710.32, 179], 'bid': 5}]",133415.70000000298,1669832086522,edamame,popsicles,8.3,5.0,-3.3000000000000007,edamame,912.6999999992549,917,916.2999999970198,True,u,134836.30000000075,1420.5999999977648,1669832087943,1421,HRV,HRV_0116,2022-11-30 18:16:03
104,"[{'imgObject': {}, 'id': 'strawberries', 'src': '/static/foodstim60/strawberries.jpg', 'key': 'u', 'origWidth': 410, 'origHeight': 410, 'width': 410, 'height': 410, 'widthPercent': 0.45, 'rescaleHeight': False, 'trialN': 104, 'loaded': True, 'loadedTime': 7743.900000002235, 'positionName': 'LEFT', 'positionCoords': [245.68, 179], 'bid': 10}, {'imgObject': {}, 'id': 'bagel and cc', 'src': '/static/foodstim60/bagel and cc.jpg', 'key': 'i', 'origWidth': 410, 'origHeight': 410, 'width': 410, 'height': 410, 'widthPercent': 0.45, 'rescaleHeight': False, 'trialN': 104, 'loaded': True, 'loadedTime': 7200.5, 'positionName': 'RIGHT', 'positionCoords': [710.32, 179], 'bid': 8.9}]",134837.20000000298,1669832087944,strawberries,bagel and cc,10.0,8.9,-1.0999999999999996,bagel and cc,706.6999999992549,708,708.6999999992549,True,i,136053.80000000075,1216.5999999977648,1669832089160,1216,HRV,HRV_0116,2022-11-30 18:16:03
105,"[{'imgObject': {}, 'id': 'pear', 'src': '/static/foodstim60/pear.jpg', 'key': 'u', 'origWidth': 411, 'origHeight': 410, 'width': 411, 'height': 410, 'widthPercent': 0.45, 'rescaleHeight': False, 'trialN': 105, 'loaded': True, 'loadedTime': 7607, 'positionName': 'LEFT', 'positionCoords': [244.68, 179], 'bid': 9.14}, {'imgObject': {}, 'id': 'orange slices', 'src': '/static/foodstim60/orange slices.jpg', 'key': 'i', 'origWidth': 409, 'origHeight': 410, 'width': 409, 'height': 410, 'widthPercent': 0.45, 'rescaleHeight': False, 'trialN': 105, 'loaded': True, 'loadedTime': 7125.300000000745, 'positionName': 'RIGHT', 'positionCoords': [710.32, 179], 'bid': 8.89}]",136054.30000000075,1669832089161,pear,orange slices,9.14,8.89,-0.25,pear,449.80000000074506,453,453.69999999925494,True,u,137018.0,963.6999999992549,1669832090124,963,HRV,HRV_0116,2022-11-30 18:16:03
106,"[{'imgObject': {}, 'id': 'grilled chicken strips', 'src': '/static/foodstim60/grilled chicken strips.jpg', 'key': 'u', 'origWidth': 410, 'origHeight': 411, 'width': 410, 'height': 411, 'widthPercent': 0.45, 'rescaleHeight': False, 'trialN': 106, 'loaded': True, 'loadedTime': 7403.800000000745, 'positionName': 'LEFT', 'positionCoords': [245.68, 178.5], 'bid': 5.95}, {'imgObject': {}, 'id': 'Tribe humus pita', 'src': '/static/foodstim60/Tribe humus pita.jpg', 'key': 'i', 'origWidth': 411, 'origHeight': 411, 'width': 411, 'height': 411, 'widthPercent': 0.45, 'rescaleHeight': False, 'trialN': 106, 'loaded': True, 'loadedTime': 7397.60000000149, 'positionName': 'RIGHT', 'positionCoords': [710.32, 178.5], 'bid': 5.95}]",137018.40000000224,1669832090125,grilled chicken strips,Tribe humus pita,5.95,5.95,0.0,grilled chicken strips,549.1999999992549,551,551.3000000007451,True,u,138075.0,1056.5999999977648,1669832091181,1056,HRV,HRV_0116,2022-11-30 18:16:03
107,"[{'imgObject': {}, 'id': 'mac & cheese', 'src': '/static/foodstim60/mac & cheese.jpg', 'key': 'u', 'origWidth': 410, 'origHeight': 410, 'width': 410, 'height': 410, 'widthPercent': 0.45, 'rescaleHeight': False, 'trialN': 107, 'loaded': True, 'loadedTime': 7421.20000000298, 'positionName': 'LEFT', 'positionCoords': [245.68, 179], 'bid': 2.97}, {'imgObject': {}, 'id': 'sweetpotato', 'src': '/static/foodstim60/sweetpotato.jpg', 'key': 'i', 'origWidth': 410, 'origHeight': 410, 'width': 410, 'height': 410, 'widthPercent': 0.45, 'rescaleHeight': False, 'trialN': 107, 'loaded': True, 'loadedTime': 7845.10000000149, 'positionName': 'RIGHT', 'positionCoords': [710.32, 179], 'bid': 4.41}]",138075.80000000075,1669832091182,mac & cheese,sweetpotato,2.97,4.41,1.44,sweetpotato,836.1000000014901,840,839.9000000022352,True,i,139425.80000000075,1350.0,1669832092532,1350,HRV,HRV_0116,2022-11-30 18:16:03
