success,trial_type,trial_index,time_elapsed,internal_node_id,Block,TrialNumber,TrialTime,trialTimeDiff,FPS_avg,FPS_med,FPS_mode,TrialDur,winResizeTime,rt,block,button_pressed,MotCoh,MotDir,ColCoh,Color,ChoiceKey,Choice,Accuracy,RT,nFrames,FPS,PPD,missTrial,missTrialMsg,onsetDelay,fullScreenExitTime,canvCenter,TrialType,Score,BlockTrial,stimulus,button_labels,exp,subjectId,date
True,fullscreen,0,3012,0.0-0.0,0.0,1.0,,,,,,,,,,,,,,,,,,,,,,,,,,,,,,,,HRV,HRV_0116,2022-11-30 18:40:04
,wl-check-fps,1,8125,0.0-1.0,0.0,2.0,"[4932.8, 4938.2, 4950.4, 4958.7, 4977.6, 4992.6, 5008.9, 5025.8, 5041.3, 5058.2, 5077.8, 5093.2, 5109.4, 5126.2, 5141.6, 5158.7, 5174.6, 5191.7, 5208.1, 5225.6, 5241.4, 5258.2, 5274.7, 5291.1, 5307.9, 5324.4, 5340.9, 5357.9, 5374.6, 5391.5, 5408.3, 5424.6, 5441.5, 5457.9, 5474.6, 5491.5, 5507.8, 5524.7, 5541.4, 5557.8, 5574.7, 5591.2, 5607.8, 5625.1, 5641.5, 5658, 5674.8, 5691.8, 5710.4, 5727.6, 5743.9, 5758, 5774.6, 5791, 5807.7, 5824.5, 5841.1, 5858.8, 5874.7, 5893.8, 5913.4, 5937.4, 5943.8, 5960.7, 5976.2, 5991.9, 6009.7, 6023.6, 6040.6, 6057.9, 6073.6, 6090.4, 6106.7, 6123.4, 6140.2, 6156.7, 6173.4, 6190.3, 6206.7, 6223.6, 6240.9, 6256.9, 6273.2, 6290, 6306.7, 6323.1, 6339.9, 6356.4, 6373.2, 6389.9, 6406.4, 6423.2, 6441, 6457.5, 6474.6, 6490.8, 6507.9, 6524.9, 6542, 6557.5, 6573.3, 6590.2, 6606.4, 6623.5, 6639.9, 6656.7, 6673.6, 6690, 6710.8, 6725, 6742.6, 6757.5, 6773.1, 6789.9, 6806.3, 6823.4, 6839.9, 6859, 6872.7, 6889.7, 6907.2, 6923.1, 6941.7, 6961, 6974.2, 6991.4, 7006.1, 7023.7, 7039.5, 7056.1, 7072.7, 7089.4, 7106.5, 7122.9, 7141, 7157.8, 7173.1, 7189.6, 7206, 7222.9, 7239.4, 7256, 7273.1, 7290.1, 7306.1, 7323.3, 7341, 7357.7, 7373.3, 7389.7, 7406.4, 7422.8, 7439.4, 7456.2, 7472.6, 7489.3, 7506.3, 7522.7, 7541, 7557.4, 7573.5, 7589.3, 7605.9, 7622.2, 7639.1, 7655.2, 7672.4, 7689, 7705.8, 7722.4, 7738.8, 7755.8, 7771.9, 7788.8, 7805.9, 7821.9, 7838.7, 7855.1, 7871.9, 7888.7, 7905.2, 7922, 7938.8, 7955.1, 7971.7, 7988.8, 8006.4, 8022, 8038.3, 8055.1, 8072, 8088.4, 8105.1, 8121.9, 8138.4, 8155.3, 8171.7, 8188.2, 8205.2, 8221.7, 8238.4, 8254.9, 8271.6, 8288, 8304.8, 8321.6, 8338, 8354.8, 8371.6, 8388.2, 8404.9, 8421.6, 8438.3, 8455.1, 8471.8, 8488.4, 8504.8, 8521.6, 8538.3, 8555.1, 8571.6, 8588.2, 8604.8, 8621.6, 8638.3, 8654.8, 8671.6, 8688.3, 8704.9, 8721.6, 8738, 8754.5, 8771.3, 8787.8, 8804.8, 8821.5, 8839.2, 8926.6, 8933, 8940.9, 8956.2, 8973.5, 8989.6, 9006.7, 9022.3, 9037.7, 9054.6, 9071.3, 9088.8, 9106.3, 9122.3, 9137.9, 9155.5, 9172.2, 9190, 9206, 9221.4, 9237.8, 9258.5, 9271.3, 9288.4, 9304.5, 9320.9, 9337.7, 9354.6, 9373.3, 9388.8, 9405.2, 9421.9, 9437.7, 9453.9, 9471.1, 9487.2, 9504.6, 9521.1, 9542.9, 9554.7, 9572.5, 9588, 9605, 9621.5, 9637.9, 9653.7, 9670.5, 9687.8, 9704, 9721, 9737.6, 9754.5, 9770.6, 9786.9, 9805.2, 9821.9, 9837.3, 9853.6, 9869.9, 9886.5, 9904.1, 9926.9, 9937.1]","[84.9, 5.4, 12.2, 8.3, 18.9, 15, 16.3, 16.9, 15.5, 16.9, 19.6, 15.4, 16.2, 16.8, 15.4, 17.1, 15.9, 17.1, 16.4, 17.5, 15.8, 16.8, 16.5, 16.4, 16.8, 16.5, 16.5, 17, 16.7, 16.9, 16.8, 16.3, 16.9, 16.4, 16.7, 16.9, 16.3, 16.9, 16.7, 16.4, 16.9, 16.5, 16.6, 17.3, 16.4, 16.5, 16.8, 17, 18.6, 17.2, 16.3, 14.1, 16.6, 16.4, 16.7, 16.8, 16.6, 17.7, 15.9, 19.1, 19.6, 24, 6.4, 16.9, 15.5, 15.7, 17.8, 13.9, 17, 17.3, 15.7, 16.8, 16.3, 16.7, 16.8, 16.5, 16.7, 16.9, 16.4, 16.9, 17.3, 16, 16.3, 16.8, 16.7, 16.4, 16.8, 16.5, 16.8, 16.7, 16.5, 16.8, 17.8, 16.5, 17.1, 16.2, 17.1, 17, 17.1, 15.5, 15.8, 16.9, 16.2, 17.1, 16.4, 16.8, 16.9, 16.4, 20.8, 14.2, 17.6, 14.9, 15.6, 16.8, 16.4, 17.1, 16.5, 19.1, 13.7, 17, 17.5, 15.9, 18.6, 19.3, 13.2, 17.2, 14.7, 17.6, 15.8, 16.6, 16.6, 16.7, 17.1, 16.4, 18.1, 16.8, 15.3, 16.5, 16.4, 16.9, 16.5, 16.6, 17.1, 17, 16, 17.2, 17.7, 16.7, 15.6, 16.4, 16.7, 16.4, 16.6, 16.8, 16.4, 16.7, 17, 16.4, 18.3, 16.4, 16.1, 15.8, 16.6, 16.3, 16.9, 16.1, 17.2, 16.6, 16.8, 16.6, 16.4, 17, 16.1, 16.9, 17.1, 16, 16.8, 16.4, 16.8, 16.8, 16.5, 16.8, 16.8, 16.3, 16.6, 17.1, 17.6, 15.6, 16.3, 16.8, 16.9, 16.4, 16.7, 16.8, 16.5, 16.9, 16.4, 16.5, 17, 16.5, 16.7, 16.5, 16.7, 16.4, 16.8, 16.8, 16.4, 16.8, 16.8, 16.6, 16.7, 16.7, 16.7, 16.8, 16.7, 16.6, 16.4, 16.8, 16.7, 16.8, 16.5, 16.6, 16.6, 16.8, 16.7, 16.5, 16.8, 16.7, 16.6, 16.7, 16.4, 16.5, 16.8, 16.5, 17, 16.7, 17.7, 87.4, 6.4, 7.9, 15.3, 17.3, 16.1, 17.1, 15.6, 15.4, 16.9, 16.7, 17.5, 17.5, 16, 15.6, 17.6, 16.7, 17.8, 16, 15.4, 16.4, 20.7, 12.8, 17.1, 16.1, 16.4, 16.8, 16.9, 18.7, 15.5, 16.4, 16.7, 15.8, 16.2, 17.2, 16.1, 17.4, 16.5, 21.8, 11.8, 17.8, 15.5, 17, 16.5, 16.4, 15.8, 16.8, 17.3, 16.2, 17, 16.6, 16.9, 16.1, 16.3, 18.3, 16.7, 15.4, 16.3, 16.3, 16.6, 17.6, 22.8, 10.2]",59.0,60.0,60.0,5105.2,[],,,,,,,,,,,,,,,,,,,,,,,,,HRV,HRV_0116,2022-11-30 18:40:04
,wl-html-keyboard-response,2,50016,0.0-2.0-0.0,0.0,3.0,,,,,,,,39830.300000000745,0.0,0,,,,,,,,,,,,,,,,,,,,,,HRV,HRV_0116,2022-11-30 18:40:04
,wl-rdm,3,57623,0.0-3.0-0.0,0.0,4.0,,,,,,,[],,,,0.0,0.0,87.9,0.0,u,0.0,True,1942.699999999255,116.0,60.0,40.0,False,,3000.0,[],"[683, 384]",ColorTask_Demo,,,,,HRV,HRV_0116,2022-11-30 18:40:04
,wl-rdm,4,62786,0.0-3.0-1.0,0.0,5.0,,,,,,,[],,,,0.0,0.0,87.9,1.0,i,1.0,True,1030.699999999255,62.0,60.0,40.0,False,,2000.0,[],"[683, 384]",ColorTask_Demo,,,,,HRV,HRV_0116,2022-11-30 18:40:04
,wl-html-keyboard-response,5,69644,0.0-3.0-2.0,0.0,6.0,,,,,,,,4844.199999999255,0.0,1,,,,,,,,,,,,,,,,,,,,,,HRV,HRV_0116,2022-11-30 18:40:04
,wl-html-keyboard-response,6,78119,0.0-4.0-0.0,0.0,7.0,,,,,,,,6462.70000000298,0.0,0,,,,,,,,,,,,,,,,,,,,,,HRV,HRV_0116,2022-11-30 18:40:04
,wl-html-keyboard-response,7,90399,0.0-5.0-0.0,0.0,8.0,,,,,,,,10266.89999999851,0.0,0,,,,,,,,,,,,,,,,,,,,,,HRV,HRV_0116,2022-11-30 18:40:04
,wl-rdm,8,92538,0.0-6.0-0.0,0.0,9.0,,,,,,,[],,,,,,87.9,1.0,i,1.0,True,836.6000000014901,51.0,60.0,40.0,False,,228.4621761745311,[],"[683, 384]",ColorTask,1.0,1.0,,,HRV,HRV_0116,2022-11-30 18:40:04
,wl-rdm,9,95155,0.0-6.1-0.1,0.0,10.0,,,,,,,[],,,,,,50.0,0.0,i,1.0,False,1347.4000000022352,81.0,60.0,40.0,False,,202.45541682619555,[],"[683, 384]",ColorTask,0.0,2.0,,,HRV,HRV_0116,2022-11-30 18:40:04
,wl-rdm,10,97736,0.0-6.2-0.2,0.0,11.0,,,,,,,[],,,,,,73.6,0.0,u,0.0,True,1142.6000000014901,69.0,60.0,40.0,False,,353.73625588149844,[],"[683, 384]",ColorTask,1.0,3.0,,,HRV,HRV_0116,2022-11-30 18:40:04
,wl-rdm,11,100499,0.0-6.3-0.3,0.0,12.0,,,,,,,[],,,,,,50.0,1.0,u,0.0,False,1445.5000000037253,86.0,60.0,40.0,False,,247.8990882470447,[],"[683, 384]",ColorTask,0.0,4.0,,,HRV,HRV_0116,2022-11-30 18:40:04
,wl-rdm,12,102631,0.0-6.4-0.4,0.0,13.0,,,,,,,[],,,,,,56.4,1.0,i,1.0,True,760.2999999970198,46.0,60.0,40.0,False,,284.59583765738677,[],"[683, 384]",ColorTask,1.0,5.0,,,HRV,HRV_0116,2022-11-30 18:40:04
,wl-rdm,13,105012,0.0-6.5-0.5,0.0,14.0,,,,,,,[],,,,,,62.5,1.0,i,1.0,True,1071.3999999985099,65.0,60.0,40.0,False,,217.06580984484526,[],"[683, 384]",ColorTask,2.0,6.0,,,HRV,HRV_0116,2022-11-30 18:40:04
,wl-rdm,14,107510,0.0-6.6-0.6,0.0,15.0,,,,,,,[],,,,,,53.2,1.0,i,1.0,True,1040.8999999985099,63.0,60.0,40.0,False,,387.8447158713984,[],"[683, 384]",ColorTask,3.0,7.0,,,HRV,HRV_0116,2022-11-30 18:40:04
,wl-rdm,15,110457,0.0-6.7-0.7,0.0,16.0,,,,,,,[],,,,,,50.0,1.0,i,1.0,True,1554.300000000745,93.0,60.0,40.0,False,,325.1306534975062,[],"[683, 384]",ColorTask,4.0,8.0,,,HRV,HRV_0116,2022-11-30 18:40:04
,wl-rdm,16,113088,0.0-6.8-0.8,0.0,17.0,,,,,,,[],,,,,,50.0,1.0,i,1.0,True,1185.0000000037253,72.0,60.0,40.0,False,,368.4443448338351,[],"[683, 384]",ColorTask,5.0,9.0,,,HRV,HRV_0116,2022-11-30 18:40:04
,wl-rdm,17,115202,0.0-6.9-0.9,0.0,18.0,,,,,,,[],,,,,,53.2,1.0,i,1.0,True,703.4999999962747,43.0,60.0,40.0,False,,333.33930427654224,[],"[683, 384]",ColorTask,6.0,10.0,,,HRV,HRV_0116,2022-11-30 18:40:04
,wl-rdm,18,117634,0.0-6.10-0.10,0.0,19.0,,,,,,,[],,,,,,62.5,1.0,i,1.0,True,1123.2000000029802,68.0,60.0,40.0,False,,246.48322456982913,[],"[683, 384]",ColorTask,7.0,11.0,,,HRV,HRV_0116,2022-11-30 18:40:04
,wl-rdm,19,119728,0.0-6.11-0.11,0.0,20.0,,,,,,,[],,,,,,50.0,0.0,i,1.0,False,809.6999999992549,49.0,60.0,40.0,False,,207.7463739138067,[],"[683, 384]",ColorTask,6.0,12.0,,,HRV,HRV_0116,2022-11-30 18:40:04
,wl-rdm,20,122029,0.0-6.12-0.12,0.0,21.0,,,,,,,[],,,,,,50.0,1.0,u,0.0,False,878.5,52.0,60.0,40.0,False,,335.7147658060808,[],"[683, 384]",ColorTask,5.0,13.0,,,HRV,HRV_0116,2022-11-30 18:40:04
,wl-rdm,21,124039,0.0-6.13-0.13,0.0,22.0,,,,,,,[],,,,,,50.0,1.0,i,1.0,True,514.1999999992549,31.0,60.0,40.0,False,,370.24654993643446,[],"[683, 384]",ColorTask,6.0,14.0,,,HRV,HRV_0116,2022-11-30 18:40:04
,wl-rdm,22,126122,0.0-6.14-0.14,0.0,23.0,,,,,,,[],,,,,,73.6,1.0,i,1.0,True,773.1999999955297,46.0,60.0,40.0,False,,229.46118558181288,[],"[683, 384]",ColorTask,7.0,15.0,,,HRV,HRV_0116,2022-11-30 18:40:04
,wl-rdm,23,128239,0.0-6.15-0.15,0.0,24.0,,,,,,,[],,,,,,50.0,0.0,i,1.0,False,725.7999999970198,44.0,60.0,40.0,False,,309.8631023043532,[],"[683, 384]",ColorTask,6.0,16.0,,,HRV,HRV_0116,2022-11-30 18:40:04
,wl-rdm,24,130268,0.0-6.16-0.16,0.0,25.0,,,,,,,[],,,,,,87.9,0.0,u,0.0,True,666.5999999977648,38.0,60.0,40.0,False,,296.0540861255808,[],"[683, 384]",ColorTask,7.0,17.0,,,HRV,HRV_0116,2022-11-30 18:40:04
,wl-rdm,25,132369,0.0-6.17-0.17,0.0,26.0,,,,,,,[],,,,,,73.6,1.0,i,1.0,True,723.8000000007451,44.0,60.0,40.0,False,,296.46448755596776,[],"[683, 384]",ColorTask,8.0,18.0,,,HRV,HRV_0116,2022-11-30 18:40:04
,wl-rdm,26,134830,0.0-6.18-0.18,0.0,27.0,,,,,,,[],,,,,,56.4,0.0,u,0.0,True,1040.5,63.0,60.0,40.0,False,,346.52115324796057,[],"[683, 384]",ColorTask,9.0,19.0,,,HRV,HRV_0116,2022-11-30 18:40:04
,wl-rdm,27,136878,0.0-6.19-0.19,0.0,28.0,,,,,,,[],,,,,,56.4,0.0,i,1.0,False,747.7999999970198,45.0,60.0,40.0,False,,225.690018064382,[],"[683, 384]",ColorTask,8.0,20.0,,,HRV,HRV_0116,2022-11-30 18:40:04
,wl-rdm,28,138842,0.0-6.20-0.20,0.0,29.0,,,,,,,[],,,,,,87.9,0.0,i,1.0,False,526.6000000014901,32.0,60.0,40.0,False,,365.66359546303386,[],"[683, 384]",ColorTask,7.0,21.0,,,HRV,HRV_0116,2022-11-30 18:40:04
,wl-rdm,29,140761,0.0-6.21-0.21,0.0,30.0,,,,,,,[],,,,,,87.9,1.0,u,0.0,False,520.9000000022352,32.0,60.0,40.0,False,,313.5546087213001,[],"[683, 384]",ColorTask,6.0,22.0,,,HRV,HRV_0116,2022-11-30 18:40:04
,wl-rdm,30,142975,0.0-6.22-0.22,0.0,31.0,,,,,,,[],,,,,,53.2,0.0,u,0.0,True,903.2999999970198,55.0,60.0,40.0,False,,221.04757694074036,[],"[683, 384]",ColorTask,7.0,23.0,,,HRV,HRV_0116,2022-11-30 18:40:04
,wl-rdm,31,145007,0.0-6.23-0.23,0.0,32.0,,,,,,,[],,,,,,50.0,1.0,i,1.0,True,747.0,45.0,60.0,40.0,False,,200.52597318523746,[],"[683, 384]",ColorTask,8.0,24.0,,,HRV,HRV_0116,2022-11-30 18:40:04
,wl-rdm,32,147405,0.0-6.24-0.24,0.0,33.0,,,,,,,[],,,,,,56.4,1.0,i,1.0,True,1036.300000000745,63.0,60.0,40.0,False,,279.190634142985,[],"[683, 384]",ColorTask,9.0,25.0,,,HRV,HRV_0116,2022-11-30 18:40:04
,wl-rdm,33,149453,0.0-6.25-0.25,0.0,34.0,,,,,,,[],,,,,,50.0,0.0,i,1.0,False,752.9000000022352,46.0,60.0,40.0,False,,215.05745759841375,[],"[683, 384]",ColorTask,8.0,26.0,,,HRV,HRV_0116,2022-11-30 18:40:04
,wl-rdm,34,151414,0.0-6.26-0.26,0.0,35.0,,,,,,,[],,,,,,53.2,0.0,u,0.0,True,592.2999999970198,36.0,60.0,40.0,False,,283.95348418560786,[],"[683, 384]",ColorTask,9.0,27.0,,,HRV,HRV_0116,2022-11-30 18:40:04
,wl-rdm,35,153548,0.0-6.27-0.27,0.0,36.0,,,,,,,[],,,,,,53.2,0.0,u,0.0,True,724.1999999992549,44.0,60.0,40.0,False,,339.35558810870316,[],"[683, 384]",ColorTask,10.0,28.0,,,HRV,HRV_0116,2022-11-30 18:40:04
,wl-rdm,36,155908,0.0-6.28-0.28,0.0,37.0,,,,,,,[],,,,,,62.5,0.0,u,0.0,True,920.0,54.0,60.0,40.0,False,,356.29480299741476,[],"[683, 384]",ColorTask,11.0,29.0,,,HRV,HRV_0116,2022-11-30 18:40:04
,wl-rdm,37,157810,0.0-6.29-0.29,0.0,38.0,,,,,,,[],,,,,,87.9,0.0,u,0.0,True,638.0999999977648,38.0,60.0,40.0,False,,202.30152293221062,[],"[683, 384]",ColorTask,12.0,30.0,,,HRV,HRV_0116,2022-11-30 18:40:04
,wl-rdm,38,160004,0.0-6.30-0.30,0.0,39.0,,,,,,,[],,,,,,53.2,1.0,u,0.0,False,790.6000000014901,46.0,60.0,40.0,False,,327.7040610370401,[],"[683, 384]",ColorTask,11.0,31.0,,,HRV,HRV_0116,2022-11-30 18:40:04
,wl-rdm,39,161973,0.0-6.31-0.31,0.0,40.0,,,,,,,[],,,,,,62.5,0.0,i,1.0,False,682.3999999985099,40.0,60.0,40.0,False,,209.62329971645318,[],"[683, 384]",ColorTask,10.0,32.0,,,HRV,HRV_0116,2022-11-30 18:40:04
,wl-rdm,40,163721,0.0-6.32-0.32,0.0,41.0,,,,,,,[],,,,,,73.6,0.0,u,0.0,True,338.19999999925494,21.0,60.0,40.0,False,,346.90364806401806,[],"[683, 384]",ColorTask,11.0,33.0,,,HRV,HRV_0116,2022-11-30 18:40:04
,wl-rdm,41,165787,0.0-6.33-0.33,0.0,42.0,,,,,,,[],,,,,,56.4,1.0,i,1.0,True,723.0,44.0,60.0,40.0,False,,219.12495163571964,[],"[683, 384]",ColorTask,12.0,34.0,,,HRV,HRV_0116,2022-11-30 18:40:04
,wl-rdm,42,167850,0.0-6.34-0.34,0.0,43.0,,,,,,,[],,,,,,73.6,1.0,i,1.0,True,655.7999999970198,38.0,60.0,40.0,False,,322.47784988116314,[],"[683, 384]",ColorTask,13.0,35.0,,,HRV,HRV_0116,2022-11-30 18:40:04
,wl-rdm,43,169683,0.0-6.35-0.35,0.0,44.0,,,,,,,[],,,,,,53.2,1.0,u,0.0,False,516.2999999970198,31.0,60.0,40.0,False,,229.94017548169504,[],"[683, 384]",ColorTask,12.0,36.0,,,HRV,HRV_0116,2022-11-30 18:40:04
,wl-rdm,44,171664,0.0-6.36-0.36,0.0,45.0,,,,,,,[],,,,,,62.5,1.0,i,1.0,True,620.3000000007451,38.0,60.0,40.0,False,,297.29000500304886,[],"[683, 384]",ColorTask,13.0,37.0,,,HRV,HRV_0116,2022-11-30 18:40:04
,wl-rdm,45,173778,0.0-6.37-0.37,0.0,46.0,,,,,,,[],,,,,,56.4,1.0,u,0.0,False,767.5999999977648,47.0,60.0,40.0,False,,266.29386567218063,[],"[683, 384]",ColorTask,12.0,38.0,,,HRV,HRV_0116,2022-11-30 18:40:04
,wl-rdm,46,175726,0.0-6.38-0.38,0.0,47.0,,,,,,,[],,,,,,87.9,1.0,i,1.0,True,553.9000000022352,34.0,60.0,40.0,False,,301.146381346643,[],"[683, 384]",ColorTask,13.0,39.0,,,HRV,HRV_0116,2022-11-30 18:40:04
,wl-rdm,47,177937,0.0-6.39-0.39,0.0,48.0,,,,,,,[],,,,,,53.2,1.0,i,1.0,True,842.8000000007451,49.0,60.0,40.0,False,,292.2647494040485,[],"[683, 384]",ColorTask,14.0,40.0,,,HRV,HRV_0116,2022-11-30 18:40:04
,wl-rdm,48,179801,0.0-6.40-0.40,0.0,49.0,,,,,,,[],,,,,,73.6,1.0,i,1.0,True,547.5,32.0,60.0,40.0,False,,248.61168089126323,[],"[683, 384]",ColorTask,15.0,41.0,,,HRV,HRV_0116,2022-11-30 18:40:04
,wl-rdm,49,181973,0.0-6.41-0.41,0.0,50.0,,,,,,,[],,,,,,53.2,0.0,u,0.0,True,775.0000000037253,47.0,60.0,40.0,False,,305.3656524796031,[],"[683, 384]",ColorTask,16.0,42.0,,,HRV,HRV_0116,2022-11-30 18:40:04
,wl-rdm,50,184168,0.0-6.42-0.42,0.0,51.0,,,,,,,[],,,,,,73.6,0.0,i,1.0,False,734.1000000014901,42.0,60.0,40.0,False,,391.88872411161714,[],"[683, 384]",ColorTask,15.0,43.0,,,HRV,HRV_0116,2022-11-30 18:40:04
,wl-rdm,51,186162,0.0-6.43-0.43,0.0,52.0,,,,,,,[],,,,,,87.9,0.0,u,0.0,True,540.6999999992549,31.0,60.0,40.0,False,,381.5815236837999,[],"[683, 384]",ColorTask,16.0,44.0,,,HRV,HRV_0116,2022-11-30 18:40:04
,wl-rdm,52,188297,0.0-6.44-0.44,0.0,53.0,,,,,,,[],,,,,,62.5,1.0,i,1.0,True,797.3000000044703,48.0,60.0,40.0,False,,256.86128634467207,[],"[683, 384]",ColorTask,17.0,45.0,,,HRV,HRV_0116,2022-11-30 18:40:04
,wl-rdm,53,190662,0.0-6.45-0.45,0.0,54.0,,,,,,,[],,,,,,62.5,0.0,u,0.0,True,1020.7000000029802,61.0,60.0,40.0,False,,262.5640239523216,[],"[683, 384]",ColorTask,18.0,46.0,,,HRV,HRV_0116,2022-11-30 18:40:04
,wl-rdm,54,192677,0.0-6.46-0.46,0.0,55.0,,,,,,,[],,,,,,73.6,0.0,u,0.0,True,724.5,44.0,60.0,40.0,False,,209.5448519152461,[],"[683, 384]",ColorTask,19.0,47.0,,,HRV,HRV_0116,2022-11-30 18:40:04
,wl-rdm,55,194592,0.0-6.47-0.47,0.0,56.0,,,,,,,[],,,,,,73.6,1.0,i,1.0,True,598.5,36.0,60.0,40.0,False,,236.533280034702,[],"[683, 384]",ColorTask,20.0,48.0,,,HRV,HRV_0116,2022-11-30 18:40:04
,wl-rdm,56,196657,0.0-6.48-0.48,0.0,57.0,,,,,,,[],,,,,,56.4,0.0,u,0.0,True,710.4000000022352,43.0,60.0,40.0,False,,292.8192011051146,[],"[683, 384]",ColorTask,21.0,49.0,,,HRV,HRV_0116,2022-11-30 18:40:04
,wl-rdm,57,198688,0.0-6.49-0.49,0.0,58.0,,,,,,,[],,,,,,73.6,1.0,i,1.0,True,750.5999999977648,45.0,60.0,40.0,False,,204.6383822133481,[],"[683, 384]",ColorTask,22.0,50.0,,,HRV,HRV_0116,2022-11-30 18:40:04
,wl-rdm,58,200935,0.0-6.50-0.50,0.0,59.0,,,,,,,[],,,,,,73.6,0.0,u,0.0,True,881.1999999992549,53.0,60.0,40.0,False,,250.1018019955869,[],"[683, 384]",ColorTask,23.0,51.0,,,HRV,HRV_0116,2022-11-30 18:40:04
,wl-rdm,59,203033,0.0-6.51-0.51,0.0,60.0,,,,,,,[],,,,,,87.9,1.0,i,1.0,True,692.6000000014901,42.0,60.0,40.0,False,,333.68013170777215,[],"[683, 384]",ColorTask,24.0,52.0,,,HRV,HRV_0116,2022-11-30 18:40:04
,wl-rdm,60,205149,0.0-6.52-0.52,0.0,61.0,,,,,,,[],,,,,,62.5,0.0,i,1.0,False,720.3999999985099,44.0,60.0,40.0,False,,329.39498142142105,[],"[683, 384]",ColorTask,23.0,53.0,,,HRV,HRV_0116,2022-11-30 18:40:04
,wl-rdm,61,206875,0.0-6.53-0.53,0.0,62.0,,,,,,,[],,,,,,56.4,1.0,u,0.0,False,391.4999999962747,24.0,60.0,40.0,False,,262.08117578935656,[],"[683, 384]",ColorTask,22.0,54.0,,,HRV,HRV_0116,2022-11-30 18:40:04
,wl-rdm,62,208844,0.0-6.54-0.54,0.0,63.0,,,,,,,[],,,,,,50.0,0.0,i,1.0,False,556.6999999992549,34.0,60.0,40.0,False,,332.8930785313512,[],"[683, 384]",ColorTask,21.0,55.0,,,HRV,HRV_0116,2022-11-30 18:40:04
,wl-rdm,63,210825,0.0-6.55-0.55,0.0,64.0,,,,,,,[],,,,,,53.2,1.0,i,1.0,True,675.0000000037253,41.0,60.0,40.0,False,,223.67036068430193,[],"[683, 384]",ColorTask,22.0,56.0,,,HRV,HRV_0116,2022-11-30 18:40:04
,wl-rdm,64,212940,0.0-6.56-0.56,0.0,65.0,,,,,,,[],,,,,,73.6,0.0,i,1.0,False,818.1999999992549,49.0,60.0,40.0,False,,211.83880991794013,[],"[683, 384]",ColorTask,21.0,57.0,,,HRV,HRV_0116,2022-11-30 18:40:04
,wl-rdm,65,214755,0.0-6.57-0.57,0.0,66.0,,,,,,,[],,,,,,87.9,0.0,u,0.0,True,423.1000000014901,26.0,60.0,40.0,False,,310.11637986929276,[],"[683, 384]",ColorTask,22.0,58.0,,,HRV,HRV_0116,2022-11-30 18:40:04
,wl-rdm,66,216502,0.0-6.58-0.58,0.0,67.0,,,,,,,[],,,,,,56.4,0.0,u,0.0,True,369.69999999925494,23.0,60.0,40.0,False,,299.0764590767414,[],"[683, 384]",ColorTask,23.0,59.0,,,HRV,HRV_0116,2022-11-30 18:40:04
,wl-rdm,67,218334,0.0-6.59-0.59,0.0,68.0,,,,,,,[],,,,,,53.2,0.0,u,0.0,True,443.0000000037253,27.0,60.0,40.0,False,,318.2206351309036,[],"[683, 384]",ColorTask,24.0,60.0,,,HRV,HRV_0116,2022-11-30 18:40:04
,wl-rdm,68,220179,0.0-6.60-0.60,0.0,69.0,,,,,,,[],,,,,,53.2,0.0,u,0.0,True,420.8999999985099,24.0,60.0,40.0,False,,336.0180957577458,[],"[683, 384]",ColorTask,25.0,61.0,,,HRV,HRV_0116,2022-11-30 18:40:04
,wl-rdm,69,221830,0.0-6.61-0.61,0.0,70.0,,,,,,,[],,,,,,73.6,1.0,u,0.0,False,359.0000000037253,21.0,60.0,40.0,False,,217.97906377265278,[],"[683, 384]",ColorTask,24.0,62.0,,,HRV,HRV_0116,2022-11-30 18:40:04
,wl-rdm,70,223263,0.0-6.62-0.62,0.0,70.0,,,,,,,[],,,,,,50.0,1.0,u,0.0,False,88.0,6.0,60.0,40.0,True,too_early ,280.32691002303983,[],"[683, 384]",ColorTask,23.0,63.0,,,HRV,HRV_0116,2022-11-30 18:40:04
,wl-rdm,71,224795,0.0-6.63-0.63,0.0,71.0,,,,,,,[],,,,,,87.9,1.0,i,1.0,True,189.80000000074506,12.0,60.0,40.0,False,,258.48184145309057,[],"[683, 384]",ColorTask,24.0,64.0,,,HRV,HRV_0116,2022-11-30 18:40:04
,wl-rdm,72,227056,0.0-6.64-0.64,0.0,72.0,,,,,,,[],,,,,,50.0,0.0,i,1.0,False,806.5,49.0,60.0,40.0,False,,375.44949859285714,[],"[683, 384]",ColorTask,23.0,65.0,,,HRV,HRV_0116,2022-11-30 18:40:04
,wl-rdm,73,228937,0.0-6.65-0.65,0.0,73.0,,,,,,,[],,,,,,87.9,0.0,u,0.0,True,449.3999999985099,27.0,60.0,40.0,False,,361.31440618080745,[],"[683, 384]",ColorTask,24.0,66.0,,,HRV,HRV_0116,2022-11-30 18:40:04
,wl-rdm,74,231068,0.0-6.66-0.66,0.0,74.0,,,,,,,[],,,,,,50.0,0.0,i,1.0,False,822.5,50.0,60.0,40.0,False,,230.49832341075887,[],"[683, 384]",ColorTask,23.0,67.0,,,HRV,HRV_0116,2022-11-30 18:40:04
,wl-rdm,75,233087,0.0-6.67-0.67,0.0,75.0,,,,,,,[],,,,,,87.9,0.0,u,0.0,True,720.5,44.0,60.0,40.0,False,,203.65502512015942,[],"[683, 384]",ColorTask,24.0,68.0,,,HRV,HRV_0116,2022-11-30 18:40:04
,wl-rdm,76,235118,0.0-6.68-0.68,0.0,76.0,,,,,,,[],,,,,,73.6,0.0,u,0.0,True,737.9000000022352,45.0,60.0,40.0,False,,204.65062919624174,[],"[683, 384]",ColorTask,25.0,69.0,,,HRV,HRV_0116,2022-11-30 18:40:04
,wl-rdm,77,237061,0.0-6.69-0.69,0.0,77.0,,,,,,,[],,,,,,73.6,0.0,u,0.0,True,497.30000000447035,31.0,60.0,40.0,False,,357.57760392931164,[],"[683, 384]",ColorTask,26.0,70.0,,,HRV,HRV_0116,2022-11-30 18:40:04
,wl-rdm,78,238776,0.0-6.70-0.70,0.0,78.0,,,,,,,[],,,,,,87.9,1.0,u,0.0,False,413.19999999552965,25.0,60.0,40.0,False,,244.77937729450298,[],"[683, 384]",ColorTask,25.0,71.0,,,HRV,HRV_0116,2022-11-30 18:40:04
,wl-rdm,79,240641,0.0-6.71-0.71,0.0,79.0,,,,,,,[],,,,,,50.0,1.0,i,1.0,True,545.9000000022352,33.0,60.0,40.0,False,,244.50714772625363,[],"[683, 384]",ColorTask,26.0,72.0,,,HRV,HRV_0116,2022-11-30 18:40:04
,wl-rdm,80,242607,0.0-6.72-0.72,0.0,80.0,,,,,,,[],,,,,,56.4,1.0,i,1.0,True,635.1000000014901,38.0,60.0,40.0,False,,255.6728736978597,[],"[683, 384]",ColorTask,27.0,73.0,,,HRV,HRV_0116,2022-11-30 18:40:04
,wl-rdm,81,244688,0.0-6.73-0.73,0.0,81.0,,,,,,,[],,,,,,53.2,0.0,i,1.0,False,707.6999999992549,43.0,60.0,40.0,False,,299.3791109017209,[],"[683, 384]",ColorTask,26.0,74.0,,,HRV,HRV_0116,2022-11-30 18:40:04
,wl-rdm,82,247089,0.0-6.74-0.74,0.0,82.0,,,,,,,[],,,,,,53.2,0.0,u,0.0,True,920.5,56.0,60.0,40.0,False,,397.53765137543803,[],"[683, 384]",ColorTask,27.0,75.0,,,HRV,HRV_0116,2022-11-30 18:40:04
,wl-rdm,83,248937,0.0-6.75-0.75,0.0,83.0,,,,,,,[],,,,,,87.9,0.0,i,1.0,False,454.0000000037253,28.0,60.0,40.0,False,,309.5621998001891,[],"[683, 384]",ColorTask,26.0,76.0,,,HRV,HRV_0116,2022-11-30 18:40:04
,wl-rdm,84,250965,0.0-6.76-0.76,0.0,84.0,,,,,,,[],,,,,,62.5,0.0,i,1.0,False,718.6000000014901,43.0,60.0,40.0,False,,245.134761605833,[],"[683, 384]",ColorTask,25.0,77.0,,,HRV,HRV_0116,2022-11-30 18:40:04
,wl-rdm,85,252900,0.0-6.77-0.77,0.0,85.0,,,,,,,[],,,,,,87.9,0.0,u,0.0,True,624.7999999970198,38.0,60.0,40.0,False,,229.94999878371036,[],"[683, 384]",ColorTask,26.0,78.0,,,HRV,HRV_0116,2022-11-30 18:40:04
,wl-rdm,86,255145,0.0-6.78-0.78,0.0,86.0,,,,,,,[],,,,,,73.6,0.0,u,0.0,True,795.6999999992549,48.0,60.0,40.0,False,,368.96310404992965,[],"[683, 384]",ColorTask,27.0,79.0,,,HRV,HRV_0116,2022-11-30 18:40:04
,wl-rdm,87,257343,0.0-6.79-0.79,0.0,87.0,,,,,,,[],,,,,,50.0,0.0,u,0.0,True,753.6000000014901,46.0,60.0,40.0,False,,360.67797485913087,[],"[683, 384]",ColorTask,28.0,80.0,,,HRV,HRV_0116,2022-11-30 18:40:04
,wl-rdm,88,259411,0.0-6.80-0.80,0.0,88.0,,,,,,,[],,,,,,50.0,0.0,u,0.0,True,739.4999999962747,45.0,60.0,40.0,False,,253.4651509954541,[],"[683, 384]",ColorTask,29.0,81.0,,,HRV,HRV_0116,2022-11-30 18:40:04
,wl-rdm,89,261475,0.0-6.81-0.81,0.0,89.0,,,,,,,[],,,,,,62.5,0.0,u,0.0,True,674.4000000022352,41.0,60.0,40.0,False,,303.05688819937325,[],"[683, 384]",ColorTask,30.0,82.0,,,HRV,HRV_0116,2022-11-30 18:40:04
,wl-rdm,90,263653,0.0-6.82-0.82,0.0,90.0,,,,,,,[],,,,,,53.2,1.0,u,0.0,False,827.3999999985099,50.0,60.0,40.0,False,,277.4283343827132,[],"[683, 384]",ColorTask,29.0,83.0,,,HRV,HRV_0116,2022-11-30 18:40:04
,wl-rdm,91,265705,0.0-6.83-0.83,0.0,91.0,,,,,,,[],,,,,,62.5,1.0,i,1.0,True,697.3999999985099,42.0,60.0,40.0,False,,288.13141313913405,[],"[683, 384]",ColorTask,30.0,84.0,,,HRV,HRV_0116,2022-11-30 18:40:04
,wl-rdm,92,267785,0.0-6.84-0.84,0.0,92.0,,,,,,,[],,,,,,56.4,1.0,i,1.0,True,757.7000000029802,45.0,60.0,40.0,False,,264.14480314500355,[],"[683, 384]",ColorTask,31.0,85.0,,,HRV,HRV_0116,2022-11-30 18:40:04
,wl-rdm,93,269933,0.0-6.85-0.85,0.0,93.0,,,,,,,[],,,,,,56.4,0.0,i,1.0,False,854.5,51.0,60.0,40.0,False,,210.3111768961595,[],"[683, 384]",ColorTask,30.0,86.0,,,HRV,HRV_0116,2022-11-30 18:40:04
,wl-rdm,94,271484,0.0-6.86-0.86,0.0,94.0,,,,,,,[],,,,,,56.4,0.0,u,0.0,True,103.89999999850988,7.0,60.0,40.0,False,,337.6052821860488,[],"[683, 384]",ColorTask,31.0,87.0,,,HRV,HRV_0116,2022-11-30 18:40:04
,wl-rdm,95,273343,0.0-6.87-0.87,0.0,95.0,,,,,,,[],,,,,,56.4,1.0,u,0.0,False,421.1000000014901,26.0,60.0,40.0,False,,361.2484782201253,[],"[683, 384]",ColorTask,30.0,88.0,,,HRV,HRV_0116,2022-11-30 18:40:04
,wl-rdm,96,275611,0.0-6.88-0.88,0.0,96.0,,,,,,,[],,,,,,62.5,0.0,i,1.0,False,873.3999999985099,53.0,60.0,40.0,False,,323.54776333376924,[],"[683, 384]",ColorTask,29.0,89.0,,,HRV,HRV_0116,2022-11-30 18:40:04
,wl-rdm,97,278155,0.0-6.89-0.89,0.0,97.0,,,,,,,[],,,,,,53.2,1.0,i,1.0,True,1104.1000000014901,64.0,60.0,40.0,False,,364.24309664763757,[],"[683, 384]",ColorTask,30.0,90.0,,,HRV,HRV_0116,2022-11-30 18:40:04
,wl-rdm,98,280124,0.0-6.90-0.90,0.0,98.0,,,,,,,[],,,,,,53.2,1.0,i,1.0,True,587.3000000007451,34.0,60.0,40.0,False,,310.1026263154022,[],"[683, 384]",ColorTask,31.0,91.0,,,HRV,HRV_0116,2022-11-30 18:40:04
,wl-rdm,99,282005,0.0-6.91-0.91,0.0,99.0,,,,,,,[],,,,,,56.4,0.0,u,0.0,True,503.80000000074506,29.0,60.0,40.0,False,,296.4905794892663,[],"[683, 384]",ColorTask,32.0,92.0,,,HRV,HRV_0116,2022-11-30 18:40:04
,wl-rdm,100,283987,0.0-6.92-0.92,0.0,100.0,,,,,,,[],,,,,,56.4,0.0,i,1.0,False,704.6000000014901,42.0,60.0,40.0,False,,202.5486712941281,[],"[683, 384]",ColorTask,31.0,93.0,,,HRV,HRV_0116,2022-11-30 18:40:04
,wl-rdm,101,285784,0.0-6.93-0.93,0.0,101.0,,,,,,,[],,,,,,87.9,1.0,u,0.0,False,507.8999999985099,30.0,60.0,40.0,False,,214.27604403048363,[],"[683, 384]",ColorTask,30.0,94.0,,,HRV,HRV_0116,2022-11-30 18:40:04
,wl-rdm,102,287680,0.0-6.94-0.94,0.0,102.0,,,,,,,[],,,,,,73.6,1.0,i,1.0,True,548.5999999977648,33.0,60.0,40.0,False,,275.1932959324579,[],"[683, 384]",ColorTask,31.0,95.0,,,HRV,HRV_0116,2022-11-30 18:40:04
,wl-rdm,103,290693,0.0-6.95-0.95,0.0,103.0,,,,,,,[],,,,,,87.9,1.0,i,1.0,True,1621.300000000745,97.0,60.0,40.0,False,,306.3767473180534,[],"[683, 384]",ColorTask,32.0,96.0,,,HRV,HRV_0116,2022-11-30 18:40:04
,wl-rdm,104,292957,0.0-6.96-0.96,0.0,104.0,,,,,,,[],,,,,,50.0,1.0,i,1.0,True,860.5,52.0,60.0,40.0,False,,316.7490743444365,[],"[683, 384]",ColorTask,33.0,97.0,,,HRV,HRV_0116,2022-11-30 18:40:04
,wl-rdm,105,295057,0.0-6.97-0.97,0.0,105.0,,,,,,,[],,,,,,56.4,1.0,i,1.0,True,779.1999999992549,47.0,60.0,40.0,False,,248.63015196118795,[],"[683, 384]",ColorTask,34.0,98.0,,,HRV,HRV_0116,2022-11-30 18:40:04
,wl-rdm,106,297261,0.0-6.98-0.98,0.0,106.0,,,,,,,[],,,,,,56.4,0.0,i,1.0,False,807.4999999962747,49.0,60.0,40.0,False,,268.1264348298322,[],"[683, 384]",ColorTask,33.0,99.0,,,HRV,HRV_0116,2022-11-30 18:40:04
,wl-rdm,107,299205,0.0-6.99-0.99,0.0,107.0,,,,,,,[],,,,,,73.6,1.0,u,0.0,False,570.5,35.0,60.0,40.0,False,,282.22637619192193,[],"[683, 384]",ColorTask,32.0,100.0,,,HRV,HRV_0116,2022-11-30 18:40:04
,wl-rdm,108,301270,0.0-6.100-0.100,0.0,108.0,,,,,,,[],,,,,,62.5,1.0,i,1.0,True,687.3000000044703,42.0,60.0,40.0,False,,305.3674469471389,[],"[683, 384]",ColorTask,33.0,101.0,,,HRV,HRV_0116,2022-11-30 18:40:04
,wl-rdm,109,304166,0.0-6.101-0.101,0.0,109.0,,,,,,,[],,,,,,62.5,0.0,i,1.0,False,1535.5,92.0,60.0,40.0,False,,295.1857372218277,[],"[683, 384]",ColorTask,32.0,102.0,,,HRV,HRV_0116,2022-11-30 18:40:04
,wl-rdm,110,306394,0.0-6.102-0.102,0.0,110.0,,,,,,,[],,,,,,62.5,1.0,i,1.0,True,935.4999999962747,55.0,60.0,40.0,False,,202.9951159121304,[],"[683, 384]",ColorTask,33.0,103.0,,,HRV,HRV_0116,2022-11-30 18:40:04
,wl-rdm,111,308329,0.0-6.103-0.103,0.0,111.0,,,,,,,[],,,,,,53.2,0.0,i,1.0,False,650.5999999977648,39.0,60.0,40.0,False,,211.79307809912447,[],"[683, 384]",ColorTask,32.0,104.0,,,HRV,HRV_0116,2022-11-30 18:40:04
,wl-rdm,112,310311,0.0-6.104-0.104,0.0,112.0,,,,,,,[],,,,,,87.9,1.0,u,0.0,False,670.0999999977648,39.0,60.0,40.0,False,,226.70181057305072,[],"[683, 384]",ColorTask,31.0,105.0,,,HRV,HRV_0116,2022-11-30 18:40:04
,wl-rdm,113,312271,0.0-6.105-0.105,0.0,113.0,,,,,,,[],,,,,,62.5,1.0,i,1.0,True,652.8000000007451,38.0,60.0,40.0,False,,221.93039791125597,[],"[683, 384]",ColorTask,32.0,106.0,,,HRV,HRV_0116,2022-11-30 18:40:04
,wl-rdm,114,314440,0.0-6.106-0.106,0.0,114.0,,,,,,,[],,,,,,50.0,1.0,i,1.0,True,768.9999999962747,45.0,60.0,40.0,False,,327.9796730388288,[],"[683, 384]",ColorTask,33.0,107.0,,,HRV,HRV_0116,2022-11-30 18:40:04
,wl-rdm,115,316687,0.0-6.107-0.107,0.0,115.0,,,,,,,[],,,,,,62.5,1.0,i,1.0,True,815.1000000014901,49.0,60.0,40.0,False,,364.4835115682744,[],"[683, 384]",ColorTask,34.0,108.0,,,HRV,HRV_0116,2022-11-30 18:40:04
,wl-rdm,116,319034,0.0-6.108-0.108,0.0,116.0,,,,,,,[],,,,,,62.5,0.0,i,1.0,False,921.4000000022352,56.0,60.0,40.0,False,,334.44434009073154,[],"[683, 384]",ColorTask,33.0,109.0,,,HRV,HRV_0116,2022-11-30 18:40:04
,wl-html-keyboard-response,117,326569,0.0-7.0-0.0,1.0,117.0,,,,,,,,5520.0,1.0,0,,,,,,,,,,,,,,,,,,,,,,HRV,HRV_0116,2022-11-30 18:40:04
,wl-rdm,118,328909,0.0-8.0-0.0,1.0,118.0,,,,,,,[],,,,,,62.5,0.0,u,0.0,True,956.6999999992549,58.0,60.0,40.0,False,,288.38725294845005,[],"[683, 384]",ColorTask,34.0,1.0,,,HRV,HRV_0116,2022-11-30 18:40:04
,wl-rdm,119,331171,0.0-8.1-0.1,1.0,119.0,,,,,,,[],,,,,,53.2,0.0,i,1.0,False,804.5,49.0,60.0,40.0,False,,372.20220673423364,[],"[683, 384]",ColorTask,33.0,2.0,,,HRV,HRV_0116,2022-11-30 18:40:04
,wl-rdm,120,333169,0.0-8.2-0.2,1.0,120.0,,,,,,,[],,,,,,50.0,1.0,u,0.0,False,623.1000000014901,38.0,60.0,40.0,False,,294.11906448809907,[],"[683, 384]",ColorTask,32.0,3.0,,,HRV,HRV_0116,2022-11-30 18:40:04
,wl-rdm,121,335271,0.0-8.3-0.3,1.0,121.0,,,,,,,[],,,,,,56.4,1.0,i,1.0,True,782.6000000014901,47.0,60.0,40.0,False,,261.6980500184237,[],"[683, 384]",ColorTask,33.0,4.0,,,HRV,HRV_0116,2022-11-30 18:40:04
,wl-rdm,122,337929,0.0-8.4-0.4,1.0,122.0,,,,,,,[],,,,,,62.5,1.0,i,1.0,True,1162.199999999255,69.0,60.0,40.0,False,,384.1894542679903,[],"[683, 384]",ColorTask,34.0,5.0,,,HRV,HRV_0116,2022-11-30 18:40:04
,wl-rdm,123,340060,0.0-8.5-0.5,1.0,123.0,,,,,,,[],,,,,,53.2,0.0,i,1.0,False,772.8999999985099,46.0,60.0,40.0,False,,266.64432357642517,[],"[683, 384]",ColorTask,33.0,6.0,,,HRV,HRV_0116,2022-11-30 18:40:04
,wl-rdm,124,342610,0.0-8.6-0.6,1.0,124.0,,,,,,,[],,,,,,62.5,0.0,i,1.0,False,1253.2999999970198,74.0,60.0,40.0,False,,230.14022246447604,[],"[683, 384]",ColorTask,32.0,7.0,,,HRV,HRV_0116,2022-11-30 18:40:04
,wl-rdm,125,344606,0.0-8.7-0.7,1.0,125.0,,,,,,,[],,,,,,50.0,0.0,u,0.0,True,660.3999999985099,40.0,60.0,40.0,False,,259.1403237337515,[],"[683, 384]",ColorTask,33.0,8.0,,,HRV,HRV_0116,2022-11-30 18:40:04
,wl-rdm,126,346425,0.0-8.8-0.8,1.0,126.0,,,,,,,[],,,,,,62.5,0.0,u,0.0,True,390.30000000447035,24.0,60.0,40.0,False,,339.184438478144,[],"[683, 384]",ColorTask,34.0,9.0,,,HRV,HRV_0116,2022-11-30 18:40:04
,wl-rdm,127,348435,0.0-8.9-0.9,1.0,127.0,,,,,,,[],,,,,,53.2,1.0,u,0.0,False,621.5,38.0,60.0,40.0,False,,297.16445942923764,[],"[683, 384]",ColorTask,33.0,10.0,,,HRV,HRV_0116,2022-11-30 18:40:04
,wl-rdm,128,350787,0.0-8.10-0.10,1.0,128.0,,,,,,,[],,,,,,50.0,0.0,u,0.0,True,996.0,60.0,60.0,40.0,False,,278.6990777080939,[],"[683, 384]",ColorTask,34.0,11.0,,,HRV,HRV_0116,2022-11-30 18:40:04
,wl-rdm,129,353283,0.0-8.11-0.11,1.0,129.0,,,,,,,[],,,,,,73.6,0.0,i,1.0,False,1040.7999999970198,63.0,60.0,40.0,False,,361.10237989693996,[],"[683, 384]",ColorTask,33.0,12.0,,,HRV,HRV_0116,2022-11-30 18:40:04
,wl-rdm,130,355380,0.0-8.12-0.12,1.0,130.0,,,,,,,[],,,,,,73.6,1.0,i,1.0,True,805.8999999985099,49.0,60.0,40.0,False,,216.43238383567135,[],"[683, 384]",ColorTask,34.0,13.0,,,HRV,HRV_0116,2022-11-30 18:40:04
,wl-rdm,131,357698,0.0-8.13-0.13,1.0,131.0,,,,,,,[],,,,,,73.6,1.0,i,1.0,True,971.0999999977648,59.0,60.0,40.0,False,,267.27479576774004,[],"[683, 384]",ColorTask,35.0,14.0,,,HRV,HRV_0116,2022-11-30 18:40:04
,wl-rdm,132,360061,0.0-8.14-0.14,1.0,132.0,,,,,,,[],,,,,,62.5,0.0,u,0.0,True,975.8999999985099,57.0,60.0,40.0,False,,296.2802879645207,[],"[683, 384]",ColorTask,36.0,15.0,,,HRV,HRV_0116,2022-11-30 18:40:04
,wl-rdm,133,362176,0.0-8.15-0.15,1.0,133.0,,,,,,,[],,,,,,56.4,0.0,i,1.0,False,756.3999999985099,44.0,60.0,40.0,False,,274.37084950328824,[],"[683, 384]",ColorTask,35.0,16.0,,,HRV,HRV_0116,2022-11-30 18:40:04
,wl-rdm,134,364024,0.0-8.16-0.16,1.0,134.0,,,,,,,[],,,,,,56.4,0.0,u,0.0,True,556.6999999992549,33.0,60.0,40.0,False,,214.03689143299704,[],"[683, 384]",ColorTask,36.0,17.0,,,HRV,HRV_0116,2022-11-30 18:40:04
,wl-rdm,135,366221,0.0-8.17-0.17,1.0,135.0,,,,,,,[],,,,,,56.4,1.0,u,0.0,False,820.8999999985099,49.0,60.0,40.0,False,,295.5168451335761,[],"[683, 384]",ColorTask,35.0,18.0,,,HRV,HRV_0116,2022-11-30 18:40:04
,wl-rdm,136,368033,0.0-8.18-0.18,1.0,136.0,,,,,,,[],,,,,,73.6,0.0,i,1.0,False,419.4999999962747,24.0,60.0,40.0,False,,311.28993744672965,[],"[683, 384]",ColorTask,34.0,19.0,,,HRV,HRV_0116,2022-11-30 18:40:04
,wl-rdm,137,370213,0.0-8.19-0.19,1.0,137.0,,,,,,,[],,,,,,62.5,1.0,i,1.0,True,815.8999999985099,48.0,60.0,40.0,False,,287.5194111868692,[],"[683, 384]",ColorTask,35.0,20.0,,,HRV,HRV_0116,2022-11-30 18:40:04
,wl-rdm,138,372345,0.0-8.20-0.20,1.0,138.0,,,,,,,[],,,,,,50.0,1.0,i,1.0,True,811.5000000037253,48.0,60.0,40.0,False,,243.06130405837843,[],"[683, 384]",ColorTask,36.0,21.0,,,HRV,HRV_0116,2022-11-30 18:40:04
,wl-rdm,139,374447,0.0-8.21-0.21,1.0,139.0,,,,,,,[],,,,,,53.2,0.0,i,1.0,False,820.8999999985099,49.0,60.0,40.0,False,,205.86111752540813,[],"[683, 384]",ColorTask,35.0,22.0,,,HRV,HRV_0116,2022-11-30 18:40:04
,wl-rdm,140,376394,0.0-8.22-0.22,1.0,140.0,,,,,,,[],,,,,,73.6,1.0,u,0.0,False,606.1999999992549,37.0,60.0,40.0,False,,266.613631909988,[],"[683, 384]",ColorTask,34.0,23.0,,,HRV,HRV_0116,2022-11-30 18:40:04
,wl-rdm,141,378377,0.0-8.23-0.23,1.0,141.0,,,,,,,[],,,,,,50.0,0.0,i,1.0,False,687.0,39.0,60.0,40.0,False,,201.04788666172755,[],"[683, 384]",ColorTask,33.0,24.0,,,HRV,HRV_0116,2022-11-30 18:40:04
,wl-rdm,142,381275,0.0-8.24-0.24,1.0,142.0,,,,,,,[],,,,,,50.0,1.0,i,1.0,True,1558.199999999255,93.0,60.0,40.0,False,,252.53906361458542,[],"[683, 384]",ColorTask,34.0,25.0,,,HRV,HRV_0116,2022-11-30 18:40:04
,wl-rdm,143,383538,0.0-8.25-0.25,1.0,143.0,,,,,,,[],,,,,,50.0,1.0,i,1.0,True,941.5999999977648,57.0,60.0,40.0,False,,235.21912887801332,[],"[683, 384]",ColorTask,35.0,26.0,,,HRV,HRV_0116,2022-11-30 18:40:04
,wl-rdm,144,386168,0.0-8.26-0.26,1.0,144.0,,,,,,,[],,,,,,87.9,0.0,u,0.0,True,1276.0,76.0,60.0,40.0,False,,274.8233001720595,[],"[683, 384]",ColorTask,36.0,27.0,,,HRV,HRV_0116,2022-11-30 18:40:04
,wl-rdm,145,388799,0.0-8.27-0.27,1.0,145.0,,,,,,,[],,,,,,50.0,0.0,i,1.0,False,1326.4000000022352,78.0,60.0,40.0,False,,239.32224799322927,[],"[683, 384]",ColorTask,35.0,28.0,,,HRV,HRV_0116,2022-11-30 18:40:04
,wl-rdm,146,391281,0.0-8.28-0.28,1.0,146.0,,,,,,,[],,,,,,73.6,1.0,i,1.0,True,1195.9999999962747,72.0,60.0,40.0,False,,224.1898437766999,[],"[683, 384]",ColorTask,36.0,29.0,,,HRV,HRV_0116,2022-11-30 18:40:04
,wl-rdm,147,393561,0.0-8.29-0.29,1.0,147.0,,,,,,,[],,,,,,73.6,0.0,u,0.0,True,939.6999999992549,57.0,60.0,40.0,False,,259.430279931951,[],"[683, 384]",ColorTask,37.0,30.0,,,HRV,HRV_0116,2022-11-30 18:40:04
,wl-rdm,148,395872,0.0-8.30-0.30,1.0,148.0,,,,,,,[],,,,,,87.9,1.0,i,1.0,True,1009.4000000022352,58.0,60.0,40.0,False,,225.06494723306204,[],"[683, 384]",ColorTask,38.0,31.0,,,HRV,HRV_0116,2022-11-30 18:40:04
,wl-rdm,149,397990,0.0-8.31-0.31,1.0,149.0,,,,,,,[],,,,,,53.2,1.0,i,1.0,True,833.3999999985099,50.0,60.0,40.0,False,,204.27956907534104,[],"[683, 384]",ColorTask,39.0,32.0,,,HRV,HRV_0116,2022-11-30 18:40:04
,wl-rdm,150,400234,0.0-8.32-0.32,1.0,150.0,,,,,,,[],,,,,,87.9,0.0,u,0.0,True,902.5000000037253,53.0,60.0,40.0,False,,264.8719074030104,[],"[683, 384]",ColorTask,40.0,33.0,,,HRV,HRV_0116,2022-11-30 18:40:04
,wl-rdm,151,402451,0.0-8.33-0.33,1.0,151.0,,,,,,,[],,,,,,62.5,0.0,u,0.0,True,916.5999999977648,54.0,60.0,40.0,False,,230.0642425972886,[],"[683, 384]",ColorTask,41.0,34.0,,,HRV,HRV_0116,2022-11-30 18:40:04
,wl-rdm,152,405166,0.0-8.34-0.34,1.0,152.0,,,,,,,[],,,,,,56.4,0.0,u,0.0,True,1402.8999999985099,83.0,60.0,40.0,False,,226.96721172740337,[],"[683, 384]",ColorTask,42.0,35.0,,,HRV,HRV_0116,2022-11-30 18:40:04
,wl-rdm,153,407443,0.0-8.35-0.35,1.0,153.0,,,,,,,[],,,,,,56.4,1.0,i,1.0,True,978.5,59.0,60.0,40.0,False,,232.72387417635247,[],"[683, 384]",ColorTask,43.0,36.0,,,HRV,HRV_0116,2022-11-30 18:40:04
,wl-rdm,154,409691,0.0-8.36-0.36,1.0,154.0,,,,,,,[],,,,,,53.2,1.0,i,1.0,True,957.7999999970198,58.0,60.0,40.0,False,,215.39553295154926,[],"[683, 384]",ColorTask,44.0,37.0,,,HRV,HRV_0116,2022-11-30 18:40:04
,wl-rdm,155,412027,0.0-8.37-0.37,1.0,155.0,,,,,,,[],,,,,,87.9,0.0,u,0.0,True,975.2000000029802,58.0,60.0,40.0,False,,268.23902606504305,[],"[683, 384]",ColorTask,45.0,38.0,,,HRV,HRV_0116,2022-11-30 18:40:04
,wl-rdm,156,414707,0.0-8.38-0.38,1.0,156.0,,,,,,,[],,,,,,53.2,1.0,i,1.0,True,1246.2999999970198,74.0,60.0,40.0,False,,362.9617601936607,[],"[683, 384]",ColorTask,46.0,39.0,,,HRV,HRV_0116,2022-11-30 18:40:04
,wl-rdm,157,417217,0.0-8.39-0.39,1.0,157.0,,,,,,,[],,,,,,62.5,1.0,i,1.0,True,1062.6000000014901,64.0,60.0,40.0,False,,328.0875694917628,[],"[683, 384]",ColorTask,47.0,40.0,,,HRV,HRV_0116,2022-11-30 18:40:04
,wl-rdm,158,419261,0.0-8.40-0.40,1.0,158.0,,,,,,,[],,,,,,87.9,1.0,i,1.0,True,710.8999999985099,43.0,60.0,40.0,False,,229.3496371403925,[],"[683, 384]",ColorTask,48.0,41.0,,,HRV,HRV_0116,2022-11-30 18:40:04
,wl-rdm,159,421286,0.0-8.41-0.41,1.0,159.0,,,,,,,[],,,,,,87.9,1.0,i,1.0,True,641.3999999947846,39.0,60.0,40.0,False,,280.05465998727277,[],"[683, 384]",ColorTask,49.0,42.0,,,HRV,HRV_0116,2022-11-30 18:40:04
,wl-rdm,160,423481,0.0-8.42-0.42,1.0,160.0,,,,,,,[],,,,,,56.4,0.0,i,1.0,False,888.0000000037253,54.0,60.0,40.0,False,,246.6914244548124,[],"[683, 384]",ColorTask,48.0,43.0,,,HRV,HRV_0116,2022-11-30 18:40:04
,wl-rdm,161,425447,0.0-8.43-0.43,1.0,161.0,,,,,,,[],,,,,,53.2,0.0,u,0.0,True,652.8999999985099,40.0,60.0,40.0,False,,242.93324106808222,[],"[683, 384]",ColorTask,49.0,44.0,,,HRV,HRV_0116,2022-11-30 18:40:04
,wl-rdm,162,427577,0.0-8.44-0.44,1.0,162.0,,,,,,,[],,,,,,50.0,1.0,u,0.0,False,787.5,48.0,60.0,40.0,False,,250.18260001529208,[],"[683, 384]",ColorTask,48.0,45.0,,,HRV,HRV_0116,2022-11-30 18:40:04
,wl-rdm,163,429459,0.0-8.45-0.45,1.0,163.0,,,,,,,[],,,,,,73.6,0.0,i,1.0,False,487.0000000037253,30.0,60.0,40.0,False,,306.51097282264766,[],"[683, 384]",ColorTask,47.0,46.0,,,HRV,HRV_0116,2022-11-30 18:40:04
,wl-rdm,164,431973,0.0-8.46-0.46,1.0,164.0,,,,,,,[],,,,,,73.6,1.0,i,1.0,True,1074.4000000022352,64.0,60.0,40.0,False,,360.454644763569,[],"[683, 384]",ColorTask,48.0,47.0,,,HRV,HRV_0116,2022-11-30 18:40:04
,wl-rdm,165,434434,0.0-8.47-0.47,1.0,165.0,,,,,,,[],,,,,,53.2,1.0,u,0.0,False,1022.8000000007451,60.0,60.0,40.0,False,,361.43500088464526,[],"[683, 384]",ColorTask,47.0,48.0,,,HRV,HRV_0116,2022-11-30 18:40:04
,wl-rdm,166,436469,0.0-8.48-0.48,1.0,166.0,,,,,,,[],,,,,,50.0,1.0,i,1.0,True,691.5000000037253,42.0,60.0,40.0,False,,258.0625748639768,[],"[683, 384]",ColorTask,48.0,49.0,,,HRV,HRV_0116,2022-11-30 18:40:04
,wl-rdm,167,439067,0.0-8.49-0.49,1.0,167.0,,,,,,,[],,,,,,56.4,0.0,u,0.0,True,1237.2000000029802,75.0,60.0,40.0,False,,277.31683307628043,[],"[683, 384]",ColorTask,49.0,50.0,,,HRV,HRV_0116,2022-11-30 18:40:04
,wl-rdm,168,441280,0.0-8.50-0.50,1.0,168.0,,,,,,,[],,,,,,73.6,1.0,i,1.0,True,894.8000000007451,54.0,60.0,40.0,False,,206.86344416975598,[],"[683, 384]",ColorTask,50.0,51.0,,,HRV,HRV_0116,2022-11-30 18:40:04
,wl-rdm,169,444511,0.0-8.51-0.51,1.0,169.0,,,,,,,[],,,,,,53.2,1.0,i,1.0,True,1911.5999999977648,113.0,60.0,40.0,False,,249.47663021569235,[],"[683, 384]",ColorTask,51.0,52.0,,,HRV,HRV_0116,2022-11-30 18:40:04
,wl-rdm,170,447041,0.0-8.52-0.52,1.0,170.0,,,,,,,[],,,,,,62.5,1.0,i,1.0,True,1168.800000000745,71.0,60.0,40.0,False,,271.0469725009174,[],"[683, 384]",ColorTask,52.0,53.0,,,HRV,HRV_0116,2022-11-30 18:40:04
,wl-rdm,171,449489,0.0-8.53-0.53,1.0,171.0,,,,,,,[],,,,,,50.0,0.0,i,1.0,False,1136.1000000014901,69.0,60.0,40.0,False,,221.26796973205126,[],"[683, 384]",ColorTask,51.0,54.0,,,HRV,HRV_0116,2022-11-30 18:40:04
,wl-rdm,172,451737,0.0-8.54-0.54,1.0,172.0,,,,,,,[],,,,,,53.2,1.0,u,0.0,False,886.3999999947846,54.0,60.0,40.0,False,,282.9287497921148,[],"[683, 384]",ColorTask,50.0,55.0,,,HRV,HRV_0116,2022-11-30 18:40:04
,wl-rdm,173,454118,0.0-8.55-0.55,1.0,173.0,,,,,,,[],,,,,,73.6,0.0,u,0.0,True,1094.6000000014901,65.0,60.0,40.0,False,,203.4628908936277,[],"[683, 384]",ColorTask,51.0,56.0,,,HRV,HRV_0116,2022-11-30 18:40:04
,wl-rdm,174,456816,0.0-8.56-0.56,1.0,174.0,,,,,,,[],,,,,,62.5,1.0,i,1.0,True,1219.800000000745,72.0,60.0,40.0,False,,386.9816881588173,[],"[683, 384]",ColorTask,52.0,57.0,,,HRV,HRV_0116,2022-11-30 18:40:04
,wl-rdm,175,459363,0.0-8.57-0.57,1.0,175.0,,,,,,,[],,,,,,53.2,1.0,i,1.0,True,1100.2999999970198,66.0,60.0,40.0,False,,374.6057636641631,[],"[683, 384]",ColorTask,53.0,58.0,,,HRV,HRV_0116,2022-11-30 18:40:04
,wl-rdm,176,461441,0.0-8.58-0.58,1.0,176.0,,,,,,,[],,,,,,56.4,1.0,i,1.0,True,763.7000000029802,46.0,60.0,40.0,False,,244.11667540925131,[],"[683, 384]",ColorTask,54.0,59.0,,,HRV,HRV_0116,2022-11-30 18:40:04
,wl-rdm,177,463572,0.0-8.59-0.59,1.0,177.0,,,,,,,[],,,,,,56.4,1.0,i,1.0,True,826.9000000022352,50.0,60.0,40.0,False,,232.30506491494307,[],"[683, 384]",ColorTask,55.0,60.0,,,HRV,HRV_0116,2022-11-30 18:40:04
,wl-rdm,178,465824,0.0-8.60-0.60,1.0,178.0,,,,,,,[],,,,,,56.4,0.0,u,0.0,True,946.0,57.0,60.0,40.0,False,,224.35962512834587,[],"[683, 384]",ColorTask,56.0,61.0,,,HRV,HRV_0116,2022-11-30 18:40:04
,wl-rdm,179,468434,0.0-8.61-0.61,1.0,179.0,,,,,,,[],,,,,,62.5,0.0,i,1.0,False,1187.300000000745,70.0,60.0,40.0,False,,339.10423151996434,[],"[683, 384]",ColorTask,55.0,62.0,,,HRV,HRV_0116,2022-11-30 18:40:04
,wl-rdm,180,470802,0.0-8.62-0.62,1.0,180.0,,,,,,,[],,,,,,87.9,1.0,i,1.0,True,971.0,59.0,60.0,40.0,False,,324.48315685607776,[],"[683, 384]",ColorTask,56.0,63.0,,,HRV,HRV_0116,2022-11-30 18:40:04
,wl-rdm,181,472999,0.0-8.63-0.63,1.0,181.0,,,,,,,[],,,,,,62.5,1.0,i,1.0,True,908.7000000029802,55.0,60.0,40.0,False,,208.0679282210066,[],"[683, 384]",ColorTask,57.0,64.0,,,HRV,HRV_0116,2022-11-30 18:40:04
,wl-rdm,182,475329,0.0-8.64-0.64,1.0,182.0,,,,,,,[],,,,,,73.6,1.0,i,1.0,True,913.1999999992549,55.0,60.0,40.0,False,,334.7400945433535,[],"[683, 384]",ColorTask,58.0,65.0,,,HRV,HRV_0116,2022-11-30 18:40:04
,wl-rdm,183,477729,0.0-8.65-0.65,1.0,183.0,,,,,,,[],,,,,,87.9,0.0,u,0.0,True,990.6999999992549,60.0,60.0,40.0,False,,341.04324437345485,[],"[683, 384]",ColorTask,59.0,66.0,,,HRV,HRV_0116,2022-11-30 18:40:04
,wl-rdm,184,480226,0.0-8.66-0.66,1.0,184.0,,,,,,,[],,,,,,53.2,0.0,i,1.0,False,1120.9000000022352,67.0,60.0,40.0,False,,284.43117934721437,[],"[683, 384]",ColorTask,58.0,67.0,,,HRV,HRV_0116,2022-11-30 18:40:04
,wl-rdm,185,482990,0.0-8.67-0.67,1.0,185.0,,,,,,,[],,,,,,87.9,1.0,i,1.0,True,1324.1000000014901,78.0,60.0,40.0,False,,352.31493038470103,[],"[683, 384]",ColorTask,59.0,68.0,,,HRV,HRV_0116,2022-11-30 18:40:04
,wl-rdm,186,485220,0.0-8.68-0.68,1.0,186.0,,,,,,,[],,,,,,73.6,1.0,i,1.0,True,924.5,56.0,60.0,40.0,False,,233.06460876499256,[],"[683, 384]",ColorTask,60.0,69.0,,,HRV,HRV_0116,2022-11-30 18:40:04
,wl-rdm,187,487618,0.0-8.69-0.69,1.0,187.0,,,,,,,[],,,,,,56.4,0.0,i,1.0,False,1107.0999999977648,67.0,60.0,40.0,False,,217.47630592368785,[],"[683, 384]",ColorTask,59.0,70.0,,,HRV,HRV_0116,2022-11-30 18:40:04
,wl-rdm,188,489800,0.0-8.70-0.70,1.0,188.0,,,,,,,[],,,,,,50.0,0.0,i,1.0,False,781.1000000014901,47.0,60.0,40.0,False,,293.6617371985994,[],"[683, 384]",ColorTask,58.0,71.0,,,HRV,HRV_0116,2022-11-30 18:40:04
,wl-rdm,189,491961,0.0-8.71-0.71,1.0,189.0,,,,,,,[],,,,,,56.4,0.0,u,0.0,True,762.6999999992549,44.0,60.0,40.0,False,,332.8075728847183,[],"[683, 384]",ColorTask,59.0,72.0,,,HRV,HRV_0116,2022-11-30 18:40:04
,wl-rdm,190,494462,0.0-8.72-0.72,1.0,190.0,,,,,,,[],,,,,,87.9,0.0,u,0.0,True,1143.6999999955297,69.0,60.0,40.0,False,,274.3815385519325,[],"[683, 384]",ColorTask,60.0,73.0,,,HRV,HRV_0116,2022-11-30 18:40:04
,wl-rdm,191,497172,0.0-8.73-0.73,1.0,191.0,,,,,,,[],,,,,,62.5,1.0,u,0.0,False,1280.3999999985099,77.0,60.0,40.0,False,,350.4416653334745,[],"[683, 384]",ColorTask,59.0,74.0,,,HRV,HRV_0116,2022-11-30 18:40:04
,wl-rdm,192,499355,0.0-8.74-0.74,1.0,192.0,,,,,,,[],,,,,,56.4,1.0,i,1.0,True,860.5000000037253,52.0,60.0,40.0,False,,252.35113080673767,[],"[683, 384]",ColorTask,60.0,75.0,,,HRV,HRV_0116,2022-11-30 18:40:04
,wl-rdm,193,502337,0.0-8.75-0.75,1.0,193.0,,,,,,,[],,,,,,62.5,1.0,i,1.0,True,1613.5999999977648,96.0,60.0,40.0,False,,298.33916528352995,[],"[683, 384]",ColorTask,61.0,76.0,,,HRV,HRV_0116,2022-11-30 18:40:04
,wl-rdm,194,504515,0.0-8.76-0.76,1.0,194.0,,,,,,,[],,,,,,87.9,1.0,i,1.0,True,887.8000000007451,52.0,60.0,40.0,False,,210.58040009422848,[],"[683, 384]",ColorTask,62.0,77.0,,,HRV,HRV_0116,2022-11-30 18:40:04
,wl-rdm,195,507133,0.0-8.77-0.77,1.0,195.0,,,,,,,[],,,,,,53.2,0.0,i,1.0,False,1232.9000000022352,74.0,60.0,40.0,False,,307.872606765832,[],"[683, 384]",ColorTask,61.0,78.0,,,HRV,HRV_0116,2022-11-30 18:40:04
,wl-rdm,196,509286,0.0-8.78-0.78,1.0,196.0,,,,,,,[],,,,,,53.2,0.0,i,1.0,False,821.0,50.0,60.0,40.0,False,,254.32280482982242,[],"[683, 384]",ColorTask,60.0,79.0,,,HRV,HRV_0116,2022-11-30 18:40:04
,wl-rdm,197,511380,0.0-8.79-0.79,1.0,197.0,,,,,,,[],,,,,,50.0,1.0,u,0.0,False,704.5,43.0,60.0,40.0,False,,323.8455250245038,[],"[683, 384]",ColorTask,59.0,80.0,,,HRV,HRV_0116,2022-11-30 18:40:04
,wl-rdm,198,513226,0.0-8.80-0.80,1.0,198.0,,,,,,,[],,,,,,73.6,1.0,i,1.0,True,486.8999999947846,30.0,60.0,40.0,False,,267.94323226414934,[],"[683, 384]",ColorTask,60.0,81.0,,,HRV,HRV_0116,2022-11-30 18:40:04
,wl-rdm,199,515358,0.0-8.81-0.81,1.0,199.0,,,,,,,[],,,,,,50.0,0.0,i,1.0,False,803.8000000007451,49.0,60.0,40.0,False,,237.93835550962626,[],"[683, 384]",ColorTask,59.0,82.0,,,HRV,HRV_0116,2022-11-30 18:40:04
,wl-rdm,200,517638,0.0-8.82-0.82,1.0,200.0,,,,,,,[],,,,,,53.2,0.0,i,1.0,False,1009.5,61.0,60.0,40.0,False,,213.61655665941623,[],"[683, 384]",ColorTask,58.0,83.0,,,HRV,HRV_0116,2022-11-30 18:40:04
,wl-rdm,201,519670,0.0-8.83-0.83,1.0,201.0,,,,,,,[],,,,,,87.9,1.0,u,0.0,False,703.5,43.0,60.0,40.0,False,,263.82362300876787,[],"[683, 384]",ColorTask,57.0,84.0,,,HRV,HRV_0116,2022-11-30 18:40:04
,wl-rdm,202,522064,0.0-8.84-0.84,1.0,202.0,,,,,,,[],,,,,,73.6,0.0,u,0.0,True,1065.0999999977648,62.0,60.0,40.0,False,,261.9149119951451,[],"[683, 384]",ColorTask,58.0,85.0,,,HRV,HRV_0116,2022-11-30 18:40:04
,wl-rdm,203,524865,0.0-8.85-0.85,1.0,203.0,,,,,,,[],,,,,,62.5,1.0,i,1.0,True,1510.699999999255,90.0,60.0,40.0,False,,204.8599037564437,[],"[683, 384]",ColorTask,59.0,86.0,,,HRV,HRV_0116,2022-11-30 18:40:04
,wl-rdm,204,527462,0.0-8.86-0.86,1.0,204.0,,,,,,,[],,,,,,62.5,0.0,u,0.0,True,1208.5,73.0,60.0,40.0,False,,317.13952241703583,[],"[683, 384]",ColorTask,60.0,87.0,,,HRV,HRV_0116,2022-11-30 18:40:04
,wl-rdm,205,529643,0.0-8.87-0.87,1.0,205.0,,,,,,,[],,,,,,50.0,0.0,i,1.0,False,895.6000000014901,54.0,60.0,40.0,False,,215.43983556135154,[],"[683, 384]",ColorTask,59.0,88.0,,,HRV,HRV_0116,2022-11-30 18:40:04
,wl-rdm,206,531871,0.0-8.88-0.88,1.0,206.0,,,,,,,[],,,,,,87.9,0.0,u,0.0,True,916.2999999970198,53.0,60.0,40.0,False,,249.70320761621244,[],"[683, 384]",ColorTask,60.0,89.0,,,HRV,HRV_0116,2022-11-30 18:40:04
,wl-rdm,207,534338,0.0-8.89-0.89,1.0,207.0,,,,,,,[],,,,,,56.4,0.0,u,0.0,True,1082.5,64.0,60.0,40.0,False,,304.31555330081676,[],"[683, 384]",ColorTask,61.0,90.0,,,HRV,HRV_0116,2022-11-30 18:40:04
,wl-rdm,208,536663,0.0-8.90-0.90,1.0,208.0,,,,,,,[],,,,,,50.0,1.0,i,1.0,True,976.1000000014901,58.0,60.0,40.0,False,,261.2738660385712,[],"[683, 384]",ColorTask,62.0,91.0,,,HRV,HRV_0116,2022-11-30 18:40:04
,wl-rdm,209,539290,0.0-8.91-0.91,1.0,209.0,,,,,,,[],,,,,,87.9,0.0,u,0.0,True,1324.8999999985099,80.0,60.0,40.0,False,,206.20264666767716,[],"[683, 384]",ColorTask,63.0,92.0,,,HRV,HRV_0116,2022-11-30 18:40:04
,wl-rdm,210,541915,0.0-8.92-0.92,1.0,210.0,,,,,,,[],,,,,,73.6,0.0,u,0.0,True,1140.9999999962747,69.0,60.0,40.0,False,,392.61761700736383,[],"[683, 384]",ColorTask,64.0,93.0,,,HRV,HRV_0116,2022-11-30 18:40:04
,wl-rdm,211,544195,0.0-8.93-0.93,1.0,211.0,,,,,,,[],,,,,,53.2,0.0,u,0.0,True,926.0999999977648,55.0,60.0,40.0,False,,267.0300743771106,[],"[683, 384]",ColorTask,65.0,94.0,,,HRV,HRV_0116,2022-11-30 18:40:04
,wl-rdm,212,546426,0.0-8.94-0.94,1.0,212.0,,,,,,,[],,,,,,56.4,1.0,u,0.0,False,893.5999999977648,53.0,60.0,40.0,False,,264.4442886533028,[],"[683, 384]",ColorTask,64.0,95.0,,,HRV,HRV_0116,2022-11-30 18:40:04
,wl-rdm,213,548408,0.0-8.95-0.95,1.0,213.0,,,,,,,[],,,,,,87.9,0.0,i,1.0,False,535.5,33.0,60.0,40.0,False,,353.62369598857765,[],"[683, 384]",ColorTask,63.0,96.0,,,HRV,HRV_0116,2022-11-30 18:40:04
,wl-rdm,214,550852,0.0-8.96-0.96,1.0,214.0,,,,,,,[],,,,,,56.4,1.0,i,1.0,True,1137.2000000029802,67.0,60.0,40.0,False,,231.350860145549,[],"[683, 384]",ColorTask,64.0,97.0,,,HRV,HRV_0116,2022-11-30 18:40:04
,wl-rdm,215,553120,0.0-8.97-0.97,1.0,215.0,,,,,,,[],,,,,,73.6,0.0,u,0.0,True,949.7999999970198,57.0,60.0,40.0,False,,236.81526734564656,[],"[683, 384]",ColorTask,65.0,98.0,,,HRV,HRV_0116,2022-11-30 18:40:04
,wl-rdm,216,555654,0.0-8.98-0.98,1.0,216.0,,,,,,,[],,,,,,50.0,1.0,i,1.0,True,1128.3999999985099,68.0,60.0,40.0,False,,348.8148802055068,[],"[683, 384]",ColorTask,66.0,99.0,,,HRV,HRV_0116,2022-11-30 18:40:04
,wl-rdm,217,557833,0.0-8.99-0.99,1.0,217.0,,,,,,,[],,,,,,87.9,1.0,i,1.0,True,869.8000000007451,52.0,60.0,40.0,False,,222.0050882148644,[],"[683, 384]",ColorTask,67.0,100.0,,,HRV,HRV_0116,2022-11-30 18:40:04
,wl-rdm,218,560480,0.0-8.100-0.100,1.0,218.0,,,,,,,[],,,,,,56.4,1.0,i,1.0,True,1345.0,80.0,60.0,40.0,False,,231.51653345913903,[],"[683, 384]",ColorTask,68.0,101.0,,,HRV,HRV_0116,2022-11-30 18:40:04
,wl-rdm,219,562878,0.0-8.101-0.101,1.0,219.0,,,,,,,[],,,,,,73.6,0.0,u,0.0,True,1018.8999999985099,62.0,60.0,40.0,False,,295.6109432582715,[],"[683, 384]",ColorTask,69.0,102.0,,,HRV,HRV_0116,2022-11-30 18:40:04
,wl-rdm,220,564972,0.0-8.102-0.102,1.0,220.0,,,,,,,[],,,,,,50.0,0.0,u,0.0,True,784.3999999985099,47.0,60.0,40.0,False,,241.23223069384213,[],"[683, 384]",ColorTask,70.0,103.0,,,HRV,HRV_0116,2022-11-30 18:40:04
,wl-rdm,221,567235,0.0-8.103-0.103,1.0,221.0,,,,,,,[],,,,,,62.5,0.0,u,0.0,True,840.8999999985099,51.0,60.0,40.0,False,,340.73972172130834,[],"[683, 384]",ColorTask,71.0,104.0,,,HRV,HRV_0116,2022-11-30 18:40:04
,wl-rdm,222,569220,0.0-8.104-0.104,1.0,222.0,,,,,,,[],,,,,,62.5,0.0,u,0.0,True,699.8000000044703,42.0,60.0,40.0,False,,205.6134657104392,[],"[683, 384]",ColorTask,72.0,105.0,,,HRV,HRV_0116,2022-11-30 18:40:04
,wl-rdm,223,571288,0.0-8.105-0.105,1.0,223.0,,,,,,,[],,,,,,53.2,1.0,u,0.0,False,770.8000000007451,47.0,60.0,40.0,False,,232.94026029298556,[],"[683, 384]",ColorTask,71.0,106.0,,,HRV,HRV_0116,2022-11-30 18:40:04
,wl-rdm,224,573201,0.0-8.106-0.106,1.0,224.0,,,,,,,[],,,,,,87.9,0.0,i,1.0,False,538.6999999992549,33.0,60.0,40.0,False,,294.68458914058164,[],"[683, 384]",ColorTask,70.0,107.0,,,HRV,HRV_0116,2022-11-30 18:40:04
,wl-rdm,225,575449,0.0-8.107-0.107,1.0,225.0,,,,,,,[],,,,,,87.9,1.0,i,1.0,True,920.4000000022352,56.0,60.0,40.0,False,,242.65945390354497,[],"[683, 384]",ColorTask,71.0,108.0,,,HRV,HRV_0116,2022-11-30 18:40:04
,wl-html-button-response,226,579204,0.0-9.0-0.0,,,,,,,,,,3746.300000000745,,0,,,,,,,,,,,,,,,,,,,,<h3>End of this session. Thank you!</h3><br>,['Close window'],HRV,HRV_0116,2022-11-30 18:40:04
