success,trial_type,trial_index,time_elapsed,internal_node_id,Block,TrialNumber,TrialTime,trialTimeDiff,FPS_avg,FPS_med,FPS_mode,TrialDur,winResizeTime,rt,block,button_pressed,MotCoh,MotDir,ColCoh,Color,ChoiceKey,Choice,Accuracy,RT,nFrames,FPS,PPD,missTrial,missTrialMsg,onsetDelay,fullScreenExitTime,canvCenter,TrialType,Score,BlockTrial,stimulus,button_labels,exp,subjectId,date
True,fullscreen,0,1551,0.0-0.0,0.0,1.0,,,,,,,,,,,,,,,,,,,,,,,,,,,,,,,,HRV,HRV_0159,2022-11-30 18:58:09
,wl-check-fps,1,6966,0.0-1.0,0.0,2.0,"[2018.7, 2028.4, 2042, 2062, 2075.8, 2087.7, 2109.9, 2124, 2142.2, 2159.5, 2178, 2195.8, 2214.4, 2232.8, 2250.3, 2268.1, 2287.2, 2304.5, 2323.2, 2340.9, 2359.9, 2377.4, 2394.9, 2414.2, 2431.7, 2449.7, 2468.5, 2486.8, 2503.6, 2521.8, 2539.4, 2557.8, 2575.8, 2593.8, 2612.1, 2630.5, 2648.1, 2666.9, 2684.8, 2702.5, 2720.8, 2738.8, 2756.6, 2775.2, 2792.9, 2811.8, 2829.8, 2847.7, 2865.2, 2883.5, 2901.7, 2919.5, 2938.1, 2956.3, 2974, 2992.9, 3010.8, 3028, 3046.8, 3064.7, 3082.3, 3100.8, 3119.3, 3137.1, 3155.7, 3173.2, 3191.1, 3209.4, 3227.5, 3245.5, 3264, 3281.4, 3299.7, 3318, 3335.8, 3353.7, 3372, 3390, 3408.4, 3426.3, 3444.4, 3462.8, 3480.8, 3499, 3516.7, 3535.5, 3553.5, 3571.4, 3588.9, 3607.6, 3625.1, 3643.8, 3661.2, 3680.1, 3697.6, 3716.1, 3734.6, 3752, 3770.6, 3788.2, 3806.5, 3824.2, 3842.6, 3861, 3878.6, 3897.2, 3915.3, 3932.8, 3951.4, 3969.2, 3988.1, 4005.6, 4023.8, 4041.7, 4059.9, 4078.8, 4096, 4114.2, 4131.9, 4150.3, 4167.8, 4186.1, 4204.6, 4222.4, 4240.5, 4258.2, 4278.2, 4295.4, 4313.6, 4330.7, 4348.6, 4367.3, 4385.3, 4404, 4421.8, 4440, 4458, 4479.9, 4494, 4511.9, 4530.6, 4547.7, 4565.8, 4584.7, 4602.7, 4620.9, 4639.2, 4656.7, 4674.9, 4692.4, 4711.4, 4728.7, 4747.7, 4765.3, 4783, 4801.8, 4819.6, 4838, 4855.7, 4873.6, 4891.8, 4910.5, 4927.8, 4946.6, 4964.4, 4982.7, 5001.2, 5018.2, 5036.6, 5054.9, 5073, 5091, 5108.8, 5129.1, 5145.8, 5163, 5181.8, 5199.2, 5218.4, 5235.4, 5254.3, 5272.3, 5293.5, 5307.8, 5326.5, 5344.1, 5362.1, 5381.1, 5398.3, 5416.7, 5435.1, 5453.1, 5471.1, 5489, 5507.2, 5525.7, 5544, 5561.7, 5579.9, 5597.7, 5615.7, 5633.6, 5652.7, 5670.3, 5688.7, 5707, 5724.7, 5742.2, 5760.8, 5779.1, 5796.8, 5814.3, 5834, 5850.5, 5869.3, 5887.5, 5905.1, 5924.5, 5941.9, 5959.5, 5977.6, 5996.1, 6013.7, 6032.2, 6049.5, 6068.3, 6085.8, 6104.8, 6121.7, 6140.5, 6159.8, 6176.8, 6194.5, 6212.9, 6231.1, 6249.2, 6267.4, 6284.9, 6303.6, 6322.1, 6339.2, 6357.3, 6376.1, 6394.3, 6412, 6429.9, 6448.3, 6466.6, 6484.2, 6503.3, 6521.1, 6538.2, 6556.7, 6574.6, 6592.7, 6611.9, 6629.8, 6647.7, 6666, 6684.2, 6701.7, 6719.3, 6738.4, 6755.8, 6773.9, 6792.7, 6810, 6827.9, 6846.6, 6865, 6883.3, 6901.1, 6918.6, 6936.6, 6954.4, 6972.9, 6990.8, 7008.9, 7027.2, 7045.3, 7063.2, 7080.9, 7099.6, 7117.5, 7135, 7153.5, 7171.5, 7190.1, 7208.2, 7226.5, 7243.8, 7262.1, 7280.1, 7298.7, 7317.1, 7334.5, 7352.5, 7370.7, 7388.7, 7407.2]","[5.6, 9.7, 13.6, 20, 13.8, 11.9, 22.2, 14.1, 18.2, 17.3, 18.5, 17.8, 18.6, 18.4, 17.5, 17.8, 19.1, 17.3, 18.7, 17.7, 19, 17.5, 17.5, 19.3, 17.5, 18, 18.8, 18.3, 16.8, 18.2, 17.6, 18.4, 18, 18, 18.3, 18.4, 17.6, 18.8, 17.9, 17.7, 18.3, 18, 17.8, 18.6, 17.7, 18.9, 18, 17.9, 17.5, 18.3, 18.2, 17.8, 18.6, 18.2, 17.7, 18.9, 17.9, 17.2, 18.8, 17.9, 17.6, 18.5, 18.5, 17.8, 18.6, 17.5, 17.9, 18.3, 18.1, 18, 18.5, 17.4, 18.3, 18.3, 17.8, 17.9, 18.3, 18, 18.4, 17.9, 18.1, 18.4, 18, 18.2, 17.7, 18.8, 18, 17.9, 17.5, 18.7, 17.5, 18.7, 17.4, 18.9, 17.5, 18.5, 18.5, 17.4, 18.6, 17.6, 18.3, 17.7, 18.4, 18.4, 17.6, 18.6, 18.1, 17.5, 18.6, 17.8, 18.9, 17.5, 18.2, 17.9, 18.2, 18.9, 17.2, 18.2, 17.7, 18.4, 17.5, 18.3, 18.5, 17.8, 18.1, 17.7, 20, 17.2, 18.2, 17.1, 17.9, 18.7, 18, 18.7, 17.8, 18.2, 18, 21.9, 14.1, 17.9, 18.7, 17.1, 18.1, 18.9, 18, 18.2, 18.3, 17.5, 18.2, 17.5, 19, 17.3, 19, 17.6, 17.7, 18.8, 17.8, 18.4, 17.7, 17.9, 18.2, 18.7, 17.3, 18.8, 17.8, 18.3, 18.5, 17, 18.4, 18.3, 18.1, 18, 17.8, 20.3, 16.7, 17.2, 18.8, 17.4, 19.2, 17, 18.9, 18, 21.2, 14.3, 18.7, 17.6, 18, 19, 17.2, 18.4, 18.4, 18, 18, 17.9, 18.2, 18.5, 18.3, 17.7, 18.2, 17.8, 18, 17.9, 19.1, 17.6, 18.4, 18.3, 17.7, 17.5, 18.6, 18.3, 17.7, 17.5, 19.7, 16.5, 18.8, 18.2, 17.6, 19.4, 17.4, 17.6, 18.1, 18.5, 17.6, 18.5, 17.3, 18.8, 17.5, 19, 16.9, 18.8, 19.3, 17, 17.7, 18.4, 18.2, 18.1, 18.2, 17.5, 18.7, 18.5, 17.1, 18.1, 18.8, 18.2, 17.7, 17.9, 18.4, 18.3, 17.6, 19.1, 17.8, 17.1, 18.5, 17.9, 18.1, 19.2, 17.9, 17.9, 18.3, 18.2, 17.5, 17.6, 19.1, 17.4, 18.1, 18.8, 17.3, 17.9, 18.7, 18.4, 18.3, 17.8, 17.5, 18, 17.8, 18.5, 17.9, 18.1, 18.3, 18.1, 17.9, 17.7, 18.7, 17.9, 17.5, 18.5, 18, 18.6, 18.1, 18.3, 17.3, 18.3, 18, 18.6, 18.4, 17.4, 18, 18.2, 18, 18.5]",56.0,55.0,56.0,5411.4,[],,,,,,,,,,,,,,,,,,,,,,,,,HRV,HRV_0159,2022-11-30 18:58:09
,wl-html-keyboard-response,2,14919,0.0-2.0-0.0,0.0,3.0,,,,,,,,5944.800000000745,0.0,0,,,,,,,,,,,,,,,,,,,,,,HRV,HRV_0159,2022-11-30 18:58:09
,wl-rdm,3,22599,0.0-3.0-0.0,0.0,4.0,,,,,,,[],,,,0.0,0.0,87.9,0.0,u,0.0,True,2106.89999999851,117.0,56.0,40.0,False,,3000.0,[],"[800, 450]",ColorTask_Demo,,,,,HRV,HRV_0159,2022-11-30 18:58:09
,wl-rdm,4,27701,0.0-3.0-1.0,0.0,5.0,,,,,,,[],,,,0.0,0.0,87.9,1.0,i,1.0,True,1028.5000000037253,57.0,56.0,40.0,False,,2000.0,[],"[800, 450]",ColorTask_Demo,,,,,HRV,HRV_0159,2022-11-30 18:58:09
,wl-html-keyboard-response,5,33063,0.0-3.0-2.0,0.0,6.0,,,,,,,,3355.5,0.0,1,,,,,,,,,,,,,,,,,,,,,,HRV,HRV_0159,2022-11-30 18:58:09
,wl-html-keyboard-response,6,42679,0.0-4.0-0.0,0.0,7.0,,,,,,,,7608.60000000149,0.0,0,,,,,,,,,,,,,,,,,,,,,,HRV,HRV_0159,2022-11-30 18:58:09
,wl-html-keyboard-response,7,53159,0.0-5.0-0.0,0.0,8.0,,,,,,,,8474.10000000149,0.0,0,,,,,,,,,,,,,,,,,,,,,,HRV,HRV_0159,2022-11-30 18:58:09
,wl-rdm,8,55129,0.0-6.0-0.0,0.0,9.0,,,,,,,[],,,,,,73.6,1.0,i,1.0,True,622.2999999970198,35.0,56.0,40.0,False,,272.5217125376924,[],"[800, 450]",ColorTask,1.0,1.0,,,HRV,HRV_0159,2022-11-30 18:58:09
,wl-rdm,9,57156,0.0-6.1-0.1,0.0,10.0,,,,,,,[],,,,,,87.9,0.0,u,0.0,True,573.2999999970198,32.0,56.0,40.0,False,,390.5651232600626,[],"[800, 450]",ColorTask,2.0,2.0,,,HRV,HRV_0159,2022-11-30 18:58:09
,wl-rdm,10,59309,0.0-6.2-0.2,0.0,11.0,,,,,,,[],,,,,,62.5,0.0,i,1.0,False,763.5,43.0,56.0,40.0,False,,314.2591963556455,[],"[800, 450]",ColorTask,1.0,3.0,,,HRV,HRV_0159,2022-11-30 18:58:09
,wl-rdm,11,61318,0.0-6.3-0.3,0.0,12.0,,,,,,,[],,,,,,56.4,0.0,i,1.0,False,698.5,39.0,56.0,40.0,False,,235.85512952809535,[],"[800, 450]",ColorTask,0.0,4.0,,,HRV,HRV_0159,2022-11-30 18:58:09
,wl-rdm,12,63399,0.0-6.4-0.4,0.0,13.0,,,,,,,[],,,,,,87.9,1.0,i,1.0,True,644.7000000029802,36.0,56.0,40.0,False,,375.14691038050637,[],"[800, 450]",ColorTask,1.0,5.0,,,HRV,HRV_0159,2022-11-30 18:58:09
,wl-rdm,13,65316,0.0-6.5-0.5,0.0,14.0,,,,,,,[],,,,,,56.4,1.0,u,0.0,False,626.8999999947846,35.0,56.0,40.0,False,,224.00046748075147,[],"[800, 450]",ColorTask,0.0,6.0,,,HRV,HRV_0159,2022-11-30 18:58:09
,wl-rdm,14,67324,0.0-6.6-0.6,0.0,15.0,,,,,,,[],,,,,,73.6,0.0,u,0.0,True,639.8999999985099,36.0,56.0,40.0,False,,299.3256050915528,[],"[800, 450]",ColorTask,1.0,7.0,,,HRV,HRV_0159,2022-11-30 18:58:09
,wl-rdm,15,69206,0.0-6.7-0.7,0.0,16.0,,,,,,,[],,,,,,62.5,1.0,i,1.0,True,607.3000000007451,34.0,56.0,40.0,False,,211.18667309388897,[],"[800, 450]",ColorTask,2.0,8.0,,,HRV,HRV_0159,2022-11-30 18:58:09
,wl-rdm,16,71069,0.0-6.8-0.8,0.0,17.0,,,,,,,[],,,,,,62.5,1.0,i,1.0,True,566.6999999992549,32.0,56.0,40.0,False,,217.8735094017935,[],"[800, 450]",ColorTask,3.0,9.0,,,HRV,HRV_0159,2022-11-30 18:58:09
,wl-rdm,17,73223,0.0-6.9-0.9,0.0,18.0,,,,,,,[],,,,,,62.5,1.0,u,0.0,False,860.6000000014901,48.0,56.0,40.0,False,,218.3275449576816,[],"[800, 450]",ColorTask,2.0,10.0,,,HRV,HRV_0159,2022-11-30 18:58:09
,wl-rdm,18,75141,0.0-6.10-0.10,0.0,19.0,,,,,,,[],,,,,,87.9,1.0,i,1.0,True,590.3999999985099,33.0,56.0,40.0,False,,259.1560337180842,[],"[800, 450]",ColorTask,3.0,11.0,,,HRV,HRV_0159,2022-11-30 18:58:09
,wl-rdm,19,77040,0.0-6.11-0.11,0.0,20.0,,,,,,,[],,,,,,73.6,0.0,u,0.0,True,504.5000000037253,28.0,56.0,40.0,False,,337.35306031467394,[],"[800, 450]",ColorTask,4.0,12.0,,,HRV,HRV_0159,2022-11-30 18:58:09
,wl-rdm,20,79411,0.0-6.12-0.12,0.0,21.0,,,,,,,[],,,,,,53.2,0.0,u,0.0,True,973.0000000037253,54.0,56.0,40.0,False,,339.8855967987797,[],"[800, 450]",ColorTask,5.0,13.0,,,HRV,HRV_0159,2022-11-30 18:58:09
,wl-rdm,21,81455,0.0-6.13-0.13,0.0,22.0,,,,,,,[],,,,,,73.6,0.0,u,0.0,True,686.8999999985099,38.0,56.0,40.0,False,,302.1430982941229,[],"[800, 450]",ColorTask,6.0,14.0,,,HRV,HRV_0159,2022-11-30 18:58:09
,wl-rdm,22,83553,0.0-6.14-0.14,0.0,23.0,,,,,,,[],,,,,,62.5,0.0,u,0.0,True,828.9000000022352,46.0,56.0,40.0,False,,211.1588168823545,[],"[800, 450]",ColorTask,7.0,15.0,,,HRV,HRV_0159,2022-11-30 18:58:09
,wl-rdm,23,85454,0.0-6.15-0.15,0.0,24.0,,,,,,,[],,,,,,62.5,1.0,i,1.0,True,633.5,35.0,56.0,40.0,False,,206.17300678147507,[],"[800, 450]",ColorTask,8.0,16.0,,,HRV,HRV_0159,2022-11-30 18:58:09
,wl-rdm,24,87390,0.0-6.16-0.16,0.0,25.0,,,,,,,[],,,,,,50.0,1.0,u,0.0,False,636.1000000014901,36.0,56.0,40.0,False,,230.37983093114022,[],"[800, 450]",ColorTask,7.0,17.0,,,HRV,HRV_0159,2022-11-30 18:58:09
,wl-rdm,25,89506,0.0-6.17-0.17,0.0,26.0,,,,,,,[],,,,,,50.0,0.0,i,1.0,False,773.8000000007451,43.0,56.0,40.0,False,,282.2995843480474,[],"[800, 450]",ColorTask,6.0,18.0,,,HRV,HRV_0159,2022-11-30 18:58:09
,wl-rdm,26,91804,0.0-6.18-0.18,0.0,27.0,,,,,,,[],,,,,,50.0,0.0,i,1.0,False,908.6999999992549,51.0,56.0,40.0,False,,320.75095491544226,[],"[800, 450]",ColorTask,5.0,19.0,,,HRV,HRV_0159,2022-11-30 18:58:09
,wl-rdm,27,93939,0.0-6.19-0.19,0.0,28.0,,,,,,,[],,,,,,50.0,1.0,i,1.0,True,809.1000000014901,45.0,56.0,40.0,False,,261.9551102336376,[],"[800, 450]",ColorTask,6.0,20.0,,,HRV,HRV_0159,2022-11-30 18:58:09
,wl-rdm,28,96031,0.0-6.20-0.20,0.0,29.0,,,,,,,[],,,,,,53.2,1.0,u,0.0,False,808.8999999985099,45.0,56.0,40.0,False,,212.82070481652505,[],"[800, 450]",ColorTask,5.0,21.0,,,HRV,HRV_0159,2022-11-30 18:58:09
,wl-rdm,29,98390,0.0-6.21-0.21,0.0,30.0,,,,,,,[],,,,,,73.6,0.0,u,0.0,True,951.6000000014901,53.0,56.0,40.0,False,,331.08285580858603,[],"[800, 450]",ColorTask,6.0,22.0,,,HRV,HRV_0159,2022-11-30 18:58:09
,wl-rdm,30,100434,0.0-6.22-0.22,0.0,31.0,,,,,,,[],,,,,,53.2,1.0,i,1.0,True,594.7999999970198,33.0,56.0,40.0,False,,382.89232034503095,[],"[800, 450]",ColorTask,7.0,23.0,,,HRV,HRV_0159,2022-11-30 18:58:09
,wl-rdm,31,102479,0.0-6.23-0.23,0.0,32.0,,,,,,,[],,,,,,50.0,0.0,u,0.0,True,758.3999999985099,42.0,56.0,40.0,False,,223.85746379264688,[],"[800, 450]",ColorTask,8.0,24.0,,,HRV,HRV_0159,2022-11-30 18:58:09
,wl-rdm,32,104433,0.0-6.24-0.24,0.0,33.0,,,,,,,[],,,,,,87.9,0.0,u,0.0,True,575.3000000007451,32.0,56.0,40.0,False,,314.47831218980264,[],"[800, 450]",ColorTask,9.0,25.0,,,HRV,HRV_0159,2022-11-30 18:58:09
,wl-rdm,33,106459,0.0-6.25-0.25,0.0,34.0,,,,,,,[],,,,,,56.4,1.0,i,1.0,True,693.3000000007451,39.0,56.0,40.0,False,,256.51155652435773,[],"[800, 450]",ColorTask,10.0,26.0,,,HRV,HRV_0159,2022-11-30 18:58:09
,wl-rdm,34,108830,0.0-6.26-0.26,0.0,35.0,,,,,,,[],,,,,,53.2,0.0,u,0.0,True,946.8999999985099,53.0,56.0,40.0,False,,361.5949840298789,[],"[800, 450]",ColorTask,11.0,27.0,,,HRV,HRV_0159,2022-11-30 18:58:09
,wl-rdm,35,110946,0.0-6.27-0.27,0.0,36.0,,,,,,,[],,,,,,53.2,1.0,i,1.0,True,773.0999999977648,43.0,56.0,40.0,False,,276.7989791546511,[],"[800, 450]",ColorTask,12.0,28.0,,,HRV,HRV_0159,2022-11-30 18:58:09
,wl-rdm,36,113046,0.0-6.28-0.28,0.0,37.0,,,,,,,[],,,,,,87.9,0.0,u,0.0,True,661.8000000007451,37.0,56.0,40.0,False,,374.9461287829089,[],"[800, 450]",ColorTask,13.0,29.0,,,HRV,HRV_0159,2022-11-30 18:58:09
,wl-rdm,37,115325,0.0-6.29-0.29,0.0,38.0,,,,,,,[],,,,,,56.4,1.0,u,0.0,False,830.6000000014901,46.0,56.0,40.0,False,,387.3902925388795,[],"[800, 450]",ColorTask,12.0,30.0,,,HRV,HRV_0159,2022-11-30 18:58:09
,wl-rdm,38,117496,0.0-6.30-0.30,0.0,39.0,,,,,,,[],,,,,,50.0,0.0,i,1.0,False,785.8000000007451,44.0,56.0,40.0,False,,318.8537362827809,[],"[800, 450]",ColorTask,11.0,31.0,,,HRV,HRV_0159,2022-11-30 18:58:09
,wl-rdm,39,119903,0.0-6.31-0.31,0.0,40.0,,,,,,,[],,,,,,56.4,0.0,i,1.0,False,1012.0999999977648,56.0,56.0,40.0,False,,337.9320980763034,[],"[800, 450]",ColorTask,10.0,32.0,,,HRV,HRV_0159,2022-11-30 18:58:09
,wl-rdm,40,121966,0.0-6.32-0.32,0.0,41.0,,,,,,,[],,,,,,87.9,1.0,i,1.0,True,746.6999999992549,42.0,56.0,40.0,False,,250.3411459158835,[],"[800, 450]",ColorTask,11.0,33.0,,,HRV,HRV_0159,2022-11-30 18:58:09
,wl-rdm,41,124100,0.0-6.33-0.33,0.0,42.0,,,,,,,[],,,,,,56.4,0.0,u,0.0,True,720.6999999955297,40.0,56.0,40.0,False,,343.1604453142432,[],"[800, 450]",ColorTask,12.0,34.0,,,HRV,HRV_0159,2022-11-30 18:58:09
,wl-rdm,42,126398,0.0-6.34-0.34,0.0,43.0,,,,,,,[],,,,,,50.0,0.0,u,0.0,True,925.3000000007451,52.0,56.0,40.0,False,,293.75197629351044,[],"[800, 450]",ColorTask,13.0,35.0,,,HRV,HRV_0159,2022-11-30 18:58:09
,wl-rdm,43,128605,0.0-6.35-0.35,0.0,44.0,,,,,,,[],,,,,,56.4,0.0,i,1.0,False,763.5000000037253,43.0,56.0,40.0,False,,374.16689842223093,[],"[800, 450]",ColorTask,12.0,36.0,,,HRV,HRV_0159,2022-11-30 18:58:09
,wl-rdm,44,130795,0.0-6.36-0.36,0.0,45.0,,,,,,,[],,,,,,62.5,0.0,u,0.0,True,891.6000000014901,50.0,56.0,40.0,False,,230.15362536051188,[],"[800, 450]",ColorTask,13.0,37.0,,,HRV,HRV_0159,2022-11-30 18:58:09
,wl-rdm,45,133183,0.0-6.37-0.37,0.0,46.0,,,,,,,[],,,,,,53.2,0.0,u,0.0,True,956.9000000022352,53.0,56.0,40.0,False,,362.1791269322006,[],"[800, 450]",ColorTask,14.0,38.0,,,HRV,HRV_0159,2022-11-30 18:58:09
,wl-rdm,46,135173,0.0-6.38-0.38,0.0,47.0,,,,,,,[],,,,,,87.9,0.0,u,0.0,True,679.8000000007451,38.0,56.0,40.0,False,,242.18816032935754,[],"[800, 450]",ColorTask,15.0,39.0,,,HRV,HRV_0159,2022-11-30 18:58:09
,wl-rdm,47,137217,0.0-6.39-0.39,0.0,48.0,,,,,,,[],,,,,,50.0,1.0,u,0.0,False,755.7999999970198,42.0,56.0,40.0,False,,223.34019797898316,[],"[800, 450]",ColorTask,14.0,40.0,,,HRV,HRV_0159,2022-11-30 18:58:09
,wl-rdm,48,139443,0.0-6.40-0.40,0.0,49.0,,,,,,,[],,,,,,56.4,1.0,i,1.0,True,936.1999999992549,52.0,56.0,40.0,False,,226.61512138317855,[],"[800, 450]",ColorTask,15.0,41.0,,,HRV,HRV_0159,2022-11-30 18:58:09
,wl-rdm,49,141452,0.0-6.41-0.41,0.0,50.0,,,,,,,[],,,,,,73.6,0.0,u,0.0,True,656.2000000029802,37.0,56.0,40.0,False,,285.9290218867508,[],"[800, 450]",ColorTask,16.0,42.0,,,HRV,HRV_0159,2022-11-30 18:58:09
,wl-rdm,50,143405,0.0-6.42-0.42,0.0,51.0,,,,,,,[],,,,,,62.5,0.0,u,0.0,True,669.3000000007451,37.0,56.0,40.0,False,,233.9019676064093,[],"[800, 450]",ColorTask,17.0,43.0,,,HRV,HRV_0159,2022-11-30 18:58:09
,wl-rdm,51,145431,0.0-6.43-0.43,0.0,52.0,,,,,,,[],,,,,,73.6,0.0,u,0.0,True,642.3999999985099,36.0,56.0,40.0,False,,319.80047678735656,[],"[800, 450]",ColorTask,18.0,44.0,,,HRV,HRV_0159,2022-11-30 18:58:09
,wl-rdm,52,147802,0.0-6.44-0.44,0.0,53.0,,,,,,,[],,,,,,73.6,1.0,i,1.0,True,964.4000000022352,54.0,56.0,40.0,False,,329.5066883952751,[],"[800, 450]",ColorTask,19.0,45.0,,,HRV,HRV_0159,2022-11-30 18:58:09
,wl-rdm,53,149846,0.0-6.45-0.45,0.0,54.0,,,,,,,[],,,,,,62.5,0.0,u,0.0,True,607.1000000014901,34.0,56.0,40.0,False,,365.46372526530945,[],"[800, 450]",ColorTask,20.0,46.0,,,HRV,HRV_0159,2022-11-30 18:58:09
,wl-rdm,54,151728,0.0-6.46-0.46,0.0,55.0,,,,,,,[],,,,,,87.9,0.0,u,0.0,True,575.1999999992549,32.0,56.0,40.0,False,,242.915189159603,[],"[800, 450]",ColorTask,21.0,47.0,,,HRV,HRV_0159,2022-11-30 18:58:09
,wl-rdm,55,153809,0.0-6.47-0.47,0.0,56.0,,,,,,,[],,,,,,53.2,0.0,u,0.0,True,629.1000000014901,35.0,56.0,40.0,False,,395.9006330201654,[],"[800, 450]",ColorTask,22.0,48.0,,,HRV,HRV_0159,2022-11-30 18:58:09
,wl-rdm,56,155818,0.0-6.48-0.48,0.0,57.0,,,,,,,[],,,,,,50.0,1.0,i,1.0,True,676.6000000014901,38.0,56.0,40.0,False,,267.61022819547077,[],"[800, 450]",ColorTask,23.0,49.0,,,HRV,HRV_0159,2022-11-30 18:58:09
,wl-rdm,57,157807,0.0-6.49-0.49,0.0,58.0,,,,,,,[],,,,,,73.6,1.0,i,1.0,True,613.3000000007451,34.0,56.0,40.0,False,,324.799197531534,[],"[800, 450]",ColorTask,24.0,50.0,,,HRV,HRV_0159,2022-11-30 18:58:09
,wl-rdm,58,159816,0.0-6.50-0.50,0.0,59.0,,,,,,,[],,,,,,73.6,1.0,i,1.0,True,561.1999999992549,32.0,56.0,40.0,False,,385.41806963770796,[],"[800, 450]",ColorTask,25.0,51.0,,,HRV,HRV_0159,2022-11-30 18:58:09
,wl-rdm,59,161986,0.0-6.51-0.51,0.0,60.0,,,,,,,[],,,,,,50.0,1.0,u,0.0,False,790.0,44.0,56.0,40.0,False,,309.05431200634644,[],"[800, 450]",ColorTask,24.0,52.0,,,HRV,HRV_0159,2022-11-30 18:58:09
,wl-rdm,60,163977,0.0-6.52-0.52,0.0,61.0,,,,,,,[],,,,,,53.2,0.0,i,1.0,False,657.8999999985099,37.0,56.0,40.0,False,,266.00839166563105,[],"[800, 450]",ColorTask,23.0,53.0,,,HRV,HRV_0159,2022-11-30 18:58:09
,wl-rdm,61,166076,0.0-6.53-0.53,0.0,62.0,,,,,,,[],,,,,,62.5,1.0,u,0.0,False,761.9000000022352,43.0,56.0,40.0,False,,265.17979992115875,[],"[800, 450]",ColorTask,22.0,54.0,,,HRV,HRV_0159,2022-11-30 18:58:09
,wl-rdm,62,168157,0.0-6.54-0.54,0.0,63.0,,,,,,,[],,,,,,73.6,0.0,u,0.0,True,655.1999999992549,37.0,56.0,40.0,False,,345.8326837151608,[],"[800, 450]",ColorTask,23.0,55.0,,,HRV,HRV_0159,2022-11-30 18:58:09
,wl-rdm,63,170093,0.0-6.55-0.55,0.0,64.0,,,,,,,[],,,,,,56.4,1.0,i,1.0,True,670.6000000014901,37.0,56.0,40.0,False,,203.34467603373207,[],"[800, 450]",ColorTask,24.0,56.0,,,HRV,HRV_0159,2022-11-30 18:58:09
,wl-rdm,64,172445,0.0-6.56-0.56,0.0,65.0,,,,,,,[],,,,,,53.2,1.0,u,0.0,False,998.9000000022352,56.0,56.0,40.0,False,,287.5353637244712,[],"[800, 450]",ColorTask,23.0,57.0,,,HRV,HRV_0159,2022-11-30 18:58:09
,wl-rdm,65,174544,0.0-6.57-0.57,0.0,66.0,,,,,,,[],,,,,,87.9,0.0,u,0.0,True,721.0999999977648,40.0,56.0,40.0,False,,320.68095328054187,[],"[800, 450]",ColorTask,24.0,58.0,,,HRV,HRV_0159,2022-11-30 18:58:09
,wl-rdm,66,176805,0.0-6.58-0.58,0.0,67.0,,,,,,,[],,,,,,53.2,1.0,i,1.0,True,987.8000000044703,55.0,56.0,40.0,False,,201.30053774647152,[],"[800, 450]",ColorTask,25.0,59.0,,,HRV,HRV_0159,2022-11-30 18:58:09
,wl-rdm,67,178832,0.0-6.59-0.59,0.0,68.0,,,,,,,[],,,,,,56.4,0.0,u,0.0,True,720.5,40.0,56.0,40.0,False,,240.84788755882303,[],"[800, 450]",ColorTask,26.0,60.0,,,HRV,HRV_0159,2022-11-30 18:58:09
,wl-rdm,68,181039,0.0-6.60-0.60,0.0,69.0,,,,,,,[],,,,,,62.5,0.0,u,0.0,True,829.5,46.0,56.0,40.0,False,,322.44138243696347,[],"[800, 450]",ColorTask,27.0,61.0,,,HRV,HRV_0159,2022-11-30 18:58:09
,wl-rdm,69,183137,0.0-6.61-0.61,0.0,70.0,,,,,,,[],,,,,,62.5,0.0,u,0.0,True,791.3000000007451,44.0,56.0,40.0,False,,244.214747377548,[],"[800, 450]",ColorTask,28.0,62.0,,,HRV,HRV_0159,2022-11-30 18:58:09
,wl-rdm,70,185363,0.0-6.62-0.62,0.0,71.0,,,,,,,[],,,,,,53.2,1.0,u,0.0,False,807.6999999992549,45.0,56.0,40.0,False,,352.1889910085267,[],"[800, 450]",ColorTask,27.0,63.0,,,HRV,HRV_0159,2022-11-30 18:58:09
,wl-rdm,71,187444,0.0-6.63-0.63,0.0,72.0,,,,,,,[],,,,,,87.9,1.0,i,1.0,True,662.4999999962747,37.0,56.0,40.0,False,,351.55736782590077,[],"[800, 450]",ColorTask,28.0,64.0,,,HRV,HRV_0159,2022-11-30 18:58:09
,wl-rdm,72,189470,0.0-6.64-0.64,0.0,73.0,,,,,,,[],,,,,,73.6,0.0,u,0.0,True,668.0,37.0,56.0,40.0,False,,300.2442164341494,[],"[800, 450]",ColorTask,29.0,65.0,,,HRV,HRV_0159,2022-11-30 18:58:09
,wl-rdm,73,191677,0.0-6.65-0.65,0.0,74.0,,,,,,,[],,,,,,50.0,1.0,i,1.0,True,886.0,49.0,56.0,40.0,False,,267.71207170031204,[],"[800, 450]",ColorTask,30.0,66.0,,,HRV,HRV_0159,2022-11-30 18:58:09
,wl-rdm,74,193794,0.0-6.66-0.66,0.0,75.0,,,,,,,[],,,,,,62.5,1.0,u,0.0,False,810.1000000014901,45.0,56.0,40.0,False,,243.45039317488963,[],"[800, 450]",ColorTask,29.0,67.0,,,HRV,HRV_0159,2022-11-30 18:58:09
,wl-rdm,75,195694,0.0-6.67-0.67,0.0,76.0,,,,,,,[],,,,,,62.5,0.0,u,0.0,True,616.8000000007451,35.0,56.0,40.0,False,,206.38622347802578,[],"[800, 450]",ColorTask,30.0,68.0,,,HRV,HRV_0159,2022-11-30 18:58:09
,wl-rdm,76,197630,0.0-6.68-0.68,0.0,77.0,,,,,,,[],,,,,,87.9,0.0,u,0.0,True,559.0,31.0,56.0,40.0,False,,294.4633476636588,[],"[800, 450]",ColorTask,31.0,69.0,,,HRV,HRV_0159,2022-11-30 18:58:09
,wl-rdm,77,199621,0.0-6.69-0.69,0.0,78.0,,,,,,,[],,,,,,73.6,1.0,i,1.0,True,698.0000000037253,39.0,56.0,40.0,False,,227.19190245100194,[],"[800, 450]",ColorTask,32.0,70.0,,,HRV,HRV_0159,2022-11-30 18:58:09
,wl-rdm,78,201738,0.0-6.70-0.70,0.0,79.0,,,,,,,[],,,,,,50.0,1.0,u,0.0,False,801.8999999985099,45.0,56.0,40.0,False,,252.0628745397941,[],"[800, 450]",ColorTask,31.0,71.0,,,HRV,HRV_0159,2022-11-30 18:58:09
,wl-rdm,79,203709,0.0-6.71-0.71,0.0,80.0,,,,,,,[],,,,,,50.0,0.0,u,0.0,True,704.3999999947846,39.0,56.0,40.0,False,,211.808791847528,[],"[800, 450]",ColorTask,32.0,72.0,,,HRV,HRV_0159,2022-11-30 18:58:09
,wl-rdm,80,205845,0.0-6.72-0.72,0.0,81.0,,,,,,,[],,,,,,56.4,0.0,i,1.0,False,734.6999999955297,41.0,56.0,40.0,False,,332.2373623391301,[],"[800, 450]",ColorTask,31.0,73.0,,,HRV,HRV_0159,2022-11-30 18:58:09
,wl-rdm,81,208052,0.0-6.73-0.73,0.0,82.0,,,,,,,[],,,,,,53.2,1.0,i,1.0,True,771.8000000007451,43.0,56.0,40.0,False,,363.1045053495818,[],"[800, 450]",ColorTask,32.0,74.0,,,HRV,HRV_0159,2022-11-30 18:58:09
,wl-rdm,82,210295,0.0-6.74-0.74,0.0,83.0,,,,,,,[],,,,,,73.6,1.0,i,1.0,True,804.5,45.0,56.0,40.0,False,,368.10750414768023,[],"[800, 450]",ColorTask,33.0,75.0,,,HRV,HRV_0159,2022-11-30 18:58:09
,wl-rdm,83,212304,0.0-6.75-0.75,0.0,84.0,,,,,,,[],,,,,,73.6,1.0,i,1.0,True,575.3000000007451,32.0,56.0,40.0,False,,362.1560037188826,[],"[800, 450]",ColorTask,34.0,76.0,,,HRV,HRV_0159,2022-11-30 18:58:09
,wl-rdm,84,214402,0.0-6.76-0.76,0.0,85.0,,,,,,,[],,,,,,50.0,1.0,u,0.0,False,773.0999999977648,43.0,56.0,40.0,False,,262.2971077599986,[],"[800, 450]",ColorTask,33.0,77.0,,,HRV,HRV_0159,2022-11-30 18:58:09
,wl-rdm,85,216645,0.0-6.77-0.77,0.0,86.0,,,,,,,[],,,,,,56.4,1.0,u,0.0,False,897.1999999992549,50.0,56.0,40.0,False,,278.50241778858157,[],"[800, 450]",ColorTask,32.0,78.0,,,HRV,HRV_0159,2022-11-30 18:58:09
,wl-rdm,86,218781,0.0-6.78-0.78,0.0,87.0,,,,,,,[],,,,,,53.2,1.0,i,1.0,True,780.8000000007451,44.0,56.0,40.0,False,,275.89999702267403,[],"[800, 450]",ColorTask,33.0,79.0,,,HRV,HRV_0159,2022-11-30 18:58:09
,wl-rdm,87,220771,0.0-6.79-0.79,0.0,88.0,,,,,,,[],,,,,,87.9,1.0,i,1.0,True,644.4000000022352,36.0,56.0,40.0,False,,277.0860709911876,[],"[800, 450]",ColorTask,34.0,80.0,,,HRV,HRV_0159,2022-11-30 18:58:09
,wl-rdm,88,222816,0.0-6.80-0.80,0.0,89.0,,,,,,,[],,,,,,56.4,1.0,u,0.0,False,738.5,41.0,56.0,40.0,False,,238.25676673345055,[],"[800, 450]",ColorTask,33.0,81.0,,,HRV,HRV_0159,2022-11-30 18:58:09
,wl-rdm,89,224824,0.0-6.81-0.81,0.0,90.0,,,,,,,[],,,,,,73.6,1.0,i,1.0,True,640.8000000007451,36.0,56.0,40.0,False,,299.2587169062367,[],"[800, 450]",ColorTask,34.0,82.0,,,HRV,HRV_0159,2022-11-30 18:58:09
,wl-rdm,90,226923,0.0-6.82-0.82,0.0,91.0,,,,,,,[],,,,,,56.4,1.0,u,0.0,False,747.8000000007451,42.0,56.0,40.0,False,,287.65671931632204,[],"[800, 450]",ColorTask,33.0,83.0,,,HRV,HRV_0159,2022-11-30 18:58:09
,wl-rdm,91,228823,0.0-6.83-0.83,0.0,92.0,,,,,,,[],,,,,,87.9,0.0,u,0.0,True,551.5,31.0,56.0,40.0,False,,283.9194489631641,[],"[800, 450]",ColorTask,34.0,84.0,,,HRV,HRV_0159,2022-11-30 18:58:09
,wl-rdm,92,230776,0.0-6.84-0.84,0.0,93.0,,,,,,,[],,,,,,87.9,1.0,i,1.0,True,630.9000000022352,35.0,56.0,40.0,False,,270.86080506740643,[],"[800, 450]",ColorTask,35.0,85.0,,,HRV,HRV_0159,2022-11-30 18:58:09
,wl-rdm,93,232839,0.0-6.85-0.85,0.0,94.0,,,,,,,[],,,,,,87.9,0.0,u,0.0,True,587.1000000014901,33.0,56.0,40.0,False,,399.27876718082007,[],"[800, 450]",ColorTask,36.0,86.0,,,HRV,HRV_0159,2022-11-30 18:58:09
,wl-rdm,94,235282,0.0-6.86-0.86,0.0,95.0,,,,,,,[],,,,,,56.4,0.0,u,0.0,True,1044.0999999977648,58.0,56.0,40.0,False,,332.67015250734437,[],"[800, 450]",ColorTask,37.0,87.0,,,HRV,HRV_0159,2022-11-30 18:58:09
,wl-rdm,95,237435,0.0-6.87-0.87,0.0,96.0,,,,,,,[],,,,,,62.5,1.0,i,1.0,True,709.8000000007451,40.0,56.0,40.0,False,,374.3603467856825,[],"[800, 450]",ColorTask,38.0,88.0,,,HRV,HRV_0159,2022-11-30 18:58:09
,wl-rdm,96,239516,0.0-6.88-0.88,0.0,97.0,,,,,,,[],,,,,,50.0,1.0,i,1.0,True,763.9000000022352,43.0,56.0,40.0,False,,238.87271255088743,[],"[800, 450]",ColorTask,39.0,89.0,,,HRV,HRV_0159,2022-11-30 18:58:09
,wl-rdm,97,241560,0.0-6.89-0.89,0.0,98.0,,,,,,,[],,,,,,73.6,0.0,u,0.0,True,712.0999999977648,40.0,56.0,40.0,False,,270.8335196028388,[],"[800, 450]",ColorTask,40.0,90.0,,,HRV,HRV_0159,2022-11-30 18:58:09
,wl-rdm,98,243587,0.0-6.90-0.90,0.0,99.0,,,,,,,[],,,,,,50.0,0.0,i,1.0,False,754.0000000037253,42.0,56.0,40.0,False,,215.47305064120997,[],"[800, 450]",ColorTask,39.0,91.0,,,HRV,HRV_0159,2022-11-30 18:58:09
,wl-rdm,99,245576,0.0-6.91-0.91,0.0,100.0,,,,,,,[],,,,,,87.9,1.0,i,1.0,True,675.5,38.0,56.0,40.0,False,,244.13664083095398,[],"[800, 450]",ColorTask,40.0,92.0,,,HRV,HRV_0159,2022-11-30 18:58:09
,wl-rdm,100,247694,0.0-6.92-0.92,0.0,101.0,,,,,,,[],,,,,,50.0,0.0,u,0.0,True,692.1000000014901,39.0,56.0,40.0,False,,351.54754915334934,[],"[800, 450]",ColorTask,41.0,93.0,,,HRV,HRV_0159,2022-11-30 18:58:09
,wl-rdm,101,250009,0.0-6.93-0.93,0.0,102.0,,,,,,,[],,,,,,62.5,1.0,i,1.0,True,873.9000000022352,49.0,56.0,40.0,False,,345.84755127294636,[],"[800, 450]",ColorTask,42.0,94.0,,,HRV,HRV_0159,2022-11-30 18:58:09
,wl-rdm,102,252217,0.0-6.94-0.94,0.0,103.0,,,,,,,[],,,,,,56.4,0.0,u,0.0,True,874.0,49.0,56.0,40.0,False,,267.92868328821316,[],"[800, 450]",ColorTask,43.0,95.0,,,HRV,HRV_0159,2022-11-30 18:58:09
,wl-rdm,103,254388,0.0-6.95-0.95,0.0,104.0,,,,,,,[],,,,,,62.5,0.0,u,0.0,True,770.1000000014901,43.0,56.0,40.0,False,,327.23475417547263,[],"[800, 450]",ColorTask,44.0,96.0,,,HRV,HRV_0159,2022-11-30 18:58:09
,wl-rdm,104,256559,0.0-6.96-0.96,0.0,105.0,,,,,,,[],,,,,,53.2,1.0,i,1.0,True,775.1999999992549,43.0,56.0,40.0,False,,328.64088831491557,[],"[800, 450]",ColorTask,45.0,97.0,,,HRV,HRV_0159,2022-11-30 18:58:09
,wl-rdm,105,258567,0.0-6.97-0.97,0.0,106.0,,,,,,,[],,,,,,73.6,1.0,i,1.0,True,695.6000000014901,39.0,56.0,40.0,False,,240.41333098088734,[],"[800, 450]",ColorTask,46.0,98.0,,,HRV,HRV_0159,2022-11-30 18:58:09
,wl-rdm,106,260594,0.0-6.98-0.98,0.0,107.0,,,,,,,[],,,,,,50.0,0.0,u,0.0,True,754.3000000007451,42.0,56.0,40.0,False,,214.71639577909855,[],"[800, 450]",ColorTask,47.0,99.0,,,HRV,HRV_0159,2022-11-30 18:58:09
,wl-rdm,107,262566,0.0-6.99-0.99,0.0,108.0,,,,,,,[],,,,,,53.2,0.0,u,0.0,True,698.0,39.0,56.0,40.0,False,,209.08789303995815,[],"[800, 450]",ColorTask,48.0,100.0,,,HRV,HRV_0159,2022-11-30 18:58:09
,wl-rdm,108,264413,0.0-6.100-0.100,0.0,109.0,,,,,,,[],,,,,,87.9,1.0,i,1.0,True,564.9000000022352,32.0,56.0,40.0,False,,209.66829847226074,[],"[800, 450]",ColorTask,49.0,101.0,,,HRV,HRV_0159,2022-11-30 18:58:09
,wl-rdm,109,266293,0.0-6.101-0.101,0.0,110.0,,,,,,,[],,,,,,87.9,1.0,i,1.0,True,588.1999999992549,33.0,56.0,40.0,False,,222.60571543776845,[],"[800, 450]",ColorTask,50.0,102.0,,,HRV,HRV_0159,2022-11-30 18:58:09
,wl-rdm,110,268265,0.0-6.102-0.102,0.0,111.0,,,,,,,[],,,,,,62.5,1.0,i,1.0,True,531.1999999992549,30.0,56.0,40.0,False,,352.3026578553025,[],"[800, 450]",ColorTask,51.0,103.0,,,HRV,HRV_0159,2022-11-30 18:58:09
,wl-rdm,111,270202,0.0-6.103-0.103,0.0,112.0,,,,,,,[],,,,,,56.4,0.0,u,0.0,True,548.3999999985099,31.0,56.0,40.0,False,,309.764157268168,[],"[800, 450]",ColorTask,52.0,104.0,,,HRV,HRV_0159,2022-11-30 18:58:09
,wl-rdm,112,272029,0.0-6.104-0.104,0.0,113.0,,,,,,,[],,,,,,53.2,0.0,u,0.0,True,544.0999999977648,31.0,56.0,40.0,False,,212.55762080822763,[],"[800, 450]",ColorTask,53.0,105.0,,,HRV,HRV_0159,2022-11-30 18:58:09
,wl-rdm,113,274037,0.0-6.105-0.105,0.0,114.0,,,,,,,[],,,,,,53.2,0.0,i,1.0,False,623.9000000022352,35.0,56.0,40.0,False,,324.50834042396735,[],"[800, 450]",ColorTask,52.0,106.0,,,HRV,HRV_0159,2022-11-30 18:58:09
,wl-rdm,114,276082,0.0-6.106-0.106,0.0,115.0,,,,,,,[],,,,,,56.4,1.0,i,1.0,True,591.0,33.0,56.0,40.0,False,,382.72818866491247,[],"[800, 450]",ColorTask,53.0,107.0,,,HRV,HRV_0159,2022-11-30 18:58:09
,wl-rdm,115,278090,0.0-6.107-0.107,0.0,116.0,,,,,,,[],,,,,,53.2,0.0,u,0.0,True,673.8999999985099,38.0,56.0,40.0,False,,261.9959619832969,[],"[800, 450]",ColorTask,54.0,108.0,,,HRV,HRV_0159,2022-11-30 18:58:09
,wl-html-keyboard-response,116,285431,0.0-7.0-0.0,1.0,117.0,,,,,,,,5330.300000000745,1.0,0,,,,,,,,,,,,,,,,,,,,,,HRV,HRV_0159,2022-11-30 18:58:09
,wl-rdm,117,287371,0.0-8.0-0.0,1.0,118.0,,,,,,,[],,,,,,50.0,0.0,i,1.0,False,603.0999999977648,34.0,56.0,40.0,False,,269.4019790414709,[],"[800, 450]",ColorTask,53.0,1.0,,,HRV,HRV_0159,2022-11-30 18:58:09
,wl-rdm,118,289416,0.0-8.1-0.1,1.0,119.0,,,,,,,[],,,,,,56.4,1.0,u,0.0,False,675.3999999985099,38.0,56.0,40.0,False,,307.6377489381235,[],"[800, 450]",ColorTask,52.0,2.0,,,HRV,HRV_0159,2022-11-30 18:58:09
,wl-rdm,119,291442,0.0-8.2-0.2,1.0,120.0,,,,,,,[],,,,,,62.5,1.0,u,0.0,False,752.8999999985099,42.0,56.0,40.0,False,,201.40947447846858,[],"[800, 450]",ColorTask,51.0,3.0,,,HRV,HRV_0159,2022-11-30 18:58:09
,wl-rdm,120,293704,0.0-8.3-0.3,1.0,121.0,,,,,,,[],,,,,,62.5,1.0,i,1.0,True,983.1999999992549,55.0,56.0,40.0,False,,202.95923628141685,[],"[800, 450]",ColorTask,52.0,4.0,,,HRV,HRV_0159,2022-11-30 18:58:09
,wl-rdm,121,295640,0.0-8.4-0.4,1.0,122.0,,,,,,,[],,,,,,87.9,1.0,i,1.0,True,549.2000000029802,31.0,56.0,40.0,False,,315.459385005167,[],"[800, 450]",ColorTask,53.0,5.0,,,HRV,HRV_0159,2022-11-30 18:58:09
,wl-rdm,122,297575,0.0-8.5-0.5,1.0,123.0,,,,,,,[],,,,,,50.0,0.0,u,0.0,True,657.6999999992549,37.0,56.0,40.0,False,,206.8986780385148,[],"[800, 450]",ColorTask,54.0,6.0,,,HRV,HRV_0159,2022-11-30 18:58:09
,wl-rdm,123,299910,0.0-8.6-0.6,1.0,124.0,,,,,,,[],,,,,,50.0,0.0,i,1.0,False,876.5000000037253,49.0,56.0,40.0,False,,385.98180770902604,[],"[800, 450]",ColorTask,53.0,7.0,,,HRV,HRV_0159,2022-11-30 18:58:09
,wl-rdm,124,302008,0.0-8.7-0.7,1.0,125.0,,,,,,,[],,,,,,50.0,1.0,u,0.0,False,693.1999999992549,39.0,56.0,40.0,False,,330.5194852142839,[],"[800, 450]",ColorTask,52.0,8.0,,,HRV,HRV_0159,2022-11-30 18:58:09
,wl-rdm,125,303854,0.0-8.8-0.8,1.0,126.0,,,,,,,[],,,,,,73.6,0.0,u,0.0,True,577.5999999977648,32.0,56.0,40.0,False,,201.98653977451792,[],"[800, 450]",ColorTask,53.0,9.0,,,HRV,HRV_0159,2022-11-30 18:58:09
,wl-rdm,126,305700,0.0-8.9-0.9,1.0,127.0,,,,,,,[],,,,,,87.9,0.0,u,0.0,True,549.3999999947846,31.0,56.0,40.0,False,,230.91302929970416,[],"[800, 450]",ColorTask,54.0,10.0,,,HRV,HRV_0159,2022-11-30 18:58:09
,wl-rdm,127,307980,0.0-8.10-0.10,1.0,128.0,,,,,,,[],,,,,,53.2,1.0,u,0.0,False,922.6999999992549,51.0,56.0,40.0,False,,300.5489382200359,[],"[800, 450]",ColorTask,53.0,11.0,,,HRV,HRV_0159,2022-11-30 18:58:09
,wl-rdm,128,310024,0.0-8.11-0.11,1.0,129.0,,,,,,,[],,,,,,73.6,1.0,i,1.0,True,603.8999999947846,34.0,56.0,40.0,False,,362.44185643179605,[],"[800, 450]",ColorTask,54.0,12.0,,,HRV,HRV_0159,2022-11-30 18:58:09
,wl-rdm,129,312123,0.0-8.12-0.12,1.0,130.0,,,,,,,[],,,,,,50.0,1.0,u,0.0,False,673.0,38.0,56.0,40.0,False,,356.4582882864703,[],"[800, 450]",ColorTask,53.0,13.0,,,HRV,HRV_0159,2022-11-30 18:58:09
,wl-rdm,130,314203,0.0-8.13-0.13,1.0,131.0,,,,,,,[],,,,,,87.9,0.0,u,0.0,True,636.1999999955297,36.0,56.0,40.0,False,,378.7291503574629,[],"[800, 450]",ColorTask,54.0,14.0,,,HRV,HRV_0159,2022-11-30 18:58:09
,wl-rdm,131,316139,0.0-8.14-0.14,1.0,132.0,,,,,,,[],,,,,,73.6,0.0,u,0.0,True,654.3999999985099,37.0,56.0,40.0,False,,214.53420804744977,[],"[800, 450]",ColorTask,55.0,15.0,,,HRV,HRV_0159,2022-11-30 18:58:09
,wl-rdm,132,318347,0.0-8.15-0.15,1.0,133.0,,,,,,,[],,,,,,53.2,1.0,i,1.0,True,767.0999999977648,43.0,56.0,40.0,False,,377.2278289934841,[],"[800, 450]",ColorTask,56.0,16.0,,,HRV,HRV_0159,2022-11-30 18:58:09
,wl-rdm,133,320318,0.0-8.16-0.16,1.0,134.0,,,,,,,[],,,,,,62.5,0.0,u,0.0,True,629.3999999985099,35.0,56.0,40.0,False,,280.23233196278477,[],"[800, 450]",ColorTask,57.0,17.0,,,HRV,HRV_0159,2022-11-30 18:58:09
,wl-rdm,134,322164,0.0-8.17-0.17,1.0,135.0,,,,,,,[],,,,,,87.9,1.0,i,1.0,True,554.3000000007451,31.0,56.0,40.0,False,,233.15126752761046,[],"[800, 450]",ColorTask,58.0,18.0,,,HRV,HRV_0159,2022-11-30 18:58:09
,wl-rdm,135,323901,0.0-8.18-0.18,1.0,136.0,,,,,,,[],,,,,,73.6,1.0,i,1.0,True,450.5,25.0,56.0,40.0,False,,221.14128390373406,[],"[800, 450]",ColorTask,59.0,19.0,,,HRV,HRV_0159,2022-11-30 18:58:09
,wl-rdm,136,325928,0.0-8.19-0.19,1.0,137.0,,,,,,,[],,,,,,53.2,1.0,u,0.0,False,748.0999999977648,42.0,56.0,40.0,False,,202.3976683042162,[],"[800, 450]",ColorTask,58.0,20.0,,,HRV,HRV_0159,2022-11-30 18:58:09
,wl-rdm,137,327900,0.0-8.20-0.20,1.0,138.0,,,,,,,[],,,,,,53.2,0.0,u,0.0,True,614.3999999985099,34.0,56.0,40.0,False,,293.6784234070776,[],"[800, 450]",ColorTask,59.0,21.0,,,HRV,HRV_0159,2022-11-30 18:58:09
,wl-rdm,138,330108,0.0-8.21-0.21,1.0,139.0,,,,,,,[],,,,,,53.2,0.0,u,0.0,True,802.7000000029802,45.0,56.0,40.0,False,,327.61354125071443,[],"[800, 450]",ColorTask,60.0,22.0,,,HRV,HRV_0159,2022-11-30 18:58:09
,wl-rdm,139,332260,0.0-8.22-0.22,1.0,140.0,,,,,,,[],,,,,,73.6,0.0,u,0.0,True,696.3000000007451,39.0,56.0,40.0,False,,365.2741920092759,[],"[800, 450]",ColorTask,61.0,23.0,,,HRV,HRV_0159,2022-11-30 18:58:09
,wl-rdm,140,334106,0.0-8.23-0.23,1.0,141.0,,,,,,,[],,,,,,53.2,0.0,u,0.0,True,564.4000000022352,32.0,56.0,40.0,False,,202.31681298838438,[],"[800, 450]",ColorTask,62.0,24.0,,,HRV,HRV_0159,2022-11-30 18:58:09
,wl-rdm,141,336079,0.0-8.24-0.24,1.0,142.0,,,,,,,[],,,,,,53.2,1.0,u,0.0,False,595.3000000044703,33.0,56.0,40.0,False,,312.855022257143,[],"[800, 450]",ColorTask,61.0,25.0,,,HRV,HRV_0159,2022-11-30 18:58:09
,wl-rdm,142,338231,0.0-8.25-0.25,1.0,143.0,,,,,,,[],,,,,,62.5,1.0,i,1.0,True,730.3000000007451,41.0,56.0,40.0,False,,349.992431705037,[],"[800, 450]",ColorTask,62.0,26.0,,,HRV,HRV_0159,2022-11-30 18:58:09
,wl-rdm,143,340203,0.0-8.26-0.26,1.0,144.0,,,,,,,[],,,,,,87.9,1.0,i,1.0,True,564.9999999962747,32.0,56.0,40.0,False,,321.53057191948506,[],"[800, 450]",ColorTask,63.0,27.0,,,HRV,HRV_0159,2022-11-30 18:58:09
,wl-rdm,144,342139,0.0-8.27-0.27,1.0,145.0,,,,,,,[],,,,,,62.5,0.0,u,0.0,True,651.6000000014901,36.0,56.0,40.0,False,,226.16821081286403,[],"[800, 450]",ColorTask,64.0,28.0,,,HRV,HRV_0159,2022-11-30 18:58:09
,wl-rdm,145,344238,0.0-8.28-0.28,1.0,146.0,,,,,,,[],,,,,,53.2,0.0,u,0.0,True,720.4999999962747,40.0,56.0,40.0,False,,318.1983297305584,[],"[800, 450]",ColorTask,65.0,29.0,,,HRV,HRV_0159,2022-11-30 18:58:09
,wl-rdm,146,346155,0.0-8.29-0.29,1.0,147.0,,,,,,,[],,,,,,50.0,1.0,u,0.0,False,560.1999999992549,31.0,56.0,40.0,False,,291.4798387713518,[],"[800, 450]",ColorTask,64.0,30.0,,,HRV,HRV_0159,2022-11-30 18:58:09
,wl-rdm,147,348345,0.0-8.30-0.30,1.0,148.0,,,,,,,[],,,,,,50.0,0.0,i,1.0,False,782.2999999970198,44.0,56.0,40.0,False,,328.55923414330744,[],"[800, 450]",ColorTask,63.0,31.0,,,HRV,HRV_0159,2022-11-30 18:58:09
,wl-rdm,148,350444,0.0-8.31-0.31,1.0,149.0,,,,,,,[],,,,,,73.6,1.0,u,0.0,False,820.1999999955297,46.0,56.0,40.0,False,,212.636974477678,[],"[800, 450]",ColorTask,62.0,32.0,,,HRV,HRV_0159,2022-11-30 18:58:09
,wl-rdm,149,352434,0.0-8.32-0.32,1.0,150.0,,,,,,,[],,,,,,53.2,0.0,u,0.0,True,645.5,36.0,56.0,40.0,False,,273.50132818478505,[],"[800, 450]",ColorTask,63.0,33.0,,,HRV,HRV_0159,2022-11-30 18:58:09
,wl-rdm,150,354406,0.0-8.33-0.33,1.0,151.0,,,,,,,[],,,,,,56.4,0.0,u,0.0,True,532.3000000007451,30.0,56.0,40.0,False,,361.69323857783985,[],"[800, 450]",ColorTask,64.0,34.0,,,HRV,HRV_0159,2022-11-30 18:58:09
,wl-rdm,151,356288,0.0-8.34-0.34,1.0,152.0,,,,,,,[],,,,,,62.5,0.0,u,0.0,True,610.6000000014901,34.0,56.0,40.0,False,,210.01463315213735,[],"[800, 450]",ColorTask,65.0,35.0,,,HRV,HRV_0159,2022-11-30 18:58:09
,wl-rdm,152,358296,0.0-8.35-0.35,1.0,153.0,,,,,,,[],,,,,,62.5,0.0,u,0.0,True,624.0,35.0,56.0,40.0,False,,317.95855008295075,[],"[800, 450]",ColorTask,66.0,36.0,,,HRV,HRV_0159,2022-11-30 18:58:09
,wl-rdm,153,360287,0.0-8.36-0.36,1.0,154.0,,,,,,,[],,,,,,62.5,1.0,i,1.0,True,683.9000000022352,38.0,56.0,40.0,False,,250.00923007451908,[],"[800, 450]",ColorTask,67.0,37.0,,,HRV,HRV_0159,2022-11-30 18:58:09
,wl-rdm,154,362403,0.0-8.37-0.37,1.0,155.0,,,,,,,[],,,,,,53.2,1.0,u,0.0,False,660.5,37.0,56.0,40.0,False,,396.74573427058124,[],"[800, 450]",ColorTask,66.0,38.0,,,HRV,HRV_0159,2022-11-30 18:58:09
,wl-rdm,155,364393,0.0-8.38-0.38,1.0,156.0,,,,,,,[],,,,,,62.5,0.0,u,0.0,True,710.3000000007451,40.0,56.0,40.0,False,,204.274972515608,[],"[800, 450]",ColorTask,67.0,39.0,,,HRV,HRV_0159,2022-11-30 18:58:09
,wl-rdm,156,366202,0.0-8.39-0.39,1.0,157.0,,,,,,,[],,,,,,87.9,0.0,u,0.0,True,488.5,27.0,56.0,40.0,False,,271.1585344971979,[],"[800, 450]",ColorTask,68.0,40.0,,,HRV,HRV_0159,2022-11-30 18:58:09
,wl-rdm,157,368320,0.0-8.40-0.40,1.0,158.0,,,,,,,[],,,,,,56.4,1.0,i,1.0,True,646.6000000014901,36.0,56.0,40.0,False,,397.2901235698207,[],"[800, 450]",ColorTask,69.0,41.0,,,HRV,HRV_0159,2022-11-30 18:58:09
,wl-rdm,158,370238,0.0-8.41-0.41,1.0,159.0,,,,,,,[],,,,,,73.6,0.0,u,0.0,True,558.3999999985099,31.0,56.0,40.0,False,,292.74555020872015,[],"[800, 450]",ColorTask,70.0,42.0,,,HRV,HRV_0159,2022-11-30 18:58:09
,wl-rdm,159,372571,0.0-8.42-0.42,1.0,160.0,,,,,,,[],,,,,,56.4,0.0,u,0.0,True,939.5999999977648,52.0,56.0,40.0,False,,336.7067480991624,[],"[800, 450]",ColorTask,71.0,43.0,,,HRV,HRV_0159,2022-11-30 18:58:09
,wl-rdm,160,374507,0.0-8.43-0.43,1.0,161.0,,,,,,,[],,,,,,56.4,1.0,i,1.0,True,619.8999999985099,35.0,56.0,40.0,False,,244.93735020211136,[],"[800, 450]",ColorTask,72.0,44.0,,,HRV,HRV_0159,2022-11-30 18:58:09
,wl-rdm,161,376553,0.0-8.44-0.44,1.0,162.0,,,,,,,[],,,,,,56.4,1.0,i,1.0,True,761.0999999977648,43.0,56.0,40.0,False,,208.6818151260374,[],"[800, 450]",ColorTask,73.0,45.0,,,HRV,HRV_0159,2022-11-30 18:58:09
,wl-rdm,162,378523,0.0-8.45-0.45,1.0,163.0,,,,,,,[],,,,,,87.9,0.0,u,0.0,True,654.9000000022352,37.0,56.0,40.0,False,,231.5841098790682,[],"[800, 450]",ColorTask,74.0,46.0,,,HRV,HRV_0159,2022-11-30 18:58:09
,wl-rdm,163,380731,0.0-8.46-0.46,1.0,164.0,,,,,,,[],,,,,,73.6,1.0,i,1.0,True,925.5,52.0,56.0,40.0,False,,205.55680238672826,[],"[800, 450]",ColorTask,75.0,47.0,,,HRV,HRV_0159,2022-11-30 18:58:09
,wl-rdm,164,383047,0.0-8.47-0.47,1.0,165.0,,,,,,,[],,,,,,73.6,0.0,u,0.0,True,982.2000000029802,55.0,56.0,40.0,False,,260.61631958548384,[],"[800, 450]",ColorTask,76.0,48.0,,,HRV,HRV_0159,2022-11-30 18:58:09
,wl-rdm,165,385290,0.0-8.48-0.48,1.0,166.0,,,,,,,[],,,,,,50.0,0.0,i,1.0,False,802.7000000029802,45.0,56.0,40.0,False,,375.71283398393905,[],"[800, 450]",ColorTask,75.0,49.0,,,HRV,HRV_0159,2022-11-30 18:58:09
,wl-rdm,166,387498,0.0-8.49-0.49,1.0,167.0,,,,,,,[],,,,,,73.6,0.0,u,0.0,True,766.0000000037253,43.0,56.0,40.0,False,,365.6285462104662,[],"[800, 450]",ColorTask,76.0,50.0,,,HRV,HRV_0159,2022-11-30 18:58:09
,wl-rdm,167,389507,0.0-8.50-0.50,1.0,168.0,,,,,,,[],,,,,,62.5,0.0,u,0.0,True,662.3000000007451,37.0,56.0,40.0,False,,279.41053455420604,[],"[800, 450]",ColorTask,77.0,51.0,,,HRV,HRV_0159,2022-11-30 18:58:09
,wl-rdm,168,391388,0.0-8.51-0.51,1.0,169.0,,,,,,,[],,,,,,73.6,1.0,i,1.0,True,583.6000000014901,33.0,56.0,40.0,False,,235.43027326035713,[],"[800, 450]",ColorTask,78.0,52.0,,,HRV,HRV_0159,2022-11-30 18:58:09
,wl-rdm,169,393324,0.0-8.52-0.52,1.0,170.0,,,,,,,[],,,,,,62.5,1.0,i,1.0,True,579.1000000014901,32.0,56.0,40.0,False,,307.03099446680244,[],"[800, 450]",ColorTask,79.0,53.0,,,HRV,HRV_0159,2022-11-30 18:58:09
,wl-rdm,170,395332,0.0-8.53-0.53,1.0,171.0,,,,,,,[],,,,,,56.4,0.0,u,0.0,True,641.6999999992549,36.0,56.0,40.0,False,,304.07446990378935,[],"[800, 450]",ColorTask,80.0,54.0,,,HRV,HRV_0159,2022-11-30 18:58:09
,wl-rdm,171,397196,0.0-8.54-0.54,1.0,172.0,,,,,,,[],,,,,,87.9,0.0,u,0.0,True,576.8000000007451,32.0,56.0,40.0,False,,231.05399545804823,[],"[800, 450]",ColorTask,81.0,55.0,,,HRV,HRV_0159,2022-11-30 18:58:09
,wl-rdm,172,399131,0.0-8.55-0.55,1.0,173.0,,,,,,,[],,,,,,56.4,0.0,i,1.0,False,631.5999999977648,35.0,56.0,40.0,False,,248.8860977751372,[],"[800, 450]",ColorTask,80.0,56.0,,,HRV,HRV_0159,2022-11-30 18:58:09
,wl-rdm,173,401068,0.0-8.56-0.56,1.0,174.0,,,,,,,[],,,,,,87.9,1.0,i,1.0,True,649.4000000022352,36.0,56.0,40.0,False,,229.57732980051293,[],"[800, 450]",ColorTask,81.0,57.0,,,HRV,HRV_0159,2022-11-30 18:58:09
,wl-rdm,174,403275,0.0-8.57-0.57,1.0,175.0,,,,,,,[],,,,,,50.0,1.0,u,0.0,False,786.0999999977648,44.0,56.0,40.0,False,,361.1683060671328,[],"[800, 450]",ColorTask,80.0,58.0,,,HRV,HRV_0159,2022-11-30 18:58:09
,wl-rdm,175,405265,0.0-8.58-0.58,1.0,176.0,,,,,,,[],,,,,,56.4,1.0,i,1.0,True,681.3999999985099,38.0,56.0,40.0,False,,221.61778800303762,[],"[800, 450]",ColorTask,81.0,59.0,,,HRV,HRV_0159,2022-11-30 18:58:09
,wl-rdm,176,407274,0.0-8.59-0.59,1.0,177.0,,,,,,,[],,,,,,56.4,0.0,u,0.0,True,724.8000000007451,40.0,56.0,40.0,False,,222.90425693753176,[],"[800, 450]",ColorTask,82.0,60.0,,,HRV,HRV_0159,2022-11-30 18:58:09
,wl-rdm,177,409228,0.0-8.60-0.60,1.0,178.0,,,,,,,[],,,,,,87.9,0.0,u,0.0,True,640.3000000007451,36.0,56.0,40.0,False,,250.23525483054738,[],"[800, 450]",ColorTask,83.0,61.0,,,HRV,HRV_0159,2022-11-30 18:58:09
,wl-rdm,178,411255,0.0-8.61-0.61,1.0,179.0,,,,,,,[],,,,,,56.4,1.0,i,1.0,True,754.1999999992549,42.0,56.0,40.0,False,,208.57912462886472,[],"[800, 450]",ColorTask,84.0,62.0,,,HRV,HRV_0159,2022-11-30 18:58:09
,wl-rdm,179,413299,0.0-8.62-0.62,1.0,180.0,,,,,,,[],,,,,,53.2,1.0,u,0.0,False,696.4999999962747,39.0,56.0,40.0,False,,287.6072301928484,[],"[800, 450]",ColorTask,83.0,63.0,,,HRV,HRV_0159,2022-11-30 18:58:09
,wl-rdm,180,415434,0.0-8.63-0.63,1.0,181.0,,,,,,,[],,,,,,73.6,1.0,i,1.0,True,783.5,44.0,56.0,40.0,False,,273.2520041375164,[],"[800, 450]",ColorTask,84.0,64.0,,,HRV,HRV_0159,2022-11-30 18:58:09
,wl-rdm,181,417424,0.0-8.64-0.64,1.0,182.0,,,,,,,[],,,,,,50.0,0.0,u,0.0,True,645.2999999970198,36.0,56.0,40.0,False,,280.0548119458714,[],"[800, 450]",ColorTask,85.0,65.0,,,HRV,HRV_0159,2022-11-30 18:58:09
,wl-rdm,182,419269,0.0-8.65-0.65,1.0,183.0,,,,,,,[],,,,,,87.9,1.0,i,1.0,True,568.6999999992549,32.0,56.0,40.0,False,,211.03046530027328,[],"[800, 450]",ColorTask,86.0,66.0,,,HRV,HRV_0159,2022-11-30 18:58:09
,wl-rdm,183,421205,0.0-8.66-0.66,1.0,184.0,,,,,,,[],,,,,,50.0,1.0,u,0.0,False,658.1000000014901,37.0,56.0,40.0,False,,208.09141491210238,[],"[800, 450]",ColorTask,85.0,67.0,,,HRV,HRV_0159,2022-11-30 18:58:09
,wl-rdm,184,423322,0.0-8.67-0.67,1.0,185.0,,,,,,,[],,,,,,50.0,1.0,i,1.0,True,763.7999999970198,43.0,56.0,40.0,False,,255.60702414240575,[],"[800, 450]",ColorTask,86.0,68.0,,,HRV,HRV_0159,2022-11-30 18:58:09
,wl-rdm,185,425295,0.0-8.68-0.68,1.0,186.0,,,,,,,[],,,,,,53.2,0.0,u,0.0,True,647.1999999992549,36.0,56.0,40.0,False,,268.8291990083736,[],"[800, 450]",ColorTask,87.0,69.0,,,HRV,HRV_0159,2022-11-30 18:58:09
,wl-rdm,186,427538,0.0-8.69-0.69,1.0,187.0,,,,,,,[],,,,,,56.4,0.0,i,1.0,False,840.6999999992549,47.0,56.0,40.0,False,,338.02503941549924,[],"[800, 450]",ColorTask,86.0,70.0,,,HRV,HRV_0159,2022-11-30 18:58:09
,wl-rdm,187,429437,0.0-8.70-0.70,1.0,188.0,,,,,,,[],,,,,,87.9,1.0,i,1.0,True,593.0,33.0,56.0,40.0,False,,237.78565782632654,[],"[800, 450]",ColorTask,87.0,71.0,,,HRV,HRV_0159,2022-11-30 18:58:09
,wl-rdm,188,431482,0.0-8.71-0.71,1.0,189.0,,,,,,,[],,,,,,62.5,0.0,u,0.0,True,597.1000000014901,33.0,56.0,40.0,False,,393.2199307376661,[],"[800, 450]",ColorTask,88.0,72.0,,,HRV,HRV_0159,2022-11-30 18:58:09
,wl-rdm,189,433309,0.0-8.72-0.72,1.0,190.0,,,,,,,[],,,,,,73.6,0.0,u,0.0,True,520.8999999985099,29.0,56.0,40.0,False,,244.40615019426565,[],"[800, 450]",ColorTask,89.0,73.0,,,HRV,HRV_0159,2022-11-30 18:58:09
,wl-rdm,190,435155,0.0-8.73-0.73,1.0,191.0,,,,,,,[],,,,,,87.9,0.0,u,0.0,True,534.0999999977648,30.0,56.0,40.0,False,,251.87602574310648,[],"[800, 450]",ColorTask,90.0,74.0,,,HRV,HRV_0159,2022-11-30 18:58:09
,wl-rdm,191,437145,0.0-8.74-0.74,1.0,192.0,,,,,,,[],,,,,,53.2,0.0,i,1.0,False,615.9999999962747,34.0,56.0,40.0,False,,316.65323112929354,[],"[800, 450]",ColorTask,89.0,75.0,,,HRV,HRV_0159,2022-11-30 18:58:09
,wl-rdm,192,439298,0.0-8.75-0.75,1.0,193.0,,,,,,,[],,,,,,56.4,1.0,u,0.0,False,753.0999999977648,42.0,56.0,40.0,False,,339.2680957481617,[],"[800, 450]",ColorTask,88.0,76.0,,,HRV,HRV_0159,2022-11-30 18:58:09
,wl-rdm,193,441217,0.0-8.76-0.76,1.0,194.0,,,,,,,[],,,,,,53.2,0.0,u,0.0,True,627.0,35.0,56.0,40.0,False,,227.5128415934686,[],"[800, 450]",ColorTask,89.0,77.0,,,HRV,HRV_0159,2022-11-30 18:58:09
,wl-rdm,194,443188,0.0-8.77-0.77,1.0,195.0,,,,,,,[],,,,,,73.6,1.0,i,1.0,True,696.1999999992549,39.0,56.0,40.0,False,,210.1517001975726,[],"[800, 450]",ColorTask,90.0,78.0,,,HRV,HRV_0159,2022-11-30 18:58:09
,wl-rdm,195,445070,0.0-8.78-0.78,1.0,196.0,,,,,,,[],,,,,,73.6,1.0,i,1.0,True,521.2999999970198,29.0,56.0,40.0,False,,292.7080164707082,[],"[800, 450]",ColorTask,91.0,79.0,,,HRV,HRV_0159,2022-11-30 18:58:09
,wl-rdm,196,447115,0.0-8.79-0.79,1.0,197.0,,,,,,,[],,,,,,56.4,0.0,u,0.0,True,597.1000000014901,33.0,56.0,40.0,False,,379.0113943085136,[],"[800, 450]",ColorTask,92.0,80.0,,,HRV,HRV_0159,2022-11-30 18:58:09
,wl-rdm,197,449069,0.0-8.80-0.80,1.0,198.0,,,,,,,[],,,,,,87.9,0.0,u,0.0,True,667.1000000014901,37.0,56.0,40.0,False,,223.0053867190413,[],"[800, 450]",ColorTask,93.0,81.0,,,HRV,HRV_0159,2022-11-30 18:58:09
,wl-rdm,198,450843,0.0-8.81-0.81,1.0,199.0,,,,,,,[],,,,,,87.9,0.0,u,0.0,True,491.6000000014901,28.0,56.0,40.0,False,,205.08477510147202,[],"[800, 450]",ColorTask,94.0,82.0,,,HRV,HRV_0159,2022-11-30 18:58:09
,wl-rdm,199,452760,0.0-8.82-0.82,1.0,200.0,,,,,,,[],,,,,,87.9,1.0,i,1.0,True,584.1000000014901,33.0,56.0,40.0,False,,265.0230320512073,[],"[800, 450]",ColorTask,95.0,83.0,,,HRV,HRV_0159,2022-11-30 18:58:09
,wl-rdm,200,454786,0.0-8.83-0.83,1.0,201.0,,,,,,,[],,,,,,50.0,0.0,u,0.0,True,571.1000000014901,32.0,56.0,40.0,False,,380.35491422325083,[],"[800, 450]",ColorTask,96.0,84.0,,,HRV,HRV_0159,2022-11-30 18:58:09
,wl-rdm,201,456794,0.0-8.84-0.84,1.0,202.0,,,,,,,[],,,,,,73.6,1.0,i,1.0,True,704.5999999977648,39.0,56.0,40.0,False,,239.3614178814139,[],"[800, 450]",ColorTask,97.0,85.0,,,HRV,HRV_0159,2022-11-30 18:58:09
,wl-rdm,202,458640,0.0-8.85-0.85,1.0,203.0,,,,,,,[],,,,,,53.2,1.0,i,1.0,True,482.5,27.0,56.0,40.0,False,,292.2745725078979,[],"[800, 450]",ColorTask,98.0,86.0,,,HRV,HRV_0159,2022-11-30 18:58:09
,wl-rdm,203,460522,0.0-8.86-0.86,1.0,204.0,,,,,,,[],,,,,,62.5,1.0,i,1.0,True,507.6000000014901,28.0,56.0,40.0,False,,309.87296400058153,[],"[800, 450]",ColorTask,99.0,87.0,,,HRV,HRV_0159,2022-11-30 18:58:09
,wl-rdm,204,462348,0.0-8.87-0.87,1.0,205.0,,,,,,,[],,,,,,62.5,0.0,u,0.0,True,542.2999999970198,30.0,56.0,40.0,False,,201.92305057610582,[],"[800, 450]",ColorTask,100.0,88.0,,,HRV,HRV_0159,2022-11-30 18:58:09
,wl-rdm,205,464303,0.0-8.88-0.88,1.0,206.0,,,,,,,[],,,,,,62.5,1.0,u,0.0,False,591.6999999992549,33.0,56.0,40.0,False,,291.04662294260834,[],"[800, 450]",ColorTask,99.0,89.0,,,HRV,HRV_0159,2022-11-30 18:58:09
,wl-rdm,206,466420,0.0-8.89-0.89,1.0,207.0,,,,,,,[],,,,,,56.4,1.0,u,0.0,False,714.0,40.0,56.0,40.0,False,,336.45863334941635,[],"[800, 450]",ColorTask,98.0,90.0,,,HRV,HRV_0159,2022-11-30 18:58:09
,wl-rdm,207,468684,0.0-8.90-0.90,1.0,208.0,,,,,,,[],,,,,,56.4,0.0,u,0.0,True,818.5999999977648,46.0,56.0,40.0,False,,370.03961897342947,[],"[800, 450]",ColorTask,99.0,91.0,,,HRV,HRV_0159,2022-11-30 18:58:09
,wl-rdm,208,470817,0.0-8.91-0.91,1.0,209.0,,,,,,,[],,,,,,50.0,1.0,i,1.0,True,734.3999999985099,41.0,56.0,40.0,False,,342.5011448775647,[],"[800, 450]",ColorTask,100.0,92.0,,,HRV,HRV_0159,2022-11-30 18:58:09
,wl-rdm,209,472752,0.0-8.92-0.92,1.0,210.0,,,,,,,[],,,,,,62.5,1.0,i,1.0,True,591.0,33.0,56.0,40.0,False,,280.2570174948751,[],"[800, 450]",ColorTask,101.0,93.0,,,HRV,HRV_0159,2022-11-30 18:58:09
,wl-rdm,210,474815,0.0-8.93-0.93,1.0,211.0,,,,,,,[],,,,,,53.2,0.0,u,0.0,True,700.3999999985099,39.0,56.0,40.0,False,,294.0459954179226,[],"[800, 450]",ColorTask,102.0,94.0,,,HRV,HRV_0159,2022-11-30 18:58:09
,wl-rdm,211,476824,0.0-8.94-0.94,1.0,212.0,,,,,,,[],,,,,,50.0,1.0,u,0.0,False,728.1999999992549,41.0,56.0,40.0,False,,207.66466786326654,[],"[800, 450]",ColorTask,101.0,95.0,,,HRV,HRV_0159,2022-11-30 18:58:09
,wl-rdm,212,479048,0.0-8.95-0.95,1.0,213.0,,,,,,,[],,,,,,50.0,0.0,u,0.0,True,890.6000000014901,50.0,56.0,40.0,False,,268.04776128916575,[],"[800, 450]",ColorTask,102.0,96.0,,,HRV,HRV_0159,2022-11-30 18:58:09
,wl-rdm,213,481004,0.0-8.96-0.96,1.0,214.0,,,,,,,[],,,,,,53.2,1.0,i,1.0,True,667.6000000014901,37.0,56.0,40.0,False,,233.65115433230463,[],"[800, 450]",ColorTask,103.0,97.0,,,HRV,HRV_0159,2022-11-30 18:58:09
,wl-rdm,214,483047,0.0-8.97-0.97,1.0,215.0,,,,,,,[],,,,,,62.5,1.0,i,1.0,True,585.6999999992549,33.0,56.0,40.0,False,,381.2056021970307,[],"[800, 450]",ColorTask,104.0,98.0,,,HRV,HRV_0159,2022-11-30 18:58:09
,wl-rdm,215,485092,0.0-8.98-0.98,1.0,216.0,,,,,,,[],,,,,,87.9,1.0,i,1.0,True,587.5,33.0,56.0,40.0,False,,379.60063035019846,[],"[800, 450]",ColorTask,105.0,99.0,,,HRV,HRV_0159,2022-11-30 18:58:09
,wl-rdm,216,487353,0.0-8.99-0.99,1.0,217.0,,,,,,,[],,,,,,50.0,0.0,u,0.0,True,850.0000000037253,47.0,56.0,40.0,False,,359.29153367680397,[],"[800, 450]",ColorTask,106.0,100.0,,,HRV,HRV_0159,2022-11-30 18:58:09
,wl-rdm,217,489525,0.0-8.100-0.100,1.0,218.0,,,,,,,[],,,,,,53.2,1.0,i,1.0,True,804.5999999977648,45.0,56.0,40.0,False,,293.2706688604366,[],"[800, 450]",ColorTask,107.0,101.0,,,HRV,HRV_0159,2022-11-30 18:58:09
,wl-rdm,218,491677,0.0-8.101-0.101,1.0,219.0,,,,,,,[],,,,,,62.5,0.0,u,0.0,True,756.3999999985099,42.0,56.0,40.0,False,,330.3146397050255,[],"[800, 450]",ColorTask,108.0,102.0,,,HRV,HRV_0159,2022-11-30 18:58:09
,wl-rdm,219,493776,0.0-8.102-0.102,1.0,220.0,,,,,,,[],,,,,,73.6,0.0,u,0.0,True,644.5,36.0,56.0,40.0,False,,392.13802619585954,[],"[800, 450]",ColorTask,109.0,103.0,,,HRV,HRV_0159,2022-11-30 18:58:09
,wl-rdm,220,495803,0.0-8.103-0.103,1.0,221.0,,,,,,,[],,,,,,50.0,1.0,u,0.0,False,722.5000000037253,40.0,56.0,40.0,False,,237.32621059643,[],"[800, 450]",ColorTask,108.0,104.0,,,HRV,HRV_0159,2022-11-30 18:58:09
,wl-rdm,221,497811,0.0-8.104-0.104,1.0,222.0,,,,,,,[],,,,,,73.6,0.0,u,0.0,True,696.9000000022352,39.0,56.0,40.0,False,,248.23677161908185,[],"[800, 450]",ColorTask,109.0,105.0,,,HRV,HRV_0159,2022-11-30 18:58:09
,wl-rdm,222,499747,0.0-8.105-0.105,1.0,223.0,,,,,,,[],,,,,,56.4,1.0,i,1.0,True,591.2999999970198,33.0,56.0,40.0,False,,277.82936421092813,[],"[800, 450]",ColorTask,110.0,106.0,,,HRV,HRV_0159,2022-11-30 18:58:09
,wl-rdm,223,501737,0.0-8.106-0.106,1.0,224.0,,,,,,,[],,,,,,56.4,0.0,u,0.0,True,710.3999999985099,40.0,56.0,40.0,False,,204.43776328576743,[],"[800, 450]",ColorTask,111.0,107.0,,,HRV,HRV_0159,2022-11-30 18:58:09
,wl-rdm,224,503583,0.0-8.107-0.107,1.0,225.0,,,,,,,[],,,,,,87.9,1.0,i,1.0,True,537.3000000007451,30.0,56.0,40.0,False,,252.72751709542996,[],"[800, 450]",ColorTask,112.0,108.0,,,HRV,HRV_0159,2022-11-30 18:58:09
,wl-html-button-response,225,506192,0.0-9.0-0.0,,,,,,,,,,2605.2999999970198,,0,,,,,,,,,,,,,,,,,,,,<h3>End of this session. Thank you!</h3><br>,['Close window'],HRV,HRV_0159,2022-11-30 18:58:09
