trialN,stimuli,trialStartTime,trialStartTime_UNIX,stimulus1,stimulus2,stimulus1Bid,stimulus2Bid,delta,selected,rt,rt_UNIX,rt_perfnow,receivedResponse,rsp,trialEndTime,trialDuration,trialEndTime_UNIX,trialDuration_UNIX,exp,subjectId,date
0,"[{'imgObject': {}, 'id': 'seaweed', 'src': '/static/foodstim60/seaweed.jpg', 'key': 'u', 'origWidth': 410, 'origHeight': 410, 'width': 410, 'height': 410, 'widthPercent': 0.45, 'rescaleHeight': False, 'trialN': 0, 'loaded': True, 'loadedTime': 2992, 'positionName': 'LEFT', 'positionCoords': [358, 217.5], 'bid': 4.33}, {'imgObject': {}, 'id': 'ice cream sundae 002', 'src': '/static/foodstim60/ice cream sundae 002.jpg', 'key': 'i', 'origWidth': 409, 'origHeight': 409, 'width': 409, 'height': 409, 'widthPercent': 0.45, 'rescaleHeight': False, 'trialN': 0, 'loaded': True, 'loadedTime': 2974.300000000745, 'positionName': 'RIGHT', 'positionCoords': [832, 218], 'bid': 4.41}]",3907.800000000745,1669831704939,seaweed,ice cream sundae 002,4.33,4.41,0.08000000000000007,ice cream sundae 002,1094.5,1096,1096.1000000014901,True,i,5508.800000000745,1601.0,1669831706540,1601,HRV,HRV_0159,2022-11-30 18:13:30
1,"[{'imgObject': {}, 'id': 'cocktailshrimp', 'src': '/static/foodstim60/cocktailshrimp.jpg', 'key': 'u', 'origWidth': 410, 'origHeight': 410, 'width': 410, 'height': 410, 'widthPercent': 0.45, 'rescaleHeight': False, 'trialN': 1, 'loaded': True, 'loadedTime': 3007, 'positionName': 'LEFT', 'positionCoords': [358, 217.5], 'bid': 4.42}, {'imgObject': {}, 'id': 'olives', 'src': '/static/foodstim60/olives.jpg', 'key': 'i', 'origWidth': 410, 'origHeight': 410, 'width': 410, 'height': 410, 'widthPercent': 0.45, 'rescaleHeight': False, 'trialN': 1, 'loaded': True, 'loadedTime': 3054.699999999255, 'positionName': 'RIGHT', 'positionCoords': [832, 217.5], 'bid': 4.43}]",5509.300000000745,1669831706541,cocktailshrimp,olives,4.42,4.43,0.009999999999999787,cocktailshrimp,1941.0,1942,1942.5,True,u,7956.60000000149,2447.300000000745,1669831708988,2447,HRV,HRV_0159,2022-11-30 18:13:30
2,"[{'imgObject': {}, 'id': 'hotdog w must', 'src': '/static/foodstim60/hotdog w must.jpg', 'key': 'u', 'origWidth': 409, 'origHeight': 409, 'width': 409, 'height': 409, 'widthPercent': 0.45, 'rescaleHeight': False, 'trialN': 2, 'loaded': True, 'loadedTime': 3078.800000000745, 'positionName': 'LEFT', 'positionCoords': [359, 218], 'bid': 4.96}, {'imgObject': {}, 'id': 'burrito', 'src': '/static/foodstim60/burrito.jpg', 'key': 'i', 'origWidth': 410, 'origHeight': 410, 'width': 410, 'height': 410, 'widthPercent': 0.45, 'rescaleHeight': False, 'trialN': 2, 'loaded': True, 'loadedTime': 3085.800000000745, 'positionName': 'RIGHT', 'positionCoords': [832, 217.5], 'bid': 4.96}]",7957.300000000745,1669831708988,hotdog w must,burrito,4.96,4.96,0.0,hotdog w must,1189.0,1191,1190.6000000014901,True,u,9652.60000000149,1695.300000000745,1669831710684,1696,HRV,HRV_0159,2022-11-30 18:13:30
3,"[{'imgObject': {}, 'id': 'veggieswithdip', 'src': '/static/foodstim60/veggieswithdip.jpg', 'key': 'u', 'origWidth': 409, 'origHeight': 409, 'width': 409, 'height': 409, 'widthPercent': 0.45, 'rescaleHeight': False, 'trialN': 3, 'loaded': True, 'loadedTime': 3106.699999999255, 'positionName': 'LEFT', 'positionCoords': [359, 218], 'bid': 4.98}, {'imgObject': {}, 'id': 'fruitsalad', 'src': '/static/foodstim60/fruitsalad.jpg', 'key': 'i', 'origWidth': 410, 'origHeight': 410, 'width': 410, 'height': 410, 'widthPercent': 0.45, 'rescaleHeight': False, 'trialN': 3, 'loaded': True, 'loadedTime': 3126, 'positionName': 'RIGHT', 'positionCoords': [832, 217.5], 'bid': 4.98}]",9653.10000000149,1669831710684,veggieswithdip,fruitsalad,4.98,4.98,0.0,fruitsalad,1028.199999999255,1031,1031.0999999977648,True,i,11188.60000000149,1535.5,1669831712220,1536,HRV,HRV_0159,2022-11-30 18:13:30
4,"[{'imgObject': {}, 'id': 'eggs', 'src': '/static/foodstim60/eggs.jpg', 'key': 'u', 'origWidth': 409, 'origHeight': 409, 'width': 409, 'height': 409, 'widthPercent': 0.45, 'rescaleHeight': False, 'trialN': 4, 'loaded': True, 'loadedTime': 3147.300000000745, 'positionName': 'LEFT', 'positionCoords': [359, 218], 'bid': 4.96}, {'imgObject': {}, 'id': 'granola w milk', 'src': '/static/foodstim60/granola w milk.jpg', 'key': 'i', 'origWidth': 410, 'origHeight': 410, 'width': 410, 'height': 410, 'widthPercent': 0.45, 'rescaleHeight': False, 'trialN': 4, 'loaded': True, 'loadedTime': 3173.400000002235, 'positionName': 'RIGHT', 'positionCoords': [832, 217.5], 'bid': 4.96}]",11189.400000002235,1669831712221,eggs,granola w milk,4.96,4.96,0.0,eggs,1171.8999999985099,1174,1174.699999999255,True,u,12868.60000000149,1679.199999999255,1669831713900,1679,HRV,HRV_0159,2022-11-30 18:13:30
5,"[{'imgObject': {}, 'id': 'eggsalad', 'src': '/static/foodstim60/eggsalad.jpg', 'key': 'u', 'origWidth': 410, 'origHeight': 409, 'width': 410, 'height': 409, 'widthPercent': 0.45, 'rescaleHeight': False, 'trialN': 5, 'loaded': True, 'loadedTime': 3194.699999999255, 'positionName': 'LEFT', 'positionCoords': [358, 218], 'bid': 4.98}, {'imgObject': {}, 'id': 'mango', 'src': '/static/foodstim60/mango.jpg', 'key': 'i', 'origWidth': 411, 'origHeight': 411, 'width': 411, 'height': 411, 'widthPercent': 0.45, 'rescaleHeight': False, 'trialN': 5, 'loaded': True, 'loadedTime': 3197.800000000745, 'positionName': 'RIGHT', 'positionCoords': [832, 217], 'bid': 4.96}]",12869.400000002235,1669831713901,eggsalad,mango,4.98,4.96,-0.020000000000000462,mango,1348.8999999985099,1350,1350.3999999985099,True,i,14724.60000000149,1855.199999999255,1669831715756,1855,HRV,HRV_0159,2022-11-30 18:13:30
6,"[{'imgObject': {}, 'id': 'tacos', 'src': '/static/foodstim60/tacos.jpg', 'key': 'u', 'origWidth': 411, 'origHeight': 411, 'width': 411, 'height': 411, 'widthPercent': 0.45, 'rescaleHeight': False, 'trialN': 6, 'loaded': True, 'loadedTime': 3222.900000002235, 'positionName': 'LEFT', 'positionCoords': [357, 217], 'bid': 4.95}, {'imgObject': {}, 'id': 'avocado', 'src': '/static/foodstim60/avocado.jpg', 'key': 'i', 'origWidth': 409, 'origHeight': 409, 'width': 409, 'height': 409, 'widthPercent': 0.45, 'rescaleHeight': False, 'trialN': 6, 'loaded': True, 'loadedTime': 3264.60000000149, 'positionName': 'RIGHT', 'positionCoords': [832, 218], 'bid': 4.98}]",14725.199999999255,1669831715756,tacos,avocado,4.95,4.98,0.03000000000000025,tacos,1189.1000000014901,1191,1190.5,True,u,16420.60000000149,1695.4000000022352,1669831717452,1696,HRV,HRV_0159,2022-11-30 18:13:30
7,"[{'imgObject': {}, 'id': 'cantaloupe', 'src': '/static/foodstim60/cantaloupe.jpg', 'key': 'u', 'origWidth': 409, 'origHeight': 409, 'width': 409, 'height': 409, 'widthPercent': 0.45, 'rescaleHeight': False, 'trialN': 7, 'loaded': True, 'loadedTime': 3314.699999999255, 'positionName': 'LEFT', 'positionCoords': [359, 218], 'bid': 4.98}, {'imgObject': {}, 'id': 'popsicles', 'src': '/static/foodstim60/popsicles.jpg', 'key': 'i', 'origWidth': 410, 'origHeight': 410, 'width': 410, 'height': 410, 'widthPercent': 0.45, 'rescaleHeight': False, 'trialN': 7, 'loaded': True, 'loadedTime': 3334, 'positionName': 'RIGHT', 'positionCoords': [832, 217.5], 'bid': 4.3}]",16421.5,1669831717453,cantaloupe,popsicles,4.98,4.3,-0.6800000000000006,cantaloupe,1172.800000000745,1173,1173.699999999255,True,u,18100.60000000149,1679.1000000014901,1669831719132,1679,HRV,HRV_0159,2022-11-30 18:13:30
8,"[{'imgObject': {}, 'id': 'cherries', 'src': '/static/foodstim60/cherries.jpg', 'key': 'u', 'origWidth': 410, 'origHeight': 411, 'width': 410, 'height': 411, 'widthPercent': 0.45, 'rescaleHeight': False, 'trialN': 8, 'loaded': True, 'loadedTime': 3345.800000000745, 'positionName': 'LEFT', 'positionCoords': [358, 217], 'bid': 4.96}, {'imgObject': {}, 'id': 'cheerios', 'src': '/static/foodstim60/cheerios.jpg', 'key': 'i', 'origWidth': 409, 'origHeight': 410, 'width': 409, 'height': 410, 'widthPercent': 0.45, 'rescaleHeight': False, 'trialN': 8, 'loaded': True, 'loadedTime': 3374.900000002235, 'positionName': 'RIGHT', 'positionCoords': [832, 217.5], 'bid': 4.98}]",18101.0,1669831719132,cherries,cheerios,4.96,4.98,0.020000000000000462,cherries,932.3000000007451,935,934.6999999992549,True,u,19540.5,1439.5,1669831720572,1440,HRV,HRV_0159,2022-11-30 18:13:30
9,"[{'imgObject': {}, 'id': 'cantaloupe', 'src': '/static/foodstim60/cantaloupe.jpg', 'key': 'u', 'origWidth': 409, 'origHeight': 409, 'width': 409, 'height': 409, 'widthPercent': 0.45, 'rescaleHeight': False, 'trialN': 9, 'loaded': True, 'loadedTime': 3311.900000002235, 'positionName': 'LEFT', 'positionCoords': [359, 218], 'bid': 4.98}, {'imgObject': {}, 'id': 'burger', 'src': '/static/foodstim60/burger.jpg', 'key': 'i', 'origWidth': 409, 'origHeight': 409, 'width': 409, 'height': 409, 'widthPercent': 0.45, 'rescaleHeight': False, 'trialN': 9, 'loaded': True, 'loadedTime': 3394, 'positionName': 'RIGHT', 'positionCoords': [832, 218], 'bid': 4.96}]",19541.10000000149,1669831720572,cantaloupe,burger,4.98,4.96,-0.020000000000000462,cantaloupe,1077.199999999255,1079,1078.5999999977648,True,u,21124.60000000149,1583.5,1669831722156,1584,HRV,HRV_0159,2022-11-30 18:13:30
10,"[{'imgObject': {}, 'id': 'chicken nuggets2', 'src': '/static/foodstim60/chicken nuggets2.jpg', 'key': 'u', 'origWidth': 410, 'origHeight': 409, 'width': 410, 'height': 409, 'widthPercent': 0.45, 'rescaleHeight': False, 'trialN': 10, 'loaded': True, 'loadedTime': 3412.699999999255, 'positionName': 'LEFT', 'positionCoords': [358, 218], 'bid': 4.98}, {'imgObject': {}, 'id': 'grilled chicken strips', 'src': '/static/foodstim60/grilled chicken strips.jpg', 'key': 'i', 'origWidth': 410, 'origHeight': 411, 'width': 410, 'height': 411, 'widthPercent': 0.45, 'rescaleHeight': False, 'trialN': 10, 'loaded': True, 'loadedTime': 3439.5, 'positionName': 'RIGHT', 'positionCoords': [832, 217], 'bid': 4.98}]",21125.300000000745,1669831722157,chicken nuggets2,grilled chicken strips,4.98,4.98,0.0,grilled chicken strips,1460.0,1462,1462.3999999985099,True,i,23092.60000000149,1967.300000000745,1669831724124,1967,HRV,HRV_0159,2022-11-30 18:13:30
11,"[{'imgObject': {}, 'id': 'mac & cheese', 'src': '/static/foodstim60/mac & cheese.jpg', 'key': 'u', 'origWidth': 410, 'origHeight': 410, 'width': 410, 'height': 410, 'widthPercent': 0.45, 'rescaleHeight': False, 'trialN': 11, 'loaded': True, 'loadedTime': 3465.900000002235, 'positionName': 'LEFT', 'positionCoords': [358, 217.5], 'bid': 5.01}, {'imgObject': {}, 'id': 'turkey sandwich', 'src': '/static/foodstim60/turkey sandwich.jpg', 'key': 'i', 'origWidth': 409, 'origHeight': 409, 'width': 409, 'height': 409, 'widthPercent': 0.45, 'rescaleHeight': False, 'trialN': 11, 'loaded': True, 'loadedTime': 3478.900000002235, 'positionName': 'RIGHT', 'positionCoords': [832, 218], 'bid': 4.96}]",23093.199999999255,1669831724124,mac & cheese,turkey sandwich,5.01,4.96,-0.04999999999999982,mac & cheese,1285.1000000014901,1287,1286.800000000745,True,u,24884.60000000149,1791.4000000022352,1669831725916,1792,HRV,HRV_0159,2022-11-30 18:13:30
12,"[{'imgObject': {}, 'id': 'tacos', 'src': '/static/foodstim60/tacos.jpg', 'key': 'u', 'origWidth': 411, 'origHeight': 411, 'width': 411, 'height': 411, 'widthPercent': 0.45, 'rescaleHeight': False, 'trialN': 12, 'loaded': True, 'loadedTime': 3225.5, 'positionName': 'LEFT', 'positionCoords': [357, 217], 'bid': 4.95}, {'imgObject': {}, 'id': 'corn cob', 'src': '/static/foodstim60/corn cob.jpg', 'key': 'i', 'origWidth': 411, 'origHeight': 411, 'width': 411, 'height': 411, 'widthPercent': 0.45, 'rescaleHeight': False, 'trialN': 12, 'loaded': True, 'loadedTime': 3483.400000002235, 'positionName': 'RIGHT', 'positionCoords': [832, 217], 'bid': 4.93}]",24885.10000000149,1669831725916,tacos,corn cob,4.95,4.93,-0.020000000000000462,tacos,1396.199999999255,1399,1398.3999999985099,True,u,26788.60000000149,1903.5,1669831727820,1904,HRV,HRV_0159,2022-11-30 18:13:30
13,"[{'imgObject': {}, 'id': 'raisin bran w milk', 'src': '/static/foodstim60/raisin bran w milk.jpg', 'key': 'u', 'origWidth': 411, 'origHeight': 411, 'width': 411, 'height': 411, 'widthPercent': 0.45, 'rescaleHeight': False, 'trialN': 13, 'loaded': True, 'loadedTime': 3497.300000000745, 'positionName': 'LEFT', 'positionCoords': [357, 217], 'bid': 4.93}, {'imgObject': {}, 'id': 'seaweed', 'src': '/static/foodstim60/seaweed.jpg', 'key': 'i', 'origWidth': 410, 'origHeight': 410, 'width': 410, 'height': 410, 'widthPercent': 0.45, 'rescaleHeight': False, 'trialN': 13, 'loaded': True, 'loadedTime': 2984, 'positionName': 'RIGHT', 'positionCoords': [832, 217.5], 'bid': 4.33}]",26789.0,1669831727820,raisin bran w milk,seaweed,4.93,4.33,-0.5999999999999996,raisin bran w milk,932.3000000007451,935,934.8000000007451,True,u,28228.699999999255,1439.699999999255,1669831729260,1440,HRV,HRV_0159,2022-11-30 18:13:30
14,"[{'imgObject': {}, 'id': 'omelette', 'src': '/static/foodstim60/omelette.jpg', 'key': 'u', 'origWidth': 410, 'origHeight': 409, 'width': 410, 'height': 409, 'widthPercent': 0.45, 'rescaleHeight': False, 'trialN': 14, 'loaded': True, 'loadedTime': 3518.5, 'positionName': 'LEFT', 'positionCoords': [358, 218], 'bid': 5.03}, {'imgObject': {}, 'id': 'hashbrowns', 'src': '/static/foodstim60/hashbrowns.jpg', 'key': 'i', 'origWidth': 411, 'origHeight': 410, 'width': 411, 'height': 410, 'widthPercent': 0.45, 'rescaleHeight': False, 'trialN': 14, 'loaded': True, 'loadedTime': 3550, 'positionName': 'RIGHT', 'positionCoords': [832, 217.5], 'bid': 5.0600000000000005}]",28229.400000002235,1669831729261,omelette,hashbrowns,5.03,5.0600000000000005,0.03000000000000025,hashbrowns,1203.8999999985099,1206,1206.199999999255,True,i,29940.60000000149,1711.199999999255,1669831730972,1711,HRV,HRV_0159,2022-11-30 18:13:30
15,"[{'imgObject': {}, 'id': 'veggieswithdip', 'src': '/static/foodstim60/veggieswithdip.jpg', 'key': 'u', 'origWidth': 409, 'origHeight': 409, 'width': 409, 'height': 409, 'widthPercent': 0.45, 'rescaleHeight': False, 'trialN': 15, 'loaded': True, 'loadedTime': 3114, 'positionName': 'LEFT', 'positionCoords': [359, 218], 'bid': 4.98}, {'imgObject': {}, 'id': 'pear', 'src': '/static/foodstim60/pear.jpg', 'key': 'i', 'origWidth': 411, 'origHeight': 410, 'width': 411, 'height': 410, 'widthPercent': 0.45, 'rescaleHeight': False, 'trialN': 15, 'loaded': True, 'loadedTime': 3556.10000000149, 'positionName': 'RIGHT', 'positionCoords': [832, 217.5], 'bid': 5.0200000000000005}]",29941.300000000745,1669831730973,veggieswithdip,pear,4.98,5.0200000000000005,0.040000000000000036,pear,932.0,934,934.3000000007451,True,i,31380.5,1439.199999999255,1669831732412,1439,HRV,HRV_0159,2022-11-30 18:13:30
16,"[{'imgObject': {}, 'id': 'grilled chicken strips', 'src': '/static/foodstim60/grilled chicken strips.jpg', 'key': 'u', 'origWidth': 410, 'origHeight': 411, 'width': 410, 'height': 411, 'widthPercent': 0.45, 'rescaleHeight': False, 'trialN': 16, 'loaded': True, 'loadedTime': 3434.800000000745, 'positionName': 'LEFT', 'positionCoords': [358, 217], 'bid': 4.98}, {'imgObject': {}, 'id': 'burger', 'src': '/static/foodstim60/burger.jpg', 'key': 'i', 'origWidth': 409, 'origHeight': 409, 'width': 409, 'height': 409, 'widthPercent': 0.45, 'rescaleHeight': False, 'trialN': 16, 'loaded': True, 'loadedTime': 3391, 'positionName': 'RIGHT', 'positionCoords': [832, 218], 'bid': 4.96}]",31381.10000000149,1669831732412,grilled chicken strips,burger,4.98,4.96,-0.020000000000000462,grilled chicken strips,868.1999999992549,871,870.8000000007451,True,u,32756.60000000149,1375.5,1669831733788,1376,HRV,HRV_0159,2022-11-30 18:13:30
17,"[{'imgObject': {}, 'id': 'yogurt no spoon', 'src': '/static/foodstim60/yogurt no spoon.jpg', 'key': 'u', 'origWidth': 411, 'origHeight': 410, 'width': 411, 'height': 410, 'widthPercent': 0.45, 'rescaleHeight': False, 'trialN': 17, 'loaded': True, 'loadedTime': 3584.10000000149, 'positionName': 'LEFT', 'positionCoords': [357, 217.5], 'bid': 5}, {'imgObject': {}, 'id': 'edamame', 'src': '/static/foodstim60/edamame.jpg', 'key': 'i', 'origWidth': 409, 'origHeight': 410, 'width': 409, 'height': 410, 'widthPercent': 0.45, 'rescaleHeight': False, 'trialN': 17, 'loaded': True, 'loadedTime': 3587.800000000745, 'positionName': 'RIGHT', 'positionCoords': [832, 217.5], 'bid': 4.98}]",32757.10000000149,1669831733788,yogurt no spoon,edamame,5.0,4.98,-0.019999999999999574,edamame,1412.199999999255,1415,1414.3999999985099,True,i,34676.60000000149,1919.5,1669831735708,1920,HRV,HRV_0159,2022-11-30 18:13:30
18,"[{'imgObject': {}, 'id': 'strawberries', 'src': '/static/foodstim60/strawberries.jpg', 'key': 'u', 'origWidth': 410, 'origHeight': 410, 'width': 410, 'height': 410, 'widthPercent': 0.45, 'rescaleHeight': False, 'trialN': 18, 'loaded': True, 'loadedTime': 3604.800000000745, 'positionName': 'LEFT', 'positionCoords': [358, 217.5], 'bid': 5.01}, {'imgObject': {}, 'id': 'mac & cheese', 'src': '/static/foodstim60/mac & cheese.jpg', 'key': 'i', 'origWidth': 410, 'origHeight': 410, 'width': 410, 'height': 410, 'widthPercent': 0.45, 'rescaleHeight': False, 'trialN': 18, 'loaded': True, 'loadedTime': 3457.5, 'positionName': 'RIGHT', 'positionCoords': [832, 217.5], 'bid': 5.01}]",34677.10000000149,1669831735708,strawberries,mac & cheese,5.01,5.01,0.0,strawberries,1348.199999999255,1350,1350.0999999977648,True,u,36532.60000000149,1855.5,1669831737564,1856,HRV,HRV_0159,2022-11-30 18:13:30
19,"[{'imgObject': {}, 'id': 'shreddedwheatwithmilk', 'src': '/static/foodstim60/shreddedwheatwithmilk.jpg', 'key': 'u', 'origWidth': 410, 'origHeight': 410, 'width': 410, 'height': 410, 'widthPercent': 0.45, 'rescaleHeight': False, 'trialN': 19, 'loaded': True, 'loadedTime': 3610.10000000149, 'positionName': 'LEFT', 'positionCoords': [358, 217.5], 'bid': 4.96}, {'imgObject': {}, 'id': 'mashed potato', 'src': '/static/foodstim60/mashed potato.jpg', 'key': 'i', 'origWidth': 409, 'origHeight': 409, 'width': 409, 'height': 409, 'widthPercent': 0.45, 'rescaleHeight': False, 'trialN': 19, 'loaded': True, 'loadedTime': 3618.60000000149, 'positionName': 'RIGHT', 'positionCoords': [832, 218], 'bid': 4.97}]",36533.10000000149,1669831737564,shreddedwheatwithmilk,mashed potato,4.96,4.97,0.009999999999999787,shreddedwheatwithmilk,1860.199999999255,1863,1862.300000000745,True,u,38900.699999999255,2367.599999997765,1669831739932,2368,HRV,HRV_0159,2022-11-30 18:13:30
20,"[{'imgObject': {}, 'id': 'hashbrowns', 'src': '/static/foodstim60/hashbrowns.jpg', 'key': 'u', 'origWidth': 411, 'origHeight': 410, 'width': 411, 'height': 410, 'widthPercent': 0.45, 'rescaleHeight': False, 'trialN': 20, 'loaded': True, 'loadedTime': 3540.800000000745, 'positionName': 'LEFT', 'positionCoords': [357, 217.5], 'bid': 5.0600000000000005}, {'imgObject': {}, 'id': 'mashed potato', 'src': '/static/foodstim60/mashed potato.jpg', 'key': 'i', 'origWidth': 409, 'origHeight': 409, 'width': 409, 'height': 409, 'widthPercent': 0.45, 'rescaleHeight': False, 'trialN': 20, 'loaded': True, 'loadedTime': 3619.699999999255, 'positionName': 'RIGHT', 'positionCoords': [832, 218], 'bid': 4.97}]",38901.5,1669831739933,hashbrowns,mashed potato,5.0600000000000005,4.97,-0.09000000000000075,hashbrowns,1747.800000000745,1750,1750.5,True,u,41156.60000000149,2255.10000000149,1669831742188,2255,HRV,HRV_0159,2022-11-30 18:13:30
21,"[{'imgObject': {}, 'id': 'granola w milk', 'src': '/static/foodstim60/granola w milk.jpg', 'key': 'u', 'origWidth': 410, 'origHeight': 410, 'width': 410, 'height': 410, 'widthPercent': 0.45, 'rescaleHeight': False, 'trialN': 21, 'loaded': True, 'loadedTime': 3170.60000000149, 'positionName': 'LEFT', 'positionCoords': [358, 217.5], 'bid': 4.96}, {'imgObject': {}, 'id': 'kiwi', 'src': '/static/foodstim60/kiwi.jpg', 'key': 'i', 'origWidth': 410, 'origHeight': 410, 'width': 410, 'height': 410, 'widthPercent': 0.45, 'rescaleHeight': False, 'trialN': 21, 'loaded': True, 'loadedTime': 3655.699999999255, 'positionName': 'RIGHT', 'positionCoords': [832, 217.5], 'bid': 5.01}]",41157.0,1669831742188,granola w milk,kiwi,4.96,5.01,0.04999999999999982,kiwi,1092.300000000745,1094,1094.199999999255,True,i,42756.60000000149,1599.6000000014901,1669831743788,1600,HRV,HRV_0159,2022-11-30 18:13:30
22,"[{'imgObject': {}, 'id': 'shreddedwheatwithmilk', 'src': '/static/foodstim60/shreddedwheatwithmilk.jpg', 'key': 'u', 'origWidth': 410, 'origHeight': 410, 'width': 410, 'height': 410, 'widthPercent': 0.45, 'rescaleHeight': False, 'trialN': 22, 'loaded': True, 'loadedTime': 3612.60000000149, 'positionName': 'LEFT', 'positionCoords': [358, 217.5], 'bid': 4.96}, {'imgObject': {}, 'id': 'Tribe humus pita', 'src': '/static/foodstim60/Tribe humus pita.jpg', 'key': 'i', 'origWidth': 411, 'origHeight': 411, 'width': 411, 'height': 411, 'widthPercent': 0.45, 'rescaleHeight': False, 'trialN': 22, 'loaded': True, 'loadedTime': 3664.900000002235, 'positionName': 'RIGHT', 'positionCoords': [832, 217], 'bid': 4.98}]",42757.0,1669831743788,shreddedwheatwithmilk,Tribe humus pita,4.96,4.98,0.020000000000000462,Tribe humus pita,1813.300000000745,1815,1814.9000000022352,True,i,45076.60000000149,2319.60000000149,1669831746108,2320,HRV,HRV_0159,2022-11-30 18:13:30
23,"[{'imgObject': {}, 'id': 'seaweed', 'src': '/static/foodstim60/seaweed.jpg', 'key': 'u', 'origWidth': 410, 'origHeight': 410, 'width': 410, 'height': 410, 'widthPercent': 0.45, 'rescaleHeight': False, 'trialN': 23, 'loaded': True, 'loadedTime': 2992.699999999255, 'positionName': 'LEFT', 'positionCoords': [358, 217.5], 'bid': 4.33}, {'imgObject': {}, 'id': 'cocktailshrimp', 'src': '/static/foodstim60/cocktailshrimp.jpg', 'key': 'i', 'origWidth': 410, 'origHeight': 410, 'width': 410, 'height': 410, 'widthPercent': 0.45, 'rescaleHeight': False, 'trialN': 23, 'loaded': True, 'loadedTime': 3003.5, 'positionName': 'RIGHT', 'positionCoords': [832, 217.5], 'bid': 4.42}]",45077.300000000745,1669831746108,seaweed,cocktailshrimp,4.33,4.42,0.08999999999999986,cocktailshrimp,1237.0,1239,1238.199999999255,True,i,46820.5,1743.199999999255,1669831747852,1744,HRV,HRV_0159,2022-11-30 18:13:30
24,"[{'imgObject': {}, 'id': 'mashed potato', 'src': '/static/foodstim60/mashed potato.jpg', 'key': 'u', 'origWidth': 409, 'origHeight': 409, 'width': 409, 'height': 409, 'widthPercent': 0.45, 'rescaleHeight': False, 'trialN': 24, 'loaded': True, 'loadedTime': 3620, 'positionName': 'LEFT', 'positionCoords': [359, 218], 'bid': 4.97}, {'imgObject': {}, 'id': 'rigatoni', 'src': '/static/foodstim60/rigatoni.jpg', 'key': 'i', 'origWidth': 411, 'origHeight': 411, 'width': 411, 'height': 411, 'widthPercent': 0.45, 'rescaleHeight': False, 'trialN': 24, 'loaded': True, 'loadedTime': 3682.300000000745, 'positionName': 'RIGHT', 'positionCoords': [832, 217], 'bid': 4.98}]",46821.199999999255,1669831747852,mashed potato,rigatoni,4.97,4.98,0.010000000000000675,rigatoni,1828.1000000014901,1830,1830.1000000014901,True,i,49156.5,2335.300000000745,1669831750188,2336,HRV,HRV_0159,2022-11-30 18:13:30
25,"[{'imgObject': {}, 'id': 'edamame', 'src': '/static/foodstim60/edamame.jpg', 'key': 'u', 'origWidth': 409, 'origHeight': 410, 'width': 409, 'height': 410, 'widthPercent': 0.45, 'rescaleHeight': False, 'trialN': 25, 'loaded': True, 'loadedTime': 3589.300000000745, 'positionName': 'LEFT', 'positionCoords': [359, 217.5], 'bid': 4.98}, {'imgObject': {}, 'id': 'eggsalad', 'src': '/static/foodstim60/eggsalad.jpg', 'key': 'i', 'origWidth': 410, 'origHeight': 409, 'width': 410, 'height': 409, 'widthPercent': 0.45, 'rescaleHeight': False, 'trialN': 25, 'loaded': True, 'loadedTime': 3173.800000000745, 'positionName': 'RIGHT', 'positionCoords': [832, 218], 'bid': 4.98}]",49157.10000000149,1669831750188,edamame,eggsalad,4.98,4.98,0.0,edamame,1060.199999999255,1063,1062.3999999985099,True,u,50724.5,1567.3999999985099,1669831751756,1568,HRV,HRV_0159,2022-11-30 18:13:30
26,"[{'imgObject': {}, 'id': 'eggsalad', 'src': '/static/foodstim60/eggsalad.jpg', 'key': 'u', 'origWidth': 410, 'origHeight': 409, 'width': 410, 'height': 409, 'widthPercent': 0.45, 'rescaleHeight': False, 'trialN': 26, 'loaded': True, 'loadedTime': 3189.199999999255, 'positionName': 'LEFT', 'positionCoords': [358, 218], 'bid': 4.98}, {'imgObject': {}, 'id': 'salmon', 'src': '/static/foodstim60/salmon.jpg', 'key': 'i', 'origWidth': 410, 'origHeight': 409, 'width': 410, 'height': 409, 'widthPercent': 0.45, 'rescaleHeight': False, 'trialN': 26, 'loaded': True, 'loadedTime': 3686.5, 'positionName': 'RIGHT', 'positionCoords': [832, 218], 'bid': 5}]",50725.10000000149,1669831751756,eggsalad,salmon,4.98,5.0,0.019999999999999574,salmon,820.1999999992549,822,822.1999999992549,True,i,52052.400000002235,1327.300000000745,1669831753084,1328,HRV,HRV_0159,2022-11-30 18:13:30
27,"[{'imgObject': {}, 'id': 'steak', 'src': '/static/foodstim60/steak.jpg', 'key': 'u', 'origWidth': 410, 'origHeight': 410, 'width': 410, 'height': 410, 'widthPercent': 0.45, 'rescaleHeight': False, 'trialN': 27, 'loaded': True, 'loadedTime': 3709.900000002235, 'positionName': 'LEFT', 'positionCoords': [358, 217.5], 'bid': 4.93}, {'imgObject': {}, 'id': 'lox', 'src': '/static/foodstim60/lox.jpg', 'key': 'i', 'origWidth': 410, 'origHeight': 411, 'width': 410, 'height': 411, 'widthPercent': 0.45, 'rescaleHeight': False, 'trialN': 27, 'loaded': True, 'loadedTime': 3719.400000002235, 'positionName': 'RIGHT', 'positionCoords': [832, 217], 'bid': 4.5600000000000005}]",52053.10000000149,1669831753084,steak,lox,4.93,4.5600000000000005,-0.3699999999999992,steak,1187.199999999255,1191,1190.5,True,u,53748.5,1695.3999999985099,1669831754780,1696,HRV,HRV_0159,2022-11-30 18:13:30
28,"[{'imgObject': {}, 'id': 'burger', 'src': '/static/foodstim60/burger.jpg', 'key': 'u', 'origWidth': 409, 'origHeight': 409, 'width': 409, 'height': 409, 'widthPercent': 0.45, 'rescaleHeight': False, 'trialN': 28, 'loaded': True, 'loadedTime': 3394.300000000745, 'positionName': 'LEFT', 'positionCoords': [359, 218], 'bid': 4.96}, {'imgObject': {}, 'id': 'raspberries', 'src': '/static/foodstim60/raspberries.jpg', 'key': 'i', 'origWidth': 411, 'origHeight': 411, 'width': 411, 'height': 411, 'widthPercent': 0.45, 'rescaleHeight': False, 'trialN': 28, 'loaded': True, 'loadedTime': 3721.199999999255, 'positionName': 'RIGHT', 'positionCoords': [832, 217], 'bid': 4.96}]",53749.10000000149,1669831754780,burger,raspberries,4.96,4.96,0.0,raspberries,996.1999999992549,999,999.0999999977648,True,i,55252.60000000149,1503.5,1669831756284,1504,HRV,HRV_0159,2022-11-30 18:13:30
29,"[{'imgObject': {}, 'id': 'rigatoni', 'src': '/static/foodstim60/rigatoni.jpg', 'key': 'u', 'origWidth': 411, 'origHeight': 411, 'width': 411, 'height': 411, 'widthPercent': 0.45, 'rescaleHeight': False, 'trialN': 29, 'loaded': True, 'loadedTime': 3682.10000000149, 'positionName': 'LEFT', 'positionCoords': [357, 217], 'bid': 4.98}, {'imgObject': {}, 'id': 'granola w milk', 'src': '/static/foodstim60/granola w milk.jpg', 'key': 'i', 'origWidth': 410, 'origHeight': 410, 'width': 410, 'height': 410, 'widthPercent': 0.45, 'rescaleHeight': False, 'trialN': 29, 'loaded': True, 'loadedTime': 3159.199999999255, 'positionName': 'RIGHT', 'positionCoords': [832, 217.5], 'bid': 4.96}]",55253.199999999255,1669831756284,rigatoni,granola w milk,4.98,4.96,-0.020000000000000462,rigatoni,1764.1000000014901,1767,1766.800000000745,True,u,57524.60000000149,2271.400000002235,1669831758556,2272,HRV,HRV_0159,2022-11-30 18:13:30
30,"[{'imgObject': {}, 'id': 'chickenfingers', 'src': '/static/foodstim60/chickenfingers.jpg', 'key': 'u', 'origWidth': 410, 'origHeight': 410, 'width': 410, 'height': 410, 'widthPercent': 0.45, 'rescaleHeight': False, 'trialN': 30, 'loaded': True, 'loadedTime': 3722, 'positionName': 'LEFT', 'positionCoords': [358, 217.5], 'bid': 4.98}, {'imgObject': {}, 'id': 'Tribe humus pita', 'src': '/static/foodstim60/Tribe humus pita.jpg', 'key': 'i', 'origWidth': 411, 'origHeight': 411, 'width': 411, 'height': 411, 'widthPercent': 0.45, 'rescaleHeight': False, 'trialN': 30, 'loaded': True, 'loadedTime': 3656.400000002235, 'positionName': 'RIGHT', 'positionCoords': [832, 217], 'bid': 4.98}]",57525.5,1669831758557,chickenfingers,Tribe humus pita,4.98,4.98,0.0,Tribe humus pita,1411.800000000745,1414,1414.0,True,i,59444.60000000149,1919.1000000014901,1669831760476,1919,HRV,HRV_0159,2022-11-30 18:13:30
31,"[{'imgObject': {}, 'id': 'burrito', 'src': '/static/foodstim60/burrito.jpg', 'key': 'u', 'origWidth': 410, 'origHeight': 410, 'width': 410, 'height': 410, 'widthPercent': 0.45, 'rescaleHeight': False, 'trialN': 31, 'loaded': True, 'loadedTime': 3089.699999999255, 'positionName': 'LEFT', 'positionCoords': [358, 217.5], 'bid': 4.96}, {'imgObject': {}, 'id': 'eggs', 'src': '/static/foodstim60/eggs.jpg', 'key': 'i', 'origWidth': 409, 'origHeight': 409, 'width': 409, 'height': 409, 'widthPercent': 0.45, 'rescaleHeight': False, 'trialN': 31, 'loaded': True, 'loadedTime': 3151, 'positionName': 'RIGHT', 'positionCoords': [832, 218], 'bid': 4.96}]",59445.10000000149,1669831760476,burrito,eggs,4.96,4.96,0.0,eggs,1828.199999999255,1830,1829.800000000745,True,i,61780.5,2335.39999999851,1669831762812,2336,HRV,HRV_0159,2022-11-30 18:13:30
32,"[{'imgObject': {}, 'id': 'chicken nuggets2', 'src': '/static/foodstim60/chicken nuggets2.jpg', 'key': 'u', 'origWidth': 410, 'origHeight': 409, 'width': 410, 'height': 409, 'widthPercent': 0.45, 'rescaleHeight': False, 'trialN': 32, 'loaded': True, 'loadedTime': 3425.400000002235, 'positionName': 'LEFT', 'positionCoords': [358, 218], 'bid': 4.98}, {'imgObject': {}, 'id': 'steak', 'src': '/static/foodstim60/steak.jpg', 'key': 'i', 'origWidth': 410, 'origHeight': 410, 'width': 410, 'height': 410, 'widthPercent': 0.45, 'rescaleHeight': False, 'trialN': 32, 'loaded': True, 'loadedTime': 3695.10000000149, 'positionName': 'RIGHT', 'positionCoords': [832, 217.5], 'bid': 4.93}]",61780.900000002235,1669831762812,chicken nuggets2,steak,4.98,4.93,-0.05000000000000071,steak,1060.3999999985099,1062,1062.0999999977648,True,i,63348.5,1567.5999999977648,1669831764380,1568,HRV,HRV_0159,2022-11-30 18:13:30
33,"[{'imgObject': {}, 'id': 'cherries', 'src': '/static/foodstim60/cherries.jpg', 'key': 'u', 'origWidth': 410, 'origHeight': 411, 'width': 410, 'height': 411, 'widthPercent': 0.45, 'rescaleHeight': False, 'trialN': 33, 'loaded': True, 'loadedTime': 3362, 'positionName': 'LEFT', 'positionCoords': [358, 217], 'bid': 4.96}, {'imgObject': {}, 'id': 'mango', 'src': '/static/foodstim60/mango.jpg', 'key': 'i', 'origWidth': 411, 'origHeight': 411, 'width': 411, 'height': 411, 'widthPercent': 0.45, 'rescaleHeight': False, 'trialN': 33, 'loaded': True, 'loadedTime': 3208.199999999255, 'positionName': 'RIGHT', 'positionCoords': [832, 217], 'bid': 4.96}]",63349.10000000149,1669831764380,cherries,mango,4.96,4.96,0.0,cherries,1348.199999999255,1350,1350.0999999977648,True,u,65204.60000000149,1855.5,1669831766236,1856,HRV,HRV_0159,2022-11-30 18:13:30
34,"[{'imgObject': {}, 'id': 'mac & cheese', 'src': '/static/foodstim60/mac & cheese.jpg', 'key': 'u', 'origWidth': 410, 'origHeight': 410, 'width': 410, 'height': 410, 'widthPercent': 0.45, 'rescaleHeight': False, 'trialN': 34, 'loaded': True, 'loadedTime': 3443.900000002235, 'positionName': 'LEFT', 'positionCoords': [358, 217.5], 'bid': 5.01}, {'imgObject': {}, 'id': 'fruitsalad', 'src': '/static/foodstim60/fruitsalad.jpg', 'key': 'i', 'origWidth': 410, 'origHeight': 410, 'width': 410, 'height': 410, 'widthPercent': 0.45, 'rescaleHeight': False, 'trialN': 34, 'loaded': True, 'loadedTime': 3136.900000002235, 'positionName': 'RIGHT', 'positionCoords': [832, 217.5], 'bid': 4.98}]",65205.199999999255,1669831766236,mac & cheese,fruitsalad,5.01,4.98,-0.02999999999999936,fruitsalad,1028.1000000014901,1031,1030.300000000745,True,i,66740.60000000149,1535.4000000022352,1669831767772,1536,HRV,HRV_0159,2022-11-30 18:13:30
35,"[{'imgObject': {}, 'id': 'cheerios', 'src': '/static/foodstim60/cheerios.jpg', 'key': 'u', 'origWidth': 409, 'origHeight': 410, 'width': 409, 'height': 410, 'widthPercent': 0.45, 'rescaleHeight': False, 'trialN': 35, 'loaded': True, 'loadedTime': 3383.199999999255, 'positionName': 'LEFT', 'positionCoords': [359, 217.5], 'bid': 4.98}, {'imgObject': {}, 'id': 'eggsalad', 'src': '/static/foodstim60/eggsalad.jpg', 'key': 'i', 'origWidth': 410, 'origHeight': 409, 'width': 410, 'height': 409, 'widthPercent': 0.45, 'rescaleHeight': False, 'trialN': 35, 'loaded': True, 'loadedTime': 3187.800000000745, 'positionName': 'RIGHT', 'positionCoords': [832, 218], 'bid': 4.98}]",66741.10000000149,1669831767772,cheerios,eggsalad,4.98,4.98,0.0,cheerios,1924.199999999255,1927,1926.5999999977648,True,u,69172.5,2431.39999999851,1669831770204,2432,HRV,HRV_0159,2022-11-30 18:13:30
36,"[{'imgObject': {}, 'id': 'roastedpotatoes', 'src': '/static/foodstim60/roastedpotatoes.jpg', 'key': 'u', 'origWidth': 409, 'origHeight': 410, 'width': 409, 'height': 410, 'widthPercent': 0.45, 'rescaleHeight': False, 'trialN': 36, 'loaded': True, 'loadedTime': 3733.199999999255, 'positionName': 'LEFT', 'positionCoords': [359, 217.5], 'bid': 4.98}, {'imgObject': {}, 'id': 'bagel and cc', 'src': '/static/foodstim60/bagel and cc.jpg', 'key': 'i', 'origWidth': 410, 'origHeight': 410, 'width': 410, 'height': 410, 'widthPercent': 0.45, 'rescaleHeight': False, 'trialN': 36, 'loaded': True, 'loadedTime': 3747.199999999255, 'positionName': 'RIGHT', 'positionCoords': [832, 217.5], 'bid': 4.93}]",69173.0,1669831770204,roastedpotatoes,bagel and cc,4.98,4.93,-0.05000000000000071,bagel and cc,1380.300000000745,1382,1382.199999999255,True,i,71060.5,1887.5,1669831772092,1888,HRV,HRV_0159,2022-11-30 18:13:30
37,"[{'imgObject': {}, 'id': 'burger', 'src': '/static/foodstim60/burger.jpg', 'key': 'u', 'origWidth': 409, 'origHeight': 409, 'width': 409, 'height': 409, 'widthPercent': 0.45, 'rescaleHeight': False, 'trialN': 37, 'loaded': True, 'loadedTime': 3387.199999999255, 'positionName': 'LEFT', 'positionCoords': [359, 218], 'bid': 4.96}, {'imgObject': {}, 'id': 'orange slices', 'src': '/static/foodstim60/orange slices.jpg', 'key': 'i', 'origWidth': 409, 'origHeight': 410, 'width': 409, 'height': 410, 'widthPercent': 0.45, 'rescaleHeight': False, 'trialN': 37, 'loaded': True, 'loadedTime': 3748.5, 'positionName': 'RIGHT', 'positionCoords': [832, 217.5], 'bid': 5.0200000000000005}]",71061.10000000149,1669831772092,burger,orange slices,4.96,5.0200000000000005,0.0600000000000005,orange slices,1604.199999999255,1606,1606.0999999977648,True,i,73172.60000000149,2111.5,1669831774204,2112,HRV,HRV_0159,2022-11-30 18:13:30
38,"[{'imgObject': {}, 'id': 'rigatoni and sauce', 'src': '/static/foodstim60/rigatoni and sauce.jpg', 'key': 'u', 'origWidth': 410, 'origHeight': 411, 'width': 410, 'height': 411, 'widthPercent': 0.45, 'rescaleHeight': False, 'trialN': 38, 'loaded': True, 'loadedTime': 3789.699999999255, 'positionName': 'LEFT', 'positionCoords': [358, 217], 'bid': 4.98}, {'imgObject': {}, 'id': 'omelette', 'src': '/static/foodstim60/omelette.jpg', 'key': 'i', 'origWidth': 410, 'origHeight': 409, 'width': 410, 'height': 409, 'widthPercent': 0.45, 'rescaleHeight': False, 'trialN': 38, 'loaded': True, 'loadedTime': 3511, 'positionName': 'RIGHT', 'positionCoords': [832, 218], 'bid': 5.03}]",73173.30000000075,1669831774204,rigatoni and sauce,omelette,4.98,5.03,0.04999999999999982,rigatoni and sauce,1444.0,1446,1445.5,True,u,75124.60000000149,1951.300000000745,1669831776156,1952,HRV,HRV_0159,2022-11-30 18:13:30
39,"[{'imgObject': {}, 'id': 'grilled chicken strips', 'src': '/static/foodstim60/grilled chicken strips.jpg', 'key': 'u', 'origWidth': 410, 'origHeight': 411, 'width': 410, 'height': 411, 'widthPercent': 0.45, 'rescaleHeight': False, 'trialN': 39, 'loaded': True, 'loadedTime': 3433.300000000745, 'positionName': 'LEFT', 'positionCoords': [358, 217], 'bid': 4.98}, {'imgObject': {}, 'id': 'avocado', 'src': '/static/foodstim60/avocado.jpg', 'key': 'i', 'origWidth': 409, 'origHeight': 409, 'width': 409, 'height': 409, 'widthPercent': 0.45, 'rescaleHeight': False, 'trialN': 39, 'loaded': True, 'loadedTime': 3253.5, 'positionName': 'RIGHT', 'positionCoords': [832, 218], 'bid': 4.98}]",75125.10000000149,1669831776156,grilled chicken strips,avocado,4.98,4.98,0.0,grilled chicken strips,916.1999999992549,918,917.8999999985099,True,u,76548.5,1423.3999999985099,1669831777580,1424,HRV,HRV_0159,2022-11-30 18:13:30
40,"[{'imgObject': {}, 'id': 'popsicles', 'src': '/static/foodstim60/popsicles.jpg', 'key': 'u', 'origWidth': 410, 'origHeight': 410, 'width': 410, 'height': 410, 'widthPercent': 0.45, 'rescaleHeight': False, 'trialN': 40, 'loaded': True, 'loadedTime': 3335.300000000745, 'positionName': 'LEFT', 'positionCoords': [358, 217.5], 'bid': 4.3}, {'imgObject': {}, 'id': 'luckycharms', 'src': '/static/foodstim60/luckycharms.jpg', 'key': 'i', 'origWidth': 410, 'origHeight': 409, 'width': 410, 'height': 409, 'widthPercent': 0.45, 'rescaleHeight': False, 'trialN': 40, 'loaded': True, 'loadedTime': 3790.10000000149, 'positionName': 'RIGHT', 'positionCoords': [832, 218], 'bid': 4.15}]",76549.60000000149,1669831777581,popsicles,luckycharms,4.3,4.15,-0.14999999999999947,popsicles,1539.699999999255,1541,1541.3999999985099,True,u,78596.5,2046.8999999985099,1669831779628,2047,HRV,HRV_0159,2022-11-30 18:13:30
41,"[{'imgObject': {}, 'id': 'mashed potato', 'src': '/static/foodstim60/mashed potato.jpg', 'key': 'u', 'origWidth': 409, 'origHeight': 409, 'width': 409, 'height': 409, 'widthPercent': 0.45, 'rescaleHeight': False, 'trialN': 41, 'loaded': True, 'loadedTime': 3623.10000000149, 'positionName': 'LEFT', 'positionCoords': [359, 218], 'bid': 4.97}, {'imgObject': {}, 'id': 'blackbeanswithrice', 'src': '/static/foodstim60/blackbeanswithrice.jpg', 'key': 'i', 'origWidth': 410, 'origHeight': 410, 'width': 410, 'height': 410, 'widthPercent': 0.45, 'rescaleHeight': False, 'trialN': 41, 'loaded': True, 'loadedTime': 3807.5, 'positionName': 'RIGHT', 'positionCoords': [832, 217.5], 'bid': 4.96}]",78596.90000000224,1669831779628,mashed potato,blackbeanswithrice,4.97,4.96,-0.009999999999999787,blackbeanswithrice,1156.3999999985099,1158,1158.199999999255,True,i,80260.60000000149,1663.699999999255,1669831781292,1664,HRV,HRV_0159,2022-11-30 18:13:30
42,"[{'imgObject': {}, 'id': 'apple slices', 'src': '/static/foodstim60/apple slices.jpg', 'key': 'u', 'origWidth': 409, 'origHeight': 410, 'width': 409, 'height': 410, 'widthPercent': 0.45, 'rescaleHeight': False, 'trialN': 42, 'loaded': True, 'loadedTime': 3814.900000002235, 'positionName': 'LEFT', 'positionCoords': [359, 217.5], 'bid': 4.96}, {'imgObject': {}, 'id': 'cherry tomato', 'src': '/static/foodstim60/cherry tomato.jpg', 'key': 'i', 'origWidth': 410, 'origHeight': 410, 'width': 410, 'height': 410, 'widthPercent': 0.45, 'rescaleHeight': False, 'trialN': 42, 'loaded': True, 'loadedTime': 3826.900000002235, 'positionName': 'RIGHT', 'positionCoords': [832, 217.5], 'bid': 4.98}]",80261.19999999925,1669831781292,apple slices,cherry tomato,4.96,4.98,0.020000000000000462,apple slices,2020.1000000014901,2022,2022.0,True,u,82788.5,2527.300000000745,1669831783820,2528,HRV,HRV_0159,2022-11-30 18:13:30
43,"[{'imgObject': {}, 'id': 'ice cream sundae 002', 'src': '/static/foodstim60/ice cream sundae 002.jpg', 'key': 'u', 'origWidth': 409, 'origHeight': 409, 'width': 409, 'height': 409, 'widthPercent': 0.45, 'rescaleHeight': False, 'trialN': 43, 'loaded': True, 'loadedTime': 2964.400000002235, 'positionName': 'LEFT', 'positionCoords': [359, 218], 'bid': 4.41}, {'imgObject': {}, 'id': 'bagel and cc', 'src': '/static/foodstim60/bagel and cc.jpg', 'key': 'i', 'origWidth': 410, 'origHeight': 410, 'width': 410, 'height': 410, 'widthPercent': 0.45, 'rescaleHeight': False, 'trialN': 43, 'loaded': True, 'loadedTime': 3743.300000000745, 'positionName': 'RIGHT', 'positionCoords': [832, 217.5], 'bid': 4.93}]",82789.0,1669831783820,ice cream sundae 002,bagel and cc,4.41,4.93,0.5199999999999996,bagel and cc,964.3000000007451,966,965.8000000007451,True,i,84260.5,1471.5,1669831785292,1472,HRV,HRV_0159,2022-11-30 18:13:30
44,"[{'imgObject': {}, 'id': 'salad w chicken', 'src': '/static/foodstim60/salad w chicken.jpg', 'key': 'u', 'origWidth': 411, 'origHeight': 411, 'width': 411, 'height': 411, 'widthPercent': 0.45, 'rescaleHeight': False, 'trialN': 44, 'loaded': True, 'loadedTime': 3833.900000002235, 'positionName': 'LEFT', 'positionCoords': [357, 217], 'bid': 4.96}, {'imgObject': {}, 'id': 'salmon', 'src': '/static/foodstim60/salmon.jpg', 'key': 'i', 'origWidth': 410, 'origHeight': 409, 'width': 410, 'height': 409, 'widthPercent': 0.45, 'rescaleHeight': False, 'trialN': 44, 'loaded': True, 'loadedTime': 3686.800000000745, 'positionName': 'RIGHT', 'positionCoords': [832, 218], 'bid': 5}]",84261.10000000149,1669831785292,salad w chicken,salmon,4.96,5.0,0.040000000000000036,salmon,1108.199999999255,1110,1109.8999999985099,True,i,85874.19999999925,1613.0999999977648,1669831786905,1613,HRV,HRV_0159,2022-11-30 18:13:30
45,"[{'imgObject': {}, 'id': 'mac & cheese', 'src': '/static/foodstim60/mac & cheese.jpg', 'key': 'u', 'origWidth': 410, 'origHeight': 410, 'width': 410, 'height': 410, 'widthPercent': 0.45, 'rescaleHeight': False, 'trialN': 45, 'loaded': True, 'loadedTime': 3445.400000002235, 'positionName': 'LEFT', 'positionCoords': [358, 217.5], 'bid': 5.01}, {'imgObject': {}, 'id': 'omelette', 'src': '/static/foodstim60/omelette.jpg', 'key': 'i', 'origWidth': 410, 'origHeight': 409, 'width': 410, 'height': 409, 'widthPercent': 0.45, 'rescaleHeight': False, 'trialN': 45, 'loaded': True, 'loadedTime': 3525.5, 'positionName': 'RIGHT', 'positionCoords': [832, 218], 'bid': 5.03}]",85874.5,1669831786906,mac & cheese,omelette,5.01,5.03,0.020000000000000462,mac & cheese,1285.800000000745,1288,1288.699999999255,True,u,87668.5,1794.0,1669831788700,1794,HRV,HRV_0159,2022-11-30 18:13:30
46,"[{'imgObject': {}, 'id': 'yogurt no spoon', 'src': '/static/foodstim60/yogurt no spoon.jpg', 'key': 'u', 'origWidth': 411, 'origHeight': 410, 'width': 411, 'height': 410, 'widthPercent': 0.45, 'rescaleHeight': False, 'trialN': 46, 'loaded': True, 'loadedTime': 3563.800000000745, 'positionName': 'LEFT', 'positionCoords': [357, 217.5], 'bid': 5}, {'imgObject': {}, 'id': 'kiwi', 'src': '/static/foodstim60/kiwi.jpg', 'key': 'i', 'origWidth': 410, 'origHeight': 410, 'width': 410, 'height': 410, 'widthPercent': 0.45, 'rescaleHeight': False, 'trialN': 46, 'loaded': True, 'loadedTime': 3654.10000000149, 'positionName': 'RIGHT', 'positionCoords': [832, 217.5], 'bid': 5.01}]",87669.0,1669831788700,yogurt no spoon,kiwi,5.0,5.01,0.009999999999999787,kiwi,867.3000000007451,871,870.4000000022352,True,i,89044.5,1375.5,1669831790076,1376,HRV,HRV_0159,2022-11-30 18:13:30
47,"[{'imgObject': {}, 'id': 'froot loops w milk', 'src': '/static/foodstim60/froot loops w milk.jpg', 'key': 'u', 'origWidth': 410, 'origHeight': 410, 'width': 410, 'height': 410, 'widthPercent': 0.45, 'rescaleHeight': False, 'trialN': 47, 'loaded': True, 'loadedTime': 3835.800000000745, 'positionName': 'LEFT', 'positionCoords': [358, 217.5], 'bid': 4.22}, {'imgObject': {}, 'id': 'popsicles', 'src': '/static/foodstim60/popsicles.jpg', 'key': 'i', 'origWidth': 410, 'origHeight': 410, 'width': 410, 'height': 410, 'widthPercent': 0.45, 'rescaleHeight': False, 'trialN': 47, 'loaded': True, 'loadedTime': 3340.60000000149, 'positionName': 'RIGHT', 'positionCoords': [832, 217.5], 'bid': 4.3}]",89045.30000000075,1669831790076,froot loops w milk,popsicles,4.22,4.3,0.08000000000000007,popsicles,915.0,918,917.6999999992549,True,i,90468.69999999925,1423.3999999985099,1669831791500,1424,HRV,HRV_0159,2022-11-30 18:13:30
48,"[{'imgObject': {}, 'id': 'apple slices', 'src': '/static/foodstim60/apple slices.jpg', 'key': 'u', 'origWidth': 409, 'origHeight': 410, 'width': 409, 'height': 410, 'widthPercent': 0.45, 'rescaleHeight': False, 'trialN': 48, 'loaded': True, 'loadedTime': 3814.60000000149, 'positionName': 'LEFT', 'positionCoords': [359, 217.5], 'bid': 4.96}, {'imgObject': {}, 'id': 'blackbeanswithrice', 'src': '/static/foodstim60/blackbeanswithrice.jpg', 'key': 'i', 'origWidth': 410, 'origHeight': 410, 'width': 410, 'height': 410, 'widthPercent': 0.45, 'rescaleHeight': False, 'trialN': 48, 'loaded': True, 'loadedTime': 3797, 'positionName': 'RIGHT', 'positionCoords': [832, 217.5], 'bid': 4.96}]",90469.19999999925,1669831791500,apple slices,blackbeanswithrice,4.96,4.96,0.0,apple slices,835.1000000014901,838,837.4000000022352,True,u,91812.5,1343.300000000745,1669831792844,1344,HRV,HRV_0159,2022-11-30 18:13:30
49,"[{'imgObject': {}, 'id': 'hotdog w must', 'src': '/static/foodstim60/hotdog w must.jpg', 'key': 'u', 'origWidth': 409, 'origHeight': 409, 'width': 409, 'height': 409, 'widthPercent': 0.45, 'rescaleHeight': False, 'trialN': 49, 'loaded': True, 'loadedTime': 3075.10000000149, 'positionName': 'LEFT', 'positionCoords': [359, 218], 'bid': 4.96}, {'imgObject': {}, 'id': 'cocktailshrimp', 'src': '/static/foodstim60/cocktailshrimp.jpg', 'key': 'i', 'origWidth': 410, 'origHeight': 410, 'width': 410, 'height': 410, 'widthPercent': 0.45, 'rescaleHeight': False, 'trialN': 49, 'loaded': True, 'loadedTime': 3035.300000000745, 'positionName': 'RIGHT', 'positionCoords': [832, 217.5], 'bid': 4.42}]",91812.90000000224,1669831792844,hotdog w must,cocktailshrimp,4.96,4.42,-0.54,hotdog w must,1204.3999999985099,1206,1206.0999999977648,True,u,93524.60000000149,1711.699999999255,1669831794556,1712,HRV,HRV_0159,2022-11-30 18:13:30
50,"[{'imgObject': {}, 'id': 'fruitsalad', 'src': '/static/foodstim60/fruitsalad.jpg', 'key': 'u', 'origWidth': 410, 'origHeight': 410, 'width': 410, 'height': 410, 'widthPercent': 0.45, 'rescaleHeight': False, 'trialN': 50, 'loaded': True, 'loadedTime': 3126.300000000745, 'positionName': 'LEFT', 'positionCoords': [358, 217.5], 'bid': 4.98}, {'imgObject': {}, 'id': 'blueberries', 'src': '/static/foodstim60/blueberries.jpg', 'key': 'i', 'origWidth': 411, 'origHeight': 411, 'width': 411, 'height': 411, 'widthPercent': 0.45, 'rescaleHeight': False, 'trialN': 50, 'loaded': True, 'loadedTime': 3845.699999999255, 'positionName': 'RIGHT', 'positionCoords': [832, 217], 'bid': 4.98}]",93525.40000000224,1669831794557,fruitsalad,blueberries,4.98,4.98,0.0,blueberries,803.8999999985099,805,805.1999999992549,True,i,94836.60000000149,1311.199999999255,1669831795868,1311,HRV,HRV_0159,2022-11-30 18:13:30
51,"[{'imgObject': {}, 'id': 'turkey sandwich', 'src': '/static/foodstim60/turkey sandwich.jpg', 'key': 'u', 'origWidth': 409, 'origHeight': 409, 'width': 409, 'height': 409, 'widthPercent': 0.45, 'rescaleHeight': False, 'trialN': 51, 'loaded': True, 'loadedTime': 3477.199999999255, 'positionName': 'LEFT', 'positionCoords': [359, 218], 'bid': 4.96}, {'imgObject': {}, 'id': 'hotdog w must', 'src': '/static/foodstim60/hotdog w must.jpg', 'key': 'i', 'origWidth': 409, 'origHeight': 409, 'width': 409, 'height': 409, 'widthPercent': 0.45, 'rescaleHeight': False, 'trialN': 51, 'loaded': True, 'loadedTime': 3069.699999999255, 'positionName': 'RIGHT', 'positionCoords': [832, 218], 'bid': 4.96}]",94837.0,1669831795868,turkey sandwich,hotdog w must,4.96,4.96,0.0,hotdog w must,1219.300000000745,1222,1221.800000000745,True,i,96564.5,1727.5,1669831797596,1728,HRV,HRV_0159,2022-11-30 18:13:30
52,"[{'imgObject': {}, 'id': 'froot loops w milk', 'src': '/static/foodstim60/froot loops w milk.jpg', 'key': 'u', 'origWidth': 410, 'origHeight': 410, 'width': 410, 'height': 410, 'widthPercent': 0.45, 'rescaleHeight': False, 'trialN': 52, 'loaded': True, 'loadedTime': 3834.300000000745, 'positionName': 'LEFT', 'positionCoords': [358, 217.5], 'bid': 4.22}, {'imgObject': {}, 'id': 'burrito', 'src': '/static/foodstim60/burrito.jpg', 'key': 'i', 'origWidth': 410, 'origHeight': 410, 'width': 410, 'height': 410, 'widthPercent': 0.45, 'rescaleHeight': False, 'trialN': 52, 'loaded': True, 'loadedTime': 3082.300000000745, 'positionName': 'RIGHT', 'positionCoords': [832, 217.5], 'bid': 4.96}]",96564.90000000224,1669831797596,froot loops w milk,burrito,4.22,4.96,0.7400000000000002,burrito,1507.3999999985099,1510,1510.0,True,i,98580.5,2015.5999999977648,1669831799612,2016,HRV,HRV_0159,2022-11-30 18:13:30
53,"[{'imgObject': {}, 'id': 'corn cob', 'src': '/static/foodstim60/corn cob.jpg', 'key': 'u', 'origWidth': 411, 'origHeight': 411, 'width': 411, 'height': 411, 'widthPercent': 0.45, 'rescaleHeight': False, 'trialN': 53, 'loaded': True, 'loadedTime': 3493.199999999255, 'positionName': 'LEFT', 'positionCoords': [357, 217], 'bid': 4.93}, {'imgObject': {}, 'id': 'fried eggs', 'src': '/static/foodstim60/fried eggs.jpg', 'key': 'i', 'origWidth': 410, 'origHeight': 410, 'width': 410, 'height': 410, 'widthPercent': 0.45, 'rescaleHeight': False, 'trialN': 53, 'loaded': True, 'loadedTime': 3848, 'positionName': 'RIGHT', 'positionCoords': [832, 217.5], 'bid': 4.96}]",98580.80000000075,1669831799612,corn cob,fried eggs,4.93,4.96,0.03000000000000025,fried eggs,1347.5,1350,1350.0,True,i,100436.60000000149,1855.800000000745,1669831801468,1856,HRV,HRV_0159,2022-11-30 18:13:30
54,"[{'imgObject': {}, 'id': 'banana', 'src': '/static/foodstim60/banana.jpg', 'key': 'u', 'origWidth': 410, 'origHeight': 410, 'width': 410, 'height': 410, 'widthPercent': 0.45, 'rescaleHeight': False, 'trialN': 54, 'loaded': True, 'loadedTime': 3853.900000002235, 'positionName': 'LEFT', 'positionCoords': [358, 217.5], 'bid': 5.01}, {'imgObject': {}, 'id': 'pear', 'src': '/static/foodstim60/pear.jpg', 'key': 'i', 'origWidth': 411, 'origHeight': 410, 'width': 411, 'height': 410, 'widthPercent': 0.45, 'rescaleHeight': False, 'trialN': 54, 'loaded': True, 'loadedTime': 3553.400000002235, 'positionName': 'RIGHT', 'positionCoords': [832, 217.5], 'bid': 5.0200000000000005}]",100437.19999999925,1669831801468,banana,pear,5.01,5.0200000000000005,0.010000000000000675,pear,1076.1000000014901,1078,1077.7000000029802,True,i,102020.5,1583.300000000745,1669831803052,1584,HRV,HRV_0159,2022-11-30 18:13:30
55,"[{'imgObject': {}, 'id': 'avocado', 'src': '/static/foodstim60/avocado.jpg', 'key': 'u', 'origWidth': 409, 'origHeight': 409, 'width': 409, 'height': 409, 'widthPercent': 0.45, 'rescaleHeight': False, 'trialN': 55, 'loaded': True, 'loadedTime': 3261.10000000149, 'positionName': 'LEFT', 'positionCoords': [359, 218], 'bid': 4.98}, {'imgObject': {}, 'id': 'banana', 'src': '/static/foodstim60/banana.jpg', 'key': 'i', 'origWidth': 410, 'origHeight': 410, 'width': 410, 'height': 410, 'widthPercent': 0.45, 'rescaleHeight': False, 'trialN': 55, 'loaded': True, 'loadedTime': 3853.10000000149, 'positionName': 'RIGHT', 'positionCoords': [832, 217.5], 'bid': 5.01}]",102020.90000000224,1669831803052,avocado,banana,4.98,5.01,0.02999999999999936,banana,963.3999999985099,966,965.7999999970198,True,i,103492.5,1471.5999999977648,1669831804524,1472,HRV,HRV_0159,2022-11-30 18:13:30
56,"[{'imgObject': {}, 'id': 'sweetpotato', 'src': '/static/foodstim60/sweetpotato.jpg', 'key': 'u', 'origWidth': 410, 'origHeight': 410, 'width': 410, 'height': 410, 'widthPercent': 0.45, 'rescaleHeight': False, 'trialN': 56, 'loaded': True, 'loadedTime': 3862.400000002235, 'positionName': 'LEFT', 'positionCoords': [358, 217.5], 'bid': 5.0200000000000005}, {'imgObject': {}, 'id': 'orange slices', 'src': '/static/foodstim60/orange slices.jpg', 'key': 'i', 'origWidth': 409, 'origHeight': 410, 'width': 409, 'height': 410, 'widthPercent': 0.45, 'rescaleHeight': False, 'trialN': 56, 'loaded': True, 'loadedTime': 3756.300000000745, 'positionName': 'RIGHT', 'positionCoords': [832, 217.5], 'bid': 5.0200000000000005}]",103493.0,1669831804524,sweetpotato,orange slices,5.0200000000000005,5.0200000000000005,0.0,orange slices,836.3000000007451,838,837.8000000007451,True,i,104836.60000000149,1343.6000000014901,1669831805868,1344,HRV,HRV_0159,2022-11-30 18:13:30
57,"[{'imgObject': {}, 'id': 'popsicles', 'src': '/static/foodstim60/popsicles.jpg', 'key': 'u', 'origWidth': 410, 'origHeight': 410, 'width': 410, 'height': 410, 'widthPercent': 0.45, 'rescaleHeight': False, 'trialN': 57, 'loaded': True, 'loadedTime': 3317.400000002235, 'positionName': 'LEFT', 'positionCoords': [358, 217.5], 'bid': 4.3}, {'imgObject': {}, 'id': 'fried eggs', 'src': '/static/foodstim60/fried eggs.jpg', 'key': 'i', 'origWidth': 410, 'origHeight': 410, 'width': 410, 'height': 410, 'widthPercent': 0.45, 'rescaleHeight': False, 'trialN': 57, 'loaded': True, 'loadedTime': 3847.400000002235, 'positionName': 'RIGHT', 'positionCoords': [832, 217.5], 'bid': 4.96}]",104837.10000000149,1669831805868,popsicles,fried eggs,4.3,4.96,0.6600000000000001,fried eggs,1075.199999999255,1078,1077.5999999977648,True,i,106420.5,1583.3999999985099,1669831807452,1584,HRV,HRV_0159,2022-11-30 18:13:30
58,"[{'imgObject': {}, 'id': 'froot loops w milk', 'src': '/static/foodstim60/froot loops w milk.jpg', 'key': 'u', 'origWidth': 410, 'origHeight': 410, 'width': 410, 'height': 410, 'widthPercent': 0.45, 'rescaleHeight': False, 'trialN': 58, 'loaded': True, 'loadedTime': 3836.800000000745, 'positionName': 'LEFT', 'positionCoords': [358, 217.5], 'bid': 4.22}, {'imgObject': {}, 'id': 'sushi w_condiments', 'src': '/static/foodstim60/sushi w_condiments.jpg', 'key': 'i', 'origWidth': 410, 'origHeight': 410, 'width': 410, 'height': 410, 'widthPercent': 0.45, 'rescaleHeight': False, 'trialN': 58, 'loaded': True, 'loadedTime': 3863.5, 'positionName': 'RIGHT', 'positionCoords': [832, 217.5], 'bid': 3.0500000000000003}]",106421.19999999925,1669831807452,froot loops w milk,sushi w_condiments,4.22,3.0500000000000003,-1.1699999999999995,froot loops w milk,1268.1000000014901,1270,1269.6000000014901,True,u,108196.60000000149,1775.4000000022352,1669831809228,1776,HRV,HRV_0159,2022-11-30 18:13:30
59,"[{'imgObject': {}, 'id': 'eggs', 'src': '/static/foodstim60/eggs.jpg', 'key': 'u', 'origWidth': 409, 'origHeight': 409, 'width': 409, 'height': 409, 'widthPercent': 0.45, 'rescaleHeight': False, 'trialN': 59, 'loaded': True, 'loadedTime': 3143.60000000149, 'positionName': 'LEFT', 'positionCoords': [359, 218], 'bid': 4.96}, {'imgObject': {}, 'id': 'banana', 'src': '/static/foodstim60/banana.jpg', 'key': 'i', 'origWidth': 410, 'origHeight': 410, 'width': 410, 'height': 410, 'widthPercent': 0.45, 'rescaleHeight': False, 'trialN': 59, 'loaded': True, 'loadedTime': 3854.400000002235, 'positionName': 'RIGHT', 'positionCoords': [832, 217.5], 'bid': 5.01}]",108197.0,1669831809228,eggs,banana,4.96,5.01,0.04999999999999982,banana,1956.300000000745,1958,1957.4000000022352,True,i,110660.60000000149,2463.60000000149,1669831811692,2464,HRV,HRV_0159,2022-11-30 18:13:30
60,"[{'imgObject': {}, 'id': 'salmon', 'src': '/static/foodstim60/salmon.jpg', 'key': 'u', 'origWidth': 410, 'origHeight': 409, 'width': 410, 'height': 409, 'widthPercent': 0.45, 'rescaleHeight': False, 'trialN': 60, 'loaded': True, 'loadedTime': 3682.60000000149, 'positionName': 'LEFT', 'positionCoords': [358, 218], 'bid': 5}, {'imgObject': {}, 'id': 'pear', 'src': '/static/foodstim60/pear.jpg', 'key': 'i', 'origWidth': 411, 'origHeight': 410, 'width': 411, 'height': 410, 'widthPercent': 0.45, 'rescaleHeight': False, 'trialN': 60, 'loaded': True, 'loadedTime': 3559, 'positionName': 'RIGHT', 'positionCoords': [832, 217.5], 'bid': 5.0200000000000005}]",110661.0,1669831811692,salmon,pear,5.0,5.0200000000000005,0.020000000000000462,salmon,1236.300000000745,1238,1237.800000000745,True,u,112404.60000000149,1743.6000000014901,1669831813436,1744,HRV,HRV_0159,2022-11-30 18:13:30
61,"[{'imgObject': {}, 'id': 'raisin bran w milk', 'src': '/static/foodstim60/raisin bran w milk.jpg', 'key': 'u', 'origWidth': 411, 'origHeight': 411, 'width': 411, 'height': 411, 'widthPercent': 0.45, 'rescaleHeight': False, 'trialN': 61, 'loaded': True, 'loadedTime': 3505.900000002235, 'positionName': 'LEFT', 'positionCoords': [357, 217], 'bid': 4.93}, {'imgObject': {}, 'id': 'bagel and cc', 'src': '/static/foodstim60/bagel and cc.jpg', 'key': 'i', 'origWidth': 410, 'origHeight': 410, 'width': 410, 'height': 410, 'widthPercent': 0.45, 'rescaleHeight': False, 'trialN': 61, 'loaded': True, 'loadedTime': 3740.5, 'positionName': 'RIGHT', 'positionCoords': [832, 217.5], 'bid': 4.93}]",112405.19999999925,1669831813436,raisin bran w milk,bagel and cc,4.93,4.93,0.0,bagel and cc,916.1000000014901,918,917.4000000022352,True,i,113828.60000000149,1423.4000000022352,1669831814860,1424,HRV,HRV_0159,2022-11-30 18:13:30
62,"[{'imgObject': {}, 'id': 'veggieswithdip', 'src': '/static/foodstim60/veggieswithdip.jpg', 'key': 'u', 'origWidth': 409, 'origHeight': 409, 'width': 409, 'height': 409, 'widthPercent': 0.45, 'rescaleHeight': False, 'trialN': 62, 'loaded': True, 'loadedTime': 3110.300000000745, 'positionName': 'LEFT', 'positionCoords': [359, 218], 'bid': 4.98}, {'imgObject': {}, 'id': 'yogurt no spoon', 'src': '/static/foodstim60/yogurt no spoon.jpg', 'key': 'i', 'origWidth': 411, 'origHeight': 410, 'width': 411, 'height': 410, 'widthPercent': 0.45, 'rescaleHeight': False, 'trialN': 62, 'loaded': True, 'loadedTime': 3587.300000000745, 'positionName': 'RIGHT', 'positionCoords': [832, 217.5], 'bid': 5}]",113829.0,1669831814860,veggieswithdip,yogurt no spoon,4.98,5.0,0.019999999999999574,veggieswithdip,1347.300000000745,1350,1349.800000000745,True,u,115684.60000000149,1855.6000000014901,1669831816716,1856,HRV,HRV_0159,2022-11-30 18:13:30
63,"[{'imgObject': {}, 'id': 'olives', 'src': '/static/foodstim60/olives.jpg', 'key': 'u', 'origWidth': 410, 'origHeight': 410, 'width': 410, 'height': 410, 'widthPercent': 0.45, 'rescaleHeight': False, 'trialN': 63, 'loaded': True, 'loadedTime': 3039.800000000745, 'positionName': 'LEFT', 'positionCoords': [358, 217.5], 'bid': 4.43}, {'imgObject': {}, 'id': 'turkey sandwich', 'src': '/static/foodstim60/turkey sandwich.jpg', 'key': 'i', 'origWidth': 409, 'origHeight': 409, 'width': 409, 'height': 409, 'widthPercent': 0.45, 'rescaleHeight': False, 'trialN': 63, 'loaded': True, 'loadedTime': 3479.199999999255, 'positionName': 'RIGHT', 'positionCoords': [832, 218], 'bid': 4.96}]",115685.19999999925,1669831816716,olives,turkey sandwich,4.43,4.96,0.5300000000000002,turkey sandwich,1028.1000000014901,1030,1029.300000000745,True,i,117220.60000000149,1535.4000000022352,1669831818252,1536,HRV,HRV_0159,2022-11-30 18:13:30
64,"[{'imgObject': {}, 'id': 'shreddedwheatwithmilk', 'src': '/static/foodstim60/shreddedwheatwithmilk.jpg', 'key': 'u', 'origWidth': 410, 'origHeight': 410, 'width': 410, 'height': 410, 'widthPercent': 0.45, 'rescaleHeight': False, 'trialN': 64, 'loaded': True, 'loadedTime': 3609.900000002235, 'positionName': 'LEFT', 'positionCoords': [358, 217.5], 'bid': 4.96}, {'imgObject': {}, 'id': 'eggsalad', 'src': '/static/foodstim60/eggsalad.jpg', 'key': 'i', 'origWidth': 410, 'origHeight': 409, 'width': 410, 'height': 409, 'widthPercent': 0.45, 'rescaleHeight': False, 'trialN': 64, 'loaded': True, 'loadedTime': 3192.199999999255, 'positionName': 'RIGHT', 'positionCoords': [832, 218], 'bid': 4.98}]",117221.10000000149,1669831818252,shreddedwheatwithmilk,eggsalad,4.96,4.98,0.020000000000000462,shreddedwheatwithmilk,1108.199999999255,1110,1109.5999999977648,True,u,118836.5,1615.3999999985099,1669831819868,1616,HRV,HRV_0159,2022-11-30 18:13:30
65,"[{'imgObject': {}, 'id': 'olives', 'src': '/static/foodstim60/olives.jpg', 'key': 'u', 'origWidth': 410, 'origHeight': 410, 'width': 410, 'height': 410, 'widthPercent': 0.45, 'rescaleHeight': False, 'trialN': 65, 'loaded': True, 'loadedTime': 3062.199999999255, 'positionName': 'LEFT', 'positionCoords': [358, 217.5], 'bid': 4.43}, {'imgObject': {}, 'id': 'luckycharms', 'src': '/static/foodstim60/luckycharms.jpg', 'key': 'i', 'origWidth': 410, 'origHeight': 409, 'width': 410, 'height': 409, 'widthPercent': 0.45, 'rescaleHeight': False, 'trialN': 65, 'loaded': True, 'loadedTime': 3791.10000000149, 'positionName': 'RIGHT', 'positionCoords': [832, 218], 'bid': 4.15}]",118836.90000000224,1669831819868,olives,luckycharms,4.43,4.15,-0.27999999999999936,luckycharms,1940.3999999985099,1942,1941.8999999985099,True,i,121284.5,2447.599999997765,1669831822316,2448,HRV,HRV_0159,2022-11-30 18:13:30
66,"[{'imgObject': {}, 'id': 'rigatoni', 'src': '/static/foodstim60/rigatoni.jpg', 'key': 'u', 'origWidth': 411, 'origHeight': 411, 'width': 411, 'height': 411, 'widthPercent': 0.45, 'rescaleHeight': False, 'trialN': 66, 'loaded': True, 'loadedTime': 3677.5, 'positionName': 'LEFT', 'positionCoords': [357, 217], 'bid': 4.98}, {'imgObject': {}, 'id': 'turkeysandwich', 'src': '/static/foodstim60/turkeysandwich.jpg', 'key': 'i', 'origWidth': 409, 'origHeight': 409, 'width': 409, 'height': 409, 'widthPercent': 0.45, 'rescaleHeight': False, 'trialN': 66, 'loaded': True, 'loadedTime': 3869.300000000745, 'positionName': 'RIGHT', 'positionCoords': [832, 218], 'bid': 4.98}]",121285.0,1669831822316,rigatoni,turkeysandwich,4.98,4.98,0.0,rigatoni,1636.300000000745,1638,1637.6000000014901,True,u,123428.60000000149,2143.60000000149,1669831824460,2144,HRV,HRV_0159,2022-11-30 18:13:30
67,"[{'imgObject': {}, 'id': 'kiwi', 'src': '/static/foodstim60/kiwi.jpg', 'key': 'u', 'origWidth': 410, 'origHeight': 410, 'width': 410, 'height': 410, 'widthPercent': 0.45, 'rescaleHeight': False, 'trialN': 67, 'loaded': True, 'loadedTime': 3645.800000000745, 'positionName': 'LEFT', 'positionCoords': [358, 217.5], 'bid': 5.01}, {'imgObject': {}, 'id': 'orange slices', 'src': '/static/foodstim60/orange slices.jpg', 'key': 'i', 'origWidth': 409, 'origHeight': 410, 'width': 409, 'height': 410, 'widthPercent': 0.45, 'rescaleHeight': False, 'trialN': 67, 'loaded': True, 'loadedTime': 3747.5, 'positionName': 'RIGHT', 'positionCoords': [832, 217.5], 'bid': 5.0200000000000005}]",123429.10000000149,1669831824460,kiwi,orange slices,5.01,5.0200000000000005,0.010000000000000675,kiwi,1699.199999999255,1702,1701.5,True,u,125636.60000000149,2207.5,1669831826668,2208,HRV,HRV_0159,2022-11-30 18:13:30
68,"[{'imgObject': {}, 'id': 'bagel and cc', 'src': '/static/foodstim60/bagel and cc.jpg', 'key': 'u', 'origWidth': 410, 'origHeight': 410, 'width': 410, 'height': 410, 'widthPercent': 0.45, 'rescaleHeight': False, 'trialN': 68, 'loaded': True, 'loadedTime': 3747, 'positionName': 'LEFT', 'positionCoords': [358, 217.5], 'bid': 4.93}, {'imgObject': {}, 'id': 'steak', 'src': '/static/foodstim60/steak.jpg', 'key': 'i', 'origWidth': 410, 'origHeight': 410, 'width': 410, 'height': 410, 'widthPercent': 0.45, 'rescaleHeight': False, 'trialN': 68, 'loaded': True, 'loadedTime': 3695.60000000149, 'positionName': 'RIGHT', 'positionCoords': [832, 217.5], 'bid': 4.93}]",125637.0,1669831826668,bagel and cc,steak,4.93,4.93,0.0,steak,1299.300000000745,1302,1301.6000000014901,True,i,127444.60000000149,1807.6000000014901,1669831828476,1808,HRV,HRV_0159,2022-11-30 18:13:30
69,"[{'imgObject': {}, 'id': 'granola w milk', 'src': '/static/foodstim60/granola w milk.jpg', 'key': 'u', 'origWidth': 410, 'origHeight': 410, 'width': 410, 'height': 410, 'widthPercent': 0.45, 'rescaleHeight': False, 'trialN': 69, 'loaded': True, 'loadedTime': 3163.800000000745, 'positionName': 'LEFT', 'positionCoords': [358, 217.5], 'bid': 4.96}, {'imgObject': {}, 'id': 'bagel plain', 'src': '/static/foodstim60/bagel plain.jpg', 'key': 'i', 'origWidth': 410, 'origHeight': 410, 'width': 410, 'height': 410, 'widthPercent': 0.45, 'rescaleHeight': False, 'trialN': 69, 'loaded': True, 'loadedTime': 3899.5, 'positionName': 'RIGHT', 'positionCoords': [832, 217.5], 'bid': 4.96}]",127445.19999999925,1669831828476,granola w milk,bagel plain,4.96,4.96,0.0,bagel plain,1459.1000000014901,1462,1461.4000000022352,True,i,129412.60000000149,1967.4000000022352,1669831830444,1968,HRV,HRV_0159,2022-11-30 18:13:30
70,"[{'imgObject': {}, 'id': 'fried eggs', 'src': '/static/foodstim60/fried eggs.jpg', 'key': 'u', 'origWidth': 410, 'origHeight': 410, 'width': 410, 'height': 410, 'widthPercent': 0.45, 'rescaleHeight': False, 'trialN': 70, 'loaded': True, 'loadedTime': 3847.699999999255, 'positionName': 'LEFT', 'positionCoords': [358, 217.5], 'bid': 4.96}, {'imgObject': {}, 'id': 'lox', 'src': '/static/foodstim60/lox.jpg', 'key': 'i', 'origWidth': 410, 'origHeight': 411, 'width': 410, 'height': 411, 'widthPercent': 0.45, 'rescaleHeight': False, 'trialN': 70, 'loaded': True, 'loadedTime': 3713.900000002235, 'positionName': 'RIGHT', 'positionCoords': [832, 217], 'bid': 4.5600000000000005}]",129413.10000000149,1669831830444,fried eggs,lox,4.96,4.5600000000000005,-0.39999999999999947,fried eggs,980.1999999992549,981,981.1999999992549,True,u,130900.60000000149,1487.5,1669831831932,1488,HRV,HRV_0159,2022-11-30 18:13:30
71,"[{'imgObject': {}, 'id': 'fried eggs', 'src': '/static/foodstim60/fried eggs.jpg', 'key': 'u', 'origWidth': 410, 'origHeight': 410, 'width': 410, 'height': 410, 'widthPercent': 0.45, 'rescaleHeight': False, 'trialN': 71, 'loaded': True, 'loadedTime': 3848.300000000745, 'positionName': 'LEFT', 'positionCoords': [358, 217.5], 'bid': 4.96}, {'imgObject': {}, 'id': 'hotdog w must', 'src': '/static/foodstim60/hotdog w must.jpg', 'key': 'i', 'origWidth': 409, 'origHeight': 409, 'width': 409, 'height': 409, 'widthPercent': 0.45, 'rescaleHeight': False, 'trialN': 71, 'loaded': True, 'loadedTime': 3065.60000000149, 'positionName': 'RIGHT', 'positionCoords': [832, 218], 'bid': 4.96}]",130901.10000000149,1669831831932,fried eggs,hotdog w must,4.96,4.96,0.0,fried eggs,1203.199999999255,1205,1205.0999999977648,True,u,132612.5,1711.3999999985099,1669831833644,1712,HRV,HRV_0159,2022-11-30 18:13:30
72,"[{'imgObject': {}, 'id': 'mashed potato', 'src': '/static/foodstim60/mashed potato.jpg', 'key': 'u', 'origWidth': 409, 'origHeight': 409, 'width': 409, 'height': 409, 'widthPercent': 0.45, 'rescaleHeight': False, 'trialN': 72, 'loaded': True, 'loadedTime': 3622.800000000745, 'positionName': 'LEFT', 'positionCoords': [359, 218], 'bid': 4.97}, {'imgObject': {}, 'id': 'edamame', 'src': '/static/foodstim60/edamame.jpg', 'key': 'i', 'origWidth': 409, 'origHeight': 410, 'width': 409, 'height': 410, 'widthPercent': 0.45, 'rescaleHeight': False, 'trialN': 72, 'loaded': True, 'loadedTime': 3590.5, 'positionName': 'RIGHT', 'positionCoords': [832, 217.5], 'bid': 4.98}]",132613.0,1669831833644,mashed potato,edamame,4.97,4.98,0.010000000000000675,edamame,851.3000000007451,854,853.4000000022352,True,i,133972.5,1359.5,1669831835004,1360,HRV,HRV_0159,2022-11-30 18:13:30
73,"[{'imgObject': {}, 'id': 'mac & cheese', 'src': '/static/foodstim60/mac & cheese.jpg', 'key': 'u', 'origWidth': 410, 'origHeight': 410, 'width': 410, 'height': 410, 'widthPercent': 0.45, 'rescaleHeight': False, 'trialN': 73, 'loaded': True, 'loadedTime': 3461.10000000149, 'positionName': 'LEFT', 'positionCoords': [358, 217.5], 'bid': 5.01}, {'imgObject': {}, 'id': 'banana', 'src': '/static/foodstim60/banana.jpg', 'key': 'i', 'origWidth': 410, 'origHeight': 410, 'width': 410, 'height': 410, 'widthPercent': 0.45, 'rescaleHeight': False, 'trialN': 73, 'loaded': True, 'loadedTime': 3852.60000000149, 'positionName': 'RIGHT', 'positionCoords': [832, 217.5], 'bid': 5.01}]",133973.19999999925,1669831835004,mac & cheese,banana,5.01,5.01,0.0,banana,1027.1000000014901,1029,1029.0,True,i,135508.5,1535.300000000745,1669831836540,1536,HRV,HRV_0159,2022-11-30 18:13:30
74,"[{'imgObject': {}, 'id': 'blackbeanswithrice', 'src': '/static/foodstim60/blackbeanswithrice.jpg', 'key': 'u', 'origWidth': 410, 'origHeight': 410, 'width': 410, 'height': 410, 'widthPercent': 0.45, 'rescaleHeight': False, 'trialN': 74, 'loaded': True, 'loadedTime': 3808.10000000149, 'positionName': 'LEFT', 'positionCoords': [358, 217.5], 'bid': 4.96}, {'imgObject': {}, 'id': 'bagel plain', 'src': '/static/foodstim60/bagel plain.jpg', 'key': 'i', 'origWidth': 410, 'origHeight': 410, 'width': 410, 'height': 410, 'widthPercent': 0.45, 'rescaleHeight': False, 'trialN': 74, 'loaded': True, 'loadedTime': 3899.800000000745, 'positionName': 'RIGHT', 'positionCoords': [832, 217.5], 'bid': 4.96}]",135509.0,1669831836540,blackbeanswithrice,bagel plain,4.96,4.96,0.0,blackbeanswithrice,963.3000000007451,965,965.3000000007451,True,u,136980.6000000015,1471.6000000014901,1669831838012,1472,HRV,HRV_0159,2022-11-30 18:13:30
75,"[{'imgObject': {}, 'id': 'sweetpotato', 'src': '/static/foodstim60/sweetpotato.jpg', 'key': 'u', 'origWidth': 410, 'origHeight': 410, 'width': 410, 'height': 410, 'widthPercent': 0.45, 'rescaleHeight': False, 'trialN': 75, 'loaded': True, 'loadedTime': 3857.900000002235, 'positionName': 'LEFT', 'positionCoords': [358, 217.5], 'bid': 5.0200000000000005}, {'imgObject': {}, 'id': 'turkeysandwich', 'src': '/static/foodstim60/turkeysandwich.jpg', 'key': 'i', 'origWidth': 409, 'origHeight': 409, 'width': 409, 'height': 409, 'widthPercent': 0.45, 'rescaleHeight': False, 'trialN': 75, 'loaded': True, 'loadedTime': 3874, 'positionName': 'RIGHT', 'positionCoords': [832, 218], 'bid': 4.98}]",136981.69999999925,1669831838013,sweetpotato,turkeysandwich,5.0200000000000005,4.98,-0.040000000000000036,turkeysandwich,1138.6000000014901,1140,1140.6000000014901,True,i,138629.1000000015,1647.4000000022352,1669831839660,1647,HRV,HRV_0159,2022-11-30 18:13:30
76,"[{'imgObject': {}, 'id': 'baked potato', 'src': '/static/foodstim60/baked potato.jpg', 'key': 'u', 'origWidth': 409, 'origHeight': 410, 'width': 409, 'height': 410, 'widthPercent': 0.45, 'rescaleHeight': False, 'trialN': 76, 'loaded': True, 'loadedTime': 3900.199999999255, 'positionName': 'LEFT', 'positionCoords': [359, 217.5], 'bid': 4.97}, {'imgObject': {}, 'id': 'sushi w_condiments', 'src': '/static/foodstim60/sushi w_condiments.jpg', 'key': 'i', 'origWidth': 410, 'origHeight': 410, 'width': 410, 'height': 410, 'widthPercent': 0.45, 'rescaleHeight': False, 'trialN': 76, 'loaded': True, 'loadedTime': 3866.199999999255, 'positionName': 'RIGHT', 'positionCoords': [832, 217.5], 'bid': 3.0500000000000003}]",138633.30000000075,1669831839664,baked potato,sushi w_condiments,4.97,3.0500000000000003,-1.9199999999999995,baked potato,1294.0,1297,1296.699999999255,True,u,140436.5,1803.199999999255,1669831841468,1804,HRV,HRV_0159,2022-11-30 18:13:30
77,"[{'imgObject': {}, 'id': 'fruitsalad', 'src': '/static/foodstim60/fruitsalad.jpg', 'key': 'u', 'origWidth': 410, 'origHeight': 410, 'width': 410, 'height': 410, 'widthPercent': 0.45, 'rescaleHeight': False, 'trialN': 77, 'loaded': True, 'loadedTime': 3121.199999999255, 'positionName': 'LEFT', 'positionCoords': [358, 217.5], 'bid': 4.98}, {'imgObject': {}, 'id': 'corn cob', 'src': '/static/foodstim60/corn cob.jpg', 'key': 'i', 'origWidth': 411, 'origHeight': 411, 'width': 411, 'height': 411, 'widthPercent': 0.45, 'rescaleHeight': False, 'trialN': 77, 'loaded': True, 'loadedTime': 3496.5, 'positionName': 'RIGHT', 'positionCoords': [832, 217], 'bid': 4.93}]",140437.1000000015,1669831841468,fruitsalad,corn cob,4.98,4.93,-0.05000000000000071,fruitsalad,1202.199999999255,1205,1205.0999999977648,True,u,142148.5,1711.3999999985099,1669831843180,1712,HRV,HRV_0159,2022-11-30 18:13:30
78,"[{'imgObject': {}, 'id': 'strawberries', 'src': '/static/foodstim60/strawberries.jpg', 'key': 'u', 'origWidth': 410, 'origHeight': 410, 'width': 410, 'height': 410, 'widthPercent': 0.45, 'rescaleHeight': False, 'trialN': 78, 'loaded': True, 'loadedTime': 3606.300000000745, 'positionName': 'LEFT', 'positionCoords': [358, 217.5], 'bid': 5.01}, {'imgObject': {}, 'id': 'chickenfingers', 'src': '/static/foodstim60/chickenfingers.jpg', 'key': 'i', 'origWidth': 410, 'origHeight': 410, 'width': 410, 'height': 410, 'widthPercent': 0.45, 'rescaleHeight': False, 'trialN': 78, 'loaded': True, 'loadedTime': 3725.199999999255, 'positionName': 'RIGHT', 'positionCoords': [832, 217.5], 'bid': 4.98}]",142149.30000000075,1669831843180,strawberries,chickenfingers,5.01,4.98,-0.02999999999999936,strawberries,995.0,997,997.0,True,u,143652.5,1503.199999999255,1669831844684,1504,HRV,HRV_0159,2022-11-30 18:13:30
79,"[{'imgObject': {}, 'id': 'raisin bran w milk', 'src': '/static/foodstim60/raisin bran w milk.jpg', 'key': 'u', 'origWidth': 411, 'origHeight': 411, 'width': 411, 'height': 411, 'widthPercent': 0.45, 'rescaleHeight': False, 'trialN': 79, 'loaded': True, 'loadedTime': 3502.800000000745, 'positionName': 'LEFT', 'positionCoords': [357, 217], 'bid': 4.93}, {'imgObject': {}, 'id': 'sushi w_condiments', 'src': '/static/foodstim60/sushi w_condiments.jpg', 'key': 'i', 'origWidth': 410, 'origHeight': 410, 'width': 410, 'height': 410, 'widthPercent': 0.45, 'rescaleHeight': False, 'trialN': 79, 'loaded': True, 'loadedTime': 3865.900000002235, 'positionName': 'RIGHT', 'positionCoords': [832, 217.5], 'bid': 3.0500000000000003}]",143653.1000000015,1669831844684,raisin bran w milk,sushi w_condiments,4.93,3.0500000000000003,-1.8799999999999994,raisin bran w milk,1108.199999999255,1110,1109.3999999985099,True,u,145268.6000000015,1615.5,1669831846300,1616,HRV,HRV_0159,2022-11-30 18:13:30
80,"[{'imgObject': {}, 'id': 'cocktailshrimp', 'src': '/static/foodstim60/cocktailshrimp.jpg', 'key': 'u', 'origWidth': 410, 'origHeight': 410, 'width': 410, 'height': 410, 'widthPercent': 0.45, 'rescaleHeight': False, 'trialN': 80, 'loaded': True, 'loadedTime': 3014.5, 'positionName': 'LEFT', 'positionCoords': [358, 217.5], 'bid': 4.42}, {'imgObject': {}, 'id': 'blueberries', 'src': '/static/foodstim60/blueberries.jpg', 'key': 'i', 'origWidth': 411, 'origHeight': 411, 'width': 411, 'height': 411, 'widthPercent': 0.45, 'rescaleHeight': False, 'trialN': 80, 'loaded': True, 'loadedTime': 3845.300000000745, 'positionName': 'RIGHT', 'positionCoords': [832, 217], 'bid': 4.98}]",145269.19999999925,1669831846300,cocktailshrimp,blueberries,4.42,4.98,0.5600000000000005,blueberries,1267.1000000014901,1270,1269.4000000022352,True,i,147044.6000000015,1775.4000000022352,1669831848076,1776,HRV,HRV_0159,2022-11-30 18:13:30
81,"[{'imgObject': {}, 'id': 'blackbeanswithrice', 'src': '/static/foodstim60/blackbeanswithrice.jpg', 'key': 'u', 'origWidth': 410, 'origHeight': 410, 'width': 410, 'height': 410, 'widthPercent': 0.45, 'rescaleHeight': False, 'trialN': 81, 'loaded': True, 'loadedTime': 3810.5, 'positionName': 'LEFT', 'positionCoords': [358, 217.5], 'bid': 4.96}, {'imgObject': {}, 'id': 'corn cob', 'src': '/static/foodstim60/corn cob.jpg', 'key': 'i', 'origWidth': 411, 'origHeight': 411, 'width': 411, 'height': 411, 'widthPercent': 0.45, 'rescaleHeight': False, 'trialN': 81, 'loaded': True, 'loadedTime': 3484.800000000745, 'positionName': 'RIGHT', 'positionCoords': [832, 217], 'bid': 4.93}]",147045.40000000224,1669831848077,blackbeanswithrice,corn cob,4.96,4.93,-0.03000000000000025,blackbeanswithrice,1474.8999999985099,1476,1476.7999999970198,True,u,149028.5,1983.0999999977648,1669831850060,1983,HRV,HRV_0159,2022-11-30 18:13:30
82,"[{'imgObject': {}, 'id': 'hashbrowns', 'src': '/static/foodstim60/hashbrowns.jpg', 'key': 'u', 'origWidth': 411, 'origHeight': 410, 'width': 411, 'height': 410, 'widthPercent': 0.45, 'rescaleHeight': False, 'trialN': 82, 'loaded': True, 'loadedTime': 3544.199999999255, 'positionName': 'LEFT', 'positionCoords': [357, 217.5], 'bid': 5.0600000000000005}, {'imgObject': {}, 'id': 'chickenfingers', 'src': '/static/foodstim60/chickenfingers.jpg', 'key': 'i', 'origWidth': 410, 'origHeight': 410, 'width': 410, 'height': 410, 'widthPercent': 0.45, 'rescaleHeight': False, 'trialN': 82, 'loaded': True, 'loadedTime': 3725.400000002235, 'positionName': 'RIGHT', 'positionCoords': [832, 217.5], 'bid': 4.98}]",149029.30000000075,1669831850060,hashbrowns,chickenfingers,5.0600000000000005,4.98,-0.08000000000000007,chickenfingers,1651.0,1653,1652.8999999985099,True,i,151188.6000000015,2159.300000000745,1669831852220,2160,HRV,HRV_0159,2022-11-30 18:13:30
83,"[{'imgObject': {}, 'id': 'avocado', 'src': '/static/foodstim60/avocado.jpg', 'key': 'u', 'origWidth': 409, 'origHeight': 409, 'width': 409, 'height': 409, 'widthPercent': 0.45, 'rescaleHeight': False, 'trialN': 83, 'loaded': True, 'loadedTime': 3264.900000002235, 'positionName': 'LEFT', 'positionCoords': [359, 218], 'bid': 4.98}, {'imgObject': {}, 'id': 'omelette', 'src': '/static/foodstim60/omelette.jpg', 'key': 'i', 'origWidth': 410, 'origHeight': 409, 'width': 410, 'height': 409, 'widthPercent': 0.45, 'rescaleHeight': False, 'trialN': 83, 'loaded': True, 'loadedTime': 3521.699999999255, 'positionName': 'RIGHT', 'positionCoords': [832, 218], 'bid': 5.03}]",151189.19999999925,1669831852220,avocado,omelette,4.98,5.03,0.04999999999999982,omelette,1251.1000000014901,1253,1252.6000000014901,True,i,152948.5,1759.300000000745,1669831853980,1760,HRV,HRV_0159,2022-11-30 18:13:30
84,"[{'imgObject': {}, 'id': 'steak', 'src': '/static/foodstim60/steak.jpg', 'key': 'u', 'origWidth': 410, 'origHeight': 410, 'width': 410, 'height': 410, 'widthPercent': 0.45, 'rescaleHeight': False, 'trialN': 84, 'loaded': True, 'loadedTime': 3709.400000002235, 'positionName': 'LEFT', 'positionCoords': [358, 217.5], 'bid': 4.93}, {'imgObject': {}, 'id': 'popsicles', 'src': '/static/foodstim60/popsicles.jpg', 'key': 'i', 'origWidth': 410, 'origHeight': 410, 'width': 410, 'height': 410, 'widthPercent': 0.45, 'rescaleHeight': False, 'trialN': 84, 'loaded': True, 'loadedTime': 3320.60000000149, 'positionName': 'RIGHT', 'positionCoords': [832, 217.5], 'bid': 4.3}]",152949.30000000075,1669831853980,steak,popsicles,4.93,4.3,-0.6299999999999999,steak,1764.0,1767,1766.199999999255,True,u,155220.6000000015,2271.300000000745,1669831856252,2272,HRV,HRV_0159,2022-11-30 18:13:30
85,"[{'imgObject': {}, 'id': 'cherry tomato', 'src': '/static/foodstim60/cherry tomato.jpg', 'key': 'u', 'origWidth': 410, 'origHeight': 410, 'width': 410, 'height': 410, 'widthPercent': 0.45, 'rescaleHeight': False, 'trialN': 85, 'loaded': True, 'loadedTime': 3826.60000000149, 'positionName': 'LEFT', 'positionCoords': [358, 217.5], 'bid': 4.98}, {'imgObject': {}, 'id': 'pear', 'src': '/static/foodstim60/pear.jpg', 'key': 'i', 'origWidth': 411, 'origHeight': 410, 'width': 411, 'height': 410, 'widthPercent': 0.45, 'rescaleHeight': False, 'trialN': 85, 'loaded': True, 'loadedTime': 3556.5, 'positionName': 'RIGHT', 'positionCoords': [832, 217.5], 'bid': 5.0200000000000005}]",155221.19999999925,1669831856252,cherry tomato,pear,4.98,5.0200000000000005,0.040000000000000036,pear,1443.1000000014901,1445,1444.800000000745,True,i,157172.5,1951.300000000745,1669831858204,1952,HRV,HRV_0159,2022-11-30 18:13:30
86,"[{'imgObject': {}, 'id': 'banana', 'src': '/static/foodstim60/banana.jpg', 'key': 'u', 'origWidth': 410, 'origHeight': 410, 'width': 410, 'height': 410, 'widthPercent': 0.45, 'rescaleHeight': False, 'trialN': 86, 'loaded': True, 'loadedTime': 3848.60000000149, 'positionName': 'LEFT', 'positionCoords': [358, 217.5], 'bid': 5.01}, {'imgObject': {}, 'id': 'hashbrowns', 'src': '/static/foodstim60/hashbrowns.jpg', 'key': 'i', 'origWidth': 411, 'origHeight': 410, 'width': 411, 'height': 410, 'widthPercent': 0.45, 'rescaleHeight': False, 'trialN': 86, 'loaded': True, 'loadedTime': 3537.800000000745, 'positionName': 'RIGHT', 'positionCoords': [832, 217.5], 'bid': 5.0600000000000005}]",157173.30000000075,1669831858204,banana,hashbrowns,5.01,5.0600000000000005,0.05000000000000071,banana,819.0,821,820.8000000007451,True,u,158500.5,1327.199999999255,1669831859532,1328,HRV,HRV_0159,2022-11-30 18:13:30
87,"[{'imgObject': {}, 'id': 'edamame', 'src': '/static/foodstim60/edamame.jpg', 'key': 'u', 'origWidth': 409, 'origHeight': 410, 'width': 409, 'height': 410, 'widthPercent': 0.45, 'rescaleHeight': False, 'trialN': 87, 'loaded': True, 'loadedTime': 3589.900000002235, 'positionName': 'LEFT', 'positionCoords': [359, 217.5], 'bid': 4.98}, {'imgObject': {}, 'id': 'cantaloupe', 'src': '/static/foodstim60/cantaloupe.jpg', 'key': 'i', 'origWidth': 409, 'origHeight': 409, 'width': 409, 'height': 409, 'widthPercent': 0.45, 'rescaleHeight': False, 'trialN': 87, 'loaded': True, 'loadedTime': 3309.300000000745, 'positionName': 'RIGHT', 'positionCoords': [832, 218], 'bid': 4.98}]",158501.0,1669831859532,edamame,cantaloupe,4.98,4.98,0.0,edamame,1523.300000000745,1525,1524.9000000022352,True,u,160532.6000000015,2031.6000000014901,1669831861564,2032,HRV,HRV_0159,2022-11-30 18:13:30
88,"[{'imgObject': {}, 'id': 'blueberries', 'src': '/static/foodstim60/blueberries.jpg', 'key': 'u', 'origWidth': 411, 'origHeight': 411, 'width': 411, 'height': 411, 'widthPercent': 0.45, 'rescaleHeight': False, 'trialN': 88, 'loaded': True, 'loadedTime': 3844.900000002235, 'positionName': 'LEFT', 'positionCoords': [357, 217], 'bid': 4.98}, {'imgObject': {}, 'id': 'grilled chicken strips', 'src': '/static/foodstim60/grilled chicken strips.jpg', 'key': 'i', 'origWidth': 410, 'origHeight': 411, 'width': 410, 'height': 411, 'widthPercent': 0.45, 'rescaleHeight': False, 'trialN': 88, 'loaded': True, 'loadedTime': 3435.5, 'positionName': 'RIGHT', 'positionCoords': [832, 217], 'bid': 4.98}]",160533.1000000015,1669831861564,blueberries,grilled chicken strips,4.98,4.98,0.0,blueberries,834.1999999992549,838,837.6999999992549,True,u,161876.5,1343.3999999985099,1669831862908,1344,HRV,HRV_0159,2022-11-30 18:13:30
89,"[{'imgObject': {}, 'id': 'olives', 'src': '/static/foodstim60/olives.jpg', 'key': 'u', 'origWidth': 410, 'origHeight': 410, 'width': 410, 'height': 410, 'widthPercent': 0.45, 'rescaleHeight': False, 'trialN': 89, 'loaded': True, 'loadedTime': 3050.699999999255, 'positionName': 'LEFT', 'positionCoords': [358, 217.5], 'bid': 4.43}, {'imgObject': {}, 'id': 'ice cream sundae 002', 'src': '/static/foodstim60/ice cream sundae 002.jpg', 'key': 'i', 'origWidth': 409, 'origHeight': 409, 'width': 409, 'height': 409, 'widthPercent': 0.45, 'rescaleHeight': False, 'trialN': 89, 'loaded': True, 'loadedTime': 2977.199999999255, 'positionName': 'RIGHT', 'positionCoords': [832, 218], 'bid': 4.41}]",161877.19999999925,1669831862908,olives,ice cream sundae 002,4.43,4.41,-0.019999999999999574,ice cream sundae 002,1347.1000000014901,1349,1348.7000000029802,True,i,163732.6000000015,1855.4000000022352,1669831864764,1856,HRV,HRV_0159,2022-11-30 18:13:30
90,"[{'imgObject': {}, 'id': 'mashed potato', 'src': '/static/foodstim60/mashed potato.jpg', 'key': 'u', 'origWidth': 409, 'origHeight': 409, 'width': 409, 'height': 409, 'widthPercent': 0.45, 'rescaleHeight': False, 'trialN': 90, 'loaded': True, 'loadedTime': 3622.5, 'positionName': 'LEFT', 'positionCoords': [359, 218], 'bid': 4.97}, {'imgObject': {}, 'id': 'chicken nuggets2', 'src': '/static/foodstim60/chicken nuggets2.jpg', 'key': 'i', 'origWidth': 410, 'origHeight': 409, 'width': 410, 'height': 409, 'widthPercent': 0.45, 'rescaleHeight': False, 'trialN': 90, 'loaded': True, 'loadedTime': 3418.800000000745, 'positionName': 'RIGHT', 'positionCoords': [832, 218], 'bid': 4.98}]",167220.80000000075,1669831868252,mashed potato,chicken nuggets2,4.97,4.98,0.010000000000000675,chicken nuggets2,1282.5,1287,1287.199999999255,True,i,169012.6000000015,1791.800000000745,1669831870044,1792,HRV,HRV_0159,2022-11-30 18:13:30
91,"[{'imgObject': {}, 'id': 'veggieswithdip', 'src': '/static/foodstim60/veggieswithdip.jpg', 'key': 'u', 'origWidth': 409, 'origHeight': 409, 'width': 409, 'height': 409, 'widthPercent': 0.45, 'rescaleHeight': False, 'trialN': 91, 'loaded': True, 'loadedTime': 3103.199999999255, 'positionName': 'LEFT', 'positionCoords': [359, 218], 'bid': 4.98}, {'imgObject': {}, 'id': 'raisin bran w milk', 'src': '/static/foodstim60/raisin bran w milk.jpg', 'key': 'i', 'origWidth': 411, 'origHeight': 411, 'width': 411, 'height': 411, 'widthPercent': 0.45, 'rescaleHeight': False, 'trialN': 91, 'loaded': True, 'loadedTime': 3508.300000000745, 'positionName': 'RIGHT', 'positionCoords': [832, 217], 'bid': 4.93}]",169013.40000000224,1669831870045,veggieswithdip,raisin bran w milk,4.98,4.93,-0.05000000000000071,veggieswithdip,1441.8999999985099,1444,1444.3999999985099,True,u,170964.6000000015,1951.199999999255,1669831871996,1951,HRV,HRV_0159,2022-11-30 18:13:30
92,"[{'imgObject': {}, 'id': 'Grapes', 'src': '/static/foodstim60/Grapes.jpg', 'key': 'u', 'origWidth': 411, 'origHeight': 411, 'width': 411, 'height': 411, 'widthPercent': 0.45, 'rescaleHeight': False, 'trialN': 92, 'loaded': True, 'loadedTime': 3903.60000000149, 'positionName': 'LEFT', 'positionCoords': [357, 217], 'bid': 4.98}, {'imgObject': {}, 'id': 'cherry tomato', 'src': '/static/foodstim60/cherry tomato.jpg', 'key': 'i', 'origWidth': 410, 'origHeight': 410, 'width': 410, 'height': 410, 'widthPercent': 0.45, 'rescaleHeight': False, 'trialN': 92, 'loaded': True, 'loadedTime': 3818.199999999255, 'positionName': 'RIGHT', 'positionCoords': [832, 217.5], 'bid': 4.98}]",170965.30000000075,1669831871996,Grapes,cherry tomato,4.98,4.98,0.0,Grapes,1330.0,1333,1332.800000000745,True,u,172804.6000000015,1839.300000000745,1669831873836,1840,HRV,HRV_0159,2022-11-30 18:13:30
93,"[{'imgObject': {}, 'id': 'roastedpotatoes', 'src': '/static/foodstim60/roastedpotatoes.jpg', 'key': 'u', 'origWidth': 409, 'origHeight': 410, 'width': 409, 'height': 410, 'widthPercent': 0.45, 'rescaleHeight': False, 'trialN': 93, 'loaded': True, 'loadedTime': 3738.10000000149, 'positionName': 'LEFT', 'positionCoords': [359, 217.5], 'bid': 4.98}, {'imgObject': {}, 'id': 'sweetpotato', 'src': '/static/foodstim60/sweetpotato.jpg', 'key': 'i', 'origWidth': 410, 'origHeight': 410, 'width': 410, 'height': 410, 'widthPercent': 0.45, 'rescaleHeight': False, 'trialN': 93, 'loaded': True, 'loadedTime': 3863, 'positionName': 'RIGHT', 'positionCoords': [832, 217.5], 'bid': 5.0200000000000005}]",172805.1000000015,1669831873836,roastedpotatoes,sweetpotato,4.98,5.0200000000000005,0.040000000000000036,roastedpotatoes,1267.199999999255,1269,1268.300000000745,True,u,174580.6000000015,1775.5,1669831875612,1776,HRV,HRV_0159,2022-11-30 18:13:30
94,"[{'imgObject': {}, 'id': 'corn cob', 'src': '/static/foodstim60/corn cob.jpg', 'key': 'u', 'origWidth': 411, 'origHeight': 411, 'width': 411, 'height': 411, 'widthPercent': 0.45, 'rescaleHeight': False, 'trialN': 94, 'loaded': True, 'loadedTime': 3497, 'positionName': 'LEFT', 'positionCoords': [357, 217], 'bid': 4.93}, {'imgObject': {}, 'id': 'burger', 'src': '/static/foodstim60/burger.jpg', 'key': 'i', 'origWidth': 409, 'origHeight': 409, 'width': 409, 'height': 409, 'widthPercent': 0.45, 'rescaleHeight': False, 'trialN': 94, 'loaded': True, 'loadedTime': 3408.699999999255, 'positionName': 'RIGHT', 'positionCoords': [832, 218], 'bid': 4.96}]",174581.30000000075,1669831875612,corn cob,burger,4.93,4.96,0.03000000000000025,corn cob,1059.0,1061,1060.699999999255,True,u,176148.5,1567.199999999255,1669831877180,1568,HRV,HRV_0159,2022-11-30 18:13:30
95,"[{'imgObject': {}, 'id': 'yogurt no spoon', 'src': '/static/foodstim60/yogurt no spoon.jpg', 'key': 'u', 'origWidth': 411, 'origHeight': 410, 'width': 411, 'height': 410, 'widthPercent': 0.45, 'rescaleHeight': False, 'trialN': 95, 'loaded': True, 'loadedTime': 3567.300000000745, 'positionName': 'LEFT', 'positionCoords': [357, 217.5], 'bid': 5}, {'imgObject': {}, 'id': 'bagel plain', 'src': '/static/foodstim60/bagel plain.jpg', 'key': 'i', 'origWidth': 410, 'origHeight': 410, 'width': 410, 'height': 410, 'widthPercent': 0.45, 'rescaleHeight': False, 'trialN': 95, 'loaded': True, 'loadedTime': 3879.900000002235, 'positionName': 'RIGHT', 'positionCoords': [832, 217.5], 'bid': 4.96}]",176149.0,1669831877180,yogurt no spoon,bagel plain,5.0,4.96,-0.040000000000000036,bagel plain,1379.300000000745,1381,1381.1000000014901,True,i,178036.5,1887.5,1669831879068,1888,HRV,HRV_0159,2022-11-30 18:13:30
96,"[{'imgObject': {}, 'id': 'cocktailshrimp', 'src': '/static/foodstim60/cocktailshrimp.jpg', 'key': 'u', 'origWidth': 410, 'origHeight': 410, 'width': 410, 'height': 410, 'widthPercent': 0.45, 'rescaleHeight': False, 'trialN': 96, 'loaded': True, 'loadedTime': 3026.300000000745, 'positionName': 'LEFT', 'positionCoords': [358, 217.5], 'bid': 4.42}, {'imgObject': {}, 'id': 'granola w milk', 'src': '/static/foodstim60/granola w milk.jpg', 'key': 'i', 'origWidth': 410, 'origHeight': 410, 'width': 410, 'height': 410, 'widthPercent': 0.45, 'rescaleHeight': False, 'trialN': 96, 'loaded': True, 'loadedTime': 3167.300000000745, 'positionName': 'RIGHT', 'positionCoords': [832, 217.5], 'bid': 4.96}]",178037.19999999925,1669831879068,cocktailshrimp,granola w milk,4.42,4.96,0.54,granola w milk,1315.1000000014901,1317,1316.5,True,i,179860.5,1823.300000000745,1669831880892,1824,HRV,HRV_0159,2022-11-30 18:13:30
97,"[{'imgObject': {}, 'id': 'Tribe humus pita', 'src': '/static/foodstim60/Tribe humus pita.jpg', 'key': 'u', 'origWidth': 411, 'origHeight': 411, 'width': 411, 'height': 411, 'widthPercent': 0.45, 'rescaleHeight': False, 'trialN': 97, 'loaded': True, 'loadedTime': 3669.60000000149, 'positionName': 'LEFT', 'positionCoords': [357, 217], 'bid': 4.98}, {'imgObject': {}, 'id': 'banana', 'src': '/static/foodstim60/banana.jpg', 'key': 'i', 'origWidth': 410, 'origHeight': 410, 'width': 410, 'height': 410, 'widthPercent': 0.45, 'rescaleHeight': False, 'trialN': 97, 'loaded': True, 'loadedTime': 3855, 'positionName': 'RIGHT', 'positionCoords': [832, 217.5], 'bid': 5.01}]",179860.90000000224,1669831880892,Tribe humus pita,banana,4.98,5.01,0.02999999999999936,banana,979.3999999985099,981,980.5999999977648,True,i,181348.6000000015,1487.699999999255,1669831882380,1488,HRV,HRV_0159,2022-11-30 18:13:30
98,"[{'imgObject': {}, 'id': 'baked potato', 'src': '/static/foodstim60/baked potato.jpg', 'key': 'u', 'origWidth': 409, 'origHeight': 410, 'width': 409, 'height': 410, 'widthPercent': 0.45, 'rescaleHeight': False, 'trialN': 98, 'loaded': True, 'loadedTime': 3902.300000000745, 'positionName': 'LEFT', 'positionCoords': [359, 217.5], 'bid': 4.97}, {'imgObject': {}, 'id': 'cherry tomato', 'src': '/static/foodstim60/cherry tomato.jpg', 'key': 'i', 'origWidth': 410, 'origHeight': 410, 'width': 410, 'height': 410, 'widthPercent': 0.45, 'rescaleHeight': False, 'trialN': 98, 'loaded': True, 'loadedTime': 3823.10000000149, 'positionName': 'RIGHT', 'positionCoords': [832, 217.5], 'bid': 4.98}]",181349.1000000015,1669831882380,baked potato,cherry tomato,4.97,4.98,0.010000000000000675,cherry tomato,1634.199999999255,1637,1636.699999999255,True,i,183492.6000000015,2143.5,1669831884524,2144,HRV,HRV_0159,2022-11-30 18:13:30
99,"[{'imgObject': {}, 'id': 'cantaloupe', 'src': '/static/foodstim60/cantaloupe.jpg', 'key': 'u', 'origWidth': 409, 'origHeight': 409, 'width': 409, 'height': 409, 'widthPercent': 0.45, 'rescaleHeight': False, 'trialN': 99, 'loaded': True, 'loadedTime': 3303, 'positionName': 'LEFT', 'positionCoords': [359, 218], 'bid': 4.98}, {'imgObject': {}, 'id': 'cheerios', 'src': '/static/foodstim60/cheerios.jpg', 'key': 'i', 'origWidth': 409, 'origHeight': 410, 'width': 409, 'height': 410, 'widthPercent': 0.45, 'rescaleHeight': False, 'trialN': 99, 'loaded': True, 'loadedTime': 3386.699999999255, 'positionName': 'RIGHT', 'positionCoords': [832, 217.5], 'bid': 4.98}]",183493.19999999925,1669831884524,cantaloupe,cheerios,4.98,4.98,0.0,cantaloupe,1219.1000000014901,1221,1220.2000000029802,True,u,185220.6000000015,1727.4000000022352,1669831886252,1728,HRV,HRV_0159,2022-11-30 18:13:30
100,"[{'imgObject': {}, 'id': 'hashbrowns', 'src': '/static/foodstim60/hashbrowns.jpg', 'key': 'u', 'origWidth': 411, 'origHeight': 410, 'width': 411, 'height': 410, 'widthPercent': 0.45, 'rescaleHeight': False, 'trialN': 100, 'loaded': True, 'loadedTime': 3546.800000000745, 'positionName': 'LEFT', 'positionCoords': [357, 217.5], 'bid': 5.0600000000000005}, {'imgObject': {}, 'id': 'orange slices', 'src': '/static/foodstim60/orange slices.jpg', 'key': 'i', 'origWidth': 409, 'origHeight': 410, 'width': 409, 'height': 410, 'widthPercent': 0.45, 'rescaleHeight': False, 'trialN': 100, 'loaded': True, 'loadedTime': 3753.400000002235, 'positionName': 'RIGHT', 'positionCoords': [832, 217.5], 'bid': 5.0200000000000005}]",185221.0,1669831886252,hashbrowns,orange slices,5.0600000000000005,5.0200000000000005,-0.040000000000000036,orange slices,851.3000000007451,853,852.6000000014901,True,i,186580.6000000015,1359.6000000014901,1669831887612,1360,HRV,HRV_0159,2022-11-30 18:13:30
101,"[{'imgObject': {}, 'id': 'lox', 'src': '/static/foodstim60/lox.jpg', 'key': 'u', 'origWidth': 410, 'origHeight': 411, 'width': 410, 'height': 411, 'widthPercent': 0.45, 'rescaleHeight': False, 'trialN': 101, 'loaded': True, 'loadedTime': 3712.699999999255, 'positionName': 'LEFT', 'positionCoords': [358, 217], 'bid': 4.5600000000000005}, {'imgObject': {}, 'id': 'eggs', 'src': '/static/foodstim60/eggs.jpg', 'key': 'i', 'origWidth': 409, 'origHeight': 409, 'width': 409, 'height': 409, 'widthPercent': 0.45, 'rescaleHeight': False, 'trialN': 101, 'loaded': True, 'loadedTime': 3153.699999999255, 'positionName': 'RIGHT', 'positionCoords': [832, 218], 'bid': 4.96}]",186581.0,1669831887612,lox,eggs,4.5600000000000005,4.96,0.39999999999999947,eggs,883.3000000007451,885,884.9000000022352,True,i,187972.5,1391.5,1669831889004,1392,HRV,HRV_0159,2022-11-30 18:13:30
102,"[{'imgObject': {}, 'id': 'orange slices', 'src': '/static/foodstim60/orange slices.jpg', 'key': 'u', 'origWidth': 409, 'origHeight': 410, 'width': 409, 'height': 410, 'widthPercent': 0.45, 'rescaleHeight': False, 'trialN': 102, 'loaded': True, 'loadedTime': 3768, 'positionName': 'LEFT', 'positionCoords': [359, 217.5], 'bid': 5.0200000000000005}, {'imgObject': {}, 'id': 'fruitsalad', 'src': '/static/foodstim60/fruitsalad.jpg', 'key': 'i', 'origWidth': 410, 'origHeight': 410, 'width': 410, 'height': 410, 'widthPercent': 0.45, 'rescaleHeight': False, 'trialN': 102, 'loaded': True, 'loadedTime': 3134.199999999255, 'positionName': 'RIGHT', 'positionCoords': [832, 217.5], 'bid': 4.98}]",187973.40000000224,1669831889004,orange slices,fruitsalad,5.0200000000000005,4.98,-0.040000000000000036,fruitsalad,754.8999999985099,757,756.2999999970198,True,i,189236.90000000224,1263.5,1669831890268,1264,HRV,HRV_0159,2022-11-30 18:13:30
103,"[{'imgObject': {}, 'id': 'Grapes', 'src': '/static/foodstim60/Grapes.jpg', 'key': 'u', 'origWidth': 411, 'origHeight': 411, 'width': 411, 'height': 411, 'widthPercent': 0.45, 'rescaleHeight': False, 'trialN': 103, 'loaded': True, 'loadedTime': 3902.60000000149, 'positionName': 'LEFT', 'positionCoords': [357, 217], 'bid': 4.98}, {'imgObject': {}, 'id': 'roastedpotatoes', 'src': '/static/foodstim60/roastedpotatoes.jpg', 'key': 'i', 'origWidth': 409, 'origHeight': 410, 'width': 409, 'height': 410, 'widthPercent': 0.45, 'rescaleHeight': False, 'trialN': 103, 'loaded': True, 'loadedTime': 3730.199999999255, 'positionName': 'RIGHT', 'positionCoords': [832, 217.5], 'bid': 4.98}]",189237.40000000224,1669831890269,Grapes,roastedpotatoes,4.98,4.98,0.0,Grapes,946.8999999985099,948,948.2999999970198,True,u,190692.6000000015,1455.199999999255,1669831891724,1455,HRV,HRV_0159,2022-11-30 18:13:30
104,"[{'imgObject': {}, 'id': 'turkey sandwich', 'src': '/static/foodstim60/turkey sandwich.jpg', 'key': 'u', 'origWidth': 409, 'origHeight': 409, 'width': 409, 'height': 409, 'widthPercent': 0.45, 'rescaleHeight': False, 'trialN': 104, 'loaded': True, 'loadedTime': 3479.5, 'positionName': 'LEFT', 'positionCoords': [359, 218], 'bid': 4.96}, {'imgObject': {}, 'id': 'cheerios', 'src': '/static/foodstim60/cheerios.jpg', 'key': 'i', 'origWidth': 409, 'origHeight': 410, 'width': 409, 'height': 410, 'widthPercent': 0.45, 'rescaleHeight': False, 'trialN': 104, 'loaded': True, 'loadedTime': 3380, 'positionName': 'RIGHT', 'positionCoords': [832, 217.5], 'bid': 4.98}]",190693.30000000075,1669831891724,turkey sandwich,cheerios,4.96,4.98,0.020000000000000462,cheerios,1971.0,1973,1972.300000000745,True,i,193172.5,2479.199999999255,1669831894204,2480,HRV,HRV_0159,2022-11-30 18:13:30
105,"[{'imgObject': {}, 'id': 'rigatoni and sauce', 'src': '/static/foodstim60/rigatoni and sauce.jpg', 'key': 'u', 'origWidth': 410, 'origHeight': 411, 'width': 410, 'height': 411, 'widthPercent': 0.45, 'rescaleHeight': False, 'trialN': 105, 'loaded': True, 'loadedTime': 3789, 'positionName': 'LEFT', 'positionCoords': [358, 217], 'bid': 4.98}, {'imgObject': {}, 'id': 'strawberries', 'src': '/static/foodstim60/strawberries.jpg', 'key': 'i', 'origWidth': 410, 'origHeight': 410, 'width': 410, 'height': 410, 'widthPercent': 0.45, 'rescaleHeight': False, 'trialN': 105, 'loaded': True, 'loadedTime': 3600.900000002235, 'positionName': 'RIGHT', 'positionCoords': [832, 217.5], 'bid': 5.01}]",193173.1000000015,1669831894204,rigatoni and sauce,strawberries,4.98,5.01,0.02999999999999936,strawberries,899.1999999992549,901,900.8999999985099,True,i,194580.5,1407.3999999985099,1669831895612,1408,HRV,HRV_0159,2022-11-30 18:13:30
106,"[{'imgObject': {}, 'id': 'rigatoni and sauce', 'src': '/static/foodstim60/rigatoni and sauce.jpg', 'key': 'u', 'origWidth': 410, 'origHeight': 411, 'width': 410, 'height': 411, 'widthPercent': 0.45, 'rescaleHeight': False, 'trialN': 106, 'loaded': True, 'loadedTime': 3786, 'positionName': 'LEFT', 'positionCoords': [358, 217], 'bid': 4.98}, {'imgObject': {}, 'id': 'yogurt no spoon', 'src': '/static/foodstim60/yogurt no spoon.jpg', 'key': 'i', 'origWidth': 411, 'origHeight': 410, 'width': 411, 'height': 410, 'widthPercent': 0.45, 'rescaleHeight': False, 'trialN': 106, 'loaded': True, 'loadedTime': 3569.800000000745, 'positionName': 'RIGHT', 'positionCoords': [832, 217.5], 'bid': 5}]",194581.0,1669831895612,rigatoni and sauce,yogurt no spoon,4.98,5.0,0.019999999999999574,rigatoni and sauce,1267.300000000745,1269,1268.9000000022352,True,u,196356.80000000075,1775.800000000745,1669831897388,1776,HRV,HRV_0159,2022-11-30 18:13:30
107,"[{'imgObject': {}, 'id': 'shreddedwheatwithmilk', 'src': '/static/foodstim60/shreddedwheatwithmilk.jpg', 'key': 'u', 'origWidth': 410, 'origHeight': 410, 'width': 410, 'height': 410, 'widthPercent': 0.45, 'rescaleHeight': False, 'trialN': 107, 'loaded': True, 'loadedTime': 3608.60000000149, 'positionName': 'LEFT', 'positionCoords': [358, 217.5], 'bid': 4.96}, {'imgObject': {}, 'id': 'tacos', 'src': '/static/foodstim60/tacos.jpg', 'key': 'i', 'origWidth': 411, 'origHeight': 411, 'width': 411, 'height': 411, 'widthPercent': 0.45, 'rescaleHeight': False, 'trialN': 107, 'loaded': True, 'loadedTime': 3214.10000000149, 'positionName': 'RIGHT', 'positionCoords': [832, 217], 'bid': 4.95}]",196357.69999999925,1669831897389,shreddedwheatwithmilk,tacos,4.96,4.95,-0.009999999999999787,tacos,1137.6000000014901,1140,1140.2000000029802,True,i,198004.6000000015,1646.9000000022352,1669831899036,1647,HRV,HRV_0159,2022-11-30 18:13:30
108,"[{'imgObject': {}, 'id': 'steak', 'src': '/static/foodstim60/steak.jpg', 'key': 'u', 'origWidth': 410, 'origHeight': 410, 'width': 410, 'height': 410, 'widthPercent': 0.45, 'rescaleHeight': False, 'trialN': 108, 'loaded': True, 'loadedTime': 3712.5, 'positionName': 'LEFT', 'positionCoords': [358, 217.5], 'bid': 4.93}, {'imgObject': {}, 'id': 'mango', 'src': '/static/foodstim60/mango.jpg', 'key': 'i', 'origWidth': 411, 'origHeight': 411, 'width': 411, 'height': 411, 'widthPercent': 0.45, 'rescaleHeight': False, 'trialN': 108, 'loaded': True, 'loadedTime': 3198.60000000149, 'positionName': 'RIGHT', 'positionCoords': [832, 217], 'bid': 4.96}]",198005.0,1669831899036,steak,mango,4.93,4.96,0.03000000000000025,steak,722.3000000007451,725,724.9000000022352,True,u,199236.6000000015,1231.6000000014901,1669831900268,1232,HRV,HRV_0159,2022-11-30 18:13:30
109,"[{'imgObject': {}, 'id': 'steak', 'src': '/static/foodstim60/steak.jpg', 'key': 'u', 'origWidth': 410, 'origHeight': 410, 'width': 410, 'height': 410, 'widthPercent': 0.45, 'rescaleHeight': False, 'trialN': 109, 'loaded': True, 'loadedTime': 3690.400000002235, 'positionName': 'LEFT', 'positionCoords': [358, 217.5], 'bid': 4.93}, {'imgObject': {}, 'id': 'salad w chicken', 'src': '/static/foodstim60/salad w chicken.jpg', 'key': 'i', 'origWidth': 411, 'origHeight': 411, 'width': 411, 'height': 411, 'widthPercent': 0.45, 'rescaleHeight': False, 'trialN': 109, 'loaded': True, 'loadedTime': 3833.60000000149, 'positionName': 'RIGHT', 'positionCoords': [832, 217], 'bid': 4.96}]",199236.90000000224,1669831900268,steak,salad w chicken,4.93,4.96,0.03000000000000025,steak,611.3999999985099,613,613.0999999977648,True,u,200356.6000000015,1119.699999999255,1669831901388,1120,HRV,HRV_0159,2022-11-30 18:13:30
