trialN,stimuli,trialStartTime,trialStartTime_UNIX,stimulus1,stimulus2,stimulus1Bid,stimulus2Bid,delta,selected,rt,rt_UNIX,rt_perfnow,receivedResponse,rsp,trialEndTime,trialDuration,trialEndTime_UNIX,trialDuration_UNIX,exp,subjectId,date
0,"[{'imgObject': {}, 'id': 'burger', 'src': '/static/foodstim60/burger.jpg', 'key': 'u', 'origWidth': 409, 'origHeight': 409, 'width': 409, 'height': 409, 'widthPercent': 0.45, 'rescaleHeight': False, 'trialN': 0, 'loaded': True, 'loadedTime': 3157.2000000029802, 'positionName': 'LEFT', 'positionCoords': [205.4, 195.5], 'bid': 5.34}, {'imgObject': {}, 'id': 'baked potato', 'src': '/static/foodstim60/baked potato.jpg', 'key': 'i', 'origWidth': 409, 'origHeight': 410, 'width': 409, 'height': 410, 'widthPercent': 0.45, 'rescaleHeight': False, 'trialN': 0, 'loaded': True, 'loadedTime': 2990, 'positionName': 'RIGHT', 'positionCoords': [665.6, 195], 'bid': 7.43}]",2894.0,1669830647085,burger,baked potato,5.34,7.43,2.09,baked potato,1402.7000000029802,1425,1424.3999999985099,True,i,4819.39999999851,1925.3999999985099,1669830649010,1925,HRV,HRV_0138,2022-11-30 17:56:41
1,"[{'imgObject': {}, 'id': 'turkey sandwich', 'src': '/static/foodstim60/turkey sandwich.jpg', 'key': 'u', 'origWidth': 409, 'origHeight': 409, 'width': 409, 'height': 409, 'widthPercent': 0.45, 'rescaleHeight': False, 'trialN': 1, 'loaded': True, 'loadedTime': 4828.10000000149, 'positionName': 'LEFT', 'positionCoords': [205.4, 195.5], 'bid': 5.34}, {'imgObject': {}, 'id': 'mac & cheese', 'src': '/static/foodstim60/mac & cheese.jpg', 'key': 'i', 'origWidth': 410, 'origHeight': 410, 'width': 410, 'height': 410, 'widthPercent': 0.45, 'rescaleHeight': False, 'trialN': 1, 'loaded': True, 'loadedTime': 4828.5, 'positionName': 'RIGHT', 'positionCoords': [665.6, 195], 'bid': 9.79}]",4820.10000000149,1669830649011,turkey sandwich,mac & cheese,5.34,9.79,4.449999999999999,mac & cheese,727.7000000029802,731,730.3999999985099,True,i,6050.70000000298,1230.6000000014901,1669830650242,1231,HRV,HRV_0138,2022-11-30 17:56:41
2,"[{'imgObject': {}, 'id': 'cantaloupe', 'src': '/static/foodstim60/cantaloupe.jpg', 'key': 'u', 'origWidth': 409, 'origHeight': 409, 'width': 409, 'height': 409, 'widthPercent': 0.45, 'rescaleHeight': False, 'trialN': 2, 'loaded': True, 'loadedTime': 6055.30000000447, 'positionName': 'LEFT', 'positionCoords': [205.4, 195.5], 'bid': 0.73}, {'imgObject': {}, 'id': 'granola w milk', 'src': '/static/foodstim60/granola w milk.jpg', 'key': 'i', 'origWidth': 410, 'origHeight': 410, 'width': 410, 'height': 410, 'widthPercent': 0.45, 'rescaleHeight': False, 'trialN': 2, 'loaded': True, 'loadedTime': 6055.70000000298, 'positionName': 'RIGHT', 'positionCoords': [665.6, 195], 'bid': 5.96}]",6051.20000000298,1669830650242,cantaloupe,granola w milk,0.73,5.96,5.23,granola w milk,987.6000000014901,991,990.8999999985099,True,i,7545.39999999851,1494.1999999955297,1669830651737,1495,HRV,HRV_0138,2022-11-30 17:56:41
3,"[{'imgObject': {}, 'id': 'granola w milk', 'src': '/static/foodstim60/granola w milk.jpg', 'key': 'u', 'origWidth': 410, 'origHeight': 410, 'width': 410, 'height': 410, 'widthPercent': 0.45, 'rescaleHeight': False, 'trialN': 3, 'loaded': True, 'loadedTime': 7548.30000000447, 'positionName': 'LEFT', 'positionCoords': [204.4, 195], 'bid': 5.96}, {'imgObject': {}, 'id': 'eggs', 'src': '/static/foodstim60/eggs.jpg', 'key': 'i', 'origWidth': 409, 'origHeight': 409, 'width': 409, 'height': 409, 'widthPercent': 0.45, 'rescaleHeight': False, 'trialN': 3, 'loaded': True, 'loadedTime': 7548.39999999851, 'positionName': 'RIGHT', 'positionCoords': [665.6, 195.5], 'bid': 5.23}]",7545.89999999851,1669830651737,granola w milk,eggs,5.96,5.23,-0.7299999999999995,granola w milk,983.6000000014901,987,986.6000000014901,True,u,9033.39999999851,1487.5,1669830653225,1488,HRV,HRV_0138,2022-11-30 17:56:41
4,"[{'imgObject': {}, 'id': 'steak', 'src': '/static/foodstim60/steak.jpg', 'key': 'u', 'origWidth': 410, 'origHeight': 410, 'width': 410, 'height': 410, 'widthPercent': 0.45, 'rescaleHeight': False, 'trialN': 4, 'loaded': True, 'loadedTime': 9038.30000000447, 'positionName': 'LEFT', 'positionCoords': [204.4, 195], 'bid': 8.5}, {'imgObject': {}, 'id': 'hotdog w must', 'src': '/static/foodstim60/hotdog w must.jpg', 'key': 'i', 'origWidth': 409, 'origHeight': 409, 'width': 409, 'height': 409, 'widthPercent': 0.45, 'rescaleHeight': False, 'trialN': 4, 'loaded': True, 'loadedTime': 9038.70000000298, 'positionName': 'RIGHT', 'positionCoords': [665.6, 195.5], 'bid': 7.09}]",9034.10000000149,1669830653225,steak,hotdog w must,8.5,7.09,-1.4100000000000001,steak,883.5,888,887.2999999970198,True,u,10421.80000000447,1387.7000000029802,1669830654613,1388,HRV,HRV_0138,2022-11-30 17:56:41
5,"[{'imgObject': {}, 'id': 'orange slices', 'src': '/static/foodstim60/orange slices.jpg', 'key': 'u', 'origWidth': 409, 'origHeight': 410, 'width': 409, 'height': 410, 'widthPercent': 0.45, 'rescaleHeight': False, 'trialN': 5, 'loaded': True, 'loadedTime': 10426.80000000447, 'positionName': 'LEFT', 'positionCoords': [205.4, 195], 'bid': 8.09}, {'imgObject': {}, 'id': 'bagel and cc', 'src': '/static/foodstim60/bagel and cc.jpg', 'key': 'i', 'origWidth': 410, 'origHeight': 410, 'width': 410, 'height': 410, 'widthPercent': 0.45, 'rescaleHeight': False, 'trialN': 5, 'loaded': True, 'loadedTime': 10427.39999999851, 'positionName': 'RIGHT', 'positionCoords': [665.6, 195], 'bid': 7.930000000000001}]",10422.39999999851,1669830654614,orange slices,bagel and cc,8.09,7.930000000000001,-0.15999999999999925,orange slices,1362.9000000059605,1366,1365.8000000044703,True,u,12290.20000000298,1867.8000000044703,1669830656481,1867,HRV,HRV_0138,2022-11-30 17:56:41
6,"[{'imgObject': {}, 'id': 'mashed potato', 'src': '/static/foodstim60/mashed potato.jpg', 'key': 'u', 'origWidth': 409, 'origHeight': 409, 'width': 409, 'height': 409, 'widthPercent': 0.45, 'rescaleHeight': False, 'trialN': 6, 'loaded': True, 'loadedTime': 12294.89999999851, 'positionName': 'LEFT', 'positionCoords': [205.4, 195.5], 'bid': 6.21}, {'imgObject': {}, 'id': 'cherries', 'src': '/static/foodstim60/cherries.jpg', 'key': 'i', 'origWidth': 410, 'origHeight': 411, 'width': 410, 'height': 411, 'widthPercent': 0.45, 'rescaleHeight': False, 'trialN': 6, 'loaded': True, 'loadedTime': 12295.10000000149, 'positionName': 'RIGHT', 'positionCoords': [665.6, 194.5], 'bid': 0.81}]",12290.80000000447,1669830656482,mashed potato,cherries,6.21,0.81,-5.4,mashed potato,1665.5999999940395,1670,1669.6999999955297,True,u,14460.89999999851,2170.0999999940395,1669830658652,2170,HRV,HRV_0138,2022-11-30 17:56:41
7,"[{'imgObject': {}, 'id': 'raisin bran w milk', 'src': '/static/foodstim60/raisin bran w milk.jpg', 'key': 'u', 'origWidth': 411, 'origHeight': 411, 'width': 411, 'height': 411, 'widthPercent': 0.45, 'rescaleHeight': False, 'trialN': 7, 'loaded': True, 'loadedTime': 14464.39999999851, 'positionName': 'LEFT', 'positionCoords': [203.4, 194.5], 'bid': 6.95}, {'imgObject': {}, 'id': 'mashed potato', 'src': '/static/foodstim60/mashed potato.jpg', 'key': 'i', 'origWidth': 409, 'origHeight': 409, 'width': 409, 'height': 409, 'widthPercent': 0.45, 'rescaleHeight': False, 'trialN': 7, 'loaded': True, 'loadedTime': 14464.60000000149, 'positionName': 'RIGHT', 'positionCoords': [665.6, 195.5], 'bid': 6.21}]",14461.30000000447,1669830658653,raisin bran w milk,mashed potato,6.95,6.21,-0.7400000000000002,raisin bran w milk,1423.8999999985099,1428,1428.1999999955297,True,u,16393.39999999851,1932.0999999940395,1669830660585,1932,HRV,HRV_0138,2022-11-30 17:56:41
8,"[{'imgObject': {}, 'id': 'raspberries', 'src': '/static/foodstim60/raspberries.jpg', 'key': 'u', 'origWidth': 411, 'origHeight': 411, 'width': 411, 'height': 411, 'widthPercent': 0.45, 'rescaleHeight': False, 'trialN': 8, 'loaded': True, 'loadedTime': 16398.5, 'positionName': 'LEFT', 'positionCoords': [203.4, 194.5], 'bid': 2.09}, {'imgObject': {}, 'id': 'mango', 'src': '/static/foodstim60/mango.jpg', 'key': 'i', 'origWidth': 411, 'origHeight': 411, 'width': 411, 'height': 411, 'widthPercent': 0.45, 'rescaleHeight': False, 'trialN': 8, 'loaded': True, 'loadedTime': 16398.80000000447, 'positionName': 'RIGHT', 'positionCoords': [665.6, 194.5], 'bid': 2.85}]",16394.10000000149,1669830660586,raspberries,mango,2.09,2.85,0.7600000000000002,raspberries,1240,1242,1242.2000000029802,True,u,18140.30000000447,1746.2000000029802,1669830662332,1746,HRV,HRV_0138,2022-11-30 17:56:41
9,"[{'imgObject': {}, 'id': 'avocado', 'src': '/static/foodstim60/avocado.jpg', 'key': 'u', 'origWidth': 409, 'origHeight': 409, 'width': 409, 'height': 409, 'widthPercent': 0.45, 'rescaleHeight': False, 'trialN': 9, 'loaded': True, 'loadedTime': 18145.5, 'positionName': 'LEFT', 'positionCoords': [205.4, 195.5], 'bid': 0.64}, {'imgObject': {}, 'id': 'Tribe humus pita', 'src': '/static/foodstim60/Tribe humus pita.jpg', 'key': 'i', 'origWidth': 411, 'origHeight': 411, 'width': 411, 'height': 411, 'widthPercent': 0.45, 'rescaleHeight': False, 'trialN': 9, 'loaded': True, 'loadedTime': 18145.89999999851, 'positionName': 'RIGHT', 'positionCoords': [665.6, 194.5], 'bid': 1.53}]",18140.89999999851,1669830662332,avocado,Tribe humus pita,0.64,1.53,0.89,Tribe humus pita,1518.1000000014901,1522,1521.2000000029802,True,i,20162.70000000298,2021.8000000044703,1669830664354,2022,HRV,HRV_0138,2022-11-30 17:56:41
10,"[{'imgObject': {}, 'id': 'tacos', 'src': '/static/foodstim60/tacos.jpg', 'key': 'u', 'origWidth': 411, 'origHeight': 411, 'width': 411, 'height': 411, 'widthPercent': 0.45, 'rescaleHeight': False, 'trialN': 10, 'loaded': True, 'loadedTime': 20167.30000000447, 'positionName': 'LEFT', 'positionCoords': [203.4, 194.5], 'bid': 4.9}, {'imgObject': {}, 'id': 'hashbrowns', 'src': '/static/foodstim60/hashbrowns.jpg', 'key': 'i', 'origWidth': 411, 'origHeight': 410, 'width': 411, 'height': 410, 'widthPercent': 0.45, 'rescaleHeight': False, 'trialN': 10, 'loaded': True, 'loadedTime': 20167.80000000447, 'positionName': 'RIGHT', 'positionCoords': [665.6, 195], 'bid': 4.54}]",20163.60000000149,1669830664355,tacos,hashbrowns,4.9,4.54,-0.3600000000000003,hashbrowns,1131.1000000014901,1133,1133.2000000029802,True,i,21802.0,1638.3999999985099,1669830665994,1639,HRV,HRV_0138,2022-11-30 17:56:41
11,"[{'imgObject': {}, 'id': 'sweetpotato', 'src': '/static/foodstim60/sweetpotato.jpg', 'key': 'u', 'origWidth': 410, 'origHeight': 410, 'width': 410, 'height': 410, 'widthPercent': 0.45, 'rescaleHeight': False, 'trialN': 11, 'loaded': True, 'loadedTime': 21806.89999999851, 'positionName': 'LEFT', 'positionCoords': [204.4, 195], 'bid': 0.93}, {'imgObject': {}, 'id': 'salad w chicken', 'src': '/static/foodstim60/salad w chicken.jpg', 'key': 'i', 'origWidth': 411, 'origHeight': 411, 'width': 411, 'height': 411, 'widthPercent': 0.45, 'rescaleHeight': False, 'trialN': 11, 'loaded': True, 'loadedTime': 21807.10000000149, 'positionName': 'RIGHT', 'positionCoords': [665.6, 194.5], 'bid': 3.6}]",21802.5,1669830665994,sweetpotato,salad w chicken,0.93,3.6,2.67,salad w chicken,853.3000000044703,858,857.6000000014901,True,i,23160.30000000447,1357.8000000044703,1669830667352,1358,HRV,HRV_0138,2022-11-30 17:56:41
12,"[{'imgObject': {}, 'id': 'cocktailshrimp', 'src': '/static/foodstim60/cocktailshrimp.jpg', 'key': 'u', 'origWidth': 410, 'origHeight': 410, 'width': 410, 'height': 410, 'widthPercent': 0.45, 'rescaleHeight': False, 'trialN': 12, 'loaded': True, 'loadedTime': 23165.39999999851, 'positionName': 'LEFT', 'positionCoords': [204.4, 195], 'bid': 0.25}, {'imgObject': {}, 'id': 'seaweed', 'src': '/static/foodstim60/seaweed.jpg', 'key': 'i', 'origWidth': 410, 'origHeight': 410, 'width': 410, 'height': 410, 'widthPercent': 0.45, 'rescaleHeight': False, 'trialN': 12, 'loaded': True, 'loadedTime': 23165.60000000149, 'positionName': 'RIGHT', 'positionCoords': [665.6, 195], 'bid': 0.28}]",23160.89999999851,1669830667353,cocktailshrimp,seaweed,0.25,0.28,0.030000000000000027,cocktailshrimp,1429.9000000059605,1433,1433.1000000014901,True,u,25095.20000000298,1934.3000000044703,1669830669287,1934,HRV,HRV_0138,2022-11-30 17:56:41
13,"[{'imgObject': {}, 'id': 'froot loops w milk', 'src': '/static/foodstim60/froot loops w milk.jpg', 'key': 'u', 'origWidth': 410, 'origHeight': 410, 'width': 410, 'height': 410, 'widthPercent': 0.45, 'rescaleHeight': False, 'trialN': 13, 'loaded': True, 'loadedTime': 25098.39999999851, 'positionName': 'LEFT', 'positionCoords': [204.4, 195], 'bid': 5.1000000000000005}, {'imgObject': {}, 'id': 'omelette', 'src': '/static/foodstim60/omelette.jpg', 'key': 'i', 'origWidth': 410, 'origHeight': 409, 'width': 410, 'height': 409, 'widthPercent': 0.45, 'rescaleHeight': False, 'trialN': 13, 'loaded': True, 'loadedTime': 25098.80000000447, 'positionName': 'RIGHT', 'positionCoords': [665.6, 195.5], 'bid': 5.23}]",25095.5,1669830669287,froot loops w milk,omelette,5.1000000000000005,5.23,0.1299999999999999,NaN,NaN,NaN,,False,NaN,29102.20000000298,4006.7000000029802,1669830673295,4008,HRV,HRV_0138,2022-11-30 17:56:41
14,"[{'imgObject': {}, 'id': 'ice cream sundae 002', 'src': '/static/foodstim60/ice cream sundae 002.jpg', 'key': 'u', 'origWidth': 409, 'origHeight': 409, 'width': 409, 'height': 409, 'widthPercent': 0.45, 'rescaleHeight': False, 'trialN': 14, 'loaded': True, 'loadedTime': 29106.5, 'positionName': 'LEFT', 'positionCoords': [205.4, 195.5], 'bid': 3.35}, {'imgObject': {}, 'id': 'salad w chicken', 'src': '/static/foodstim60/salad w chicken.jpg', 'key': 'i', 'origWidth': 411, 'origHeight': 411, 'width': 411, 'height': 411, 'widthPercent': 0.45, 'rescaleHeight': False, 'trialN': 14, 'loaded': True, 'loadedTime': 29107.20000000298, 'positionName': 'RIGHT', 'positionCoords': [665.6, 194.5], 'bid': 3.6}]",29102.80000000447,1669830673295,ice cream sundae 002,salad w chicken,3.35,3.6,0.25,salad w chicken,923.5999999940395,928,926.6999999955297,True,i,30534.60000000149,1431.7999999970198,1669830674728,1433,HRV,HRV_0138,2022-11-30 17:56:41
15,"[{'imgObject': {}, 'id': 'mac & cheese', 'src': '/static/foodstim60/mac & cheese.jpg', 'key': 'u', 'origWidth': 410, 'origHeight': 410, 'width': 410, 'height': 410, 'widthPercent': 0.45, 'rescaleHeight': False, 'trialN': 15, 'loaded': True, 'loadedTime': 30539.39999999851, 'positionName': 'LEFT', 'positionCoords': [204.4, 195], 'bid': 9.79}, {'imgObject': {}, 'id': 'burrito', 'src': '/static/foodstim60/burrito.jpg', 'key': 'i', 'origWidth': 410, 'origHeight': 410, 'width': 410, 'height': 410, 'widthPercent': 0.45, 'rescaleHeight': False, 'trialN': 15, 'loaded': True, 'loadedTime': 30539.89999999851, 'positionName': 'RIGHT', 'positionCoords': [665.6, 195], 'bid': 8.73}]",30535.30000000447,1669830674729,mac & cheese,burrito,9.79,8.73,-1.0599999999999987,mac & cheese,998.7999999970198,1024,1023.2999999970198,True,u,32061.89999999851,1526.5999999940395,1669830676257,1528,HRV,HRV_0138,2022-11-30 17:56:41
16,"[{'imgObject': {}, 'id': 'veggieswithdip', 'src': '/static/foodstim60/veggieswithdip.jpg', 'key': 'u', 'origWidth': 409, 'origHeight': 409, 'width': 409, 'height': 409, 'widthPercent': 0.45, 'rescaleHeight': False, 'trialN': 16, 'loaded': True, 'loadedTime': 32065.20000000298, 'positionName': 'LEFT', 'positionCoords': [205.4, 195.5], 'bid': 0.71}, {'imgObject': {}, 'id': 'mango', 'src': '/static/foodstim60/mango.jpg', 'key': 'i', 'origWidth': 411, 'origHeight': 411, 'width': 411, 'height': 411, 'widthPercent': 0.45, 'rescaleHeight': False, 'trialN': 16, 'loaded': True, 'loadedTime': 32065.39999999851, 'positionName': 'RIGHT', 'positionCoords': [665.6, 194.5], 'bid': 2.85}]",32062.30000000447,1669830676257,veggieswithdip,mango,0.71,2.85,2.14,mango,980.8999999985099,985,983.7999999970198,True,i,33546.5,1484.1999999955297,1669830677742,1485,HRV,HRV_0138,2022-11-30 17:56:41
17,"[{'imgObject': {}, 'id': 'sweetpotato', 'src': '/static/foodstim60/sweetpotato.jpg', 'key': 'u', 'origWidth': 410, 'origHeight': 410, 'width': 410, 'height': 410, 'widthPercent': 0.45, 'rescaleHeight': False, 'trialN': 17, 'loaded': True, 'loadedTime': 33551.20000000298, 'positionName': 'LEFT', 'positionCoords': [204.4, 195], 'bid': 0.93}, {'imgObject': {}, 'id': 'avocado', 'src': '/static/foodstim60/avocado.jpg', 'key': 'i', 'origWidth': 409, 'origHeight': 409, 'width': 409, 'height': 409, 'widthPercent': 0.45, 'rescaleHeight': False, 'trialN': 17, 'loaded': True, 'loadedTime': 33551.39999999851, 'positionName': 'RIGHT', 'positionCoords': [665.6, 195.5], 'bid': 0.64}]",33547.0,1669830677743,sweetpotato,avocado,0.93,0.64,-0.29000000000000004,avocado,983.1000000014901,986,985.3000000044703,True,i,35036.0,1489.0,1669830679233,1490,HRV,HRV_0138,2022-11-30 17:56:41
18,"[{'imgObject': {}, 'id': 'veggieswithdip', 'src': '/static/foodstim60/veggieswithdip.jpg', 'key': 'u', 'origWidth': 409, 'origHeight': 409, 'width': 409, 'height': 409, 'widthPercent': 0.45, 'rescaleHeight': False, 'trialN': 18, 'loaded': True, 'loadedTime': 35040.80000000447, 'positionName': 'LEFT', 'positionCoords': [205.4, 195.5], 'bid': 0.71}, {'imgObject': {}, 'id': 'salmon', 'src': '/static/foodstim60/salmon.jpg', 'key': 'i', 'origWidth': 410, 'origHeight': 409, 'width': 410, 'height': 409, 'widthPercent': 0.45, 'rescaleHeight': False, 'trialN': 18, 'loaded': True, 'loadedTime': 35041.39999999851, 'positionName': 'RIGHT', 'positionCoords': [665.6, 195.5], 'bid': 5.87}]",35036.60000000149,1669830679233,veggieswithdip,salmon,0.71,5.87,5.16,salmon,1457.3999999985099,1461,1459.7000000029802,True,i,36998.20000000298,1961.6000000014901,1669830681196,1963,HRV,HRV_0138,2022-11-30 17:56:41
19,"[{'imgObject': {}, 'id': 'sushi w_condiments', 'src': '/static/foodstim60/sushi w_condiments.jpg', 'key': 'u', 'origWidth': 410, 'origHeight': 410, 'width': 410, 'height': 410, 'widthPercent': 0.45, 'rescaleHeight': False, 'trialN': 19, 'loaded': True, 'loadedTime': 37002.89999999851, 'positionName': 'LEFT', 'positionCoords': [204.4, 195], 'bid': 0.67}, {'imgObject': {}, 'id': 'raspberries', 'src': '/static/foodstim60/raspberries.jpg', 'key': 'i', 'origWidth': 411, 'origHeight': 411, 'width': 411, 'height': 411, 'widthPercent': 0.45, 'rescaleHeight': False, 'trialN': 19, 'loaded': True, 'loadedTime': 37003.30000000447, 'positionName': 'RIGHT', 'positionCoords': [665.6, 194.5], 'bid': 2.09}]",36998.70000000298,1669830681197,sushi w_condiments,raspberries,0.67,2.09,1.42,raspberries,1034.1000000014901,1036,1036.1000000014901,True,i,38538.30000000447,1539.6000000014901,1669830682737,1540,HRV,HRV_0138,2022-11-30 17:56:41
20,"[{'imgObject': {}, 'id': 'salad w chicken', 'src': '/static/foodstim60/salad w chicken.jpg', 'key': 'u', 'origWidth': 411, 'origHeight': 411, 'width': 411, 'height': 411, 'widthPercent': 0.45, 'rescaleHeight': False, 'trialN': 20, 'loaded': True, 'loadedTime': 38543.39999999851, 'positionName': 'LEFT', 'positionCoords': [203.4, 194.5], 'bid': 3.6}, {'imgObject': {}, 'id': 'Tribe humus pita', 'src': '/static/foodstim60/Tribe humus pita.jpg', 'key': 'i', 'origWidth': 411, 'origHeight': 411, 'width': 411, 'height': 411, 'widthPercent': 0.45, 'rescaleHeight': False, 'trialN': 20, 'loaded': True, 'loadedTime': 38543.70000000298, 'positionName': 'RIGHT', 'positionCoords': [665.6, 194.5], 'bid': 1.53}]",38538.89999999851,1669830682738,salad w chicken,Tribe humus pita,3.6,1.53,-2.0700000000000003,Tribe humus pita,1319,1323,1323.0,True,i,40365.10000000149,1826.2000000029802,1669830684565,1827,HRV,HRV_0138,2022-11-30 17:56:41
21,"[{'imgObject': {}, 'id': 'raisin bran w milk', 'src': '/static/foodstim60/raisin bran w milk.jpg', 'key': 'u', 'origWidth': 411, 'origHeight': 411, 'width': 411, 'height': 411, 'widthPercent': 0.45, 'rescaleHeight': False, 'trialN': 21, 'loaded': True, 'loadedTime': 40369.89999999851, 'positionName': 'LEFT', 'positionCoords': [203.4, 194.5], 'bid': 6.95}, {'imgObject': {}, 'id': 'popsicles', 'src': '/static/foodstim60/popsicles.jpg', 'key': 'i', 'origWidth': 410, 'origHeight': 410, 'width': 410, 'height': 410, 'widthPercent': 0.45, 'rescaleHeight': False, 'trialN': 21, 'loaded': True, 'loadedTime': 40370.20000000298, 'positionName': 'RIGHT', 'positionCoords': [665.6, 195], 'bid': 6.3100000000000005}]",40365.60000000149,1669830684565,raisin bran w milk,popsicles,6.95,6.3100000000000005,-0.6399999999999997,raisin bran w milk,1087.2000000029802,1091,1090.3999999985099,True,u,41956.39999999851,1590.7999999970198,1669830686157,1592,HRV,HRV_0138,2022-11-30 17:56:41
22,"[{'imgObject': {}, 'id': 'blackbeanswithrice', 'src': '/static/foodstim60/blackbeanswithrice.jpg', 'key': 'u', 'origWidth': 410, 'origHeight': 410, 'width': 410, 'height': 410, 'widthPercent': 0.45, 'rescaleHeight': False, 'trialN': 22, 'loaded': True, 'loadedTime': 41961.39999999851, 'positionName': 'LEFT', 'positionCoords': [204.4, 195], 'bid': 1.29}, {'imgObject': {}, 'id': 'eggs', 'src': '/static/foodstim60/eggs.jpg', 'key': 'i', 'origWidth': 409, 'origHeight': 409, 'width': 409, 'height': 409, 'widthPercent': 0.45, 'rescaleHeight': False, 'trialN': 22, 'loaded': True, 'loadedTime': 41961.70000000298, 'positionName': 'RIGHT', 'positionCoords': [665.6, 195.5], 'bid': 5.23}]",41957.0,1669830686157,blackbeanswithrice,eggs,1.29,5.23,3.9400000000000004,eggs,848.7000000029802,853,852.0,True,i,43310.10000000149,1353.1000000014901,1669830687511,1354,HRV,HRV_0138,2022-11-30 17:56:41
23,"[{'imgObject': {}, 'id': 'burrito', 'src': '/static/foodstim60/burrito.jpg', 'key': 'u', 'origWidth': 410, 'origHeight': 410, 'width': 410, 'height': 410, 'widthPercent': 0.45, 'rescaleHeight': False, 'trialN': 23, 'loaded': True, 'loadedTime': 43312.39999999851, 'positionName': 'LEFT', 'positionCoords': [204.4, 195], 'bid': 8.73}, {'imgObject': {}, 'id': 'rigatoni and sauce', 'src': '/static/foodstim60/rigatoni and sauce.jpg', 'key': 'i', 'origWidth': 410, 'origHeight': 411, 'width': 410, 'height': 411, 'widthPercent': 0.45, 'rescaleHeight': False, 'trialN': 23, 'loaded': True, 'loadedTime': 43312.60000000149, 'positionName': 'RIGHT', 'positionCoords': [665.6, 194.5], 'bid': 8.28}]",43310.39999999851,1669830687511,burrito,rigatoni and sauce,8.73,8.28,-0.45000000000000107,burrito,2325.2000000029802,2330,2328.8000000044703,True,u,46140.60000000149,2830.2000000029802,1669830690342,2831,HRV,HRV_0138,2022-11-30 17:56:41
24,"[{'imgObject': {}, 'id': 'fried eggs', 'src': '/static/foodstim60/fried eggs.jpg', 'key': 'u', 'origWidth': 410, 'origHeight': 410, 'width': 410, 'height': 410, 'widthPercent': 0.45, 'rescaleHeight': False, 'trialN': 24, 'loaded': True, 'loadedTime': 46144.5, 'positionName': 'LEFT', 'positionCoords': [204.4, 195], 'bid': 8.4}, {'imgObject': {}, 'id': 'corn cob', 'src': '/static/foodstim60/corn cob.jpg', 'key': 'i', 'origWidth': 411, 'origHeight': 411, 'width': 411, 'height': 411, 'widthPercent': 0.45, 'rescaleHeight': False, 'trialN': 24, 'loaded': True, 'loadedTime': 46144.70000000298, 'positionName': 'RIGHT', 'positionCoords': [665.6, 194.5], 'bid': 8.28}]",46141.10000000149,1669830690343,fried eggs,corn cob,8.4,8.28,-0.120000000000001,fried eggs,952.3999999985099,956,955.7000000029802,True,u,47613.39999999851,1472.2999999970198,1669830691816,1473,HRV,HRV_0138,2022-11-30 17:56:41
25,"[{'imgObject': {}, 'id': 'sweetpotato', 'src': '/static/foodstim60/sweetpotato.jpg', 'key': 'u', 'origWidth': 410, 'origHeight': 410, 'width': 410, 'height': 410, 'widthPercent': 0.45, 'rescaleHeight': False, 'trialN': 25, 'loaded': True, 'loadedTime': 47616, 'positionName': 'LEFT', 'positionCoords': [204.4, 195], 'bid': 0.93}, {'imgObject': {}, 'id': 'fruitsalad', 'src': '/static/foodstim60/fruitsalad.jpg', 'key': 'i', 'origWidth': 410, 'origHeight': 410, 'width': 410, 'height': 410, 'widthPercent': 0.45, 'rescaleHeight': False, 'trialN': 25, 'loaded': True, 'loadedTime': 47616.20000000298, 'positionName': 'RIGHT', 'positionCoords': [665.6, 195], 'bid': 5.07}]",47613.80000000447,1669830691816,sweetpotato,fruitsalad,0.93,5.07,4.140000000000001,fruitsalad,973.5,976,976.1999999955297,True,i,49090.20000000298,1476.3999999985099,1669830693293,1477,HRV,HRV_0138,2022-11-30 17:56:41
26,"[{'imgObject': {}, 'id': 'turkey sandwich', 'src': '/static/foodstim60/turkey sandwich.jpg', 'key': 'u', 'origWidth': 409, 'origHeight': 409, 'width': 409, 'height': 409, 'widthPercent': 0.45, 'rescaleHeight': False, 'trialN': 26, 'loaded': True, 'loadedTime': 49095.30000000447, 'positionName': 'LEFT', 'positionCoords': [205.4, 195.5], 'bid': 5.34}, {'imgObject': {}, 'id': 'salmon', 'src': '/static/foodstim60/salmon.jpg', 'key': 'i', 'origWidth': 410, 'origHeight': 409, 'width': 410, 'height': 409, 'widthPercent': 0.45, 'rescaleHeight': False, 'trialN': 26, 'loaded': True, 'loadedTime': 49095.5, 'positionName': 'RIGHT', 'positionCoords': [665.6, 195.5], 'bid': 5.87}]",49090.80000000447,1669830693293,turkey sandwich,salmon,5.34,5.87,0.5300000000000002,salmon,1182.3999999985099,1185,1184.5,True,i,50775.89999999851,1685.0999999940395,1669830694979,1686,HRV,HRV_0138,2022-11-30 17:56:41
27,"[{'imgObject': {}, 'id': 'raisin bran w milk', 'src': '/static/foodstim60/raisin bran w milk.jpg', 'key': 'u', 'origWidth': 411, 'origHeight': 411, 'width': 411, 'height': 411, 'widthPercent': 0.45, 'rescaleHeight': False, 'trialN': 27, 'loaded': True, 'loadedTime': 50781.20000000298, 'positionName': 'LEFT', 'positionCoords': [203.4, 194.5], 'bid': 6.95}, {'imgObject': {}, 'id': 'sweetpotato', 'src': '/static/foodstim60/sweetpotato.jpg', 'key': 'i', 'origWidth': 410, 'origHeight': 410, 'width': 410, 'height': 410, 'widthPercent': 0.45, 'rescaleHeight': False, 'trialN': 27, 'loaded': True, 'loadedTime': 50781.39999999851, 'positionName': 'RIGHT', 'positionCoords': [665.6, 195], 'bid': 0.93}]",50776.80000000447,1669830694980,raisin bran w milk,sweetpotato,6.95,0.93,-6.0200000000000005,raisin bran w milk,787.3999999985099,791,791.5,True,u,52070.0,1293.1999999955297,1669830696273,1293,HRV,HRV_0138,2022-11-30 17:56:41
28,"[{'imgObject': {}, 'id': 'bagel and cc', 'src': '/static/foodstim60/bagel and cc.jpg', 'key': 'u', 'origWidth': 410, 'origHeight': 410, 'width': 410, 'height': 410, 'widthPercent': 0.45, 'rescaleHeight': False, 'trialN': 28, 'loaded': True, 'loadedTime': 52075.10000000149, 'positionName': 'LEFT', 'positionCoords': [204.4, 195], 'bid': 7.930000000000001}, {'imgObject': {}, 'id': 'ice cream sundae 002', 'src': '/static/foodstim60/ice cream sundae 002.jpg', 'key': 'i', 'origWidth': 409, 'origHeight': 409, 'width': 409, 'height': 409, 'widthPercent': 0.45, 'rescaleHeight': False, 'trialN': 28, 'loaded': True, 'loadedTime': 52075.39999999851, 'positionName': 'RIGHT', 'positionCoords': [665.6, 195.5], 'bid': 3.35}]",52070.89999999851,1669830696274,bagel and cc,ice cream sundae 002,7.930000000000001,3.35,-4.58,bagel and cc,778.1000000014901,780,780.2000000029802,True,u,53352.70000000298,1281.8000000044703,1669830697556,1282,HRV,HRV_0138,2022-11-30 17:56:41
29,"[{'imgObject': {}, 'id': 'burrito', 'src': '/static/foodstim60/burrito.jpg', 'key': 'u', 'origWidth': 410, 'origHeight': 410, 'width': 410, 'height': 410, 'widthPercent': 0.45, 'rescaleHeight': False, 'trialN': 29, 'loaded': True, 'loadedTime': 53355.39999999851, 'positionName': 'LEFT', 'positionCoords': [204.4, 195], 'bid': 8.73}, {'imgObject': {}, 'id': 'omelette', 'src': '/static/foodstim60/omelette.jpg', 'key': 'i', 'origWidth': 410, 'origHeight': 409, 'width': 410, 'height': 409, 'widthPercent': 0.45, 'rescaleHeight': False, 'trialN': 29, 'loaded': True, 'loadedTime': 53355.60000000149, 'positionName': 'RIGHT', 'positionCoords': [665.6, 195.5], 'bid': 5.23}]",53353.10000000149,1669830697557,burrito,omelette,8.73,5.23,-3.5,burrito,793.8999999985099,798,798.2000000029802,True,u,54654.30000000447,1301.2000000029802,1669830698858,1301,HRV,HRV_0138,2022-11-30 17:56:41
30,"[{'imgObject': {}, 'id': 'banana', 'src': '/static/foodstim60/banana.jpg', 'key': 'u', 'origWidth': 410, 'origHeight': 410, 'width': 410, 'height': 410, 'widthPercent': 0.45, 'rescaleHeight': False, 'trialN': 30, 'loaded': True, 'loadedTime': 54660.10000000149, 'positionName': 'LEFT', 'positionCoords': [204.4, 195], 'bid': 7.25}, {'imgObject': {}, 'id': 'roastedpotatoes', 'src': '/static/foodstim60/roastedpotatoes.jpg', 'key': 'i', 'origWidth': 409, 'origHeight': 410, 'width': 409, 'height': 410, 'widthPercent': 0.45, 'rescaleHeight': False, 'trialN': 30, 'loaded': True, 'loadedTime': 54660.39999999851, 'positionName': 'RIGHT', 'positionCoords': [665.6, 195], 'bid': 7.32}]",54654.89999999851,1669830698859,banana,roastedpotatoes,7.25,7.32,0.07000000000000028,banana,756.1000000014901,760,759.8000000044703,True,u,55919.80000000447,1264.9000000059605,1669830700124,1265,HRV,HRV_0138,2022-11-30 17:56:41
31,"[{'imgObject': {}, 'id': 'lox', 'src': '/static/foodstim60/lox.jpg', 'key': 'u', 'origWidth': 410, 'origHeight': 411, 'width': 410, 'height': 411, 'widthPercent': 0.45, 'rescaleHeight': False, 'trialN': 31, 'loaded': True, 'loadedTime': 55924.70000000298, 'positionName': 'LEFT', 'positionCoords': [204.4, 194.5], 'bid': 3.14}, {'imgObject': {}, 'id': 'cherries', 'src': '/static/foodstim60/cherries.jpg', 'key': 'i', 'origWidth': 410, 'origHeight': 411, 'width': 410, 'height': 411, 'widthPercent': 0.45, 'rescaleHeight': False, 'trialN': 31, 'loaded': True, 'loadedTime': 55925, 'positionName': 'RIGHT', 'positionCoords': [665.6, 194.5], 'bid': 0.81}]",55920.39999999851,1669830700124,lox,cherries,3.14,0.81,-2.33,lox,1112.9000000059605,1116,1115.2000000029802,True,u,57539.39999999851,1619.0,1669830701744,1620,HRV,HRV_0138,2022-11-30 17:56:41
32,"[{'imgObject': {}, 'id': 'roastedpotatoes', 'src': '/static/foodstim60/roastedpotatoes.jpg', 'key': 'u', 'origWidth': 409, 'origHeight': 410, 'width': 409, 'height': 410, 'widthPercent': 0.45, 'rescaleHeight': False, 'trialN': 32, 'loaded': True, 'loadedTime': 57543.89999999851, 'positionName': 'LEFT', 'positionCoords': [205.4, 195], 'bid': 7.32}, {'imgObject': {}, 'id': 'grilled chicken strips', 'src': '/static/foodstim60/grilled chicken strips.jpg', 'key': 'i', 'origWidth': 410, 'origHeight': 411, 'width': 410, 'height': 411, 'widthPercent': 0.45, 'rescaleHeight': False, 'trialN': 32, 'loaded': True, 'loadedTime': 57544.30000000447, 'positionName': 'RIGHT', 'positionCoords': [665.6, 194.5], 'bid': 7.29}]",57540.0,1669830701744,roastedpotatoes,grilled chicken strips,7.32,7.29,-0.03000000000000025,roastedpotatoes,844.8000000044703,848,847.8999999985099,True,u,58889.5,1349.5,1669830703094,1350,HRV,HRV_0138,2022-11-30 17:56:41
33,"[{'imgObject': {}, 'id': 'luckycharms', 'src': '/static/foodstim60/luckycharms.jpg', 'key': 'u', 'origWidth': 410, 'origHeight': 409, 'width': 410, 'height': 409, 'widthPercent': 0.45, 'rescaleHeight': False, 'trialN': 33, 'loaded': True, 'loadedTime': 58893.70000000298, 'positionName': 'LEFT', 'positionCoords': [204.4, 195.5], 'bid': 5.23}, {'imgObject': {}, 'id': 'popsicles', 'src': '/static/foodstim60/popsicles.jpg', 'key': 'i', 'origWidth': 410, 'origHeight': 410, 'width': 410, 'height': 410, 'widthPercent': 0.45, 'rescaleHeight': False, 'trialN': 33, 'loaded': True, 'loadedTime': 58893.89999999851, 'positionName': 'RIGHT', 'positionCoords': [665.6, 195], 'bid': 6.3100000000000005}]",58890.10000000149,1669830703095,luckycharms,popsicles,5.23,6.3100000000000005,1.08,popsicles,986.5,988,988.5,True,i,60379.20000000298,1489.1000000014901,1669830704584,1489,HRV,HRV_0138,2022-11-30 17:56:41
34,"[{'imgObject': {}, 'id': 'cocktailshrimp', 'src': '/static/foodstim60/cocktailshrimp.jpg', 'key': 'u', 'origWidth': 410, 'origHeight': 410, 'width': 410, 'height': 410, 'widthPercent': 0.45, 'rescaleHeight': False, 'trialN': 34, 'loaded': True, 'loadedTime': 60383.70000000298, 'positionName': 'LEFT', 'positionCoords': [204.4, 195], 'bid': 0.25}, {'imgObject': {}, 'id': 'edamame', 'src': '/static/foodstim60/edamame.jpg', 'key': 'i', 'origWidth': 409, 'origHeight': 410, 'width': 409, 'height': 410, 'widthPercent': 0.45, 'rescaleHeight': False, 'trialN': 34, 'loaded': True, 'loadedTime': 60383.89999999851, 'positionName': 'RIGHT', 'positionCoords': [665.6, 195], 'bid': 0.46}]",60379.60000000149,1669830704584,cocktailshrimp,edamame,0.25,0.46,0.21000000000000002,edamame,980.1000000014901,984,983.3999999985099,True,i,61868.10000000149,1488.5,1669830706073,1489,HRV,HRV_0138,2022-11-30 17:56:41
35,"[{'imgObject': {}, 'id': 'lox', 'src': '/static/foodstim60/lox.jpg', 'key': 'u', 'origWidth': 410, 'origHeight': 411, 'width': 410, 'height': 411, 'widthPercent': 0.45, 'rescaleHeight': False, 'trialN': 35, 'loaded': True, 'loadedTime': 61873, 'positionName': 'LEFT', 'positionCoords': [204.4, 194.5], 'bid': 3.14}, {'imgObject': {}, 'id': 'blueberries', 'src': '/static/foodstim60/blueberries.jpg', 'key': 'i', 'origWidth': 411, 'origHeight': 411, 'width': 411, 'height': 411, 'widthPercent': 0.45, 'rescaleHeight': False, 'trialN': 35, 'loaded': True, 'loadedTime': 61873.30000000447, 'positionName': 'RIGHT', 'positionCoords': [665.6, 194.5], 'bid': 3.03}]",61868.70000000298,1669830706074,lox,blueberries,3.14,3.03,-0.11000000000000032,lox,928.7999999970198,931,930.7999999970198,True,u,63302.60000000149,1433.8999999985099,1669830707508,1434,HRV,HRV_0138,2022-11-30 17:56:41
36,"[{'imgObject': {}, 'id': 'veggieswithdip', 'src': '/static/foodstim60/veggieswithdip.jpg', 'key': 'u', 'origWidth': 409, 'origHeight': 409, 'width': 409, 'height': 409, 'widthPercent': 0.45, 'rescaleHeight': False, 'trialN': 36, 'loaded': True, 'loadedTime': 63307.30000000447, 'positionName': 'LEFT', 'positionCoords': [205.4, 195.5], 'bid': 0.71}, {'imgObject': {}, 'id': 'cherries', 'src': '/static/foodstim60/cherries.jpg', 'key': 'i', 'origWidth': 410, 'origHeight': 411, 'width': 410, 'height': 411, 'widthPercent': 0.45, 'rescaleHeight': False, 'trialN': 36, 'loaded': True, 'loadedTime': 63307.5, 'positionName': 'RIGHT', 'positionCoords': [665.6, 194.5], 'bid': 0.81}]",63303.20000000298,1669830707508,veggieswithdip,cherries,0.71,0.81,0.10000000000000009,cherries,868.1000000014901,873,872.1000000014901,True,i,64678.20000000298,1375.0,1669830708883,1375,HRV,HRV_0138,2022-11-30 17:56:41
37,"[{'imgObject': {}, 'id': 'mashed potato', 'src': '/static/foodstim60/mashed potato.jpg', 'key': 'u', 'origWidth': 409, 'origHeight': 409, 'width': 409, 'height': 409, 'widthPercent': 0.45, 'rescaleHeight': False, 'trialN': 37, 'loaded': True, 'loadedTime': 64682, 'positionName': 'LEFT', 'positionCoords': [205.4, 195.5], 'bid': 6.21}, {'imgObject': {}, 'id': 'granola w milk', 'src': '/static/foodstim60/granola w milk.jpg', 'key': 'i', 'origWidth': 410, 'origHeight': 410, 'width': 410, 'height': 410, 'widthPercent': 0.45, 'rescaleHeight': False, 'trialN': 37, 'loaded': True, 'loadedTime': 64682.30000000447, 'positionName': 'RIGHT', 'positionCoords': [665.6, 195], 'bid': 5.96}]",64678.60000000149,1669830708884,mashed potato,granola w milk,6.21,5.96,-0.25,mashed potato,1784.7000000029802,1788,1788.2000000029802,True,u,66967.0,2288.39999999851,1669830711173,2289,HRV,HRV_0138,2022-11-30 17:56:41
38,"[{'imgObject': {}, 'id': 'cocktailshrimp', 'src': '/static/foodstim60/cocktailshrimp.jpg', 'key': 'u', 'origWidth': 410, 'origHeight': 410, 'width': 410, 'height': 410, 'widthPercent': 0.45, 'rescaleHeight': False, 'trialN': 38, 'loaded': True, 'loadedTime': 66972.10000000149, 'positionName': 'LEFT', 'positionCoords': [204.4, 195], 'bid': 0.25}, {'imgObject': {}, 'id': 'cantaloupe', 'src': '/static/foodstim60/cantaloupe.jpg', 'key': 'i', 'origWidth': 409, 'origHeight': 409, 'width': 409, 'height': 409, 'widthPercent': 0.45, 'rescaleHeight': False, 'trialN': 38, 'loaded': True, 'loadedTime': 66972.39999999851, 'positionName': 'RIGHT', 'positionCoords': [665.6, 195.5], 'bid': 0.73}]",66967.60000000149,1669830711173,cocktailshrimp,cantaloupe,0.25,0.73,0.48,cantaloupe,918.7000000029802,923,922.2999999970198,True,i,68394.89999999851,1427.2999999970198,1669830712601,1428,HRV,HRV_0138,2022-11-30 17:56:41
39,"[{'imgObject': {}, 'id': 'bagel plain', 'src': '/static/foodstim60/bagel plain.jpg', 'key': 'u', 'origWidth': 410, 'origHeight': 410, 'width': 410, 'height': 410, 'widthPercent': 0.45, 'rescaleHeight': False, 'trialN': 39, 'loaded': True, 'loadedTime': 68400.10000000149, 'positionName': 'LEFT', 'positionCoords': [204.4, 195], 'bid': 8.56}, {'imgObject': {}, 'id': 'chickenfingers', 'src': '/static/foodstim60/chickenfingers.jpg', 'key': 'i', 'origWidth': 410, 'origHeight': 410, 'width': 410, 'height': 410, 'widthPercent': 0.45, 'rescaleHeight': False, 'trialN': 39, 'loaded': True, 'loadedTime': 68400.60000000149, 'positionName': 'RIGHT', 'positionCoords': [665.6, 195], 'bid': 9.51}]",68395.39999999851,1669830712601,bagel plain,chickenfingers,8.56,9.51,0.9499999999999993,bagel plain,807.7000000029802,810,810.3000000044703,True,u,69710.80000000447,1315.4000000059605,1669830713917,1316,HRV,HRV_0138,2022-11-30 17:56:41
40,"[{'imgObject': {}, 'id': 'blueberries', 'src': '/static/foodstim60/blueberries.jpg', 'key': 'u', 'origWidth': 411, 'origHeight': 411, 'width': 411, 'height': 411, 'widthPercent': 0.45, 'rescaleHeight': False, 'trialN': 40, 'loaded': True, 'loadedTime': 69715.60000000149, 'positionName': 'LEFT', 'positionCoords': [203.4, 194.5], 'bid': 3.03}, {'imgObject': {}, 'id': 'tacos', 'src': '/static/foodstim60/tacos.jpg', 'key': 'i', 'origWidth': 411, 'origHeight': 411, 'width': 411, 'height': 411, 'widthPercent': 0.45, 'rescaleHeight': False, 'trialN': 40, 'loaded': True, 'loadedTime': 69715.89999999851, 'positionName': 'RIGHT', 'positionCoords': [665.6, 194.5], 'bid': 4.9}]",69711.39999999851,1669830713917,blueberries,tacos,3.03,4.9,1.8700000000000006,tacos,982,984,984.1000000014901,True,i,71196.5,1485.1000000014901,1669830715402,1485,HRV,HRV_0138,2022-11-30 17:56:41
41,"[{'imgObject': {}, 'id': 'seaweed', 'src': '/static/foodstim60/seaweed.jpg', 'key': 'u', 'origWidth': 410, 'origHeight': 410, 'width': 410, 'height': 410, 'widthPercent': 0.45, 'rescaleHeight': False, 'trialN': 41, 'loaded': True, 'loadedTime': 71201.5, 'positionName': 'LEFT', 'positionCoords': [204.4, 195], 'bid': 0.28}, {'imgObject': {}, 'id': 'blueberries', 'src': '/static/foodstim60/blueberries.jpg', 'key': 'i', 'origWidth': 411, 'origHeight': 411, 'width': 411, 'height': 411, 'widthPercent': 0.45, 'rescaleHeight': False, 'trialN': 41, 'loaded': True, 'loadedTime': 71201.80000000447, 'positionName': 'RIGHT', 'positionCoords': [665.6, 194.5], 'bid': 3.03}]",71197.0,1669830715403,seaweed,blueberries,0.28,3.03,2.75,seaweed,1288.8000000044703,1291,1291.0,True,u,72992.0,1795.0,1669830717198,1795,HRV,HRV_0138,2022-11-30 17:56:41
42,"[{'imgObject': {}, 'id': 'grilled chicken strips', 'src': '/static/foodstim60/grilled chicken strips.jpg', 'key': 'u', 'origWidth': 410, 'origHeight': 411, 'width': 410, 'height': 411, 'widthPercent': 0.45, 'rescaleHeight': False, 'trialN': 42, 'loaded': True, 'loadedTime': 72996.80000000447, 'positionName': 'LEFT', 'positionCoords': [204.4, 194.5], 'bid': 7.29}, {'imgObject': {}, 'id': 'burrito', 'src': '/static/foodstim60/burrito.jpg', 'key': 'i', 'origWidth': 410, 'origHeight': 410, 'width': 410, 'height': 410, 'widthPercent': 0.45, 'rescaleHeight': False, 'trialN': 42, 'loaded': True, 'loadedTime': 72997.10000000149, 'positionName': 'RIGHT', 'positionCoords': [665.6, 195], 'bid': 8.73}]",72992.5,1669830717199,grilled chicken strips,burrito,7.29,8.73,1.4400000000000004,grilled chicken strips,932.5,936,935.8999999985099,True,u,74430.80000000447,1438.3000000044703,1669830718637,1438,HRV,HRV_0138,2022-11-30 17:56:41
43,"[{'imgObject': {}, 'id': 'fruitsalad', 'src': '/static/foodstim60/fruitsalad.jpg', 'key': 'u', 'origWidth': 410, 'origHeight': 410, 'width': 410, 'height': 410, 'widthPercent': 0.45, 'rescaleHeight': False, 'trialN': 43, 'loaded': True, 'loadedTime': 74435.80000000447, 'positionName': 'LEFT', 'positionCoords': [204.4, 195], 'bid': 5.07}, {'imgObject': {}, 'id': 'turkeysandwich', 'src': '/static/foodstim60/turkeysandwich.jpg', 'key': 'i', 'origWidth': 409, 'origHeight': 409, 'width': 409, 'height': 409, 'widthPercent': 0.45, 'rescaleHeight': False, 'trialN': 43, 'loaded': True, 'loadedTime': 74436.20000000298, 'positionName': 'RIGHT', 'positionCoords': [665.6, 195.5], 'bid': 5.84}]",74431.60000000149,1669830718638,fruitsalad,turkeysandwich,5.07,5.84,0.7699999999999996,turkeysandwich,1189.2999999970198,1192,1192.5,True,i,76125.60000000149,1694.0,1669830720332,1694,HRV,HRV_0138,2022-11-30 17:56:41
44,"[{'imgObject': {}, 'id': 'blueberries', 'src': '/static/foodstim60/blueberries.jpg', 'key': 'u', 'origWidth': 411, 'origHeight': 411, 'width': 411, 'height': 411, 'widthPercent': 0.45, 'rescaleHeight': False, 'trialN': 44, 'loaded': True, 'loadedTime': 76130.30000000447, 'positionName': 'LEFT', 'positionCoords': [203.4, 194.5], 'bid': 3.03}, {'imgObject': {}, 'id': 'cheerios', 'src': '/static/foodstim60/cheerios.jpg', 'key': 'i', 'origWidth': 409, 'origHeight': 410, 'width': 409, 'height': 410, 'widthPercent': 0.45, 'rescaleHeight': False, 'trialN': 44, 'loaded': True, 'loadedTime': 76130.89999999851, 'positionName': 'RIGHT', 'positionCoords': [665.6, 195], 'bid': 7.6}]",76126.10000000149,1669830720332,blueberries,cheerios,3.03,7.6,4.57,cheerios,831.5,839,838.6000000014901,True,i,77465.60000000149,1339.5,1669830721672,1340,HRV,HRV_0138,2022-11-30 17:56:41
45,"[{'imgObject': {}, 'id': 'chickenfingers', 'src': '/static/foodstim60/chickenfingers.jpg', 'key': 'u', 'origWidth': 410, 'origHeight': 410, 'width': 410, 'height': 410, 'widthPercent': 0.45, 'rescaleHeight': False, 'trialN': 45, 'loaded': True, 'loadedTime': 77468.30000000447, 'positionName': 'LEFT', 'positionCoords': [204.4, 195], 'bid': 9.51}, {'imgObject': {}, 'id': 'bagel and cc', 'src': '/static/foodstim60/bagel and cc.jpg', 'key': 'i', 'origWidth': 410, 'origHeight': 410, 'width': 410, 'height': 410, 'widthPercent': 0.45, 'rescaleHeight': False, 'trialN': 45, 'loaded': True, 'loadedTime': 77468.5, 'positionName': 'RIGHT', 'positionCoords': [665.6, 195], 'bid': 7.930000000000001}]",77465.89999999851,1669830721672,chickenfingers,bagel and cc,9.51,7.930000000000001,-1.5799999999999992,chickenfingers,1186.8000000044703,1191,1190.9000000059605,True,u,79157.0,1691.1000000014901,1669830723364,1692,HRV,HRV_0138,2022-11-30 17:56:41
46,"[{'imgObject': {}, 'id': 'corn cob', 'src': '/static/foodstim60/corn cob.jpg', 'key': 'u', 'origWidth': 411, 'origHeight': 411, 'width': 411, 'height': 411, 'widthPercent': 0.45, 'rescaleHeight': False, 'trialN': 46, 'loaded': True, 'loadedTime': 79160.20000000298, 'positionName': 'LEFT', 'positionCoords': [203.4, 194.5], 'bid': 8.28}, {'imgObject': {}, 'id': 'chicken nuggets2', 'src': '/static/foodstim60/chicken nuggets2.jpg', 'key': 'i', 'origWidth': 410, 'origHeight': 409, 'width': 410, 'height': 409, 'widthPercent': 0.45, 'rescaleHeight': False, 'trialN': 46, 'loaded': True, 'loadedTime': 79160.5, 'positionName': 'RIGHT', 'positionCoords': [665.6, 195.5], 'bid': 8.32}]",79157.30000000447,1669830723364,corn cob,chicken nuggets2,8.28,8.32,0.040000000000000924,corn cob,1762.2999999970198,1766,1765.6999999955297,True,u,81428.10000000149,2270.7999999970198,1669830725635,2271,HRV,HRV_0138,2022-11-30 17:56:41
47,"[{'imgObject': {}, 'id': 'Tribe humus pita', 'src': '/static/foodstim60/Tribe humus pita.jpg', 'key': 'u', 'origWidth': 411, 'origHeight': 411, 'width': 411, 'height': 411, 'widthPercent': 0.45, 'rescaleHeight': False, 'trialN': 47, 'loaded': True, 'loadedTime': 81433.30000000447, 'positionName': 'LEFT', 'positionCoords': [203.4, 194.5], 'bid': 1.53}, {'imgObject': {}, 'id': 'olives', 'src': '/static/foodstim60/olives.jpg', 'key': 'i', 'origWidth': 410, 'origHeight': 410, 'width': 410, 'height': 410, 'widthPercent': 0.45, 'rescaleHeight': False, 'trialN': 47, 'loaded': True, 'loadedTime': 81433.5, 'positionName': 'RIGHT', 'positionCoords': [665.6, 195], 'bid': 1.39}]",81428.60000000149,1669830725635,Tribe humus pita,olives,1.53,1.39,-0.14000000000000012,Tribe humus pita,1345.7999999970198,1350,1349.2999999970198,True,u,83281.60000000149,1853.0,1669830727488,1853,HRV,HRV_0138,2022-11-30 17:56:41
48,"[{'imgObject': {}, 'id': 'fruitsalad', 'src': '/static/foodstim60/fruitsalad.jpg', 'key': 'u', 'origWidth': 410, 'origHeight': 410, 'width': 410, 'height': 410, 'widthPercent': 0.45, 'rescaleHeight': False, 'trialN': 48, 'loaded': True, 'loadedTime': 83286.39999999851, 'positionName': 'LEFT', 'positionCoords': [204.4, 195], 'bid': 5.07}, {'imgObject': {}, 'id': 'fried eggs', 'src': '/static/foodstim60/fried eggs.jpg', 'key': 'i', 'origWidth': 410, 'origHeight': 410, 'width': 410, 'height': 410, 'widthPercent': 0.45, 'rescaleHeight': False, 'trialN': 48, 'loaded': True, 'loadedTime': 83286.60000000149, 'positionName': 'RIGHT', 'positionCoords': [665.6, 195], 'bid': 8.4}]",83282.39999999851,1669830727489,fruitsalad,fried eggs,5.07,8.4,3.33,fried eggs,1042.8000000044703,1047,1046.2000000029802,True,i,84833.5,1551.1000000014901,1669830729040,1551,HRV,HRV_0138,2022-11-30 17:56:41
49,"[{'imgObject': {}, 'id': 'blackbeanswithrice', 'src': '/static/foodstim60/blackbeanswithrice.jpg', 'key': 'u', 'origWidth': 410, 'origHeight': 410, 'width': 410, 'height': 410, 'widthPercent': 0.45, 'rescaleHeight': False, 'trialN': 49, 'loaded': True, 'loadedTime': 84838.5, 'positionName': 'LEFT', 'positionCoords': [204.4, 195], 'bid': 1.29}, {'imgObject': {}, 'id': 'veggieswithdip', 'src': '/static/foodstim60/veggieswithdip.jpg', 'key': 'i', 'origWidth': 409, 'origHeight': 409, 'width': 409, 'height': 409, 'widthPercent': 0.45, 'rescaleHeight': False, 'trialN': 49, 'loaded': True, 'loadedTime': 84838.70000000298, 'positionName': 'RIGHT', 'positionCoords': [665.6, 195.5], 'bid': 0.71}]",84834.0,1669830729041,blackbeanswithrice,veggieswithdip,1.29,0.71,-0.5800000000000001,veggieswithdip,1291.3999999985099,1295,1295.2000000029802,True,i,86629.89999999851,1795.8999999985099,1669830730837,1796,HRV,HRV_0138,2022-11-30 17:56:41
50,"[{'imgObject': {}, 'id': 'kiwi', 'src': '/static/foodstim60/kiwi.jpg', 'key': 'u', 'origWidth': 410, 'origHeight': 410, 'width': 410, 'height': 410, 'widthPercent': 0.45, 'rescaleHeight': False, 'trialN': 50, 'loaded': True, 'loadedTime': 86634.80000000447, 'positionName': 'LEFT', 'positionCoords': [204.4, 195], 'bid': 0.84}, {'imgObject': {}, 'id': 'cherry tomato', 'src': '/static/foodstim60/cherry tomato.jpg', 'key': 'i', 'origWidth': 410, 'origHeight': 410, 'width': 410, 'height': 410, 'widthPercent': 0.45, 'rescaleHeight': False, 'trialN': 50, 'loaded': True, 'loadedTime': 86635, 'positionName': 'RIGHT', 'positionCoords': [665.6, 195], 'bid': 5.01}]",86630.5,1669830730837,kiwi,cherry tomato,0.84,5.01,4.17,kiwi,1672.5,1675,1674.6000000014901,True,u,88807.5,2177.0,1669830733015,2178,HRV,HRV_0138,2022-11-30 17:56:41
51,"[{'imgObject': {}, 'id': 'banana', 'src': '/static/foodstim60/banana.jpg', 'key': 'u', 'origWidth': 410, 'origHeight': 410, 'width': 410, 'height': 410, 'widthPercent': 0.45, 'rescaleHeight': False, 'trialN': 51, 'loaded': True, 'loadedTime': 88812.30000000447, 'positionName': 'LEFT', 'positionCoords': [204.4, 195], 'bid': 7.25}, {'imgObject': {}, 'id': 'hotdog w must', 'src': '/static/foodstim60/hotdog w must.jpg', 'key': 'i', 'origWidth': 409, 'origHeight': 409, 'width': 409, 'height': 409, 'widthPercent': 0.45, 'rescaleHeight': False, 'trialN': 51, 'loaded': True, 'loadedTime': 88812.5, 'positionName': 'RIGHT', 'positionCoords': [665.6, 195.5], 'bid': 7.09}]",88808.10000000149,1669830733015,banana,hotdog w must,7.25,7.09,-0.16000000000000014,hotdog w must,1471.7999999970198,1476,1476.2000000029802,True,i,90784.39999999851,1976.2999999970198,1669830734992,1977,HRV,HRV_0138,2022-11-30 17:56:41
52,"[{'imgObject': {}, 'id': 'baked potato', 'src': '/static/foodstim60/baked potato.jpg', 'key': 'u', 'origWidth': 409, 'origHeight': 410, 'width': 409, 'height': 410, 'widthPercent': 0.45, 'rescaleHeight': False, 'trialN': 52, 'loaded': True, 'loadedTime': 90788.60000000149, 'positionName': 'LEFT', 'positionCoords': [205.4, 195], 'bid': 7.43}, {'imgObject': {}, 'id': 'steak', 'src': '/static/foodstim60/steak.jpg', 'key': 'i', 'origWidth': 410, 'origHeight': 410, 'width': 410, 'height': 410, 'widthPercent': 0.45, 'rescaleHeight': False, 'trialN': 52, 'loaded': True, 'loadedTime': 90788.89999999851, 'positionName': 'RIGHT', 'positionCoords': [665.6, 195], 'bid': 8.5}]",90784.80000000447,1669830734992,baked potato,steak,7.43,8.5,1.0700000000000003,steak,1082.8999999985099,1085,1085.1999999955297,True,i,92373.60000000149,1588.7999999970198,1669830736581,1589,HRV,HRV_0138,2022-11-30 17:56:41
53,"[{'imgObject': {}, 'id': 'burrito', 'src': '/static/foodstim60/burrito.jpg', 'key': 'u', 'origWidth': 410, 'origHeight': 410, 'width': 410, 'height': 410, 'widthPercent': 0.45, 'rescaleHeight': False, 'trialN': 53, 'loaded': True, 'loadedTime': 92378, 'positionName': 'LEFT', 'positionCoords': [204.4, 195], 'bid': 8.73}, {'imgObject': {}, 'id': 'bagel plain', 'src': '/static/foodstim60/bagel plain.jpg', 'key': 'i', 'origWidth': 410, 'origHeight': 410, 'width': 410, 'height': 410, 'widthPercent': 0.45, 'rescaleHeight': False, 'trialN': 53, 'loaded': True, 'loadedTime': 92378.30000000447, 'positionName': 'RIGHT', 'positionCoords': [665.6, 195], 'bid': 8.56}]",92374.30000000447,1669830736582,burrito,bagel plain,8.73,8.56,-0.16999999999999993,burrito,1375.5,1378,1378.0999999940395,True,u,94252.5,1878.1999999955297,1669830738460,1878,HRV,HRV_0138,2022-11-30 17:56:41
54,"[{'imgObject': {}, 'id': 'granola w milk', 'src': '/static/foodstim60/granola w milk.jpg', 'key': 'u', 'origWidth': 410, 'origHeight': 410, 'width': 410, 'height': 410, 'widthPercent': 0.45, 'rescaleHeight': False, 'trialN': 54, 'loaded': True, 'loadedTime': 94256.10000000149, 'positionName': 'LEFT', 'positionCoords': [204.4, 195], 'bid': 5.96}, {'imgObject': {}, 'id': 'popsicles', 'src': '/static/foodstim60/popsicles.jpg', 'key': 'i', 'origWidth': 410, 'origHeight': 410, 'width': 410, 'height': 410, 'widthPercent': 0.45, 'rescaleHeight': False, 'trialN': 54, 'loaded': True, 'loadedTime': 94256.39999999851, 'positionName': 'RIGHT', 'positionCoords': [665.6, 195], 'bid': 6.3100000000000005}]",94252.80000000447,1669830738460,granola w milk,popsicles,5.96,6.3100000000000005,0.35000000000000053,popsicles,1034.8999999985099,1039,1038.5999999940395,True,i,95791.80000000447,1539.0,1669830739999,1539,HRV,HRV_0138,2022-11-30 17:56:41
55,"[{'imgObject': {}, 'id': 'sushi w_condiments', 'src': '/static/foodstim60/sushi w_condiments.jpg', 'key': 'u', 'origWidth': 410, 'origHeight': 410, 'width': 410, 'height': 410, 'widthPercent': 0.45, 'rescaleHeight': False, 'trialN': 55, 'loaded': True, 'loadedTime': 95797.10000000149, 'positionName': 'LEFT', 'positionCoords': [204.4, 195], 'bid': 0.67}, {'imgObject': {}, 'id': 'strawberries', 'src': '/static/foodstim60/strawberries.jpg', 'key': 'i', 'origWidth': 410, 'origHeight': 410, 'width': 410, 'height': 410, 'widthPercent': 0.45, 'rescaleHeight': False, 'trialN': 55, 'loaded': True, 'loadedTime': 95797.30000000447, 'positionName': 'RIGHT', 'positionCoords': [665.6, 195], 'bid': 1.03}]",95792.70000000298,1669830740000,sushi w_condiments,strawberries,0.67,1.03,0.36,sushi w_condiments,1410.8999999985099,1414,1413.8999999985099,True,u,97709.5,1916.7999999970198,1669830741917,1917,HRV,HRV_0138,2022-11-30 17:56:41
56,"[{'imgObject': {}, 'id': 'avocado', 'src': '/static/foodstim60/avocado.jpg', 'key': 'u', 'origWidth': 409, 'origHeight': 409, 'width': 409, 'height': 409, 'widthPercent': 0.45, 'rescaleHeight': False, 'trialN': 56, 'loaded': True, 'loadedTime': 97714.5, 'positionName': 'LEFT', 'positionCoords': [205.4, 195.5], 'bid': 0.64}, {'imgObject': {}, 'id': 'pear', 'src': '/static/foodstim60/pear.jpg', 'key': 'i', 'origWidth': 411, 'origHeight': 410, 'width': 411, 'height': 410, 'widthPercent': 0.45, 'rescaleHeight': False, 'trialN': 56, 'loaded': True, 'loadedTime': 97714.89999999851, 'positionName': 'RIGHT', 'positionCoords': [665.6, 195], 'bid': 5.62}]",97710.0,1669830741918,avocado,pear,0.64,5.62,4.98,pear,1810.5,1812,1812.7000000029802,True,i,100028.0,2318.0,1669830744236,2318,HRV,HRV_0138,2022-11-30 17:56:41
57,"[{'imgObject': {}, 'id': 'raisin bran w milk', 'src': '/static/foodstim60/raisin bran w milk.jpg', 'key': 'u', 'origWidth': 411, 'origHeight': 411, 'width': 411, 'height': 411, 'widthPercent': 0.45, 'rescaleHeight': False, 'trialN': 57, 'loaded': True, 'loadedTime': 100032.80000000447, 'positionName': 'LEFT', 'positionCoords': [203.4, 194.5], 'bid': 6.95}, {'imgObject': {}, 'id': 'fried eggs', 'src': '/static/foodstim60/fried eggs.jpg', 'key': 'i', 'origWidth': 410, 'origHeight': 410, 'width': 410, 'height': 410, 'widthPercent': 0.45, 'rescaleHeight': False, 'trialN': 57, 'loaded': True, 'loadedTime': 100033.30000000447, 'positionName': 'RIGHT', 'positionCoords': [665.6, 195], 'bid': 8.4}]",100028.5,1669830744236,raisin bran w milk,fried eggs,6.95,8.4,1.4500000000000002,fried eggs,1050.7000000029802,1053,1053.3000000044703,True,i,101584.89999999851,1556.3999999985099,1669830745793,1557,HRV,HRV_0138,2022-11-30 17:56:41
58,"[{'imgObject': {}, 'id': 'sweetpotato', 'src': '/static/foodstim60/sweetpotato.jpg', 'key': 'u', 'origWidth': 410, 'origHeight': 410, 'width': 410, 'height': 410, 'widthPercent': 0.45, 'rescaleHeight': False, 'trialN': 58, 'loaded': True, 'loadedTime': 101590.20000000298, 'positionName': 'LEFT', 'positionCoords': [204.4, 195], 'bid': 0.93}, {'imgObject': {}, 'id': 'blackbeanswithrice', 'src': '/static/foodstim60/blackbeanswithrice.jpg', 'key': 'i', 'origWidth': 410, 'origHeight': 410, 'width': 410, 'height': 410, 'widthPercent': 0.45, 'rescaleHeight': False, 'trialN': 58, 'loaded': True, 'loadedTime': 101590.70000000298, 'positionName': 'RIGHT', 'positionCoords': [665.6, 195], 'bid': 1.29}]",101585.80000000447,1669830745793,sweetpotato,blackbeanswithrice,0.93,1.29,0.36,blackbeanswithrice,1983.5,1987,1986.1999999955297,True,i,104077.20000000298,2491.39999999851,1669830748285,2492,HRV,HRV_0138,2022-11-30 17:56:41
59,"[{'imgObject': {}, 'id': 'apple slices', 'src': '/static/foodstim60/apple slices.jpg', 'key': 'u', 'origWidth': 409, 'origHeight': 410, 'width': 409, 'height': 410, 'widthPercent': 0.45, 'rescaleHeight': False, 'trialN': 59, 'loaded': True, 'loadedTime': 104082.5, 'positionName': 'LEFT', 'positionCoords': [205.4, 195], 'bid': 4.79}, {'imgObject': {}, 'id': 'rigatoni and sauce', 'src': '/static/foodstim60/rigatoni and sauce.jpg', 'key': 'i', 'origWidth': 410, 'origHeight': 411, 'width': 410, 'height': 411, 'widthPercent': 0.45, 'rescaleHeight': False, 'trialN': 59, 'loaded': True, 'loadedTime': 104082.80000000447, 'positionName': 'RIGHT', 'positionCoords': [665.6, 194.5], 'bid': 8.28}]",104077.70000000298,1669830748285,apple slices,rigatoni and sauce,4.79,8.28,3.4899999999999993,rigatoni and sauce,1513.2999999970198,1516,1515.2999999970198,True,i,106096.20000000298,2018.5,1669830750304,2019,HRV,HRV_0138,2022-11-30 17:56:41
60,"[{'imgObject': {}, 'id': 'cantaloupe', 'src': '/static/foodstim60/cantaloupe.jpg', 'key': 'u', 'origWidth': 409, 'origHeight': 409, 'width': 409, 'height': 409, 'widthPercent': 0.45, 'rescaleHeight': False, 'trialN': 60, 'loaded': True, 'loadedTime': 106099.39999999851, 'positionName': 'LEFT', 'positionCoords': [205.4, 195.5], 'bid': 0.73}, {'imgObject': {}, 'id': 'blueberries', 'src': '/static/foodstim60/blueberries.jpg', 'key': 'i', 'origWidth': 411, 'origHeight': 411, 'width': 411, 'height': 411, 'widthPercent': 0.45, 'rescaleHeight': False, 'trialN': 60, 'loaded': True, 'loadedTime': 106099.60000000149, 'positionName': 'RIGHT', 'positionCoords': [665.6, 194.5], 'bid': 3.03}]",106096.5,1669830750304,cantaloupe,blueberries,0.73,3.03,2.3,blueberries,1647.3999999985099,1650,1649.3999999985099,True,i,108246.39999999851,2149.89999999851,1669830752454,2150,HRV,HRV_0138,2022-11-30 17:56:41
61,"[{'imgObject': {}, 'id': 'burger', 'src': '/static/foodstim60/burger.jpg', 'key': 'u', 'origWidth': 409, 'origHeight': 409, 'width': 409, 'height': 409, 'widthPercent': 0.45, 'rescaleHeight': False, 'trialN': 61, 'loaded': True, 'loadedTime': 108251.30000000447, 'positionName': 'LEFT', 'positionCoords': [205.4, 195.5], 'bid': 5.34}, {'imgObject': {}, 'id': 'hashbrowns', 'src': '/static/foodstim60/hashbrowns.jpg', 'key': 'i', 'origWidth': 411, 'origHeight': 410, 'width': 411, 'height': 410, 'widthPercent': 0.45, 'rescaleHeight': False, 'trialN': 61, 'loaded': True, 'loadedTime': 108251.70000000298, 'positionName': 'RIGHT', 'positionCoords': [665.6, 195], 'bid': 4.54}]",108246.89999999851,1669830752455,burger,hashbrowns,5.34,4.54,-0.7999999999999998,burger,1249.9000000059605,1253,1253.3000000044703,True,u,110005.30000000447,1758.4000000059605,1669830754213,1758,HRV,HRV_0138,2022-11-30 17:56:41
62,"[{'imgObject': {}, 'id': 'orange slices', 'src': '/static/foodstim60/orange slices.jpg', 'key': 'u', 'origWidth': 409, 'origHeight': 410, 'width': 409, 'height': 410, 'widthPercent': 0.45, 'rescaleHeight': False, 'trialN': 62, 'loaded': True, 'loadedTime': 110010.10000000149, 'positionName': 'LEFT', 'positionCoords': [205.4, 195], 'bid': 8.09}, {'imgObject': {}, 'id': 'turkeysandwich', 'src': '/static/foodstim60/turkeysandwich.jpg', 'key': 'i', 'origWidth': 409, 'origHeight': 409, 'width': 409, 'height': 409, 'widthPercent': 0.45, 'rescaleHeight': False, 'trialN': 62, 'loaded': True, 'loadedTime': 110010.60000000149, 'positionName': 'RIGHT', 'positionCoords': [665.6, 195.5], 'bid': 5.84}]",110005.89999999851,1669830754214,orange slices,turkeysandwich,8.09,5.84,-2.25,orange slices,1369.9000000059605,1373,1373.6000000014901,True,u,111887.60000000149,1881.7000000029802,1669830756096,1882,HRV,HRV_0138,2022-11-30 17:56:41
63,"[{'imgObject': {}, 'id': 'orange slices', 'src': '/static/foodstim60/orange slices.jpg', 'key': 'u', 'origWidth': 409, 'origHeight': 410, 'width': 409, 'height': 410, 'widthPercent': 0.45, 'rescaleHeight': False, 'trialN': 63, 'loaded': True, 'loadedTime': 111890.39999999851, 'positionName': 'LEFT', 'positionCoords': [205.4, 195], 'bid': 8.09}, {'imgObject': {}, 'id': 'steak', 'src': '/static/foodstim60/steak.jpg', 'key': 'i', 'origWidth': 410, 'origHeight': 410, 'width': 410, 'height': 410, 'widthPercent': 0.45, 'rescaleHeight': False, 'trialN': 63, 'loaded': True, 'loadedTime': 111890.5, 'positionName': 'RIGHT', 'positionCoords': [665.6, 195], 'bid': 8.5}]",111888.0,1669830756096,orange slices,steak,8.09,8.5,0.41000000000000014,steak,1041.8000000044703,1046,1045.6000000014901,True,i,113433.70000000298,1545.7000000029802,1669830757642,1546,HRV,HRV_0138,2022-11-30 17:56:41
64,"[{'imgObject': {}, 'id': 'cantaloupe', 'src': '/static/foodstim60/cantaloupe.jpg', 'key': 'u', 'origWidth': 409, 'origHeight': 409, 'width': 409, 'height': 409, 'widthPercent': 0.45, 'rescaleHeight': False, 'trialN': 64, 'loaded': True, 'loadedTime': 113438.39999999851, 'positionName': 'LEFT', 'positionCoords': [205.4, 195.5], 'bid': 0.73}, {'imgObject': {}, 'id': 'apple slices', 'src': '/static/foodstim60/apple slices.jpg', 'key': 'i', 'origWidth': 409, 'origHeight': 410, 'width': 409, 'height': 410, 'widthPercent': 0.45, 'rescaleHeight': False, 'trialN': 64, 'loaded': True, 'loadedTime': 113438.70000000298, 'positionName': 'RIGHT', 'positionCoords': [665.6, 195], 'bid': 4.79}]",113434.20000000298,1669830757642,cantaloupe,apple slices,0.73,4.79,4.0600000000000005,cantaloupe,1802,1804,1804.1000000014901,True,u,115741.60000000149,2307.39999999851,1669830759950,2308,HRV,HRV_0138,2022-11-30 17:56:41
65,"[{'imgObject': {}, 'id': 'raspberries', 'src': '/static/foodstim60/raspberries.jpg', 'key': 'u', 'origWidth': 411, 'origHeight': 411, 'width': 411, 'height': 411, 'widthPercent': 0.45, 'rescaleHeight': False, 'trialN': 65, 'loaded': True, 'loadedTime': 115747.5, 'positionName': 'LEFT', 'positionCoords': [203.4, 194.5], 'bid': 2.09}, {'imgObject': {}, 'id': 'shreddedwheatwithmilk', 'src': '/static/foodstim60/shreddedwheatwithmilk.jpg', 'key': 'i', 'origWidth': 410, 'origHeight': 410, 'width': 410, 'height': 410, 'widthPercent': 0.45, 'rescaleHeight': False, 'trialN': 65, 'loaded': True, 'loadedTime': 115747.70000000298, 'positionName': 'RIGHT', 'positionCoords': [665.6, 195], 'bid': 7.37}]",115742.20000000298,1669830759950,raspberries,shreddedwheatwithmilk,2.09,7.37,5.28,shreddedwheatwithmilk,1721.3999999985099,1725,1724.6999999955297,True,i,117972.0,2229.7999999970198,1669830762180,2230,HRV,HRV_0138,2022-11-30 17:56:41
66,"[{'imgObject': {}, 'id': 'salmon', 'src': '/static/foodstim60/salmon.jpg', 'key': 'u', 'origWidth': 410, 'origHeight': 409, 'width': 410, 'height': 409, 'widthPercent': 0.45, 'rescaleHeight': False, 'trialN': 66, 'loaded': True, 'loadedTime': 117977.20000000298, 'positionName': 'LEFT', 'positionCoords': [204.4, 195.5], 'bid': 5.87}, {'imgObject': {}, 'id': 'Grapes', 'src': '/static/foodstim60/Grapes.jpg', 'key': 'i', 'origWidth': 411, 'origHeight': 411, 'width': 411, 'height': 411, 'widthPercent': 0.45, 'rescaleHeight': False, 'trialN': 66, 'loaded': True, 'loadedTime': 117977.39999999851, 'positionName': 'RIGHT', 'positionCoords': [665.6, 194.5], 'bid': 8.09}]",117972.60000000149,1669830762181,salmon,Grapes,5.87,8.09,2.2199999999999998,Grapes,1447.7999999970198,1451,1451.5,True,i,119926.80000000447,1954.2000000029802,1669830764135,1954,HRV,HRV_0138,2022-11-30 17:56:41
67,"[{'imgObject': {}, 'id': 'bagel and cc', 'src': '/static/foodstim60/bagel and cc.jpg', 'key': 'u', 'origWidth': 410, 'origHeight': 410, 'width': 410, 'height': 410, 'widthPercent': 0.45, 'rescaleHeight': False, 'trialN': 67, 'loaded': True, 'loadedTime': 119932, 'positionName': 'LEFT', 'positionCoords': [204.4, 195], 'bid': 7.930000000000001}, {'imgObject': {}, 'id': 'Grapes', 'src': '/static/foodstim60/Grapes.jpg', 'key': 'i', 'origWidth': 411, 'origHeight': 411, 'width': 411, 'height': 411, 'widthPercent': 0.45, 'rescaleHeight': False, 'trialN': 67, 'loaded': True, 'loadedTime': 119932.20000000298, 'positionName': 'RIGHT', 'positionCoords': [665.6, 194.5], 'bid': 8.09}]",119927.39999999851,1669830764136,bagel and cc,Grapes,7.930000000000001,8.09,0.15999999999999925,Grapes,922.8000000044703,924,924.7000000029802,True,i,121355.70000000298,1428.3000000044703,1669830765564,1428,HRV,HRV_0138,2022-11-30 17:56:41
68,"[{'imgObject': {}, 'id': 'hotdog w must', 'src': '/static/foodstim60/hotdog w must.jpg', 'key': 'u', 'origWidth': 409, 'origHeight': 409, 'width': 409, 'height': 409, 'widthPercent': 0.45, 'rescaleHeight': False, 'trialN': 68, 'loaded': True, 'loadedTime': 121361.10000000149, 'positionName': 'LEFT', 'positionCoords': [205.4, 195.5], 'bid': 7.09}, {'imgObject': {}, 'id': 'grilled chicken strips', 'src': '/static/foodstim60/grilled chicken strips.jpg', 'key': 'i', 'origWidth': 410, 'origHeight': 411, 'width': 410, 'height': 411, 'widthPercent': 0.45, 'rescaleHeight': False, 'trialN': 68, 'loaded': True, 'loadedTime': 121361.39999999851, 'positionName': 'RIGHT', 'positionCoords': [665.6, 194.5], 'bid': 7.29}]",121356.30000000447,1669830765565,hotdog w must,grilled chicken strips,7.09,7.29,0.20000000000000018,grilled chicken strips,1187.8999999985099,1192,1192.0999999940395,True,i,123052.60000000149,1696.2999999970198,1669830767261,1696,HRV,HRV_0138,2022-11-30 17:56:41
69,"[{'imgObject': {}, 'id': 'sushi w_condiments', 'src': '/static/foodstim60/sushi w_condiments.jpg', 'key': 'u', 'origWidth': 410, 'origHeight': 410, 'width': 410, 'height': 410, 'widthPercent': 0.45, 'rescaleHeight': False, 'trialN': 69, 'loaded': True, 'loadedTime': 123057.70000000298, 'positionName': 'LEFT', 'positionCoords': [204.4, 195], 'bid': 0.67}, {'imgObject': {}, 'id': 'turkeysandwich', 'src': '/static/foodstim60/turkeysandwich.jpg', 'key': 'i', 'origWidth': 409, 'origHeight': 409, 'width': 409, 'height': 409, 'widthPercent': 0.45, 'rescaleHeight': False, 'trialN': 69, 'loaded': True, 'loadedTime': 123058, 'positionName': 'RIGHT', 'positionCoords': [665.6, 195.5], 'bid': 5.84}]",123053.20000000298,1669830767262,sushi w_condiments,turkeysandwich,0.67,5.84,5.17,turkeysandwich,1497.8999999985099,1500,1500.6999999955297,True,i,125054.10000000149,2000.8999999985099,1669830769263,2001,HRV,HRV_0138,2022-11-30 17:56:41
70,"[{'imgObject': {}, 'id': 'turkeysandwich', 'src': '/static/foodstim60/turkeysandwich.jpg', 'key': 'u', 'origWidth': 409, 'origHeight': 409, 'width': 409, 'height': 409, 'widthPercent': 0.45, 'rescaleHeight': False, 'trialN': 70, 'loaded': True, 'loadedTime': 125058.10000000149, 'positionName': 'LEFT', 'positionCoords': [205.4, 195.5], 'bid': 5.84}, {'imgObject': {}, 'id': 'salmon', 'src': '/static/foodstim60/salmon.jpg', 'key': 'i', 'origWidth': 410, 'origHeight': 409, 'width': 410, 'height': 409, 'widthPercent': 0.45, 'rescaleHeight': False, 'trialN': 70, 'loaded': True, 'loadedTime': 125058.30000000447, 'positionName': 'RIGHT', 'positionCoords': [665.6, 195.5], 'bid': 5.87}]",125054.60000000149,1669830769263,turkeysandwich,salmon,5.84,5.87,0.03000000000000025,salmon,1284.3999999985099,1288,1287.7999999970198,True,i,126843.0,1788.3999999985099,1669830771052,1789,HRV,HRV_0138,2022-11-30 17:56:41
71,"[{'imgObject': {}, 'id': 'steak', 'src': '/static/foodstim60/steak.jpg', 'key': 'u', 'origWidth': 410, 'origHeight': 410, 'width': 410, 'height': 410, 'widthPercent': 0.45, 'rescaleHeight': False, 'trialN': 71, 'loaded': True, 'loadedTime': 126846.70000000298, 'positionName': 'LEFT', 'positionCoords': [204.4, 195], 'bid': 8.5}, {'imgObject': {}, 'id': 'fried eggs', 'src': '/static/foodstim60/fried eggs.jpg', 'key': 'i', 'origWidth': 410, 'origHeight': 410, 'width': 410, 'height': 410, 'widthPercent': 0.45, 'rescaleHeight': False, 'trialN': 71, 'loaded': True, 'loadedTime': 126847.20000000298, 'positionName': 'RIGHT', 'positionCoords': [665.6, 195], 'bid': 8.4}]",126843.39999999851,1669830771052,steak,fried eggs,8.5,8.4,-0.09999999999999964,fried eggs,1484.3000000044703,1487,1487.1000000014901,True,i,128832.0,1988.6000000014901,1669830773041,1989,HRV,HRV_0138,2022-11-30 17:56:41
72,"[{'imgObject': {}, 'id': 'turkey sandwich', 'src': '/static/foodstim60/turkey sandwich.jpg', 'key': 'u', 'origWidth': 409, 'origHeight': 409, 'width': 409, 'height': 409, 'widthPercent': 0.45, 'rescaleHeight': False, 'trialN': 72, 'loaded': True, 'loadedTime': 128835.60000000149, 'positionName': 'LEFT', 'positionCoords': [205.4, 195.5], 'bid': 5.34}, {'imgObject': {}, 'id': 'luckycharms', 'src': '/static/foodstim60/luckycharms.jpg', 'key': 'i', 'origWidth': 410, 'origHeight': 409, 'width': 410, 'height': 409, 'widthPercent': 0.45, 'rescaleHeight': False, 'trialN': 72, 'loaded': True, 'loadedTime': 128835.70000000298, 'positionName': 'RIGHT', 'positionCoords': [665.6, 195.5], 'bid': 5.23}]",128832.60000000149,1669830773041,turkey sandwich,luckycharms,5.34,5.23,-0.10999999999999943,luckycharms,1517.2999999970198,1521,1520.5,True,i,130855.39999999851,2022.7999999970198,1669830775064,2023,HRV,HRV_0138,2022-11-30 17:56:41
73,"[{'imgObject': {}, 'id': 'rigatoni', 'src': '/static/foodstim60/rigatoni.jpg', 'key': 'u', 'origWidth': 411, 'origHeight': 411, 'width': 411, 'height': 411, 'widthPercent': 0.45, 'rescaleHeight': False, 'trialN': 73, 'loaded': True, 'loadedTime': 130860.5, 'positionName': 'LEFT', 'positionCoords': [203.4, 194.5], 'bid': 7.79}, {'imgObject': {}, 'id': 'eggsalad', 'src': '/static/foodstim60/eggsalad.jpg', 'key': 'i', 'origWidth': 410, 'origHeight': 409, 'width': 410, 'height': 409, 'widthPercent': 0.45, 'rescaleHeight': False, 'trialN': 73, 'loaded': True, 'loadedTime': 130860.80000000447, 'positionName': 'RIGHT', 'positionCoords': [665.6, 195.5], 'bid': 5.59}]",130856.0,1669830775065,rigatoni,eggsalad,7.79,5.59,-2.2,eggsalad,1233.6000000014901,1235,1235.7000000029802,True,i,132596.80000000447,1740.8000000044703,1669830776805,1740,HRV,HRV_0138,2022-11-30 17:56:41
74,"[{'imgObject': {}, 'id': 'luckycharms', 'src': '/static/foodstim60/luckycharms.jpg', 'key': 'u', 'origWidth': 410, 'origHeight': 409, 'width': 410, 'height': 409, 'widthPercent': 0.45, 'rescaleHeight': False, 'trialN': 74, 'loaded': True, 'loadedTime': 132601.80000000447, 'positionName': 'LEFT', 'positionCoords': [204.4, 195.5], 'bid': 5.23}, {'imgObject': {}, 'id': 'burger', 'src': '/static/foodstim60/burger.jpg', 'key': 'i', 'origWidth': 409, 'origHeight': 409, 'width': 409, 'height': 409, 'widthPercent': 0.45, 'rescaleHeight': False, 'trialN': 74, 'loaded': True, 'loadedTime': 132602.20000000298, 'positionName': 'RIGHT', 'positionCoords': [665.6, 195.5], 'bid': 5.34}]",132597.3999999985,1669830776806,luckycharms,burger,5.23,5.34,0.10999999999999943,burger,1534.1000000014901,1538,1537.4000000059605,True,i,134640.0,2042.6000000014901,1669830778849,2043,HRV,HRV_0138,2022-11-30 17:56:41
75,"[{'imgObject': {}, 'id': 'yogurt no spoon', 'src': '/static/foodstim60/yogurt no spoon.jpg', 'key': 'u', 'origWidth': 411, 'origHeight': 410, 'width': 411, 'height': 410, 'widthPercent': 0.45, 'rescaleHeight': False, 'trialN': 75, 'loaded': True, 'loadedTime': 134644.80000000447, 'positionName': 'LEFT', 'positionCoords': [203.4, 195], 'bid': 5.54}, {'imgObject': {}, 'id': 'cheerios', 'src': '/static/foodstim60/cheerios.jpg', 'key': 'i', 'origWidth': 409, 'origHeight': 410, 'width': 409, 'height': 410, 'widthPercent': 0.45, 'rescaleHeight': False, 'trialN': 75, 'loaded': True, 'loadedTime': 134645, 'positionName': 'RIGHT', 'positionCoords': [665.6, 195], 'bid': 7.6}]",134640.5,1669830778849,yogurt no spoon,cheerios,5.54,7.6,2.0599999999999996,cheerios,1431.8000000044703,1434,1434.1000000014901,True,i,136578.30000000447,1937.8000000044703,1669830780787,1938,HRV,HRV_0138,2022-11-30 17:56:41
76,"[{'imgObject': {}, 'id': 'eggs', 'src': '/static/foodstim60/eggs.jpg', 'key': 'u', 'origWidth': 409, 'origHeight': 409, 'width': 409, 'height': 409, 'widthPercent': 0.45, 'rescaleHeight': False, 'trialN': 76, 'loaded': True, 'loadedTime': 136580.70000000298, 'positionName': 'LEFT', 'positionCoords': [205.4, 195.5], 'bid': 5.23}, {'imgObject': {}, 'id': 'bagel plain', 'src': '/static/foodstim60/bagel plain.jpg', 'key': 'i', 'origWidth': 410, 'origHeight': 410, 'width': 410, 'height': 410, 'widthPercent': 0.45, 'rescaleHeight': False, 'trialN': 76, 'loaded': True, 'loadedTime': 136580.8999999985, 'positionName': 'RIGHT', 'positionCoords': [665.6, 195], 'bid': 8.56}]",136578.6000000015,1669830780787,eggs,bagel plain,5.23,8.56,3.33,eggs,1424.7000000029802,1428,1427.6000000014901,True,u,138508.70000000298,1930.1000000014901,1669830782718,1931,HRV,HRV_0138,2022-11-30 17:56:41
77,"[{'imgObject': {}, 'id': 'roastedpotatoes', 'src': '/static/foodstim60/roastedpotatoes.jpg', 'key': 'u', 'origWidth': 409, 'origHeight': 410, 'width': 409, 'height': 410, 'widthPercent': 0.45, 'rescaleHeight': False, 'trialN': 77, 'loaded': True, 'loadedTime': 138511.70000000298, 'positionName': 'LEFT', 'positionCoords': [205.4, 195], 'bid': 7.32}, {'imgObject': {}, 'id': 'chicken nuggets2', 'src': '/static/foodstim60/chicken nuggets2.jpg', 'key': 'i', 'origWidth': 410, 'origHeight': 409, 'width': 410, 'height': 409, 'widthPercent': 0.45, 'rescaleHeight': False, 'trialN': 77, 'loaded': True, 'loadedTime': 138512.1000000015, 'positionName': 'RIGHT', 'positionCoords': [665.6, 195.5], 'bid': 8.32}]",138509.0,1669830782718,roastedpotatoes,chicken nuggets2,7.32,8.32,1.0,roastedpotatoes,1495.2000000029802,1498,1497.8999999985099,True,u,140510.20000000298,2001.2000000029802,1669830784719,2001,HRV,HRV_0138,2022-11-30 17:56:41
78,"[{'imgObject': {}, 'id': 'tacos', 'src': '/static/foodstim60/tacos.jpg', 'key': 'u', 'origWidth': 411, 'origHeight': 411, 'width': 411, 'height': 411, 'widthPercent': 0.45, 'rescaleHeight': False, 'trialN': 78, 'loaded': True, 'loadedTime': 140515.1000000015, 'positionName': 'LEFT', 'positionCoords': [203.4, 194.5], 'bid': 4.9}, {'imgObject': {}, 'id': 'cherries', 'src': '/static/foodstim60/cherries.jpg', 'key': 'i', 'origWidth': 410, 'origHeight': 411, 'width': 410, 'height': 411, 'widthPercent': 0.45, 'rescaleHeight': False, 'trialN': 78, 'loaded': True, 'loadedTime': 140515.30000000447, 'positionName': 'RIGHT', 'positionCoords': [665.6, 194.5], 'bid': 0.81}]",140510.80000000447,1669830784720,tacos,cherries,4.9,0.81,-4.09,tacos,1954.2999999970198,1958,1957.8999999985099,True,u,142969.20000000298,2458.39999999851,1669830787178,2458,HRV,HRV_0138,2022-11-30 17:56:41
79,"[{'imgObject': {}, 'id': 'orange slices', 'src': '/static/foodstim60/orange slices.jpg', 'key': 'u', 'origWidth': 409, 'origHeight': 410, 'width': 409, 'height': 410, 'widthPercent': 0.45, 'rescaleHeight': False, 'trialN': 79, 'loaded': True, 'loadedTime': 142973.8999999985, 'positionName': 'LEFT', 'positionCoords': [205.4, 195], 'bid': 8.09}, {'imgObject': {}, 'id': 'rigatoni and sauce', 'src': '/static/foodstim60/rigatoni and sauce.jpg', 'key': 'i', 'origWidth': 410, 'origHeight': 411, 'width': 410, 'height': 411, 'widthPercent': 0.45, 'rescaleHeight': False, 'trialN': 79, 'loaded': True, 'loadedTime': 142974.1000000015, 'positionName': 'RIGHT', 'positionCoords': [665.6, 194.5], 'bid': 8.28}]",142969.6000000015,1669830787179,orange slices,rigatoni and sauce,8.09,8.28,0.1899999999999995,orange slices,1772.2999999970198,1776,1776.1000000014901,True,u,145248.0,2278.39999999851,1669830789457,2278,HRV,HRV_0138,2022-11-30 17:56:41
80,"[{'imgObject': {}, 'id': 'avocado', 'src': '/static/foodstim60/avocado.jpg', 'key': 'u', 'origWidth': 409, 'origHeight': 409, 'width': 409, 'height': 409, 'widthPercent': 0.45, 'rescaleHeight': False, 'trialN': 80, 'loaded': True, 'loadedTime': 145253.8999999985, 'positionName': 'LEFT', 'positionCoords': [205.4, 195.5], 'bid': 0.64}, {'imgObject': {}, 'id': 'ice cream sundae 002', 'src': '/static/foodstim60/ice cream sundae 002.jpg', 'key': 'i', 'origWidth': 409, 'origHeight': 409, 'width': 409, 'height': 409, 'widthPercent': 0.45, 'rescaleHeight': False, 'trialN': 80, 'loaded': True, 'loadedTime': 145254.1000000015, 'positionName': 'RIGHT', 'positionCoords': [665.6, 195.5], 'bid': 3.35}]",145248.5,1669830789458,avocado,ice cream sundae 002,0.64,3.35,2.71,ice cream sundae 002,1503.8999999985099,1506,1506.1000000014901,True,i,147258.20000000298,2009.7000000029802,1669830791467,2009,HRV,HRV_0138,2022-11-30 17:56:41
81,"[{'imgObject': {}, 'id': 'bagel and cc', 'src': '/static/foodstim60/bagel and cc.jpg', 'key': 'u', 'origWidth': 410, 'origHeight': 410, 'width': 410, 'height': 410, 'widthPercent': 0.45, 'rescaleHeight': False, 'trialN': 81, 'loaded': True, 'loadedTime': 147262.8999999985, 'positionName': 'LEFT', 'positionCoords': [204.4, 195], 'bid': 7.930000000000001}, {'imgObject': {}, 'id': 'pear', 'src': '/static/foodstim60/pear.jpg', 'key': 'i', 'origWidth': 411, 'origHeight': 410, 'width': 411, 'height': 410, 'widthPercent': 0.45, 'rescaleHeight': False, 'trialN': 81, 'loaded': True, 'loadedTime': 147263.20000000298, 'positionName': 'RIGHT', 'positionCoords': [665.6, 195], 'bid': 5.62}]",147258.6000000015,1669830791468,bagel and cc,pear,7.930000000000001,5.62,-2.3100000000000005,bagel and cc,1385.2000000029802,1388,1388.3999999985099,True,u,149151.1000000015,1892.5,1669830793360,1892,HRV,HRV_0138,2022-11-30 17:56:41
82,"[{'imgObject': {}, 'id': 'yogurt no spoon', 'src': '/static/foodstim60/yogurt no spoon.jpg', 'key': 'u', 'origWidth': 411, 'origHeight': 410, 'width': 411, 'height': 410, 'widthPercent': 0.45, 'rescaleHeight': False, 'trialN': 82, 'loaded': True, 'loadedTime': 149154.5, 'positionName': 'LEFT', 'positionCoords': [203.4, 195], 'bid': 5.54}, {'imgObject': {}, 'id': 'burger', 'src': '/static/foodstim60/burger.jpg', 'key': 'i', 'origWidth': 409, 'origHeight': 409, 'width': 409, 'height': 409, 'widthPercent': 0.45, 'rescaleHeight': False, 'trialN': 82, 'loaded': True, 'loadedTime': 149154.8999999985, 'positionName': 'RIGHT', 'positionCoords': [665.6, 195.5], 'bid': 5.34}]",149151.5,1669830793361,yogurt no spoon,burger,5.54,5.34,-0.20000000000000018,burger,1136.2000000029802,1139,1139.5,True,i,150796.1000000015,1644.6000000014901,1669830795005,1644,HRV,HRV_0138,2022-11-30 17:56:41
83,"[{'imgObject': {}, 'id': 'grilled chicken strips', 'src': '/static/foodstim60/grilled chicken strips.jpg', 'key': 'u', 'origWidth': 410, 'origHeight': 411, 'width': 410, 'height': 411, 'widthPercent': 0.45, 'rescaleHeight': False, 'trialN': 83, 'loaded': True, 'loadedTime': 150800.8999999985, 'positionName': 'LEFT', 'positionCoords': [204.4, 194.5], 'bid': 7.29}, {'imgObject': {}, 'id': 'olives', 'src': '/static/foodstim60/olives.jpg', 'key': 'i', 'origWidth': 410, 'origHeight': 410, 'width': 410, 'height': 410, 'widthPercent': 0.45, 'rescaleHeight': False, 'trialN': 83, 'loaded': True, 'loadedTime': 150801.3999999985, 'positionName': 'RIGHT', 'positionCoords': [665.6, 195], 'bid': 1.39}]",150796.6000000015,1669830795006,grilled chicken strips,olives,7.29,1.39,-5.9,grilled chicken strips,843,845,845.2999999970198,True,u,152146.30000000447,1349.7000000029802,1669830796356,1350,HRV,HRV_0138,2022-11-30 17:56:41
84,"[{'imgObject': {}, 'id': 'turkey sandwich', 'src': '/static/foodstim60/turkey sandwich.jpg', 'key': 'u', 'origWidth': 409, 'origHeight': 409, 'width': 409, 'height': 409, 'widthPercent': 0.45, 'rescaleHeight': False, 'trialN': 84, 'loaded': True, 'loadedTime': 152152.1000000015, 'positionName': 'LEFT', 'positionCoords': [205.4, 195.5], 'bid': 5.34}, {'imgObject': {}, 'id': 'raspberries', 'src': '/static/foodstim60/raspberries.jpg', 'key': 'i', 'origWidth': 411, 'origHeight': 411, 'width': 411, 'height': 411, 'widthPercent': 0.45, 'rescaleHeight': False, 'trialN': 84, 'loaded': True, 'loadedTime': 152152.5, 'positionName': 'RIGHT', 'positionCoords': [665.6, 194.5], 'bid': 2.09}]",152146.80000000447,1669830796356,turkey sandwich,raspberries,5.34,2.09,-3.25,raspberries,1537.5,1540,1539.6999999955297,True,i,154187.8999999985,2041.0999999940395,1669830798397,2041,HRV,HRV_0138,2022-11-30 17:56:41
85,"[{'imgObject': {}, 'id': 'cherries', 'src': '/static/foodstim60/cherries.jpg', 'key': 'u', 'origWidth': 410, 'origHeight': 411, 'width': 410, 'height': 411, 'widthPercent': 0.45, 'rescaleHeight': False, 'trialN': 85, 'loaded': True, 'loadedTime': 154192.30000000447, 'positionName': 'LEFT', 'positionCoords': [204.4, 194.5], 'bid': 0.81}, {'imgObject': {}, 'id': 'seaweed', 'src': '/static/foodstim60/seaweed.jpg', 'key': 'i', 'origWidth': 410, 'origHeight': 410, 'width': 410, 'height': 410, 'widthPercent': 0.45, 'rescaleHeight': False, 'trialN': 85, 'loaded': True, 'loadedTime': 154192.6000000015, 'positionName': 'RIGHT', 'positionCoords': [665.6, 195], 'bid': 0.28}]",154188.5,1669830798398,cherries,seaweed,0.81,0.28,-0.53,cherries,2298.8000000044703,2302,2302.60000000149,True,u,156993.30000000447,2804.8000000044703,1669830801203,2805,HRV,HRV_0138,2022-11-30 17:56:41
86,"[{'imgObject': {}, 'id': 'baked potato', 'src': '/static/foodstim60/baked potato.jpg', 'key': 'u', 'origWidth': 409, 'origHeight': 410, 'width': 409, 'height': 410, 'widthPercent': 0.45, 'rescaleHeight': False, 'trialN': 86, 'loaded': True, 'loadedTime': 156996.5, 'positionName': 'LEFT', 'positionCoords': [205.4, 195], 'bid': 7.43}, {'imgObject': {}, 'id': 'rigatoni', 'src': '/static/foodstim60/rigatoni.jpg', 'key': 'i', 'origWidth': 411, 'origHeight': 411, 'width': 411, 'height': 411, 'widthPercent': 0.45, 'rescaleHeight': False, 'trialN': 86, 'loaded': True, 'loadedTime': 156997.1000000015, 'positionName': 'RIGHT', 'positionCoords': [665.6, 194.5], 'bid': 7.79}]",156993.6000000015,1669830801203,baked potato,rigatoni,7.43,7.79,0.3600000000000003,baked potato,1404.3999999985099,1407,1406.8999999985099,True,u,158900.70000000298,1907.1000000014901,1669830803110,1907,HRV,HRV_0138,2022-11-30 17:56:41
87,"[{'imgObject': {}, 'id': 'burrito', 'src': '/static/foodstim60/burrito.jpg', 'key': 'u', 'origWidth': 410, 'origHeight': 410, 'width': 410, 'height': 410, 'widthPercent': 0.45, 'rescaleHeight': False, 'trialN': 87, 'loaded': True, 'loadedTime': 158903.70000000298, 'positionName': 'LEFT', 'positionCoords': [204.4, 195], 'bid': 8.73}, {'imgObject': {}, 'id': 'rigatoni', 'src': '/static/foodstim60/rigatoni.jpg', 'key': 'i', 'origWidth': 411, 'origHeight': 411, 'width': 411, 'height': 411, 'widthPercent': 0.45, 'rescaleHeight': False, 'trialN': 87, 'loaded': True, 'loadedTime': 158904.1000000015, 'positionName': 'RIGHT', 'positionCoords': [665.6, 194.5], 'bid': 7.79}]",158901.0,1669830803110,burrito,rigatoni,8.73,7.79,-0.9400000000000004,burrito,1166.1000000014901,1170,1169.3000000044703,True,u,160571.30000000447,1670.3000000044703,1669830804781,1671,HRV,HRV_0138,2022-11-30 17:56:41
88,"[{'imgObject': {}, 'id': 'pear', 'src': '/static/foodstim60/pear.jpg', 'key': 'u', 'origWidth': 411, 'origHeight': 410, 'width': 411, 'height': 410, 'widthPercent': 0.45, 'rescaleHeight': False, 'trialN': 88, 'loaded': True, 'loadedTime': 160576.5, 'positionName': 'LEFT', 'positionCoords': [203.4, 195], 'bid': 5.62}, {'imgObject': {}, 'id': 'omelette', 'src': '/static/foodstim60/omelette.jpg', 'key': 'i', 'origWidth': 410, 'origHeight': 409, 'width': 410, 'height': 409, 'widthPercent': 0.45, 'rescaleHeight': False, 'trialN': 88, 'loaded': True, 'loadedTime': 160576.8999999985, 'positionName': 'RIGHT', 'positionCoords': [665.6, 195.5], 'bid': 5.23}]",160571.8999999985,1669830804781,pear,omelette,5.62,5.23,-0.3899999999999997,omelette,1279.1000000014901,1283,1282.2000000029802,True,i,162354.80000000447,1782.9000000059605,1669830806564,1783,HRV,HRV_0138,2022-11-30 17:56:41
89,"[{'imgObject': {}, 'id': 'rigatoni', 'src': '/static/foodstim60/rigatoni.jpg', 'key': 'u', 'origWidth': 411, 'origHeight': 411, 'width': 411, 'height': 411, 'widthPercent': 0.45, 'rescaleHeight': False, 'trialN': 89, 'loaded': True, 'loadedTime': 162357.70000000298, 'positionName': 'LEFT', 'positionCoords': [203.4, 194.5], 'bid': 7.79}, {'imgObject': {}, 'id': 'cheerios', 'src': '/static/foodstim60/cheerios.jpg', 'key': 'i', 'origWidth': 409, 'origHeight': 410, 'width': 409, 'height': 410, 'widthPercent': 0.45, 'rescaleHeight': False, 'trialN': 89, 'loaded': True, 'loadedTime': 162357.80000000447, 'positionName': 'RIGHT', 'positionCoords': [665.6, 195], 'bid': 7.6}]",162355.1000000015,1669830806565,rigatoni,cheerios,7.79,7.6,-0.1900000000000004,rigatoni,1712.7999999970198,1716,1716.2000000029802,True,u,164573.70000000298,2218.60000000149,1669830808783,2218,HRV,HRV_0138,2022-11-30 17:56:41
90,"[{'imgObject': {}, 'id': 'raisin bran w milk', 'src': '/static/foodstim60/raisin bran w milk.jpg', 'key': 'u', 'origWidth': 411, 'origHeight': 411, 'width': 411, 'height': 411, 'widthPercent': 0.45, 'rescaleHeight': False, 'trialN': 90, 'loaded': True, 'loadedTime': 182565.1000000015, 'positionName': 'LEFT', 'positionCoords': [203.4, 194.5], 'bid': 6.95}, {'imgObject': {}, 'id': 'baked potato', 'src': '/static/foodstim60/baked potato.jpg', 'key': 'i', 'origWidth': 409, 'origHeight': 410, 'width': 409, 'height': 410, 'widthPercent': 0.45, 'rescaleHeight': False, 'trialN': 90, 'loaded': True, 'loadedTime': 182565.30000000447, 'positionName': 'RIGHT', 'positionCoords': [665.6, 195], 'bid': 7.43}]",182563.30000000447,1669830826773,raisin bran w milk,baked potato,6.95,7.43,0.47999999999999954,raisin bran w milk,1081.6999999955297,1087,1086.6999999955297,True,u,184153.0,1589.6999999955297,1669830828363,1590,HRV,HRV_0138,2022-11-30 17:56:41
91,"[{'imgObject': {}, 'id': 'froot loops w milk', 'src': '/static/foodstim60/froot loops w milk.jpg', 'key': 'u', 'origWidth': 410, 'origHeight': 410, 'width': 410, 'height': 410, 'widthPercent': 0.45, 'rescaleHeight': False, 'trialN': 91, 'loaded': True, 'loadedTime': 184156.20000000298, 'positionName': 'LEFT', 'positionCoords': [204.4, 195], 'bid': 5.1000000000000005}, {'imgObject': {}, 'id': 'steak', 'src': '/static/foodstim60/steak.jpg', 'key': 'i', 'origWidth': 410, 'origHeight': 410, 'width': 410, 'height': 410, 'widthPercent': 0.45, 'rescaleHeight': False, 'trialN': 91, 'loaded': True, 'loadedTime': 184156.6000000015, 'positionName': 'RIGHT', 'positionCoords': [665.6, 195], 'bid': 8.5}]",184153.30000000447,1669830828364,froot loops w milk,steak,5.1000000000000005,8.5,3.3999999999999995,steak,853.6999999955297,855,855.6999999955297,True,i,185514.20000000298,1360.8999999985099,1669830829724,1360,HRV,HRV_0138,2022-11-30 17:56:41
92,"[{'imgObject': {}, 'id': 'yogurt no spoon', 'src': '/static/foodstim60/yogurt no spoon.jpg', 'key': 'u', 'origWidth': 411, 'origHeight': 410, 'width': 411, 'height': 410, 'widthPercent': 0.45, 'rescaleHeight': False, 'trialN': 92, 'loaded': True, 'loadedTime': 185518.8999999985, 'positionName': 'LEFT', 'positionCoords': [203.4, 195], 'bid': 5.54}, {'imgObject': {}, 'id': 'seaweed', 'src': '/static/foodstim60/seaweed.jpg', 'key': 'i', 'origWidth': 410, 'origHeight': 410, 'width': 410, 'height': 410, 'widthPercent': 0.45, 'rescaleHeight': False, 'trialN': 92, 'loaded': True, 'loadedTime': 185519.5, 'positionName': 'RIGHT', 'positionCoords': [665.6, 195], 'bid': 0.28}]",185514.70000000298,1669830829725,yogurt no spoon,seaweed,5.54,0.28,-5.26,yogurt no spoon,1826.1000000014901,1829,1829.1000000014901,True,u,187849.0,2334.2999999970198,1669830832059,2334,HRV,HRV_0138,2022-11-30 17:56:41
93,"[{'imgObject': {}, 'id': 'apple slices', 'src': '/static/foodstim60/apple slices.jpg', 'key': 'u', 'origWidth': 409, 'origHeight': 410, 'width': 409, 'height': 410, 'widthPercent': 0.45, 'rescaleHeight': False, 'trialN': 93, 'loaded': True, 'loadedTime': 187853.70000000298, 'positionName': 'LEFT', 'positionCoords': [205.4, 195], 'bid': 4.79}, {'imgObject': {}, 'id': 'cherry tomato', 'src': '/static/foodstim60/cherry tomato.jpg', 'key': 'i', 'origWidth': 410, 'origHeight': 410, 'width': 410, 'height': 410, 'widthPercent': 0.45, 'rescaleHeight': False, 'trialN': 93, 'loaded': True, 'loadedTime': 187854, 'positionName': 'RIGHT', 'positionCoords': [665.6, 195], 'bid': 5.01}]",187849.6000000015,1669830832060,apple slices,cherry tomato,4.79,5.01,0.21999999999999975,apple slices,978,980,980.2999999970198,True,u,189335.0,1485.3999999985099,1669830833545,1485,HRV,HRV_0138,2022-11-30 17:56:41
94,"[{'imgObject': {}, 'id': 'mango', 'src': '/static/foodstim60/mango.jpg', 'key': 'u', 'origWidth': 411, 'origHeight': 411, 'width': 411, 'height': 411, 'widthPercent': 0.45, 'rescaleHeight': False, 'trialN': 94, 'loaded': True, 'loadedTime': 189339.8999999985, 'positionName': 'LEFT', 'positionCoords': [203.4, 194.5], 'bid': 2.85}, {'imgObject': {}, 'id': 'baked potato', 'src': '/static/foodstim60/baked potato.jpg', 'key': 'i', 'origWidth': 409, 'origHeight': 410, 'width': 409, 'height': 410, 'widthPercent': 0.45, 'rescaleHeight': False, 'trialN': 94, 'loaded': True, 'loadedTime': 189340.1000000015, 'positionName': 'RIGHT', 'positionCoords': [665.6, 195], 'bid': 7.43}]",189335.6000000015,1669830833546,mango,baked potato,2.85,7.43,4.58,baked potato,2235.89999999851,2240,2239.89999999851,True,i,192076.30000000447,2740.7000000029802,1669830836287,2741,HRV,HRV_0138,2022-11-30 17:56:41
95,"[{'imgObject': {}, 'id': 'lox', 'src': '/static/foodstim60/lox.jpg', 'key': 'u', 'origWidth': 410, 'origHeight': 411, 'width': 410, 'height': 411, 'widthPercent': 0.45, 'rescaleHeight': False, 'trialN': 95, 'loaded': True, 'loadedTime': 192081, 'positionName': 'LEFT', 'positionCoords': [204.4, 194.5], 'bid': 3.14}, {'imgObject': {}, 'id': 'edamame', 'src': '/static/foodstim60/edamame.jpg', 'key': 'i', 'origWidth': 409, 'origHeight': 410, 'width': 409, 'height': 410, 'widthPercent': 0.45, 'rescaleHeight': False, 'trialN': 95, 'loaded': True, 'loadedTime': 192081.30000000447, 'positionName': 'RIGHT', 'positionCoords': [665.6, 195], 'bid': 0.46}]",192076.80000000447,1669830836287,lox,edamame,3.14,0.46,-2.68,lox,2359.6999999955297,2364,2363.2999999970198,True,u,194945.30000000447,2868.5,1669830839156,2869,HRV,HRV_0138,2022-11-30 17:56:41
96,"[{'imgObject': {}, 'id': 'eggsalad', 'src': '/static/foodstim60/eggsalad.jpg', 'key': 'u', 'origWidth': 410, 'origHeight': 409, 'width': 410, 'height': 409, 'widthPercent': 0.45, 'rescaleHeight': False, 'trialN': 96, 'loaded': True, 'loadedTime': 194950, 'positionName': 'LEFT', 'positionCoords': [204.4, 195.5], 'bid': 5.59}, {'imgObject': {}, 'id': 'turkeysandwich', 'src': '/static/foodstim60/turkeysandwich.jpg', 'key': 'i', 'origWidth': 409, 'origHeight': 409, 'width': 409, 'height': 409, 'widthPercent': 0.45, 'rescaleHeight': False, 'trialN': 96, 'loaded': True, 'loadedTime': 194950.5, 'positionName': 'RIGHT', 'positionCoords': [665.6, 195.5], 'bid': 5.84}]",194945.80000000447,1669830839156,eggsalad,turkeysandwich,5.59,5.84,0.25,eggsalad,1053.5999999940395,1057,1057.0,True,u,196507.80000000447,1562.0,1669830840718,1562,HRV,HRV_0138,2022-11-30 17:56:41
97,"[{'imgObject': {}, 'id': 'rigatoni and sauce', 'src': '/static/foodstim60/rigatoni and sauce.jpg', 'key': 'u', 'origWidth': 410, 'origHeight': 411, 'width': 410, 'height': 411, 'widthPercent': 0.45, 'rescaleHeight': False, 'trialN': 97, 'loaded': True, 'loadedTime': 196512, 'positionName': 'LEFT', 'positionCoords': [204.4, 194.5], 'bid': 8.28}, {'imgObject': {}, 'id': 'Grapes', 'src': '/static/foodstim60/Grapes.jpg', 'key': 'i', 'origWidth': 411, 'origHeight': 411, 'width': 411, 'height': 411, 'widthPercent': 0.45, 'rescaleHeight': False, 'trialN': 97, 'loaded': True, 'loadedTime': 196512.1000000015, 'positionName': 'RIGHT', 'positionCoords': [665.6, 194.5], 'bid': 8.09}]",196508.30000000447,1669830840719,rigatoni and sauce,Grapes,8.28,8.09,-0.1899999999999995,rigatoni and sauce,776.7999999970198,780,780.0,True,u,197790.3999999985,1282.0999999940395,1669830842001,1282,HRV,HRV_0138,2022-11-30 17:56:41
98,"[{'imgObject': {}, 'id': 'lox', 'src': '/static/foodstim60/lox.jpg', 'key': 'u', 'origWidth': 410, 'origHeight': 411, 'width': 410, 'height': 411, 'widthPercent': 0.45, 'rescaleHeight': False, 'trialN': 98, 'loaded': True, 'loadedTime': 197795.30000000447, 'positionName': 'LEFT', 'positionCoords': [204.4, 194.5], 'bid': 3.14}, {'imgObject': {}, 'id': 'salad w chicken', 'src': '/static/foodstim60/salad w chicken.jpg', 'key': 'i', 'origWidth': 411, 'origHeight': 411, 'width': 411, 'height': 411, 'widthPercent': 0.45, 'rescaleHeight': False, 'trialN': 98, 'loaded': True, 'loadedTime': 197795.6000000015, 'positionName': 'RIGHT', 'positionCoords': [665.6, 194.5], 'bid': 3.6}]",197791.0,1669830842002,lox,salad w chicken,3.14,3.6,0.45999999999999996,salad w chicken,1179.1000000014901,1183,1183.2000000029802,True,i,199478.20000000298,1687.2000000029802,1669830843689,1687,HRV,HRV_0138,2022-11-30 17:56:41
99,"[{'imgObject': {}, 'id': 'cantaloupe', 'src': '/static/foodstim60/cantaloupe.jpg', 'key': 'u', 'origWidth': 409, 'origHeight': 409, 'width': 409, 'height': 409, 'widthPercent': 0.45, 'rescaleHeight': False, 'trialN': 99, 'loaded': True, 'loadedTime': 199483.30000000447, 'positionName': 'LEFT', 'positionCoords': [205.4, 195.5], 'bid': 0.73}, {'imgObject': {}, 'id': 'sushi w_condiments', 'src': '/static/foodstim60/sushi w_condiments.jpg', 'key': 'i', 'origWidth': 410, 'origHeight': 410, 'width': 410, 'height': 410, 'widthPercent': 0.45, 'rescaleHeight': False, 'trialN': 99, 'loaded': True, 'loadedTime': 199483.6000000015, 'positionName': 'RIGHT', 'positionCoords': [665.6, 195], 'bid': 0.67}]",199478.70000000298,1669830843689,cantaloupe,sushi w_condiments,0.73,0.67,-0.05999999999999994,cantaloupe,1298.3999999985099,1302,1301.1999999955297,True,u,201282.30000000447,1803.6000000014901,1669830845493,1804,HRV,HRV_0138,2022-11-30 17:56:41
100,"[{'imgObject': {}, 'id': 'bagel and cc', 'src': '/static/foodstim60/bagel and cc.jpg', 'key': 'u', 'origWidth': 410, 'origHeight': 410, 'width': 410, 'height': 410, 'widthPercent': 0.45, 'rescaleHeight': False, 'trialN': 100, 'loaded': True, 'loadedTime': 201287.1000000015, 'positionName': 'LEFT', 'positionCoords': [204.4, 195], 'bid': 7.930000000000001}, {'imgObject': {}, 'id': 'fried eggs', 'src': '/static/foodstim60/fried eggs.jpg', 'key': 'i', 'origWidth': 410, 'origHeight': 410, 'width': 410, 'height': 410, 'widthPercent': 0.45, 'rescaleHeight': False, 'trialN': 100, 'loaded': True, 'loadedTime': 201287.3999999985, 'positionName': 'RIGHT', 'positionCoords': [665.6, 195], 'bid': 8.4}]",201282.80000000447,1669830845494,bagel and cc,fried eggs,7.930000000000001,8.4,0.46999999999999975,fried eggs,1282.1999999955297,1285,1285.5,True,i,203071.20000000298,1788.3999999985099,1669830847282,1788,HRV,HRV_0138,2022-11-30 17:56:41
101,"[{'imgObject': {}, 'id': 'cherry tomato', 'src': '/static/foodstim60/cherry tomato.jpg', 'key': 'u', 'origWidth': 410, 'origHeight': 410, 'width': 410, 'height': 410, 'widthPercent': 0.45, 'rescaleHeight': False, 'trialN': 101, 'loaded': True, 'loadedTime': 203075.70000000298, 'positionName': 'LEFT', 'positionCoords': [204.4, 195], 'bid': 5.01}, {'imgObject': {}, 'id': 'tacos', 'src': '/static/foodstim60/tacos.jpg', 'key': 'i', 'origWidth': 411, 'origHeight': 411, 'width': 411, 'height': 411, 'widthPercent': 0.45, 'rescaleHeight': False, 'trialN': 101, 'loaded': True, 'loadedTime': 203076, 'positionName': 'RIGHT', 'positionCoords': [665.6, 194.5], 'bid': 4.9}]",203071.70000000298,1669830847283,cherry tomato,tacos,5.01,4.9,-0.10999999999999943,tacos,1276,1278,1278.5,True,i,204850.8999999985,1779.1999999955297,1669830849062,1779,HRV,HRV_0138,2022-11-30 17:56:41
102,"[{'imgObject': {}, 'id': 'tacos', 'src': '/static/foodstim60/tacos.jpg', 'key': 'u', 'origWidth': 411, 'origHeight': 411, 'width': 411, 'height': 411, 'widthPercent': 0.45, 'rescaleHeight': False, 'trialN': 102, 'loaded': True, 'loadedTime': 204856.3999999985, 'positionName': 'LEFT', 'positionCoords': [203.4, 194.5], 'bid': 4.9}, {'imgObject': {}, 'id': 'eggsalad', 'src': '/static/foodstim60/eggsalad.jpg', 'key': 'i', 'origWidth': 410, 'origHeight': 409, 'width': 410, 'height': 409, 'widthPercent': 0.45, 'rescaleHeight': False, 'trialN': 102, 'loaded': True, 'loadedTime': 204856.70000000298, 'positionName': 'RIGHT', 'positionCoords': [665.6, 195.5], 'bid': 5.59}]",204851.5,1669830849062,tacos,eggsalad,4.9,5.59,0.6899999999999995,tacos,1465.3000000044703,1468,1467.5,True,u,206823.8999999985,1972.3999999985099,1669830851035,1973,HRV,HRV_0138,2022-11-30 17:56:41
103,"[{'imgObject': {}, 'id': 'mango', 'src': '/static/foodstim60/mango.jpg', 'key': 'u', 'origWidth': 411, 'origHeight': 411, 'width': 411, 'height': 411, 'widthPercent': 0.45, 'rescaleHeight': False, 'trialN': 103, 'loaded': True, 'loadedTime': 206828.8999999985, 'positionName': 'LEFT', 'positionCoords': [203.4, 194.5], 'bid': 2.85}, {'imgObject': {}, 'id': 'apple slices', 'src': '/static/foodstim60/apple slices.jpg', 'key': 'i', 'origWidth': 409, 'origHeight': 410, 'width': 409, 'height': 410, 'widthPercent': 0.45, 'rescaleHeight': False, 'trialN': 103, 'loaded': True, 'loadedTime': 206829.30000000447, 'positionName': 'RIGHT', 'positionCoords': [665.6, 195], 'bid': 4.79}]",206824.5,1669830851035,mango,apple slices,2.85,4.79,1.94,apple slices,926.2000000029802,929,928.3000000044703,True,i,208254.5,1430.0,1669830852466,1431,HRV,HRV_0138,2022-11-30 17:56:41
104,"[{'imgObject': {}, 'id': 'yogurt no spoon', 'src': '/static/foodstim60/yogurt no spoon.jpg', 'key': 'u', 'origWidth': 411, 'origHeight': 410, 'width': 411, 'height': 410, 'widthPercent': 0.45, 'rescaleHeight': False, 'trialN': 104, 'loaded': True, 'loadedTime': 208258.20000000298, 'positionName': 'LEFT', 'positionCoords': [203.4, 195], 'bid': 5.54}, {'imgObject': {}, 'id': 'froot loops w milk', 'src': '/static/foodstim60/froot loops w milk.jpg', 'key': 'i', 'origWidth': 410, 'origHeight': 410, 'width': 410, 'height': 410, 'widthPercent': 0.45, 'rescaleHeight': False, 'trialN': 104, 'loaded': True, 'loadedTime': 208258.5, 'positionName': 'RIGHT', 'positionCoords': [665.6, 195], 'bid': 5.1000000000000005}]",208255.1000000015,1669830852466,yogurt no spoon,froot loops w milk,5.54,5.1000000000000005,-0.4399999999999995,froot loops w milk,1770.5,1775,1775.1000000014901,True,i,210535.20000000298,2280.10000000149,1669830854746,2280,HRV,HRV_0138,2022-11-30 17:56:41
105,"[{'imgObject': {}, 'id': 'salad w chicken', 'src': '/static/foodstim60/salad w chicken.jpg', 'key': 'u', 'origWidth': 411, 'origHeight': 411, 'width': 411, 'height': 411, 'widthPercent': 0.45, 'rescaleHeight': False, 'trialN': 105, 'loaded': True, 'loadedTime': 210537.6000000015, 'positionName': 'LEFT', 'positionCoords': [203.4, 194.5], 'bid': 3.6}, {'imgObject': {}, 'id': 'orange slices', 'src': '/static/foodstim60/orange slices.jpg', 'key': 'i', 'origWidth': 409, 'origHeight': 410, 'width': 409, 'height': 410, 'widthPercent': 0.45, 'rescaleHeight': False, 'trialN': 105, 'loaded': True, 'loadedTime': 210537.80000000447, 'positionName': 'RIGHT', 'positionCoords': [665.6, 195], 'bid': 8.09}]",210535.5,1669830854747,salad w chicken,orange slices,3.6,8.09,4.49,orange slices,1431.8999999985099,1436,1436.7000000029802,True,i,212476.1000000015,1940.6000000014901,1669830856687,1940,HRV,HRV_0138,2022-11-30 17:56:41
106,"[{'imgObject': {}, 'id': 'hotdog w must', 'src': '/static/foodstim60/hotdog w must.jpg', 'key': 'u', 'origWidth': 409, 'origHeight': 409, 'width': 409, 'height': 409, 'widthPercent': 0.45, 'rescaleHeight': False, 'trialN': 106, 'loaded': True, 'loadedTime': 212481, 'positionName': 'LEFT', 'positionCoords': [205.4, 195.5], 'bid': 7.09}, {'imgObject': {}, 'id': 'strawberries', 'src': '/static/foodstim60/strawberries.jpg', 'key': 'i', 'origWidth': 410, 'origHeight': 410, 'width': 410, 'height': 410, 'widthPercent': 0.45, 'rescaleHeight': False, 'trialN': 106, 'loaded': True, 'loadedTime': 212481.3999999985, 'positionName': 'RIGHT', 'positionCoords': [665.6, 195], 'bid': 1.03}]",212476.70000000298,1669830856688,hotdog w must,strawberries,7.09,1.03,-6.06,hotdog w must,1004.6000000014901,1008,1007.8999999985099,True,u,213984.80000000447,1508.1000000014901,1669830858196,1508,HRV,HRV_0138,2022-11-30 17:56:41
107,"[{'imgObject': {}, 'id': 'salad w chicken', 'src': '/static/foodstim60/salad w chicken.jpg', 'key': 'u', 'origWidth': 411, 'origHeight': 411, 'width': 411, 'height': 411, 'widthPercent': 0.45, 'rescaleHeight': False, 'trialN': 107, 'loaded': True, 'loadedTime': 213987.8999999985, 'positionName': 'LEFT', 'positionCoords': [203.4, 194.5], 'bid': 3.6}, {'imgObject': {}, 'id': 'sushi w_condiments', 'src': '/static/foodstim60/sushi w_condiments.jpg', 'key': 'i', 'origWidth': 410, 'origHeight': 410, 'width': 410, 'height': 410, 'widthPercent': 0.45, 'rescaleHeight': False, 'trialN': 107, 'loaded': True, 'loadedTime': 213988, 'positionName': 'RIGHT', 'positionCoords': [665.6, 195], 'bid': 0.67}]",213985.20000000298,1669830858196,salad w chicken,sushi w_condiments,3.6,0.67,-2.93,salad w chicken,1098,1101,1100.6000000014901,True,u,215588.8999999985,1603.6999999955297,1669830859800,1604,HRV,HRV_0138,2022-11-30 17:56:41
108,"[{'imgObject': {}, 'id': 'hotdog w must', 'src': '/static/foodstim60/hotdog w must.jpg', 'key': 'u', 'origWidth': 409, 'origHeight': 409, 'width': 409, 'height': 409, 'widthPercent': 0.45, 'rescaleHeight': False, 'trialN': 108, 'loaded': True, 'loadedTime': 215592.20000000298, 'positionName': 'LEFT', 'positionCoords': [205.4, 195.5], 'bid': 7.09}, {'imgObject': {}, 'id': 'Grapes', 'src': '/static/foodstim60/Grapes.jpg', 'key': 'i', 'origWidth': 411, 'origHeight': 411, 'width': 411, 'height': 411, 'widthPercent': 0.45, 'rescaleHeight': False, 'trialN': 108, 'loaded': True, 'loadedTime': 215592.3999999985, 'positionName': 'RIGHT', 'positionCoords': [665.6, 194.5], 'bid': 8.09}]",215589.30000000447,1669830859801,hotdog w must,Grapes,7.09,8.09,1.0,Grapes,1027.7999999970198,1030,1029.8999999985099,True,i,217120.20000000298,1530.8999999985099,1669830861331,1530,HRV,HRV_0138,2022-11-30 17:56:41
