trialN,stimuli,question,trialStartTime,trialStartTime_UNIX,stimulus1,rt,receivedResponse,rating,trialEndTime,trialDuration,stimulus1Loaded,exp,subjectId,date
0,"[{'imgObject': {}, 'id': 'burrito', 'src': '/static/foodstim60/burrito.jpg', 'key': 'NaN', 'origWidth': 410, 'origHeight': 410, 'width': 410, 'height': 410, 'widthPercent': 0.8, 'rescaleHeight': True, 'trialN': 0, 'loaded': True, 'loadedTime': 3268.2000000029802, 'positionName': 'CENTER', 'positionCoords': [435, 195]}]",Rate how much you want to eat this food from 0 (least) to 10 (most).,3005.5,1669830189889,burrito,73838.89999999851,True,9.35,76844.39999999851,73838.89999999851,True,HRV,HRV_0138,2022-11-30 17:46:26
1,"[{'imgObject': {}, 'id': 'hashbrowns', 'src': '/static/foodstim60/hashbrowns.jpg', 'key': 'NaN', 'origWidth': 411, 'origHeight': 410, 'width': 411, 'height': 410, 'widthPercent': 0.8, 'rescaleHeight': True, 'trialN': 1, 'loaded': True, 'loadedTime': 76865.60000000149, 'positionName': 'CENTER', 'positionCoords': [434.5, 195]}]",Rate how much you want to eat this food from 0 (least) to 10 (most).,76858.89999999851,1669830263744,hashbrowns,2130.10000000149,True,7.9,78989.0,2130.10000000149,True,HRV,HRV_0138,2022-11-30 17:46:26
2,"[{'imgObject': {}, 'id': 'eggs', 'src': '/static/foodstim60/eggs.jpg', 'key': 'NaN', 'origWidth': 409, 'origHeight': 409, 'width': 409, 'height': 409, 'widthPercent': 0.8, 'rescaleHeight': True, 'trialN': 2, 'loaded': True, 'loadedTime': 79018.80000000447, 'positionName': 'CENTER', 'positionCoords': [435.5, 195.5]}]",Rate how much you want to eat this food from 0 (least) to 10 (most).,79013.80000000447,1669830265899,eggs,2954.7999999970198,True,5.92,81968.60000000149,2954.7999999970198,True,HRV,HRV_0138,2022-11-30 17:46:26
3,"[{'imgObject': {}, 'id': 'kiwi', 'src': '/static/foodstim60/kiwi.jpg', 'key': 'NaN', 'origWidth': 410, 'origHeight': 410, 'width': 410, 'height': 410, 'widthPercent': 0.8, 'rescaleHeight': True, 'trialN': 3, 'loaded': True, 'loadedTime': 81992.70000000298, 'positionName': 'CENTER', 'positionCoords': [435, 195]}]",Rate how much you want to eat this food from 0 (least) to 10 (most).,81987.70000000298,1669830268873,kiwi,1672.5,True,1.09,83660.20000000298,1672.5,True,HRV,HRV_0138,2022-11-30 17:46:26
4,"[{'imgObject': {}, 'id': 'yogurt no spoon', 'src': '/static/foodstim60/yogurt no spoon.jpg', 'key': 'NaN', 'origWidth': 411, 'origHeight': 410, 'width': 411, 'height': 410, 'widthPercent': 0.8, 'rescaleHeight': True, 'trialN': 4, 'loaded': True, 'loadedTime': 83685.5, 'positionName': 'CENTER', 'positionCoords': [434.5, 195]}]",Rate how much you want to eat this food from 0 (least) to 10 (most).,83679.20000000298,1669830270565,yogurt no spoon,1894.8999999985099,True,1.84,85574.10000000149,1894.8999999985099,True,HRV,HRV_0138,2022-11-30 17:46:26
5,"[{'imgObject': {}, 'id': 'salmon', 'src': '/static/foodstim60/salmon.jpg', 'key': 'NaN', 'origWidth': 410, 'origHeight': 409, 'width': 410, 'height': 409, 'widthPercent': 0.8, 'rescaleHeight': True, 'trialN': 5, 'loaded': True, 'loadedTime': 85600.70000000298, 'positionName': 'CENTER', 'positionCoords': [435, 195.5]}]",Rate how much you want to eat this food from 0 (least) to 10 (most).,85595.39999999851,1669830272481,salmon,1920.5,True,4.89,87515.89999999851,1920.5,True,HRV,HRV_0138,2022-11-30 17:46:26
6,"[{'imgObject': {}, 'id': 'strawberries', 'src': '/static/foodstim60/strawberries.jpg', 'key': 'NaN', 'origWidth': 410, 'origHeight': 410, 'width': 410, 'height': 410, 'widthPercent': 0.8, 'rescaleHeight': True, 'trialN': 6, 'loaded': True, 'loadedTime': 87542.5, 'positionName': 'CENTER', 'positionCoords': [435, 195]}]",Rate how much you want to eat this food from 0 (least) to 10 (most).,87536.20000000298,1669830274422,strawberries,1489.8999999985099,True,2.42,89026.10000000149,1489.8999999985099,True,HRV,HRV_0138,2022-11-30 17:46:26
7,"[{'imgObject': {}, 'id': 'baked potato', 'src': '/static/foodstim60/baked potato.jpg', 'key': 'NaN', 'origWidth': 409, 'origHeight': 410, 'width': 409, 'height': 410, 'widthPercent': 0.8, 'rescaleHeight': True, 'trialN': 7, 'loaded': True, 'loadedTime': 89051.10000000149, 'positionName': 'CENTER', 'positionCoords': [435.5, 195]}]",Rate how much you want to eat this food from 0 (least) to 10 (most).,89044.39999999851,1669830275930,baked potato,1503.7000000029802,True,7.0600000000000005,90548.10000000149,1503.7000000029802,True,HRV,HRV_0138,2022-11-30 17:46:26
8,"[{'imgObject': {}, 'id': 'cheerios', 'src': '/static/foodstim60/cheerios.jpg', 'key': 'NaN', 'origWidth': 409, 'origHeight': 410, 'width': 409, 'height': 410, 'widthPercent': 0.8, 'rescaleHeight': True, 'trialN': 8, 'loaded': True, 'loadedTime': 90572, 'positionName': 'CENTER', 'positionCoords': [435.5, 195]}]",Rate how much you want to eat this food from 0 (least) to 10 (most).,90566.80000000447,1669830277453,cheerios,1491.3999999985099,True,8.06,92058.20000000298,1491.3999999985099,True,HRV,HRV_0138,2022-11-30 17:46:26
9,"[{'imgObject': {}, 'id': 'chickenfingers', 'src': '/static/foodstim60/chickenfingers.jpg', 'key': 'NaN', 'origWidth': 410, 'origHeight': 410, 'width': 410, 'height': 410, 'widthPercent': 0.8, 'rescaleHeight': True, 'trialN': 9, 'loaded': True, 'loadedTime': 92088, 'positionName': 'CENTER', 'positionCoords': [435, 195]}]",Rate how much you want to eat this food from 0 (least) to 10 (most).,92082.10000000149,1669830278968,chickenfingers,1599.2999999970198,True,9.5,93681.39999999851,1599.2999999970198,True,HRV,HRV_0138,2022-11-30 17:46:26
10,"[{'imgObject': {}, 'id': 'avocado', 'src': '/static/foodstim60/avocado.jpg', 'key': 'NaN', 'origWidth': 409, 'origHeight': 409, 'width': 409, 'height': 409, 'widthPercent': 0.8, 'rescaleHeight': True, 'trialN': 10, 'loaded': True, 'loadedTime': 93713.30000000447, 'positionName': 'CENTER', 'positionCoords': [435.5, 195.5]}]",Rate how much you want to eat this food from 0 (least) to 10 (most).,93706.0,1669830280592,avocado,1788.5,True,0.73,95494.5,1788.5,True,HRV,HRV_0138,2022-11-30 17:46:26
11,"[{'imgObject': {}, 'id': 'bagel and cc', 'src': '/static/foodstim60/bagel and cc.jpg', 'key': 'NaN', 'origWidth': 410, 'origHeight': 410, 'width': 410, 'height': 410, 'widthPercent': 0.8, 'rescaleHeight': True, 'trialN': 11, 'loaded': True, 'loadedTime': 95511.39999999851, 'positionName': 'CENTER', 'positionCoords': [435, 195]}]",Rate how much you want to eat this food from 0 (least) to 10 (most).,95505.10000000149,1669830282391,bagel and cc,2024.1000000014901,True,8.25,97529.20000000298,2024.1000000014901,True,HRV,HRV_0138,2022-11-30 17:46:26
12,"[{'imgObject': {}, 'id': 'froot loops w milk', 'src': '/static/foodstim60/froot loops w milk.jpg', 'key': 'NaN', 'origWidth': 410, 'origHeight': 410, 'width': 410, 'height': 410, 'widthPercent': 0.8, 'rescaleHeight': True, 'trialN': 12, 'loaded': True, 'loadedTime': 97549.30000000447, 'positionName': 'CENTER', 'positionCoords': [435, 195]}]",Rate how much you want to eat this food from 0 (least) to 10 (most).,97543.60000000149,1669830284430,froot loops w milk,1632.7999999970198,True,6.5,99176.39999999851,1632.7999999970198,True,HRV,HRV_0138,2022-11-30 17:46:26
13,"[{'imgObject': {}, 'id': 'burger', 'src': '/static/foodstim60/burger.jpg', 'key': 'NaN', 'origWidth': 409, 'origHeight': 409, 'width': 409, 'height': 409, 'widthPercent': 0.8, 'rescaleHeight': True, 'trialN': 13, 'loaded': True, 'loadedTime': 99204.60000000149, 'positionName': 'CENTER', 'positionCoords': [435.5, 195.5]}]",Rate how much you want to eat this food from 0 (least) to 10 (most).,99198.39999999851,1669830286085,burger,1872.0,True,5.25,101070.39999999851,1872.0,True,HRV,HRV_0138,2022-11-30 17:46:26
14,"[{'imgObject': {}, 'id': 'bagel plain', 'src': '/static/foodstim60/bagel plain.jpg', 'key': 'NaN', 'origWidth': 410, 'origHeight': 410, 'width': 410, 'height': 410, 'widthPercent': 0.8, 'rescaleHeight': True, 'trialN': 14, 'loaded': True, 'loadedTime': 101088.5, 'positionName': 'CENTER', 'positionCoords': [435, 195]}]",Rate how much you want to eat this food from 0 (least) to 10 (most).,101081.5,1669830287968,bagel plain,1684.3000000044703,True,7.96,102765.80000000447,1684.3000000044703,True,HRV,HRV_0138,2022-11-30 17:46:26
15,"[{'imgObject': {}, 'id': 'grilled chicken strips', 'src': '/static/foodstim60/grilled chicken strips.jpg', 'key': 'NaN', 'origWidth': 410, 'origHeight': 411, 'width': 410, 'height': 411, 'widthPercent': 0.8, 'rescaleHeight': True, 'trialN': 15, 'loaded': True, 'loadedTime': 102790.20000000298, 'positionName': 'CENTER', 'positionCoords': [435, 194.5]}]",Rate how much you want to eat this food from 0 (least) to 10 (most).,102784.89999999851,1669830289671,grilled chicken strips,1689.5,True,9.450000000000001,104474.39999999851,1689.5,True,HRV,HRV_0138,2022-11-30 17:46:26
16,"[{'imgObject': {}, 'id': 'orange slices', 'src': '/static/foodstim60/orange slices.jpg', 'key': 'NaN', 'origWidth': 409, 'origHeight': 410, 'width': 409, 'height': 410, 'widthPercent': 0.8, 'rescaleHeight': True, 'trialN': 16, 'loaded': True, 'loadedTime': 104504, 'positionName': 'CENTER', 'positionCoords': [435.5, 195]}]",Rate how much you want to eat this food from 0 (least) to 10 (most).,104498.80000000447,1669830291385,orange slices,1622.2999999970198,True,7.9,106121.10000000149,1622.2999999970198,True,HRV,HRV_0138,2022-11-30 17:46:26
17,"[{'imgObject': {}, 'id': 'steak', 'src': '/static/foodstim60/steak.jpg', 'key': 'NaN', 'origWidth': 410, 'origHeight': 410, 'width': 410, 'height': 410, 'widthPercent': 0.8, 'rescaleHeight': True, 'trialN': 17, 'loaded': True, 'loadedTime': 106137, 'positionName': 'CENTER', 'positionCoords': [435, 195]}]",Rate how much you want to eat this food from 0 (least) to 10 (most).,106132.10000000149,1669830293019,steak,3069.60000000149,True,8.870000000000001,109201.70000000298,3069.60000000149,True,HRV,HRV_0138,2022-11-30 17:46:26
18,"[{'imgObject': {}, 'id': 'cocktailshrimp', 'src': '/static/foodstim60/cocktailshrimp.jpg', 'key': 'NaN', 'origWidth': 410, 'origHeight': 410, 'width': 410, 'height': 410, 'widthPercent': 0.8, 'rescaleHeight': True, 'trialN': 18, 'loaded': True, 'loadedTime': 109217.70000000298, 'positionName': 'CENTER', 'positionCoords': [435, 195]}]",Rate how much you want to eat this food from 0 (least) to 10 (most).,109211.20000000298,1669830296098,cocktailshrimp,2332.60000000149,True,0.92,111543.80000000447,2332.60000000149,True,HRV,HRV_0138,2022-11-30 17:46:26
19,"[{'imgObject': {}, 'id': 'edamame', 'src': '/static/foodstim60/edamame.jpg', 'key': 'NaN', 'origWidth': 409, 'origHeight': 410, 'width': 409, 'height': 410, 'widthPercent': 0.8, 'rescaleHeight': True, 'trialN': 19, 'loaded': True, 'loadedTime': 111563.80000000447, 'positionName': 'CENTER', 'positionCoords': [435.5, 195]}]",Rate how much you want to eat this food from 0 (least) to 10 (most).,111556.89999999851,1669830298443,edamame,1605.7000000029802,True,0.6,113162.60000000149,1605.7000000029802,True,HRV,HRV_0138,2022-11-30 17:46:26
20,"[{'imgObject': {}, 'id': 'mango', 'src': '/static/foodstim60/mango.jpg', 'key': 'NaN', 'origWidth': 411, 'origHeight': 411, 'width': 411, 'height': 411, 'widthPercent': 0.8, 'rescaleHeight': True, 'trialN': 20, 'loaded': True, 'loadedTime': 113179.20000000298, 'positionName': 'CENTER', 'positionCoords': [434.5, 194.5]}]",Rate how much you want to eat this food from 0 (least) to 10 (most).,113172.10000000149,1669830300059,mango,1880.3999999985099,True,1.59,115052.5,1880.3999999985099,True,HRV,HRV_0138,2022-11-30 17:46:26
21,"[{'imgObject': {}, 'id': 'turkeysandwich', 'src': '/static/foodstim60/turkeysandwich.jpg', 'key': 'NaN', 'origWidth': 409, 'origHeight': 409, 'width': 409, 'height': 409, 'widthPercent': 0.8, 'rescaleHeight': True, 'trialN': 21, 'loaded': True, 'loadedTime': 115069.5, 'positionName': 'CENTER', 'positionCoords': [435.5, 195.5]}]",Rate how much you want to eat this food from 0 (least) to 10 (most).,115064.20000000298,1669830301951,turkeysandwich,1506.1999999955297,True,3.25,116570.39999999851,1506.1999999955297,True,HRV,HRV_0138,2022-11-30 17:46:26
22,"[{'imgObject': {}, 'id': 'cherry tomato', 'src': '/static/foodstim60/cherry tomato.jpg', 'key': 'NaN', 'origWidth': 410, 'origHeight': 410, 'width': 410, 'height': 410, 'widthPercent': 0.8, 'rescaleHeight': True, 'trialN': 22, 'loaded': True, 'loadedTime': 116589.5, 'positionName': 'CENTER', 'positionCoords': [435, 195]}]",Rate how much you want to eat this food from 0 (least) to 10 (most).,116583.30000000447,1669830303470,cherry tomato,1663.0999999940395,True,0.9,118246.39999999851,1663.0999999940395,True,HRV,HRV_0138,2022-11-30 17:46:26
23,"[{'imgObject': {}, 'id': 'cantaloupe', 'src': '/static/foodstim60/cantaloupe.jpg', 'key': 'NaN', 'origWidth': 409, 'origHeight': 409, 'width': 409, 'height': 409, 'widthPercent': 0.8, 'rescaleHeight': True, 'trialN': 23, 'loaded': True, 'loadedTime': 118265.10000000149, 'positionName': 'CENTER', 'positionCoords': [435.5, 195.5]}]",Rate how much you want to eat this food from 0 (least) to 10 (most).,118260.39999999851,1669830305147,cantaloupe,1600.8000000044703,True,0.5700000000000001,119861.20000000298,1600.8000000044703,True,HRV,HRV_0138,2022-11-30 17:46:26
24,"[{'imgObject': {}, 'id': 'Grapes', 'src': '/static/foodstim60/Grapes.jpg', 'key': 'NaN', 'origWidth': 411, 'origHeight': 411, 'width': 411, 'height': 411, 'widthPercent': 0.8, 'rescaleHeight': True, 'trialN': 24, 'loaded': True, 'loadedTime': 119887.39999999851, 'positionName': 'CENTER', 'positionCoords': [434.5, 194.5]}]",Rate how much you want to eat this food from 0 (least) to 10 (most).,119881.30000000447,1669830306768,Grapes,1978.1999999955297,True,8.4,121859.5,1978.1999999955297,True,HRV,HRV_0138,2022-11-30 17:46:26
25,"[{'imgObject': {}, 'id': 'shreddedwheatwithmilk', 'src': '/static/foodstim60/shreddedwheatwithmilk.jpg', 'key': 'NaN', 'origWidth': 410, 'origHeight': 410, 'width': 410, 'height': 410, 'widthPercent': 0.8, 'rescaleHeight': True, 'trialN': 25, 'loaded': True, 'loadedTime': 121881, 'positionName': 'CENTER', 'positionCoords': [435, 195]}]",Rate how much you want to eat this food from 0 (least) to 10 (most).,121874.89999999851,1669830308762,shreddedwheatwithmilk,1914.9000000059605,True,7.54,123789.80000000447,1914.9000000059605,True,HRV,HRV_0138,2022-11-30 17:46:26
26,"[{'imgObject': {}, 'id': 'mashed potato', 'src': '/static/foodstim60/mashed potato.jpg', 'key': 'NaN', 'origWidth': 409, 'origHeight': 409, 'width': 409, 'height': 409, 'widthPercent': 0.8, 'rescaleHeight': True, 'trialN': 26, 'loaded': True, 'loadedTime': 123816.80000000447, 'positionName': 'CENTER', 'positionCoords': [435.5, 195.5]}]",Rate how much you want to eat this food from 0 (least) to 10 (most).,123810.39999999851,1669830310697,mashed potato,2385.7000000029802,True,6.42,126196.10000000149,2385.7000000029802,True,HRV,HRV_0138,2022-11-30 17:46:26
27,"[{'imgObject': {}, 'id': 'eggsalad', 'src': '/static/foodstim60/eggsalad.jpg', 'key': 'NaN', 'origWidth': 410, 'origHeight': 409, 'width': 410, 'height': 409, 'widthPercent': 0.8, 'rescaleHeight': True, 'trialN': 27, 'loaded': True, 'loadedTime': 126223.5, 'positionName': 'CENTER', 'positionCoords': [435, 195.5]}]",Rate how much you want to eat this food from 0 (least) to 10 (most).,126217.5,1669830313105,eggsalad,2143.3000000044703,True,5.1000000000000005,128360.80000000447,2143.3000000044703,True,HRV,HRV_0138,2022-11-30 17:46:26
28,"[{'imgObject': {}, 'id': 'corn cob', 'src': '/static/foodstim60/corn cob.jpg', 'key': 'NaN', 'origWidth': 411, 'origHeight': 411, 'width': 411, 'height': 411, 'widthPercent': 0.8, 'rescaleHeight': True, 'trialN': 28, 'loaded': True, 'loadedTime': 128377, 'positionName': 'CENTER', 'positionCoords': [434.5, 194.5]}]",Rate how much you want to eat this food from 0 (least) to 10 (most).,128372.10000000149,1669830315259,corn cob,1970.7999999970198,True,9.040000000000001,130342.89999999851,1970.7999999970198,True,HRV,HRV_0138,2022-11-30 17:46:26
29,"[{'imgObject': {}, 'id': 'fruitsalad', 'src': '/static/foodstim60/fruitsalad.jpg', 'key': 'NaN', 'origWidth': 410, 'origHeight': 410, 'width': 410, 'height': 410, 'widthPercent': 0.8, 'rescaleHeight': True, 'trialN': 29, 'loaded': True, 'loadedTime': 130358.89999999851, 'positionName': 'CENTER', 'positionCoords': [435, 195]}]",Rate how much you want to eat this food from 0 (least) to 10 (most).,130353.89999999851,1669830317241,fruitsalad,2573.60000000149,True,3.64,132927.5,2573.60000000149,True,HRV,HRV_0138,2022-11-30 17:46:26
30,"[{'imgObject': {}, 'id': 'sweetpotato', 'src': '/static/foodstim60/sweetpotato.jpg', 'key': 'NaN', 'origWidth': 410, 'origHeight': 410, 'width': 410, 'height': 410, 'widthPercent': 0.8, 'rescaleHeight': True, 'trialN': 30, 'loaded': True, 'loadedTime': 132943.80000000447, 'positionName': 'CENTER', 'positionCoords': [435, 195]}]",Rate how much you want to eat this food from 0 (least) to 10 (most).,132938.20000000298,1669830319825,sweetpotato,2440.5,True,0.45,135378.70000000298,2440.5,True,HRV,HRV_0138,2022-11-30 17:46:26
31,"[{'imgObject': {}, 'id': 'banana', 'src': '/static/foodstim60/banana.jpg', 'key': 'NaN', 'origWidth': 410, 'origHeight': 410, 'width': 410, 'height': 410, 'widthPercent': 0.8, 'rescaleHeight': True, 'trialN': 31, 'loaded': True, 'loadedTime': 135402.20000000298, 'positionName': 'CENTER', 'positionCoords': [435, 195]}]",Rate how much you want to eat this food from 0 (least) to 10 (most).,135394.3999999985,1669830322282,banana,1663.4000000059605,True,7.84,137057.80000000447,1663.4000000059605,True,HRV,HRV_0138,2022-11-30 17:46:26
32,"[{'imgObject': {}, 'id': 'seaweed', 'src': '/static/foodstim60/seaweed.jpg', 'key': 'NaN', 'origWidth': 410, 'origHeight': 410, 'width': 410, 'height': 410, 'widthPercent': 0.8, 'rescaleHeight': True, 'trialN': 32, 'loaded': True, 'loadedTime': 137088.3999999985, 'positionName': 'CENTER', 'positionCoords': [435, 195]}]",Rate how much you want to eat this food from 0 (least) to 10 (most).,137084.0,1669830323971,seaweed,3555.8000000044703,True,0.53,140639.80000000447,3555.8000000044703,True,HRV,HRV_0138,2022-11-30 17:46:26
33,"[{'imgObject': {}, 'id': 'hotdog w must', 'src': '/static/foodstim60/hotdog w must.jpg', 'key': 'NaN', 'origWidth': 409, 'origHeight': 409, 'width': 409, 'height': 409, 'widthPercent': 0.8, 'rescaleHeight': True, 'trialN': 33, 'loaded': True, 'loadedTime': 140660.80000000447, 'positionName': 'CENTER', 'positionCoords': [435.5, 195.5]}]",Rate how much you want to eat this food from 0 (least) to 10 (most).,140656.8999999985,1669830327544,hotdog w must,4077.5,True,7.26,144734.3999999985,4077.5,True,HRV,HRV_0138,2022-11-30 17:46:26
34,"[{'imgObject': {}, 'id': 'lox', 'src': '/static/foodstim60/lox.jpg', 'key': 'NaN', 'origWidth': 410, 'origHeight': 411, 'width': 410, 'height': 411, 'widthPercent': 0.8, 'rescaleHeight': True, 'trialN': 34, 'loaded': True, 'loadedTime': 144761.5, 'positionName': 'CENTER', 'positionCoords': [435, 194.5]}]",Rate how much you want to eat this food from 0 (least) to 10 (most).,144754.1000000015,1669830331642,lox,1656.2000000029802,True,2.0100000000000002,146410.30000000447,1656.2000000029802,True,HRV,HRV_0138,2022-11-30 17:46:26
35,"[{'imgObject': {}, 'id': 'cherries', 'src': '/static/foodstim60/cherries.jpg', 'key': 'NaN', 'origWidth': 410, 'origHeight': 411, 'width': 410, 'height': 411, 'widthPercent': 0.8, 'rescaleHeight': True, 'trialN': 35, 'loaded': True, 'loadedTime': 146436.8999999985, 'positionName': 'CENTER', 'positionCoords': [435, 194.5]}]",Rate how much you want to eat this food from 0 (least) to 10 (most).,146430.8999999985,1669830333319,cherries,1376.5,True,1.57,147807.3999999985,1376.5,True,HRV,HRV_0138,2022-11-30 17:46:26
36,"[{'imgObject': {}, 'id': 'rigatoni and sauce', 'src': '/static/foodstim60/rigatoni and sauce.jpg', 'key': 'NaN', 'origWidth': 410, 'origHeight': 411, 'width': 410, 'height': 411, 'widthPercent': 0.8, 'rescaleHeight': True, 'trialN': 36, 'loaded': True, 'loadedTime': 147821.80000000447, 'positionName': 'CENTER', 'positionCoords': [435, 194.5]}]",Rate how much you want to eat this food from 0 (least) to 10 (most).,147817.80000000447,1669830334705,rigatoni and sauce,1975.6999999955297,True,7.23,149793.5,1975.6999999955297,True,HRV,HRV_0138,2022-11-30 17:46:26
37,"[{'imgObject': {}, 'id': 'salad w chicken', 'src': '/static/foodstim60/salad w chicken.jpg', 'key': 'NaN', 'origWidth': 411, 'origHeight': 411, 'width': 411, 'height': 411, 'widthPercent': 0.8, 'rescaleHeight': True, 'trialN': 37, 'loaded': True, 'loadedTime': 149817.3999999985, 'positionName': 'CENTER', 'positionCoords': [434.5, 194.5]}]",Rate how much you want to eat this food from 0 (least) to 10 (most).,149808.70000000298,1669830336696,salad w chicken,2613.7999999970198,True,3.62,152422.5,2613.7999999970198,True,HRV,HRV_0138,2022-11-30 17:46:26
38,"[{'imgObject': {}, 'id': 'roastedpotatoes', 'src': '/static/foodstim60/roastedpotatoes.jpg', 'key': 'NaN', 'origWidth': 409, 'origHeight': 410, 'width': 409, 'height': 410, 'widthPercent': 0.8, 'rescaleHeight': True, 'trialN': 38, 'loaded': True, 'loadedTime': 152438.6000000015, 'positionName': 'CENTER', 'positionCoords': [435.5, 195]}]",Rate how much you want to eat this food from 0 (least) to 10 (most).,152432.8999999985,1669830339321,roastedpotatoes,3158.60000000149,True,6.79,155591.5,3158.60000000149,True,HRV,HRV_0138,2022-11-30 17:46:26
39,"[{'imgObject': {}, 'id': 'raspberries', 'src': '/static/foodstim60/raspberries.jpg', 'key': 'NaN', 'origWidth': 411, 'origHeight': 411, 'width': 411, 'height': 411, 'widthPercent': 0.8, 'rescaleHeight': True, 'trialN': 39, 'loaded': True, 'loadedTime': 155622.1000000015, 'positionName': 'CENTER', 'positionCoords': [434.5, 194.5]}]",Rate how much you want to eat this food from 0 (least) to 10 (most).,155616.70000000298,1669830342505,raspberries,1783.6999999955297,True,3.25,157400.3999999985,1783.6999999955297,True,HRV,HRV_0138,2022-11-30 17:46:26
40,"[{'imgObject': {}, 'id': 'apple slices', 'src': '/static/foodstim60/apple slices.jpg', 'key': 'NaN', 'origWidth': 409, 'origHeight': 410, 'width': 409, 'height': 410, 'widthPercent': 0.8, 'rescaleHeight': True, 'trialN': 40, 'loaded': True, 'loadedTime': 157423.3999999985, 'positionName': 'CENTER', 'positionCoords': [435.5, 195]}]",Rate how much you want to eat this food from 0 (least) to 10 (most).,157418.1000000015,1669830344306,apple slices,1520.7999999970198,True,6.53,158938.8999999985,1520.7999999970198,True,HRV,HRV_0138,2022-11-30 17:46:26
41,"[{'imgObject': {}, 'id': 'blackbeanswithrice', 'src': '/static/foodstim60/blackbeanswithrice.jpg', 'key': 'NaN', 'origWidth': 410, 'origHeight': 410, 'width': 410, 'height': 410, 'widthPercent': 0.8, 'rescaleHeight': True, 'trialN': 41, 'loaded': True, 'loadedTime': 158979.80000000447, 'positionName': 'CENTER', 'positionCoords': [435, 195]}]",Rate how much you want to eat this food from 0 (least) to 10 (most).,158974.3999999985,1669830345862,blackbeanswithrice,1934.8000000044703,True,1.2,160909.20000000298,1934.8000000044703,True,HRV,HRV_0138,2022-11-30 17:46:26
42,"[{'imgObject': {}, 'id': 'pear', 'src': '/static/foodstim60/pear.jpg', 'key': 'NaN', 'origWidth': 411, 'origHeight': 410, 'width': 411, 'height': 410, 'widthPercent': 0.8, 'rescaleHeight': True, 'trialN': 42, 'loaded': True, 'loadedTime': 160929.30000000447, 'positionName': 'CENTER', 'positionCoords': [434.5, 195]}]",Rate how much you want to eat this food from 0 (least) to 10 (most).,160924.5,1669830347812,pear,2613.10000000149,True,7.09,163537.6000000015,2613.10000000149,True,HRV,HRV_0138,2022-11-30 17:46:26
43,"[{'imgObject': {}, 'id': 'veggieswithdip', 'src': '/static/foodstim60/veggieswithdip.jpg', 'key': 'NaN', 'origWidth': 409, 'origHeight': 409, 'width': 409, 'height': 409, 'widthPercent': 0.8, 'rescaleHeight': True, 'trialN': 43, 'loaded': True, 'loadedTime': 163566.30000000447, 'positionName': 'CENTER', 'positionCoords': [435.5, 195.5]}]",Rate how much you want to eat this food from 0 (least) to 10 (most).,163562.20000000298,1669830350450,veggieswithdip,2059.10000000149,True,0.85,165621.30000000447,2059.10000000149,True,HRV,HRV_0138,2022-11-30 17:46:26
44,"[{'imgObject': {}, 'id': 'rigatoni', 'src': '/static/foodstim60/rigatoni.jpg', 'key': 'NaN', 'origWidth': 411, 'origHeight': 411, 'width': 411, 'height': 411, 'widthPercent': 0.8, 'rescaleHeight': True, 'trialN': 44, 'loaded': True, 'loadedTime': 165637.6000000015, 'positionName': 'CENTER', 'positionCoords': [434.5, 194.5]}]",Rate how much you want to eat this food from 0 (least) to 10 (most).,165632.80000000447,1669830352521,rigatoni,1861.5999999940395,True,5.7,167494.3999999985,1861.5999999940395,True,HRV,HRV_0138,2022-11-30 17:46:26
45,"[{'imgObject': {}, 'id': 'fried eggs', 'src': '/static/foodstim60/fried eggs.jpg', 'key': 'NaN', 'origWidth': 410, 'origHeight': 410, 'width': 410, 'height': 410, 'widthPercent': 0.8, 'rescaleHeight': True, 'trialN': 45, 'loaded': True, 'loadedTime': 167510.6000000015, 'positionName': 'CENTER', 'positionCoords': [435, 195]}]",Rate how much you want to eat this food from 0 (least) to 10 (most).,167505.80000000447,1669830354394,fried eggs,1664.2999999970198,True,7.5,169170.1000000015,1664.2999999970198,True,HRV,HRV_0138,2022-11-30 17:46:26
46,"[{'imgObject': {}, 'id': 'chicken nuggets2', 'src': '/static/foodstim60/chicken nuggets2.jpg', 'key': 'NaN', 'origWidth': 410, 'origHeight': 409, 'width': 410, 'height': 409, 'widthPercent': 0.8, 'rescaleHeight': True, 'trialN': 46, 'loaded': True, 'loadedTime': 169196.8999999985, 'positionName': 'CENTER', 'positionCoords': [435, 195.5]}]",Rate how much you want to eat this food from 0 (least) to 10 (most).,169190.8999999985,1669830356079,chicken nuggets2,1820.4000000059605,True,8.01,171011.30000000447,1820.4000000059605,True,HRV,HRV_0138,2022-11-30 17:46:26
47,"[{'imgObject': {}, 'id': 'mac & cheese', 'src': '/static/foodstim60/mac & cheese.jpg', 'key': 'NaN', 'origWidth': 410, 'origHeight': 410, 'width': 410, 'height': 410, 'widthPercent': 0.8, 'rescaleHeight': True, 'trialN': 47, 'loaded': True, 'loadedTime': 171038.5, 'positionName': 'CENTER', 'positionCoords': [435, 195]}]",Rate how much you want to eat this food from 0 (least) to 10 (most).,171030.1000000015,1669830357918,mac & cheese,2133.2000000029802,True,8.92,173163.30000000447,2133.2000000029802,True,HRV,HRV_0138,2022-11-30 17:46:26
48,"[{'imgObject': {}, 'id': 'luckycharms', 'src': '/static/foodstim60/luckycharms.jpg', 'key': 'NaN', 'origWidth': 410, 'origHeight': 409, 'width': 410, 'height': 409, 'widthPercent': 0.8, 'rescaleHeight': True, 'trialN': 48, 'loaded': True, 'loadedTime': 173182.20000000298, 'positionName': 'CENTER', 'positionCoords': [435, 195.5]}]",Rate how much you want to eat this food from 0 (least) to 10 (most).,173176.80000000447,1669830360065,luckycharms,1731.0999999940395,True,7.1000000000000005,174907.8999999985,1731.0999999940395,True,HRV,HRV_0138,2022-11-30 17:46:26
49,"[{'imgObject': {}, 'id': 'turkey sandwich', 'src': '/static/foodstim60/turkey sandwich.jpg', 'key': 'NaN', 'origWidth': 409, 'origHeight': 409, 'width': 409, 'height': 409, 'widthPercent': 0.8, 'rescaleHeight': True, 'trialN': 49, 'loaded': True, 'loadedTime': 174927.3999999985, 'positionName': 'CENTER', 'positionCoords': [435.5, 195.5]}]",Rate how much you want to eat this food from 0 (least) to 10 (most).,174922.6000000015,1669830361811,turkey sandwich,1504.3999999985099,True,4.73,176427.0,1504.3999999985099,True,HRV,HRV_0138,2022-11-30 17:46:26
50,"[{'imgObject': {}, 'id': 'ice cream sundae 002', 'src': '/static/foodstim60/ice cream sundae 002.jpg', 'key': 'NaN', 'origWidth': 409, 'origHeight': 409, 'width': 409, 'height': 409, 'widthPercent': 0.8, 'rescaleHeight': True, 'trialN': 50, 'loaded': True, 'loadedTime': 176451.8999999985, 'positionName': 'CENTER', 'positionCoords': [435.5, 195.5]}]",Rate how much you want to eat this food from 0 (least) to 10 (most).,176445.70000000298,1669830363334,ice cream sundae 002,1534.6000000014901,True,2.15,177980.30000000447,1534.6000000014901,True,HRV,HRV_0138,2022-11-30 17:46:26
51,"[{'imgObject': {}, 'id': 'raisin bran w milk', 'src': '/static/foodstim60/raisin bran w milk.jpg', 'key': 'NaN', 'origWidth': 411, 'origHeight': 411, 'width': 411, 'height': 411, 'widthPercent': 0.8, 'rescaleHeight': True, 'trialN': 51, 'loaded': True, 'loadedTime': 178004.20000000298, 'positionName': 'CENTER', 'positionCoords': [434.5, 194.5]}]",Rate how much you want to eat this food from 0 (least) to 10 (most).,177998.30000000447,1669830364887,raisin bran w milk,2121.89999999851,True,6.68,180120.20000000298,2121.89999999851,True,HRV,HRV_0138,2022-11-30 17:46:26
52,"[{'imgObject': {}, 'id': 'granola w milk', 'src': '/static/foodstim60/granola w milk.jpg', 'key': 'NaN', 'origWidth': 410, 'origHeight': 410, 'width': 410, 'height': 410, 'widthPercent': 0.8, 'rescaleHeight': True, 'trialN': 52, 'loaded': True, 'loadedTime': 180141.6000000015, 'positionName': 'CENTER', 'positionCoords': [435, 195]}]",Rate how much you want to eat this food from 0 (least) to 10 (most).,180136.70000000298,1669830367025,granola w milk,1683.2999999970198,True,7.2,181820.0,1683.2999999970198,True,HRV,HRV_0138,2022-11-30 17:46:26
53,"[{'imgObject': {}, 'id': 'Tribe humus pita', 'src': '/static/foodstim60/Tribe humus pita.jpg', 'key': 'NaN', 'origWidth': 411, 'origHeight': 411, 'width': 411, 'height': 411, 'widthPercent': 0.8, 'rescaleHeight': True, 'trialN': 53, 'loaded': True, 'loadedTime': 181841.20000000298, 'positionName': 'CENTER', 'positionCoords': [434.5, 194.5]}]",Rate how much you want to eat this food from 0 (least) to 10 (most).,181837.3999999985,1669830368726,Tribe humus pita,3059.5,True,3.71,184896.8999999985,3059.5,True,HRV,HRV_0138,2022-11-30 17:46:26
54,"[{'imgObject': {}, 'id': 'omelette', 'src': '/static/foodstim60/omelette.jpg', 'key': 'NaN', 'origWidth': 410, 'origHeight': 409, 'width': 410, 'height': 409, 'widthPercent': 0.8, 'rescaleHeight': True, 'trialN': 54, 'loaded': True, 'loadedTime': 184921.80000000447, 'positionName': 'CENTER', 'positionCoords': [435, 195.5]}]",Rate how much you want to eat this food from 0 (least) to 10 (most).,184917.6000000015,1669830371806,omelette,3358.60000000149,True,4.95,188276.20000000298,3358.60000000149,True,HRV,HRV_0138,2022-11-30 17:46:26
55,"[{'imgObject': {}, 'id': 'olives', 'src': '/static/foodstim60/olives.jpg', 'key': 'NaN', 'origWidth': 410, 'origHeight': 410, 'width': 410, 'height': 410, 'widthPercent': 0.8, 'rescaleHeight': True, 'trialN': 55, 'loaded': True, 'loadedTime': 188303.3999999985, 'positionName': 'CENTER', 'positionCoords': [435, 195]}]",Rate how much you want to eat this food from 0 (least) to 10 (most).,188297.30000000447,1669830375186,olives,2421.7999999970198,True,1.32,190719.1000000015,2421.7999999970198,True,HRV,HRV_0138,2022-11-30 17:46:26
56,"[{'imgObject': {}, 'id': 'popsicles', 'src': '/static/foodstim60/popsicles.jpg', 'key': 'NaN', 'origWidth': 410, 'origHeight': 410, 'width': 410, 'height': 410, 'widthPercent': 0.8, 'rescaleHeight': True, 'trialN': 56, 'loaded': True, 'loadedTime': 190741.1000000015, 'positionName': 'CENTER', 'positionCoords': [435, 195]}]",Rate how much you want to eat this food from 0 (least) to 10 (most).,190735.3999999985,1669830377624,popsicles,1324.0,True,6.54,192059.3999999985,1324.0,True,HRV,HRV_0138,2022-11-30 17:46:26
57,"[{'imgObject': {}, 'id': 'sushi w_condiments', 'src': '/static/foodstim60/sushi w_condiments.jpg', 'key': 'NaN', 'origWidth': 410, 'origHeight': 410, 'width': 410, 'height': 410, 'widthPercent': 0.8, 'rescaleHeight': True, 'trialN': 57, 'loaded': True, 'loadedTime': 192081.70000000298, 'positionName': 'CENTER', 'positionCoords': [435, 195]}]",Rate how much you want to eat this food from 0 (least) to 10 (most).,192076.3999999985,1669830378965,sushi w_condiments,1784.0,True,0.6,193860.3999999985,1784.0,True,HRV,HRV_0138,2022-11-30 17:46:26
58,"[{'imgObject': {}, 'id': 'blueberries', 'src': '/static/foodstim60/blueberries.jpg', 'key': 'NaN', 'origWidth': 411, 'origHeight': 411, 'width': 411, 'height': 411, 'widthPercent': 0.8, 'rescaleHeight': True, 'trialN': 58, 'loaded': True, 'loadedTime': 193883.8999999985, 'positionName': 'CENTER', 'positionCoords': [434.5, 194.5]}]",Rate how much you want to eat this food from 0 (least) to 10 (most).,193878.80000000447,1669830380768,blueberries,2981.6999999955297,True,2.5300000000000002,196860.5,2981.6999999955297,True,HRV,HRV_0138,2022-11-30 17:46:26
59,"[{'imgObject': {}, 'id': 'tacos', 'src': '/static/foodstim60/tacos.jpg', 'key': 'NaN', 'origWidth': 411, 'origHeight': 411, 'width': 411, 'height': 411, 'widthPercent': 0.8, 'rescaleHeight': True, 'trialN': 59, 'loaded': True, 'loadedTime': 196874.30000000447, 'positionName': 'CENTER', 'positionCoords': [434.5, 194.5]}]",Rate how much you want to eat this food from 0 (least) to 10 (most).,196869.8999999985,1669830383759,tacos,1815.7000000029802,True,5.65,198685.6000000015,1815.7000000029802,True,HRV,HRV_0138,2022-11-30 17:46:26
