success,trial_type,trial_index,time_elapsed,internal_node_id,Block,TrialNumber,TrialTime,trialTimeDiff,FPS_avg,FPS_med,FPS_mode,TrialDur,winResizeTime,rt,block,button_pressed,MotCoh,MotDir,ColCoh,Color,ChoiceKey,Choice,Accuracy,RT,nFrames,FPS,PPD,missTrial,missTrialMsg,onsetDelay,fullScreenExitTime,canvCenter,TrialType,Score,BlockTrial,stimulus,button_labels,exp,subjectId,date
True,fullscreen,0,3341,0.0-0.0,0.0,1.0,,,,,,,,,,,,,,,,,,,,,,,,,,,,,,,,HRV,HRV_0138,2022-11-30 18:28:54
,wl-check-fps,1,8363,0.0-1.0,0.0,2.0,"[4120.6, 4123, 4141.5, 4166.5, 4174.7, 4186.4, 4203.4, 4218.9, 4237.1, 4252.5, 4280.5, 4285.2, 4302.9, 4318.8, 4336.6, 4352.9, 4370.4, 4386.8, 4403.1, 4420.5, 4436.3, 4453.8, 4490.2, 4504.1, 4521.6, 4535.8, 4575.9, 4577.3, 4587.9, 4603.7, 4625.4, 4639.1, 4652.7, 4670, 4685.9, 4703.3, 4720.1, 4737.2, 4753.3, 4769.3, 4785.9, 4802.3, 4819.2, 4836.7, 4853.4, 4869.2, 4888.1, 4902, 4919.8, 4935.9, 4953.6, 4969.5, 4987.6, 5003, 5019.6, 5036.2, 5054, 5069, 5086.4, 5103.5, 5120.4, 5136.7, 5154.1, 5169.9, 5231.5, 5234.3, 5236.5, 5253.7, 5269.4, 5286.7, 5304.1, 5319.5, 5337.3, 5353.6, 5370, 5386.5, 5404.5, 5420.1, 5460.8, 5461.7, 5469.5, 5486.9, 5502.9, 5521.1, 5537.5, 5553.3, 5570.6, 5585.9, 5604.1, 5620.3, 5637, 5653.3, 5670.3, 5686.9, 5704.1, 5719.1, 5736.5, 5754.1, 5771, 5787.3, 5804.3, 5821.2, 5836.8, 5854.3, 5870.1, 5887.3, 5903.9, 5919.8, 5936, 5954.2, 5970.8, 5986.7, 6003.7, 6020.3, 6037.4, 6054.1, 6070.9, 6087.4, 6103.3, 6119.6, 6137.5, 6154.4, 6170.7, 6187.5, 6203.8, 6221, 6237.1, 6253.5, 6270.9, 6286.9, 6305.6, 6326.1, 6337.5, 6353.4, 6371.1, 6387.2, 6404.1, 6421.8, 6437.6, 6454.5, 6470.9, 6487.2, 6503, 6520.4, 6537.4, 6553.7, 6570.6, 6587.3, 6607.8, 6620.3, 6639.5, 6653.7, 6670.2, 6687.4, 6703.6, 6721.3, 6737.2, 6754.1, 6769.8, 6787.5, 6803.1, 6820.4, 6837.6, 6854.9, 6870, 6888.2, 6903.4, 6920.9, 6938.4, 6954.9, 6970.9, 6987.9, 7004.2, 7021.1, 7038.3, 7054.2, 7071.5, 7087.9, 7103.9, 7121, 7137.6, 7153.3, 7170.6, 7188.3, 7204.2, 7221, 7237.7, 7254.1, 7271.1, 7288.2, 7304.2, 7321, 7338.6, 7354.9, 7371.7, 7389.7, 7404.2, 7420.6, 7437.3, 7454.5, 7471.3, 7487, 7503.3, 7521.5, 7538, 7553.9, 7571.2, 7588.7, 7604.5, 7621.8, 7638.4, 7654.2, 7671.8, 7687.8, 7704.7, 7721.4, 7737.5, 7755, 7770.8, 7788.2, 7804.9, 7822.6, 7838, 7855.4, 7870.8, 7888, 7904.7, 7920.7, 7937.8, 7954.2, 7971.3, 7989, 8004.4, 8021.7, 8037.5, 8054.8, 8072.2, 8087.7, 8104.8, 8122.3, 8137.1, 8154.8, 8172, 8187.4, 8203.7, 8221.1, 8237.2, 8254, 8271.7, 8289.1, 8305.5, 8321.4, 8337.1, 8354.6, 8371, 8389.2, 8405.9, 8421.7, 8437.4, 8454.7, 8471.1, 8488.4, 8504.8, 8522.1, 8538.4, 8554, 8571.8, 8588.5, 8604.8, 8621.9, 8638.6, 8654.8, 8672.2, 8688, 8705.6, 8722, 8737.8, 8755.2, 8771.5, 8788.1, 8805, 8822.3, 8838.3, 8854, 8871.5, 8888.9, 8905.4, 8921.1, 8938.5, 8954.1, 8972.6, 8989, 9004.9, 9022.4, 9038.8, 9054.5, 9072.3, 9088.9, 9105.5, 9121.2]","[2.2, 2.4, 18.5, 25, 8.2, 11.7, 17, 15.5, 18.2, 15.4, 28, 4.7, 17.7, 15.9, 17.8, 16.3, 17.5, 16.4, 16.3, 17.4, 15.8, 17.5, 36.4, 13.9, 17.5, 14.2, 40.1, 1.4, 10.6, 15.8, 21.7, 13.7, 13.6, 17.3, 15.9, 17.4, 16.8, 17.1, 16.1, 16, 16.6, 16.4, 16.9, 17.5, 16.7, 15.8, 18.9, 13.9, 17.8, 16.1, 17.7, 15.9, 18.1, 15.4, 16.6, 16.6, 17.8, 15, 17.4, 17.1, 16.9, 16.3, 17.4, 15.8, 61.6, 2.8, 2.2, 17.2, 15.7, 17.3, 17.4, 15.4, 17.8, 16.3, 16.4, 16.5, 18, 15.6, 40.7, 0.9, 7.8, 17.4, 16, 18.2, 16.4, 15.8, 17.3, 15.3, 18.2, 16.2, 16.7, 16.3, 17, 16.6, 17.2, 15, 17.4, 17.6, 16.9, 16.3, 17, 16.9, 15.6, 17.5, 15.8, 17.2, 16.6, 15.9, 16.2, 18.2, 16.6, 15.9, 17, 16.6, 17.1, 16.7, 16.8, 16.5, 15.9, 16.3, 17.9, 16.9, 16.3, 16.8, 16.3, 17.2, 16.1, 16.4, 17.4, 16, 18.7, 20.5, 11.4, 15.9, 17.7, 16.1, 16.9, 17.7, 15.8, 16.9, 16.4, 16.3, 15.8, 17.4, 17, 16.3, 16.9, 16.7, 20.5, 12.5, 19.2, 14.2, 16.5, 17.2, 16.2, 17.7, 15.9, 16.9, 15.7, 17.7, 15.6, 17.3, 17.2, 17.3, 15.1, 18.2, 15.2, 17.5, 17.5, 16.5, 16, 17, 16.3, 16.9, 17.2, 15.9, 17.3, 16.4, 16, 17.1, 16.6, 15.7, 17.3, 17.7, 15.9, 16.8, 16.7, 16.4, 17, 17.1, 16, 16.8, 17.6, 16.3, 16.8, 18, 14.5, 16.4, 16.7, 17.2, 16.8, 15.7, 16.3, 18.2, 16.5, 15.9, 17.3, 17.5, 15.8, 17.3, 16.6, 15.8, 17.6, 16, 16.9, 16.7, 16.1, 17.5, 15.8, 17.4, 16.7, 17.7, 15.4, 17.4, 15.4, 17.2, 16.7, 16, 17.1, 16.4, 17.1, 17.7, 15.4, 17.3, 15.8, 17.3, 17.4, 15.5, 17.1, 17.5, 14.8, 17.7, 17.2, 15.4, 16.3, 17.4, 16.1, 16.8, 17.7, 17.4, 16.4, 15.9, 15.7, 17.5, 16.4, 18.2, 16.7, 15.8, 15.7, 17.3, 16.4, 17.3, 16.4, 17.3, 16.3, 15.6, 17.8, 16.7, 16.3, 17.1, 16.7, 16.2, 17.4, 15.8, 17.6, 16.4, 15.8, 17.4, 16.3, 16.6, 16.9, 17.3, 16, 15.7, 17.5, 17.4, 16.5, 15.7, 17.4, 15.6, 18.5, 16.4, 15.9, 17.5, 16.4, 15.7, 17.8, 16.6, 16.6, 15.7]",60.0,63.0,59.0,5019.8,[],,,,,,,,,,,,,,,,,,,,,,,,,HRV,HRV_0138,2022-11-30 18:28:54
,wl-html-keyboard-response,2,51989,0.0-2.0-0.0,0.0,3.0,,,,,,,,41617.70000000298,0.0,0,,,,,,,,,,,,,,,,,,,,,,HRV,HRV_0138,2022-11-30 18:28:54
,wl-rdm,3,58947,0.0-3.0-0.0,0.0,4.0,,,,,,,[],,,,0.0,0.0,87.9,0.0,u,0.0,True,1362.3999999985099,81.0,59.0,40.0,False,,3000.0,[],"[640, 400]",ColorTask_Demo,,,,,HRV,HRV_0138,2022-11-30 18:28:54
,wl-rdm,4,63716,0.0-3.0-1.0,0.0,5.0,,,,,,,[],,,,0.0,0.0,87.9,1.0,i,1.0,True,710.8000000044703,43.0,59.0,40.0,False,,2000.0,[],"[640, 400]",ColorTask_Demo,,,,,HRV,HRV_0138,2022-11-30 18:28:54
,wl-html-keyboard-response,5,68824,0.0-3.0-2.0,0.0,6.0,,,,,,,,3099.5,0.0,1,,,,,,,,,,,,,,,,,,,,,,HRV,HRV_0138,2022-11-30 18:28:54
,wl-html-keyboard-response,6,80295,0.0-4.0-0.0,0.0,7.0,,,,,,,,9466.5,0.0,0,,,,,,,,,,,,,,,,,,,,,,HRV,HRV_0138,2022-11-30 18:28:54
,wl-html-keyboard-response,7,95825,0.0-5.0-0.0,0.0,8.0,,,,,,,,13525.90000000596,0.0,0,,,,,,,,,,,,,,,,,,,,,,HRV,HRV_0138,2022-11-30 18:28:54
,wl-rdm,8,98569,0.0-6.0-0.0,0.0,9.0,,,,,,,[],,,,,,73.6,0.0,u,0.0,True,1339.8999999985099,81.0,59.0,40.0,False,,343.5155010494959,[],"[640, 400]",ColorTask,1.0,1.0,,,HRV,HRV_0138,2022-11-30 18:28:54
,wl-rdm,9,101373,0.0-6.1-0.1,0.0,10.0,,,,,,,[],,,,,,73.6,0.0,u,0.0,True,1433.8999999985099,86.0,59.0,40.0,False,,286.35547388192276,[],"[640, 400]",ColorTask,2.0,2.0,,,HRV,HRV_0138,2022-11-30 18:28:54
,wl-rdm,10,103938,0.0-6.2-0.2,0.0,11.0,,,,,,,[],,,,,,50.0,0.0,i,1.0,False,1295.9999999925494,78.0,59.0,40.0,False,,213.50937749628204,[],"[640, 400]",ColorTask,1.0,3.0,,,HRV,HRV_0138,2022-11-30 18:28:54
,wl-rdm,11,106506,0.0-6.3-0.3,0.0,12.0,,,,,,,[],,,,,,62.5,1.0,i,1.0,True,1224.6000000014901,74.0,59.0,40.0,False,,258.3820211398343,[],"[640, 400]",ColorTask,2.0,4.0,,,HRV,HRV_0138,2022-11-30 18:28:54
,wl-rdm,12,109006,0.0-6.4-0.4,0.0,13.0,,,,,,,[],,,,,,53.2,0.0,i,1.0,False,1157.6999999955297,68.0,59.0,40.0,False,,258.1503206377692,[],"[640, 400]",ColorTask,1.0,5.0,,,HRV,HRV_0138,2022-11-30 18:28:54
,wl-rdm,13,111524,0.0-6.5-0.5,0.0,14.0,,,,,,,[],,,,,,53.2,1.0,i,1.0,True,1080.0,65.0,59.0,40.0,False,,367.3332912400566,[],"[640, 400]",ColorTask,2.0,6.0,,,HRV,HRV_0138,2022-11-30 18:28:54
,wl-rdm,14,114192,0.0-6.6-0.6,0.0,15.0,,,,,,,[],,,,,,62.5,1.0,i,1.0,True,1267.5,76.0,59.0,40.0,False,,336.601078654999,[],"[640, 400]",ColorTask,3.0,7.0,,,HRV,HRV_0138,2022-11-30 18:28:54
,wl-rdm,15,116594,0.0-6.7-0.7,0.0,16.0,,,,,,,[],,,,,,62.5,0.0,u,0.0,True,1131.2000000029802,68.0,59.0,40.0,False,,208.6238237451024,[],"[640, 400]",ColorTask,4.0,8.0,,,HRV,HRV_0138,2022-11-30 18:28:54
,wl-rdm,16,119578,0.0-6.8-0.8,0.0,17.0,,,,,,,[],,,,,,50.0,1.0,i,1.0,True,1674.0,97.0,59.0,40.0,False,,245.50977024100354,[],"[640, 400]",ColorTask,5.0,9.0,,,HRV,HRV_0138,2022-11-30 18:28:54
,wl-rdm,17,122479,0.0-6.9-0.9,0.0,18.0,,,,,,,[],,,,,,50.0,1.0,u,0.0,False,1543.2999999970198,93.0,59.0,40.0,False,,285.1318409420803,[],"[640, 400]",ColorTask,4.0,10.0,,,HRV,HRV_0138,2022-11-30 18:28:54
,wl-rdm,18,125281,0.0-6.10-0.10,0.0,19.0,,,,,,,[],,,,,,87.9,1.0,i,1.0,True,1422.0,83.0,59.0,40.0,False,,290.04214054814804,[],"[640, 400]",ColorTask,5.0,11.0,,,HRV,HRV_0138,2022-11-30 18:28:54
,wl-rdm,19,128615,0.0-6.11-0.11,0.0,20.0,,,,,,,[],,,,,,50.0,1.0,i,1.0,True,2025.4000000059605,122.0,59.0,40.0,False,,234.09416579781032,[],"[640, 400]",ColorTask,6.0,12.0,,,HRV,HRV_0138,2022-11-30 18:28:54
,wl-rdm,20,131683,0.0-6.12-0.12,0.0,21.0,,,,,,,[],,,,,,73.6,0.0,u,0.0,True,1758.0,106.0,59.0,40.0,False,,211.9970255133914,[],"[640, 400]",ColorTask,7.0,13.0,,,HRV,HRV_0138,2022-11-30 18:28:54
,wl-rdm,21,135138,0.0-6.13-0.13,0.0,22.0,,,,,,,[],,,,,,53.2,0.0,i,1.0,False,2172.0999999940395,131.0,59.0,40.0,False,,207.75393866595508,[],"[640, 400]",ColorTask,6.0,14.0,,,HRV,HRV_0138,2022-11-30 18:28:54
,wl-rdm,22,138522,0.0-6.14-0.14,0.0,23.0,,,,,,,[],,,,,,56.4,0.0,i,1.0,False,1921.2999999970198,116.0,59.0,40.0,False,,392.72283244741334,[],"[640, 400]",ColorTask,5.0,15.0,,,HRV,HRV_0138,2022-11-30 18:28:54
,wl-rdm,23,141455,0.0-6.15-0.15,0.0,24.0,,,,,,,[],,,,,,73.6,1.0,i,1.0,True,1538.5,91.0,59.0,40.0,False,,320.8486304156713,[],"[640, 400]",ColorTask,6.0,16.0,,,HRV,HRV_0138,2022-11-30 18:28:54
,wl-rdm,24,145740,0.0-6.16-0.16,0.0,24.0,,,,,,,[],,,,,,53.2,0.0,,,,,176.0,59.0,40.0,True,RT_timeout ,213.6802284931216,[],"[640, 400]",ColorTask,5.0,17.0,,,HRV,HRV_0138,2022-11-30 18:28:54
,wl-rdm,25,148041,0.0-6.17-0.17,0.0,25.0,,,,,,,[],,,,,,73.6,1.0,i,1.0,True,964.3999999985099,58.0,59.0,40.0,False,,271.00658921323696,[],"[640, 400]",ColorTask,6.0,18.0,,,HRV,HRV_0138,2022-11-30 18:28:54
,wl-rdm,26,151627,0.0-6.18-0.18,0.0,26.0,,,,,,,[],,,,,,50.0,1.0,u,0.0,False,2120.60000000149,128.0,59.0,40.0,False,,369.5077879477689,[],"[640, 400]",ColorTask,5.0,19.0,,,HRV,HRV_0138,2022-11-30 18:28:54
,wl-rdm,27,154945,0.0-6.19-0.19,0.0,27.0,,,,,,,[],,,,,,56.4,1.0,i,1.0,True,1867.2999999970198,113.0,59.0,40.0,False,,356.5138179415088,[],"[640, 400]",ColorTask,6.0,20.0,,,HRV,HRV_0138,2022-11-30 18:28:54
,wl-rdm,28,157963,0.0-6.20-0.20,0.0,28.0,,,,,,,[],,,,,,62.5,0.0,u,0.0,True,1670.7000000029802,101.0,59.0,40.0,False,,269.1681178722642,[],"[640, 400]",ColorTask,7.0,21.0,,,HRV,HRV_0138,2022-11-30 18:28:54
,wl-rdm,29,161298,0.0-6.21-0.21,0.0,29.0,,,,,,,[],,,,,,53.2,1.0,i,1.0,True,1882.3999999985099,113.0,59.0,40.0,False,,397.4589772351419,[],"[640, 400]",ColorTask,8.0,22.0,,,HRV,HRV_0138,2022-11-30 18:28:54
,wl-rdm,30,165034,0.0-6.22-0.22,0.0,30.0,,,,,,,[],,,,,,62.5,0.0,u,0.0,True,2446.5999999940395,145.0,59.0,40.0,False,,227.81482773777017,[],"[640, 400]",ColorTask,9.0,23.0,,,HRV,HRV_0138,2022-11-30 18:28:54
,wl-rdm,31,167534,0.0-6.23-0.23,0.0,31.0,,,,,,,[],,,,,,87.9,0.0,u,0.0,True,1088.9000000059605,66.0,59.0,40.0,False,,325.2847910521507,[],"[640, 400]",ColorTask,10.0,24.0,,,HRV,HRV_0138,2022-11-30 18:28:54
,wl-rdm,32,170804,0.0-6.24-0.24,0.0,32.0,,,,,,,[],,,,,,56.4,0.0,i,1.0,False,1915.8000000044703,115.0,59.0,40.0,False,,292.97006275116274,[],"[640, 400]",ColorTask,9.0,25.0,,,HRV,HRV_0138,2022-11-30 18:28:54
,wl-rdm,33,173553,0.0-6.25-0.25,0.0,33.0,,,,,,,[],,,,,,56.4,0.0,u,0.0,True,1453.3999999985099,88.0,59.0,40.0,False,,233.82548204398802,[],"[640, 400]",ColorTask,10.0,26.0,,,HRV,HRV_0138,2022-11-30 18:28:54
,wl-rdm,34,177138,0.0-6.26-0.26,0.0,34.0,,,,,,,[],,,,,,56.4,1.0,i,1.0,True,2179.7000000029802,132.0,59.0,40.0,False,,275.71698990486857,[],"[640, 400]",ColorTask,11.0,27.0,,,HRV,HRV_0138,2022-11-30 18:28:54
,wl-rdm,35,179356,0.0-6.27-0.27,0.0,35.0,,,,,,,[],,,,,,87.9,1.0,i,1.0,True,778.9000000059605,47.0,59.0,40.0,False,,381.188821518498,[],"[640, 400]",ColorTask,12.0,28.0,,,HRV,HRV_0138,2022-11-30 18:28:54
,wl-rdm,36,182960,0.0-6.28-0.28,0.0,36.0,,,,,,,[],,,,,,53.2,1.0,i,1.0,True,2137.5,125.0,59.0,40.0,False,,385.4310037541994,[],"[640, 400]",ColorTask,13.0,29.0,,,HRV,HRV_0138,2022-11-30 18:28:54
,wl-rdm,37,185326,0.0-6.29-0.29,0.0,37.0,,,,,,,[],,,,,,87.9,1.0,i,1.0,True,975.8000000044703,59.0,59.0,40.0,False,,323.849231959235,[],"[640, 400]",ColorTask,14.0,30.0,,,HRV,HRV_0138,2022-11-30 18:28:54
,wl-rdm,38,187544,0.0-6.30-0.30,0.0,38.0,,,,,,,[],,,,,,73.6,1.0,i,1.0,True,840.8999999985099,51.0,59.0,40.0,False,,293.758857705811,[],"[640, 400]",ColorTask,15.0,31.0,,,HRV,HRV_0138,2022-11-30 18:28:54
,wl-rdm,39,190180,0.0-6.31-0.31,0.0,39.0,,,,,,,[],,,,,,50.0,1.0,i,1.0,True,1221.1000000014901,74.0,59.0,40.0,False,,323.1015908684444,[],"[640, 400]",ColorTask,16.0,32.0,,,HRV,HRV_0138,2022-11-30 18:28:54
,wl-rdm,40,193815,0.0-6.32-0.32,0.0,40.0,,,,,,,[],,,,,,56.4,0.0,i,1.0,False,2353.2999999970198,142.0,59.0,40.0,False,,203.04858771583406,[],"[640, 400]",ColorTask,15.0,33.0,,,HRV,HRV_0138,2022-11-30 18:28:54
,wl-rdm,41,197632,0.0-6.33-0.33,0.0,41.0,,,,,,,[],,,,,,53.2,0.0,i,1.0,False,2504.5000000074506,151.0,59.0,40.0,False,,219.3029586321268,[],"[640, 400]",ColorTask,14.0,34.0,,,HRV,HRV_0138,2022-11-30 18:28:54
,wl-rdm,42,200185,0.0-6.34-0.34,0.0,42.0,,,,,,,[],,,,,,62.5,1.0,i,1.0,True,1242.8000000044703,75.0,59.0,40.0,False,,238.15082806850486,[],"[640, 400]",ColorTask,15.0,35.0,,,HRV,HRV_0138,2022-11-30 18:28:54
,wl-rdm,43,203236,0.0-6.35-0.35,0.0,43.0,,,,,,,[],,,,,,50.0,0.0,u,0.0,True,1700.7000000029802,102.0,59.0,40.0,False,,280.30557452122014,[],"[640, 400]",ColorTask,16.0,36.0,,,HRV,HRV_0138,2022-11-30 18:28:54
,wl-rdm,44,206538,0.0-6.36-0.36,0.0,44.0,,,,,,,[],,,,,,53.2,0.0,i,1.0,False,1973.5,117.0,59.0,40.0,False,,239.19552857013215,[],"[640, 400]",ColorTask,15.0,37.0,,,HRV,HRV_0138,2022-11-30 18:28:54
,wl-rdm,45,209156,0.0-6.37-0.37,0.0,45.0,,,,,,,[],,,,,,87.9,0.0,u,0.0,True,1158.5000000074506,70.0,59.0,40.0,False,,379.8098273139618,[],"[640, 400]",ColorTask,16.0,38.0,,,HRV,HRV_0138,2022-11-30 18:28:54
,wl-rdm,46,212540,0.0-6.38-0.38,0.0,46.0,,,,,,,[],,,,,,62.5,1.0,i,1.0,True,2078.4000000059605,122.0,59.0,40.0,False,,220.33302476010326,[],"[640, 400]",ColorTask,17.0,39.0,,,HRV,HRV_0138,2022-11-30 18:28:54
,wl-rdm,47,215308,0.0-6.39-0.39,0.0,47.0,,,,,,,[],,,,,,56.4,1.0,i,1.0,True,1319.8000000044703,78.0,59.0,40.0,False,,352.9469145029734,[],"[640, 400]",ColorTask,18.0,40.0,,,HRV,HRV_0138,2022-11-30 18:28:54
,wl-rdm,48,219394,0.0-6.40-0.40,0.0,48.0,,,,,,,[],,,,,,53.2,0.0,i,1.0,False,2789.8999999910593,168.0,59.0,40.0,False,,215.40616112456578,[],"[640, 400]",ColorTask,17.0,41.0,,,HRV,HRV_0138,2022-11-30 18:28:54
,wl-rdm,49,222479,0.0-6.41-0.41,0.0,49.0,,,,,,,[],,,,,,53.2,1.0,i,1.0,True,1655.7999999970198,100.0,59.0,40.0,False,,339.5081437401212,[],"[640, 400]",ColorTask,18.0,42.0,,,HRV,HRV_0138,2022-11-30 18:28:54
,wl-rdm,50,224596,0.0-6.42-0.42,0.0,50.0,,,,,,,[],,,,,,87.9,0.0,u,0.0,True,787.7000000029802,48.0,59.0,40.0,False,,261.6447693728006,[],"[640, 400]",ColorTask,19.0,43.0,,,HRV,HRV_0138,2022-11-30 18:28:54
,wl-rdm,51,227331,0.0-6.43-0.43,0.0,51.0,,,,,,,[],,,,,,62.5,1.0,i,1.0,True,1364.8999999985099,80.0,59.0,40.0,False,,302.0917288157737,[],"[640, 400]",ColorTask,20.0,44.0,,,HRV,HRV_0138,2022-11-30 18:28:54
,wl-rdm,52,231467,0.0-6.44-0.44,0.0,52.0,,,,,,,[],,,,,,56.4,0.0,u,0.0,True,2823.89999999851,170.0,59.0,40.0,False,,239.8252881998137,[],"[640, 400]",ColorTask,21.0,45.0,,,HRV,HRV_0138,2022-11-30 18:28:54
,wl-rdm,53,234202,0.0-6.45-0.45,0.0,53.0,,,,,,,[],,,,,,73.6,0.0,u,0.0,True,1405.3000000044703,85.0,59.0,40.0,False,,257.42746221715714,[],"[640, 400]",ColorTask,22.0,46.0,,,HRV,HRV_0138,2022-11-30 18:28:54
,wl-rdm,54,237502,0.0-6.46-0.46,0.0,54.0,,,,,,,[],,,,,,56.4,1.0,i,1.0,True,1924.6999999955297,114.0,59.0,40.0,False,,297.4422531294965,[],"[640, 400]",ColorTask,23.0,47.0,,,HRV,HRV_0138,2022-11-30 18:28:54
,wl-rdm,55,239721,0.0-6.47-0.47,0.0,55.0,,,,,,,[],,,,,,73.6,1.0,i,1.0,True,926.3000000044703,56.0,59.0,40.0,False,,218.2700229363107,[],"[640, 400]",ColorTask,24.0,48.0,,,HRV,HRV_0138,2022-11-30 18:28:54
,wl-rdm,56,241988,0.0-6.48-0.48,0.0,56.0,,,,,,,[],,,,,,87.9,0.0,u,0.0,True,858.8999999985099,52.0,59.0,40.0,False,,337.92138490531823,[],"[640, 400]",ColorTask,25.0,49.0,,,HRV,HRV_0138,2022-11-30 18:28:54
,wl-rdm,57,245290,0.0-6.49-0.49,0.0,57.0,,,,,,,[],,,,,,53.2,1.0,i,1.0,True,1893.6000000014901,113.0,59.0,40.0,False,,326.3664724900372,[],"[640, 400]",ColorTask,26.0,50.0,,,HRV,HRV_0138,2022-11-30 18:28:54
,wl-rdm,58,248007,0.0-6.50-0.50,0.0,58.0,,,,,,,[],,,,,,73.6,1.0,i,1.0,True,1414.0999999940395,82.0,59.0,40.0,False,,228.75110643299305,[],"[640, 400]",ColorTask,27.0,51.0,,,HRV,HRV_0138,2022-11-30 18:28:54
,wl-rdm,59,251276,0.0-6.51-0.51,0.0,59.0,,,,,,,[],,,,,,62.5,0.0,u,0.0,True,1988.3000000044703,120.0,59.0,40.0,False,,210.17667354681743,[],"[640, 400]",ColorTask,28.0,52.0,,,HRV,HRV_0138,2022-11-30 18:28:54
,wl-rdm,60,254644,0.0-6.52-0.52,0.0,60.0,,,,,,,[],,,,,,87.9,1.0,i,1.0,True,2090.39999999851,126.0,59.0,40.0,False,,206.90355230415278,[],"[640, 400]",ColorTask,29.0,53.0,,,HRV,HRV_0138,2022-11-30 18:28:54
,wl-rdm,61,257147,0.0-6.53-0.53,0.0,61.0,,,,,,,[],,,,,,62.5,0.0,u,0.0,True,1137.5999999940395,69.0,59.0,40.0,False,,292.27008174254684,[],"[640, 400]",ColorTask,30.0,54.0,,,HRV,HRV_0138,2022-11-30 18:28:54
,wl-rdm,62,261315,0.0-6.54-0.54,0.0,62.0,,,,,,,[],,,,,,53.2,0.0,i,1.0,False,2794.5,166.0,59.0,40.0,False,,295.172707718787,[],"[640, 400]",ColorTask,29.0,55.0,,,HRV,HRV_0138,2022-11-30 18:28:54
,wl-rdm,63,263699,0.0-6.55-0.55,0.0,63.0,,,,,,,[],,,,,,87.9,0.0,u,0.0,True,953.2000000029802,57.0,59.0,40.0,False,,352.6323410355502,[],"[640, 400]",ColorTask,30.0,56.0,,,HRV,HRV_0138,2022-11-30 18:28:54
,wl-rdm,64,266755,0.0-6.56-0.56,0.0,64.0,,,,,,,[],,,,,,87.9,1.0,i,1.0,True,1721.9000000059605,104.0,59.0,40.0,False,,241.72407464484758,[],"[640, 400]",ColorTask,31.0,57.0,,,HRV,HRV_0138,2022-11-30 18:28:54
,wl-rdm,65,270923,0.0-6.57-0.57,0.0,65.0,,,,,,,[],,,,,,50.0,1.0,u,0.0,False,2759.7000000029802,163.0,59.0,40.0,False,,339.46635035988265,[],"[640, 400]",ColorTask,30.0,58.0,,,HRV,HRV_0138,2022-11-30 18:28:54
,wl-rdm,66,273537,0.0-6.58-0.58,0.0,66.0,,,,,,,[],,,,,,56.4,1.0,i,1.0,True,1172.0,71.0,59.0,40.0,False,,352.3755081912688,[],"[640, 400]",ColorTask,31.0,59.0,,,HRV,HRV_0138,2022-11-30 18:28:54
,wl-rdm,67,276206,0.0-6.59-0.59,0.0,67.0,,,,,,,[],,,,,,56.4,0.0,i,1.0,False,1319.8000000044703,79.0,59.0,40.0,False,,303.7003355765448,[],"[640, 400]",ColorTask,30.0,60.0,,,HRV,HRV_0138,2022-11-30 18:28:54
,wl-rdm,68,278591,0.0-6.60-0.60,0.0,68.0,,,,,,,[],,,,,,73.6,1.0,i,1.0,True,922.6000000014901,56.0,59.0,40.0,False,,392.15697369298425,[],"[640, 400]",ColorTask,31.0,61.0,,,HRV,HRV_0138,2022-11-30 18:28:54
,wl-rdm,69,281477,0.0-6.61-0.61,0.0,69.0,,,,,,,[],,,,,,53.2,1.0,i,1.0,True,1575.7999999970198,95.0,59.0,40.0,False,,225.48084214196328,[],"[640, 400]",ColorTask,32.0,62.0,,,HRV,HRV_0138,2022-11-30 18:28:54
,wl-rdm,70,285911,0.0-6.62-0.62,0.0,69.0,,,,,,,[],,,,,,62.5,0.0,i,,,3176.5,176.0,59.0,40.0,True,RT_timeout ,334.21596686322493,[],"[640, 400]",ColorTask,31.0,63.0,,,HRV,HRV_0138,2022-11-30 18:28:54
,wl-rdm,71,288043,0.0-6.63-0.63,0.0,70.0,,,,,,,[],,,,,,87.9,0.0,u,0.0,True,822.7999999970198,48.0,59.0,40.0,False,,235.1560913092658,[],"[640, 400]",ColorTask,32.0,64.0,,,HRV,HRV_0138,2022-11-30 18:28:54
,wl-rdm,72,291148,0.0-6.64-0.64,0.0,71.0,,,,,,,[],,,,,,62.5,0.0,i,1.0,False,1744.2999999895692,105.0,59.0,40.0,False,,274.83031135679136,[],"[640, 400]",ColorTask,31.0,65.0,,,HRV,HRV_0138,2022-11-30 18:28:54
,wl-rdm,73,294214,0.0-6.65-0.65,0.0,72.0,,,,,,,[],,,,,,50.0,1.0,i,1.0,True,1667.4000000059605,101.0,59.0,40.0,False,,311.70053326462505,[],"[640, 400]",ColorTask,32.0,66.0,,,HRV,HRV_0138,2022-11-30 18:28:54
,wl-rdm,74,296365,0.0-6.66-0.66,0.0,73.0,,,,,,,[],,,,,,73.6,1.0,i,1.0,True,873.5999999940395,52.0,59.0,40.0,False,,220.18358710767478,[],"[640, 400]",ColorTask,33.0,67.0,,,HRV,HRV_0138,2022-11-30 18:28:54
,wl-rdm,75,299384,0.0-6.67-0.67,0.0,74.0,,,,,,,[],,,,,,53.2,0.0,i,1.0,False,1574.5,95.0,59.0,40.0,False,,365.36013081792123,[],"[640, 400]",ColorTask,32.0,68.0,,,HRV,HRV_0138,2022-11-30 18:28:54
,wl-rdm,76,301768,0.0-6.68-0.68,0.0,75.0,,,,,,,[],,,,,,56.4,1.0,i,1.0,True,1089.0,65.0,59.0,40.0,False,,231.81557916066166,[],"[640, 400]",ColorTask,33.0,69.0,,,HRV,HRV_0138,2022-11-30 18:28:54
,wl-rdm,77,304187,0.0-6.69-0.69,0.0,76.0,,,,,,,[],,,,,,73.6,0.0,u,0.0,True,1013.0,61.0,59.0,40.0,False,,348.9777213836701,[],"[640, 400]",ColorTask,34.0,70.0,,,HRV,HRV_0138,2022-11-30 18:28:54
,wl-rdm,78,307237,0.0-6.70-0.70,0.0,77.0,,,,,,,[],,,,,,53.2,0.0,i,1.0,False,1756.6000000014901,106.0,59.0,40.0,False,,225.9446483953854,[],"[640, 400]",ColorTask,33.0,71.0,,,HRV,HRV_0138,2022-11-30 18:28:54
,wl-rdm,79,309222,0.0-6.71-0.71,0.0,78.0,,,,,,,[],,,,,,87.9,0.0,u,0.0,True,697.7000000029802,42.0,59.0,40.0,False,,202.56188669782063,[],"[640, 400]",ColorTask,34.0,72.0,,,HRV,HRV_0138,2022-11-30 18:28:54
,wl-rdm,80,312492,0.0-6.72-0.72,0.0,79.0,,,,,,,[],,,,,,50.0,0.0,i,1.0,False,1946.8999999985099,117.0,59.0,40.0,False,,258.7072927758181,[],"[640, 400]",ColorTask,33.0,73.0,,,HRV,HRV_0138,2022-11-30 18:28:54
,wl-rdm,81,315625,0.0-6.73-0.73,0.0,80.0,,,,,,,[],,,,,,50.0,1.0,u,0.0,False,1790.8999999985099,108.0,59.0,40.0,False,,270.4334376958237,[],"[640, 400]",ColorTask,32.0,74.0,,,HRV,HRV_0138,2022-11-30 18:28:54
,wl-rdm,82,318878,0.0-6.74-0.74,0.0,81.0,,,,,,,[],,,,,,62.5,0.0,u,0.0,True,1912.4999999925494,115.0,59.0,40.0,False,,255.45318228137972,[],"[640, 400]",ColorTask,33.0,75.0,,,HRV,HRV_0138,2022-11-30 18:28:54
,wl-rdm,83,321095,0.0-6.75-0.75,0.0,82.0,,,,,,,[],,,,,,87.9,1.0,i,1.0,True,915.7000000029802,54.0,59.0,40.0,False,,238.18594595064224,[],"[640, 400]",ColorTask,34.0,76.0,,,HRV,HRV_0138,2022-11-30 18:28:54
,wl-rdm,84,323696,0.0-6.76-0.76,0.0,83.0,,,,,,,[],,,,,,73.6,0.0,u,0.0,True,1199.4000000059605,72.0,59.0,40.0,False,,344.89818963624714,[],"[640, 400]",ColorTask,35.0,77.0,,,HRV,HRV_0138,2022-11-30 18:28:54
,wl-rdm,85,326364,0.0-6.77-0.77,0.0,84.0,,,,,,,[],,,,,,50.0,0.0,i,1.0,False,1374.6000000014901,83.0,59.0,40.0,False,,227.11308901121888,[],"[640, 400]",ColorTask,34.0,78.0,,,HRV,HRV_0138,2022-11-30 18:28:54
,wl-rdm,86,329833,0.0-6.78-0.78,0.0,85.0,,,,,,,[],,,,,,56.4,0.0,u,0.0,True,2009.7000000029802,120.0,59.0,40.0,False,,395.88840708766736,[],"[640, 400]",ColorTask,35.0,79.0,,,HRV,HRV_0138,2022-11-30 18:28:54
,wl-rdm,87,332850,0.0-6.79-0.79,0.0,86.0,,,,,,,[],,,,,,62.5,0.0,u,0.0,True,1748.2000000029802,105.0,59.0,40.0,False,,200.59142281749067,[],"[640, 400]",ColorTask,36.0,80.0,,,HRV,HRV_0138,2022-11-30 18:28:54
,wl-rdm,88,335952,0.0-6.80-0.80,0.0,87.0,,,,,,,[],,,,,,62.5,1.0,i,1.0,True,1789.5,107.0,59.0,40.0,False,,244.3415882054048,[],"[640, 400]",ColorTask,37.0,81.0,,,HRV,HRV_0138,2022-11-30 18:28:54
,wl-rdm,89,339120,0.0-6.81-0.81,0.0,88.0,,,,,,,[],,,,,,56.4,0.0,i,1.0,False,1860.2000000029802,112.0,59.0,40.0,False,,236.82442320739898,[],"[640, 400]",ColorTask,36.0,82.0,,,HRV,HRV_0138,2022-11-30 18:28:54
,wl-rdm,90,342389,0.0-6.82-0.82,0.0,89.0,,,,,,,[],,,,,,56.4,1.0,i,1.0,True,1833.1999999955297,110.0,59.0,40.0,False,,372.10434228469035,[],"[640, 400]",ColorTask,37.0,83.0,,,HRV,HRV_0138,2022-11-30 18:28:54
,wl-rdm,91,345674,0.0-6.83-0.83,0.0,90.0,,,,,,,[],,,,,,50.0,0.0,i,1.0,False,1848.6000000014901,109.0,59.0,40.0,False,,359.19853248743425,[],"[640, 400]",ColorTask,36.0,84.0,,,HRV,HRV_0138,2022-11-30 18:28:54
,wl-rdm,92,349043,0.0-6.84-0.84,0.0,91.0,,,,,,,[],,,,,,62.5,1.0,i,1.0,True,1913.2999999970198,113.0,59.0,40.0,False,,370.62505174157195,[],"[640, 400]",ColorTask,37.0,85.0,,,HRV,HRV_0138,2022-11-30 18:28:54
,wl-rdm,93,351244,0.0-6.85-0.85,0.0,92.0,,,,,,,[],,,,,,73.6,0.0,u,0.0,True,836.2999999970198,51.0,59.0,40.0,False,,291.9456447657531,[],"[640, 400]",ColorTask,38.0,86.0,,,HRV,HRV_0138,2022-11-30 18:28:54
,wl-rdm,94,354062,0.0-6.86-0.86,0.0,93.0,,,,,,,[],,,,,,73.6,0.0,u,0.0,True,1421.2999999970198,85.0,59.0,40.0,False,,331.0011295045708,[],"[640, 400]",ColorTask,39.0,87.0,,,HRV,HRV_0138,2022-11-30 18:28:54
,wl-rdm,95,356864,0.0-6.87-0.87,0.0,94.0,,,,,,,[],,,,,,53.2,1.0,i,1.0,True,1291.5999999940395,78.0,59.0,40.0,False,,381.0790451921722,[],"[640, 400]",ColorTask,40.0,88.0,,,HRV,HRV_0138,2022-11-30 18:28:54
,wl-rdm,96,359630,0.0-6.88-0.88,0.0,95.0,,,,,,,[],,,,,,73.6,0.0,u,0.0,True,1310.2999999970198,79.0,59.0,40.0,False,,386.85420062323294,[],"[640, 400]",ColorTask,41.0,89.0,,,HRV,HRV_0138,2022-11-30 18:28:54
,wl-rdm,97,362648,0.0-6.89-0.89,0.0,96.0,,,,,,,[],,,,,,50.0,0.0,i,1.0,False,1741.1000000014901,105.0,59.0,40.0,False,,206.54964038941117,[],"[640, 400]",ColorTask,40.0,90.0,,,HRV,HRV_0138,2022-11-30 18:28:54
,wl-rdm,98,365184,0.0-6.90-0.90,0.0,97.0,,,,,,,[],,,,,,87.9,0.0,u,0.0,True,1179.2999999970198,71.0,59.0,40.0,False,,279.6479433802132,[],"[640, 400]",ColorTask,41.0,91.0,,,HRV,HRV_0138,2022-11-30 18:28:54
,wl-rdm,99,367500,0.0-6.91-0.91,0.0,98.0,,,,,,,[],,,,,,87.9,1.0,i,1.0,True,974.0,59.0,59.0,40.0,False,,258.77782523558335,[],"[640, 400]",ColorTask,42.0,92.0,,,HRV,HRV_0138,2022-11-30 18:28:54
,wl-rdm,100,369721,0.0-6.92-0.92,0.0,99.0,,,,,,,[],,,,,,87.9,1.0,i,1.0,True,877.0,53.0,59.0,40.0,False,,269.88980277479203,[],"[640, 400]",ColorTask,43.0,93.0,,,HRV,HRV_0138,2022-11-30 18:28:54
,wl-rdm,101,372088,0.0-6.93-0.93,0.0,100.0,,,,,,,[],,,,,,87.9,0.0,u,0.0,True,993.3000000044703,60.0,59.0,40.0,False,,308.3540947184344,[],"[640, 400]",ColorTask,44.0,94.0,,,HRV,HRV_0138,2022-11-30 18:28:54
,wl-rdm,102,375438,0.0-6.94-0.94,0.0,101.0,,,,,,,[],,,,,,62.5,1.0,i,1.0,True,1935.8000000044703,116.0,59.0,40.0,False,,338.5964995461072,[],"[640, 400]",ColorTask,45.0,95.0,,,HRV,HRV_0138,2022-11-30 18:28:54
,wl-rdm,103,377791,0.0-6.95-0.95,0.0,102.0,,,,,,,[],,,,,,73.6,1.0,i,1.0,True,1054.5,63.0,59.0,40.0,False,,218.6274110615209,[],"[640, 400]",ColorTask,46.0,96.0,,,HRV,HRV_0138,2022-11-30 18:28:54
,wl-rdm,104,381207,0.0-6.96-0.96,0.0,103.0,,,,,,,[],,,,,,56.4,1.0,i,1.0,True,2072.39999999851,123.0,59.0,40.0,False,,277.61650407840295,[],"[640, 400]",ColorTask,47.0,97.0,,,HRV,HRV_0138,2022-11-30 18:28:54
,wl-rdm,105,383925,0.0-6.97-0.97,0.0,104.0,,,,,,,[],,,,,,62.5,0.0,u,0.0,True,1447.2999999970198,87.0,59.0,40.0,False,,205.38215193133453,[],"[640, 400]",ColorTask,48.0,98.0,,,HRV,HRV_0138,2022-11-30 18:28:54
,wl-rdm,106,386227,0.0-6.98-0.98,0.0,105.0,,,,,,,[],,,,,,73.6,1.0,i,1.0,True,948.8999999985099,57.0,59.0,40.0,False,,292.00667656970785,[],"[640, 400]",ColorTask,49.0,99.0,,,HRV,HRV_0138,2022-11-30 18:28:54
,wl-rdm,107,388578,0.0-6.99-0.99,0.0,106.0,,,,,,,[],,,,,,87.9,1.0,i,1.0,True,912.8000000044703,55.0,59.0,40.0,False,,374.10330950444813,[],"[640, 400]",ColorTask,50.0,100.0,,,HRV,HRV_0138,2022-11-30 18:28:54
,wl-rdm,108,391179,0.0-6.100-0.100,0.0,107.0,,,,,,,[],,,,,,50.0,0.0,u,0.0,True,1238.1000000014901,73.0,59.0,40.0,False,,269.4662325297696,[],"[640, 400]",ColorTask,51.0,101.0,,,HRV,HRV_0138,2022-11-30 18:28:54
,wl-rdm,109,393664,0.0-6.101-0.101,0.0,108.0,,,,,,,[],,,,,,53.2,1.0,i,1.0,True,1215.0999999940395,73.0,59.0,40.0,False,,208.6673138114511,[],"[640, 400]",ColorTask,52.0,102.0,,,HRV,HRV_0138,2022-11-30 18:28:54
,wl-rdm,110,397117,0.0-6.102-0.102,0.0,109.0,,,,,,,[],,,,,,53.2,0.0,u,0.0,True,2021.4000000059605,119.0,59.0,40.0,False,,340.10875164096217,[],"[640, 400]",ColorTask,53.0,103.0,,,HRV,HRV_0138,2022-11-30 18:28:54
,wl-rdm,111,400183,0.0-6.103-0.103,0.0,110.0,,,,,,,[],,,,,,50.0,0.0,u,0.0,True,1632.4000000059605,96.0,59.0,40.0,False,,362.0340251587186,[],"[640, 400]",ColorTask,54.0,104.0,,,HRV,HRV_0138,2022-11-30 18:28:54
,wl-rdm,112,403334,0.0-6.104-0.104,0.0,111.0,,,,,,,[],,,,,,53.2,1.0,u,0.0,False,1848.2000000029802,109.0,59.0,40.0,False,,223.32497127061924,[],"[640, 400]",ColorTask,53.0,105.0,,,HRV,HRV_0138,2022-11-30 18:28:54
,wl-rdm,113,406256,0.0-6.105-0.105,0.0,112.0,,,,,,,[],,,,,,50.0,1.0,u,0.0,False,1604.3999999985099,97.0,59.0,40.0,False,,227.8711105235492,[],"[640, 400]",ColorTask,52.0,106.0,,,HRV,HRV_0138,2022-11-30 18:28:54
,wl-rdm,114,409039,0.0-6.106-0.106,0.0,113.0,,,,,,,[],,,,,,56.4,1.0,u,0.0,False,1465.0999999940395,88.0,59.0,40.0,False,,234.89734106449646,[],"[640, 400]",ColorTask,51.0,107.0,,,HRV,HRV_0138,2022-11-30 18:28:54
,wl-rdm,115,411974,0.0-6.107-0.107,0.0,114.0,,,,,,,[],,,,,,50.0,0.0,i,1.0,False,1473.6000000014901,88.0,59.0,40.0,False,,381.9504461626127,[],"[640, 400]",ColorTask,50.0,108.0,,,HRV,HRV_0138,2022-11-30 18:28:54
,wl-rdm,116,414792,0.0-6.108-0.108,0.0,115.0,,,,,,,[],,,,,,62.5,1.0,i,1.0,True,1525.0,92.0,59.0,40.0,False,,228.18479355417574,[],"[640, 400]",ColorTask,51.0,109.0,,,HRV,HRV_0138,2022-11-30 18:28:54
,wl-rdm,117,418344,0.0-6.109-0.109,0.0,116.0,,,,,,,[],,,,,,56.4,0.0,u,0.0,True,2280.60000000149,135.0,59.0,40.0,False,,216.28244640163715,[],"[640, 400]",ColorTask,52.0,110.0,,,HRV,HRV_0138,2022-11-30 18:28:54
,wl-html-keyboard-response,118,442733,0.0-7.0-0.0,1.0,117.0,,,,,,,,22381.30000000447,1.0,0,,,,,,,,,,,,,,,,,,,,,,HRV,HRV_0138,2022-11-30 18:28:54
,wl-rdm,119,445051,0.0-8.0-0.0,1.0,118.0,,,,,,,[],,,,,,73.6,1.0,i,1.0,True,966.2999999970198,58.0,59.0,40.0,False,,288.9250103013303,[],"[640, 400]",ColorTask,53.0,1.0,,,HRV,HRV_0138,2022-11-30 18:28:54
,wl-rdm,120,447655,0.0-8.1-0.1,1.0,119.0,,,,,,,[],,,,,,56.4,1.0,i,1.0,True,1314.1000000014901,79.0,59.0,40.0,False,,239.4633021859238,[],"[640, 400]",ColorTask,54.0,2.0,,,HRV,HRV_0138,2022-11-30 18:28:54
,wl-rdm,121,450673,0.0-8.2-0.2,1.0,120.0,,,,,,,[],,,,,,56.4,0.0,u,0.0,True,1624.5999999940395,98.0,59.0,40.0,False,,302.12098050486065,[],"[640, 400]",ColorTask,55.0,3.0,,,HRV,HRV_0138,2022-11-30 18:28:54
,wl-rdm,122,453955,0.0-8.3-0.3,1.0,121.0,,,,,,,[],,,,,,62.5,1.0,i,1.0,True,1875.9999999925494,113.0,59.0,40.0,False,,311.5258508015191,[],"[640, 400]",ColorTask,56.0,4.0,,,HRV,HRV_0138,2022-11-30 18:28:54
,wl-rdm,123,456243,0.0-8.4-0.4,1.0,122.0,,,,,,,[],,,,,,73.6,1.0,i,1.0,True,1007.5999999940395,60.0,59.0,40.0,False,,215.6746382840486,[],"[640, 400]",ColorTask,57.0,5.0,,,HRV,HRV_0138,2022-11-30 18:28:54
,wl-rdm,124,459413,0.0-8.5-0.5,1.0,123.0,,,,,,,[],,,,,,56.4,1.0,u,0.0,False,1869.3000000044703,113.0,59.0,40.0,False,,228.08219130085155,[],"[640, 400]",ColorTask,56.0,6.0,,,HRV,HRV_0138,2022-11-30 18:28:54
,wl-rdm,125,462129,0.0-8.6-0.6,1.0,124.0,,,,,,,[],,,,,,56.4,1.0,u,0.0,False,1428.1000000014901,86.0,59.0,40.0,False,,229.93875314350726,[],"[640, 400]",ColorTask,55.0,7.0,,,HRV,HRV_0138,2022-11-30 18:28:54
,wl-rdm,126,464479,0.0-8.7-0.7,1.0,125.0,,,,,,,[],,,,,,73.6,1.0,i,1.0,True,917.8999999985099,54.0,59.0,40.0,False,,355.75409270681337,[],"[640, 400]",ColorTask,56.0,8.0,,,HRV,HRV_0138,2022-11-30 18:28:54
,wl-rdm,127,468047,0.0-8.8-0.8,1.0,126.0,,,,,,,[],,,,,,50.0,1.0,i,1.0,True,2181.7000000029802,131.0,59.0,40.0,False,,314.9139592018172,[],"[640, 400]",ColorTask,57.0,9.0,,,HRV,HRV_0138,2022-11-30 18:28:54
,wl-rdm,128,471451,0.0-8.9-0.9,1.0,127.0,,,,,,,[],,,,,,53.2,1.0,i,1.0,True,2081.0,122.0,59.0,40.0,False,,246.92287032695134,[],"[640, 400]",ColorTask,58.0,10.0,,,HRV,HRV_0138,2022-11-30 18:28:54
,wl-rdm,129,473517,0.0-8.10-0.10,1.0,128.0,,,,,,,[],,,,,,87.9,1.0,i,1.0,True,653.5999999940395,40.0,59.0,40.0,False,,323.78478349621867,[],"[640, 400]",ColorTask,59.0,11.0,,,HRV,HRV_0138,2022-11-30 18:28:54
,wl-rdm,130,476904,0.0-8.11-0.11,1.0,129.0,,,,,,,[],,,,,,50.0,0.0,i,1.0,False,2095.0,124.0,59.0,40.0,False,,213.70434247759093,[],"[640, 400]",ColorTask,58.0,12.0,,,HRV,HRV_0138,2022-11-30 18:28:54
,wl-rdm,131,479354,0.0-8.12-0.12,1.0,130.0,,,,,,,[],,,,,,50.0,1.0,i,1.0,True,1155.6999999955297,70.0,59.0,40.0,False,,203.03281441044822,[],"[640, 400]",ColorTask,59.0,13.0,,,HRV,HRV_0138,2022-11-30 18:28:54
,wl-rdm,132,481538,0.0-8.13-0.13,1.0,131.0,,,,,,,[],,,,,,87.9,0.0,u,0.0,True,746.0,42.0,59.0,40.0,False,,358.13614334295914,[],"[640, 400]",ColorTask,60.0,14.0,,,HRV,HRV_0138,2022-11-30 18:28:54
,wl-rdm,133,484942,0.0-8.14-0.14,1.0,132.0,,,,,,,[],,,,,,50.0,1.0,i,1.0,True,1977.1000000014901,119.0,59.0,40.0,False,,349.20528927196676,[],"[640, 400]",ColorTask,61.0,15.0,,,HRV,HRV_0138,2022-11-30 18:28:54
,wl-rdm,134,488541,0.0-8.15-0.15,1.0,133.0,,,,,,,[],,,,,,53.2,1.0,i,1.0,True,2231.7000000029802,131.0,59.0,40.0,False,,304.2670389284883,[],"[640, 400]",ColorTask,62.0,16.0,,,HRV,HRV_0138,2022-11-30 18:28:54
,wl-rdm,135,491094,0.0-8.16-0.16,1.0,134.0,,,,,,,[],,,,,,87.9,0.0,u,0.0,True,1204.0999999940395,73.0,59.0,40.0,False,,269.960631052175,[],"[640, 400]",ColorTask,63.0,17.0,,,HRV,HRV_0138,2022-11-30 18:28:54
,wl-rdm,136,494062,0.0-8.17-0.17,1.0,135.0,,,,,,,[],,,,,,73.6,0.0,u,0.0,True,1506.8999999985099,87.0,59.0,40.0,False,,396.3091214319086,[],"[640, 400]",ColorTask,64.0,18.0,,,HRV,HRV_0138,2022-11-30 18:28:54
,wl-rdm,137,497329,0.0-8.18-0.18,1.0,136.0,,,,,,,[],,,,,,56.4,0.0,i,1.0,False,1827.0,110.0,59.0,40.0,False,,380.0351230016357,[],"[640, 400]",ColorTask,63.0,19.0,,,HRV,HRV_0138,2022-11-30 18:28:54
,wl-rdm,138,499815,0.0-8.19-0.19,1.0,137.0,,,,,,,[],,,,,,87.9,1.0,i,1.0,True,1162.1999999955297,67.0,59.0,40.0,False,,241.88780612081644,[],"[640, 400]",ColorTask,64.0,20.0,,,HRV,HRV_0138,2022-11-30 18:28:54
,wl-rdm,139,502968,0.0-8.20-0.20,1.0,138.0,,,,,,,[],,,,,,50.0,1.0,u,0.0,False,1788.6000000014901,108.0,59.0,40.0,False,,281.01452855241774,[],"[640, 400]",ColorTask,63.0,21.0,,,HRV,HRV_0138,2022-11-30 18:28:54
,wl-rdm,140,506071,0.0-8.21-0.21,1.0,139.0,,,,,,,[],,,,,,73.6,0.0,u,0.0,True,1670.7999999970198,98.0,59.0,40.0,False,,356.89976641949073,[],"[640, 400]",ColorTask,64.0,22.0,,,HRV,HRV_0138,2022-11-30 18:28:54
,wl-rdm,141,508802,0.0-8.22-0.22,1.0,140.0,,,,,,,[],,,,,,56.4,1.0,i,1.0,True,1353.5,81.0,59.0,40.0,False,,309.5352477077112,[],"[640, 400]",ColorTask,65.0,23.0,,,HRV,HRV_0138,2022-11-30 18:28:54
,wl-rdm,142,511838,0.0-8.23-0.23,1.0,141.0,,,,,,,[],,,,,,53.2,0.0,i,1.0,False,1636.2000000029802,96.0,59.0,40.0,False,,324.3456227435082,[],"[640, 400]",ColorTask,64.0,24.0,,,HRV,HRV_0138,2022-11-30 18:28:54
,wl-rdm,143,515689,0.0-8.24-0.24,1.0,142.0,,,,,,,[],,,,,,50.0,1.0,i,1.0,True,2582.9000000059605,155.0,59.0,40.0,False,,214.29989351524307,[],"[640, 400]",ColorTask,65.0,25.0,,,HRV,HRV_0138,2022-11-30 18:28:54
,wl-rdm,144,518622,0.0-8.25-0.25,1.0,143.0,,,,,,,[],,,,,,62.5,1.0,i,1.0,True,1529.0,92.0,59.0,40.0,False,,334.3756728331837,[],"[640, 400]",ColorTask,66.0,26.0,,,HRV,HRV_0138,2022-11-30 18:28:54
,wl-rdm,145,521591,0.0-8.26-0.26,1.0,144.0,,,,,,,[],,,,,,62.5,1.0,i,1.0,True,1609.0000000074506,97.0,59.0,40.0,False,,279.80104676266865,[],"[640, 400]",ColorTask,67.0,27.0,,,HRV,HRV_0138,2022-11-30 18:28:54
,wl-rdm,146,525527,0.0-8.27-0.27,1.0,145.0,,,,,,,[],,,,,,50.0,1.0,i,1.0,True,2577.60000000149,154.0,59.0,40.0,False,,287.4576908642508,[],"[640, 400]",ColorTask,68.0,28.0,,,HRV,HRV_0138,2022-11-30 18:28:54
,wl-rdm,147,527945,0.0-8.28-0.28,1.0,146.0,,,,,,,[],,,,,,62.5,1.0,i,1.0,True,1122.0,68.0,59.0,40.0,False,,222.17534801689965,[],"[640, 400]",ColorTask,69.0,29.0,,,HRV,HRV_0138,2022-11-30 18:28:54
,wl-rdm,148,530847,0.0-8.29-0.29,1.0,147.0,,,,,,,[],,,,,,62.5,0.0,u,0.0,True,1534.7999999895692,92.0,59.0,40.0,False,,296.2115052949325,[],"[640, 400]",ColorTask,70.0,30.0,,,HRV,HRV_0138,2022-11-30 18:28:54
,wl-rdm,149,533216,0.0-8.30-0.30,1.0,148.0,,,,,,,[],,,,,,62.5,1.0,i,1.0,True,1066.8999999985099,64.0,59.0,40.0,False,,232.22347753261886,[],"[640, 400]",ColorTask,71.0,31.0,,,HRV,HRV_0138,2022-11-30 18:28:54
,wl-rdm,150,535482,0.0-8.31-0.31,1.0,149.0,,,,,,,[],,,,,,87.9,1.0,i,1.0,True,988.0,59.0,59.0,40.0,False,,205.2510365343418,[],"[640, 400]",ColorTask,72.0,32.0,,,HRV,HRV_0138,2022-11-30 18:28:54
,wl-rdm,151,537999,0.0-8.32-0.32,1.0,150.0,,,,,,,[],,,,,,53.2,0.0,i,1.0,False,1222.1000000014901,65.0,59.0,40.0,False,,231.36853097416852,[],"[640, 400]",ColorTask,71.0,33.0,,,HRV,HRV_0138,2022-11-30 18:28:54
,wl-rdm,152,540436,0.0-8.33-0.33,1.0,151.0,,,,,,,[],,,,,,62.5,0.0,u,0.0,True,1020.8999999985099,62.0,59.0,40.0,False,,343.3858381131922,[],"[640, 400]",ColorTask,72.0,34.0,,,HRV,HRV_0138,2022-11-30 18:28:54
,wl-rdm,153,542571,0.0-8.34-0.34,1.0,152.0,,,,,,,[],,,,,,56.4,1.0,i,1.0,True,807.8000000044703,49.0,59.0,40.0,False,,249.8379249268757,[],"[640, 400]",ColorTask,73.0,35.0,,,HRV,HRV_0138,2022-11-30 18:28:54
,wl-rdm,154,545903,0.0-8.35-0.35,1.0,153.0,,,,,,,[],,,,,,56.4,0.0,u,0.0,True,1947.0,115.0,59.0,40.0,False,,318.6271983998539,[],"[640, 400]",ColorTask,74.0,36.0,,,HRV,HRV_0138,2022-11-30 18:28:54
,wl-rdm,155,548055,0.0-8.36-0.36,1.0,154.0,,,,,,,[],,,,,,73.6,1.0,i,1.0,True,853.3999999985099,52.0,59.0,40.0,False,,232.49949110751504,[],"[640, 400]",ColorTask,75.0,37.0,,,HRV,HRV_0138,2022-11-30 18:28:54
,wl-rdm,156,550424,0.0-8.37-0.37,1.0,155.0,,,,,,,[],,,,,,73.6,0.0,u,0.0,True,1037.0,63.0,59.0,40.0,False,,265.69560870889,[],"[640, 400]",ColorTask,76.0,38.0,,,HRV,HRV_0138,2022-11-30 18:28:54
,wl-rdm,157,553612,0.0-8.38-0.38,1.0,156.0,,,,,,,[],,,,,,53.2,1.0,i,1.0,True,1831.9000000059605,110.0,59.0,40.0,False,,277.46902125508893,[],"[640, 400]",ColorTask,77.0,39.0,,,HRV,HRV_0138,2022-11-30 18:28:54
,wl-rdm,158,556362,0.0-8.39-0.39,1.0,157.0,,,,,,,[],,,,,,62.5,0.0,u,0.0,True,1481.3999999985099,89.0,59.0,40.0,False,,207.10730582211485,[],"[640, 400]",ColorTask,78.0,40.0,,,HRV,HRV_0138,2022-11-30 18:28:54
,wl-rdm,159,558593,0.0-8.40-0.40,1.0,158.0,,,,,,,[],,,,,,87.9,1.0,i,1.0,True,888.1000000014901,54.0,59.0,40.0,False,,251.90001169130525,[],"[640, 400]",ColorTask,79.0,41.0,,,HRV,HRV_0138,2022-11-30 18:28:54
,wl-rdm,160,560863,0.0-8.41-0.41,1.0,159.0,,,,,,,[],,,,,,87.9,0.0,u,0.0,True,840.0,51.0,59.0,40.0,False,,356.97895871932474,[],"[640, 400]",ColorTask,80.0,42.0,,,HRV,HRV_0138,2022-11-30 18:28:54
,wl-rdm,161,563479,0.0-8.42-0.42,1.0,160.0,,,,,,,[],,,,,,50.0,0.0,i,1.0,False,1188.8000000044703,72.0,59.0,40.0,False,,358.10201473525115,[],"[640, 400]",ColorTask,79.0,43.0,,,HRV,HRV_0138,2022-11-30 18:28:54
,wl-rdm,162,565932,0.0-8.43-0.43,1.0,161.0,,,,,,,[],,,,,,62.5,0.0,u,0.0,True,1114.2000000029802,67.0,59.0,40.0,False,,250.27046765643667,[],"[640, 400]",ColorTask,80.0,44.0,,,HRV,HRV_0138,2022-11-30 18:28:54
,wl-rdm,163,568683,0.0-8.44-0.44,1.0,162.0,,,,,,,[],,,,,,56.4,0.0,u,0.0,True,1339.7000000029802,81.0,59.0,40.0,False,,333.0227966952007,[],"[640, 400]",ColorTask,81.0,45.0,,,HRV,HRV_0138,2022-11-30 18:28:54
,wl-rdm,164,571318,0.0-8.45-0.45,1.0,163.0,,,,,,,[],,,,,,73.6,0.0,u,0.0,True,1276.5,78.0,59.0,40.0,False,,283.82428228560303,[],"[640, 400]",ColorTask,82.0,46.0,,,HRV,HRV_0138,2022-11-30 18:28:54
,wl-rdm,165,574168,0.0-8.46-0.46,1.0,164.0,,,,,,,[],,,,,,50.0,0.0,u,0.0,True,1541.5,92.0,59.0,40.0,False,,232.97071210567455,[],"[640, 400]",ColorTask,83.0,47.0,,,HRV,HRV_0138,2022-11-30 18:28:54
,wl-rdm,166,577090,0.0-8.47-0.47,1.0,165.0,,,,,,,[],,,,,,50.0,0.0,u,0.0,True,1556.1000000014901,94.0,59.0,40.0,False,,234.47670611091092,[],"[640, 400]",ColorTask,84.0,48.0,,,HRV,HRV_0138,2022-11-30 18:28:54
,wl-rdm,167,579387,0.0-8.48-0.48,1.0,166.0,,,,,,,[],,,,,,73.6,1.0,i,1.0,True,970.6999999955297,59.0,59.0,40.0,False,,237.64925200479038,[],"[640, 400]",ColorTask,85.0,49.0,,,HRV,HRV_0138,2022-11-30 18:28:54
,wl-rdm,168,582872,0.0-8.49-0.49,1.0,167.0,,,,,,,[],,,,,,53.2,0.0,i,1.0,False,2177.2000000029802,131.0,59.0,40.0,False,,247.3365585805477,[],"[640, 400]",ColorTask,84.0,50.0,,,HRV,HRV_0138,2022-11-30 18:28:54
,wl-rdm,169,585089,0.0-8.50-0.50,1.0,168.0,,,,,,,[],,,,,,73.6,1.0,i,1.0,True,823.9000000059605,49.0,59.0,40.0,False,,304.9084651601605,[],"[640, 400]",ColorTask,85.0,51.0,,,HRV,HRV_0138,2022-11-30 18:28:54
,wl-rdm,170,587207,0.0-8.51-0.51,1.0,169.0,,,,,,,[],,,,,,87.9,0.0,u,0.0,True,693.1000000014901,42.0,59.0,40.0,False,,360.995660634823,[],"[640, 400]",ColorTask,86.0,52.0,,,HRV,HRV_0138,2022-11-30 18:28:54
,wl-rdm,171,590694,0.0-8.52-0.52,1.0,170.0,,,,,,,[],,,,,,62.5,1.0,i,1.0,True,2141.60000000149,125.0,59.0,40.0,False,,277.9768334219303,[],"[640, 400]",ColorTask,87.0,53.0,,,HRV,HRV_0138,2022-11-30 18:28:54
,wl-rdm,172,593645,0.0-8.53-0.53,1.0,171.0,,,,,,,[],,,,,,50.0,0.0,i,1.0,False,1544.9000000059605,93.0,59.0,40.0,False,,342.3731697478629,[],"[640, 400]",ColorTask,86.0,54.0,,,HRV,HRV_0138,2022-11-30 18:28:54
,wl-rdm,173,597246,0.0-8.54-0.54,1.0,172.0,,,,,,,[],,,,,,53.2,0.0,u,0.0,True,2264.8000000044703,130.0,59.0,40.0,False,,249.94873934504352,[],"[640, 400]",ColorTask,87.0,55.0,,,HRV,HRV_0138,2022-11-30 18:28:54
,wl-rdm,174,600631,0.0-8.55-0.55,1.0,173.0,,,,,,,[],,,,,,50.0,1.0,i,1.0,True,2092.8000000044703,124.0,59.0,40.0,False,,228.68243755972017,[],"[640, 400]",ColorTask,88.0,56.0,,,HRV,HRV_0138,2022-11-30 18:28:54
,wl-rdm,175,602916,0.0-8.56-0.56,1.0,174.0,,,,,,,[],,,,,,87.9,1.0,i,1.0,True,971.4000000059605,59.0,59.0,40.0,False,,248.80562295357385,[],"[640, 400]",ColorTask,89.0,57.0,,,HRV,HRV_0138,2022-11-30 18:28:54
,wl-rdm,176,606218,0.0-8.57-0.57,1.0,175.0,,,,,,,[],,,,,,53.2,0.0,u,0.0,True,1908.1000000014901,112.0,59.0,40.0,False,,324.5521922222311,[],"[640, 400]",ColorTask,90.0,58.0,,,HRV,HRV_0138,2022-11-30 18:28:54
,wl-rdm,177,608469,0.0-8.58-0.58,1.0,176.0,,,,,,,[],,,,,,87.9,1.0,i,1.0,True,922.5,56.0,59.0,40.0,False,,245.89301495590414,[],"[640, 400]",ColorTask,91.0,59.0,,,HRV,HRV_0138,2022-11-30 18:28:54
,wl-rdm,178,610986,0.0-8.59-0.59,1.0,177.0,,,,,,,[],,,,,,53.2,0.0,u,0.0,True,1203.8999999985099,71.0,59.0,40.0,False,,250.77612415006791,[],"[640, 400]",ColorTask,92.0,60.0,,,HRV,HRV_0138,2022-11-30 18:28:54
,wl-rdm,179,614256,0.0-8.60-0.60,1.0,178.0,,,,,,,[],,,,,,62.5,0.0,i,1.0,False,1893.8999999985099,113.0,59.0,40.0,False,,294.4558936149004,[],"[640, 400]",ColorTask,91.0,61.0,,,HRV,HRV_0138,2022-11-30 18:28:54
,wl-rdm,180,617273,0.0-8.61-0.61,1.0,179.0,,,,,,,[],,,,,,50.0,1.0,u,0.0,False,1630.3000000044703,98.0,59.0,40.0,False,,330.9022790038158,[],"[640, 400]",ColorTask,90.0,62.0,,,HRV,HRV_0138,2022-11-30 18:28:54
,wl-rdm,181,619476,0.0-8.62-0.62,1.0,180.0,,,,,,,[],,,,,,87.9,0.0,u,0.0,True,764.0,46.0,59.0,40.0,False,,368.58084001826427,[],"[640, 400]",ColorTask,91.0,63.0,,,HRV,HRV_0138,2022-11-30 18:28:54
,wl-rdm,182,622442,0.0-8.63-0.63,1.0,181.0,,,,,,,[],,,,,,62.5,1.0,i,1.0,True,1621.8999999985099,97.0,59.0,40.0,False,,280.90597418147894,[],"[640, 400]",ColorTask,92.0,64.0,,,HRV,HRV_0138,2022-11-30 18:28:54
,wl-rdm,183,625478,0.0-8.64-0.64,1.0,182.0,,,,,,,[],,,,,,73.6,1.0,i,1.0,True,1636.0,98.0,59.0,40.0,False,,328.16484382925717,[],"[640, 400]",ColorTask,93.0,65.0,,,HRV,HRV_0138,2022-11-30 18:28:54
,wl-rdm,184,629132,0.0-8.65-0.65,1.0,183.0,,,,,,,[],,,,,,50.0,0.0,u,0.0,True,2325.0,137.0,59.0,40.0,False,,255.96298366680804,[],"[640, 400]",ColorTask,94.0,66.0,,,HRV,HRV_0138,2022-11-30 18:28:54
,wl-rdm,185,632755,0.0-8.66-0.66,1.0,184.0,,,,,,,[],,,,,,50.0,0.0,i,1.0,False,2196.0,132.0,59.0,40.0,False,,348.6925949817289,[],"[640, 400]",ColorTask,93.0,67.0,,,HRV,HRV_0138,2022-11-30 18:28:54
,wl-rdm,186,636077,0.0-8.67-0.67,1.0,185.0,,,,,,,[],,,,,,56.4,1.0,i,1.0,True,1926.7999999970198,116.0,59.0,40.0,False,,302.274390801374,[],"[640, 400]",ColorTask,94.0,68.0,,,HRV,HRV_0138,2022-11-30 18:28:54
,wl-rdm,187,638233,0.0-8.68-0.68,1.0,186.0,,,,,,,[],,,,,,87.9,0.0,u,0.0,True,856.2999999970198,52.0,59.0,40.0,False,,221.11746353117599,[],"[640, 400]",ColorTask,95.0,69.0,,,HRV,HRV_0138,2022-11-30 18:28:54
,wl-rdm,188,640267,0.0-8.69-0.69,1.0,187.0,,,,,,,[],,,,,,87.9,0.0,u,0.0,True,663.0,35.0,59.0,40.0,False,,296.6686842921674,[],"[640, 400]",ColorTask,96.0,70.0,,,HRV,HRV_0138,2022-11-30 18:28:54
,wl-rdm,189,644255,0.0-8.70-0.70,1.0,188.0,,,,,,,[],,,,,,62.5,1.0,i,1.0,True,2639.3000000044703,159.0,59.0,40.0,False,,279.8097741600289,[],"[640, 400]",ColorTask,97.0,71.0,,,HRV,HRV_0138,2022-11-30 18:28:54
,wl-rdm,190,647592,0.0-8.71-0.71,1.0,189.0,,,,,,,[],,,,,,53.2,1.0,u,0.0,False,1944.4000000059605,115.0,59.0,40.0,False,,336.1029462770397,[],"[640, 400]",ColorTask,96.0,72.0,,,HRV,HRV_0138,2022-11-30 18:28:54
,wl-rdm,191,650895,0.0-8.72-0.72,1.0,190.0,,,,,,,[],,,,,,56.4,0.0,u,0.0,True,1838.1999999955297,111.0,59.0,40.0,False,,379.38258467746624,[],"[640, 400]",ColorTask,97.0,73.0,,,HRV,HRV_0138,2022-11-30 18:28:54
,wl-rdm,192,654559,0.0-8.73-0.73,1.0,191.0,,,,,,,[],,,,,,53.2,1.0,i,1.0,True,2360.5,139.0,59.0,40.0,False,,222.2573234219431,[],"[640, 400]",ColorTask,98.0,74.0,,,HRV,HRV_0138,2022-11-30 18:28:54
,wl-rdm,193,657037,0.0-8.74-0.74,1.0,192.0,,,,,,,[],,,,,,56.4,0.0,u,0.0,True,1138.3000000044703,69.0,59.0,40.0,False,,234.89610978578,[],"[640, 400]",ColorTask,99.0,75.0,,,HRV,HRV_0138,2022-11-30 18:28:54
,wl-rdm,194,660854,0.0-8.75-0.75,1.0,193.0,,,,,,,[],,,,,,56.4,0.0,u,0.0,True,2432.5999999940395,146.0,59.0,40.0,False,,321.60604164890276,[],"[640, 400]",ColorTask,100.0,76.0,,,HRV,HRV_0138,2022-11-30 18:28:54
,wl-rdm,195,663173,0.0-8.76-0.76,1.0,194.0,,,,,,,[],,,,,,87.9,1.0,i,1.0,True,944.1999999955297,57.0,59.0,40.0,False,,301.1043398196414,[],"[640, 400]",ColorTask,101.0,77.0,,,HRV,HRV_0138,2022-11-30 18:28:54
,wl-rdm,196,665823,0.0-8.77-0.77,1.0,195.0,,,,,,,[],,,,,,73.6,1.0,i,1.0,True,1220.8999999985099,74.0,59.0,40.0,False,,365.2323345735822,[],"[640, 400]",ColorTask,102.0,78.0,,,HRV,HRV_0138,2022-11-30 18:28:54
,wl-rdm,197,668842,0.0-8.78-0.78,1.0,196.0,,,,,,,[],,,,,,53.2,0.0,i,1.0,False,1560.0,94.0,59.0,40.0,False,,385.1187676608517,[],"[640, 400]",ColorTask,101.0,79.0,,,HRV,HRV_0138,2022-11-30 18:28:54
,wl-rdm,198,672911,0.0-8.79-0.79,1.0,197.0,,,,,,,[],,,,,,53.2,0.0,u,0.0,True,2734.3000000044703,163.0,59.0,40.0,False,,260.57367759871926,[],"[640, 400]",ColorTask,102.0,80.0,,,HRV,HRV_0138,2022-11-30 18:28:54
,wl-rdm,199,676197,0.0-8.80-0.80,1.0,198.0,,,,,,,[],,,,,,62.5,0.0,i,1.0,False,1886.3999999985099,112.0,59.0,40.0,False,,327.3151842586383,[],"[640, 400]",ColorTask,101.0,81.0,,,HRV,HRV_0138,2022-11-30 18:28:54
,wl-rdm,200,678999,0.0-8.81-0.81,1.0,199.0,,,,,,,[],,,,,,73.6,0.0,u,0.0,True,1441.1999999955297,87.0,59.0,40.0,False,,287.59076837529676,[],"[640, 400]",ColorTask,102.0,82.0,,,HRV,HRV_0138,2022-11-30 18:28:54
,wl-rdm,201,683068,0.0-8.82-0.82,1.0,200.0,,,,,,,[],,,,,,62.5,0.0,u,0.0,True,2769.3000000044703,163.0,59.0,40.0,False,,220.9419088307663,[],"[640, 400]",ColorTask,103.0,83.0,,,HRV,HRV_0138,2022-11-30 18:28:54
,wl-rdm,202,685518,0.0-8.83-0.83,1.0,201.0,,,,,,,[],,,,,,73.6,1.0,i,1.0,True,1129.6000000014901,68.0,59.0,40.0,False,,245.1365266833068,[],"[640, 400]",ColorTask,104.0,84.0,,,HRV,HRV_0138,2022-11-30 18:28:54
,wl-rdm,203,689038,0.0-8.84-0.84,1.0,202.0,,,,,,,[],,,,,,56.4,1.0,i,1.0,True,2248.7999999970198,136.0,59.0,40.0,False,,202.90764973047357,[],"[640, 400]",ColorTask,105.0,85.0,,,HRV,HRV_0138,2022-11-30 18:28:54
,wl-rdm,204,692825,0.0-8.85-0.85,1.0,203.0,,,,,,,[],,,,,,50.0,1.0,i,1.0,True,2430.2000000029802,143.0,59.0,40.0,False,,283.9659102460073,[],"[640, 400]",ColorTask,106.0,86.0,,,HRV,HRV_0138,2022-11-30 18:28:54
,wl-rdm,205,696592,0.0-8.86-0.86,1.0,204.0,,,,,,,[],,,,,,50.0,0.0,i,1.0,False,2373.60000000149,143.0,59.0,40.0,False,,317.01561793125404,[],"[640, 400]",ColorTask,105.0,87.0,,,HRV,HRV_0138,2022-11-30 18:28:54
,wl-rdm,206,698826,0.0-8.87-0.87,1.0,205.0,,,,,,,[],,,,,,87.9,0.0,u,0.0,True,896.5,48.0,59.0,40.0,False,,264.00676153972006,[],"[640, 400]",ColorTask,106.0,88.0,,,HRV,HRV_0138,2022-11-30 18:28:54
,wl-rdm,207,702161,0.0-8.88-0.88,1.0,206.0,,,,,,,[],,,,,,53.2,1.0,i,1.0,True,2004.6000000014901,120.0,59.0,40.0,False,,240.47692342666858,[],"[640, 400]",ColorTask,107.0,89.0,,,HRV,HRV_0138,2022-11-30 18:28:54
,wl-rdm,208,705446,0.0-8.89-0.89,1.0,207.0,,,,,,,[],,,,,,53.2,1.0,i,1.0,True,1976.0999999940395,119.0,59.0,40.0,False,,233.9953382732469,[],"[640, 400]",ColorTask,108.0,90.0,,,HRV,HRV_0138,2022-11-30 18:28:54
,wl-rdm,209,708598,0.0-8.90-0.90,1.0,208.0,,,,,,,[],,,,,,73.6,0.0,u,0.0,True,1800.7000000029802,109.0,59.0,40.0,False,,263.71468120883935,[],"[640, 400]",ColorTask,109.0,91.0,,,HRV,HRV_0138,2022-11-30 18:28:54
,wl-rdm,210,712218,0.0-8.91-0.91,1.0,209.0,,,,,,,[],,,,,,50.0,0.0,i,1.0,False,2325.60000000149,139.0,59.0,40.0,False,,216.057361034201,[],"[640, 400]",ColorTask,108.0,92.0,,,HRV,HRV_0138,2022-11-30 18:28:54
,wl-rdm,211,715452,0.0-8.92-0.92,1.0,210.0,,,,,,,[],,,,,,53.2,1.0,i,1.0,True,1843.8999999985099,111.0,59.0,40.0,False,,324.86229632083314,[],"[640, 400]",ColorTask,109.0,93.0,,,HRV,HRV_0138,2022-11-30 18:28:54
,wl-rdm,212,718019,0.0-8.93-0.93,1.0,211.0,,,,,,,[],,,,,,62.5,0.0,u,0.0,True,1188.8999999985099,71.0,59.0,40.0,False,,326.11404205988623,[],"[640, 400]",ColorTask,110.0,94.0,,,HRV,HRV_0138,2022-11-30 18:28:54
,wl-rdm,213,720987,0.0-8.94-0.94,1.0,212.0,,,,,,,[],,,,,,62.5,1.0,i,1.0,True,1642.9000000059605,94.0,59.0,40.0,False,,257.7699134411279,[],"[640, 400]",ColorTask,111.0,95.0,,,HRV,HRV_0138,2022-11-30 18:28:54
,wl-rdm,214,723674,0.0-8.95-0.95,1.0,213.0,,,,,,,[],,,,,,56.4,1.0,i,1.0,True,1412.5000000074506,85.0,59.0,40.0,False,,202.1393236976161,[],"[640, 400]",ColorTask,112.0,96.0,,,HRV,HRV_0138,2022-11-30 18:28:54
,wl-rdm,215,726357,0.0-8.96-0.96,1.0,214.0,,,,,,,[],,,,,,62.5,0.0,u,0.0,True,1334.6000000014901,80.0,59.0,40.0,False,,281.25303024047753,[],"[640, 400]",ColorTask,113.0,97.0,,,HRV,HRV_0138,2022-11-30 18:28:54
,wl-rdm,216,729646,0.0-8.97-0.97,1.0,215.0,,,,,,,[],,,,,,56.4,0.0,u,0.0,True,2013.6999999955297,116.0,59.0,40.0,False,,200.65887883141943,[],"[640, 400]",ColorTask,114.0,98.0,,,HRV,HRV_0138,2022-11-30 18:28:54
,wl-rdm,217,732379,0.0-8.98-0.98,1.0,216.0,,,,,,,[],,,,,,73.6,0.0,u,0.0,True,1458.6000000014901,88.0,59.0,40.0,False,,203.89626731459958,[],"[640, 400]",ColorTask,115.0,99.0,,,HRV,HRV_0138,2022-11-30 18:28:54
,wl-rdm,218,735013,0.0-8.99-0.99,1.0,217.0,,,,,,,[],,,,,,73.6,0.0,u,0.0,True,1356.8999999985099,80.0,59.0,40.0,False,,211.10602867301347,[],"[640, 400]",ColorTask,116.0,100.0,,,HRV,HRV_0138,2022-11-30 18:28:54
,wl-rdm,219,737079,0.0-8.100-0.100,1.0,218.0,,,,,,,[],,,,,,87.9,1.0,i,1.0,True,788.1999999955297,48.0,59.0,40.0,False,,203.37116932896095,[],"[640, 400]",ColorTask,117.0,101.0,,,HRV,HRV_0138,2022-11-30 18:28:54
,wl-rdm,220,740648,0.0-8.101-0.101,1.0,219.0,,,,,,,[],,,,,,56.4,0.0,u,0.0,True,2275.7999999970198,137.0,59.0,40.0,False,,218.97041551917843,[],"[640, 400]",ColorTask,118.0,102.0,,,HRV,HRV_0138,2022-11-30 18:28:54
,wl-rdm,221,742766,0.0-8.102-0.102,1.0,220.0,,,,,,,[],,,,,,87.9,1.0,i,1.0,True,747.7999999970198,45.0,59.0,40.0,False,,313.72888949111734,[],"[640, 400]",ColorTask,119.0,103.0,,,HRV,HRV_0138,2022-11-30 18:28:54
,wl-rdm,222,746236,0.0-8.103-0.103,1.0,221.0,,,,,,,[],,,,,,56.4,1.0,i,1.0,True,2128.9000000059605,128.0,59.0,40.0,False,,234.2493995822535,[],"[640, 400]",ColorTask,120.0,104.0,,,HRV,HRV_0138,2022-11-30 18:28:54
,wl-rdm,223,748735,0.0-8.104-0.104,1.0,222.0,,,,,,,[],,,,,,53.2,1.0,i,1.0,True,1147.0,68.0,59.0,40.0,False,,299.6226869862768,[],"[640, 400]",ColorTask,121.0,105.0,,,HRV,HRV_0138,2022-11-30 18:28:54
,wl-rdm,224,751003,0.0-8.105-0.105,1.0,223.0,,,,,,,[],,,,,,73.6,0.0,u,0.0,True,992.1000000014901,60.0,59.0,40.0,False,,209.94000544621525,[],"[640, 400]",ColorTask,122.0,106.0,,,HRV,HRV_0138,2022-11-30 18:28:54
,wl-rdm,225,753256,0.0-8.106-0.106,1.0,224.0,,,,,,,[],,,,,,87.9,0.0,u,0.0,True,936.9999999925494,57.0,59.0,40.0,False,,243.58609225778693,[],"[640, 400]",ColorTask,123.0,107.0,,,HRV,HRV_0138,2022-11-30 18:28:54
,wl-rdm,226,756255,0.0-8.107-0.107,1.0,225.0,,,,,,,[],,,,,,53.2,0.0,i,1.0,False,1557.5,91.0,59.0,40.0,False,,356.5223869666776,[],"[640, 400]",ColorTask,122.0,108.0,,,HRV,HRV_0138,2022-11-30 18:28:54
,wl-html-button-response,227,758713,0.0-9.0-0.0,,,,,,,,,,2453.2999999970198,,0,,,,,,,,,,,,,,,,,,,,<h3>End of this session. Thank you!</h3><br>,['Close window'],HRV,HRV_0138,2022-11-30 18:28:54
