trialN,stimuli,question,trialStartTime,trialStartTime_UNIX,stimulus1,rt,receivedResponse,rating,trialEndTime,trialDuration,stimulus1Loaded,exp,subjectId,date
0,"[{'imgObject': {}, 'id': 'steak', 'src': '/static/foodstim60/steak.jpg', 'key': 'NaN', 'origWidth': 410, 'origHeight': 410, 'width': 332.8, 'height': 332.8, 'widthPercent': 0.8, 'rescaleHeight': True, 'trialN': 0, 'loaded': True, 'loadedTime': 4250.900000095367, 'positionName': 'CENTER', 'positionCoords': [289.5, 90]}]",Rate how much you want to eat this food from 0 (least) to 10 (most).,4790.400000095367,1669831400773,steak,2969.2999999523163,True,5.97,7759.700000047684,2969.2999999523163,True,HRV,HRV_0049,2022-11-30 18:05:37
1,"[{'imgObject': {}, 'id': 'shreddedwheatwithmilk', 'src': '/static/foodstim60/shreddedwheatwithmilk.jpg', 'key': 'NaN', 'origWidth': 410, 'origHeight': 410, 'width': 332.8, 'height': 332.8, 'widthPercent': 0.8, 'rescaleHeight': True, 'trialN': 1, 'loaded': True, 'loadedTime': 4272.200000047684, 'positionName': 'CENTER', 'positionCoords': [289.5, 90]}]",Rate how much you want to eat this food from 0 (least) to 10 (most).,7761.600000143051,1669831403744,shreddedwheatwithmilk,2087.0,True,3.29,9848.600000143051,2087.0,True,HRV,HRV_0049,2022-11-30 18:05:37
2,"[{'imgObject': {}, 'id': 'bagel and cc', 'src': '/static/foodstim60/bagel and cc.jpg', 'key': 'NaN', 'origWidth': 410, 'origHeight': 410, 'width': 332.8, 'height': 332.8, 'widthPercent': 0.8, 'rescaleHeight': True, 'trialN': 2, 'loaded': True, 'loadedTime': 4280, 'positionName': 'CENTER', 'positionCoords': [289.5, 90]}]",Rate how much you want to eat this food from 0 (least) to 10 (most).,9850.700000047684,1669831405833,bagel and cc,1982.2000000476837,True,3.86,11832.900000095367,1982.2000000476837,True,HRV,HRV_0049,2022-11-30 18:05:37
3,"[{'imgObject': {}, 'id': 'tacos', 'src': '/static/foodstim60/tacos.jpg', 'key': 'NaN', 'origWidth': 411, 'origHeight': 411, 'width': 332.8, 'height': 332.8, 'widthPercent': 0.8, 'rescaleHeight': True, 'trialN': 3, 'loaded': True, 'loadedTime': 4288.900000095367, 'positionName': 'CENTER', 'positionCoords': [289.5, 90]}]",Rate how much you want to eat this food from 0 (least) to 10 (most).,11834.800000190735,1669831407818,tacos,1701.8999998569489,True,7.55,13536.700000047684,1701.8999998569489,True,HRV,HRV_0049,2022-11-30 18:05:37
4,"[{'imgObject': {}, 'id': 'olives', 'src': '/static/foodstim60/olives.jpg', 'key': 'NaN', 'origWidth': 410, 'origHeight': 410, 'width': 332.8, 'height': 332.8, 'widthPercent': 0.8, 'rescaleHeight': True, 'trialN': 4, 'loaded': True, 'loadedTime': 4302.800000190735, 'positionName': 'CENTER', 'positionCoords': [289.5, 90]}]",Rate how much you want to eat this food from 0 (least) to 10 (most).,13540.700000047684,1669831409523,olives,2196.4000000953674,True,3.5100000000000002,15737.100000143051,2196.4000000953674,True,HRV,HRV_0049,2022-11-30 18:05:37
5,"[{'imgObject': {}, 'id': 'rigatoni and sauce', 'src': '/static/foodstim60/rigatoni and sauce.jpg', 'key': 'NaN', 'origWidth': 410, 'origHeight': 411, 'width': 331.9902676399027, 'height': 332.8, 'widthPercent': 0.8, 'rescaleHeight': True, 'trialN': 5, 'loaded': True, 'loadedTime': 4309.400000095367, 'positionName': 'CENTER', 'positionCoords': [290, 90]}]",Rate how much you want to eat this food from 0 (least) to 10 (most).,15739.100000143051,1669831411722,rigatoni and sauce,1773.7000000476837,True,4.54,17512.800000190735,1773.7000000476837,True,HRV,HRV_0049,2022-11-30 18:05:37
6,"[{'imgObject': {}, 'id': 'eggsalad', 'src': '/static/foodstim60/eggsalad.jpg', 'key': 'NaN', 'origWidth': 410, 'origHeight': 409, 'width': 333.61369193154036, 'height': 332.8, 'widthPercent': 0.8, 'rescaleHeight': True, 'trialN': 6, 'loaded': True, 'loadedTime': 4316.200000047684, 'positionName': 'CENTER', 'positionCoords': [289, 90]}]",Rate how much you want to eat this food from 0 (least) to 10 (most).,17517.10000014305,1669831413500,eggsalad,1756.5999999046326,True,6.5,19273.700000047684,1756.5999999046326,True,HRV,HRV_0049,2022-11-30 18:05:37
7,"[{'imgObject': {}, 'id': 'turkeysandwich', 'src': '/static/foodstim60/turkeysandwich.jpg', 'key': 'NaN', 'origWidth': 409, 'origHeight': 409, 'width': 332.8, 'height': 332.8, 'widthPercent': 0.8, 'rescaleHeight': True, 'trialN': 7, 'loaded': True, 'loadedTime': 4322.700000047684, 'positionName': 'CENTER', 'positionCoords': [289.5, 90]}]",Rate how much you want to eat this food from 0 (least) to 10 (most).,19281.60000014305,1669831415264,turkeysandwich,2838.7999999523163,True,7.97,22120.400000095367,2838.7999999523163,True,HRV,HRV_0049,2022-11-30 18:05:37
8,"[{'imgObject': {}, 'id': 'cherries', 'src': '/static/foodstim60/cherries.jpg', 'key': 'NaN', 'origWidth': 410, 'origHeight': 411, 'width': 331.9902676399027, 'height': 332.8, 'widthPercent': 0.8, 'rescaleHeight': True, 'trialN': 8, 'loaded': True, 'loadedTime': 4330.100000143051, 'positionName': 'CENTER', 'positionCoords': [290, 90]}]",Rate how much you want to eat this food from 0 (least) to 10 (most).,22126.0,1669831418109,cherries,1474.6000001430511,True,8.91,23600.60000014305,1474.6000001430511,True,HRV,HRV_0049,2022-11-30 18:05:37
9,"[{'imgObject': {}, 'id': 'cherry tomato', 'src': '/static/foodstim60/cherry tomato.jpg', 'key': 'NaN', 'origWidth': 410, 'origHeight': 410, 'width': 332.8, 'height': 332.8, 'widthPercent': 0.8, 'rescaleHeight': True, 'trialN': 9, 'loaded': True, 'loadedTime': 4337.700000047684, 'positionName': 'CENTER', 'positionCoords': [289.5, 90]}]",Rate how much you want to eat this food from 0 (least) to 10 (most).,23602.60000014305,1669831419585,cherry tomato,2454.0,True,9.0,26056.60000014305,2454.0,True,HRV,HRV_0049,2022-11-30 18:05:37
10,"[{'imgObject': {}, 'id': 'strawberries', 'src': '/static/foodstim60/strawberries.jpg', 'key': 'NaN', 'origWidth': 410, 'origHeight': 410, 'width': 332.8, 'height': 332.8, 'widthPercent': 0.8, 'rescaleHeight': True, 'trialN': 10, 'loaded': True, 'loadedTime': 4344.100000143051, 'positionName': 'CENTER', 'positionCoords': [289.5, 90]}]",Rate how much you want to eat this food from 0 (least) to 10 (most).,26059.200000047684,1669831422042,strawberries,1893.1000001430511,True,4.3,27952.300000190735,1893.1000001430511,True,HRV,HRV_0049,2022-11-30 18:05:37
11,"[{'imgObject': {}, 'id': 'lox', 'src': '/static/foodstim60/lox.jpg', 'key': 'NaN', 'origWidth': 410, 'origHeight': 411, 'width': 331.9902676399027, 'height': 332.8, 'widthPercent': 0.8, 'rescaleHeight': True, 'trialN': 11, 'loaded': True, 'loadedTime': 4350.300000190735, 'positionName': 'CENTER', 'positionCoords': [290, 90]}]",Rate how much you want to eat this food from 0 (least) to 10 (most).,27954.200000047684,1669831423938,lox,1425.7999999523163,True,5.3100000000000005,29380.0,1425.7999999523163,True,HRV,HRV_0049,2022-11-30 18:05:37
12,"[{'imgObject': {}, 'id': 'eggs', 'src': '/static/foodstim60/eggs.jpg', 'key': 'NaN', 'origWidth': 409, 'origHeight': 409, 'width': 332.8, 'height': 332.8, 'widthPercent': 0.8, 'rescaleHeight': True, 'trialN': 12, 'loaded': True, 'loadedTime': 4356.100000143051, 'positionName': 'CENTER', 'positionCoords': [289.5, 90]}]",Rate how much you want to eat this food from 0 (least) to 10 (most).,29382.300000190735,1669831425366,eggs,2954.899999856949,True,6.76,32337.200000047684,2954.899999856949,True,HRV,HRV_0049,2022-11-30 18:05:37
13,"[{'imgObject': {}, 'id': 'froot loops w milk', 'src': '/static/foodstim60/froot loops w milk.jpg', 'key': 'NaN', 'origWidth': 410, 'origHeight': 410, 'width': 332.8, 'height': 332.8, 'widthPercent': 0.8, 'rescaleHeight': True, 'trialN': 13, 'loaded': True, 'loadedTime': 4368.800000190735, 'positionName': 'CENTER', 'positionCoords': [289.5, 90]}]",Rate how much you want to eat this food from 0 (least) to 10 (most).,32339.0,1669831428323,froot loops w milk,3606.0,True,7.33,35945.0,3606.0,True,HRV,HRV_0049,2022-11-30 18:05:37
14,"[{'imgObject': {}, 'id': 'sweetpotato', 'src': '/static/foodstim60/sweetpotato.jpg', 'key': 'NaN', 'origWidth': 410, 'origHeight': 410, 'width': 332.8, 'height': 332.8, 'widthPercent': 0.8, 'rescaleHeight': True, 'trialN': 14, 'loaded': True, 'loadedTime': 4374.800000190735, 'positionName': 'CENTER', 'positionCoords': [289.5, 90]}]",Rate how much you want to eat this food from 0 (least) to 10 (most).,35950.5,1669831431935,sweetpotato,2298.600000143051,True,2.94,38249.10000014305,2298.600000143051,True,HRV,HRV_0049,2022-11-30 18:05:37
15,"[{'imgObject': {}, 'id': 'salad w chicken', 'src': '/static/foodstim60/salad w chicken.jpg', 'key': 'NaN', 'origWidth': 411, 'origHeight': 411, 'width': 332.8, 'height': 332.8, 'widthPercent': 0.8, 'rescaleHeight': True, 'trialN': 15, 'loaded': True, 'loadedTime': 4379.400000095367, 'positionName': 'CENTER', 'positionCoords': [289.5, 90]}]",Rate how much you want to eat this food from 0 (least) to 10 (most).,38252.5,1669831434237,salad w chicken,4300.200000047684,True,3.71,42552.700000047684,4300.200000047684,True,HRV,HRV_0049,2022-11-30 18:05:37
16,"[{'imgObject': {}, 'id': 'grilled chicken strips', 'src': '/static/foodstim60/grilled chicken strips.jpg', 'key': 'NaN', 'origWidth': 410, 'origHeight': 411, 'width': 331.9902676399027, 'height': 332.8, 'widthPercent': 0.8, 'rescaleHeight': True, 'trialN': 16, 'loaded': True, 'loadedTime': 4386.600000143051, 'positionName': 'CENTER', 'positionCoords': [290, 90]}]",Rate how much you want to eat this food from 0 (least) to 10 (most).,42557.700000047684,1669831438542,grilled chicken strips,2642.9000000953674,True,6.0200000000000005,45200.60000014305,2642.9000000953674,True,HRV,HRV_0049,2022-11-30 18:05:37
17,"[{'imgObject': {}, 'id': 'edamame', 'src': '/static/foodstim60/edamame.jpg', 'key': 'NaN', 'origWidth': 409, 'origHeight': 410, 'width': 331.98829268292684, 'height': 332.8, 'widthPercent': 0.8, 'rescaleHeight': True, 'trialN': 17, 'loaded': True, 'loadedTime': 4362.700000047684, 'positionName': 'CENTER', 'positionCoords': [290, 90]}]",Rate how much you want to eat this food from 0 (least) to 10 (most).,45203.0,1669831441187,edamame,2222.2000000476837,True,7.49,47425.200000047684,2222.2000000476837,True,HRV,HRV_0049,2022-11-30 18:05:37
18,"[{'imgObject': {}, 'id': 'veggieswithdip', 'src': '/static/foodstim60/veggieswithdip.jpg', 'key': 'NaN', 'origWidth': 409, 'origHeight': 409, 'width': 332.8, 'height': 332.8, 'widthPercent': 0.8, 'rescaleHeight': True, 'trialN': 18, 'loaded': True, 'loadedTime': 4397.800000190735, 'positionName': 'CENTER', 'positionCoords': [289.5, 90]}]",Rate how much you want to eat this food from 0 (least) to 10 (most).,47430.0,1669831443414,veggieswithdip,2482.300000190735,True,6.5,49912.300000190735,2482.300000190735,True,HRV,HRV_0049,2022-11-30 18:05:37
19,"[{'imgObject': {}, 'id': 'seaweed', 'src': '/static/foodstim60/seaweed.jpg', 'key': 'NaN', 'origWidth': 410, 'origHeight': 410, 'width': 332.8, 'height': 332.8, 'widthPercent': 0.8, 'rescaleHeight': True, 'trialN': 19, 'loaded': True, 'loadedTime': 4418.100000143051, 'positionName': 'CENTER', 'positionCoords': [289.5, 90]}]",Rate how much you want to eat this food from 0 (least) to 10 (most).,49916.60000014305,1669831445901,seaweed,2540.399999856949,True,7.16,52457.0,2540.399999856949,True,HRV,HRV_0049,2022-11-30 18:05:37
20,"[{'imgObject': {}, 'id': 'burrito', 'src': '/static/foodstim60/burrito.jpg', 'key': 'NaN', 'origWidth': 410, 'origHeight': 410, 'width': 332.8, 'height': 332.8, 'widthPercent': 0.8, 'rescaleHeight': True, 'trialN': 20, 'loaded': True, 'loadedTime': 4425.600000143051, 'positionName': 'CENTER', 'positionCoords': [289.5, 90]}]",Rate how much you want to eat this food from 0 (least) to 10 (most).,52460.5,1669831448444,burrito,10119.0,True,3.91,62579.5,10119.0,True,HRV,HRV_0049,2022-11-30 18:05:37
21,"[{'imgObject': {}, 'id': 'banana', 'src': '/static/foodstim60/banana.jpg', 'key': 'NaN', 'origWidth': 410, 'origHeight': 410, 'width': 332.8, 'height': 332.8, 'widthPercent': 0.8, 'rescaleHeight': True, 'trialN': 21, 'loaded': True, 'loadedTime': 4432.400000095367, 'positionName': 'CENTER', 'positionCoords': [289.5, 90]}]",Rate how much you want to eat this food from 0 (least) to 10 (most).,62584.700000047684,1669831458569,banana,5576.0,True,5.75,68160.70000004768,5576.0,True,HRV,HRV_0049,2022-11-30 18:05:37
22,"[{'imgObject': {}, 'id': 'mango', 'src': '/static/foodstim60/mango.jpg', 'key': 'NaN', 'origWidth': 411, 'origHeight': 411, 'width': 332.8, 'height': 332.8, 'widthPercent': 0.8, 'rescaleHeight': True, 'trialN': 22, 'loaded': True, 'loadedTime': 4440.300000190735, 'positionName': 'CENTER', 'positionCoords': [289.5, 90]}]",Rate how much you want to eat this food from 0 (least) to 10 (most).,68165.5,1669831464150,mango,2539.100000143051,True,7.25,70704.60000014305,2539.100000143051,True,HRV,HRV_0049,2022-11-30 18:05:37
23,"[{'imgObject': {}, 'id': 'cheerios', 'src': '/static/foodstim60/cheerios.jpg', 'key': 'NaN', 'origWidth': 409, 'origHeight': 410, 'width': 331.98829268292684, 'height': 332.8, 'widthPercent': 0.8, 'rescaleHeight': True, 'trialN': 23, 'loaded': True, 'loadedTime': 4446.900000095367, 'positionName': 'CENTER', 'positionCoords': [290, 90]}]",Rate how much you want to eat this food from 0 (least) to 10 (most).,70706.70000004768,1669831466691,cheerios,2782.0,True,5.88,73488.70000004768,2782.0,True,HRV,HRV_0049,2022-11-30 18:05:37
24,"[{'imgObject': {}, 'id': 'raisin bran w milk', 'src': '/static/foodstim60/raisin bran w milk.jpg', 'key': 'NaN', 'origWidth': 411, 'origHeight': 411, 'width': 332.8, 'height': 332.8, 'widthPercent': 0.8, 'rescaleHeight': True, 'trialN': 24, 'loaded': True, 'loadedTime': 4505.400000095367, 'positionName': 'CENTER', 'positionCoords': [289.5, 90]}]",Rate how much you want to eat this food from 0 (least) to 10 (most).,73491.30000019073,1669831469475,raisin bran w milk,2085.399999856949,True,3.5100000000000002,75576.70000004768,2085.399999856949,True,HRV,HRV_0049,2022-11-30 18:05:37
25,"[{'imgObject': {}, 'id': 'cantaloupe', 'src': '/static/foodstim60/cantaloupe.jpg', 'key': 'NaN', 'origWidth': 409, 'origHeight': 409, 'width': 332.8, 'height': 332.8, 'widthPercent': 0.8, 'rescaleHeight': True, 'trialN': 25, 'loaded': True, 'loadedTime': 4493.100000143051, 'positionName': 'CENTER', 'positionCoords': [289.5, 90]}]",Rate how much you want to eat this food from 0 (least) to 10 (most).,75578.80000019073,1669831471563,cantaloupe,1846.1999998092651,True,6.37,77425.0,1846.1999998092651,True,HRV,HRV_0049,2022-11-30 18:05:37
26,"[{'imgObject': {}, 'id': 'avocado', 'src': '/static/foodstim60/avocado.jpg', 'key': 'NaN', 'origWidth': 409, 'origHeight': 409, 'width': 332.8, 'height': 332.8, 'widthPercent': 0.8, 'rescaleHeight': True, 'trialN': 26, 'loaded': True, 'loadedTime': 4498.900000095367, 'positionName': 'CENTER', 'positionCoords': [289.5, 90]}]",Rate how much you want to eat this food from 0 (least) to 10 (most).,77429.5,1669831473414,avocado,1787.9000000953674,True,4.04,79217.40000009537,1787.9000000953674,True,HRV,HRV_0049,2022-11-30 18:05:37
27,"[{'imgObject': {}, 'id': 'popsicles', 'src': '/static/foodstim60/popsicles.jpg', 'key': 'NaN', 'origWidth': 410, 'origHeight': 410, 'width': 332.8, 'height': 332.8, 'widthPercent': 0.8, 'rescaleHeight': True, 'trialN': 27, 'loaded': True, 'loadedTime': 4533.5, 'positionName': 'CENTER', 'positionCoords': [289.5, 90]}]",Rate how much you want to eat this food from 0 (least) to 10 (most).,79220.30000019073,1669831475204,popsicles,1284.5,True,6.54,80504.80000019073,1284.5,True,HRV,HRV_0049,2022-11-30 18:05:37
28,"[{'imgObject': {}, 'id': 'hotdog w must', 'src': '/static/foodstim60/hotdog w must.jpg', 'key': 'NaN', 'origWidth': 409, 'origHeight': 409, 'width': 332.8, 'height': 332.8, 'widthPercent': 0.8, 'rescaleHeight': True, 'trialN': 28, 'loaded': True, 'loadedTime': 4566.900000095367, 'positionName': 'CENTER', 'positionCoords': [289.5, 90]}]",Rate how much you want to eat this food from 0 (least) to 10 (most).,80511.30000019073,1669831476495,hotdog w must,1400.8999998569489,True,7.6000000000000005,81912.20000004768,1400.8999998569489,True,HRV,HRV_0049,2022-11-30 18:05:37
29,"[{'imgObject': {}, 'id': 'kiwi', 'src': '/static/foodstim60/kiwi.jpg', 'key': 'NaN', 'origWidth': 410, 'origHeight': 410, 'width': 332.8, 'height': 332.8, 'widthPercent': 0.8, 'rescaleHeight': True, 'trialN': 29, 'loaded': True, 'loadedTime': 4575.700000047684, 'positionName': 'CENTER', 'positionCoords': [289.5, 90]}]",Rate how much you want to eat this food from 0 (least) to 10 (most).,81916.80000019073,1669831477901,kiwi,1908.0,True,6.32,83824.80000019073,1908.0,True,HRV,HRV_0049,2022-11-30 18:05:37
30,"[{'imgObject': {}, 'id': 'chicken nuggets2', 'src': '/static/foodstim60/chicken nuggets2.jpg', 'key': 'NaN', 'origWidth': 410, 'origHeight': 409, 'width': 333.61369193154036, 'height': 332.8, 'widthPercent': 0.8, 'rescaleHeight': True, 'trialN': 30, 'loaded': True, 'loadedTime': 4605.300000190735, 'positionName': 'CENTER', 'positionCoords': [289, 90]}]",Rate how much you want to eat this food from 0 (least) to 10 (most).,83828.5,1669831479813,chicken nuggets2,1316.2000000476837,True,7.25,85144.70000004768,1316.2000000476837,True,HRV,HRV_0049,2022-11-30 18:05:37
31,"[{'imgObject': {}, 'id': 'pear', 'src': '/static/foodstim60/pear.jpg', 'key': 'NaN', 'origWidth': 411, 'origHeight': 410, 'width': 333.6117073170732, 'height': 332.8, 'widthPercent': 0.8, 'rescaleHeight': True, 'trialN': 31, 'loaded': True, 'loadedTime': 4610.900000095367, 'positionName': 'CENTER', 'positionCoords': [289, 90]}]",Rate how much you want to eat this food from 0 (least) to 10 (most).,85147.40000009537,1669831481131,pear,1909.0,True,7.84,87056.40000009537,1909.0,True,HRV,HRV_0049,2022-11-30 18:05:37
32,"[{'imgObject': {}, 'id': 'burger', 'src': '/static/foodstim60/burger.jpg', 'key': 'NaN', 'origWidth': 409, 'origHeight': 409, 'width': 332.8, 'height': 332.8, 'widthPercent': 0.8, 'rescaleHeight': True, 'trialN': 32, 'loaded': True, 'loadedTime': 4615.300000190735, 'positionName': 'CENTER', 'positionCoords': [289.5, 90]}]",Rate how much you want to eat this food from 0 (least) to 10 (most).,87059.20000004768,1669831483045,burger,1733.4000000953674,True,5.07,88792.60000014305,1733.4000000953674,True,HRV,HRV_0049,2022-11-30 18:05:37
33,"[{'imgObject': {}, 'id': 'hashbrowns', 'src': '/static/foodstim60/hashbrowns.jpg', 'key': 'NaN', 'origWidth': 411, 'origHeight': 410, 'width': 333.6117073170732, 'height': 332.8, 'widthPercent': 0.8, 'rescaleHeight': True, 'trialN': 33, 'loaded': True, 'loadedTime': 4619.400000095367, 'positionName': 'CENTER', 'positionCoords': [289, 90]}]",Rate how much you want to eat this food from 0 (least) to 10 (most).,88796.5,1669831484782,hashbrowns,1059.8000001907349,True,3.62,89856.30000019073,1059.8000001907349,True,HRV,HRV_0049,2022-11-30 18:05:37
34,"[{'imgObject': {}, 'id': 'granola w milk', 'src': '/static/foodstim60/granola w milk.jpg', 'key': 'NaN', 'origWidth': 410, 'origHeight': 410, 'width': 332.8, 'height': 332.8, 'widthPercent': 0.8, 'rescaleHeight': True, 'trialN': 34, 'loaded': True, 'loadedTime': 4649.400000095367, 'positionName': 'CENTER', 'positionCoords': [289.5, 90]}]",Rate how much you want to eat this food from 0 (least) to 10 (most).,89860.5,1669831485846,granola w milk,1772.9000000953674,True,7.68,91633.40000009537,1772.9000000953674,True,HRV,HRV_0049,2022-11-30 18:05:37
35,"[{'imgObject': {}, 'id': 'omelette', 'src': '/static/foodstim60/omelette.jpg', 'key': 'NaN', 'origWidth': 410, 'origHeight': 409, 'width': 333.61369193154036, 'height': 332.8, 'widthPercent': 0.8, 'rescaleHeight': True, 'trialN': 35, 'loaded': True, 'loadedTime': 4656.5, 'positionName': 'CENTER', 'positionCoords': [289, 90]}]",Rate how much you want to eat this food from 0 (least) to 10 (most).,91637.40000009537,1669831487623,omelette,2523.9000000953674,True,7.33,94161.30000019073,2523.9000000953674,True,HRV,HRV_0049,2022-11-30 18:05:37
36,"[{'imgObject': {}, 'id': 'luckycharms', 'src': '/static/foodstim60/luckycharms.jpg', 'key': 'NaN', 'origWidth': 410, 'origHeight': 409, 'width': 333.61369193154036, 'height': 332.8, 'widthPercent': 0.8, 'rescaleHeight': True, 'trialN': 36, 'loaded': True, 'loadedTime': 4662.5, 'positionName': 'CENTER', 'positionCoords': [289, 90]}]",Rate how much you want to eat this food from 0 (least) to 10 (most).,94167.5,1669831490153,luckycharms,1184.5,True,3.45,95352.0,1184.5,True,HRV,HRV_0049,2022-11-30 18:05:37
37,"[{'imgObject': {}, 'id': 'fried eggs', 'src': '/static/foodstim60/fried eggs.jpg', 'key': 'NaN', 'origWidth': 410, 'origHeight': 410, 'width': 332.8, 'height': 332.8, 'widthPercent': 0.8, 'rescaleHeight': True, 'trialN': 37, 'loaded': True, 'loadedTime': 4667.400000095367, 'positionName': 'CENTER', 'positionCoords': [289.5, 90]}]",Rate how much you want to eat this food from 0 (least) to 10 (most).,95355.60000014305,1669831491341,fried eggs,2070.7000000476837,True,8.47,97426.30000019073,2070.7000000476837,True,HRV,HRV_0049,2022-11-30 18:05:37
38,"[{'imgObject': {}, 'id': 'rigatoni', 'src': '/static/foodstim60/rigatoni.jpg', 'key': 'NaN', 'origWidth': 411, 'origHeight': 411, 'width': 332.8, 'height': 332.8, 'widthPercent': 0.8, 'rescaleHeight': True, 'trialN': 38, 'loaded': True, 'loadedTime': 4672.5, 'positionName': 'CENTER', 'positionCoords': [289.5, 90]}]",Rate how much you want to eat this food from 0 (least) to 10 (most).,97429.60000014305,1669831493415,rigatoni,1698.5,True,6.8500000000000005,99128.10000014305,1698.5,True,HRV,HRV_0049,2022-11-30 18:05:37
39,"[{'imgObject': {}, 'id': 'ice cream sundae 002', 'src': '/static/foodstim60/ice cream sundae 002.jpg', 'key': 'NaN', 'origWidth': 409, 'origHeight': 409, 'width': 332.8, 'height': 332.8, 'widthPercent': 0.8, 'rescaleHeight': True, 'trialN': 39, 'loaded': True, 'loadedTime': 4677, 'positionName': 'CENTER', 'positionCoords': [289.5, 90]}]",Rate how much you want to eat this food from 0 (least) to 10 (most).,99132.40000009537,1669831495118,ice cream sundae 002,1253.0,True,4.04,100385.40000009537,1253.0,True,HRV,HRV_0049,2022-11-30 18:05:37
40,"[{'imgObject': {}, 'id': 'apple slices', 'src': '/static/foodstim60/apple slices.jpg', 'key': 'NaN', 'origWidth': 409, 'origHeight': 410, 'width': 331.98829268292684, 'height': 332.8, 'widthPercent': 0.8, 'rescaleHeight': True, 'trialN': 40, 'loaded': True, 'loadedTime': 4680.600000143051, 'positionName': 'CENTER', 'positionCoords': [290, 90]}]",Rate how much you want to eat this food from 0 (least) to 10 (most).,100388.70000004768,1669831496374,apple slices,1243.7000000476837,True,6.17,101632.40000009537,1243.7000000476837,True,HRV,HRV_0049,2022-11-30 18:05:37
41,"[{'imgObject': {}, 'id': 'Tribe humus pita', 'src': '/static/foodstim60/Tribe humus pita.jpg', 'key': 'NaN', 'origWidth': 411, 'origHeight': 411, 'width': 332.8, 'height': 332.8, 'widthPercent': 0.8, 'rescaleHeight': True, 'trialN': 41, 'loaded': True, 'loadedTime': 4684.400000095367, 'positionName': 'CENTER', 'positionCoords': [289.5, 90]}]",Rate how much you want to eat this food from 0 (least) to 10 (most).,101636.40000009537,1669831497622,Tribe humus pita,1835.9000000953674,True,7.73,103472.30000019073,1835.9000000953674,True,HRV,HRV_0049,2022-11-30 18:05:37
42,"[{'imgObject': {}, 'id': 'roastedpotatoes', 'src': '/static/foodstim60/roastedpotatoes.jpg', 'key': 'NaN', 'origWidth': 409, 'origHeight': 410, 'width': 331.98829268292684, 'height': 332.8, 'widthPercent': 0.8, 'rescaleHeight': True, 'trialN': 42, 'loaded': True, 'loadedTime': 4689.5, 'positionName': 'CENTER', 'positionCoords': [290, 90]}]",Rate how much you want to eat this food from 0 (least) to 10 (most).,103476.0,1669831499462,roastedpotatoes,1852.0,True,3.45,105328.0,1852.0,True,HRV,HRV_0049,2022-11-30 18:05:37
43,"[{'imgObject': {}, 'id': 'mac & cheese', 'src': '/static/foodstim60/mac & cheese.jpg', 'key': 'NaN', 'origWidth': 410, 'origHeight': 410, 'width': 332.8, 'height': 332.8, 'widthPercent': 0.8, 'rescaleHeight': True, 'trialN': 43, 'loaded': True, 'loadedTime': 4703.5, 'positionName': 'CENTER', 'positionCoords': [289.5, 90]}]",Rate how much you want to eat this food from 0 (least) to 10 (most).,105330.20000004768,1669831501316,mac & cheese,1125.7999999523163,True,3.97,106456.0,1125.7999999523163,True,HRV,HRV_0049,2022-11-30 18:05:37
44,"[{'imgObject': {}, 'id': 'cocktailshrimp', 'src': '/static/foodstim60/cocktailshrimp.jpg', 'key': 'NaN', 'origWidth': 410, 'origHeight': 410, 'width': 332.8, 'height': 332.8, 'widthPercent': 0.8, 'rescaleHeight': True, 'trialN': 44, 'loaded': True, 'loadedTime': 4712.5, 'positionName': 'CENTER', 'positionCoords': [289.5, 90]}]",Rate how much you want to eat this food from 0 (least) to 10 (most).,106457.70000004768,1669831502444,cocktailshrimp,1298.1000001430511,True,6.19,107755.80000019073,1298.1000001430511,True,HRV,HRV_0049,2022-11-30 18:05:37
45,"[{'imgObject': {}, 'id': 'fruitsalad', 'src': '/static/foodstim60/fruitsalad.jpg', 'key': 'NaN', 'origWidth': 410, 'origHeight': 410, 'width': 332.8, 'height': 332.8, 'widthPercent': 0.8, 'rescaleHeight': True, 'trialN': 45, 'loaded': True, 'loadedTime': 4717, 'positionName': 'CENTER', 'positionCoords': [289.5, 90]}]",Rate how much you want to eat this food from 0 (least) to 10 (most).,107761.5,1669831503747,fruitsalad,1048.9000000953674,True,7.4,108810.40000009537,1048.9000000953674,True,HRV,HRV_0049,2022-11-30 18:05:37
46,"[{'imgObject': {}, 'id': 'salmon', 'src': '/static/foodstim60/salmon.jpg', 'key': 'NaN', 'origWidth': 410, 'origHeight': 409, 'width': 333.61369193154036, 'height': 332.8, 'widthPercent': 0.8, 'rescaleHeight': True, 'trialN': 46, 'loaded': True, 'loadedTime': 4721.900000095367, 'positionName': 'CENTER', 'positionCoords': [289, 90]}]",Rate how much you want to eat this food from 0 (least) to 10 (most).,108815.5,1669831504801,salmon,1600.2000000476837,True,5.8,110415.70000004768,1600.2000000476837,True,HRV,HRV_0049,2022-11-30 18:05:37
47,"[{'imgObject': {}, 'id': 'orange slices', 'src': '/static/foodstim60/orange slices.jpg', 'key': 'NaN', 'origWidth': 409, 'origHeight': 410, 'width': 331.98829268292684, 'height': 332.8, 'widthPercent': 0.8, 'rescaleHeight': True, 'trialN': 47, 'loaded': True, 'loadedTime': 4727.200000047684, 'positionName': 'CENTER', 'positionCoords': [290, 90]}]",Rate how much you want to eat this food from 0 (least) to 10 (most).,110417.5,1669831506403,orange slices,1734.2000000476837,True,8.52,112151.70000004768,1734.2000000476837,True,HRV,HRV_0049,2022-11-30 18:05:37
48,"[{'imgObject': {}, 'id': 'yogurt no spoon', 'src': '/static/foodstim60/yogurt no spoon.jpg', 'key': 'NaN', 'origWidth': 411, 'origHeight': 410, 'width': 333.6117073170732, 'height': 332.8, 'widthPercent': 0.8, 'rescaleHeight': True, 'trialN': 48, 'loaded': True, 'loadedTime': 4735.800000190735, 'positionName': 'CENTER', 'positionCoords': [289, 90]}]",Rate how much you want to eat this food from 0 (least) to 10 (most).,112155.40000009537,1669831508141,yogurt no spoon,1172.0999999046326,True,6.5200000000000005,113327.5,1172.0999999046326,True,HRV,HRV_0049,2022-11-30 18:05:37
49,"[{'imgObject': {}, 'id': 'chickenfingers', 'src': '/static/foodstim60/chickenfingers.jpg', 'key': 'NaN', 'origWidth': 410, 'origHeight': 410, 'width': 332.8, 'height': 332.8, 'widthPercent': 0.8, 'rescaleHeight': True, 'trialN': 49, 'loaded': True, 'loadedTime': 4742, 'positionName': 'CENTER', 'positionCoords': [289.5, 90]}]",Rate how much you want to eat this food from 0 (least) to 10 (most).,113329.30000019073,1669831509315,chickenfingers,1510.8999998569489,True,7.73,114840.20000004768,1510.8999998569489,True,HRV,HRV_0049,2022-11-30 18:05:37
50,"[{'imgObject': {}, 'id': 'mashed potato', 'src': '/static/foodstim60/mashed potato.jpg', 'key': 'NaN', 'origWidth': 409, 'origHeight': 409, 'width': 332.8, 'height': 332.8, 'widthPercent': 0.8, 'rescaleHeight': True, 'trialN': 50, 'loaded': True, 'loadedTime': 4746.900000095367, 'positionName': 'CENTER', 'positionCoords': [289.5, 90]}]",Rate how much you want to eat this food from 0 (least) to 10 (most).,114843.80000019073,1669831510830,mashed potato,1132.7999999523163,True,3.49,115976.60000014305,1132.7999999523163,True,HRV,HRV_0049,2022-11-30 18:05:37
51,"[{'imgObject': {}, 'id': 'raspberries', 'src': '/static/foodstim60/raspberries.jpg', 'key': 'NaN', 'origWidth': 411, 'origHeight': 411, 'width': 332.8, 'height': 332.8, 'widthPercent': 0.8, 'rescaleHeight': True, 'trialN': 51, 'loaded': True, 'loadedTime': 4751.300000190735, 'positionName': 'CENTER', 'positionCoords': [289.5, 90]}]",Rate how much you want to eat this food from 0 (least) to 10 (most).,115978.70000004768,1669831511964,raspberries,2941.600000143051,True,4.8100000000000005,118920.30000019073,2941.600000143051,True,HRV,HRV_0049,2022-11-30 18:05:37
52,"[{'imgObject': {}, 'id': 'sushi w_condiments', 'src': '/static/foodstim60/sushi w_condiments.jpg', 'key': 'NaN', 'origWidth': 410, 'origHeight': 410, 'width': 332.8, 'height': 332.8, 'widthPercent': 0.8, 'rescaleHeight': True, 'trialN': 52, 'loaded': True, 'loadedTime': 4755, 'positionName': 'CENTER', 'positionCoords': [289.5, 90]}]",Rate how much you want to eat this food from 0 (least) to 10 (most).,118922.10000014305,1669831514908,sushi w_condiments,1606.2999999523163,True,6.15,120528.40000009537,1606.2999999523163,True,HRV,HRV_0049,2022-11-30 18:05:37
53,"[{'imgObject': {}, 'id': 'baked potato', 'src': '/static/foodstim60/baked potato.jpg', 'key': 'NaN', 'origWidth': 409, 'origHeight': 410, 'width': 331.98829268292684, 'height': 332.8, 'widthPercent': 0.8, 'rescaleHeight': True, 'trialN': 53, 'loaded': True, 'loadedTime': 4758.900000095367, 'positionName': 'CENTER', 'positionCoords': [290, 90]}]",Rate how much you want to eat this food from 0 (least) to 10 (most).,120532.60000014305,1669831516518,baked potato,2572.2000000476837,True,3.21,123104.80000019073,2572.2000000476837,True,HRV,HRV_0049,2022-11-30 18:05:37
54,"[{'imgObject': {}, 'id': 'turkey sandwich', 'src': '/static/foodstim60/turkey sandwich.jpg', 'key': 'NaN', 'origWidth': 409, 'origHeight': 409, 'width': 332.8, 'height': 332.8, 'widthPercent': 0.8, 'rescaleHeight': True, 'trialN': 54, 'loaded': True, 'loadedTime': 4762.700000047684, 'positionName': 'CENTER', 'positionCoords': [289.5, 90]}]",Rate how much you want to eat this food from 0 (least) to 10 (most).,123108.0,1669831519094,turkey sandwich,1636.6000001430511,True,6.65,124744.60000014305,1636.6000001430511,True,HRV,HRV_0049,2022-11-30 18:05:37
55,"[{'imgObject': {}, 'id': 'Grapes', 'src': '/static/foodstim60/Grapes.jpg', 'key': 'NaN', 'origWidth': 411, 'origHeight': 411, 'width': 332.8, 'height': 332.8, 'widthPercent': 0.8, 'rescaleHeight': True, 'trialN': 55, 'loaded': True, 'loadedTime': 4766.900000095367, 'positionName': 'CENTER', 'positionCoords': [289.5, 90]}]",Rate how much you want to eat this food from 0 (least) to 10 (most).,124747.5,1669831520733,Grapes,1588.6000001430511,True,7.97,126336.10000014305,1588.6000001430511,True,HRV,HRV_0049,2022-11-30 18:05:37
56,"[{'imgObject': {}, 'id': 'blackbeanswithrice', 'src': '/static/foodstim60/blackbeanswithrice.jpg', 'key': 'NaN', 'origWidth': 410, 'origHeight': 410, 'width': 332.8, 'height': 332.8, 'widthPercent': 0.8, 'rescaleHeight': True, 'trialN': 56, 'loaded': True, 'loadedTime': 4770.600000143051, 'positionName': 'CENTER', 'positionCoords': [289.5, 90]}]",Rate how much you want to eat this food from 0 (least) to 10 (most).,126338.70000004768,1669831522324,blackbeanswithrice,5214.700000047684,True,6.5,131553.40000009537,5214.700000047684,True,HRV,HRV_0049,2022-11-30 18:05:37
57,"[{'imgObject': {}, 'id': 'blueberries', 'src': '/static/foodstim60/blueberries.jpg', 'key': 'NaN', 'origWidth': 411, 'origHeight': 411, 'width': 332.8, 'height': 332.8, 'widthPercent': 0.8, 'rescaleHeight': True, 'trialN': 57, 'loaded': True, 'loadedTime': 4776.600000143051, 'positionName': 'CENTER', 'positionCoords': [289.5, 90]}]",Rate how much you want to eat this food from 0 (least) to 10 (most).,131556.60000014305,1669831527542,blueberries,3161.2999999523163,True,8.3,134717.90000009537,3161.2999999523163,True,HRV,HRV_0049,2022-11-30 18:05:37
58,"[{'imgObject': {}, 'id': 'bagel plain', 'src': '/static/foodstim60/bagel plain.jpg', 'key': 'NaN', 'origWidth': 410, 'origHeight': 410, 'width': 332.8, 'height': 332.8, 'widthPercent': 0.8, 'rescaleHeight': True, 'trialN': 58, 'loaded': True, 'loadedTime': 4782.200000047684, 'positionName': 'CENTER', 'positionCoords': [289.5, 90]}]",Rate how much you want to eat this food from 0 (least) to 10 (most).,134719.60000014305,1669831530705,bagel plain,1568.3999998569489,True,6.3500000000000005,136288.0,1568.3999998569489,True,HRV,HRV_0049,2022-11-30 18:05:37
59,"[{'imgObject': {}, 'id': 'corn cob', 'src': '/static/foodstim60/corn cob.jpg', 'key': 'NaN', 'origWidth': 411, 'origHeight': 411, 'width': 332.8, 'height': 332.8, 'widthPercent': 0.8, 'rescaleHeight': True, 'trialN': 59, 'loaded': True, 'loadedTime': 4787.800000190735, 'positionName': 'CENTER', 'positionCoords': [289.5, 90]}]",Rate how much you want to eat this food from 0 (least) to 10 (most).,136293.20000004768,1669831532279,corn cob,3499.5,True,3.69,139792.70000004768,3499.5,True,HRV,HRV_0049,2022-11-30 18:05:37
