trialN,stimuli,trialStartTime,trialStartTime_UNIX,stimulus1,stimulus2,stimulus1Bid,stimulus2Bid,delta,selected,rt,rt_UNIX,rt_perfnow,receivedResponse,rsp,trialEndTime,trialDuration,trialEndTime_UNIX,trialDuration_UNIX,exp,subjectId,date
0,"[{'imgObject': {}, 'id': 'sushi w_condiments', 'src': '/static/foodstim60/sushi w_condiments.jpg', 'key': 'u', 'origWidth': 410, 'origHeight': 410, 'width': 409.95, 'height': 409.95, 'widthPercent': 0.45, 'rescaleHeight': False, 'trialN': 0, 'loaded': True, 'loadedTime': 3655.5, 'positionName': 'LEFT', 'positionCoords': [28.28, 51.5], 'bid': 6.15}, {'imgObject': {}, 'id': 'apple slices', 'src': '/static/foodstim60/apple slices.jpg', 'key': 'i', 'origWidth': 409, 'origHeight': 410, 'width': 409, 'height': 410, 'widthPercent': 0.45, 'rescaleHeight': False, 'trialN': 0, 'loaded': True, 'loadedTime': 3835.600000143051, 'positionName': 'RIGHT', 'positionCoords': [473.72, 51], 'bid': 6.17}]",5190.100000143051,1669831612837,sushi w_condiments,apple slices,6.15,6.17,0.019999999999999574,apple slices,1206.2999999523163,1207,1207.0,True,i,6904.700000047684,1714.5999999046326,1669831614552,1715,HRV,HRV_0049,2022-11-30 18:11:39
1,"[{'imgObject': {}, 'id': 'ice cream sundae 002', 'src': '/static/foodstim60/ice cream sundae 002.jpg', 'key': 'u', 'origWidth': 409, 'origHeight': 409, 'width': 409, 'height': 409, 'widthPercent': 0.45, 'rescaleHeight': False, 'trialN': 1, 'loaded': True, 'loadedTime': 3904.600000143051, 'positionName': 'LEFT', 'positionCoords': [28.28, 51.5], 'bid': 4.04}, {'imgObject': {}, 'id': 'avocado', 'src': '/static/foodstim60/avocado.jpg', 'key': 'i', 'origWidth': 409, 'origHeight': 409, 'width': 409, 'height': 409, 'widthPercent': 0.45, 'rescaleHeight': False, 'trialN': 1, 'loaded': True, 'loadedTime': 3867.800000190735, 'positionName': 'RIGHT', 'positionCoords': [473.72, 51.5], 'bid': 4.04}]",6905.100000143051,1669831614552,ice cream sundae 002,avocado,4.04,4.04,0.0,ice cream sundae 002,1010.7000000476837,1012,1011.7999999523163,True,u,8439.200000047684,1534.0999999046326,1669831616086,1534,HRV,HRV_0049,2022-11-30 18:11:39
2,"[{'imgObject': {}, 'id': 'turkey sandwich', 'src': '/static/foodstim60/turkey sandwich.jpg', 'key': 'u', 'origWidth': 409, 'origHeight': 409, 'width': 409, 'height': 409, 'widthPercent': 0.45, 'rescaleHeight': False, 'trialN': 2, 'loaded': True, 'loadedTime': 3887.7000000476837, 'positionName': 'LEFT', 'positionCoords': [28.28, 51.5], 'bid': 6.65}, {'imgObject': {}, 'id': 'rigatoni', 'src': '/static/foodstim60/rigatoni.jpg', 'key': 'i', 'origWidth': 411, 'origHeight': 411, 'width': 409.95, 'height': 409.95, 'widthPercent': 0.45, 'rescaleHeight': False, 'trialN': 2, 'loaded': True, 'loadedTime': 3938, 'positionName': 'RIGHT', 'positionCoords': [473.72, 51.5], 'bid': 6.8500000000000005}]",8439.400000095367,1669831616086,turkey sandwich,rigatoni,6.65,6.8500000000000005,0.20000000000000018,rigatoni,1912.7000000476837,1914,1913.7999999523163,True,i,10866.200000047684,2426.7999999523163,1669831618513,2427,HRV,HRV_0049,2022-11-30 18:11:39
3,"[{'imgObject': {}, 'id': 'chicken nuggets2', 'src': '/static/foodstim60/chicken nuggets2.jpg', 'key': 'u', 'origWidth': 410, 'origHeight': 409, 'width': 409.95, 'height': 408.9501219512195, 'widthPercent': 0.45, 'rescaleHeight': False, 'trialN': 3, 'loaded': True, 'loadedTime': 3950.4000000953674, 'positionName': 'LEFT', 'positionCoords': [28.28, 52], 'bid': 7.25}, {'imgObject': {}, 'id': 'popsicles', 'src': '/static/foodstim60/popsicles.jpg', 'key': 'i', 'origWidth': 410, 'origHeight': 410, 'width': 409.95, 'height': 409.95, 'widthPercent': 0.45, 'rescaleHeight': False, 'trialN': 3, 'loaded': True, 'loadedTime': 5187.600000143051, 'positionName': 'RIGHT', 'positionCoords': [473.72, 51.5], 'bid': 6.54}]",10866.5,1669831618513,chicken nuggets2,popsicles,7.25,6.54,-0.71,popsicles,2001.5,2003,2002.4000000953674,True,i,13383.300000190735,2516.800000190735,1669831621030,2517,HRV,HRV_0049,2022-11-30 18:11:39
4,"[{'imgObject': {}, 'id': 'ice cream sundae 002', 'src': '/static/foodstim60/ice cream sundae 002.jpg', 'key': 'u', 'origWidth': 409, 'origHeight': 409, 'width': 409, 'height': 409, 'widthPercent': 0.45, 'rescaleHeight': False, 'trialN': 4, 'loaded': True, 'loadedTime': 3905.100000143051, 'positionName': 'LEFT', 'positionCoords': [28.28, 51.5], 'bid': 4.04}, {'imgObject': {}, 'id': 'kiwi', 'src': '/static/foodstim60/kiwi.jpg', 'key': 'i', 'origWidth': 410, 'origHeight': 410, 'width': 409.95, 'height': 409.95, 'widthPercent': 0.45, 'rescaleHeight': False, 'trialN': 4, 'loaded': True, 'loadedTime': 3989.2000000476837, 'positionName': 'RIGHT', 'positionCoords': [473.72, 51.5], 'bid': 6.32}]",13383.700000047684,1669831621031,ice cream sundae 002,kiwi,4.04,6.32,2.2800000000000002,ice cream sundae 002,1152.6000001430511,1153,1153.7999999523163,True,u,15046.100000143051,1662.4000000953674,1669831622693,1662,HRV,HRV_0049,2022-11-30 18:11:39
5,"[{'imgObject': {}, 'id': 'veggieswithdip', 'src': '/static/foodstim60/veggieswithdip.jpg', 'key': 'u', 'origWidth': 409, 'origHeight': 409, 'width': 409, 'height': 409, 'widthPercent': 0.45, 'rescaleHeight': False, 'trialN': 5, 'loaded': True, 'loadedTime': 4049.7000000476837, 'positionName': 'LEFT', 'positionCoords': [28.28, 51.5], 'bid': 6.5}, {'imgObject': {}, 'id': 'sushi w_condiments', 'src': '/static/foodstim60/sushi w_condiments.jpg', 'key': 'i', 'origWidth': 410, 'origHeight': 410, 'width': 409.95, 'height': 409.95, 'widthPercent': 0.45, 'rescaleHeight': False, 'trialN': 5, 'loaded': True, 'loadedTime': 3624.600000143051, 'positionName': 'RIGHT', 'positionCoords': [473.72, 51.5], 'bid': 6.15}]",15046.400000095367,1669831622693,veggieswithdip,sushi w_condiments,6.5,6.15,-0.34999999999999964,veggieswithdip,1684.2999999523163,1686,1685.4000000953674,True,u,17248.0,2201.5999999046326,1669831624895,2202,HRV,HRV_0049,2022-11-30 18:11:39
6,"[{'imgObject': {}, 'id': 'mac & cheese', 'src': '/static/foodstim60/mac & cheese.jpg', 'key': 'u', 'origWidth': 410, 'origHeight': 410, 'width': 409.95, 'height': 409.95, 'widthPercent': 0.45, 'rescaleHeight': False, 'trialN': 6, 'loaded': True, 'loadedTime': 4071.300000190735, 'positionName': 'LEFT', 'positionCoords': [28.28, 51.5], 'bid': 3.97}, {'imgObject': {}, 'id': 'cocktailshrimp', 'src': '/static/foodstim60/cocktailshrimp.jpg', 'key': 'i', 'origWidth': 410, 'origHeight': 410, 'width': 409.95, 'height': 409.95, 'widthPercent': 0.45, 'rescaleHeight': False, 'trialN': 6, 'loaded': True, 'loadedTime': 4088.5, 'positionName': 'RIGHT', 'positionCoords': [473.72, 51.5], 'bid': 6.19}]",17248.200000047684,1669831624895,mac & cheese,cocktailshrimp,3.97,6.19,2.22,cocktailshrimp,1054.0,1055,1054.6000001430511,True,i,18808.800000190735,1560.6000001430511,1669831626456,1561,HRV,HRV_0049,2022-11-30 18:11:39
7,"[{'imgObject': {}, 'id': 'edamame', 'src': '/static/foodstim60/edamame.jpg', 'key': 'u', 'origWidth': 409, 'origHeight': 410, 'width': 409, 'height': 410, 'widthPercent': 0.45, 'rescaleHeight': False, 'trialN': 7, 'loaded': True, 'loadedTime': 4109.200000047684, 'positionName': 'LEFT', 'positionCoords': [28.28, 51], 'bid': 7.49}, {'imgObject': {}, 'id': 'strawberries', 'src': '/static/foodstim60/strawberries.jpg', 'key': 'i', 'origWidth': 410, 'origHeight': 410, 'width': 409.95, 'height': 409.95, 'widthPercent': 0.45, 'rescaleHeight': False, 'trialN': 7, 'loaded': True, 'loadedTime': 4137.5, 'positionName': 'RIGHT', 'positionCoords': [473.72, 51.5], 'bid': 4.3}]",18809.10000014305,1669831626456,edamame,strawberries,7.49,4.3,-3.1900000000000004,strawberries,1012.5999999046326,1013,1013.0,True,i,20339.800000190735,1530.7000000476837,1669831627987,1531,HRV,HRV_0049,2022-11-30 18:11:39
8,"[{'imgObject': {}, 'id': 'cocktailshrimp', 'src': '/static/foodstim60/cocktailshrimp.jpg', 'key': 'u', 'origWidth': 410, 'origHeight': 410, 'width': 409.95, 'height': 409.95, 'widthPercent': 0.45, 'rescaleHeight': False, 'trialN': 8, 'loaded': True, 'loadedTime': 4099.300000190735, 'positionName': 'LEFT', 'positionCoords': [28.28, 51.5], 'bid': 6.19}, {'imgObject': {}, 'id': 'eggsalad', 'src': '/static/foodstim60/eggsalad.jpg', 'key': 'i', 'origWidth': 410, 'origHeight': 409, 'width': 409.95, 'height': 408.9501219512195, 'widthPercent': 0.45, 'rescaleHeight': False, 'trialN': 8, 'loaded': True, 'loadedTime': 4190.700000047684, 'positionName': 'RIGHT', 'positionCoords': [473.72, 52], 'bid': 6.5}]",20340.10000014305,1669831627987,cocktailshrimp,eggsalad,6.19,6.5,0.3099999999999996,cocktailshrimp,1752.5999999046326,1754,1753.8999998569489,True,u,22606.60000014305,2266.5,1669831630254,2267,HRV,HRV_0049,2022-11-30 18:11:39
9,"[{'imgObject': {}, 'id': 'turkey sandwich', 'src': '/static/foodstim60/turkey sandwich.jpg', 'key': 'u', 'origWidth': 409, 'origHeight': 409, 'width': 409, 'height': 409, 'widthPercent': 0.45, 'rescaleHeight': False, 'trialN': 9, 'loaded': True, 'loadedTime': 3880.7000000476837, 'positionName': 'LEFT', 'positionCoords': [28.28, 51.5], 'bid': 6.65}, {'imgObject': {}, 'id': 'apple slices', 'src': '/static/foodstim60/apple slices.jpg', 'key': 'i', 'origWidth': 409, 'origHeight': 410, 'width': 409, 'height': 410, 'widthPercent': 0.45, 'rescaleHeight': False, 'trialN': 9, 'loaded': True, 'loadedTime': 3826.2000000476837, 'positionName': 'RIGHT', 'positionCoords': [473.72, 51], 'bid': 6.17}]",22606.800000190735,1669831630254,turkey sandwich,apple slices,6.65,6.17,-0.4800000000000004,apple slices,962.5,963,963.5999999046326,True,i,24080.0,1473.1999998092651,1669831631727,1473,HRV,HRV_0049,2022-11-30 18:11:39
10,"[{'imgObject': {}, 'id': 'steak', 'src': '/static/foodstim60/steak.jpg', 'key': 'u', 'origWidth': 410, 'origHeight': 410, 'width': 409.95, 'height': 409.95, 'widthPercent': 0.45, 'rescaleHeight': False, 'trialN': 10, 'loaded': True, 'loadedTime': 4238.700000047684, 'positionName': 'LEFT', 'positionCoords': [28.28, 51.5], 'bid': 5.97}, {'imgObject': {}, 'id': 'eggsalad', 'src': '/static/foodstim60/eggsalad.jpg', 'key': 'i', 'origWidth': 410, 'origHeight': 409, 'width': 409.95, 'height': 408.9501219512195, 'widthPercent': 0.45, 'rescaleHeight': False, 'trialN': 10, 'loaded': True, 'loadedTime': 4193.400000095367, 'positionName': 'RIGHT', 'positionCoords': [473.72, 52], 'bid': 6.5}]",24080.300000190735,1669831631727,steak,eggsalad,5.97,6.5,0.5300000000000002,steak,1719.1999998092651,1724,1723.8999998569489,True,u,26314.300000190735,2234.0,1669831633961,2234,HRV,HRV_0049,2022-11-30 18:11:39
11,"[{'imgObject': {}, 'id': 'kiwi', 'src': '/static/foodstim60/kiwi.jpg', 'key': 'u', 'origWidth': 410, 'origHeight': 410, 'width': 409.95, 'height': 409.95, 'widthPercent': 0.45, 'rescaleHeight': False, 'trialN': 11, 'loaded': True, 'loadedTime': 3991.2000000476837, 'positionName': 'LEFT', 'positionCoords': [28.28, 51.5], 'bid': 6.32}, {'imgObject': {}, 'id': 'cherry tomato', 'src': '/static/foodstim60/cherry tomato.jpg', 'key': 'i', 'origWidth': 410, 'origHeight': 410, 'width': 409.95, 'height': 409.95, 'widthPercent': 0.45, 'rescaleHeight': False, 'trialN': 11, 'loaded': True, 'loadedTime': 4176.400000095367, 'positionName': 'RIGHT', 'positionCoords': [473.72, 51.5], 'bid': 9}]",26314.5,1669831633961,kiwi,cherry tomato,6.32,9.0,2.6799999999999997,cherry tomato,1369.3000001907349,1370,1369.8000001907349,True,i,28193.10000014305,1878.6000001430511,1669831635840,1879,HRV,HRV_0049,2022-11-30 18:11:39
12,"[{'imgObject': {}, 'id': 'chickenfingers', 'src': '/static/foodstim60/chickenfingers.jpg', 'key': 'u', 'origWidth': 410, 'origHeight': 410, 'width': 409.95, 'height': 409.95, 'widthPercent': 0.45, 'rescaleHeight': False, 'trialN': 12, 'loaded': True, 'loadedTime': 4256.800000190735, 'positionName': 'LEFT', 'positionCoords': [28.28, 51.5], 'bid': 7.73}, {'imgObject': {}, 'id': 'granola w milk', 'src': '/static/foodstim60/granola w milk.jpg', 'key': 'i', 'origWidth': 410, 'origHeight': 410, 'width': 409.95, 'height': 409.95, 'widthPercent': 0.45, 'rescaleHeight': False, 'trialN': 12, 'loaded': True, 'loadedTime': 4296, 'positionName': 'RIGHT', 'positionCoords': [473.72, 51.5], 'bid': 7.68}]",28193.400000095367,1669831635840,chickenfingers,granola w milk,7.73,7.68,-0.05000000000000071,chickenfingers,1871.5999999046326,1873,1872.4000000953674,True,u,30581.700000047684,2388.2999999523163,1669831638229,2389,HRV,HRV_0049,2022-11-30 18:11:39
13,"[{'imgObject': {}, 'id': 'mac & cheese', 'src': '/static/foodstim60/mac & cheese.jpg', 'key': 'u', 'origWidth': 410, 'origHeight': 410, 'width': 409.95, 'height': 409.95, 'widthPercent': 0.45, 'rescaleHeight': False, 'trialN': 13, 'loaded': True, 'loadedTime': 4068.4000000953674, 'positionName': 'LEFT', 'positionCoords': [28.28, 51.5], 'bid': 3.97}, {'imgObject': {}, 'id': 'avocado', 'src': '/static/foodstim60/avocado.jpg', 'key': 'i', 'origWidth': 409, 'origHeight': 409, 'width': 409, 'height': 409, 'widthPercent': 0.45, 'rescaleHeight': False, 'trialN': 13, 'loaded': True, 'loadedTime': 3858.7000000476837, 'positionName': 'RIGHT', 'positionCoords': [473.72, 51.5], 'bid': 4.04}]",30581.900000095367,1669831638229,mac & cheese,avocado,3.97,4.04,0.06999999999999984,avocado,1190.2999999523163,1191,1190.7999999523163,True,i,32293.0,1711.0999999046326,1669831639940,1711,HRV,HRV_0049,2022-11-30 18:11:39
14,"[{'imgObject': {}, 'id': 'apple slices', 'src': '/static/foodstim60/apple slices.jpg', 'key': 'u', 'origWidth': 409, 'origHeight': 410, 'width': 409, 'height': 410, 'widthPercent': 0.45, 'rescaleHeight': False, 'trialN': 14, 'loaded': True, 'loadedTime': 3839.9000000953674, 'positionName': 'LEFT', 'positionCoords': [28.28, 51], 'bid': 6.17}, {'imgObject': {}, 'id': 'burrito', 'src': '/static/foodstim60/burrito.jpg', 'key': 'i', 'origWidth': 410, 'origHeight': 410, 'width': 409.95, 'height': 409.95, 'widthPercent': 0.45, 'rescaleHeight': False, 'trialN': 14, 'loaded': True, 'loadedTime': 4274.600000143051, 'positionName': 'RIGHT', 'positionCoords': [473.72, 51.5], 'bid': 3.91}]",32293.300000190735,1669831639940,apple slices,burrito,6.17,3.91,-2.26,apple slices,1305.7999999523163,1306,1306.1999998092651,True,u,34110.10000014305,1816.7999999523163,1669831641757,1817,HRV,HRV_0049,2022-11-30 18:11:39
15,"[{'imgObject': {}, 'id': 'salmon', 'src': '/static/foodstim60/salmon.jpg', 'key': 'u', 'origWidth': 410, 'origHeight': 409, 'width': 409.95, 'height': 408.9501219512195, 'widthPercent': 0.45, 'rescaleHeight': False, 'trialN': 15, 'loaded': True, 'loadedTime': 4314.400000095367, 'positionName': 'LEFT', 'positionCoords': [28.28, 52], 'bid': 5.8}, {'imgObject': {}, 'id': 'veggieswithdip', 'src': '/static/foodstim60/veggieswithdip.jpg', 'key': 'i', 'origWidth': 409, 'origHeight': 409, 'width': 409, 'height': 409, 'widthPercent': 0.45, 'rescaleHeight': False, 'trialN': 15, 'loaded': True, 'loadedTime': 4044.800000190735, 'positionName': 'RIGHT', 'positionCoords': [473.72, 51.5], 'bid': 6.5}]",34110.5,1669831641757,salmon,veggieswithdip,5.8,6.5,0.7000000000000002,veggieswithdip,1245.2000000476837,1246,1246.1000001430511,True,i,35875.60000014305,1765.1000001430511,1669831643523,1766,HRV,HRV_0049,2022-11-30 18:11:39
16,"[{'imgObject': {}, 'id': 'fruitsalad', 'src': '/static/foodstim60/fruitsalad.jpg', 'key': 'u', 'origWidth': 410, 'origHeight': 410, 'width': 409.95, 'height': 409.95, 'widthPercent': 0.45, 'rescaleHeight': False, 'trialN': 16, 'loaded': True, 'loadedTime': 4329.100000143051, 'positionName': 'LEFT', 'positionCoords': [28.28, 51.5], 'bid': 7.4}, {'imgObject': {}, 'id': 'omelette', 'src': '/static/foodstim60/omelette.jpg', 'key': 'i', 'origWidth': 410, 'origHeight': 409, 'width': 409.95, 'height': 408.9501219512195, 'widthPercent': 0.45, 'rescaleHeight': False, 'trialN': 16, 'loaded': True, 'loadedTime': 4345.800000190735, 'positionName': 'RIGHT', 'positionCoords': [473.72, 52], 'bid': 7.33}]",35875.90000009537,1669831643523,fruitsalad,omelette,7.4,7.33,-0.07000000000000028,fruitsalad,1034.2999999523163,1035,1035.0,True,u,37425.700000047684,1549.7999999523163,1669831645073,1550,HRV,HRV_0049,2022-11-30 18:11:39
17,"[{'imgObject': {}, 'id': 'banana', 'src': '/static/foodstim60/banana.jpg', 'key': 'u', 'origWidth': 410, 'origHeight': 410, 'width': 409.95, 'height': 409.95, 'widthPercent': 0.45, 'rescaleHeight': False, 'trialN': 17, 'loaded': True, 'loadedTime': 4359.100000143051, 'positionName': 'LEFT', 'positionCoords': [28.28, 51.5], 'bid': 5.75}, {'imgObject': {}, 'id': 'lox', 'src': '/static/foodstim60/lox.jpg', 'key': 'i', 'origWidth': 410, 'origHeight': 411, 'width': 409.95, 'height': 410.94987804878053, 'widthPercent': 0.45, 'rescaleHeight': False, 'trialN': 17, 'loaded': True, 'loadedTime': 4374.100000143051, 'positionName': 'RIGHT', 'positionCoords': [473.72, 51], 'bid': 5.3100000000000005}]",37426.0,1669831645073,banana,lox,5.75,5.3100000000000005,-0.4399999999999995,lox,926.3000001907349,927,927.2000000476837,True,i,38862.800000190735,1436.8000001907349,1669831646510,1437,HRV,HRV_0049,2022-11-30 18:11:39
18,"[{'imgObject': {}, 'id': 'yogurt no spoon', 'src': '/static/foodstim60/yogurt no spoon.jpg', 'key': 'u', 'origWidth': 411, 'origHeight': 410, 'width': 409.95, 'height': 408.95255474452557, 'widthPercent': 0.45, 'rescaleHeight': False, 'trialN': 18, 'loaded': True, 'loadedTime': 4386, 'positionName': 'LEFT', 'positionCoords': [28.28, 52], 'bid': 6.5200000000000005}, {'imgObject': {}, 'id': 'blackbeanswithrice', 'src': '/static/foodstim60/blackbeanswithrice.jpg', 'key': 'i', 'origWidth': 410, 'origHeight': 410, 'width': 409.95, 'height': 409.95, 'widthPercent': 0.45, 'rescaleHeight': False, 'trialN': 18, 'loaded': True, 'loadedTime': 4422.600000143051, 'positionName': 'RIGHT', 'positionCoords': [473.72, 51.5], 'bid': 6.5}]",38863.10000014305,1669831646510,yogurt no spoon,blackbeanswithrice,6.5200000000000005,6.5,-0.020000000000000462,yogurt no spoon,1459.7000000476837,1462,1462.0,True,u,40845.5,1982.3999998569489,1669831648492,1982,HRV,HRV_0049,2022-11-30 18:11:39
19,"[{'imgObject': {}, 'id': 'hotdog w must', 'src': '/static/foodstim60/hotdog w must.jpg', 'key': 'u', 'origWidth': 409, 'origHeight': 409, 'width': 409, 'height': 409, 'widthPercent': 0.45, 'rescaleHeight': False, 'trialN': 19, 'loaded': True, 'loadedTime': 4435, 'positionName': 'LEFT', 'positionCoords': [28.28, 51.5], 'bid': 7.6}, {'imgObject': {}, 'id': 'cherries', 'src': '/static/foodstim60/cherries.jpg', 'key': 'i', 'origWidth': 410, 'origHeight': 411, 'width': 409.95, 'height': 410.94987804878053, 'widthPercent': 0.45, 'rescaleHeight': False, 'trialN': 19, 'loaded': True, 'loadedTime': 4446, 'positionName': 'RIGHT', 'positionCoords': [473.72, 51], 'bid': 8.91}]",40845.700000047684,1669831648493,hotdog w must,cherries,7.6,8.91,1.3100000000000005,cherries,1227.9000000953674,1228,1228.6000001430511,True,i,42589.40000009537,1743.7000000476837,1669831650236,1743,HRV,HRV_0049,2022-11-30 18:11:39
20,"[{'imgObject': {}, 'id': 'bagel plain', 'src': '/static/foodstim60/bagel plain.jpg', 'key': 'u', 'origWidth': 410, 'origHeight': 410, 'width': 409.95, 'height': 409.95, 'widthPercent': 0.45, 'rescaleHeight': False, 'trialN': 20, 'loaded': True, 'loadedTime': 4456.5, 'positionName': 'LEFT', 'positionCoords': [28.28, 51.5], 'bid': 6.3500000000000005}, {'imgObject': {}, 'id': 'cocktailshrimp', 'src': '/static/foodstim60/cocktailshrimp.jpg', 'key': 'i', 'origWidth': 410, 'origHeight': 410, 'width': 409.95, 'height': 409.95, 'widthPercent': 0.45, 'rescaleHeight': False, 'trialN': 20, 'loaded': True, 'loadedTime': 4105, 'positionName': 'RIGHT', 'positionCoords': [473.72, 51.5], 'bid': 6.19}]",42589.60000014305,1669831650237,bagel plain,cocktailshrimp,6.3500000000000005,6.19,-0.16000000000000014,cocktailshrimp,1486.2999999523163,1487,1487.5999999046326,True,i,44587.5,1997.8999998569489,1669831652234,1997,HRV,HRV_0049,2022-11-30 18:11:39
21,"[{'imgObject': {}, 'id': 'turkeysandwich', 'src': '/static/foodstim60/turkeysandwich.jpg', 'key': 'u', 'origWidth': 409, 'origHeight': 409, 'width': 409, 'height': 409, 'widthPercent': 0.45, 'rescaleHeight': False, 'trialN': 21, 'loaded': True, 'loadedTime': 4473.100000143051, 'positionName': 'LEFT', 'positionCoords': [28.28, 51.5], 'bid': 7.97}, {'imgObject': {}, 'id': 'froot loops w milk', 'src': '/static/foodstim60/froot loops w milk.jpg', 'key': 'i', 'origWidth': 410, 'origHeight': 410, 'width': 409.95, 'height': 409.95, 'widthPercent': 0.45, 'rescaleHeight': False, 'trialN': 21, 'loaded': True, 'loadedTime': 4485.200000047684, 'positionName': 'RIGHT', 'positionCoords': [473.72, 51.5], 'bid': 7.33}]",44587.700000047684,1669831652235,turkeysandwich,froot loops w milk,7.97,7.33,-0.6399999999999997,turkeysandwich,1529.7999999523163,1534,1534.0,True,u,46640.40000009537,2052.7000000476837,1669831654287,2052,HRV,HRV_0049,2022-11-30 18:11:39
22,"[{'imgObject': {}, 'id': 'chicken nuggets2', 'src': '/static/foodstim60/chicken nuggets2.jpg', 'key': 'u', 'origWidth': 410, 'origHeight': 409, 'width': 409.95, 'height': 408.9501219512195, 'widthPercent': 0.45, 'rescaleHeight': False, 'trialN': 22, 'loaded': True, 'loadedTime': 3952.300000190735, 'positionName': 'LEFT', 'positionCoords': [28.28, 52], 'bid': 7.25}, {'imgObject': {}, 'id': 'orange slices', 'src': '/static/foodstim60/orange slices.jpg', 'key': 'i', 'origWidth': 409, 'origHeight': 410, 'width': 409, 'height': 410, 'widthPercent': 0.45, 'rescaleHeight': False, 'trialN': 22, 'loaded': True, 'loadedTime': 4497.700000047684, 'positionName': 'RIGHT', 'positionCoords': [473.72, 51], 'bid': 8.52}]",46640.800000190735,1669831654288,chicken nuggets2,orange slices,7.25,8.52,1.2699999999999996,orange slices,768.5999999046326,794,794.3999998569489,True,i,47941.5,1300.6999998092651,1669831655588,1300,HRV,HRV_0049,2022-11-30 18:11:39
23,"[{'imgObject': {}, 'id': 'rigatoni and sauce', 'src': '/static/foodstim60/rigatoni and sauce.jpg', 'key': 'u', 'origWidth': 410, 'origHeight': 411, 'width': 409.95, 'height': 410.94987804878053, 'widthPercent': 0.45, 'rescaleHeight': False, 'trialN': 23, 'loaded': True, 'loadedTime': 4500.400000095367, 'positionName': 'LEFT', 'positionCoords': [28.28, 51], 'bid': 4.54}, {'imgObject': {}, 'id': 'cheerios', 'src': '/static/foodstim60/cheerios.jpg', 'key': 'i', 'origWidth': 409, 'origHeight': 410, 'width': 409, 'height': 410, 'widthPercent': 0.45, 'rescaleHeight': False, 'trialN': 23, 'loaded': True, 'loadedTime': 4516.700000047684, 'positionName': 'RIGHT', 'positionCoords': [473.72, 51], 'bid': 5.88}]",47941.700000047684,1669831655589,rigatoni and sauce,cheerios,4.54,5.88,1.3399999999999999,rigatoni and sauce,1092.2000000476837,1093,1093.2999999523163,True,u,49548.10000014305,1606.4000000953674,1669831657195,1606,HRV,HRV_0049,2022-11-30 18:11:39
24,"[{'imgObject': {}, 'id': 'shreddedwheatwithmilk', 'src': '/static/foodstim60/shreddedwheatwithmilk.jpg', 'key': 'u', 'origWidth': 410, 'origHeight': 410, 'width': 409.95, 'height': 409.95, 'widthPercent': 0.45, 'rescaleHeight': False, 'trialN': 24, 'loaded': True, 'loadedTime': 4537.600000143051, 'positionName': 'LEFT', 'positionCoords': [28.28, 51.5], 'bid': 3.29}, {'imgObject': {}, 'id': 'veggieswithdip', 'src': '/static/foodstim60/veggieswithdip.jpg', 'key': 'i', 'origWidth': 409, 'origHeight': 409, 'width': 409, 'height': 409, 'widthPercent': 0.45, 'rescaleHeight': False, 'trialN': 24, 'loaded': True, 'loadedTime': 4041.600000143051, 'positionName': 'RIGHT', 'positionCoords': [473.72, 51.5], 'bid': 6.5}]",49548.5,1669831657195,shreddedwheatwithmilk,veggieswithdip,3.29,6.5,3.21,veggieswithdip,928.1000001430511,929,928.7000000476837,True,i,50987.300000190735,1438.8000001907349,1669831658634,1439,HRV,HRV_0049,2022-11-30 18:11:39
25,"[{'imgObject': {}, 'id': 'cherries', 'src': '/static/foodstim60/cherries.jpg', 'key': 'u', 'origWidth': 410, 'origHeight': 411, 'width': 409.95, 'height': 410.94987804878053, 'widthPercent': 0.45, 'rescaleHeight': False, 'trialN': 25, 'loaded': True, 'loadedTime': 4443.300000190735, 'positionName': 'LEFT', 'positionCoords': [28.28, 51], 'bid': 8.91}, {'imgObject': {}, 'id': 'cherry tomato', 'src': '/static/foodstim60/cherry tomato.jpg', 'key': 'i', 'origWidth': 410, 'origHeight': 410, 'width': 409.95, 'height': 409.95, 'widthPercent': 0.45, 'rescaleHeight': False, 'trialN': 25, 'loaded': True, 'loadedTime': 4160, 'positionName': 'RIGHT', 'positionCoords': [473.72, 51.5], 'bid': 9}]",50987.5,1669831658634,cherries,cherry tomato,8.91,9.0,0.08999999999999986,cherries,1135.1000001430511,1137,1136.4000000953674,True,u,52639.200000047684,1651.7000000476837,1669831660286,1652,HRV,HRV_0049,2022-11-30 18:11:39
26,"[{'imgObject': {}, 'id': 'cantaloupe', 'src': '/static/foodstim60/cantaloupe.jpg', 'key': 'u', 'origWidth': 409, 'origHeight': 409, 'width': 409, 'height': 409, 'widthPercent': 0.45, 'rescaleHeight': False, 'trialN': 26, 'loaded': True, 'loadedTime': 4526, 'positionName': 'LEFT', 'positionCoords': [28.28, 51.5], 'bid': 6.37}, {'imgObject': {}, 'id': 'banana', 'src': '/static/foodstim60/banana.jpg', 'key': 'i', 'origWidth': 410, 'origHeight': 410, 'width': 409.95, 'height': 409.95, 'widthPercent': 0.45, 'rescaleHeight': False, 'trialN': 26, 'loaded': True, 'loadedTime': 4356.400000095367, 'positionName': 'RIGHT', 'positionCoords': [473.72, 51.5], 'bid': 5.75}]",52639.40000009537,1669831660286,cantaloupe,banana,6.37,5.75,-0.6200000000000001,banana,1446.5,1448,1447.4000000953674,True,i,54604.700000047684,1965.2999999523163,1669831662252,1966,HRV,HRV_0049,2022-11-30 18:11:39
27,"[{'imgObject': {}, 'id': 'tacos', 'src': '/static/foodstim60/tacos.jpg', 'key': 'u', 'origWidth': 411, 'origHeight': 411, 'width': 409.95, 'height': 409.95, 'widthPercent': 0.45, 'rescaleHeight': False, 'trialN': 27, 'loaded': True, 'loadedTime': 4546.400000095367, 'positionName': 'LEFT', 'positionCoords': [28.28, 51.5], 'bid': 7.55}, {'imgObject': {}, 'id': 'fruitsalad', 'src': '/static/foodstim60/fruitsalad.jpg', 'key': 'i', 'origWidth': 410, 'origHeight': 410, 'width': 409.95, 'height': 409.95, 'widthPercent': 0.45, 'rescaleHeight': False, 'trialN': 27, 'loaded': True, 'loadedTime': 4318.600000143051, 'positionName': 'RIGHT', 'positionCoords': [473.72, 51.5], 'bid': 7.4}]",54605.10000014305,1669831662252,tacos,fruitsalad,7.55,7.4,-0.14999999999999947,fruitsalad,1446.0,1445,1447.5,True,i,56573.800000190735,1968.7000000476837,1669831664218,1966,HRV,HRV_0049,2022-11-30 18:11:39
28,"[{'imgObject': {}, 'id': 'mashed potato', 'src': '/static/foodstim60/mashed potato.jpg', 'key': 'u', 'origWidth': 409, 'origHeight': 409, 'width': 409, 'height': 409, 'widthPercent': 0.45, 'rescaleHeight': False, 'trialN': 28, 'loaded': True, 'loadedTime': 4566.800000190735, 'positionName': 'LEFT', 'positionCoords': [28.28, 51.5], 'bid': 3.49}, {'imgObject': {}, 'id': 'roastedpotatoes', 'src': '/static/foodstim60/roastedpotatoes.jpg', 'key': 'i', 'origWidth': 409, 'origHeight': 410, 'width': 409, 'height': 410, 'widthPercent': 0.45, 'rescaleHeight': False, 'trialN': 28, 'loaded': True, 'loadedTime': 4575.400000095367, 'positionName': 'RIGHT', 'positionCoords': [473.72, 51], 'bid': 3.45}]",56574.5,1669831664219,mashed potato,roastedpotatoes,3.49,3.45,-0.040000000000000036,roastedpotatoes,1032.5,1033,1033.4000000953674,True,i,58120.10000014305,1545.6000001430511,1669831665764,1545,HRV,HRV_0049,2022-11-30 18:11:39
29,"[{'imgObject': {}, 'id': 'cherries', 'src': '/static/foodstim60/cherries.jpg', 'key': 'u', 'origWidth': 410, 'origHeight': 411, 'width': 409.95, 'height': 410.94987804878053, 'widthPercent': 0.45, 'rescaleHeight': False, 'trialN': 29, 'loaded': True, 'loadedTime': 4447.200000047684, 'positionName': 'LEFT', 'positionCoords': [28.28, 51], 'bid': 8.91}, {'imgObject': {}, 'id': 'fried eggs', 'src': '/static/foodstim60/fried eggs.jpg', 'key': 'i', 'origWidth': 410, 'origHeight': 410, 'width': 409.95, 'height': 409.95, 'widthPercent': 0.45, 'rescaleHeight': False, 'trialN': 29, 'loaded': True, 'loadedTime': 4626.400000095367, 'positionName': 'RIGHT', 'positionCoords': [473.72, 51.5], 'bid': 8.47}]",58120.300000190735,1669831665764,cherries,fried eggs,8.91,8.47,-0.4399999999999995,fried eggs,953.8999998569489,955,954.8999998569489,True,i,59590.60000014305,1470.2999999523163,1669831667235,1471,HRV,HRV_0049,2022-11-30 18:11:39
30,"[{'imgObject': {}, 'id': 'strawberries', 'src': '/static/foodstim60/strawberries.jpg', 'key': 'u', 'origWidth': 410, 'origHeight': 410, 'width': 409.95, 'height': 409.95, 'widthPercent': 0.45, 'rescaleHeight': False, 'trialN': 30, 'loaded': True, 'loadedTime': 4127.800000190735, 'positionName': 'LEFT', 'positionCoords': [28.28, 51.5], 'bid': 4.3}, {'imgObject': {}, 'id': 'baked potato', 'src': '/static/foodstim60/baked potato.jpg', 'key': 'i', 'origWidth': 409, 'origHeight': 410, 'width': 409, 'height': 410, 'widthPercent': 0.45, 'rescaleHeight': False, 'trialN': 30, 'loaded': True, 'loadedTime': 4649.100000143051, 'positionName': 'RIGHT', 'positionCoords': [473.72, 51], 'bid': 3.21}]",59590.800000190735,1669831667235,strawberries,baked potato,4.3,3.21,-1.0899999999999999,strawberries,1223.5,1224,1224.0999999046326,True,u,61326.10000014305,1735.2999999523163,1669831668970,1735,HRV,HRV_0049,2022-11-30 18:11:39
31,"[{'imgObject': {}, 'id': 'rigatoni', 'src': '/static/foodstim60/rigatoni.jpg', 'key': 'u', 'origWidth': 411, 'origHeight': 411, 'width': 409.95, 'height': 409.95, 'widthPercent': 0.45, 'rescaleHeight': False, 'trialN': 31, 'loaded': True, 'loadedTime': 3940, 'positionName': 'LEFT', 'positionCoords': [28.28, 51.5], 'bid': 6.8500000000000005}, {'imgObject': {}, 'id': 'kiwi', 'src': '/static/foodstim60/kiwi.jpg', 'key': 'i', 'origWidth': 410, 'origHeight': 410, 'width': 409.95, 'height': 409.95, 'widthPercent': 0.45, 'rescaleHeight': False, 'trialN': 31, 'loaded': True, 'loadedTime': 3965.4000000953674, 'positionName': 'RIGHT', 'positionCoords': [473.72, 51.5], 'bid': 6.32}]",61326.5,1669831668971,rigatoni,kiwi,6.8500000000000005,6.32,-0.5300000000000002,kiwi,774.7000000476837,776,776.4000000953674,True,i,62607.700000047684,1281.2000000476837,1669831670252,1281,HRV,HRV_0049,2022-11-30 18:11:39
32,"[{'imgObject': {}, 'id': 'turkeysandwich', 'src': '/static/foodstim60/turkeysandwich.jpg', 'key': 'u', 'origWidth': 409, 'origHeight': 409, 'width': 409, 'height': 409, 'widthPercent': 0.45, 'rescaleHeight': False, 'trialN': 32, 'loaded': True, 'loadedTime': 4474.600000143051, 'positionName': 'LEFT', 'positionCoords': [28.28, 51.5], 'bid': 7.97}, {'imgObject': {}, 'id': 'cherry tomato', 'src': '/static/foodstim60/cherry tomato.jpg', 'key': 'i', 'origWidth': 410, 'origHeight': 410, 'width': 409.95, 'height': 409.95, 'widthPercent': 0.45, 'rescaleHeight': False, 'trialN': 32, 'loaded': True, 'loadedTime': 4169.700000047684, 'positionName': 'RIGHT', 'positionCoords': [473.72, 51.5], 'bid': 9}]",62608.0,1669831670252,turkeysandwich,cherry tomato,7.97,9.0,1.0300000000000002,cherry tomato,689.9000000953674,691,691.1000001430511,True,i,63802.40000009537,1194.4000000953674,1669831671447,1195,HRV,HRV_0049,2022-11-30 18:11:39
33,"[{'imgObject': {}, 'id': 'cheerios', 'src': '/static/foodstim60/cheerios.jpg', 'key': 'u', 'origWidth': 409, 'origHeight': 410, 'width': 409, 'height': 410, 'widthPercent': 0.45, 'rescaleHeight': False, 'trialN': 33, 'loaded': True, 'loadedTime': 4515.900000095367, 'positionName': 'LEFT', 'positionCoords': [28.28, 51], 'bid': 5.88}, {'imgObject': {}, 'id': 'turkeysandwich', 'src': '/static/foodstim60/turkeysandwich.jpg', 'key': 'i', 'origWidth': 409, 'origHeight': 409, 'width': 409, 'height': 409, 'widthPercent': 0.45, 'rescaleHeight': False, 'trialN': 33, 'loaded': True, 'loadedTime': 4474.900000095367, 'positionName': 'RIGHT', 'positionCoords': [473.72, 51.5], 'bid': 7.97}]",63802.60000014305,1669831671447,cheerios,turkeysandwich,5.88,7.97,2.09,turkeysandwich,1848.2999999523163,1849,1849.0999999046326,True,i,66161.70000004768,2359.0999999046326,1669831673806,2359,HRV,HRV_0049,2022-11-30 18:11:39
34,"[{'imgObject': {}, 'id': 'Grapes', 'src': '/static/foodstim60/Grapes.jpg', 'key': 'u', 'origWidth': 411, 'origHeight': 411, 'width': 409.95, 'height': 409.95, 'widthPercent': 0.45, 'rescaleHeight': False, 'trialN': 34, 'loaded': True, 'loadedTime': 4657.400000095367, 'positionName': 'LEFT', 'positionCoords': [28.28, 51.5], 'bid': 7.97}, {'imgObject': {}, 'id': 'pear', 'src': '/static/foodstim60/pear.jpg', 'key': 'i', 'origWidth': 411, 'origHeight': 410, 'width': 409.95, 'height': 408.95255474452557, 'widthPercent': 0.45, 'rescaleHeight': False, 'trialN': 34, 'loaded': True, 'loadedTime': 4705.800000190735, 'positionName': 'RIGHT', 'positionCoords': [473.72, 52], 'bid': 7.84}]",66161.80000019073,1669831673806,Grapes,pear,7.97,7.84,-0.1299999999999999,Grapes,1143.3999998569489,1144,1144.0999999046326,True,u,67817.40000009537,1655.5999999046326,1669831675462,1656,HRV,HRV_0049,2022-11-30 18:11:39
35,"[{'imgObject': {}, 'id': 'olives', 'src': '/static/foodstim60/olives.jpg', 'key': 'u', 'origWidth': 410, 'origHeight': 410, 'width': 409.95, 'height': 409.95, 'widthPercent': 0.45, 'rescaleHeight': False, 'trialN': 35, 'loaded': True, 'loadedTime': 4681.400000095367, 'positionName': 'LEFT', 'positionCoords': [28.28, 51.5], 'bid': 3.51}, {'imgObject': {}, 'id': 'raisin bran w milk', 'src': '/static/foodstim60/raisin bran w milk.jpg', 'key': 'i', 'origWidth': 411, 'origHeight': 411, 'width': 409.95, 'height': 409.95, 'widthPercent': 0.45, 'rescaleHeight': False, 'trialN': 35, 'loaded': True, 'loadedTime': 4691.900000095367, 'positionName': 'RIGHT', 'positionCoords': [473.72, 51.5], 'bid': 3.51}]",67817.80000019073,1669831675462,olives,raisin bran w milk,3.51,3.51,0.0,raisin bran w milk,492.0,493,492.59999990463257,True,i,68817.0,999.1999998092651,1669831676461,999,HRV,HRV_0049,2022-11-30 18:11:39
36,"[{'imgObject': {}, 'id': 'cheerios', 'src': '/static/foodstim60/cheerios.jpg', 'key': 'u', 'origWidth': 409, 'origHeight': 410, 'width': 409, 'height': 410, 'widthPercent': 0.45, 'rescaleHeight': False, 'trialN': 36, 'loaded': True, 'loadedTime': 4517.100000143051, 'positionName': 'LEFT', 'positionCoords': [28.28, 51], 'bid': 5.88}, {'imgObject': {}, 'id': 'banana', 'src': '/static/foodstim60/banana.jpg', 'key': 'i', 'origWidth': 410, 'origHeight': 410, 'width': 409.95, 'height': 409.95, 'widthPercent': 0.45, 'rescaleHeight': False, 'trialN': 36, 'loaded': True, 'loadedTime': 4346.600000143051, 'positionName': 'RIGHT', 'positionCoords': [473.72, 51.5], 'bid': 5.75}]",68817.20000004768,1669831676461,cheerios,banana,5.88,5.75,-0.1299999999999999,banana,665.7999999523163,667,666.5,True,i,70004.70000004768,1187.5,1669831677649,1188,HRV,HRV_0049,2022-11-30 18:11:39
37,"[{'imgObject': {}, 'id': 'seaweed', 'src': '/static/foodstim60/seaweed.jpg', 'key': 'u', 'origWidth': 410, 'origHeight': 410, 'width': 409.95, 'height': 409.95, 'widthPercent': 0.45, 'rescaleHeight': False, 'trialN': 37, 'loaded': True, 'loadedTime': 4716.100000143051, 'positionName': 'LEFT', 'positionCoords': [28.28, 51.5], 'bid': 7.16}, {'imgObject': {}, 'id': 'salad w chicken', 'src': '/static/foodstim60/salad w chicken.jpg', 'key': 'i', 'origWidth': 411, 'origHeight': 411, 'width': 409.95, 'height': 409.95, 'widthPercent': 0.45, 'rescaleHeight': False, 'trialN': 37, 'loaded': True, 'loadedTime': 4745.300000190735, 'positionName': 'RIGHT', 'positionCoords': [473.72, 51.5], 'bid': 3.71}]",70004.90000009537,1669831677649,seaweed,salad w chicken,7.16,3.71,-3.45,salad w chicken,655.0999999046326,656,655.7000000476837,True,i,71182.40000009537,1177.5,1669831678827,1178,HRV,HRV_0049,2022-11-30 18:11:39
38,"[{'imgObject': {}, 'id': 'luckycharms', 'src': '/static/foodstim60/luckycharms.jpg', 'key': 'u', 'origWidth': 410, 'origHeight': 409, 'width': 409.95, 'height': 408.9501219512195, 'widthPercent': 0.45, 'rescaleHeight': False, 'trialN': 38, 'loaded': True, 'loadedTime': 4762.5, 'positionName': 'LEFT', 'positionCoords': [28.28, 52], 'bid': 3.45}, {'imgObject': {}, 'id': 'raspberries', 'src': '/static/foodstim60/raspberries.jpg', 'key': 'i', 'origWidth': 411, 'origHeight': 411, 'width': 409.95, 'height': 409.95, 'widthPercent': 0.45, 'rescaleHeight': False, 'trialN': 38, 'loaded': True, 'loadedTime': 4768, 'positionName': 'RIGHT', 'positionCoords': [473.72, 51.5], 'bid': 4.8100000000000005}]",71182.60000014305,1669831678827,luckycharms,raspberries,3.45,4.8100000000000005,1.3600000000000003,raspberries,615.8999998569489,617,617.0,True,i,72308.90000009537,1126.2999999523163,1669831679953,1126,HRV,HRV_0049,2022-11-30 18:11:39
39,"[{'imgObject': {}, 'id': 'lox', 'src': '/static/foodstim60/lox.jpg', 'key': 'u', 'origWidth': 410, 'origHeight': 411, 'width': 409.95, 'height': 410.94987804878053, 'widthPercent': 0.45, 'rescaleHeight': False, 'trialN': 39, 'loaded': True, 'loadedTime': 4367, 'positionName': 'LEFT', 'positionCoords': [28.28, 51], 'bid': 5.3100000000000005}, {'imgObject': {}, 'id': 'ice cream sundae 002', 'src': '/static/foodstim60/ice cream sundae 002.jpg', 'key': 'i', 'origWidth': 409, 'origHeight': 409, 'width': 409, 'height': 409, 'widthPercent': 0.45, 'rescaleHeight': False, 'trialN': 39, 'loaded': True, 'loadedTime': 3902.7000000476837, 'positionName': 'RIGHT', 'positionCoords': [473.72, 51.5], 'bid': 4.04}]",72309.30000019073,1669831679953,lox,ice cream sundae 002,5.3100000000000005,4.04,-1.2700000000000005,lox,997.0,998,998.0,True,u,73809.40000009537,1500.0999999046326,1669831681454,1501,HRV,HRV_0049,2022-11-30 18:11:39
40,"[{'imgObject': {}, 'id': 'bagel plain', 'src': '/static/foodstim60/bagel plain.jpg', 'key': 'u', 'origWidth': 410, 'origHeight': 410, 'width': 409.95, 'height': 409.95, 'widthPercent': 0.45, 'rescaleHeight': False, 'trialN': 40, 'loaded': True, 'loadedTime': 4449.300000190735, 'positionName': 'LEFT', 'positionCoords': [28.28, 51.5], 'bid': 6.3500000000000005}, {'imgObject': {}, 'id': 'sweetpotato', 'src': '/static/foodstim60/sweetpotato.jpg', 'key': 'i', 'origWidth': 410, 'origHeight': 410, 'width': 409.95, 'height': 409.95, 'widthPercent': 0.45, 'rescaleHeight': False, 'trialN': 40, 'loaded': True, 'loadedTime': 4778.900000095367, 'positionName': 'RIGHT', 'positionCoords': [473.72, 51.5], 'bid': 2.94}]",73809.60000014305,1669831681454,bagel plain,sweetpotato,6.3500000000000005,2.94,-3.4100000000000006,sweetpotato,543.3999998569489,544,544.3999998569489,True,i,74858.20000004768,1048.5999999046326,1669831682502,1048,HRV,HRV_0049,2022-11-30 18:11:39
41,"[{'imgObject': {}, 'id': 'corn cob', 'src': '/static/foodstim60/corn cob.jpg', 'key': 'u', 'origWidth': 411, 'origHeight': 411, 'width': 409.95, 'height': 409.95, 'widthPercent': 0.45, 'rescaleHeight': False, 'trialN': 41, 'loaded': True, 'loadedTime': 4797.400000095367, 'positionName': 'LEFT', 'positionCoords': [28.28, 51.5], 'bid': 3.69}, {'imgObject': {}, 'id': 'steak', 'src': '/static/foodstim60/steak.jpg', 'key': 'i', 'origWidth': 410, 'origHeight': 410, 'width': 409.95, 'height': 409.95, 'widthPercent': 0.45, 'rescaleHeight': False, 'trialN': 41, 'loaded': True, 'loadedTime': 4203.700000047684, 'positionName': 'RIGHT', 'positionCoords': [473.72, 51.5], 'bid': 5.97}]",74858.5,1669831682503,corn cob,steak,3.69,5.97,2.28,steak,1016.4000000953674,1017,1017.3000001907349,True,i,76384.5,1526.0,1669831684029,1526,HRV,HRV_0049,2022-11-30 18:11:39
42,"[{'imgObject': {}, 'id': 'blackbeanswithrice', 'src': '/static/foodstim60/blackbeanswithrice.jpg', 'key': 'u', 'origWidth': 410, 'origHeight': 410, 'width': 409.95, 'height': 409.95, 'widthPercent': 0.45, 'rescaleHeight': False, 'trialN': 42, 'loaded': True, 'loadedTime': 4397.400000095367, 'positionName': 'LEFT', 'positionCoords': [28.28, 51.5], 'bid': 6.5}, {'imgObject': {}, 'id': 'cheerios', 'src': '/static/foodstim60/cheerios.jpg', 'key': 'i', 'origWidth': 409, 'origHeight': 410, 'width': 409, 'height': 410, 'widthPercent': 0.45, 'rescaleHeight': False, 'trialN': 42, 'loaded': True, 'loadedTime': 4516.300000190735, 'positionName': 'RIGHT', 'positionCoords': [473.72, 51], 'bid': 5.88}]",76384.70000004768,1669831684029,blackbeanswithrice,cheerios,6.5,5.88,-0.6200000000000001,blackbeanswithrice,965.2999999523163,966,965.9000000953674,True,u,77867.90000009537,1483.2000000476837,1669831685512,1483,HRV,HRV_0049,2022-11-30 18:11:39
43,"[{'imgObject': {}, 'id': 'sweetpotato', 'src': '/static/foodstim60/sweetpotato.jpg', 'key': 'u', 'origWidth': 410, 'origHeight': 410, 'width': 409.95, 'height': 409.95, 'widthPercent': 0.45, 'rescaleHeight': False, 'trialN': 43, 'loaded': True, 'loadedTime': 4782.600000143051, 'positionName': 'LEFT', 'positionCoords': [28.28, 51.5], 'bid': 2.94}, {'imgObject': {}, 'id': 'shreddedwheatwithmilk', 'src': '/static/foodstim60/shreddedwheatwithmilk.jpg', 'key': 'i', 'origWidth': 410, 'origHeight': 410, 'width': 409.95, 'height': 409.95, 'widthPercent': 0.45, 'rescaleHeight': False, 'trialN': 43, 'loaded': True, 'loadedTime': 4543.300000190735, 'positionName': 'RIGHT', 'positionCoords': [473.72, 51.5], 'bid': 3.29}]",77868.10000014305,1669831685512,sweetpotato,shreddedwheatwithmilk,2.94,3.29,0.3500000000000001,shreddedwheatwithmilk,566.7999999523163,568,567.2999999523163,True,i,78950.0,1081.8999998569489,1669831686594,1082,HRV,HRV_0049,2022-11-30 18:11:39
44,"[{'imgObject': {}, 'id': 'mashed potato', 'src': '/static/foodstim60/mashed potato.jpg', 'key': 'u', 'origWidth': 409, 'origHeight': 409, 'width': 409, 'height': 409, 'widthPercent': 0.45, 'rescaleHeight': False, 'trialN': 44, 'loaded': True, 'loadedTime': 4566.200000047684, 'positionName': 'LEFT', 'positionCoords': [28.28, 51.5], 'bid': 3.49}, {'imgObject': {}, 'id': 'lox', 'src': '/static/foodstim60/lox.jpg', 'key': 'i', 'origWidth': 410, 'origHeight': 411, 'width': 409.95, 'height': 410.94987804878053, 'widthPercent': 0.45, 'rescaleHeight': False, 'trialN': 44, 'loaded': True, 'loadedTime': 4371.300000190735, 'positionName': 'RIGHT', 'positionCoords': [473.72, 51], 'bid': 5.3100000000000005}]",78950.20000004768,1669831686594,mashed potato,lox,3.49,5.3100000000000005,1.8200000000000003,lox,551.0,552,551.6000001430511,True,i,80012.40000009537,1062.2000000476837,1669831687657,1063,HRV,HRV_0049,2022-11-30 18:11:39
45,"[{'imgObject': {}, 'id': 'salad w chicken', 'src': '/static/foodstim60/salad w chicken.jpg', 'key': 'u', 'origWidth': 411, 'origHeight': 411, 'width': 409.95, 'height': 409.95, 'widthPercent': 0.45, 'rescaleHeight': False, 'trialN': 45, 'loaded': True, 'loadedTime': 4740.800000190735, 'positionName': 'LEFT', 'positionCoords': [28.28, 51.5], 'bid': 3.71}, {'imgObject': {}, 'id': 'hashbrowns', 'src': '/static/foodstim60/hashbrowns.jpg', 'key': 'i', 'origWidth': 411, 'origHeight': 410, 'width': 409.95, 'height': 408.95255474452557, 'widthPercent': 0.45, 'rescaleHeight': False, 'trialN': 45, 'loaded': True, 'loadedTime': 4819, 'positionName': 'RIGHT', 'positionCoords': [473.72, 52], 'bid': 3.62}]",80012.60000014305,1669831687657,salad w chicken,hashbrowns,3.71,3.62,-0.08999999999999986,salad w chicken,696.7000000476837,698,697.8999998569489,True,u,81217.0,1204.3999998569489,1669831688861,1204,HRV,HRV_0049,2022-11-30 18:11:39
46,"[{'imgObject': {}, 'id': 'mac & cheese', 'src': '/static/foodstim60/mac & cheese.jpg', 'key': 'u', 'origWidth': 410, 'origHeight': 410, 'width': 409.95, 'height': 409.95, 'widthPercent': 0.45, 'rescaleHeight': False, 'trialN': 46, 'loaded': True, 'loadedTime': 4064.800000190735, 'positionName': 'LEFT', 'positionCoords': [28.28, 51.5], 'bid': 3.97}, {'imgObject': {}, 'id': 'froot loops w milk', 'src': '/static/foodstim60/froot loops w milk.jpg', 'key': 'i', 'origWidth': 410, 'origHeight': 410, 'width': 409.95, 'height': 409.95, 'widthPercent': 0.45, 'rescaleHeight': False, 'trialN': 46, 'loaded': True, 'loadedTime': 4476.200000047684, 'positionName': 'RIGHT', 'positionCoords': [473.72, 51.5], 'bid': 7.33}]",81217.30000019073,1669831688861,mac & cheese,froot loops w milk,3.97,7.33,3.36,froot loops w milk,469.69999980926514,472,471.59999990463257,True,i,82192.20000004768,974.8999998569489,1669831689836,975,HRV,HRV_0049,2022-11-30 18:11:39
47,"[{'imgObject': {}, 'id': 'blueberries', 'src': '/static/foodstim60/blueberries.jpg', 'key': 'u', 'origWidth': 411, 'origHeight': 411, 'width': 409.95, 'height': 409.95, 'widthPercent': 0.45, 'rescaleHeight': False, 'trialN': 47, 'loaded': True, 'loadedTime': 4831.900000095367, 'positionName': 'LEFT', 'positionCoords': [28.28, 51.5], 'bid': 8.3}, {'imgObject': {}, 'id': 'grilled chicken strips', 'src': '/static/foodstim60/grilled chicken strips.jpg', 'key': 'i', 'origWidth': 410, 'origHeight': 411, 'width': 409.95, 'height': 410.94987804878053, 'widthPercent': 0.45, 'rescaleHeight': False, 'trialN': 47, 'loaded': True, 'loadedTime': 4856.600000143051, 'positionName': 'RIGHT', 'positionCoords': [473.72, 51], 'bid': 6.0200000000000005}]",82192.70000004768,1669831689837,blueberries,grilled chicken strips,8.3,6.0200000000000005,-2.2800000000000002,blueberries,1200.2999999523163,1201,1200.9000000953674,True,u,83896.10000014305,1703.4000000953674,1669831691540,1703,HRV,HRV_0049,2022-11-30 18:11:39
48,"[{'imgObject': {}, 'id': 'banana', 'src': '/static/foodstim60/banana.jpg', 'key': 'u', 'origWidth': 410, 'origHeight': 410, 'width': 409.95, 'height': 409.95, 'widthPercent': 0.45, 'rescaleHeight': False, 'trialN': 48, 'loaded': True, 'loadedTime': 4352.5, 'positionName': 'LEFT', 'positionCoords': [28.28, 51.5], 'bid': 5.75}, {'imgObject': {}, 'id': 'olives', 'src': '/static/foodstim60/olives.jpg', 'key': 'i', 'origWidth': 410, 'origHeight': 410, 'width': 409.95, 'height': 409.95, 'widthPercent': 0.45, 'rescaleHeight': False, 'trialN': 48, 'loaded': True, 'loadedTime': 4679.700000047684, 'positionName': 'RIGHT', 'positionCoords': [473.72, 51.5], 'bid': 3.51}]",83896.5,1669831691541,banana,olives,5.75,3.51,-2.24,olives,603.8000001907349,604,604.3000001907349,True,i,85012.10000014305,1115.6000001430511,1669831692656,1115,HRV,HRV_0049,2022-11-30 18:11:39
49,"[{'imgObject': {}, 'id': 'eggsalad', 'src': '/static/foodstim60/eggsalad.jpg', 'key': 'u', 'origWidth': 410, 'origHeight': 409, 'width': 409.95, 'height': 408.9501219512195, 'widthPercent': 0.45, 'rescaleHeight': False, 'trialN': 49, 'loaded': True, 'loadedTime': 4191.400000095367, 'positionName': 'LEFT', 'positionCoords': [28.28, 52], 'bid': 6.5}, {'imgObject': {}, 'id': 'veggieswithdip', 'src': '/static/foodstim60/veggieswithdip.jpg', 'key': 'i', 'origWidth': 409, 'origHeight': 409, 'width': 409, 'height': 409, 'widthPercent': 0.45, 'rescaleHeight': False, 'trialN': 49, 'loaded': True, 'loadedTime': 4035.7000000476837, 'positionName': 'RIGHT', 'positionCoords': [473.72, 51.5], 'bid': 6.5}]",85012.40000009537,1669831692657,eggsalad,veggieswithdip,6.5,6.5,0.0,veggieswithdip,893.0,894,894.2000000476837,True,i,86422.5,1410.0999999046326,1669831694067,1410,HRV,HRV_0049,2022-11-30 18:11:39
50,"[{'imgObject': {}, 'id': 'ice cream sundae 002', 'src': '/static/foodstim60/ice cream sundae 002.jpg', 'key': 'u', 'origWidth': 409, 'origHeight': 409, 'width': 409, 'height': 409, 'widthPercent': 0.45, 'rescaleHeight': False, 'trialN': 50, 'loaded': True, 'loadedTime': 3910.800000190735, 'positionName': 'LEFT', 'positionCoords': [28.28, 51.5], 'bid': 4.04}, {'imgObject': {}, 'id': 'burrito', 'src': '/static/foodstim60/burrito.jpg', 'key': 'i', 'origWidth': 410, 'origHeight': 410, 'width': 409.95, 'height': 409.95, 'widthPercent': 0.45, 'rescaleHeight': False, 'trialN': 50, 'loaded': True, 'loadedTime': 4266.200000047684, 'positionName': 'RIGHT', 'positionCoords': [473.72, 51.5], 'bid': 3.91}]",86422.80000019073,1669831694067,ice cream sundae 002,burrito,4.04,3.91,-0.1299999999999999,ice cream sundae 002,1395.6999998092651,1397,1396.5999999046326,True,u,88328.60000014305,1905.7999999523163,1669831695973,1906,HRV,HRV_0049,2022-11-30 18:11:39
51,"[{'imgObject': {}, 'id': 'mango', 'src': '/static/foodstim60/mango.jpg', 'key': 'u', 'origWidth': 411, 'origHeight': 411, 'width': 409.95, 'height': 409.95, 'widthPercent': 0.45, 'rescaleHeight': False, 'trialN': 51, 'loaded': True, 'loadedTime': 4857.600000143051, 'positionName': 'LEFT', 'positionCoords': [28.28, 51.5], 'bid': 7.25}, {'imgObject': {}, 'id': 'froot loops w milk', 'src': '/static/foodstim60/froot loops w milk.jpg', 'key': 'i', 'origWidth': 410, 'origHeight': 410, 'width': 409.95, 'height': 409.95, 'widthPercent': 0.45, 'rescaleHeight': False, 'trialN': 51, 'loaded': True, 'loadedTime': 4480.700000047684, 'positionName': 'RIGHT', 'positionCoords': [473.72, 51.5], 'bid': 7.33}]",88328.80000019073,1669831695973,mango,froot loops w milk,7.25,7.33,0.08000000000000007,mango,1040.2999999523163,1041,1041.0999999046326,True,u,89875.70000004768,1546.8999998569489,1669831697520,1547,HRV,HRV_0049,2022-11-30 18:11:39
52,"[{'imgObject': {}, 'id': 'mango', 'src': '/static/foodstim60/mango.jpg', 'key': 'u', 'origWidth': 411, 'origHeight': 411, 'width': 409.95, 'height': 409.95, 'widthPercent': 0.45, 'rescaleHeight': False, 'trialN': 52, 'loaded': True, 'loadedTime': 4864.700000047684, 'positionName': 'LEFT', 'positionCoords': [28.28, 51.5], 'bid': 7.25}, {'imgObject': {}, 'id': 'tacos', 'src': '/static/foodstim60/tacos.jpg', 'key': 'i', 'origWidth': 411, 'origHeight': 411, 'width': 409.95, 'height': 409.95, 'widthPercent': 0.45, 'rescaleHeight': False, 'trialN': 52, 'loaded': True, 'loadedTime': 4552.5, 'positionName': 'RIGHT', 'positionCoords': [473.72, 51.5], 'bid': 7.55}]",89876.0,1669831697520,mango,tacos,7.25,7.55,0.2999999999999998,tacos,936.7000000476837,938,937.9000000953674,True,i,91328.5,1452.5,1669831698973,1453,HRV,HRV_0049,2022-11-30 18:11:39
53,"[{'imgObject': {}, 'id': 'popsicles', 'src': '/static/foodstim60/popsicles.jpg', 'key': 'u', 'origWidth': 410, 'origHeight': 410, 'width': 409.95, 'height': 409.95, 'widthPercent': 0.45, 'rescaleHeight': False, 'trialN': 53, 'loaded': True, 'loadedTime': 5181.5, 'positionName': 'LEFT', 'positionCoords': [28.28, 51.5], 'bid': 6.54}, {'imgObject': {}, 'id': 'olives', 'src': '/static/foodstim60/olives.jpg', 'key': 'i', 'origWidth': 410, 'origHeight': 410, 'width': 409.95, 'height': 409.95, 'widthPercent': 0.45, 'rescaleHeight': False, 'trialN': 53, 'loaded': True, 'loadedTime': 4677.200000047684, 'positionName': 'RIGHT', 'positionCoords': [473.72, 51.5], 'bid': 3.51}]",91328.70000004768,1669831698973,popsicles,olives,6.54,3.51,-3.0300000000000002,popsicles,1057.1000001430511,1058,1058.4000000953674,True,u,92893.5,1564.7999999523163,1669831700538,1565,HRV,HRV_0049,2022-11-30 18:11:39
54,"[{'imgObject': {}, 'id': 'Tribe humus pita', 'src': '/static/foodstim60/Tribe humus pita.jpg', 'key': 'u', 'origWidth': 411, 'origHeight': 411, 'width': 409.95, 'height': 409.95, 'widthPercent': 0.45, 'rescaleHeight': False, 'trialN': 54, 'loaded': True, 'loadedTime': 4885.900000095367, 'positionName': 'LEFT', 'positionCoords': [28.28, 51.5], 'bid': 7.73}, {'imgObject': {}, 'id': 'lox', 'src': '/static/foodstim60/lox.jpg', 'key': 'i', 'origWidth': 410, 'origHeight': 411, 'width': 409.95, 'height': 410.94987804878053, 'widthPercent': 0.45, 'rescaleHeight': False, 'trialN': 54, 'loaded': True, 'loadedTime': 4372.800000190735, 'positionName': 'RIGHT', 'positionCoords': [473.72, 51], 'bid': 5.3100000000000005}]",92893.70000004768,1669831700538,Tribe humus pita,lox,7.73,5.3100000000000005,-2.42,lox,1051.9000000953674,1053,1053.4000000953674,True,i,94450.20000004768,1556.5,1669831702094,1556,HRV,HRV_0049,2022-11-30 18:11:39
55,"[{'imgObject': {}, 'id': 'Tribe humus pita', 'src': '/static/foodstim60/Tribe humus pita.jpg', 'key': 'u', 'origWidth': 411, 'origHeight': 411, 'width': 409.95, 'height': 409.95, 'widthPercent': 0.45, 'rescaleHeight': False, 'trialN': 55, 'loaded': True, 'loadedTime': 4879.200000047684, 'positionName': 'LEFT', 'positionCoords': [28.28, 51.5], 'bid': 7.73}, {'imgObject': {}, 'id': 'yogurt no spoon', 'src': '/static/foodstim60/yogurt no spoon.jpg', 'key': 'i', 'origWidth': 411, 'origHeight': 410, 'width': 409.95, 'height': 408.95255474452557, 'widthPercent': 0.45, 'rescaleHeight': False, 'trialN': 55, 'loaded': True, 'loadedTime': 4393, 'positionName': 'RIGHT', 'positionCoords': [473.72, 52], 'bid': 6.5200000000000005}]",94450.5,1669831702095,Tribe humus pita,yogurt no spoon,7.73,6.5200000000000005,-1.21,yogurt no spoon,1278.4000000953674,1279,1279.5,True,i,96232.40000009537,1781.9000000953674,1669831703877,1782,HRV,HRV_0049,2022-11-30 18:11:39
56,"[{'imgObject': {}, 'id': 'lox', 'src': '/static/foodstim60/lox.jpg', 'key': 'u', 'origWidth': 410, 'origHeight': 411, 'width': 409.95, 'height': 410.94987804878053, 'widthPercent': 0.45, 'rescaleHeight': False, 'trialN': 56, 'loaded': True, 'loadedTime': 4376, 'positionName': 'LEFT', 'positionCoords': [28.28, 51], 'bid': 5.3100000000000005}, {'imgObject': {}, 'id': 'salmon', 'src': '/static/foodstim60/salmon.jpg', 'key': 'i', 'origWidth': 410, 'origHeight': 409, 'width': 409.95, 'height': 408.9501219512195, 'widthPercent': 0.45, 'rescaleHeight': False, 'trialN': 56, 'loaded': True, 'loadedTime': 4311.800000190735, 'positionName': 'RIGHT', 'positionCoords': [473.72, 52], 'bid': 5.8}]",96232.70000004768,1669831703877,lox,salmon,5.3100000000000005,5.8,0.4899999999999993,lox,1061.4000000953674,1062,1062.5,True,u,97800.70000004768,1568.0,1669831705445,1568,HRV,HRV_0049,2022-11-30 18:11:39
57,"[{'imgObject': {}, 'id': 'cherries', 'src': '/static/foodstim60/cherries.jpg', 'key': 'u', 'origWidth': 410, 'origHeight': 411, 'width': 409.95, 'height': 410.94987804878053, 'widthPercent': 0.45, 'rescaleHeight': False, 'trialN': 57, 'loaded': True, 'loadedTime': 4443.900000095367, 'positionName': 'LEFT', 'positionCoords': [28.28, 51], 'bid': 8.91}, {'imgObject': {}, 'id': 'froot loops w milk', 'src': '/static/foodstim60/froot loops w milk.jpg', 'key': 'i', 'origWidth': 410, 'origHeight': 410, 'width': 409.95, 'height': 409.95, 'widthPercent': 0.45, 'rescaleHeight': False, 'trialN': 57, 'loaded': True, 'loadedTime': 4486.700000047684, 'positionName': 'RIGHT', 'positionCoords': [473.72, 51.5], 'bid': 7.33}]",97800.90000009537,1669831705445,cherries,froot loops w milk,8.91,7.33,-1.58,froot loops w milk,1011.4000000953674,1013,1012.7000000476837,True,i,99320.20000004768,1519.2999999523163,1669831706964,1519,HRV,HRV_0049,2022-11-30 18:11:39
58,"[{'imgObject': {}, 'id': 'roastedpotatoes', 'src': '/static/foodstim60/roastedpotatoes.jpg', 'key': 'u', 'origWidth': 409, 'origHeight': 410, 'width': 409, 'height': 410, 'widthPercent': 0.45, 'rescaleHeight': False, 'trialN': 58, 'loaded': True, 'loadedTime': 4575.900000095367, 'positionName': 'LEFT', 'positionCoords': [28.28, 51], 'bid': 3.45}, {'imgObject': {}, 'id': 'eggsalad', 'src': '/static/foodstim60/eggsalad.jpg', 'key': 'i', 'origWidth': 410, 'origHeight': 409, 'width': 409.95, 'height': 408.9501219512195, 'widthPercent': 0.45, 'rescaleHeight': False, 'trialN': 58, 'loaded': True, 'loadedTime': 4191.800000190735, 'positionName': 'RIGHT', 'positionCoords': [473.72, 52], 'bid': 6.5}]",99320.60000014305,1669831706965,roastedpotatoes,eggsalad,3.45,6.5,3.05,eggsalad,1090.0,1094,1094.5999999046326,True,i,100920.40000009537,1599.7999999523163,1669831708565,1600,HRV,HRV_0049,2022-11-30 18:11:39
59,"[{'imgObject': {}, 'id': 'hotdog w must', 'src': '/static/foodstim60/hotdog w must.jpg', 'key': 'u', 'origWidth': 409, 'origHeight': 409, 'width': 409, 'height': 409, 'widthPercent': 0.45, 'rescaleHeight': False, 'trialN': 59, 'loaded': True, 'loadedTime': 4428.800000190735, 'positionName': 'LEFT', 'positionCoords': [28.28, 51.5], 'bid': 7.6}, {'imgObject': {}, 'id': 'raspberries', 'src': '/static/foodstim60/raspberries.jpg', 'key': 'i', 'origWidth': 411, 'origHeight': 411, 'width': 409.95, 'height': 409.95, 'widthPercent': 0.45, 'rescaleHeight': False, 'trialN': 59, 'loaded': True, 'loadedTime': 4764.200000047684, 'positionName': 'RIGHT', 'positionCoords': [473.72, 51.5], 'bid': 4.8100000000000005}]",100920.90000009537,1669831708565,hotdog w must,raspberries,7.6,4.8100000000000005,-2.789999999999999,raspberries,826.7999999523163,828,827.5,True,i,102255.90000009537,1335.0,1669831709900,1335,HRV,HRV_0049,2022-11-30 18:11:39
60,"[{'imgObject': {}, 'id': 'mashed potato', 'src': '/static/foodstim60/mashed potato.jpg', 'key': 'u', 'origWidth': 409, 'origHeight': 409, 'width': 409, 'height': 409, 'widthPercent': 0.45, 'rescaleHeight': False, 'trialN': 60, 'loaded': True, 'loadedTime': 4568.300000190735, 'positionName': 'LEFT', 'positionCoords': [28.28, 51.5], 'bid': 3.49}, {'imgObject': {}, 'id': 'bagel and cc', 'src': '/static/foodstim60/bagel and cc.jpg', 'key': 'i', 'origWidth': 410, 'origHeight': 410, 'width': 409.95, 'height': 409.95, 'widthPercent': 0.45, 'rescaleHeight': False, 'trialN': 60, 'loaded': True, 'loadedTime': 4897.200000047684, 'positionName': 'RIGHT', 'positionCoords': [473.72, 51.5], 'bid': 3.86}]",102256.30000019073,1669831709900,mashed potato,bagel and cc,3.49,3.86,0.36999999999999966,mashed potato,1041.0999999046326,1042,1041.7999999523163,True,u,103816.40000009537,1560.0999999046326,1669831711461,1561,HRV,HRV_0049,2022-11-30 18:11:39
61,"[{'imgObject': {}, 'id': 'granola w milk', 'src': '/static/foodstim60/granola w milk.jpg', 'key': 'u', 'origWidth': 410, 'origHeight': 410, 'width': 409.95, 'height': 409.95, 'widthPercent': 0.45, 'rescaleHeight': False, 'trialN': 61, 'loaded': True, 'loadedTime': 4298.300000190735, 'positionName': 'LEFT', 'positionCoords': [28.28, 51.5], 'bid': 7.68}, {'imgObject': {}, 'id': 'blueberries', 'src': '/static/foodstim60/blueberries.jpg', 'key': 'i', 'origWidth': 411, 'origHeight': 411, 'width': 409.95, 'height': 409.95, 'widthPercent': 0.45, 'rescaleHeight': False, 'trialN': 61, 'loaded': True, 'loadedTime': 4850.100000143051, 'positionName': 'RIGHT', 'positionCoords': [473.72, 51.5], 'bid': 8.3}]",103816.70000004768,1669831711461,granola w milk,blueberries,7.68,8.3,0.620000000000001,blueberries,1190.2999999523163,1192,1191.7000000476837,True,i,105518.70000004768,1702.0,1669831713163,1702,HRV,HRV_0049,2022-11-30 18:11:39
62,"[{'imgObject': {}, 'id': 'bagel and cc', 'src': '/static/foodstim60/bagel and cc.jpg', 'key': 'u', 'origWidth': 410, 'origHeight': 410, 'width': 409.95, 'height': 409.95, 'widthPercent': 0.45, 'rescaleHeight': False, 'trialN': 62, 'loaded': True, 'loadedTime': 4903.900000095367, 'positionName': 'LEFT', 'positionCoords': [28.28, 51.5], 'bid': 3.86}, {'imgObject': {}, 'id': 'mango', 'src': '/static/foodstim60/mango.jpg', 'key': 'i', 'origWidth': 411, 'origHeight': 411, 'width': 409.95, 'height': 409.95, 'widthPercent': 0.45, 'rescaleHeight': False, 'trialN': 62, 'loaded': True, 'loadedTime': 4866.5, 'positionName': 'RIGHT', 'positionCoords': [473.72, 51.5], 'bid': 7.25}]",105518.90000009537,1669831713163,bagel and cc,mango,3.86,7.25,3.39,mango,1750.5999999046326,1752,1751.7000000476837,True,i,107787.90000009537,2269.0,1669831715432,2269,HRV,HRV_0049,2022-11-30 18:11:39
63,"[{'imgObject': {}, 'id': 'edamame', 'src': '/static/foodstim60/edamame.jpg', 'key': 'u', 'origWidth': 409, 'origHeight': 410, 'width': 409, 'height': 410, 'widthPercent': 0.45, 'rescaleHeight': False, 'trialN': 63, 'loaded': True, 'loadedTime': 4113.5, 'positionName': 'LEFT', 'positionCoords': [28.28, 51], 'bid': 7.49}, {'imgObject': {}, 'id': 'seaweed', 'src': '/static/foodstim60/seaweed.jpg', 'key': 'i', 'origWidth': 410, 'origHeight': 410, 'width': 409.95, 'height': 409.95, 'widthPercent': 0.45, 'rescaleHeight': False, 'trialN': 63, 'loaded': True, 'loadedTime': 4712, 'positionName': 'RIGHT', 'positionCoords': [473.72, 51.5], 'bid': 7.16}]",107788.5,1669831715433,edamame,seaweed,7.49,7.16,-0.33000000000000007,edamame,1135.9000000953674,1136,1136.5,True,u,109446.60000014305,1658.1000001430511,1669831717091,1658,HRV,HRV_0049,2022-11-30 18:11:39
64,"[{'imgObject': {}, 'id': 'sushi w_condiments', 'src': '/static/foodstim60/sushi w_condiments.jpg', 'key': 'u', 'origWidth': 410, 'origHeight': 410, 'width': 409.95, 'height': 409.95, 'widthPercent': 0.45, 'rescaleHeight': False, 'trialN': 64, 'loaded': True, 'loadedTime': 3441.600000143051, 'positionName': 'LEFT', 'positionCoords': [28.28, 51.5], 'bid': 6.15}, {'imgObject': {}, 'id': 'bagel and cc', 'src': '/static/foodstim60/bagel and cc.jpg', 'key': 'i', 'origWidth': 410, 'origHeight': 410, 'width': 409.95, 'height': 409.95, 'widthPercent': 0.45, 'rescaleHeight': False, 'trialN': 64, 'loaded': True, 'loadedTime': 4901.900000095367, 'positionName': 'RIGHT', 'positionCoords': [473.72, 51.5], 'bid': 3.86}]",109446.90000009537,1669831717091,sushi w_condiments,bagel and cc,6.15,3.86,-2.2900000000000005,bagel and cc,721.2999999523163,722,721.9000000953674,True,i,110727.5,1280.5999999046326,1669831718372,1281,HRV,HRV_0049,2022-11-30 18:11:39
65,"[{'imgObject': {}, 'id': 'mac & cheese', 'src': '/static/foodstim60/mac & cheese.jpg', 'key': 'u', 'origWidth': 410, 'origHeight': 410, 'width': 409.95, 'height': 409.95, 'widthPercent': 0.45, 'rescaleHeight': False, 'trialN': 65, 'loaded': True, 'loadedTime': 4075.300000190735, 'positionName': 'LEFT', 'positionCoords': [28.28, 51.5], 'bid': 3.97}, {'imgObject': {}, 'id': 'burrito', 'src': '/static/foodstim60/burrito.jpg', 'key': 'i', 'origWidth': 410, 'origHeight': 410, 'width': 409.95, 'height': 409.95, 'widthPercent': 0.45, 'rescaleHeight': False, 'trialN': 65, 'loaded': True, 'loadedTime': 4272.700000047684, 'positionName': 'RIGHT', 'positionCoords': [473.72, 51.5], 'bid': 3.91}]",110728.5,1669831718373,mac & cheese,burrito,3.97,3.91,-0.06000000000000005,mac & cheese,1507.3000001907349,1508,1508.1000001430511,True,u,112753.0,2024.5,1669831720397,2024,HRV,HRV_0049,2022-11-30 18:11:39
66,"[{'imgObject': {}, 'id': 'bagel plain', 'src': '/static/foodstim60/bagel plain.jpg', 'key': 'u', 'origWidth': 410, 'origHeight': 410, 'width': 409.95, 'height': 409.95, 'widthPercent': 0.45, 'rescaleHeight': False, 'trialN': 66, 'loaded': True, 'loadedTime': 4462.800000190735, 'positionName': 'LEFT', 'positionCoords': [28.28, 51.5], 'bid': 6.3500000000000005}, {'imgObject': {}, 'id': 'steak', 'src': '/static/foodstim60/steak.jpg', 'key': 'i', 'origWidth': 410, 'origHeight': 410, 'width': 409.95, 'height': 409.95, 'widthPercent': 0.45, 'rescaleHeight': False, 'trialN': 66, 'loaded': True, 'loadedTime': 4240.600000143051, 'positionName': 'RIGHT', 'positionCoords': [473.72, 51.5], 'bid': 5.97}]",112753.40000009537,1669831720398,bagel plain,steak,6.3500000000000005,5.97,-0.3800000000000008,steak,896.5999999046326,898,898.5,True,i,114154.90000009537,1401.5,1669831721799,1401,HRV,HRV_0049,2022-11-30 18:11:39
67,"[{'imgObject': {}, 'id': 'chicken nuggets2', 'src': '/static/foodstim60/chicken nuggets2.jpg', 'key': 'u', 'origWidth': 410, 'origHeight': 409, 'width': 409.95, 'height': 408.9501219512195, 'widthPercent': 0.45, 'rescaleHeight': False, 'trialN': 67, 'loaded': True, 'loadedTime': 3961.800000190735, 'positionName': 'LEFT', 'positionCoords': [28.28, 52], 'bid': 7.25}, {'imgObject': {}, 'id': 'froot loops w milk', 'src': '/static/foodstim60/froot loops w milk.jpg', 'key': 'i', 'origWidth': 410, 'origHeight': 410, 'width': 409.95, 'height': 409.95, 'widthPercent': 0.45, 'rescaleHeight': False, 'trialN': 67, 'loaded': True, 'loadedTime': 4488.100000143051, 'positionName': 'RIGHT', 'positionCoords': [473.72, 51.5], 'bid': 7.33}]",114155.20000004768,1669831721799,chicken nuggets2,froot loops w milk,7.25,7.33,0.08000000000000007,froot loops w milk,1123.2999999523163,1125,1124.7000000476837,True,i,115796.20000004768,1641.0,1669831723440,1641,HRV,HRV_0049,2022-11-30 18:11:39
68,"[{'imgObject': {}, 'id': 'hashbrowns', 'src': '/static/foodstim60/hashbrowns.jpg', 'key': 'u', 'origWidth': 411, 'origHeight': 410, 'width': 409.95, 'height': 408.95255474452557, 'widthPercent': 0.45, 'rescaleHeight': False, 'trialN': 68, 'loaded': True, 'loadedTime': 4829.300000190735, 'positionName': 'LEFT', 'positionCoords': [28.28, 52], 'bid': 3.62}, {'imgObject': {}, 'id': 'raspberries', 'src': '/static/foodstim60/raspberries.jpg', 'key': 'i', 'origWidth': 411, 'origHeight': 411, 'width': 409.95, 'height': 409.95, 'widthPercent': 0.45, 'rescaleHeight': False, 'trialN': 68, 'loaded': True, 'loadedTime': 4769.400000095367, 'positionName': 'RIGHT', 'positionCoords': [473.72, 51.5], 'bid': 4.8100000000000005}]",115796.40000009537,1669831723441,hashbrowns,raspberries,3.62,4.8100000000000005,1.1900000000000004,raspberries,1583.0999999046326,1577,1583.7000000476837,True,i,117894.20000004768,2097.7999999523163,1669831725532,2091,HRV,HRV_0049,2022-11-30 18:11:39
69,"[{'imgObject': {}, 'id': 'luckycharms', 'src': '/static/foodstim60/luckycharms.jpg', 'key': 'u', 'origWidth': 410, 'origHeight': 409, 'width': 409.95, 'height': 408.9501219512195, 'widthPercent': 0.45, 'rescaleHeight': False, 'trialN': 69, 'loaded': True, 'loadedTime': 4761.800000190735, 'positionName': 'LEFT', 'positionCoords': [28.28, 52], 'bid': 3.45}, {'imgObject': {}, 'id': 'blackbeanswithrice', 'src': '/static/foodstim60/blackbeanswithrice.jpg', 'key': 'i', 'origWidth': 410, 'origHeight': 410, 'width': 409.95, 'height': 409.95, 'widthPercent': 0.45, 'rescaleHeight': False, 'trialN': 69, 'loaded': True, 'loadedTime': 4424.5, 'positionName': 'RIGHT', 'positionCoords': [473.72, 51.5], 'bid': 6.5}]",117894.5,1669831725532,luckycharms,blackbeanswithrice,3.45,6.5,3.05,luckycharms,1465.3000001907349,1466,1465.8000001907349,True,u,119878.20000004768,1983.7000000476837,1669831727516,1984,HRV,HRV_0049,2022-11-30 18:11:39
70,"[{'imgObject': {}, 'id': 'hashbrowns', 'src': '/static/foodstim60/hashbrowns.jpg', 'key': 'u', 'origWidth': 411, 'origHeight': 410, 'width': 409.95, 'height': 408.95255474452557, 'widthPercent': 0.45, 'rescaleHeight': False, 'trialN': 70, 'loaded': True, 'loadedTime': 4813.900000095367, 'positionName': 'LEFT', 'positionCoords': [28.28, 52], 'bid': 3.62}, {'imgObject': {}, 'id': 'corn cob', 'src': '/static/foodstim60/corn cob.jpg', 'key': 'i', 'origWidth': 411, 'origHeight': 411, 'width': 409.95, 'height': 409.95, 'widthPercent': 0.45, 'rescaleHeight': False, 'trialN': 70, 'loaded': True, 'loadedTime': 4800.100000143051, 'positionName': 'RIGHT', 'positionCoords': [473.72, 51.5], 'bid': 3.69}]",119878.5,1669831727516,hashbrowns,corn cob,3.62,3.69,0.06999999999999984,corn cob,635.6000001430511,637,636.7000000476837,True,i,121025.40000009537,1146.9000000953674,1669831728663,1147,HRV,HRV_0049,2022-11-30 18:11:39
71,"[{'imgObject': {}, 'id': 'chickenfingers', 'src': '/static/foodstim60/chickenfingers.jpg', 'key': 'u', 'origWidth': 410, 'origHeight': 410, 'width': 409.95, 'height': 409.95, 'widthPercent': 0.45, 'rescaleHeight': False, 'trialN': 71, 'loaded': True, 'loadedTime': 4244, 'positionName': 'LEFT', 'positionCoords': [28.28, 51.5], 'bid': 7.73}, {'imgObject': {}, 'id': 'popsicles', 'src': '/static/foodstim60/popsicles.jpg', 'key': 'i', 'origWidth': 410, 'origHeight': 410, 'width': 409.95, 'height': 409.95, 'widthPercent': 0.45, 'rescaleHeight': False, 'trialN': 71, 'loaded': True, 'loadedTime': 5183.800000190735, 'positionName': 'RIGHT', 'positionCoords': [473.72, 51.5], 'bid': 6.54}]",121025.60000014305,1669831728663,chickenfingers,popsicles,7.73,6.54,-1.1900000000000004,popsicles,787.0999999046326,788,787.7999999523163,True,i,122321.70000004768,1296.0999999046326,1669831729960,1297,HRV,HRV_0049,2022-11-30 18:11:39
72,"[{'imgObject': {}, 'id': 'hashbrowns', 'src': '/static/foodstim60/hashbrowns.jpg', 'key': 'u', 'origWidth': 411, 'origHeight': 410, 'width': 409.95, 'height': 408.95255474452557, 'widthPercent': 0.45, 'rescaleHeight': False, 'trialN': 72, 'loaded': True, 'loadedTime': 4821.300000190735, 'positionName': 'LEFT', 'positionCoords': [28.28, 52], 'bid': 3.62}, {'imgObject': {}, 'id': 'shreddedwheatwithmilk', 'src': '/static/foodstim60/shreddedwheatwithmilk.jpg', 'key': 'i', 'origWidth': 410, 'origHeight': 410, 'width': 409.95, 'height': 409.95, 'widthPercent': 0.45, 'rescaleHeight': False, 'trialN': 72, 'loaded': True, 'loadedTime': 4539.900000095367, 'positionName': 'RIGHT', 'positionCoords': [473.72, 51.5], 'bid': 3.29}]",122322.10000014305,1669831729960,hashbrowns,shreddedwheatwithmilk,3.62,3.29,-0.33000000000000007,shreddedwheatwithmilk,1521.5999999046326,1522,1522.5999999046326,True,i,124357.60000014305,2035.5,1669831731995,2035,HRV,HRV_0049,2022-11-30 18:11:39
73,"[{'imgObject': {}, 'id': 'popsicles', 'src': '/static/foodstim60/popsicles.jpg', 'key': 'u', 'origWidth': 410, 'origHeight': 410, 'width': 409.95, 'height': 409.95, 'widthPercent': 0.45, 'rescaleHeight': False, 'trialN': 73, 'loaded': True, 'loadedTime': 5179.400000095367, 'positionName': 'LEFT', 'positionCoords': [28.28, 51.5], 'bid': 6.54}, {'imgObject': {}, 'id': 'turkey sandwich', 'src': '/static/foodstim60/turkey sandwich.jpg', 'key': 'i', 'origWidth': 409, 'origHeight': 409, 'width': 409, 'height': 409, 'widthPercent': 0.45, 'rescaleHeight': False, 'trialN': 73, 'loaded': True, 'loadedTime': 3884.600000143051, 'positionName': 'RIGHT', 'positionCoords': [473.72, 51.5], 'bid': 6.65}]",124357.90000009537,1669831731996,popsicles,turkey sandwich,6.54,6.65,0.11000000000000032,turkey sandwich,1147.2000000476837,1148,1148.5,True,i,126020.0,1662.0999999046326,1669831733658,1662,HRV,HRV_0049,2022-11-30 18:11:39
74,"[{'imgObject': {}, 'id': 'luckycharms', 'src': '/static/foodstim60/luckycharms.jpg', 'key': 'u', 'origWidth': 410, 'origHeight': 409, 'width': 409.95, 'height': 408.9501219512195, 'widthPercent': 0.45, 'rescaleHeight': False, 'trialN': 74, 'loaded': True, 'loadedTime': 4759.300000190735, 'positionName': 'LEFT', 'positionCoords': [28.28, 52], 'bid': 3.45}, {'imgObject': {}, 'id': 'mac & cheese', 'src': '/static/foodstim60/mac & cheese.jpg', 'key': 'i', 'origWidth': 410, 'origHeight': 410, 'width': 409.95, 'height': 409.95, 'widthPercent': 0.45, 'rescaleHeight': False, 'trialN': 74, 'loaded': True, 'loadedTime': 4079.300000190735, 'positionName': 'RIGHT', 'positionCoords': [473.72, 51.5], 'bid': 3.97}]",126020.30000019073,1669831733658,luckycharms,mac & cheese,3.45,3.97,0.52,luckycharms,1612.5999999046326,1614,1613.5,True,u,128145.90000009537,2125.5999999046326,1669831735784,2126,HRV,HRV_0049,2022-11-30 18:11:39
75,"[{'imgObject': {}, 'id': 'baked potato', 'src': '/static/foodstim60/baked potato.jpg', 'key': 'u', 'origWidth': 409, 'origHeight': 410, 'width': 409, 'height': 410, 'widthPercent': 0.45, 'rescaleHeight': False, 'trialN': 75, 'loaded': True, 'loadedTime': 4649.700000047684, 'positionName': 'LEFT', 'positionCoords': [28.28, 51], 'bid': 3.21}, {'imgObject': {}, 'id': 'luckycharms', 'src': '/static/foodstim60/luckycharms.jpg', 'key': 'i', 'origWidth': 410, 'origHeight': 409, 'width': 409.95, 'height': 408.9501219512195, 'widthPercent': 0.45, 'rescaleHeight': False, 'trialN': 75, 'loaded': True, 'loadedTime': 4761.400000095367, 'positionName': 'RIGHT', 'positionCoords': [473.72, 52], 'bid': 3.45}]",128146.10000014305,1669831735784,baked potato,luckycharms,3.21,3.45,0.2400000000000002,luckycharms,712.7999999523163,714,714.0,True,i,129380.20000004768,1234.0999999046326,1669831737018,1234,HRV,HRV_0049,2022-11-30 18:11:39
76,"[{'imgObject': {}, 'id': 'rigatoni', 'src': '/static/foodstim60/rigatoni.jpg', 'key': 'u', 'origWidth': 411, 'origHeight': 411, 'width': 409.95, 'height': 409.95, 'widthPercent': 0.45, 'rescaleHeight': False, 'trialN': 76, 'loaded': True, 'loadedTime': 3928.7000000476837, 'positionName': 'LEFT', 'positionCoords': [28.28, 51.5], 'bid': 6.8500000000000005}, {'imgObject': {}, 'id': 'Grapes', 'src': '/static/foodstim60/Grapes.jpg', 'key': 'i', 'origWidth': 411, 'origHeight': 411, 'width': 409.95, 'height': 409.95, 'widthPercent': 0.45, 'rescaleHeight': False, 'trialN': 76, 'loaded': True, 'loadedTime': 4661, 'positionName': 'RIGHT', 'positionCoords': [473.72, 51.5], 'bid': 7.97}]",129380.5,1669831737018,rigatoni,Grapes,6.8500000000000005,7.97,1.1199999999999992,Grapes,1236.5,1238,1237.5,True,i,131123.30000019073,1742.8000001907349,1669831738761,1743,HRV,HRV_0049,2022-11-30 18:11:39
77,"[{'imgObject': {}, 'id': 'cantaloupe', 'src': '/static/foodstim60/cantaloupe.jpg', 'key': 'u', 'origWidth': 409, 'origHeight': 409, 'width': 409, 'height': 409, 'widthPercent': 0.45, 'rescaleHeight': False, 'trialN': 77, 'loaded': True, 'loadedTime': 4521.800000190735, 'positionName': 'LEFT', 'positionCoords': [28.28, 51.5], 'bid': 6.37}, {'imgObject': {}, 'id': 'grilled chicken strips', 'src': '/static/foodstim60/grilled chicken strips.jpg', 'key': 'i', 'origWidth': 410, 'origHeight': 411, 'width': 409.95, 'height': 410.94987804878053, 'widthPercent': 0.45, 'rescaleHeight': False, 'trialN': 77, 'loaded': True, 'loadedTime': 4851.700000047684, 'positionName': 'RIGHT', 'positionCoords': [473.72, 51], 'bid': 6.0200000000000005}]",131123.60000014305,1669831738761,cantaloupe,grilled chicken strips,6.37,6.0200000000000005,-0.34999999999999964,grilled chicken strips,1148.0999999046326,1149,1148.7999999523163,True,i,132784.40000009537,1660.7999999523163,1669831740422,1661,HRV,HRV_0049,2022-11-30 18:11:39
78,"[{'imgObject': {}, 'id': 'burrito', 'src': '/static/foodstim60/burrito.jpg', 'key': 'u', 'origWidth': 410, 'origHeight': 410, 'width': 409.95, 'height': 409.95, 'widthPercent': 0.45, 'rescaleHeight': False, 'trialN': 78, 'loaded': True, 'loadedTime': 4280.300000190735, 'positionName': 'LEFT', 'positionCoords': [28.28, 51.5], 'bid': 3.91}, {'imgObject': {}, 'id': 'chicken nuggets2', 'src': '/static/foodstim60/chicken nuggets2.jpg', 'key': 'i', 'origWidth': 410, 'origHeight': 409, 'width': 409.95, 'height': 408.9501219512195, 'widthPercent': 0.45, 'rescaleHeight': False, 'trialN': 78, 'loaded': True, 'loadedTime': 3944, 'positionName': 'RIGHT', 'positionCoords': [473.72, 52], 'bid': 7.25}]",132784.60000014305,1669831740422,burrito,chicken nuggets2,3.91,7.25,3.34,chicken nuggets2,1719.7999999523163,1721,1720.7000000476837,True,i,135013.60000014305,2229.0,1669831742651,2229,HRV,HRV_0049,2022-11-30 18:11:39
79,"[{'imgObject': {}, 'id': 'olives', 'src': '/static/foodstim60/olives.jpg', 'key': 'u', 'origWidth': 410, 'origHeight': 410, 'width': 409.95, 'height': 409.95, 'widthPercent': 0.45, 'rescaleHeight': False, 'trialN': 79, 'loaded': True, 'loadedTime': 4684, 'positionName': 'LEFT', 'positionCoords': [28.28, 51.5], 'bid': 3.51}, {'imgObject': {}, 'id': 'strawberries', 'src': '/static/foodstim60/strawberries.jpg', 'key': 'i', 'origWidth': 410, 'origHeight': 410, 'width': 409.95, 'height': 409.95, 'widthPercent': 0.45, 'rescaleHeight': False, 'trialN': 79, 'loaded': True, 'loadedTime': 4153.200000047684, 'positionName': 'RIGHT', 'positionCoords': [473.72, 51.5], 'bid': 4.3}]",135013.80000019073,1669831742652,olives,strawberries,3.51,4.3,0.79,strawberries,1210.3999998569489,1211,1211.5,True,i,136732.30000019073,1718.5,1669831744370,1718,HRV,HRV_0049,2022-11-30 18:11:39
80,"[{'imgObject': {}, 'id': 'eggs', 'src': '/static/foodstim60/eggs.jpg', 'key': 'u', 'origWidth': 409, 'origHeight': 409, 'width': 409, 'height': 409, 'widthPercent': 0.45, 'rescaleHeight': False, 'trialN': 80, 'loaded': True, 'loadedTime': 4911, 'positionName': 'LEFT', 'positionCoords': [28.28, 51.5], 'bid': 6.76}, {'imgObject': {}, 'id': 'hashbrowns', 'src': '/static/foodstim60/hashbrowns.jpg', 'key': 'i', 'origWidth': 411, 'origHeight': 410, 'width': 409.95, 'height': 408.95255474452557, 'widthPercent': 0.45, 'rescaleHeight': False, 'trialN': 80, 'loaded': True, 'loadedTime': 4826, 'positionName': 'RIGHT', 'positionCoords': [473.72, 52], 'bid': 3.62}]",136732.5,1669831744370,eggs,hashbrowns,6.76,3.62,-3.1399999999999997,eggs,1337.3000001907349,1339,1338.4000000953674,True,u,138577.20000004768,1844.7000000476837,1669831746215,1845,HRV,HRV_0049,2022-11-30 18:11:39
81,"[{'imgObject': {}, 'id': 'orange slices', 'src': '/static/foodstim60/orange slices.jpg', 'key': 'u', 'origWidth': 409, 'origHeight': 410, 'width': 409, 'height': 410, 'widthPercent': 0.45, 'rescaleHeight': False, 'trialN': 81, 'loaded': True, 'loadedTime': 4496.800000190735, 'positionName': 'LEFT', 'positionCoords': [28.28, 51], 'bid': 8.52}, {'imgObject': {}, 'id': 'chickenfingers', 'src': '/static/foodstim60/chickenfingers.jpg', 'key': 'i', 'origWidth': 410, 'origHeight': 410, 'width': 409.95, 'height': 409.95, 'widthPercent': 0.45, 'rescaleHeight': False, 'trialN': 81, 'loaded': True, 'loadedTime': 4254, 'positionName': 'RIGHT', 'positionCoords': [473.72, 51.5], 'bid': 7.73}]",138577.40000009537,1669831746215,orange slices,chickenfingers,8.52,7.73,-0.7899999999999991,orange slices,941.7999999523163,942,942.2000000476837,True,u,140032.20000004768,1454.7999999523163,1669831747670,1455,HRV,HRV_0049,2022-11-30 18:11:39
82,"[{'imgObject': {}, 'id': 'salmon', 'src': '/static/foodstim60/salmon.jpg', 'key': 'u', 'origWidth': 410, 'origHeight': 409, 'width': 409.95, 'height': 408.9501219512195, 'widthPercent': 0.45, 'rescaleHeight': False, 'trialN': 82, 'loaded': True, 'loadedTime': 4314.800000190735, 'positionName': 'LEFT', 'positionCoords': [28.28, 52], 'bid': 5.8}, {'imgObject': {}, 'id': 'raisin bran w milk', 'src': '/static/foodstim60/raisin bran w milk.jpg', 'key': 'i', 'origWidth': 411, 'origHeight': 411, 'width': 409.95, 'height': 409.95, 'widthPercent': 0.45, 'rescaleHeight': False, 'trialN': 82, 'loaded': True, 'loadedTime': 4695.900000095367, 'positionName': 'RIGHT', 'positionCoords': [473.72, 51.5], 'bid': 3.51}]",140032.40000009537,1669831747670,salmon,raisin bran w milk,5.8,3.51,-2.29,salmon,1354.5,1356,1355.5,True,u,141908.90000009537,1876.5,1669831749547,1877,HRV,HRV_0049,2022-11-30 18:11:39
83,"[{'imgObject': {}, 'id': 'hotdog w must', 'src': '/static/foodstim60/hotdog w must.jpg', 'key': 'u', 'origWidth': 409, 'origHeight': 409, 'width': 409, 'height': 409, 'widthPercent': 0.45, 'rescaleHeight': False, 'trialN': 83, 'loaded': True, 'loadedTime': 4434.600000143051, 'positionName': 'LEFT', 'positionCoords': [28.28, 51.5], 'bid': 7.6}, {'imgObject': {}, 'id': 'blackbeanswithrice', 'src': '/static/foodstim60/blackbeanswithrice.jpg', 'key': 'i', 'origWidth': 410, 'origHeight': 410, 'width': 409.95, 'height': 409.95, 'widthPercent': 0.45, 'rescaleHeight': False, 'trialN': 83, 'loaded': True, 'loadedTime': 4405.400000095367, 'positionName': 'RIGHT', 'positionCoords': [473.72, 51.5], 'bid': 6.5}]",141909.10000014305,1669831749547,hotdog w must,blackbeanswithrice,7.6,6.5,-1.0999999999999996,blackbeanswithrice,1280.0,1281,1280.8999998569489,True,i,143709.70000004768,1800.5999999046326,1669831751348,1801,HRV,HRV_0049,2022-11-30 18:11:39
84,"[{'imgObject': {}, 'id': 'raspberries', 'src': '/static/foodstim60/raspberries.jpg', 'key': 'u', 'origWidth': 411, 'origHeight': 411, 'width': 409.95, 'height': 409.95, 'widthPercent': 0.45, 'rescaleHeight': False, 'trialN': 84, 'loaded': True, 'loadedTime': 4774.100000143051, 'positionName': 'LEFT', 'positionCoords': [28.28, 51.5], 'bid': 4.8100000000000005}, {'imgObject': {}, 'id': 'burger', 'src': '/static/foodstim60/burger.jpg', 'key': 'i', 'origWidth': 409, 'origHeight': 409, 'width': 409, 'height': 409, 'widthPercent': 0.45, 'rescaleHeight': False, 'trialN': 84, 'loaded': True, 'loadedTime': 4932.800000190735, 'positionName': 'RIGHT', 'positionCoords': [473.72, 51.5], 'bid': 5.07}]",143709.90000009537,1669831751348,raspberries,burger,4.8100000000000005,5.07,0.2599999999999998,raspberries,1602.9000000953674,1604,1604.2999999523163,True,u,145822.0,2112.0999999046326,1669831753460,2112,HRV,HRV_0049,2022-11-30 18:11:39
85,"[{'imgObject': {}, 'id': 'yogurt no spoon', 'src': '/static/foodstim60/yogurt no spoon.jpg', 'key': 'u', 'origWidth': 411, 'origHeight': 410, 'width': 409.95, 'height': 408.95255474452557, 'widthPercent': 0.45, 'rescaleHeight': False, 'trialN': 85, 'loaded': True, 'loadedTime': 4383.700000047684, 'positionName': 'LEFT', 'positionCoords': [28.28, 52], 'bid': 6.5200000000000005}, {'imgObject': {}, 'id': 'eggsalad', 'src': '/static/foodstim60/eggsalad.jpg', 'key': 'i', 'origWidth': 410, 'origHeight': 409, 'width': 409.95, 'height': 408.9501219512195, 'widthPercent': 0.45, 'rescaleHeight': False, 'trialN': 85, 'loaded': True, 'loadedTime': 4183.900000095367, 'positionName': 'RIGHT', 'positionCoords': [473.72, 52], 'bid': 6.5}]",145822.40000009537,1669831753460,yogurt no spoon,eggsalad,6.5200000000000005,6.5,-0.020000000000000462,yogurt no spoon,1465.7999999523163,1467,1466.7000000476837,True,u,147801.70000004768,1979.2999999523163,1669831755440,1980,HRV,HRV_0049,2022-11-30 18:11:39
86,"[{'imgObject': {}, 'id': 'roastedpotatoes', 'src': '/static/foodstim60/roastedpotatoes.jpg', 'key': 'u', 'origWidth': 409, 'origHeight': 410, 'width': 409, 'height': 410, 'widthPercent': 0.45, 'rescaleHeight': False, 'trialN': 86, 'loaded': True, 'loadedTime': 4570.300000190735, 'positionName': 'LEFT', 'positionCoords': [28.28, 51], 'bid': 3.45}, {'imgObject': {}, 'id': 'burger', 'src': '/static/foodstim60/burger.jpg', 'key': 'i', 'origWidth': 409, 'origHeight': 409, 'width': 409, 'height': 409, 'widthPercent': 0.45, 'rescaleHeight': False, 'trialN': 86, 'loaded': True, 'loadedTime': 4934.400000095367, 'positionName': 'RIGHT', 'positionCoords': [473.72, 51.5], 'bid': 5.07}]",147802.0,1669831755440,roastedpotatoes,burger,3.45,5.07,1.62,burger,1317.4000000953674,1318,1318.5,True,i,149684.40000009537,1882.4000000953674,1669831757322,1882,HRV,HRV_0049,2022-11-30 18:11:39
87,"[{'imgObject': {}, 'id': 'raisin bran w milk', 'src': '/static/foodstim60/raisin bran w milk.jpg', 'key': 'u', 'origWidth': 411, 'origHeight': 411, 'width': 409.95, 'height': 409.95, 'widthPercent': 0.45, 'rescaleHeight': False, 'trialN': 87, 'loaded': True, 'loadedTime': 4698.400000095367, 'positionName': 'LEFT', 'positionCoords': [28.28, 51.5], 'bid': 3.51}, {'imgObject': {}, 'id': 'baked potato', 'src': '/static/foodstim60/baked potato.jpg', 'key': 'i', 'origWidth': 409, 'origHeight': 410, 'width': 409, 'height': 410, 'widthPercent': 0.45, 'rescaleHeight': False, 'trialN': 87, 'loaded': True, 'loadedTime': 4651, 'positionName': 'RIGHT', 'positionCoords': [473.72, 51], 'bid': 3.21}]",149685.10000014305,1669831757323,raisin bran w milk,baked potato,3.51,3.21,-0.2999999999999998,baked potato,1191.7000000476837,1192,1192.2000000476837,True,i,151390.20000004768,1705.0999999046326,1669831759028,1705,HRV,HRV_0049,2022-11-30 18:11:39
88,"[{'imgObject': {}, 'id': 'omelette', 'src': '/static/foodstim60/omelette.jpg', 'key': 'u', 'origWidth': 410, 'origHeight': 409, 'width': 409.95, 'height': 408.9501219512195, 'widthPercent': 0.45, 'rescaleHeight': False, 'trialN': 88, 'loaded': True, 'loadedTime': 4342.200000047684, 'positionName': 'LEFT', 'positionCoords': [28.28, 52], 'bid': 7.33}, {'imgObject': {}, 'id': 'edamame', 'src': '/static/foodstim60/edamame.jpg', 'key': 'i', 'origWidth': 409, 'origHeight': 410, 'width': 409, 'height': 410, 'widthPercent': 0.45, 'rescaleHeight': False, 'trialN': 88, 'loaded': True, 'loadedTime': 4119.300000190735, 'positionName': 'RIGHT', 'positionCoords': [473.72, 51], 'bid': 7.49}]",151390.40000009537,1669831759028,omelette,edamame,7.33,7.49,0.16000000000000014,edamame,1603.4000000953674,1605,1605.0,True,i,153507.60000014305,2117.2000000476837,1669831761145,2117,HRV,HRV_0049,2022-11-30 18:11:39
89,"[{'imgObject': {}, 'id': 'shreddedwheatwithmilk', 'src': '/static/foodstim60/shreddedwheatwithmilk.jpg', 'key': 'u', 'origWidth': 410, 'origHeight': 410, 'width': 409.95, 'height': 409.95, 'widthPercent': 0.45, 'rescaleHeight': False, 'trialN': 89, 'loaded': True, 'loadedTime': 4535.400000095367, 'positionName': 'LEFT', 'positionCoords': [28.28, 51.5], 'bid': 3.29}, {'imgObject': {}, 'id': 'burrito', 'src': '/static/foodstim60/burrito.jpg', 'key': 'i', 'origWidth': 410, 'origHeight': 410, 'width': 409.95, 'height': 409.95, 'widthPercent': 0.45, 'rescaleHeight': False, 'trialN': 89, 'loaded': True, 'loadedTime': 4276.100000143051, 'positionName': 'RIGHT', 'positionCoords': [473.72, 51.5], 'bid': 3.91}]",153508.40000009537,1669831761146,shreddedwheatwithmilk,burrito,3.29,3.91,0.6200000000000001,shreddedwheatwithmilk,1839.5999999046326,1841,1840.7999999523163,True,u,155857.0,2348.5999999046326,1669831763495,2349,HRV,HRV_0049,2022-11-30 18:11:39
90,"[{'imgObject': {}, 'id': 'hotdog w must', 'src': '/static/foodstim60/hotdog w must.jpg', 'key': 'u', 'origWidth': 409, 'origHeight': 409, 'width': 409, 'height': 409, 'widthPercent': 0.45, 'rescaleHeight': False, 'trialN': 90, 'loaded': True, 'loadedTime': 4436.5, 'positionName': 'LEFT', 'positionCoords': [28.28, 51.5], 'bid': 7.6}, {'imgObject': {}, 'id': 'Grapes', 'src': '/static/foodstim60/Grapes.jpg', 'key': 'i', 'origWidth': 411, 'origHeight': 411, 'width': 409.95, 'height': 409.95, 'widthPercent': 0.45, 'rescaleHeight': False, 'trialN': 90, 'loaded': True, 'loadedTime': 4663, 'positionName': 'RIGHT', 'positionCoords': [473.72, 51.5], 'bid': 7.97}]",161656.80000019073,1669831769295,hotdog w must,Grapes,7.6,7.97,0.3700000000000001,Grapes,1394.3999998569489,1397,1397.0999999046326,True,i,163579.60000014305,1922.7999999523163,1669831771217,1922,HRV,HRV_0049,2022-11-30 18:11:39
91,"[{'imgObject': {}, 'id': 'popsicles', 'src': '/static/foodstim60/popsicles.jpg', 'key': 'u', 'origWidth': 410, 'origHeight': 410, 'width': 409.95, 'height': 409.95, 'widthPercent': 0.45, 'rescaleHeight': False, 'trialN': 91, 'loaded': True, 'loadedTime': 5185.700000047684, 'positionName': 'LEFT', 'positionCoords': [28.28, 51.5], 'bid': 6.54}, {'imgObject': {}, 'id': 'eggs', 'src': '/static/foodstim60/eggs.jpg', 'key': 'i', 'origWidth': 409, 'origHeight': 409, 'width': 409, 'height': 409, 'widthPercent': 0.45, 'rescaleHeight': False, 'trialN': 91, 'loaded': True, 'loadedTime': 4908.800000190735, 'positionName': 'RIGHT', 'positionCoords': [473.72, 51.5], 'bid': 6.76}]",163580.10000014305,1669831771218,popsicles,eggs,6.54,6.76,0.21999999999999975,popsicles,1652.7000000476837,1654,1653.5999999046326,True,u,165736.60000014305,2156.5,1669831773374,2156,HRV,HRV_0049,2022-11-30 18:11:39
92,"[{'imgObject': {}, 'id': 'eggs', 'src': '/static/foodstim60/eggs.jpg', 'key': 'u', 'origWidth': 409, 'origHeight': 409, 'width': 409, 'height': 409, 'widthPercent': 0.45, 'rescaleHeight': False, 'trialN': 92, 'loaded': True, 'loadedTime': 4910.5, 'positionName': 'LEFT', 'positionCoords': [28.28, 51.5], 'bid': 6.76}, {'imgObject': {}, 'id': 'cocktailshrimp', 'src': '/static/foodstim60/cocktailshrimp.jpg', 'key': 'i', 'origWidth': 410, 'origHeight': 410, 'width': 409.95, 'height': 409.95, 'widthPercent': 0.45, 'rescaleHeight': False, 'trialN': 92, 'loaded': True, 'loadedTime': 4094.800000190735, 'positionName': 'RIGHT', 'positionCoords': [473.72, 51.5], 'bid': 6.19}]",165736.90000009537,1669831773375,eggs,cocktailshrimp,6.76,6.19,-0.5699999999999994,cocktailshrimp,765.7999999523163,766,766.7000000476837,True,i,167018.20000004768,1281.2999999523163,1669831774656,1281,HRV,HRV_0049,2022-11-30 18:11:39
93,"[{'imgObject': {}, 'id': 'seaweed', 'src': '/static/foodstim60/seaweed.jpg', 'key': 'u', 'origWidth': 410, 'origHeight': 410, 'width': 409.95, 'height': 409.95, 'widthPercent': 0.45, 'rescaleHeight': False, 'trialN': 93, 'loaded': True, 'loadedTime': 4722.200000047684, 'positionName': 'LEFT', 'positionCoords': [28.28, 51.5], 'bid': 7.16}, {'imgObject': {}, 'id': 'chicken nuggets2', 'src': '/static/foodstim60/chicken nuggets2.jpg', 'key': 'i', 'origWidth': 410, 'origHeight': 409, 'width': 409.95, 'height': 408.9501219512195, 'widthPercent': 0.45, 'rescaleHeight': False, 'trialN': 93, 'loaded': True, 'loadedTime': 3958.800000190735, 'positionName': 'RIGHT', 'positionCoords': [473.72, 52], 'bid': 7.25}]",167019.40000009537,1669831774657,seaweed,chicken nuggets2,7.16,7.25,0.08999999999999986,seaweed,659.0999999046326,660,659.7000000476837,True,u,168196.5,1177.0999999046326,1669831775834,1177,HRV,HRV_0049,2022-11-30 18:11:39
94,"[{'imgObject': {}, 'id': 'cherry tomato', 'src': '/static/foodstim60/cherry tomato.jpg', 'key': 'u', 'origWidth': 410, 'origHeight': 410, 'width': 409.95, 'height': 409.95, 'widthPercent': 0.45, 'rescaleHeight': False, 'trialN': 94, 'loaded': True, 'loadedTime': 4166.600000143051, 'positionName': 'LEFT', 'positionCoords': [28.28, 51.5], 'bid': 9}, {'imgObject': {}, 'id': 'granola w milk', 'src': '/static/foodstim60/granola w milk.jpg', 'key': 'i', 'origWidth': 410, 'origHeight': 410, 'width': 409.95, 'height': 409.95, 'widthPercent': 0.45, 'rescaleHeight': False, 'trialN': 94, 'loaded': True, 'loadedTime': 4283.5, 'positionName': 'RIGHT', 'positionCoords': [473.72, 51.5], 'bid': 7.68}]",168196.70000004768,1669831775835,cherry tomato,granola w milk,9.0,7.68,-1.3200000000000003,cherry tomato,684.5,685,685.7999999523163,True,u,169399.30000019073,1202.6000001430511,1669831777037,1202,HRV,HRV_0049,2022-11-30 18:11:39
95,"[{'imgObject': {}, 'id': 'steak', 'src': '/static/foodstim60/steak.jpg', 'key': 'u', 'origWidth': 410, 'origHeight': 410, 'width': 409.95, 'height': 409.95, 'widthPercent': 0.45, 'rescaleHeight': False, 'trialN': 95, 'loaded': True, 'loadedTime': 4235, 'positionName': 'LEFT', 'positionCoords': [28.28, 51.5], 'bid': 5.97}, {'imgObject': {}, 'id': 'grilled chicken strips', 'src': '/static/foodstim60/grilled chicken strips.jpg', 'key': 'i', 'origWidth': 410, 'origHeight': 411, 'width': 409.95, 'height': 410.94987804878053, 'widthPercent': 0.45, 'rescaleHeight': False, 'trialN': 95, 'loaded': True, 'loadedTime': 4855.100000143051, 'positionName': 'RIGHT', 'positionCoords': [473.72, 51], 'bid': 6.0200000000000005}]",169399.40000009537,1669831777037,steak,grilled chicken strips,5.97,6.0200000000000005,0.05000000000000071,grilled chicken strips,859.2000000476837,861,860.9000000953674,True,i,170795.40000009537,1396.0,1669831778433,1396,HRV,HRV_0049,2022-11-30 18:11:39
96,"[{'imgObject': {}, 'id': 'turkey sandwich', 'src': '/static/foodstim60/turkey sandwich.jpg', 'key': 'u', 'origWidth': 409, 'origHeight': 409, 'width': 409, 'height': 409, 'widthPercent': 0.45, 'rescaleHeight': False, 'trialN': 96, 'loaded': True, 'loadedTime': 3890, 'positionName': 'LEFT', 'positionCoords': [28.28, 51.5], 'bid': 6.65}, {'imgObject': {}, 'id': 'raisin bran w milk', 'src': '/static/foodstim60/raisin bran w milk.jpg', 'key': 'i', 'origWidth': 411, 'origHeight': 411, 'width': 409.95, 'height': 409.95, 'widthPercent': 0.45, 'rescaleHeight': False, 'trialN': 96, 'loaded': True, 'loadedTime': 4690.300000190735, 'positionName': 'RIGHT', 'positionCoords': [473.72, 51.5], 'bid': 3.51}]",170795.90000009537,1669831778434,turkey sandwich,raisin bran w milk,6.65,3.51,-3.1400000000000006,turkey sandwich,923.2000000476837,924,923.9000000953674,True,u,172233.30000019073,1437.4000000953674,1669831779871,1437,HRV,HRV_0049,2022-11-30 18:11:39
97,"[{'imgObject': {}, 'id': 'hotdog w must', 'src': '/static/foodstim60/hotdog w must.jpg', 'key': 'u', 'origWidth': 409, 'origHeight': 409, 'width': 409, 'height': 409, 'widthPercent': 0.45, 'rescaleHeight': False, 'trialN': 97, 'loaded': True, 'loadedTime': 4432.600000143051, 'positionName': 'LEFT', 'positionCoords': [28.28, 51.5], 'bid': 7.6}, {'imgObject': {}, 'id': 'granola w milk', 'src': '/static/foodstim60/granola w milk.jpg', 'key': 'i', 'origWidth': 410, 'origHeight': 410, 'width': 409.95, 'height': 409.95, 'widthPercent': 0.45, 'rescaleHeight': False, 'trialN': 97, 'loaded': True, 'loadedTime': 4292.100000143051, 'positionName': 'RIGHT', 'positionCoords': [473.72, 51.5], 'bid': 7.68}]",172233.60000014305,1669831779871,hotdog w must,granola w milk,7.6,7.68,0.08000000000000007,granola w milk,562.2999999523163,564,563.3999998569489,True,i,173316.40000009537,1082.7999999523163,1669831780954,1083,HRV,HRV_0049,2022-11-30 18:11:39
98,"[{'imgObject': {}, 'id': 'lox', 'src': '/static/foodstim60/lox.jpg', 'key': 'u', 'origWidth': 410, 'origHeight': 411, 'width': 409.95, 'height': 410.94987804878053, 'widthPercent': 0.45, 'rescaleHeight': False, 'trialN': 98, 'loaded': True, 'loadedTime': 4374.600000143051, 'positionName': 'LEFT', 'positionCoords': [28.28, 51], 'bid': 5.3100000000000005}, {'imgObject': {}, 'id': 'bagel plain', 'src': '/static/foodstim60/bagel plain.jpg', 'key': 'i', 'origWidth': 410, 'origHeight': 410, 'width': 409.95, 'height': 409.95, 'widthPercent': 0.45, 'rescaleHeight': False, 'trialN': 98, 'loaded': True, 'loadedTime': 4464.5, 'positionName': 'RIGHT', 'positionCoords': [473.72, 51.5], 'bid': 6.3500000000000005}]",173316.60000014305,1669831780954,lox,bagel plain,5.3100000000000005,6.3500000000000005,1.04,lox,716.2000000476837,717,717.0,True,u,174543.70000004768,1227.0999999046326,1669831782182,1228,HRV,HRV_0049,2022-11-30 18:11:39
99,"[{'imgObject': {}, 'id': 'fried eggs', 'src': '/static/foodstim60/fried eggs.jpg', 'key': 'u', 'origWidth': 410, 'origHeight': 410, 'width': 409.95, 'height': 409.95, 'widthPercent': 0.45, 'rescaleHeight': False, 'trialN': 99, 'loaded': True, 'loadedTime': 4628.200000047684, 'positionName': 'LEFT', 'positionCoords': [28.28, 51.5], 'bid': 8.47}, {'imgObject': {}, 'id': 'mango', 'src': '/static/foodstim60/mango.jpg', 'key': 'i', 'origWidth': 411, 'origHeight': 411, 'width': 409.95, 'height': 409.95, 'widthPercent': 0.45, 'rescaleHeight': False, 'trialN': 99, 'loaded': True, 'loadedTime': 4861.800000190735, 'positionName': 'RIGHT', 'positionCoords': [473.72, 51.5], 'bid': 7.25}]",174544.0,1669831782182,fried eggs,mango,8.47,7.25,-1.2200000000000006,mango,420.5,422,421.90000009536743,True,i,175479.5,935.5,1669831783117,935,HRV,HRV_0049,2022-11-30 18:11:39
100,"[{'imgObject': {}, 'id': 'chickenfingers', 'src': '/static/foodstim60/chickenfingers.jpg', 'key': 'u', 'origWidth': 410, 'origHeight': 410, 'width': 409.95, 'height': 409.95, 'widthPercent': 0.45, 'rescaleHeight': False, 'trialN': 100, 'loaded': True, 'loadedTime': 4263.200000047684, 'positionName': 'LEFT', 'positionCoords': [28.28, 51.5], 'bid': 7.73}, {'imgObject': {}, 'id': 'Tribe humus pita', 'src': '/static/foodstim60/Tribe humus pita.jpg', 'key': 'i', 'origWidth': 411, 'origHeight': 411, 'width': 409.95, 'height': 409.95, 'widthPercent': 0.45, 'rescaleHeight': False, 'trialN': 100, 'loaded': True, 'loadedTime': 4872.200000047684, 'positionName': 'RIGHT', 'positionCoords': [473.72, 51.5], 'bid': 7.73}]",175479.80000019073,1669831783118,chickenfingers,Tribe humus pita,7.73,7.73,0.0,chickenfingers,571.0,572,572.1999998092651,True,u,176576.60000014305,1096.7999999523163,1669831784214,1096,HRV,HRV_0049,2022-11-30 18:11:39
101,"[{'imgObject': {}, 'id': 'rigatoni and sauce', 'src': '/static/foodstim60/rigatoni and sauce.jpg', 'key': 'u', 'origWidth': 410, 'origHeight': 411, 'width': 409.95, 'height': 410.94987804878053, 'widthPercent': 0.45, 'rescaleHeight': False, 'trialN': 101, 'loaded': True, 'loadedTime': 4505.600000143051, 'positionName': 'LEFT', 'positionCoords': [28.28, 51], 'bid': 4.54}, {'imgObject': {}, 'id': 'strawberries', 'src': '/static/foodstim60/strawberries.jpg', 'key': 'i', 'origWidth': 410, 'origHeight': 410, 'width': 409.95, 'height': 409.95, 'widthPercent': 0.45, 'rescaleHeight': False, 'trialN': 101, 'loaded': True, 'loadedTime': 4139.800000190735, 'positionName': 'RIGHT', 'positionCoords': [473.72, 51.5], 'bid': 4.3}]",176577.0,1669831784215,rigatoni and sauce,strawberries,4.54,4.3,-0.2400000000000002,strawberries,1052.9000000953674,1058,1053.9000000953674,True,i,178149.60000014305,1572.6000001430511,1669831785791,1576,HRV,HRV_0049,2022-11-30 18:11:39
102,"[{'imgObject': {}, 'id': 'strawberries', 'src': '/static/foodstim60/strawberries.jpg', 'key': 'u', 'origWidth': 410, 'origHeight': 410, 'width': 409.95, 'height': 409.95, 'widthPercent': 0.45, 'rescaleHeight': False, 'trialN': 102, 'loaded': True, 'loadedTime': 4143.800000190735, 'positionName': 'LEFT', 'positionCoords': [28.28, 51.5], 'bid': 4.3}, {'imgObject': {}, 'id': 'salmon', 'src': '/static/foodstim60/salmon.jpg', 'key': 'i', 'origWidth': 410, 'origHeight': 409, 'width': 409.95, 'height': 408.9501219512195, 'widthPercent': 0.45, 'rescaleHeight': False, 'trialN': 102, 'loaded': True, 'loadedTime': 4306, 'positionName': 'RIGHT', 'positionCoords': [473.72, 52], 'bid': 5.8}]",178150.0,1669831785792,strawberries,salmon,4.3,5.8,1.5,strawberries,2128.800000190735,2130,2129.7000000476837,True,u,180789.70000004768,2639.7000000476837,1669831788432,2640,HRV,HRV_0049,2022-11-30 18:11:39
103,"[{'imgObject': {}, 'id': 'chicken nuggets2', 'src': '/static/foodstim60/chicken nuggets2.jpg', 'key': 'u', 'origWidth': 410, 'origHeight': 409, 'width': 409.95, 'height': 408.9501219512195, 'widthPercent': 0.45, 'rescaleHeight': False, 'trialN': 103, 'loaded': True, 'loadedTime': 3955.4000000953674, 'positionName': 'LEFT', 'positionCoords': [28.28, 52], 'bid': 7.25}, {'imgObject': {}, 'id': 'pear', 'src': '/static/foodstim60/pear.jpg', 'key': 'i', 'origWidth': 411, 'origHeight': 410, 'width': 409.95, 'height': 408.95255474452557, 'widthPercent': 0.45, 'rescaleHeight': False, 'trialN': 103, 'loaded': True, 'loadedTime': 4707.400000095367, 'positionName': 'RIGHT', 'positionCoords': [473.72, 52], 'bid': 7.84}]",180790.10000014305,1669831788432,chicken nuggets2,pear,7.25,7.84,0.5899999999999999,pear,814.8999998569489,816,816.0,True,i,182121.10000014305,1331.0,1669831789763,1331,HRV,HRV_0049,2022-11-30 18:11:39
104,"[{'imgObject': {}, 'id': 'chickenfingers', 'src': '/static/foodstim60/chickenfingers.jpg', 'key': 'u', 'origWidth': 410, 'origHeight': 410, 'width': 409.95, 'height': 409.95, 'widthPercent': 0.45, 'rescaleHeight': False, 'trialN': 104, 'loaded': True, 'loadedTime': 4249.900000095367, 'positionName': 'LEFT', 'positionCoords': [28.28, 51.5], 'bid': 7.73}, {'imgObject': {}, 'id': 'banana', 'src': '/static/foodstim60/banana.jpg', 'key': 'i', 'origWidth': 410, 'origHeight': 410, 'width': 409.95, 'height': 409.95, 'widthPercent': 0.45, 'rescaleHeight': False, 'trialN': 104, 'loaded': True, 'loadedTime': 4364.800000190735, 'positionName': 'RIGHT', 'positionCoords': [473.72, 51.5], 'bid': 5.75}]",182121.30000019073,1669831789763,chickenfingers,banana,7.73,5.75,-1.9800000000000004,banana,640.3999998569489,642,641.7999999523163,True,i,183295.60000014305,1174.2999999523163,1669831790938,1175,HRV,HRV_0049,2022-11-30 18:11:39
105,"[{'imgObject': {}, 'id': 'cantaloupe', 'src': '/static/foodstim60/cantaloupe.jpg', 'key': 'u', 'origWidth': 409, 'origHeight': 409, 'width': 409, 'height': 409, 'widthPercent': 0.45, 'rescaleHeight': False, 'trialN': 105, 'loaded': True, 'loadedTime': 4523.900000095367, 'positionName': 'LEFT', 'positionCoords': [28.28, 51.5], 'bid': 6.37}, {'imgObject': {}, 'id': 'bagel plain', 'src': '/static/foodstim60/bagel plain.jpg', 'key': 'i', 'origWidth': 410, 'origHeight': 410, 'width': 409.95, 'height': 409.95, 'widthPercent': 0.45, 'rescaleHeight': False, 'trialN': 105, 'loaded': True, 'loadedTime': 4459.700000047684, 'positionName': 'RIGHT', 'positionCoords': [473.72, 51.5], 'bid': 6.3500000000000005}]",183296.5,1669831790938,cantaloupe,bagel plain,6.37,6.3500000000000005,-0.019999999999999574,cantaloupe,565.6000001430511,567,566.9000000953674,True,u,184372.0,1075.5,1669831792014,1076,HRV,HRV_0049,2022-11-30 18:11:39
106,"[{'imgObject': {}, 'id': 'mac & cheese', 'src': '/static/foodstim60/mac & cheese.jpg', 'key': 'u', 'origWidth': 410, 'origHeight': 410, 'width': 409.95, 'height': 409.95, 'widthPercent': 0.45, 'rescaleHeight': False, 'trialN': 106, 'loaded': True, 'loadedTime': 4058.600000143051, 'positionName': 'LEFT', 'positionCoords': [28.28, 51.5], 'bid': 3.97}, {'imgObject': {}, 'id': 'burger', 'src': '/static/foodstim60/burger.jpg', 'key': 'i', 'origWidth': 409, 'origHeight': 409, 'width': 409, 'height': 409, 'widthPercent': 0.45, 'rescaleHeight': False, 'trialN': 106, 'loaded': True, 'loadedTime': 4935, 'positionName': 'RIGHT', 'positionCoords': [473.72, 51.5], 'bid': 5.07}]",184372.30000019073,1669831792014,mac & cheese,burger,3.97,5.07,1.1,burger,538.3999998569489,540,539.3999998569489,True,i,185416.90000009537,1044.5999999046326,1669831793059,1045,HRV,HRV_0049,2022-11-30 18:11:39
